TimeStamp(s)	FrameCounter	AccX	AccY	AccZ	GyrX	GyrY	GyrZ	EulerX	EulerY	EulerZ
0.01	1	-0.011	-1.004	0.053	0	-2.0626488	0.859437	93.8791683	-0.8021412	-22.92977916
0.02	2	-0.015	-1.007	0.047	0.0572958	-2.2345362	1.3178034	93.8791683	-0.81360036	-22.95269748
0.03	3	-0.02	-1.007	0.047	0	-1.8907614	1.432395	93.8791683	-0.82505952	-22.96988622
0.04	4	-0.021	-1.003	0.046	-0.0572958	-1.718874	1.3750992	93.8791683	-0.83651868	-22.98707496
0.05	5	-0.022	-1.001	0.044	0	-1.7761698	1.3178034	93.83333166	-0.85370742	-23.00999328
0.06	6	-0.022	-1	0.044	0.286479	-2.1199446	1.0886202	93.83906124	-0.859437	-23.0329116
0.07	7	-0.023	-1.002	0.044	0.7448454	-2.2345362	0.9740286	93.84479082	-0.86516658	-23.05582992
0.08	8	-0.023	-1.003	0.046	0.9167328	-2.1199446	0.9740286	93.85624998	-0.87662574	-23.07301866
0.09	9	-0.022	-1	0.049	1.4896908	-1.7761698	1.145916	93.87343872	-0.88235532	-23.09593698
0.1	10	-0.023	-1.002	0.052	2.1199446	-1.5469866	1.3750992	93.86770914	-0.89954406	-23.10739614
0.11	11	-0.024	-1.004	0.052	2.3491278	-1.2032118	1.4896908	93.89635704	-0.91100322	-23.12458488
0.12	12	-0.026	-1.007	0.05	2.3491278	-1.0313244	1.4896908	93.91927536	-0.92819196	-23.13604404
0.13	13	-0.025	-1.007	0.051	2.291832	-0.7448454	1.432395	93.94219368	-0.93965112	-23.14177362
0.14	14	-0.026	-1.006	0.05	2.2345362	-0.6875496	1.3750992	93.965112	-0.95111028	-23.1475032
0.15	15	-0.027	-1.007	0.052	2.005353	-0.3437748	1.2032118	93.94792326	-0.96829902	-23.15323278
0.16	16	-0.027	-1.009	0.052	1.9480572	-0.0572958	1.0886202	93.97084158	-0.97975818	-23.15323278
0.17	17	-0.028	-1.01	0.051	1.6615782	0.3437748	0.9740286	93.98803032	-0.99121734	-23.15323278
0.18	18	-0.028	-1.011	0.051	1.432395	0.7448454	0.9167328	93.99948948	-1.0026765	-23.1475032
0.19	19	-0.027	-1.012	0.053	1.0313244	1.2032118	0.859437	94.01094864	-1.01413566	-23.13604404
0.2	20	-0.025	-1.013	0.055	0.8021412	1.6042824	0.8021412	93.98230074	-1.02559482	-23.1188553
0.21	21	-0.024	-1.012	0.055	0.5156622	2.1199446	0.9740286	93.98803032	-1.03705398	-23.09593698
0.22	22	-0.022	-1.01	0.054	0.286479	2.291832	1.145916	93.98803032	-1.04851314	-23.07874824
0.23	23	-0.021	-1.009	0.05	0.0572958	2.291832	1.145916	93.98803032	-1.06570188	-23.05582992
0.24	24	-0.022	-1.007	0.048	0.0572958	2.1199446	1.145916	93.98803032	-1.07716104	-23.0329116
0.25	25	-0.022	-1.006	0.047	0.1145916	1.8907614	1.145916	93.94219368	-1.0886202	-23.01572286
0.26	26	-0.023	-1.006	0.048	0.1145916	1.8907614	1.0313244	93.94219368	-1.10007936	-22.99853412
0.27	27	-0.023	-1.007	0.048	0.1145916	1.8907614	0.859437	93.94219368	-1.11153852	-22.98134538
0.28	28	-0.025	-1.007	0.048	0.0572958	1.9480572	0.7448454	93.94219368	-1.12299768	-22.96415664
0.29	29	-0.024	-1.007	0.048	0.1718874	1.9480572	0.7448454	93.94219368	-1.12872726	-22.9469679
0.3	30	-0.024	-1.008	0.048	0.2291832	1.8907614	0.7448454	93.89635704	-1.14018642	-22.92977916
0.31	31	-0.026	-1.01	0.045	0	1.8907614	0.7448454	93.89062746	-1.15164558	-22.91259042
0.32	32	-0.023	-1.011	0.045	-0.0572958	1.8907614	0.7448454	93.89062746	-1.16310474	-22.8896721
0.33	33	-0.022	-1.009	0.044	-0.3437748	1.8907614	0.7448454	93.88489788	-1.16883432	-22.87248336
0.34	34	-0.02	-1.009	0.048	-0.5156622	1.8334656	0.8021412	93.8791683	-1.18029348	-22.85529462
0.35	35	-0.018	-1.01	0.048	-0.859437	1.6615782	0.6302538	93.82760208	-1.18029348	-22.84383546
0.36	36	-0.021	-1.01	0.046	-1.145916	1.5469866	0.572958	93.81614292	-1.18602306	-22.82664672
0.37	37	-0.022	-1.009	0.045	-1.3750992	1.3750992	0.5156622	93.79895418	-1.19175264	-22.81518756
0.38	38	-0.025	-1.008	0.044	-1.4896908	1.3178034	0.4583664	93.78176544	-1.19748222	-22.8037284
0.39	39	-0.024	-1.007	0.045	-1.6042824	1.2605076	0.1718874	93.7645767	-1.2032118	-22.79226924
0.4	40	-0.024	-1.005	0.044	-1.6615782	1.2032118	0.1145916	93.70155132	-1.2032118	-22.78081008
0.41	41	-0.024	-1.004	0.044	-1.8334656	1.2032118	0.1145916	93.68436258	-1.2032118	-22.76935092
0.42	42	-0.023	-1.005	0.043	-1.8334656	1.2032118	0	93.66717384	-1.2032118	-22.75789176
0.43	43	-0.021	-1.005	0.041	-1.8334656	0.9740286	-0.1145916	93.64425552	-1.2032118	-22.7464326
0.44	44	-0.019	-1.006	0.041	-1.8334656	0.6302538	-0.2291832	93.62706678	-1.2032118	-22.74070302
0.45	45	-0.018	-1.009	0.04	-1.8334656	0.4010706	-0.3437748	93.5353935	-1.18602306	-22.74070302
0.46	46	-0.018	-1.014	0.037	-1.8907614	0.1145916	-0.3437748	93.51820476	-1.18029348	-22.74070302
0.47	47	-0.017	-1.014	0.038	-1.8334656	-0.0572958	-0.1145916	93.50101602	-1.18029348	-22.74070302
0.48	48	-0.009	-1.015	0.046	-1.6615782	0.1145916	-0.2291832	93.48382728	-1.18029348	-22.74070302
0.49	49	-0.006	-1.014	0.049	-1.6615782	0.4583664	-0.2291832	93.46663854	-1.1745639	-22.73497344
0.5	50	-0.006	-1.013	0.049	-1.8334656	-0.0572958	-0.1718874	93.39788358	-1.14018642	-22.7464326
0.51	51	0	-1.012	0.051	-2.1199446	-0.7448454	-0.0572958	93.37496526	-1.14018642	-22.75789176
0.52	52	0.004	-1.011	0.051	-2.4637194	-1.2605076	0	93.35204694	-1.14018642	-22.76935092
0.53	53	0	-1.007	0.05	-2.7501984	-1.7761698	0	93.32339904	-1.14018642	-22.78653966
0.54	54	-0.003	-1.002	0.046	-3.0366774	-1.8334656	-0.2291832	93.29475114	-1.13445684	-22.8037284
0.55	55	-0.002	-0.997	0.043	-3.151269	-1.6042824	-0.572958	93.23745534	-1.11153852	-22.82664672
0.56	56	-0.002	-0.996	0.044	-2.9220858	-1.6042824	-0.8021412	93.20880744	-1.10007936	-22.84383546
0.57	57	0	-1.001	0.048	-2.6929026	-2.1199446	-1.0313244	93.18015954	-1.0886202	-22.8610242
0.58	58	0.005	-1.008	0.047	-2.4064236	-2.1199446	-1.432395	93.15724122	-1.07143146	-22.88394252
0.59	59	0.01	-1.01	0.046	-1.8907614	-2.3491278	-1.8334656	93.14005248	-1.05424272	-22.90686084
0.6	60	0.01	-1.007	0.048	-1.3750992	-2.9220858	-2.1199446	93.11140458	-1.00840608	-22.94123832
0.61	61	0.013	-1.004	0.05	-1.2032118	-3.2658606	-2.3491278	93.09994542	-0.97975818	-22.96988622
0.62	62	0.021	-0.999	0.049	-1.3178034	-3.2085648	-2.4637194	93.08275668	-0.95683986	-23.0042637
0.63	63	0.025	-0.998	0.052	-1.3750992	-3.2085648	-2.4064236	93.07129752	-0.92819196	-23.0329116
0.64	64	0.025	-1.001	0.055	-1.6042824	-3.437748	-2.291832	93.05410878	-0.89954406	-23.06728908
0.65	65	0.024	-1.001	0.057	-1.8334656	-3.7815228	-2.291832	93.03119046	-0.85370742	-23.10739614
0.66	66	0.021	-1.003	0.057	-2.005353	-4.1252976	-2.4637194	93.00827214	-0.82505952	-23.1475032
0.67	67	0.018	-1.004	0.054	-1.8907614	-4.1252976	-2.5210152	92.9910834	-0.79641162	-23.18761026
0.68	68	0.01	-1.005	0.056	-1.4896908	-4.010706	-2.6929026	92.97962424	-0.76776372	-23.22771732
0.69	69	0.006	-1.006	0.059	-1.0886202	-3.724227	-3.0366774	92.96816508	-0.73338624	-23.2620948
0.7	70	0.005	-1.001	0.062	-0.5156622	-3.2658606	-3.437748	92.95670592	-0.68182002	-23.29647228
0.71	71	0.004	-0.999	0.063	0.0572958	-2.5210152	-3.5523396	92.95670592	-0.64744254	-23.3193906
0.72	72	0.003	-0.998	0.065	0.4010706	-2.1199446	-3.3231564	92.9624355	-0.60733548	-23.33657934
0.73	73	0.001	-0.996	0.067	0.572958	-1.3178034	-3.0939732	92.96816508	-0.57868758	-23.3480385
0.74	74	0.004	-0.994	0.07	0.6875496	-0.286479	-2.6356068	92.97389466	-0.55003968	-23.35376808
0.75	75	0.007	-0.991	0.07	0.8021412	0.3437748	-2.291832	92.97962424	-0.50420304	-23.35376808
0.76	76	0.008	-0.989	0.068	1.145916	0.8021412	-2.005353	92.9910834	-0.48128472	-23.34230892
0.77	77	0.007	-0.986	0.069	1.6615782	1.0313244	-1.432395	93.00827214	-0.46982556	-23.33084976
0.78	78	0.007	-0.982	0.073	2.4064236	0.8021412	-0.9167328	93.03119046	-0.4583664	-23.32512018
0.79	79	0.007	-0.98	0.078	3.0939732	0.4010706	-0.572958	93.06556794	-0.45263682	-23.3193906
0.8	80	0.006	-0.984	0.083	3.724227	0.2291832	-0.1718874	93.11140458	-0.43544808	-23.3193906
0.81	81	0	-0.985	0.085	4.2398892	0.1718874	0.1718874	93.15151164	-0.44117766	-23.31366102
0.82	82	-0.005	-0.986	0.086	4.7555514	0.1145916	0.7448454	93.20307786	-0.44690724	-23.31366102
0.83	83	-0.004	-0.989	0.086	5.3285094	0.1145916	1.3178034	93.25464408	-0.4583664	-23.31366102
0.84	84	-0.006	-0.994	0.082	5.8441716	0	1.6615782	93.31766946	-0.47555514	-23.31366102
0.85	85	-0.007	-0.998	0.079	6.2452422	-0.4583664	2.1199446	93.37496526	-0.49274388	-23.3193906
0.86	86	-0.007	-0.998	0.075	6.4744254	-1.3178034	2.7501984	93.44372022	-0.52139178	-23.33657934
0.87	87	-0.004	-0.997	0.072	6.4744254	-2.6356068	3.3804522	93.51247518	-0.55003968	-23.35949766
0.88	88	-0.004	-0.997	0.073	6.302538	-3.6669312	3.6669312	93.57550056	-0.58441716	-23.39960472
0.89	89	-0.003	-0.992	0.073	5.7868758	-4.5263682	3.8388186	93.63279636	-0.61879464	-23.44544136
0.9	90	-0.004	-0.985	0.068	4.9274388	-6.0733548	3.9534102	93.68436258	-0.64744254	-23.50846674
0.91	91	-0.004	-0.983	0.064	3.9534102	-7.6776372	3.8388186	93.72446964	-0.67609044	-23.58868086
0.92	92	-0.003	-0.984	0.064	2.9793816	-8.6516658	3.4950438	93.75884712	-0.70473834	-23.67462456
0.93	93	-0.007	-0.985	0.057	2.1772404	-9.2819196	3.2658606	93.78176544	-0.72765666	-23.76629784
0.94	94	-0.007	-0.987	0.048	1.4896908	-10.4278356	3.4950438	93.79895418	-0.75057498	-23.87515986
0.95	95	-0.004	-0.991	0.044	1.6615782	-12.318597	3.6669312	93.81041334	-0.7734933	-24.00121062
0.96	96	-0.002	-0.992	0.05	2.4064236	-13.750992	3.6669312	93.83906124	-0.79641162	-24.13872054
0.97	97	-0.002	-0.999	0.055	3.8961144	-14.32395	3.724227	93.88489788	-0.81932994	-24.28196004
0.98	98	0	-1.009	0.059	5.5576926	-14.6677248	3.9534102	93.94219368	-0.84797784	-24.42519954
0.99	99	-0.002	-1.015	0.061	7.448454	-15.6990492	4.3544808	94.0224078	-0.87089616	-24.58562778
1	100	-0.006	-1.017	0.073	9.3392154	-16.4438946	5.156622	94.11981066	-0.90527364	-24.7517856
1.01	101	-0.017	-1.008	0.086	11.0007936	-17.2460358	6.3598338	94.24013184	-0.95111028	-24.923673
1.02	102	-0.032	-0.999	0.103	12.4331886	-18.9649098	7.5630456	94.37191218	-1.00840608	-25.11274914
1.03	103	-0.059	-0.998	0.126	12.7196676	-20.7410796	8.5370742	94.5094221	-1.07143146	-25.3247436
1.04	104	-0.075	-1.006	0.139	11.8029348	-20.7410796	9.0527364	94.63547286	-1.13445684	-25.53100848
1.05	105	-0.074	-1.014	0.15	10.2559482	-20.5118964	9.7975818	94.75006446	-1.21467096	-25.74300294
1.06	106	-0.082	-1.015	0.155	8.8235532	-20.5691922	10.5424272	94.84746732	-1.29488508	-25.94926782
1.07	107	-0.094	-1.01	0.164	7.448454	-20.2254174	10.9434978	94.93341102	-1.38082878	-26.16126228
1.08	108	-0.087	-1.004	0.18	5.9587632	-18.907614	10.7716104	95.00216598	-1.46677248	-26.356068
1.09	109	-0.074	-1.005	0.186	5.0420304	-17.8762896	10.886202	95.05946178	-1.55271618	-26.53941456
1.1	110	-0.065	-1.005	0.187	4.297185	-17.3033316	10.5424272	95.12248716	-1.64438946	-26.71703154
1.11	111	-0.072	-1.01	0.205	3.7815228	-15.2406828	9.9121734	95.1683238	-1.72460358	-26.87745978
1.12	112	-0.084	-1.018	0.227	3.4950438	-11.45916	9.5683986	95.20843086	-1.8048177	-26.99778096
1.13	113	-0.087	-1.033	0.238	2.578311	-7.7922288	9.5111028	95.23707876	-1.8907614	-27.08372466
1.14	114	-0.088	-1.054	0.237	0.6302538	-4.9274388	9.453807	95.24853792	-1.9767051	-27.14102046
1.15	115	-0.078	-1.072	0.218	-1.7761698	-2.578311	9.740286	95.24853792	-2.07983754	-27.17539794
1.16	116	-0.066	-1.08	0.206	-4.3544808	-2.2345362	10.1413566	95.20843086	-2.1772404	-27.20404584
1.17	117	-0.055	-1.079	0.2	-6.7609044	-2.005353	10.4851314	95.1396759	-2.28037284	-27.23269374
1.18	118	-0.055	-1.083	0.177	-10.4278356	-1.9480572	11.1153852	95.03654346	-2.38923486	-27.26707122
1.19	119	-0.058	-1.08	0.147	-14.9542038	-1.718874	12.032118	94.88757438	-2.50382646	-27.29571912
1.2	120	-0.065	-1.063	0.127	-18.3919518	-0.8021412	12.6623718	94.70422782	-2.6356068	-27.31863744
1.21	121	-0.064	-1.035	0.117	-21.3140376	0	12.9488508	94.48650378	-2.76165756	-27.3300966
1.22	122	-0.06	-1.004	0.117	-23.3766864	-0.286479	12.4904844	94.251591	-2.88770832	-27.34728534
1.23	123	-0.062	-0.981	0.118	-24.064236	-1.3750992	11.5164558	94.00521906	-3.00229992	-27.37020366
1.24	124	-0.075	-0.976	0.111	-24.923673	-2.7501984	10.7143146	93.75884712	-3.11116194	-27.41031072
1.25	125	-0.087	-0.971	0.11	-26.1268848	-3.8388186	10.0840608	93.49528644	-3.21429438	-27.45614736
1.26	126	-0.1	-0.965	0.119	-26.5279554	-4.5263682	8.9954406	93.23172576	-3.30023808	-27.50771358
1.27	127	-0.112	-0.966	0.124	-26.929026	-4.583664	7.9068204	92.9624355	-3.37472262	-27.56500938
1.28	128	-0.128	-0.973	0.13	-27.6165756	-3.3231564	7.1046792	92.68741566	-3.44347758	-27.60511644
1.29	129	-0.13	-0.971	0.135	-28.5906042	-2.005353	6.4744254	92.39520708	-3.51223254	-27.62803476
1.3	130	-0.135	-0.961	0.14	-29.5646328	-1.145916	5.5003968	92.10872808	-3.57525792	-27.6452235
1.31	131	-0.134	-0.951	0.151	-30.1375908	-0.2291832	4.4117766	91.80506034	-3.62682414	-27.65095308
1.32	132	-0.135	-0.948	0.159	-30.1948866	0.5156622	3.0939732	91.49566302	-3.65547204	-27.65095308
1.33	133	-0.138	-0.945	0.169	-29.793816	1.9480572	1.4896908	91.19199528	-3.67839036	-27.63376434
1.34	134	-0.142	-0.947	0.177	-29.3354496	4.4117766	-0.1718874	90.89405712	-3.67839036	-27.59365728
1.35	135	-0.147	-0.949	0.186	-29.2781538	7.734933	-1.3750992	90.60757812	-3.68411994	-27.51917274
1.36	136	-0.154	-0.948	0.199	-29.1635622	10.4851314	-2.291832	90.30391038	-3.6669312	-27.4160403
1.37	137	-0.157	-0.949	0.209	-29.1062664	13.2926256	-2.9220858	90.00024264	-3.64401288	-27.28998954
1.38	138	-0.156	-0.955	0.214	-29.6792244	16.6730778	-3.6669312	89.68511574	-3.6096354	-27.1295613
1.39	139	-0.155	-0.952	0.21	-29.7365202	19.0795014	-4.4690724	89.36998884	-3.57525792	-26.94048516
1.4	140	-0.159	-0.958	0.202	-29.1062664	20.8556712	-5.3858052	89.07205068	-3.53515086	-26.73994986
1.41	141	-0.157	-0.971	0.171	-29.793816	21.8296998	-6.7609044	88.75692378	-3.47212548	-26.5279554
1.42	142	-0.157	-0.984	0.151	-31.7418732	23.4339822	-8.880849	88.41314898	-3.38618178	-26.2987722
1.43	143	-0.158	-0.981	0.139	-34.3201842	26.1268848	-11.172681	88.04645586	-3.27731976	-26.04667068
1.44	144	-0.139	-0.967	0.132	-33.6326346	28.6479	-13.4072172	87.68549232	-3.13980984	-25.77165084
1.45	145	-0.122	-0.965	0.139	-30.4240698	30.653253	-14.9542038	87.37036542	-2.99657034	-25.47371268
1.46	146	-0.121	-0.983	0.134	-24.923673	31.4553942	-14.8396122	87.09534558	-2.84760126	-25.17577452
1.47	147	-0.13	-1.006	0.121	-20.7410796	29.1062664	-13.0634424	86.86616238	-2.71009134	-24.8950251
1.48	148	-0.148	-1.011	0.133	-15.6990492	25.7258142	-11.1153852	86.69427498	-2.59549974	-24.64865316
1.49	149	-0.16	-1.021	0.178	-10.313244	24.7517856	-10.0840608	86.5739538	-2.48663772	-24.4080108
1.5	150	-0.157	-1.039	0.206	-6.6463128	26.4133638	-10.026765	86.516658	-2.38923486	-24.1501797
1.51	151	-0.14	-1.054	0.217	-4.010706	29.2781538	-10.5424272	86.4593622	-2.27464326	-23.86943028
1.52	152	-0.12	-1.099	0.19	-3.9534102	32.4294228	-10.5424272	86.4020664	-2.16005166	-23.55430338
1.53	153	-0.086	-1.174	0.125	-5.6722842	32.1429438	-8.7662574	86.32758186	-2.0626488	-23.24490606
1.54	154	-0.031	-1.247	0.033	-8.021412	26.5279554	-5.6722842	86.23590858	-1.99962342	-22.98134538
1.55	155	0.101	-1.292	-0.063	-8.5370742	16.329303	-2.5210152	86.13850572	-1.95378678	-22.82664672
1.56	156	0.228	-1.243	-0.082	1.3178034	7.5630456	-0.9740286	86.14996488	-1.94232762	-22.75216218
1.57	157	0.272	-1.213	-0.032	14.2666542	1.0886202	-0.7448454	86.29320438	-1.93086846	-22.74070302
1.58	158	0.28	-1.262	-0.024	15.5844576	-7.9068204	0.7448454	86.4593622	-1.94232762	-22.81518756
1.59	159	0.232	-1.253	-0.134	10.1986524	-19.9962342	4.297185	86.56822422	-1.98816426	-23.00999328
1.6	160	0.12	-1.128	-0.172	11.5737516	-27.1582092	6.0733548	86.6885454	-2.04546006	-23.27928354
1.61	161	-0.054	-1.01	-0.151	19.3659804	-29.3354496	4.3544808	86.90053986	-2.09702628	-23.56576254
1.62	162	-0.206	-0.956	-0.147	24.2361234	-24.2361234	0.6302538	87.15837096	-2.10848544	-23.80067532
1.63	163	-0.313	-0.946	-0.146	25.496631	-14.7250206	-2.2345362	87.42193164	-2.08556712	-23.94391482
1.64	164	-0.393	-0.939	-0.173	24.1215318	-1.8334656	-2.1199446	87.66830358	-2.0626488	-23.96110356
1.65	165	-0.423	-0.968	-0.208	21.6005166	13.2926256	-1.3750992	87.8631093	-2.08556712	-23.81786406
1.66	166	-0.404	-1.001	-0.218	17.1314442	27.501984	-1.3178034	88.02353754	-2.06837838	-23.5485738
1.67	167	-0.311	-1.013	-0.239	11.1153852	40.2216516	-0.9167328	88.1209404	-2.05691922	-23.1475032
1.68	168	-0.182	-1.044	-0.247	7.0473834	47.0398518	-0.3437748	88.16677704	-2.05118964	-22.68340722
1.69	169	-0.046	-1.088	-0.252	4.1252976	48.0138804	0	88.18396578	-2.05118964	-22.20785208
1.7	170	0.068	-1.094	-0.249	3.8388186	43.9458786	0.1718874	88.18396578	-2.0340009	-21.772404
1.71	171	0.153	-1.056	-0.222	6.0733548	36.6120162	-0.1145916	88.22980242	-2.0340009	-21.41144046
1.72	172	0.176	-0.994	-0.19	9.2246238	27.2728008	-1.6615782	88.31001654	-2.01108258	-21.1421502
1.73	173	0.14	-0.945	-0.161	12.2613012	18.4492476	-3.437748	88.42460814	-1.9767051	-20.95880364
1.74	174	0.093	-0.93	-0.144	13.6936962	11.2872726	-4.870143	88.55638848	-1.93086846	-20.84421204
1.75	175	0.05	-0.942	-0.121	13.9228794	5.6149884	-5.3285094	88.67098008	-1.85638392	-20.79264582
1.76	176	0.02	-0.959	-0.096	13.6364004	2.7501984	-5.443101	88.80849	-1.79908812	-20.76399792
1.77	177	-0.004	-0.975	-0.077	12.318597	0.9167328	-5.3285094	88.93454076	-1.7475219	-20.75253876
1.78	178	-0.02	-0.987	-0.053	10.7716104	-0.1145916	-4.9847346	89.04340278	-1.69595568	-20.75253876
1.79	179	-0.023	-1.004	-0.037	9.2819196	-0.2291832	-4.8128472	89.14080564	-1.65011904	-20.75826834
1.8	180	-0.006	-1.009	-0.026	7.734933	0.1145916	-5.2139178	89.20383102	-1.58136408	-20.75826834
1.81	181	0.027	-1.003	-0.023	5.6149884	0.1145916	-5.8441716	89.26112682	-1.5183387	-20.75826834
1.82	182	0.054	-0.983	-0.032	2.6356068	-0.5156622	-7.161975	89.28977472	-1.44958374	-20.76399792
1.83	183	0.074	-0.957	-0.038	0.859437	-1.718874	-8.307891	89.30123388	-1.36364004	-20.78118666
1.84	184	0.075	-0.932	-0.036	-0.1718874	-3.5523396	-8.8235532	89.2955043	-1.27769634	-20.81556414
1.85	185	0.065	-0.911	-0.025	-0.8021412	-5.7868758	-8.8235532	89.28404514	-1.16310474	-20.87858952
1.86	186	0.051	-0.895	-0.016	-1.432395	-7.2192708	-8.4224826	89.27258598	-1.08289062	-20.95307406
1.87	187	0.038	-0.885	-0.008	-2.0626488	-7.6203414	-7.8495246	89.24966766	-1.0026765	-21.0275586
1.88	188	0.019	-0.882	-0.005	-2.8074942	-7.9641162	-7.0473834	89.22674934	-0.92819196	-21.10777272
1.89	189	0.007	-0.888	0.001	-3.3231564	-7.9641162	-6.3598338	89.19237186	-0.86516658	-21.18798684
1.9	190	0.003	-0.901	0.009	-3.8961144	-7.161975	-5.5003968	89.15799438	-0.8021412	-21.26247138
1.91	191	0.016	-0.913	0.017	-4.5263682	-5.6149884	-4.9847346	89.11215774	-0.75057498	-21.31976718
1.92	192	0.03	-0.921	0.024	-4.7555514	-4.7555514	-4.4117766	89.0663211	-0.71046792	-21.36560382
1.93	193	0.043	-0.928	0.028	-4.9847346	-4.3544808	-4.4117766	89.01475488	-0.66463128	-21.41144046
1.94	194	0.048	-0.926	0.028	-5.6149884	-4.4690724	-3.9534102	88.95745908	-0.62452422	-21.4572771
1.95	195	0.046	-0.922	0.034	-5.7868758	-4.297185	-3.0939732	88.91162244	-0.572958	-21.50311374
1.96	196	0.039	-0.92	0.041	-5.72958	-4.0680018	-2.1199446	88.85432664	-0.55003968	-21.5432208
1.97	197	0.029	-0.914	0.047	-5.72958	-4.1825934	-1.0886202	88.79703084	-0.53858052	-21.58905744
1.98	198	0.022	-0.903	0.054	-5.72958	-3.8961144	0.1718874	88.73973504	-0.5443101	-21.6291645
1.99	199	0.023	-0.892	0.063	-5.5003968	-3.7815228	1.718874	88.68243924	-0.56149884	-21.66354198
2	200	0.027	-0.89	0.068	-5.3858052	-4.1825934	2.86479	88.64806176	-0.57868758	-21.70937862
2.01	201	0.039	-0.887	0.081	-4.9274388	-5.156622	3.7815228	88.59649554	-0.61306506	-21.76094484
2.02	202	0.056	-0.886	0.092	-3.6669312	-6.5317212	4.6409598	88.56211806	-0.6589017	-21.82397022
2.03	203	0.063	-0.889	0.097	-2.0626488	-7.9641162	5.443101	88.54492932	-0.7161975	-21.90418434
2.04	204	0.06	-0.893	0.105	0.1718874	-9.9121734	6.1879464	88.5506589	-0.77922288	-22.0015872
2.05	205	0.041	-0.9	0.113	2.5210152	-11.6883432	6.8182002	88.60222512	-0.8307891	-22.1161788
2.06	206	0.028	-0.908	0.118	4.870143	-12.4331886	6.9900876	88.65379134	-0.89954406	-22.23649998
2.07	207	0.016	-0.921	0.115	6.5317212	-11.745639	6.8182002	88.72827588	-0.96829902	-22.35109158
2.08	208	0.009	-0.944	0.11	6.589017	-10.6570188	6.1879464	88.79703084	-1.0313244	-22.45422402
2.09	209	0.007	-0.964	0.108	6.589017	-10.7143146	5.8441716	88.8657858	-1.0886202	-22.55735646
2.1	210	0.012	-0.986	0.112	6.016059	-11.3445684	5.7868758	88.95745908	-1.12872726	-22.67194806
2.11	211	0.035	-1.019	0.11	4.2398892	-11.8029348	5.156622	89.0090253	-1.18029348	-22.78653966
2.12	212	0.069	-1.055	0.091	1.8907614	-11.4018642	3.4950438	89.03194362	-1.21467096	-22.90113126
2.13	213	0.106	-1.088	0.078	0.1145916	-11.172681	1.432395	89.0376732	-1.22613012	-23.00999328
2.14	214	0.126	-1.101	0.081	-0.7448454	-11.8602306	-0.3437748	89.03194362	-1.22040054	-23.13031446
2.15	215	0.14	-1.097	0.11	0.5156622	-13.2353298	-1.5469866	89.0663211	-1.16310474	-23.26782438
2.16	216	0.146	-1.095	0.142	2.5210152	-15.6417534	-1.6615782	89.10069858	-1.145916	-23.42252304
2.17	217	0.145	-1.098	0.174	4.4117766	-18.907614	-1.0313244	89.1522648	-1.13445684	-23.6058696
2.18	218	0.14	-1.109	0.206	7.0473834	-22.058883	-0.1145916	89.22674934	-1.12872726	-23.82359364
2.19	219	0.136	-1.111	0.235	10.026765	-25.5539268	0.6302538	89.34134094	-1.12872726	-24.07569516
2.2	220	0.124	-1.108	0.249	12.7196676	-28.9916748	1.0886202	89.50176918	-1.12299768	-24.36217416
2.21	221	0.117	-1.11	0.26	14.7250206	-32.372127	0.9740286	89.66219742	-1.12299768	-24.68303064
2.22	222	0.081	-1.145	0.217	14.9542038	-33.6326346	-0.2291832	89.82262566	-1.11153852	-25.01534628
2.23	223	0.028	-1.183	0.171	15.183387	-30.653253	-3.0939732	89.98878348	-1.07143146	-25.31328444
2.24	224	-0.016	-1.18	0.137	16.042824	-24.2361234	-6.589017	90.16067088	-0.99694692	-25.5539268
2.25	225	-0.111	-1.199	0.054	10.886202	-19.5951636	-10.9434978	90.27526248	-0.89381448	-25.74300294
2.26	226	-0.238	-1.257	0.027	2.005353	-15.5271618	-15.756345	90.2981808	-0.72765666	-25.89197202
2.27	227	-0.328	-1.251	-0.087	-9.167328	-8.1932994	-19.3086846	90.20650752	-0.53285094	-25.97791572
2.28	228	-0.387	-1.181	-0.214	-11.1153852	-0.4010706	-24.7517856	90.0976455	-0.29220858	-25.97791572
2.29	229	-0.314	-1.116	-0.419	3.9534102	5.7868758	-34.091001	90.13202298	0.04010706	-25.92061992
2.3	230	-0.124	-1.039	-0.442	30.080295	3.2658606	-35.5806918	90.4127724	0.39534102	-25.88051286
2.31	231	0.057	-1.029	-0.188	44.5188366	3.9534102	-22.9756158	90.86540922	0.62452422	-25.83467622
2.32	232	0.197	-0.989	-0.208	36.4974246	6.2452422	-13.2353298	91.23783192	0.75630456	-25.76592126
2.33	233	0.317	-0.948	-0.307	28.2468294	-6.589017	-10.7716104	91.52431092	0.87089616	-25.82321706
2.34	234	0.359	-0.976	-0.244	20.6837838	-20.7410796	-11.6883432	91.7305758	0.99694692	-26.02375236
2.35	235	0.347	-1.048	-0.188	12.4331886	-27.7311672	-13.0061466	91.83370824	1.1745639	-26.2987722
2.36	236	0.295	-1.117	-0.197	6.6463128	-32.4867186	-13.5791046	91.9024632	1.32926256	-26.6138991
2.37	237	0.173	-1.175	-0.198	4.297185	-35.5806918	-14.037471	91.94257026	1.4896908	-26.9576739
2.38	238	0.052	-1.189	-0.168	6.016059	-32.5440144	-14.0947668	91.99986606	1.65011904	-27.2728008
2.39	239	-0.05	-1.161	-0.127	11.0580894	-26.5852512	-13.0634424	92.1029985	1.79908812	-27.5306319
2.4	240	-0.129	-1.135	-0.1	15.2979786	-20.2827132	-10.7143146	92.24050842	1.90222056	-27.72543762
2.41	241	-0.168	-1.115	-0.089	18.5638392	-13.5791046	-7.9068204	92.42958456	1.98816426	-27.85148838
2.42	242	-0.168	-1.098	-0.076	20.6837838	-6.4744254	-4.6409598	92.63584944	2.04546006	-27.91451376
2.43	243	-0.145	-1.071	-0.049	21.6578124	0.1145916	-0.9167328	92.85930306	2.05118964	-27.90878418
2.44	244	-0.102	-1.038	-0.023	22.345362	5.2139178	2.6929026	93.08275668	2.02254174	-27.85721796
2.45	245	-0.049	-1.004	-0.001	21.6578124	8.4797784	5.72958	93.29475114	1.95378678	-27.77127426
2.46	246	-0.016	-0.983	0.014	20.3973048	10.3705398	8.021412	93.5067456	1.8621135	-27.6738714
2.47	247	0.002	-0.961	0.036	19.8243468	12.032118	9.5683986	93.7072809	1.75898106	-27.5592798
2.48	248	0.001	-0.947	0.051	19.194093	14.1520626	10.4278356	93.9078162	1.64438946	-27.42176988
2.49	249	-0.016	-0.941	0.061	17.8762896	16.6730778	10.5424272	94.09116276	1.52406828	-27.26134164
2.5	250	-0.038	-0.931	0.06	15.469866	19.5951636	10.1413566	94.24586142	1.39801752	-27.07799508
2.51	251	-0.059	-0.92	0.058	12.9488508	22.7464326	10.1986524	94.37764176	1.27196676	-26.86027104
2.52	252	-0.075	-0.907	0.045	9.9121734	25.3247436	10.8289062	94.4807742	1.14018642	-26.6138991
2.53	253	-0.093	-0.891	0.039	6.6463128	26.7571386	11.6310474	94.54952916	0.99694692	-26.36179758
2.54	254	-0.106	-0.876	0.043	3.2658606	28.2468294	12.4331886	94.58390664	0.84224826	-26.09250732
2.55	255	-0.106	-0.858	0.04	0	29.8511118	12.5477802	94.57817706	0.67609044	-25.80602832
2.56	256	-0.094	-0.839	0.039	-2.6929026	31.4553942	11.45916	94.54952916	0.52712136	-25.50809016
2.57	257	-0.074	-0.827	0.041	-5.3858052	33.0023808	9.6256944	94.49223336	0.39534102	-25.19296326
2.58	258	-0.055	-0.83	0.035	-7.6776372	33.5753388	7.9641162	94.41201924	0.28074942	-24.8663772
2.59	259	-0.04	-0.838	0.037	-8.880849	31.9710564	6.3598338	94.32034596	0.18334656	-24.56270946
2.6	260	-0.025	-0.843	0.043	-9.9694692	30.1948866	4.7555514	94.21148394	0.10313244	-24.2647713
2.61	261	-0.018	-0.851	0.048	-10.4278356	27.788463	3.4950438	94.10262192	0.04010706	-23.99548104
2.62	262	-0.025	-0.847	0.067	-10.5424272	24.4080108	1.9480572	93.9937599	0	-23.76056826
2.63	263	-0.031	-0.841	0.102	-10.3705398	21.2567418	0.5156622	93.88489788	-0.02291832	-23.55430338
2.64	264	-0.035	-0.85	0.138	-10.8289062	19.9389384	-0.859437	93.77030628	-0.03437748	-23.35376808
2.65	265	-0.038	-0.865	0.166	-11.172681	18.9649098	-2.4064236	93.67290342	-0.03437748	-23.16469194
2.66	266	-0.038	-0.89	0.185	-11.2299768	17.761698	-3.151269	93.55258224	-0.02291832	-22.99280454
2.67	267	-0.039	-0.916	0.198	-10.5424272	16.329303	-3.151269	93.44372022	-0.00572958	-22.8323763
2.68	268	-0.043	-0.936	0.21	-10.1413566	14.7250206	-3.0366774	93.34058778	0.00572958	-22.68340722
2.69	269	-0.05	-0.953	0.213	-10.026765	13.464513	-3.3804522	93.23745534	0.0286479	-22.55162688
2.7	270	-0.049	-0.965	0.199	-11.0580894	13.750992	-4.4690724	93.14578206	0.05156622	-22.40838738
2.71	271	-0.044	-0.977	0.177	-12.891555	15.6990492	-6.7036086	93.01400172	0.10313244	-22.25368872
2.72	272	-0.044	-0.977	0.168	-14.5531332	18.1627686	-9.0527364	92.85930306	0.17761698	-22.07034216
2.73	273	-0.051	-0.988	0.165	-16.3865988	20.626488	-10.599723	92.69314524	0.26929026	-21.86407728
2.74	274	-0.071	-1.019	0.15	-19.0795014	22.7464326	-10.599723	92.49833952	0.35523396	-21.63489408
2.75	275	-0.092	-1.065	0.12	-22.1161788	23.6631654	-8.9954406	92.2748859	0.41825934	-21.3999813
2.76	276	-0.117	-1.105	0.105	-25.0382646	22.91832	-5.8441716	92.0170548	0.4583664	-21.17652768
2.77	277	-0.142	-1.124	0.132	-27.5592798	22.7464326	-1.2605076	91.73630538	0.45263682	-20.95307406
2.78	278	-0.137	-1.105	0.168	-28.5906042	25.78311	1.9480572	91.4440968	0.41825934	-20.70097254
2.79	279	-0.12	-1.077	0.211	-25.7258142	30.2521824	2.4064236	91.18053612	0.37815228	-20.40876396
2.8	280	-0.118	-1.07	0.262	-19.9962342	34.1482968	1.5469866	90.99718956	0.33231564	-20.07071874
2.81	281	-0.137	-1.081	0.319	-13.0061466	38.388186	0.9167328	90.86540922	0.30366774	-19.69256646
2.82	282	-0.164	-1.098	0.356	-6.3598338	42.5134836	0.7448454	90.79665426	0.28074942	-19.26857754
2.83	283	-0.175	-1.151	0.348	-1.7761698	47.0398518	1.3750992	90.77373594	0.24637194	-18.80448156
2.84	284	-0.114	-1.273	0.256	-2.5210152	52.0245864	3.4950438	90.74508804	0.18907614	-18.29454894
2.85	285	-0.001	-1.414	0.121	-4.010706	51.2224452	8.0787078	90.6992514	0.09167328	-17.7903459
2.86	286	0.109	-1.478	0.031	-9.7975818	44.5188366	13.9801752	90.59038938	-0.06302538	-17.35489782
2.87	287	0.224	-1.425	-0.017	-14.8396122	35.2942128	17.5898106	90.43569072	-0.25210152	-17.00539344
2.88	288	0.313	-1.397	-0.036	-20.1108258	26.929026	21.4286292	90.22369626	-0.47555514	-16.74756234
2.89	289	0.423	-1.458	-0.126	-28.5333084	18.334656	29.793816	89.93148768	-0.77922288	-16.56994536
2.9	290	0.487	-1.435	-0.312	-27.1009134	11.2872726	40.7946096	89.64500868	-1.18029348	-16.46108334
2.91	291	0.358	-1.227	-0.437	-18.5638392	-0.9740286	45.263682	89.46166212	-1.62720072	-16.4725425
2.92	292	0.086	-0.924	-0.371	-5.6722842	-19.7097552	37.2995658	89.4100959	-1.99389384	-16.66161864
2.93	293	-0.185	-0.71	-0.262	4.5263682	-25.210152	25.2674478	89.4673917	-2.24026578	-16.90799058
2.94	294	-0.382	-0.59	-0.183	9.5683986	-17.7044022	13.8082878	89.57625372	-2.3777757	-17.08560756
2.95	295	-0.538	-0.637	-0.095	8.7662574	-4.4117766	6.1879464	89.63354952	-2.66998428	-17.09133714
2.96	296	-0.611	-0.782	-0.101	-1.5469866	8.9381448	2.8074942	89.6106312	-2.69863218	-16.99966386
2.97	297	-0.59	-0.938	-0.163	-11.45916	22.058883	3.0366774	89.47885086	-2.73300966	-16.78193982
2.98	298	-0.422	-1.042	-0.169	-15.9282324	32.2575354	1.6042824	89.2955043	-2.75592798	-16.46681292
2.99	299	-0.17	-1.106	-0.157	-18.1054728	38.0444112	-1.6615782	89.08923942	-2.74446882	-16.09439022
3	300	0.029	-1.152	-0.177	-19.3086846	37.6433406	-3.7815228	88.86005622	-2.69863218	-15.72196752
3.01	301	0.207	-1.153	-0.179	-18.1627686	31.51269	-4.6982556	88.65379134	-2.65852512	-15.4125702
3.02	302	0.307	-1.088	-0.158	-10.599723	22.058883	-6.875496	88.53347016	-2.58977016	-15.20057574
3.03	303	0.295	-1.007	-0.122	-1.4896908	11.0007936	-8.6516658	88.51055184	-2.50382646	-15.09171372
3.04	304	0.209	-0.956	-0.092	2.9793816	-0.1718874	-8.1932994	88.54492932	-2.42361234	-15.09171372
3.05	305	0.102	-0.924	-0.067	4.583664	-9.5683986	-7.2192708	88.5793068	-2.3204799	-15.19484616
3.06	306	0.015	-0.93	-0.024	5.6149884	-15.2979786	-7.7922288	88.64806176	-2.24599536	-15.34381524
3.07	307	-0.039	-0.951	0.01	5.156622	-16.9595568	-9.6829902	88.71108714	-2.1485925	-15.51570264
3.08	308	-0.079	-0.96	0.031	3.3231564	-15.9855282	-12.1467096	88.7511942	-2.02254174	-15.67613088
3.09	309	-0.083	-0.961	0.047	1.4896908	-12.0894138	-14.0947668	88.76838294	-1.88503182	-15.79645206
3.1	310	-0.057	-0.945	0.049	-0.3437748	-5.8441716	-14.6677248	88.78557168	-1.74179232	-15.85947744
3.11	311	-0.018	-0.921	0.05	-2.291832	0.5156622	-13.6936962	88.76265336	-1.6042824	-15.85374786
3.12	312	0.014	-0.893	0.052	-4.6982556	5.2712136	-11.9175264	88.71108714	-1.48396122	-15.80791122
3.13	313	0.063	-0.87	0.056	-7.5630456	7.8495246	-10.2559482	88.63087302	-1.38655836	-15.73342668
3.14	314	0.087	-0.843	0.054	-10.2559482	8.59437	-9.6829902	88.522011	-1.2891555	-15.64748298
3.15	315	0.107	-0.823	0.037	-11.9748222	8.7662574	-9.740286	88.40168982	-1.16883432	-15.56726886
3.16	316	0.12	-0.804	0.011	-12.318597	8.3651868	-10.1986524	88.27563906	-1.07143146	-15.49278432
3.17	317	0.116	-0.769	0.001	-11.172681	7.2192708	-11.1153852	88.15531788	-0.96256944	-15.42402936
3.18	318	0.069	-0.764	0.014	-8.4797784	5.72958	-11.5737516	88.06937418	-0.84797784	-15.37246314
3.19	319	0.045	-0.748	0.027	-6.589017	6.016059	-11.6883432	88.00061922	-0.72765666	-15.31516734
3.2	320	0.041	-0.743	0.022	-6.6463128	7.5630456	-12.3758928	87.93186426	-0.6016059	-15.24641238
3.21	321	0.049	-0.744	0.029	-6.4171296	10.1413566	-12.8342592	87.86883888	-0.46982556	-15.14900952
3.22	322	0.07	-0.73	0.091	-5.6149884	12.318597	-12.0894138	87.8058135	-0.34950438	-15.03441792
3.23	323	0.163	-0.689	0.156	0.859437	17.0741484	-8.8235532	87.81154308	-0.2578311	-14.8682601
3.24	324	0.188	-0.689	0.106	-6.589017	14.8396122	-4.583664	87.74278812	-0.21199446	-14.7250206
3.25	325	0.105	-0.703	0.066	-14.896908	4.4690724	1.2032118	87.59954862	-0.21772404	-14.67918396
3.26	326	0.022	-0.732	0.138	-9.3965112	-7.2192708	6.7036086	87.50787534	-0.28074942	-14.7536685
3.27	327	-0.023	-0.819	0.118	-9.2246238	-8.0787078	4.9847346	87.41620206	-0.33804522	-14.82815304
3.28	328	-0.051	-0.871	0.103	-6.5317212	-1.8334656	1.145916	87.3474471	-0.34950438	-14.85107136
3.29	329	-0.073	-0.908	0.097	-4.3544808	4.583664	-2.1199446	87.30161046	-0.32658606	-14.80523472
3.3	330	-0.077	-0.94	0.133	-8.1932994	9.7975818	-3.8961144	87.26723298	-0.30366774	-14.70783186
3.31	331	-0.039	-0.959	0.196	-17.8762896	17.475219	-3.4950438	87.07815684	-0.26356068	-14.53594446
3.32	332	0.029	-0.971	0.201	-24.8090814	26.1268848	-1.0313244	86.82605532	-0.25210152	-14.28384294
3.33	333	0.097	-0.953	0.163	-29.507337	31.9137606	1.6615782	86.516658	-0.2578311	-13.96871604
3.34	334	0.143	-0.924	0.142	-30.2521824	32.5440144	5.3858052	86.20726068	-0.30366774	-13.64785956
3.35	335	0.16	-0.903	0.124	-26.6998428	28.7624916	9.2819196	85.9437	-0.36669312	-13.36138056
3.36	336	0.16	-0.894	0.123	-20.340009	23.8923486	11.9748222	85.73170554	-0.47555514	-13.1207382
3.37	337	0.131	-0.892	0.157	-11.0580894	15.8709366	12.4904844	85.61711394	-0.59587632	-12.95458038
3.38	338	0.112	-0.897	0.194	-2.5210152	8.9954406	12.3758928	85.58846604	-0.7161975	-12.85717752
3.39	339	0.124	-0.881	0.2	4.4117766	4.4117766	12.7769634	85.63430268	-0.83651868	-12.8056113
3.4	340	0.125	-0.845	0.168	11.9175264	-1.9480572	13.8655836	85.78900134	-0.95111028	-12.81707046
3.41	341	0.103	-0.806	0.141	20.340009	-8.0787078	15.5844576	86.0009958	-1.10580894	-12.88582542
3.42	342	0.058	-0.772	0.131	29.0489706	-13.9228794	17.9908812	86.29893396	-1.2891555	-13.0061466
3.43	343	0.018	-0.698	0.131	32.2002396	-14.9542038	17.6471064	86.6312496	-1.46677248	-13.13792694
3.44	344	-0.03	-0.609	0.131	29.8511118	-13.6936962	14.1520626	86.94064692	-1.61001198	-13.2639777
3.45	345	-0.096	-0.5	0.114	23.6058696	-10.2559482	8.8235532	87.19274844	-1.70168526	-13.36138056
3.46	346	-0.158	-0.368	0.092	17.7044022	-1.7761698	2.3491278	87.37036542	-1.72460358	-13.37283972
3.47	347	-0.236	-0.233	0.011	13.750992	5.2139178	-5.5003968	87.50787534	-1.66730778	-13.3212735
3.48	348	-0.308	-0.125	-0.093	12.7196676	8.7662574	-14.2093584	87.6339261	-1.52406828	-13.24105938
3.49	349	-0.397	-0.078	-0.263	14.610429	11.8029348	-25.6112226	87.7771656	-1.26623718	-13.13219736
3.5	350	-0.406	-0.142	-0.424	13.4072172	15.469866	-39.7059894	87.87456846	-0.89954406	-12.98322828
3.51	351	-0.29	-0.286	-0.57	10.026765	18.3919518	-49.7327544	87.97197132	-0.40680018	-12.81707046
3.52	352	-0.116	-0.442	-0.701	2.9220858	18.334656	-52.0818822	88.00061922	0.10886202	-12.65091264
3.53	353	-0.015	-0.495	-0.597	-5.6149884	25.3247436	-38.9038482	87.93759384	0.49847346	-12.41599986
3.54	354	-0.075	-0.447	-0.381	-15.0687954	48.4722468	-18.8503182	87.78289518	0.6875496	-11.9461743
3.55	355	-0.243	-0.404	-0.259	-27.6165756	81.7611066	-2.0626488	87.4906866	0.69900876	-11.13830352
3.56	356	-0.232	-0.378	-0.407	-48.7587258	114.4197126	5.6722842	86.99221314	0.6589017	-10.00957626
3.57	357	0.021	-0.373	-0.615	-73.625103	122.7276036	7.9068204	86.24163816	0.61306506	-8.80063488
3.58	358	0.414	-0.353	-0.656	-106.283709	84.7404882	-0.8021412	85.16447712	0.64744254	-7.97557536
3.59	359	0.709	-0.314	-0.619	-120.9514338	47.2117392	-13.464513	83.93261742	0.8021412	-7.5343977
3.6	360	0.798	-0.29	-0.617	-125.9934642	29.3927454	-23.8350528	82.63200276	1.08289062	-7.28802576
3.61	361	0.812	-0.338	-0.64	-131.4365652	32.7731976	-28.0176462	81.3027402	1.38655836	-7.0187355
3.62	362	0.666	-0.516	-0.632	-147.9377556	30.080295	-32.658606	79.80159024	1.73033316	-6.7895523
3.63	363	0.477	-0.831	-0.632	-167.017257	23.0902074	-37.0130868	78.10563456	2.11421502	-6.65204238
3.64	364	0.312	-1.503	-0.763	-189.1907316	21.485925	-31.8564648	76.18622526	2.44080108	-6.5317212
3.65	365	0.169	-2.435	-1.159	-222.0785208	10.2559482	-21.2567418	73.93450032	2.64706596	-6.5030733
3.66	366	0.095	-3.219	-1.393	-262.5866514	-19.480572	-11.4018642	71.25878646	2.67571386	-6.74371566
3.67	367	0.111	-3.52	-1.206	-281.1504906	-18.2773602	-11.2299768	68.39972604	2.68717302	-6.97862844
3.68	368	-0.084	-3.487	-0.851	-282.0099276	-47.6701056	-21.485925	65.5177473	2.67571386	-7.52293854
3.69	369	-0.263	-3.349	-1.123	-297.7662726	-55.1758554	-38.2735944	62.46961074	2.75592798	-8.20475856
3.7	370	-0.217	-3.37	-0.834	-322.2315792	-72.5937786	-53.3423898	59.16364308	2.84760126	-9.12149136
3.71	371	-0.129	-3.287	-0.62	-363.5991468	-97.1736768	-52.3110654	55.42795692	2.73873924	-10.23875946
3.72	372	-0.175	-2.94	-0.182	-367.266078	-94.0224078	-46.982556	51.66362286	2.53820394	-11.29873176
3.73	373	-0.12	-2.434	0.619	-359.7603282	-80.9016696	-34.0337052	47.99096208	2.25172494	-12.15243918
3.74	374	-0.278	-1.864	1.091	-352.3118742	-64.5723666	-2.86479	44.404245	1.79335854	-12.65664222
3.75	375	-0.488	-1.077	1.135	-355.4631432	-37.815228	15.6417534	40.81179834	1.36936962	-12.8056113
3.76	376	-0.362	-0.486	0.902	-338.04522	-27.6165756	19.3086846	37.3855095	0.99121734	-12.83998878
3.77	377	0.012	-0.225	0.964	-324.580707	-23.8923486	14.037471	34.09673058	0.67609044	-12.87436626
3.78	378	0.322	-0.127	0.86	-317.99169	-31.1116194	2.86479	30.87097704	0.36096354	-13.01760576
3.79	379	0.509	-0.163	0.69	-306.246051	-44.404245	-5.8441716	27.76554468	-0.02291832	-13.28689602
3.8	380	0.682	-0.196	0.645	-298.797597	-58.9000824	-11.9175264	24.7517856	-0.5156622	-13.6650483
3.81	381	0.826	-0.27	0.349	-291.349143	-78.4379502	-15.183387	21.81251106	-1.19748222	-14.11768512
3.82	382	0.845	-0.197	0.202	-270.5507676	-99.7519878	-8.59437	19.09669014	-2.1199446	-14.55886278
3.83	383	0.738	-0.026	0.1	-255.6538596	-100.9551996	-0.859437	16.5298383	-3.08824362	-14.88544884
3.84	384	0.539	0.239	-0.126	-241.4445012	-89.7825186	6.302538	14.10049638	-3.98778768	-15.07452498
3.85	385	0.112	0.591	-0.331	-227.8653966	-70.473834	17.7044022	11.7742869	-4.73263308	-15.06306582
3.86	386	-0.477	0.991	-0.594	-197.5559184	-48.70143	26.0122932	9.76320432	-5.27694318	-14.90263758
3.87	387	-0.676	1.312	-0.94	-157.4488584	-25.4393352	26.2987722	8.14746276	-5.5863405	-14.67918396
3.88	388	-0.443	1.523	-1.127	-135.3326796	-14.896908	24.923673	6.75517482	-5.78114622	-14.45000076
3.89	389	-0.105	1.523	-1.254	-130.0041702	-20.6837838	22.345362	5.4144531	-6.02751816	-14.24373588
3.9	390	0.211	0.972	-1.299	-96.256944	-34.2628884	26.2987722	4.40604702	-6.3884817	-14.01455268
3.91	391	0.301	0.347	-1.032	-86.9177286	-39.3622146	25.6112226	3.50077338	-6.80674104	-13.79109906
3.92	392	0.301	0.013	-0.791	-90.2981808	-56.0352924	16.1001198	2.578311	-7.37969904	-13.6650483
3.93	393	0.299	-0.056	-0.87	-82.5632478	-73.7969904	4.870143	1.7475219	-8.11881486	-13.65931872
3.94	394	0.207	0.005	-1.009	-73.052145	-77.34933	-0.6875496	1.02559482	-8.89230816	-13.69942578
3.95	395	-0.02	0.083	-0.916	-79.2973872	-69.614397	0.8021412	0.22345362	-9.58558734	-13.71088494
3.96	396	-0.255	0.242	-0.678	-92.8764918	-38.2162986	14.037471	-0.73338624	-9.97519878	-13.57337502
3.97	397	-0.368	0.574	-0.913	-87.7198698	-9.5683986	26.6998428	-1.66730778	-10.07833122	-13.2926256
3.98	398	-0.254	0.861	-1.037	-52.6548402	-20.5691922	20.5691922	-2.24026578	-10.27886652	-13.08063114
3.99	399	0.023	0.98	-1.057	-36.955791	-39.3049188	6.7036086	-2.62414764	-10.66847796	-13.0061466
4	400	0.241	0.805	-0.804	-30.366774	-53.285094	-1.145916	-2.98511118	-11.16695142	-12.99468744
4.01	401	0.132	0.559	-0.489	-35.9817624	-42.2270046	0.572958	-3.3518043	-11.58521076	-12.97176912
4.02	402	-0.095	0.564	-0.507	-35.4088044	-20.4546006	7.6203414	-3.724227	-11.78574606	-12.88582542
4.03	403	0.084	0.611	-0.783	-29.220858	-0.2291832	12.9488508	-4.05081306	-11.78574606	-12.75404508
4.04	404	0.759	0.869	-1.375	-32.6013102	-9.2246238	18.9649098	-4.41750618	-11.86596018	-12.55350978
4.05	405	0.096	1.656	-2.356	-38.5600734	-13.1207382	27.6738714	-4.870143	-11.98055178	-12.2613012
4.06	406	-0.957	2.215	-3.372	-8.1932994	-1.0313244	37.1276784	-5.03057124	-11.95763346	-11.88314892
4.07	407	-0.794	1.987	-3.537	-10.2559482	-46.2377106	15.8136408	-5.16808116	-12.4045407	-11.69407278
4.08	408	-1.219	1.209	-3.268	-32.1429438	-100.6114248	13.5791046	-5.5290447	-13.39002846	-11.4878079
4.09	409	-1.715	1.491	-3.033	-21.9442914	-87.949053	35.236917	-5.8441716	-14.22081756	-11.06381898
4.1	410	-1.242	1.721	-2.928	-28.7051958	-61.5356892	33.5753388	-6.22232388	-14.79950514	-10.66847796
4.11	411	-0.923	1.486	-2.792	-55.4623344	-72.8802576	25.6112226	-6.86403684	-15.49278432	-10.33616232
4.12	412	-0.926	0.933	-2.38	-72.1354122	-78.6671334	11.0007936	-7.63753014	-16.26054804	-10.13562702
4.13	413	-1.091	0.349	-1.388	-84.0529386	-68.5830726	-13.8082878	-8.46831924	-16.96528638	-10.18719324
4.14	414	-0.838	-0.061	-0.97	-86.230179	-35.0077338	-41.7113424	-9.23035338	-17.37781614	-10.56534552
4.15	415	-0.439	-0.059	-0.761	-81.1881486	-13.0634424	-50.3630082	-9.89498466	-17.60126976	-11.0580894
4.16	416	-0.181	0.177	-0.658	-81.2454444	-4.3544808	-42.7426668	-10.59399342	-17.72732052	-11.48207832
4.17	417	-0.152	0.449	-0.64	-81.932994	0.7448454	-23.0902074	-11.35602756	-17.77315716	-11.71126152
4.18	418	-0.154	0.581	-0.621	-77.8076964	5.5003968	-9.8548776	-12.11233212	-17.74450926	-11.81439396
4.19	419	-0.073	0.604	-0.598	-70.3019466	8.1932994	-8.9381448	-12.79988172	-17.69294304	-11.91179682
4.2	420	0.02	0.558	-0.558	-57.5249832	10.026765	-12.7196676	-13.38429888	-17.60699934	-12.04357716
4.21	421	0.091	0.498	-0.537	-41.9405256	5.9587632	-14.32395	-13.76245116	-17.58408102	-12.19827582
4.22	422	0.14	0.442	-0.393	-23.3766864	-3.724227	-12.2613012	-13.96871604	-17.65283598	-12.31286742
4.23	423	0.194	0.411	-0.301	-13.3499214	-15.2406828	-10.6570188	-14.07757806	-17.82472338	-12.38735196
4.24	424	0.171	0.434	-0.257	-7.7922288	-29.507337	-11.2872726	-14.14060344	-18.13985028	-12.4331886
4.25	425	0.146	0.46	-0.262	-2.005353	-44.3469492	-15.2406828	-14.16925134	-18.58102794	-12.47902524
4.26	426	0.084	0.466	-0.255	7.5057498	-55.576926	-20.340009	-14.06038932	-19.1654451	-12.55923936
4.27	427	0.057	0.466	-0.264	16.5584862	-60.1032942	-23.3766864	-13.84839486	-19.80142848	-12.66810138
4.28	428	-0.071	0.445	-0.304	23.777757	-61.1919144	-25.6685184	-13.55618628	-20.44887102	-12.79988172
4.29	429	-0.147	0.359	-0.352	29.9084076	-63.02538	-27.4446882	-13.18949316	-21.11923188	-12.9488508
4.3	430	-0.159	0.319	-0.434	34.7212548	-65.4318036	-28.074942	-12.78269298	-21.81251106	-13.10354946
4.31	431	-0.161	0.313	-0.532	38.2162986	-67.895523	-28.1322378	-12.32432658	-22.52870856	-13.2639777
4.32	432	-0.167	0.333	-0.673	40.5654264	-73.7969904	-29.507337	-11.83731228	-23.30220186	-13.4358651
4.33	433	-0.267	0.368	-0.827	42.112413	-77.7504006	-30.7678446	-11.32737966	-24.11580222	-13.62494124
4.34	434	-0.326	0.383	-0.955	43.7166954	-76.489893	-31.3980984	-10.78879914	-24.91794342	-13.82547654
4.35	435	-0.475	0.363	-1.072	44.2896534	-73.338624	-31.9137606	-10.23875946	-25.68570714	-14.04893016
4.36	436	-0.658	0.312	-1.215	41.4248634	-68.6403684	-33.6326346	-9.69444936	-26.40763422	-14.31249084
4.37	437	-0.83	0.214	-1.367	38.101707	-59.1292656	-36.096354	-9.16159842	-27.0436176	-14.62188816
4.38	438	-0.812	0.154	-1.401	33.5753388	-48.414951	-39.0757356	-8.64593622	-27.57073896	-14.98858128
4.39	439	-0.898	0.202	-1.339	24.4653066	-49.0452048	-35.1223254	-8.23340646	-28.1035899	-15.31516734
4.4	440	-0.913	0.183	-1.25	15.183387	-46.8679644	-30.7105488	-7.94119788	-28.60779294	-15.60164634
4.41	441	-0.873	0.156	-1.155	8.7662574	-38.3308902	-28.4187168	-7.71774426	-29.0203227	-15.87666618
4.42	442	-0.864	0.038	-1.043	4.4117766	-35.1223254	-31.5699858	-7.51147938	-29.40420456	-16.19179308
4.43	443	-0.797	-0.046	-0.966	-2.291832	-35.4661002	-32.7731976	-7.36823988	-29.79954558	-16.51837914
4.44	444	-0.694	-0.098	-0.901	-10.2559482	-37.0130868	-29.9657034	-7.32240324	-30.20061618	-16.8163173
4.45	445	-0.562	-0.124	-0.853	-17.1314442	-38.5600734	-25.2674478	-7.33959198	-30.61887552	-17.0741484
4.46	446	-0.499	-0.122	-0.812	-19.3086846	-41.3675676	-20.05353	-7.43699484	-31.04859402	-17.25176538
4.47	447	-0.435	-0.109	-0.776	-18.3919518	-45.4928652	-17.9335854	-7.54012728	-31.52414916	-17.40646404
4.48	448	-0.414	-0.06	-0.755	-17.1314442	-48.8733174	-17.0168526	-7.63753014	-32.0283522	-17.53824438
4.49	449	-0.42	-0.01	-0.719	-15.6417534	-49.6181628	-16.3865988	-7.72347384	-32.53828482	-17.67002472
4.5	450	-0.443	0.036	-0.671	-14.3812458	-47.0971476	-14.896908	-7.79795838	-33.02529912	-17.78461632
4.51	451	-0.475	0.07	-0.632	-13.750992	-43.6021038	-13.178034	-7.8781725	-33.47220636	-17.88201918
4.52	452	-0.509	0.084	-0.631	-14.3812458	-39.0757356	-11.45916	-7.97557536	-33.87327696	-17.9622333
4.53	453	-0.518	0.104	-0.638	-15.2406828	-34.4920716	-10.5424272	-8.0787078	-34.22851092	-18.04244742
4.54	454	-0.524	0.107	-0.664	-14.6677248	-29.1635622	-10.3705398	-8.18184024	-34.53217866	-18.12266154
4.55	455	-0.541	0.111	-0.7	-12.891555	-24.2934192	-9.9121734	-8.26205436	-34.79573934	-18.20287566
4.56	456	-0.556	0.124	-0.732	-10.4851314	-20.912967	-9.2819196	-8.31935016	-35.01346338	-18.28308978
4.57	457	-0.564	0.141	-0.76	-8.8235532	-18.6784308	-8.8235532	-8.3651868	-35.2082691	-18.3633039
4.58	458	-0.585	0.17	-0.777	-7.2192708	-16.042824	-8.1932994	-8.3938347	-35.3801565	-18.43778844
4.59	459	-0.627	0.199	-0.785	-5.3858052	-14.7250206	-7.5630456	-8.40529386	-35.53485516	-18.5065434
4.6	460	-0.657	0.217	-0.785	-4.0680018	-13.6364004	-6.9900876	-8.44540092	-35.70101298	-18.54665046
4.61	461	-0.686	0.218	-0.798	-3.0939732	-12.0894138	-5.72958	-8.44540092	-35.82706374	-18.59821668
4.62	462	-0.705	0.204	-0.79	-2.291832	-10.0840608	-4.010706	-8.4511305	-35.93592576	-18.63259416
4.63	463	-0.725	0.185	-0.788	-2.1199446	-8.880849	-2.0626488	-8.46258966	-36.02759904	-18.64405332
4.64	464	-0.748	0.172	-0.769	-1.4896908	-8.8235532	0	-8.48550798	-36.11354274	-18.63259416
4.65	465	-0.77	0.159	-0.75	-1.432395	-8.9381448	2.291832	-8.55426294	-36.27397098	-18.5638392
4.66	466	-0.768	0.16	-0.743	-2.0626488	-8.9381448	4.1252976	-8.61155874	-36.3541851	-18.50081382
4.67	467	-0.756	0.173	-0.743	-2.6356068	-9.3392154	4.8128472	-8.6803137	-36.4401288	-18.42632928
4.68	468	-0.732	0.186	-0.725	-3.5523396	-10.1413566	3.8388186	-8.74906866	-36.53753166	-18.3633039
4.69	469	-0.694	0.201	-0.712	-4.4690724	-9.8548776	1.6615782	-8.81782362	-36.62920494	-18.32892642
4.7	470	-0.658	0.195	-0.714	-5.6722842	-7.9068204	-0.286479	-8.94960396	-36.7552557	-18.27163062
4.71	471	-0.639	0.19	-0.717	-6.302538	-5.6149884	-1.3178034	-9.00689976	-36.81828108	-18.2773602
4.72	472	-0.612	0.186	-0.704	-6.8182002	-1.8907614	-1.9480572	-9.06419556	-36.83546982	-18.30027852
4.73	473	-0.573	0.201	-0.727	-6.875496	1.8907614	-2.005353	-9.12149136	-36.82401066	-18.32892642
4.74	474	-0.566	0.172	-0.719	-6.2452422	4.1252976	-1.6615782	-9.167328	-36.7839036	-18.35184474
4.75	475	-0.552	0.173	-0.705	-6.1879464	7.9068204	-1.6042824	-9.24754212	-36.71514864	-18.3633039
4.76	476	-0.539	0.181	-0.722	-6.016059	11.2299768	-1.145916	-9.29337876	-36.60628662	-18.39768138
4.77	477	-0.542	0.147	-0.738	-4.8128472	13.1207382	0.3437748	-9.33348582	-36.47450628	-18.40914054
4.78	478	-0.546	0.159	-0.754	-4.5263682	14.6677248	1.9480572	-9.38505204	-36.33126678	-18.40914054
4.79	479	-0.558	0.171	-0.778	-4.0680018	14.7823164	2.7501984	-9.43088868	-36.1822977	-18.40341096
4.8	480	-0.574	0.182	-0.771	-3.151269	14.7823164	3.3231564	-9.5111028	-36.03332862	-18.3633039
4.81	481	-0.582	0.189	-0.773	-1.8334656	15.9855282	3.9534102	-9.54548028	-35.87290038	-18.34611516
4.82	482	-0.587	0.19	-0.781	-0.4010706	17.2460358	4.9847346	-9.5683986	-35.6952834	-18.31173768
4.83	483	-0.595	0.187	-0.789	0.4583664	18.334656	6.016059	-9.59131692	-35.50620726	-18.27163062
4.84	484	-0.602	0.186	-0.793	1.2032118	18.3919518	6.3598338	-9.60850566	-35.31140154	-18.22579398
4.85	485	-0.61	0.189	-0.79	1.432395	17.9908812	6.6463128	-9.64861272	-35.13951414	-18.1627686
4.86	486	-0.607	0.196	-0.778	2.291832	17.7044022	6.6463128	-9.6543423	-34.950438	-18.11120238
4.87	487	-0.599	0.206	-0.777	2.4064236	17.8189938	6.1879464	-9.66007188	-34.76709144	-18.06536574
4.88	488	-0.583	0.211	-0.796	2.6356068	17.5898106	5.3285094	-9.6543423	-34.58374488	-18.03098826
4.89	489	-0.574	0.215	-0.787	2.7501984	16.615782	4.1825934	-9.63715356	-34.41758706	-18.01379952
4.9	490	-0.562	0.217	-0.789	2.5210152	16.042824	3.437748	-9.66580146	-34.25715882	-17.97369246
4.91	491	-0.544	0.204	-0.797	2.4064236	15.0114996	3.3804522	-9.6543423	-34.10246016	-17.95650372
4.92	492	-0.544	0.191	-0.8	2.005353	13.750992	3.2085648	-9.64288314	-33.95922066	-17.94504456
4.93	493	-0.542	0.192	-0.799	0.859437	12.2040054	2.9220858	-9.64288314	-33.83889948	-17.92785582
4.94	494	-0.53	0.198	-0.81	0	10.6570188	2.86479	-9.6543423	-33.73003746	-17.91066708
4.95	495	-0.524	0.197	-0.823	0.286479	9.7975818	2.7501984	-9.71736768	-33.59825712	-17.87056002
4.96	496	-0.511	0.188	-0.825	1.145916	9.1100322	1.8907614	-9.7116381	-33.50658384	-17.86483044
4.97	497	-0.507	0.191	-0.828	1.4896908	7.7922288	0.859437	-9.69444936	-33.42636972	-17.86483044
4.98	498	-0.496	0.195	-0.811	1.3178034	5.5003968	0.5156622	-9.67726062	-33.3748035	-17.87056002
4.99	499	-0.496	0.203	-0.812	1.6615782	3.8961144	0.1718874	-9.66007188	-33.33469644	-17.87056002
5	500	-0.512	0.205	-0.812	2.3491278	4.2398892	0.1718874	-9.75174516	-33.26594148	-17.8189938
5.01	501	-0.516	0.19	-0.805	2.4637194	4.9274388	-0.0572958	-9.71736768	-33.22010484	-17.82472338
5.02	502	-0.526	0.17	-0.816	1.8334656	4.5263682	-0.8021412	-9.69444936	-33.1742682	-17.84191212
5.03	503	-0.501	0.191	-0.821	0	3.5523396	0	-9.68871978	-33.13989072	-17.85337128
5.04	504	-0.519	0.21	-0.835	-0.572958	3.724227	1.0886202	-9.70017894	-33.09978366	-17.84191212
5.05	505	-0.508	0.184	-0.824	0.6302538	4.5263682	0.9167328	-9.78039306	-33.01383996	-17.80180506
5.06	506	-0.511	0.18	-0.825	0.9167328	4.0680018	0.286479	-9.7689339	-32.9737329	-17.80180506
5.07	507	-0.515	0.188	-0.825	1.3178034	4.4117766	0.0572958	-9.75174516	-32.93362584	-17.80753464
5.08	508	-0.518	0.204	-0.826	1.2605076	5.6722842	0.3437748	-9.73455642	-32.87633004	-17.81326422
5.09	509	-0.511	0.197	-0.823	2.005353	6.016059	0.572958	-9.7116381	-32.81330466	-17.8189938
5.1	510	-0.515	0.187	-0.809	1.9480572	5.8441716	0.6875496	-9.7689339	-32.7445497	-17.78461632
5.11	511	-0.528	0.183	-0.82	1.6615782	5.5576926	0.9167328	-9.75174516	-32.69298348	-17.77888674
5.12	512	-0.53	0.177	-0.822	1.2032118	5.2139178	1.3178034	-9.740286	-32.63568768	-17.77315716
5.13	513	-0.53	0.177	-0.825	0.8021412	5.156622	1.432395	-9.740286	-32.58412146	-17.76742758
5.14	514	-0.533	0.18	-0.822	0.7448454	4.9274388	1.3750992	-9.73455642	-32.53255524	-17.75596842
5.15	515	-0.536	0.186	-0.82	0.9167328	4.0680018	1.145916	-9.83768886	-32.50390734	-17.69294304
5.16	516	-0.538	0.189	-0.815	1.0313244	2.9220858	0.859437	-9.8262297	-32.46952986	-17.68721346
5.17	517	-0.546	0.19	-0.813	0.6875496	2.4064236	0.5156622	-9.82050012	-32.44661154	-17.68721346
5.18	518	-0.549	0.192	-0.814	0.4583664	2.1199446	0.0572958	-9.81477054	-32.42369322	-17.69294304
5.19	519	-0.547	0.195	-0.816	0.572958	2.005353	-0.4010706	-9.80331138	-32.40650448	-17.69867262
5.2	520	-0.543	0.195	-0.813	0.9167328	1.8907614	-0.859437	-9.95801004	-32.41796364	-17.62418808
5.21	521	-0.54	0.191	-0.817	0.9740286	1.718874	-1.0886202	-9.93509172	-32.4007749	-17.63564724
5.22	522	-0.541	0.189	-0.816	0.6875496	1.2605076	-0.9740286	-9.92363256	-32.38931574	-17.65283598
5.23	523	-0.541	0.192	-0.814	0.4010706	0.9740286	-0.9167328	-9.9121734	-32.38358616	-17.66429514
5.24	524	-0.539	0.193	-0.813	0.5156622	0.8021412	-0.7448454	-9.90071424	-32.37785658	-17.6757543
5.25	525	-0.538	0.194	-0.817	0.4010706	0.6302538	-0.6875496	-10.2845961	-32.40650448	-17.475219
5.26	526	-0.535	0.193	-0.813	0.4010706	0.286479	-0.5156622	-10.27886652	-32.4007749	-17.48094858
5.27	527	-0.536	0.194	-0.813	0.6875496	0.3437748	-0.5156622	-10.26740736	-32.4007749	-17.48667816
5.28	528	-0.538	0.194	-0.818	0.8021412	0.0572958	-0.4010706	-10.2559482	-32.4007749	-17.49240774
5.29	529	-0.539	0.196	-0.818	1.145916	-0.1718874	-0.4583664	-10.24448904	-32.4007749	-17.49813732
5.3	530	-0.537	0.194	-0.82	1.4896908	-0.1718874	-0.6302538	-10.45075392	-32.42369322	-17.38354572
5.31	531	-0.536	0.194	-0.807	1.718874	-0.0572958	-0.6875496	-10.4278356	-32.42369322	-17.3892753
5.32	532	-0.534	0.191	-0.795	1.9480572	0.4583664	-0.572958	-10.40491728	-32.41796364	-17.40073446
5.33	533	-0.535	0.185	-0.795	1.8907614	1.145916	-0.3437748	-10.38199896	-32.41223406	-17.40646404
5.34	534	-0.536	0.179	-0.798	1.5469866	1.718874	-0.1145916	-10.35908064	-32.39504532	-17.41219362
5.35	535	-0.539	0.179	-0.798	1.3178034	2.1199446	-0.0572958	-10.4564835	-32.41223406	-17.35489782
5.36	536	-0.539	0.181	-0.808	1.2032118	2.291832	-0.1718874	-10.43929476	-32.38931574	-17.3606274
5.37	537	-0.538	0.181	-0.813	1.2605076	2.291832	-0.286479	-10.42210602	-32.36639742	-17.37208656
5.38	538	-0.536	0.181	-0.813	1.0886202	2.5210152	-0.4010706	-10.40491728	-32.3434791	-17.37781614
5.39	539	-0.536	0.183	-0.808	0.9740286	2.86479	-0.572958	-10.38772854	-32.3148312	-17.3892753
5.4	540	-0.534	0.188	-0.806	1.0886202	3.2085648	-0.6875496	-10.46221308	-32.29764246	-17.35489782
5.41	541	-0.533	0.189	-0.81	1.3750992	3.437748	-0.7448454	-10.44502434	-32.26326498	-17.37208656
5.42	542	-0.535	0.186	-0.814	1.6042824	3.6096354	-0.6875496	-10.41637644	-32.2288875	-17.38354572
5.43	543	-0.535	0.183	-0.816	1.5469866	3.7815228	-0.572958	-10.39345812	-32.19451002	-17.40073446
5.44	544	-0.536	0.182	-0.817	1.6615782	4.3544808	-0.3437748	-10.3705398	-32.15440296	-17.41219362
5.45	545	-0.53	0.184	-0.823	1.9480572	4.583664	-0.1718874	-10.41064686	-32.10856632	-17.3892753
5.46	546	-0.529	0.186	-0.818	1.8907614	4.1252976	0	-10.38772854	-32.06845926	-17.39500488
5.47	547	-0.529	0.187	-0.812	1.6042824	4.297185	0	-10.3705398	-32.0283522	-17.40073446
5.48	548	-0.528	0.185	-0.813	1.8334656	4.1825934	-0.0572958	-10.34762148	-31.98251556	-17.41219362
5.49	549	-0.529	0.183	-0.817	2.3491278	4.010706	-0.0572958	-10.31897358	-31.94813808	-17.4179232
5.5	550	-0.527	0.178	-0.814	2.6929026	4.2398892	-0.1145916	-10.3418919	-31.9137606	-17.40073446
5.51	551	-0.526	0.174	-0.816	2.7501984	4.5263682	0.1145916	-10.30751442	-31.86792396	-17.40646404
5.52	552	-0.526	0.17	-0.815	2.578311	4.9274388	0.5156622	-10.27886652	-31.82208732	-17.41219362
5.53	553	-0.528	0.174	-0.817	2.4637194	4.9847346	1.0313244	-10.26167778	-31.7705211	-17.40646404
5.54	554	-0.532	0.176	-0.819	2.291832	4.9847346	1.432395	-10.23875946	-31.71895488	-17.40073446
5.55	555	-0.539	0.179	-0.821	2.1199446	4.6982556	1.8334656	-10.27313694	-31.69030698	-17.3606274
5.56	556	-0.546	0.181	-0.817	1.8334656	4.297185	1.8334656	-10.26167778	-31.64447034	-17.34916824
5.57	557	-0.545	0.185	-0.812	1.6042824	4.1252976	1.432395	-10.25021862	-31.5986337	-17.33770908
5.58	558	-0.537	0.183	-0.815	1.6042824	3.9534102	0.859437	-10.23875946	-31.55852664	-17.3319795
5.59	559	-0.532	0.179	-0.813	1.432395	4.2398892	0.572958	-10.22157072	-31.51841958	-17.33770908
5.6	560	-0.528	0.177	-0.813	1.2605076	4.8128472	0.5156622	-10.26740736	-31.48977168	-17.3033316
5.61	561	-0.526	0.18	-0.81	0.9740286	5.2139178	0.6302538	-10.2559482	-31.43820546	-17.30906118
5.62	562	-0.519	0.182	-0.815	0.9740286	5.6722842	0.859437	-10.25021862	-31.38090966	-17.30906118
5.63	563	-0.516	0.181	-0.821	1.0313244	5.443101	1.145916	-10.23875946	-31.32361386	-17.3033316
5.64	564	-0.515	0.183	-0.824	1.145916	5.156622	1.3178034	-10.23302988	-31.27204764	-17.29760202
5.65	565	-0.514	0.185	-0.828	1.3750992	4.9847346	1.432395	-10.27886652	-31.22048142	-17.25749496
5.66	566	-0.516	0.19	-0.823	1.6042824	4.9274388	1.3178034	-10.26740736	-31.1689152	-17.25176538
5.67	567	-0.52	0.194	-0.818	2.1199446	4.8128472	0.9740286	-10.25021862	-31.12307856	-17.25176538
5.68	568	-0.518	0.19	-0.817	2.4637194	4.583664	0.7448454	-10.22157072	-31.07724192	-17.25176538
5.69	569	-0.516	0.183	-0.819	2.3491278	4.9274388	0.7448454	-10.1986524	-31.0256757	-17.25176538
5.7	570	-0.517	0.179	-0.819	2.291832	5.3285094	0.9167328	-10.22157072	-30.98556864	-17.22311748
5.71	571	-0.514	0.177	-0.825	2.005353	5.3858052	0.9167328	-10.20438198	-30.92827284	-17.22311748
5.72	572	-0.509	0.175	-0.834	1.7761698	4.9847346	0.859437	-10.18719324	-30.87670662	-17.22311748
5.73	573	-0.505	0.175	-0.834	1.5469866	4.4690724	0.7448454	-10.1700045	-30.83086998	-17.22311748
5.74	574	-0.505	0.179	-0.828	1.3750992	3.6669312	0.286479	-10.15854534	-30.7964925	-17.22311748
5.75	575	-0.506	0.18	-0.831	1.432395	3.0939732	0	-10.23302988	-30.77357418	-17.18301042
5.76	576	-0.509	0.181	-0.831	1.2605076	2.4064236	0	-10.22157072	-30.74492628	-17.18874
5.77	577	-0.509	0.178	-0.826	1.145916	1.9480572	-0.1145916	-10.20438198	-30.72773754	-17.19446958
5.78	578	-0.508	0.173	-0.826	0.859437	1.718874	-0.1718874	-10.19292282	-30.7105488	-17.20019916
5.79	579	-0.507	0.174	-0.829	0.286479	1.432395	-0.2291832	-10.18719324	-30.69908964	-17.20019916
5.8	580	-0.505	0.176	-0.832	0.1718874	0.8021412	-0.3437748	-10.46794266	-30.68763048	-17.06268924
5.81	581	-0.502	0.177	-0.837	0.1718874	0.1718874	-0.5156622	-10.46221308	-30.68763048	-17.06841882
5.82	582	-0.503	0.179	-0.833	0.1718874	-0.4010706	-0.6302538	-10.4564835	-30.69336006	-17.0741484
5.83	583	-0.504	0.18	-0.834	0	-0.9740286	-0.6875496	-10.4564835	-30.70481922	-17.08560756
5.84	584	-0.504	0.182	-0.829	-0.0572958	-1.145916	-0.8021412	-10.45075392	-30.71627838	-17.09133714
5.85	585	-0.505	0.182	-0.828	-0.1718874	-1.2032118	-0.8021412	-10.59399342	-30.74492628	-17.02258218
5.86	586	-0.506	0.181	-0.822	-0.4010706	-1.432395	-0.9740286	-10.59399342	-30.75638544	-17.03404134
5.87	587	-0.507	0.18	-0.819	-0.572958	-1.4896908	-1.0886202	-10.59399342	-30.77357418	-17.0455005
5.88	588	-0.505	0.178	-0.821	-0.859437	-1.4896908	-1.2032118	-10.59399342	-30.79076292	-17.05695966
5.89	589	-0.505	0.178	-0.823	-0.8021412	-1.9480572	-1.3178034	-10.599723	-30.81368124	-17.06841882
5.9	590	-0.508	0.179	-0.824	-0.6875496	-2.2345362	-1.3178034	-10.67420754	-30.8537883	-17.03977092
5.91	591	-0.511	0.179	-0.826	-0.6302538	-2.5210152	-1.3750992	-10.67420754	-30.8824362	-17.05123008
5.92	592	-0.514	0.179	-0.826	-0.572958	-2.578311	-1.3178034	-10.67420754	-30.9110841	-17.06268924
5.93	593	-0.52	0.177	-0.818	-0.572958	-2.2345362	-1.2032118	-10.67420754	-30.93400242	-17.06841882
5.94	594	-0.523	0.176	-0.814	-0.5156622	-1.718874	-1.0313244	-10.67420754	-30.95119116	-17.07987798
5.95	595	-0.525	0.175	-0.817	-0.4583664	-0.9740286	-0.7448454	-10.80598788	-31.04286444	-17.01112302
5.96	596	-0.526	0.175	-0.818	-0.4583664	-0.1145916	-0.286479	-10.81171746	-31.04286444	-17.0168526
5.97	597	-0.526	0.177	-0.823	-0.2291832	0.859437	0.0572958	-10.81171746	-31.03713486	-17.0168526
5.98	598	-0.527	0.181	-0.828	0.1718874	1.9480572	0.4010706	-10.81171746	-31.01421654	-17.0168526
5.99	599	-0.532	0.184	-0.829	0.6302538	2.6929026	0.572958	-10.80598788	-30.98556864	-17.0168526
6	600	-0.535	0.182	-0.828	1.0313244	2.9793816	0.7448454	-10.85182452	-30.99129822	-16.98247512
6.01	601	-0.533	0.181	-0.826	1.2605076	3.3804522	0.7448454	-10.84036536	-30.95692074	-16.97674554
6.02	602	-0.531	0.176	-0.827	1.0886202	3.3804522	0.859437	-10.83463578	-30.92254326	-16.97674554
6.03	603	-0.53	0.172	-0.828	0.8021412	2.9793816	0.859437	-10.8289062	-30.88816578	-16.97101596
6.04	604	-0.529	0.172	-0.827	0.1718874	2.5210152	0.859437	-10.8289062	-30.85951788	-16.96528638
6.05	605	-0.527	0.176	-0.826	-0.0572958	2.1199446	0.9167328	-10.90912032	-30.88816578	-16.91372016
6.06	606	-0.524	0.181	-0.823	-0.1718874	2.1772404	1.0313244	-10.9148499	-30.86524746	-16.90799058
6.07	607	-0.515	0.187	-0.828	0	2.291832	0.9167328	-10.92057948	-30.83659956	-16.902261
6.08	608	-0.511	0.185	-0.826	0	1.8334656	0.9167328	-10.92630906	-30.81941082	-16.89080184
6.09	609	-0.514	0.184	-0.817	-0.5156622	1.4896908	0.7448454	-10.93203864	-30.80222208	-16.88507226
6.1	610	-0.512	0.184	-0.82	-0.6875496	0.8021412	0.3437748	-11.172681	-30.85951788	-16.76475108
6.11	611	-0.509	0.18	-0.824	-0.6302538	0	0	-11.17841058	-30.85951788	-16.7590215
6.12	612	-0.506	0.177	-0.826	-0.7448454	-0.4010706	-0.2291832	-11.18986974	-30.86524746	-16.76475108
6.13	613	-0.501	0.176	-0.829	-0.6302538	-0.286479	-0.2291832	-11.18986974	-30.86524746	-16.76475108
6.14	614	-0.5	0.175	-0.825	-0.4010706	0	0	-11.19559932	-30.86524746	-16.76475108
6.15	615	-0.5	0.178	-0.826	-0.4583664	-0.0572958	0	-11.44770084	-30.84805872	-16.6444299
6.16	616	-0.502	0.181	-0.827	-0.4583664	-0.3437748	0.1145916	-11.45343042	-30.8537883	-16.63870032
6.17	617	-0.507	0.182	-0.829	-0.4010706	-0.4583664	0.0572958	-11.45916	-30.85951788	-16.63870032
6.18	618	-0.51	0.188	-0.83	0	-0.859437	-0.4010706	-11.45343042	-30.86524746	-16.63870032
6.19	619	-0.515	0.187	-0.83	0.2291832	-1.3178034	-0.9740286	-11.44770084	-30.8824362	-16.65015948
6.2	620	-0.507	0.186	-0.822	0.1145916	-1.718874	-1.6042824	-11.49926706	-30.9110841	-16.63297074
6.21	621	-0.503	0.187	-0.826	0.3437748	-2.1199446	-2.3491278	-11.4878079	-30.93400242	-16.65588906
6.22	622	-0.502	0.187	-0.826	0.4583664	-2.4064236	-2.7501984	-11.46488958	-30.96265032	-16.67880738
6.23	623	-0.501	0.183	-0.825	0.2291832	-2.0626488	-2.9220858	-11.44770084	-30.99129822	-16.71318486
6.24	624	-0.503	0.18	-0.826	0.2291832	-1.6615782	-2.7501984	-11.4305121	-31.01421654	-16.74183276
6.25	625	-0.506	0.181	-0.827	0.3437748	-1.3750992	-2.4064236	-11.45916	-31.03140528	-16.74183276
6.26	626	-0.511	0.183	-0.827	0.4583664	-1.3750992	-2.2345362	-11.44197126	-31.04859402	-16.76475108
6.27	627	-0.516	0.183	-0.828	0.7448454	-1.5469866	-2.1199446	-11.42478252	-31.07151234	-16.7876694
6.28	628	-0.517	0.177	-0.825	0.5156622	-1.2605076	-1.9480572	-11.40759378	-31.08870108	-16.80485814
6.29	629	-0.519	0.177	-0.824	0.4583664	-0.7448454	-1.5469866	-11.39613462	-31.09443066	-16.82204688
6.3	630	-0.521	0.179	-0.823	0.6302538	-0.4010706	-1.3750992	-11.44770084	-31.13453772	-16.79912856
6.31	631	-0.523	0.177	-0.826	0.6302538	-0.3437748	-1.0886202	-11.43624168	-31.1402673	-16.81058772
6.32	632	-0.525	0.175	-0.824	0.4010706	0	-0.8021412	-11.42478252	-31.1402673	-16.82204688
6.33	633	-0.53	0.176	-0.822	0.2291832	0.3437748	-0.8021412	-11.41905294	-31.1402673	-16.83350604
6.34	634	-0.533	0.179	-0.821	0.4010706	0.5156622	-0.7448454	-11.40759378	-31.13453772	-16.83923562
6.35	635	-0.533	0.177	-0.823	0.286479	0.4583664	-0.7448454	-11.52218538	-31.23767016	-16.78193982
6.36	636	-0.531	0.175	-0.822	0.1718874	0.4010706	-0.6302538	-11.5164558	-31.23194058	-16.79339898
6.37	637	-0.528	0.175	-0.824	0.2291832	0.3437748	-0.572958	-11.50499664	-31.23194058	-16.79912856
6.38	638	-0.53	0.172	-0.823	0.3437748	0.7448454	-0.2291832	-11.49926706	-31.22048142	-16.80485814
6.39	639	-0.531	0.172	-0.822	0.2291832	0.9740286	-0.0572958	-11.49926706	-31.21475184	-16.80485814
6.4	640	-0.531	0.172	-0.826	0.2291832	0.859437	0.0572958	-11.59666992	-31.30069554	-16.74756234
6.41	641	-0.53	0.174	-0.826	0.1145916	0.5156622	0.1718874	-11.59666992	-31.29496596	-16.74756234
6.42	642	-0.53	0.174	-0.822	0	0.286479	0.2291832	-11.59666992	-31.28923638	-16.74756234
6.43	643	-0.53	0.174	-0.821	0	0.0572958	0.1145916	-11.6023995	-31.28923638	-16.74183276
6.44	644	-0.528	0.175	-0.82	-0.3437748	0.0572958	0	-11.6023995	-31.28923638	-16.74183276
6.45	645	-0.521	0.175	-0.824	-0.4010706	-0.1718874	-0.0572958	-11.76282774	-31.35226176	-16.66161864
6.46	646	-0.519	0.176	-0.824	-0.4010706	-0.1145916	0	-11.76855732	-31.35226176	-16.66161864
6.47	647	-0.517	0.178	-0.824	-0.4010706	-0.0572958	0.1145916	-11.76855732	-31.35226176	-16.66161864
6.48	648	-0.515	0.179	-0.825	-0.1718874	0.1145916	0.286479	-11.7742869	-31.35226176	-16.65588906
6.49	649	-0.516	0.182	-0.825	-0.0572958	0.0572958	0.286479	-11.78001648	-31.35226176	-16.65015948
6.5	650	-0.514	0.182	-0.825	0.0572958	-0.3437748	0.286479	-11.93471514	-31.3694505	-16.56421578
6.51	651	-0.513	0.18	-0.821	0.2291832	-0.4583664	0.2291832	-11.93471514	-31.37518008	-16.56421578
6.52	652	-0.514	0.176	-0.82	0.286479	-0.4010706	0.286479	-11.92898556	-31.37518008	-16.5584862
6.53	653	-0.514	0.176	-0.82	0.1145916	-0.3437748	0.2291832	-11.93471514	-31.38090966	-16.55275662
6.54	654	-0.516	0.181	-0.821	0	-0.3437748	0	-11.93471514	-31.38663924	-16.55275662
6.55	655	-0.515	0.182	-0.823	0.1145916	-0.1718874	-0.0572958	-12.18681666	-31.41528714	-16.42097628
6.56	656	-0.516	0.182	-0.823	0.1718874	0	-0.2291832	-12.18108708	-31.41528714	-16.42097628
6.57	657	-0.516	0.181	-0.822	0.2291832	0.3437748	-0.3437748	-12.1753575	-31.40955756	-16.42670586
6.58	658	-0.514	0.183	-0.821	0.4583664	0.5156622	-0.5156622	-12.16962792	-31.40382798	-16.43243544
6.59	659	-0.514	0.181	-0.82	0.6302538	0.572958	-0.6302538	-12.15816876	-31.40382798	-16.4438946
6.6	660	-0.514	0.177	-0.817	0.6302538	0.572958	-0.6302538	-12.18108708	-31.42101672	-16.43243544
6.61	661	-0.514	0.171	-0.811	0.1718874	0.8021412	-0.6302538	-12.1753575	-31.40955756	-16.4438946
6.62	662	-0.515	0.169	-0.813	-0.3437748	0.8021412	-0.4010706	-12.1753575	-31.40382798	-16.44962418
6.63	663	-0.52	0.172	-0.816	-0.6875496	0.286479	-0.3437748	-12.18108708	-31.40382798	-16.45535376
6.64	664	-0.524	0.174	-0.816	-0.8021412	-0.1718874	-0.286479	-12.18681666	-31.40382798	-16.45535376
6.65	665	-0.527	0.178	-0.818	-0.859437	-0.3437748	-0.4583664	-12.2326533	-31.44393504	-16.43816502
6.66	666	-0.528	0.183	-0.818	-0.859437	-0.3437748	-0.6875496	-12.23838288	-31.44966462	-16.44962418
6.67	667	-0.525	0.181	-0.819	-0.4583664	0	-0.859437	-12.2326533	-31.44966462	-16.46108334
6.68	668	-0.522	0.178	-0.824	-0.286479	0.286479	-0.8021412	-12.2326533	-31.44966462	-16.46681292
6.69	669	-0.52	0.178	-0.825	-0.1718874	0.4010706	-0.5156622	-12.2326533	-31.44966462	-16.47827208
6.7	670	-0.523	0.179	-0.822	-0.0572958	0.2291832	-0.286479	-12.33578574	-31.52414916	-16.42097628
6.71	671	-0.526	0.178	-0.818	-0.2291832	0.2291832	-0.1718874	-12.33578574	-31.51841958	-16.42670586
6.72	672	-0.528	0.176	-0.819	-0.3437748	0.0572958	0	-12.34151532	-31.51841958	-16.42670586
6.73	673	-0.528	0.176	-0.818	-0.1718874	0	0.1145916	-12.34151532	-31.51841958	-16.42097628
6.74	674	-0.525	0.177	-0.819	-0.1718874	-0.0572958	0	-12.3472449	-31.51841958	-16.42097628
6.75	675	-0.524	0.175	-0.816	-0.286479	-0.0572958	-0.0572958	-12.41599986	-31.61582244	-16.38086922
6.76	676	-0.522	0.172	-0.815	-0.5156622	-0.286479	0	-12.42172944	-31.62155202	-16.38086922
6.77	677	-0.524	0.172	-0.814	-0.7448454	-0.5156622	0.2291832	-12.42745902	-31.62155202	-16.38086922
6.78	678	-0.528	0.173	-0.818	-0.859437	-1.0313244	0.5156622	-12.44464776	-31.63301118	-16.36941006
6.79	679	-0.532	0.174	-0.822	-0.6875496	-0.859437	0.6302538	-12.45610692	-31.63874076	-16.3579509
6.8	680	-0.534	0.177	-0.824	-0.4010706	-0.6302538	0.7448454	-12.49621398	-31.6845774	-16.33503258
6.81	681	-0.535	0.179	-0.821	-0.286479	-0.5156622	0.859437	-12.50194356	-31.69030698	-16.32357342
6.82	682	-0.535	0.183	-0.823	-0.4010706	-0.1145916	0.9740286	-12.51340272	-31.69030698	-16.31211426
6.83	683	-0.535	0.187	-0.82	-0.286479	0.1145916	0.9167328	-12.52486188	-31.6845774	-16.3006551
6.84	684	-0.534	0.19	-0.818	-0.286479	0.2291832	0.6875496	-12.53059146	-31.6845774	-16.29492552
6.85	685	-0.533	0.19	-0.817	-0.286479	0.286479	0.286479	-12.6910197	-31.76479152	-16.20325224
6.86	686	-0.531	0.187	-0.816	-0.2291832	0.2291832	-0.0572958	-12.69674928	-31.76479152	-16.20325224
6.87	687	-0.525	0.185	-0.816	-0.2291832	0.2291832	-0.4010706	-12.69674928	-31.76479152	-16.20898182
6.88	688	-0.518	0.183	-0.822	-0.0572958	0.1718874	-0.572958	-12.6910197	-31.76479152	-16.2147114
6.89	689	-0.516	0.181	-0.822	0	0.3437748	-0.5156622	-12.6910197	-31.75906194	-16.22044098
6.9	690	-0.517	0.181	-0.824	0.1718874	0.4010706	-0.4010706	-12.72539718	-31.7418732	-16.20898182
6.91	691	-0.517	0.182	-0.825	0.2291832	0.6302538	-0.2291832	-12.7196676	-31.73614362	-16.2147114
6.92	692	-0.519	0.182	-0.824	0.3437748	0.7448454	-0.1145916	-12.71393802	-31.73041404	-16.2147114
6.93	693	-0.521	0.183	-0.823	0.4583664	0.9740286	-0.0572958	-12.70820844	-31.71895488	-16.22044098
6.94	694	-0.522	0.181	-0.819	0.572958	1.2605076	-0.0572958	-12.69674928	-31.70749572	-16.22044098
6.95	695	-0.521	0.18	-0.819	0.1718874	1.2605076	-0.2291832	-12.71393802	-31.70749572	-16.2147114
6.96	696	-0.518	0.178	-0.824	0.0572958	1.145916	-0.286479	-12.71393802	-31.69603656	-16.22044098
6.97	697	-0.517	0.176	-0.825	0.1718874	1.0886202	-0.1718874	-12.70820844	-31.6845774	-16.22617056
6.98	698	-0.516	0.178	-0.826	0.3437748	0.9167328	-0.0572958	-12.70247886	-31.67311824	-16.23190014
6.99	699	-0.519	0.177	-0.828	0.4583664	0.8021412	0.1145916	-12.69674928	-31.66738866	-16.23190014
7	700	-0.521	0.176	-0.823	0.5156622	0.6875496	0.2291832	-12.70820844	-31.67884782	-16.22044098
7.01	701	-0.525	0.178	-0.819	0.4010706	0.6875496	0.4583664	-12.70247886	-31.66738866	-16.22044098
7.02	702	-0.526	0.178	-0.817	0.2291832	0.6302538	0.572958	-12.70247886	-31.66165908	-16.2147114
7.03	703	-0.527	0.181	-0.817	0.2291832	0.286479	0.4010706	-12.70247886	-31.6559295	-16.20898182
7.04	704	-0.528	0.183	-0.818	0.1718874	0	0.1718874	-12.70247886	-31.6559295	-16.20898182
7.05	705	-0.527	0.183	-0.818	0.2291832	-0.1718874	0	-12.81134088	-31.77625068	-16.14022686
7.06	706	-0.526	0.18	-0.821	0.2291832	-0.4010706	-0.1145916	-12.81134088	-31.78198026	-16.14595644
7.07	707	-0.525	0.178	-0.823	0.3437748	-0.4583664	0	-12.8056113	-31.78770984	-16.14022686
7.08	708	-0.525	0.175	-0.821	0.4010706	-0.5156622	0.2291832	-12.8056113	-31.78770984	-16.14022686
7.09	709	-0.526	0.177	-0.819	0.2291832	0	0.4583664	-12.8056113	-31.78770984	-16.13449728
7.1	710	-0.526	0.181	-0.819	0.2291832	0.1718874	0.4583664	-12.84571836	-31.81062816	-16.1001198
7.11	711	-0.526	0.184	-0.82	0.3437748	0.0572958	0.4583664	-12.84571836	-31.81062816	-16.1001198
7.12	712	-0.525	0.184	-0.817	0.4010706	0	0.4010706	-12.84571836	-31.80489858	-16.09439022
7.13	713	-0.525	0.182	-0.819	0.4010706	0	0.286479	-12.84571836	-31.80489858	-16.08866064
7.14	714	-0.525	0.181	-0.819	0.286479	0.1145916	0.1145916	-12.83998878	-31.80489858	-16.08866064
