TimeStamp(s)	FrameCounter	AccX	AccY	AccZ	GyrX	GyrY	GyrZ	EulerX	EulerY	EulerZ
0.01	1	-0.037	-1.007	0.038	0.1718874	0.1718874	-0.4010706	93.1916187	-1.47250206	-59.74233066
0.02	2	-0.036	-1.009	0.038	0.3437748	0.0572958	-0.3437748	93.19734828	-1.47250206	-59.74233066
0.03	3	-0.035	-1.01	0.039	0.2291832	0.0572958	-0.286479	93.19734828	-1.46677248	-59.73660108
0.04	4	-0.034	-1.01	0.04	0.0572958	0.3437748	-0.2291832	93.19734828	-1.46677248	-59.73660108
0.05	5	-0.034	-1.009	0.04	0	0.572958	-0.0572958	93.02546088	-1.47250206	-59.79389688
0.06	6	-0.035	-1.006	0.039	-0.0572958	0.6875496	0.1145916	93.02546088	-1.47250206	-59.7881673
0.07	7	-0.037	-1.007	0.039	0.0572958	0.286479	0.2291832	93.02546088	-1.47250206	-59.7881673
0.08	8	-0.037	-1.007	0.04	0.0572958	-0.0572958	0.2291832	93.02546088	-1.47823164	-59.7881673
0.09	9	-0.038	-1.005	0.039	0.0572958	-0.1145916	0.286479	93.02546088	-1.47823164	-59.7881673
0.1	10	-0.04	-1.006	0.038	0	0.0572958	0.1718874	92.74471146	-1.54125702	-59.88557016
0.11	11	-0.041	-1.004	0.038	0.0572958	0.286479	0.1718874	92.74471146	-1.54125702	-59.88557016
0.12	12	-0.041	-1.004	0.039	0	0.4010706	0.0572958	92.74471146	-1.5469866	-59.87984058
0.13	13	-0.04	-1.004	0.038	0.1145916	0.572958	0.0572958	92.75044104	-1.5469866	-59.874111
0.14	14	-0.039	-1.005	0.039	0.1718874	0.572958	0	92.75044104	-1.5469866	-59.86838142
0.15	15	-0.038	-1.006	0.041	0.1718874	0.572958	-0.0572958	92.63584944	-1.56417534	-59.9027589
0.16	16	-0.039	-1.006	0.041	0.1718874	0.859437	-0.0572958	92.64157902	-1.56417534	-59.89702932
0.17	17	-0.04	-1.007	0.041	0.286479	1.0886202	0	92.64157902	-1.56417534	-59.88557016
0.18	18	-0.039	-1.005	0.041	0.286479	1.2032118	0	92.6473086	-1.56990492	-59.86838142
0.19	19	-0.039	-1.005	0.041	0.2291832	1.2032118	0	92.6473086	-1.56990492	-59.85692226
0.2	20	-0.038	-1.004	0.04	0.3437748	1.0313244	0	92.57282406	-1.58136408	-59.874111
0.21	21	-0.037	-1.006	0.041	0.4583664	0.859437	-0.0572958	92.57855364	-1.58136408	-59.86838142
0.22	22	-0.036	-1.006	0.042	0.572958	0.572958	-0.0572958	92.58428322	-1.58136408	-59.86265184
0.23	23	-0.035	-1.008	0.041	0.6875496	0.4583664	0	92.5900128	-1.58136408	-59.85692226
0.24	24	-0.036	-1.008	0.041	0.8021412	0.4010706	0.0572958	92.60147196	-1.58136408	-59.85119268
0.25	25	-0.036	-1.006	0.041	0.859437	0.2291832	0.1145916	92.52125784	-1.59855282	-59.87984058
0.26	26	-0.037	-1.006	0.041	0.7448454	0.1145916	0.1145916	92.532717	-1.59855282	-59.87984058
0.27	27	-0.036	-1.004	0.041	0.859437	-0.0572958	0.1718874	92.53844658	-1.59855282	-59.87984058
0.28	28	-0.036	-1.005	0.042	0.859437	-0.286479	0.1145916	92.54990574	-1.59855282	-59.87984058
0.29	29	-0.036	-1.005	0.042	0.859437	-0.4010706	0.1145916	92.55563532	-1.59855282	-59.88557016
0.3	30	-0.036	-1.005	0.04	1.0886202	-0.7448454	0.1145916	92.52125784	-1.6042824	-59.90848848
0.31	31	-0.035	-1.006	0.039	1.2605076	-1.2032118	0.1718874	92.532717	-1.61001198	-59.91994764
0.32	32	-0.035	-1.007	0.041	1.4896908	-1.6042824	0.286479	92.54990574	-1.61001198	-59.93713638
0.33	33	-0.033	-1.006	0.042	1.4896908	-1.7761698	0.3437748	92.56709448	-1.61001198	-59.95432512
0.34	34	-0.032	-1.006	0.044	1.4896908	-2.1772404	0.4010706	92.57855364	-1.61574156	-59.97724344
0.35	35	-0.029	-1.006	0.043	1.3750992	-2.4637194	0.572958	92.57282406	-1.61574156	-60.01162092
0.36	36	-0.026	-1.007	0.043	1.2605076	-2.6929026	0.6302538	92.5900128	-1.61574156	-60.04026882
0.37	37	-0.029	-1.007	0.04	1.2032118	-2.8074942	0.9167328	92.60147196	-1.62720072	-60.06318714
0.38	38	-0.032	-1.006	0.041	1.0313244	-2.86479	0.9167328	92.61293112	-1.6329303	-60.09756462
0.39	39	-0.037	-1.007	0.044	0.9740286	-2.9793816	0.9167328	92.62439028	-1.63865988	-60.12621252
0.4	40	-0.04	-1.009	0.047	0.9167328	-2.8074942	0.9167328	92.6186607	-1.65011904	-60.16059
0.41	41	-0.039	-1.01	0.052	0.8021412	-2.578311	0.6875496	92.62439028	-1.65584862	-60.18350832
0.42	42	-0.034	-1.009	0.053	0.6875496	-2.4637194	0.5156622	92.63584944	-1.6615782	-60.21215622
0.43	43	-0.026	-1.009	0.05	0.5156622	-2.578311	0.6302538	92.64157902	-1.66730778	-60.23507454
0.44	44	-0.023	-1.008	0.048	0.4010706	-2.9220858	0.6875496	92.6473086	-1.67303736	-60.26372244
0.45	45	-0.022	-1.007	0.045	0.3437748	-3.3231564	0.7448454	92.63011986	-1.66730778	-60.3038295
0.46	46	-0.021	-1.002	0.043	0.572958	-3.5523396	0.572958	92.63584944	-1.66730778	-60.34393656
0.47	47	-0.022	-1.004	0.045	0.9740286	-3.3231564	0.2291832	92.65303818	-1.66730778	-60.37258446
0.48	48	-0.026	-1.006	0.05	1.2605076	-3.2085648	-0.0572958	92.66449734	-1.66730778	-60.40696194
0.49	49	-0.028	-1.006	0.056	1.4896908	-3.4950438	-0.6302538	92.68168608	-1.65584862	-60.44133942
0.5	50	-0.027	-1.006	0.063	1.5469866	-3.724227	-1.145916	92.69887482	-1.63865988	-60.48144648
0.51	51	-0.024	-1.005	0.07	1.5469866	-4.1252976	-1.6615782	92.71606356	-1.61574156	-60.52155354
0.52	52	-0.018	-1.004	0.07	1.6042824	-4.010706	-1.8334656	92.7332523	-1.59855282	-60.55593102
0.53	53	-0.014	-1.002	0.072	1.4896908	-4.5263682	-1.718874	92.75044104	-1.5756345	-60.60176766
0.54	54	-0.009	-1.001	0.071	1.3178034	-5.156622	-1.6042824	92.76762978	-1.55271618	-60.65333388
0.55	55	-0.009	-1.003	0.071	0.9740286	-6.016059	-1.3178034	92.77908894	-1.52406828	-60.71062968
0.56	56	-0.01	-1.007	0.068	0.4583664	-6.4744254	-1.145916	92.78481852	-1.51260912	-60.77365506
0.57	57	-0.01	-1.009	0.069	0.0572958	-6.3598338	-1.145916	92.78481852	-1.49542038	-60.83668044
0.58	58	-0.008	-1.015	0.07	-0.6302538	-5.9587632	-1.145916	92.78481852	-1.47823164	-60.89397624
0.59	59	-0.005	-1.016	0.072	-0.9167328	-5.9014674	-1.2032118	92.77908894	-1.4610429	-60.95127204
0.6	60	-0.005	-1.015	0.071	-0.9167328	-6.3598338	-1.0886202	92.76762978	-1.432395	-61.020027
0.61	61	-0.004	-1.013	0.07	-0.9167328	-6.9327918	-0.9167328	92.7619002	-1.42093584	-61.08878196
0.62	62	-0.005	-1.01	0.073	-1.2032118	-7.2192708	-0.859437	92.75044104	-1.4037471	-61.15753692
0.63	63	-0.006	-1.005	0.071	-1.7761698	-7.1046792	-0.5156622	92.7332523	-1.39228794	-61.22629188
0.64	64	-0.008	-1.002	0.066	-2.0626488	-6.9327918	-0.3437748	92.71606356	-1.38655836	-61.29504684
0.65	65	-0.008	-1	0.06	-2.3491278	-6.875496	-0.3437748	92.69314524	-1.36936962	-61.3638018
0.66	66	-0.007	-0.998	0.061	-2.3491278	-7.1046792	-0.4010706	92.67022692	-1.35791046	-61.43828634
0.67	67	-0.004	-0.997	0.059	-2.4637194	-7.2192708	-0.5156622	92.6473086	-1.3464513	-61.5070413
0.68	68	-0.003	-0.997	0.061	-2.291832	-7.7922288	-0.7448454	92.62439028	-1.33499214	-61.58725542
0.69	69	-0.004	-0.998	0.062	-2.2345362	-8.2505952	-0.859437	92.60720154	-1.3178034	-61.66746954
0.7	70	-0.008	-1	0.064	-1.7761698	-8.4797784	-0.8021412	92.5900128	-1.30061466	-61.75341324
0.71	71	-0.011	-1.002	0.063	-0.3437748	-8.3651868	-0.859437	92.5900128	-1.28342592	-61.83362736
0.72	72	-0.015	-0.999	0.07	0.9167328	-8.1360036	-0.7448454	92.60147196	-1.27196676	-61.91384148
0.73	73	-0.019	-0.997	0.077	2.005353	-7.9068204	-0.3437748	92.62439028	-1.2605076	-61.9940556
0.74	74	-0.019	-0.996	0.083	2.5210152	-7.6203414	0.2291832	92.65303818	-1.2605076	-62.06854014
0.75	75	-0.022	-0.998	0.084	2.4064236	-6.9900876	0.859437	92.68741566	-1.2605076	-62.13156552
0.76	76	-0.026	-0.997	0.082	2.0626488	-6.589017	1.4896908	92.71033398	-1.27196676	-62.20032048
0.77	77	-0.028	-0.999	0.083	1.8907614	-6.302538	2.0626488	92.7332523	-1.2891555	-62.26334586
0.78	78	-0.028	-1	0.075	1.7761698	-6.016059	2.4637194	92.75617062	-1.30634424	-62.32064166
0.79	79	-0.03	-0.998	0.072	2.0626488	-5.5003968	2.9793816	92.77908894	-1.32926256	-62.37793746
0.8	80	-0.037	-0.996	0.072	2.7501984	-5.5003968	3.151269	92.80773684	-1.36364004	-62.43523326
0.81	81	-0.046	-0.992	0.071	3.6096354	-5.3858052	3.3231564	92.8478439	-1.39228794	-62.48679948
0.82	82	-0.057	-0.987	0.071	4.2398892	-5.156622	3.6669312	92.89368054	-1.42666542	-62.5383657
0.83	83	-0.063	-0.982	0.073	4.5263682	-4.3544808	4.2398892	92.93951718	-1.4610429	-62.58420234
0.84	84	-0.067	-0.983	0.07	4.6409598	-3.0366774	4.6409598	92.9910834	-1.50687954	-62.61857982
0.85	85	-0.069	-0.986	0.068	4.8128472	-1.3750992	4.9274388	93.03692004	-1.56990492	-62.63576856
0.86	86	-0.067	-0.993	0.059	4.9274388	0.1718874	4.870143	93.08848626	-1.61574156	-62.63576856
0.87	87	-0.062	-1.001	0.053	5.2712136	1.3178034	4.6982556	93.14005248	-1.6615782	-62.6243094
0.88	88	-0.062	-1.002	0.052	5.6149884	1.8334656	5.0420304	93.19734828	-1.71314442	-62.60712066
0.89	89	-0.067	-1.003	0.065	4.870143	3.2658606	5.9587632	93.24318492	-1.7761698	-62.57847276
0.9	90	-0.069	-1.004	0.078	2.005353	5.7868758	7.3338624	93.26610324	-1.8621135	-62.52117696
0.91	91	-0.08	-1.008	0.07	-2.0626488	7.5057498	8.1360036	93.23745534	-1.95378678	-62.452422
0.92	92	-0.083	-1	0.047	-5.5576926	7.2765666	7.9641162	93.18015954	-2.03973048	-62.38939662
0.93	93	-0.075	-0.987	0.024	-7.1046792	5.2712136	6.9900876	93.105675	-2.11421502	-62.3378304
0.94	94	-0.044	-0.987	0.01	-6.2452422	2.6356068	5.8441716	93.03692004	-2.17151082	-62.32064166
0.95	95	-0.012	-1.003	0.013	-3.6669312	-1.7761698	5.6722842	92.97962424	-2.21161788	-62.34928956
0.96	96	0.001	-1.029	0.033	-1.6042824	-6.875496	6.5317212	92.96816508	-2.27464326	-62.41804452
0.97	97	-0.007	-1.053	0.068	-0.5156622	-11.2299768	7.9068204	92.96816508	-2.34339822	-62.53263612
0.98	98	-0.012	-1.066	0.102	-0.286479	-13.6936962	9.2246238	92.97389466	-2.42361234	-62.67587562
0.99	99	-0.01	-1.072	0.105	-1.0313244	-14.7823164	10.313244	92.96816508	-2.51528562	-62.8248447
1	100	-0.005	-1.069	0.104	-0.9740286	-15.6417534	11.1153852	92.97389466	-2.6069589	-62.98527294
1.01	101	-0.012	-1.054	0.101	-0.1145916	-16.902261	12.4904844	92.98535382	-2.71582092	-63.16288992
1.02	102	-0.029	-1.046	0.1	1.2605076	-19.0222056	14.0947668	93.00827214	-2.84187168	-63.35769564
1.03	103	-0.043	-1.044	0.099	1.7761698	-23.3766864	15.8709366	93.04264962	-2.9793816	-63.598338
1.04	104	-0.045	-1.041	0.101	0.7448454	-26.9863218	17.18874	93.07129752	-3.12835068	-63.87335784
1.05	105	-0.047	-1.021	0.11	-0.5156622	-30.0229992	18.1054728	93.08848626	-3.28304934	-64.17702558
1.06	106	-0.065	-0.993	0.125	-1.9480572	-32.372127	18.048177	93.09421584	-3.437748	-64.50934122
1.07	107	-0.098	-0.968	0.143	-2.9220858	-33.2888598	17.475219	93.08848626	-3.5809875	-64.84738644
1.08	108	-0.133	-0.968	0.167	-4.3544808	-32.2002396	15.9855282	93.07129752	-3.71849742	-65.1739725
1.09	109	-0.146	-0.981	0.192	-7.448454	-28.6479	14.2666542	93.0197313	-3.8388186	-65.46618108
1.1	110	-0.142	-1.006	0.197	-10.2559482	-25.210152	12.891555	92.94524676	-3.9534102	-65.7182826
1.11	111	-0.148	-1.024	0.197	-14.3812458	-22.1161788	11.5737516	92.819196	-4.05081306	-65.9474658
1.12	112	-0.147	-1.024	0.198	-16.2720072	-19.7097552	10.4851314	92.67022692	-4.14248634	-66.1480011
1.13	113	-0.153	-1.014	0.204	-16.329303	-15.8136408	9.2819196	92.52125784	-4.22270046	-66.31415892
1.14	114	-0.157	-1.012	0.203	-15.6990492	-11.2872726	8.3651868	92.37228876	-4.30291458	-66.42875052
1.15	115	-0.152	-1.013	0.2	-15.4125702	-7.3338624	7.5630456	92.246238	-4.3831287	-66.50323506
1.16	116	-0.146	-1.013	0.197	-15.756345	-4.297185	6.875496	92.08580976	-4.44615408	-66.5490717
1.17	117	-0.131	-1.002	0.2	-16.329303	-1.718874	6.7036086	91.92538152	-4.51490904	-66.57199002
1.18	118	-0.118	-1.014	0.197	-17.4179232	0	7.2765666	91.74776454	-4.58939358	-66.5777196
1.19	119	-0.108	-1.03	0.177	-20.8556712	0.4010706	8.021412	91.53577008	-4.6696077	-66.5777196
1.2	120	-0.096	-1.028	0.163	-23.6631654	-1.432395	8.5370742	91.31231646	-4.7555514	-66.59490834
1.21	121	-0.086	-1.017	0.148	-25.9549974	-4.6409598	8.8235532	91.05448536	-4.84722468	-66.64647456
1.22	122	-0.084	-0.999	0.138	-28.1895336	-8.3651868	8.880849	90.77946552	-4.93316838	-66.73241826
1.23	123	-0.081	-0.983	0.131	-29.9657034	-12.2040054	8.9381448	90.48725694	-5.01911208	-66.85846902
1.24	124	-0.077	-0.965	0.132	-31.6272816	-15.9855282	8.7089616	90.1835892	-5.10505578	-67.01889726
1.25	125	-0.085	-0.948	0.13	-32.5440144	-19.4232762	7.9641162	89.87992146	-5.17954032	-67.21370298
1.26	126	-0.11	-0.94	0.121	-33.3461556	-22.1161788	7.1046792	89.56479456	-5.24829528	-67.44288618
1.27	127	-0.135	-0.922	0.114	-34.3201842	-24.637194	5.9014674	89.24393808	-5.30559108	-67.68925812
1.28	128	-0.156	-0.906	0.118	-34.0337052	-24.6944898	4.583664	88.9230816	-5.35142772	-67.93563006
1.29	129	-0.179	-0.902	0.114	-33.6899304	-22.91832	3.2658606	88.6079547	-5.3858052	-68.17054284
1.3	130	-0.199	-0.895	0.117	-33.0596766	-20.2827132	1.8907614	88.30428696	-5.4144531	-68.37107814
1.31	131	-0.214	-0.894	0.124	-31.6845774	-17.1314442	0.5156622	88.00061922	-5.42591226	-68.54296554
1.32	132	-0.224	-0.884	0.126	-30.4240698	-13.8655836	-0.9167328	87.70841064	-5.42018268	-68.68620504
1.33	133	-0.227	-0.893	0.145	-28.7051958	-10.8289062	-2.3491278	87.42766122	-5.40299394	-68.80079664
1.34	134	-0.214	-0.906	0.163	-27.6165756	-6.9900876	-3.8388186	87.15837096	-5.36861646	-68.87528118
1.35	135	-0.198	-0.929	0.169	-26.4706596	-3.2085648	-4.870143	86.92345818	-5.33423898	-68.90392908
1.36	136	-0.187	-0.95	0.179	-25.6685184	-0.859437	-5.156622	86.66562708	-5.28840234	-68.92111782
1.37	137	-0.171	-0.964	0.172	-25.7258142	0.9740286	-5.5576926	86.4020664	-5.23110654	-68.91538824
1.38	138	-0.159	-0.972	0.155	-25.0955604	1.2032118	-5.8441716	86.14996488	-5.17381074	-68.90965866
1.39	139	-0.15	-0.985	0.152	-23.5485738	0.4583664	-5.9587632	85.90932252	-5.11651494	-68.90965866
1.4	140	-0.15	-0.982	0.143	-22.345362	0	-6.3598338	85.72024638	-5.0706783	-68.90965866
1.41	141	-0.153	-0.981	0.136	-21.1421502	1.0313244	-7.1046792	85.50252234	-4.99619376	-68.90965866
1.42	142	-0.163	-0.971	0.13	-19.767051	2.6929026	-7.9641162	85.30198704	-4.92170922	-68.88674034
1.43	143	-0.196	-0.973	0.127	-16.3865988	4.7555514	-7.7922288	85.13009964	-4.8414951	-68.84663328
1.44	144	-0.24	-0.98	0.142	-14.3812458	6.9900876	-6.4744254	84.97540098	-4.77274014	-68.7836079
1.45	145	-0.281	-0.978	0.175	-13.2926256	9.9694692	-5.3285094	84.87799812	-4.74982182	-68.68620504
1.46	146	-0.291	-0.975	0.204	-13.464513	15.1260912	-5.2712136	84.72902904	-4.68679644	-68.53723596
1.47	147	-0.274	-0.968	0.197	-13.1207382	20.2827132	-6.4744254	84.57433038	-4.6123119	-68.34815982
1.48	148	-0.248	-0.973	0.177	-9.5111028	22.6891368	-7.734933	84.45973878	-4.52063862	-68.13043578
1.49	149	-0.235	-0.971	0.173	-4.297185	23.6631654	-7.9068204	84.39098382	-4.42896534	-67.90125258
1.5	150	-0.216	-0.998	0.168	0.3437748	25.4393352	-7.161975	84.41390214	-4.36021038	-67.64915106
1.51	151	-0.131	-1.16	0.041	1.3750992	28.5333084	-4.6409598	84.40244298	-4.29145542	-67.37413122
1.52	152	0.006	-1.303	-0.095	3.5523396	26.2987722	-0.1718874	84.41390214	-4.27426668	-67.11057054
1.53	153	0.102	-1.315	-0.134	14.7250206	22.8610242	4.6409598	84.54568248	-4.30291458	-66.88138734
1.54	154	0.151	-1.415	-0.105	13.9801752	16.1001198	8.5370742	84.67173324	-4.37166954	-66.70949994
1.55	155	0.145	-1.481	-0.105	7.5630456	-2.7501984	12.5477802	84.75194736	-4.49199072	-66.72668868
1.56	156	0.083	-1.403	-0.148	8.1932994	-21.6005166	16.5011904	84.8550798	-4.6696077	-66.92722398
1.57	157	-0.071	-1.299	-0.202	15.8136408	-24.0069402	18.1627686	85.03842636	-4.86441342	-67.14494802
1.58	158	-0.281	-1.19	-0.143	21.1421502	-16.9595568	13.6364004	85.26760956	-5.00765292	-67.29964668
1.59	159	-0.439	-1.072	-0.058	19.3086846	-11.0580894	2.4637194	85.47387444	-5.03630082	-67.4085087
1.6	160	-0.492	-0.992	-0.067	17.9908812	2.9793816	-6.7609044	85.65149142	-5.00765292	-67.3798608
1.61	161	-0.463	-0.971	-0.135	17.3606274	24.7517856	-12.3758928	85.80619008	-4.870143	-67.13921844
1.62	162	-0.392	-0.976	-0.181	16.1001198	39.9924684	-14.3812458	85.92651126	-4.70971476	-66.75533658
1.63	163	-0.283	-0.941	-0.22	15.1260912	50.9359662	-13.178034	86.03537328	-4.5550161	-66.25686312
1.64	164	-0.175	-0.922	-0.248	14.8396122	58.3844202	-10.7716104	86.13277614	-4.42323576	-65.68390512
1.65	165	-0.08	-0.919	-0.241	13.4072172	60.5043648	-9.0527364	86.2015311	-4.30864416	-65.0880288
1.66	166	0.016	-0.914	-0.236	10.8289062	57.582279	-8.59437	86.26455648	-4.19978214	-64.52080038
1.67	167	0.073	-0.932	-0.252	8.4224826	50.133825	-9.2819196	86.30466354	-4.09092012	-64.03378608
1.68	168	0.087	-0.94	-0.242	7.448454	42.0551172	-10.6570188	86.3447706	-3.96486936	-63.62125632
1.69	169	0.092	-0.928	-0.213	8.880849	32.7731976	-12.9488508	86.41352556	-3.82735944	-63.30039984
1.7	170	0.089	-0.919	-0.185	10.4851314	24.0069402	-15.3552744	86.48228052	-3.64974246	-63.07694622
1.71	171	0.063	-0.927	-0.163	11.8602306	16.329303	-16.615782	86.59114254	-3.47785506	-62.92224756
1.72	172	0.032	-0.934	-0.149	12.3758928	10.886202	-16.7303736	86.70573414	-3.30596766	-62.8248447
1.73	173	0.007	-0.937	-0.127	12.605076	7.734933	-16.329303	86.8317849	-3.13980984	-62.75608974
1.74	174	-0.02	-0.936	-0.094	12.605076	6.3598338	-15.3552744	86.95783566	-2.98511118	-62.69879394
1.75	175	-0.026	-0.944	-0.068	11.8602306	6.3598338	-14.2666542	87.06669768	-2.8361421	-62.64149814
1.76	176	-0.037	-0.96	-0.055	10.0840608	7.3911582	-13.9801752	87.16410054	-2.6929026	-62.57274318
1.77	177	-0.045	-0.981	-0.053	8.9381448	8.4224826	-14.3812458	87.25004424	-2.5496631	-62.49252906
1.78	178	-0.037	-0.993	-0.048	9.2246238	8.8235532	-15.2406828	87.33598794	-2.39496444	-62.41231494
1.79	179	-0.025	-1	-0.043	9.740286	8.5370742	-16.4438946	87.4333908	-2.22880662	-62.33210082
1.8	180	-0.015	-0.994	-0.036	9.5683986	7.448454	-16.9595568	87.52506408	-2.05691922	-62.26907544
1.81	181	-0.007	-0.983	-0.025	8.6516658	6.016059	-16.615782	87.61100778	-1.8907614	-62.21177964
1.82	182	-0.003	-0.971	-0.015	6.9327918	4.4117766	-16.1574156	87.67976274	-1.72460358	-62.17167258
1.83	183	-0.003	-0.964	-0.021	3.724227	2.9793816	-15.0687954	87.71414022	-1.5756345	-62.14875426
1.84	184	0.001	-0.965	-0.029	0.4583664	2.5210152	-14.2093584	87.7198698	-1.43812458	-62.13156552
1.85	185	0.006	-0.97	-0.041	-2.578311	2.6356068	-13.4072172	87.67976274	-1.29488508	-62.1086472
1.86	186	0.003	-0.968	-0.045	-5.3285094	2.4637194	-12.4331886	87.62819652	-1.16883432	-62.09145846
1.87	187	-0.001	-0.961	-0.038	-7.448454	1.6042824	-11.5737516	87.5479824	-1.05424272	-62.0799993
1.88	188	-0.004	-0.947	-0.022	-8.8235532	0.7448454	-11.0007936	87.4620387	-0.9453807	-62.0799993
1.89	189	-0.003	-0.941	-0.012	-10.026765	0.1145916	-10.6570188	87.35890626	-0.84224826	-62.0799993
1.9	190	0.006	-0.941	-0.006	-11.0580894	-0.8021412	-10.1413566	87.25004424	-0.73338624	-62.09718804
1.91	191	0.02	-0.934	-0.009	-11.8029348	-2.6929026	-9.3965112	87.12972306	-0.64171296	-62.12583594
1.92	192	0.034	-0.929	-0.001	-11.5164558	-4.870143	-8.7662574	87.01513146	-0.55576926	-62.18313174
1.93	193	0.044	-0.923	0.016	-10.2559482	-7.6776372	-8.3651868	86.91199902	-0.47555514	-62.26334586
1.94	194	0.053	-0.924	0.036	-8.59437	-9.3392154	-7.9641162	86.82605532	-0.4010706	-62.36074872
1.95	195	0.062	-0.928	0.048	-7.2765666	-10.313244	-6.9900876	86.76875952	-0.32085648	-62.46388116
1.96	196	0.065	-0.94	0.059	-6.4744254	-12.605076	-5.5576926	86.70573414	-0.26929026	-62.58993192
1.97	197	0.061	-0.947	0.068	-6.7036086	-15.6990492	-4.010706	86.64270876	-0.23491278	-62.75036016
1.98	198	0.054	-0.95	0.087	-7.2765666	-19.3086846	-2.5210152	86.56822422	-0.21772404	-62.94516588
1.99	199	0.05	-0.948	0.093	-8.4797784	-23.204799	-0.6302538	86.4880101	-0.21772404	-63.17434908
2	200	0.051	-0.943	0.085	-9.6829902	-25.8977016	1.0313244	86.41352556	-0.2291832	-63.4264506
2.01	201	0.05	-0.924	0.066	-9.9694692	-28.5333084	2.86479	86.3161227	-0.26929026	-63.70720002
2.02	202	0.046	-0.91	0.054	-9.3392154	-31.3408026	4.870143	86.22444942	-0.32658606	-64.01659734
2.03	203	0.045	-0.888	0.053	-7.2192708	-33.231564	6.302538	86.16142404	-0.40680018	-64.3431834
2.04	204	0.036	-0.872	0.049	-4.010706	-34.7785506	7.5630456	86.12704656	-0.49274388	-64.68122862
2.05	205	0.023	-0.869	0.052	-0.9740286	-36.1536498	8.7662574	86.13850572	-0.59014674	-65.030733
2.06	206	0.003	-0.881	0.069	1.8907614	-37.0130868	9.6829902	86.16715362	-0.70473834	-65.39169654
2.07	207	-0.002	-0.904	0.082	4.2398892	-38.0444112	9.9121734	86.21871984	-0.81360036	-65.75838966
2.08	208	-0.004	-0.951	0.085	4.583664	-37.815228	8.9954406	86.27601564	-0.9167328	-66.13081236
2.09	209	-0.007	-1.002	0.084	3.6669312	-36.382833	7.3911582	86.32185228	-1.0026765	-66.48031674
2.1	210	-0.018	-1.035	0.088	2.4637194	-34.4920716	5.5576926	86.37914808	-1.07143146	-66.81836196
2.11	211	-0.033	-1.043	0.099	2.5210152	-33.1169724	4.8128472	86.41925514	-1.12872726	-67.13921844
2.12	212	-0.031	-1.045	0.131	4.297185	-32.945085	5.2712136	86.47082136	-1.19748222	-67.46007492
2.13	213	-0.002	-1.047	0.177	5.8441716	-35.236917	6.9900876	86.5453059	-1.27769634	-67.80384972
2.14	214	0.044	-1.048	0.209	6.589017	-38.4454818	9.3392154	86.62552002	-1.38082878	-68.182002
2.15	215	0.072	-1.068	0.224	6.1306506	-40.966497	11.8029348	86.72865246	-1.50114996	-68.57161344
2.16	216	0.082	-1.102	0.205	3.3231564	-43.6593996	12.9488508	86.78021868	-1.63865988	-68.99560236
2.17	217	0.065	-1.144	0.136	0.286479	-45.6647526	12.4331886	86.803137	-1.7761698	-69.4425096
2.18	218	0.031	-1.187	0.075	-0.2291832	-45.6074568	9.9121734	86.82032574	-1.88503182	-69.88941684
2.19	219	-0.029	-1.204	0.031	-1.145916	-44.5761324	5.5003968	86.82605532	-1.95378678	-70.32486492
2.2	220	-0.142	-1.282	-0.047	-9.167328	-45.7793442	-0.2291832	86.75730036	-1.97097552	-70.78323132
2.21	221	-0.254	-1.315	-0.029	-12.8342592	-44.8626114	-5.3858052	86.64843834	-1.93086846	-71.23013856
2.22	222	-0.315	-1.261	-0.087	-9.2819196	-38.7892566	-11.4018642	86.5739538	-1.82773602	-71.61975
2.23	223	-0.312	-1.318	-0.153	1.2605076	-29.793816	-19.5951636	86.59687212	-1.64438946	-71.92341774
2.24	224	-0.293	-1.316	-0.214	10.9434978	-23.8350528	-24.350715	86.7171933	-1.40947668	-72.17551926
2.25	225	-0.139	-1.227	-0.177	22.345362	-19.9389384	-18.1054728	86.9463765	-1.23758928	-72.38178414
2.26	226	0.015	-1.157	-0.117	26.1841806	-14.037471	-9.2819196	87.21566676	-1.145916	-72.51929406
2.27	227	0.18	-1.097	-0.214	24.9809688	-15.5844576	-7.5630456	87.47349786	-1.07143146	-72.67399272
2.28	228	0.287	-1.087	-0.221	22.0015872	-23.491278	-9.3392154	87.70841064	-0.97975818	-72.9089055
2.29	229	0.3	-1.101	-0.188	16.7303736	-29.3354496	-10.2559482	87.88602762	-0.87662574	-73.20111408
2.3	230	0.275	-1.066	-0.215	8.59437	-34.4347758	-10.7716104	87.96051216	-0.75057498	-73.55061846
2.31	231	0.213	-1.051	-0.246	-0.6875496	-40.3362432	-11.6310474	87.96051216	-0.63598338	-73.95168906
2.32	232	0.1	-1.074	-0.25	-7.2765666	-42.5707794	-12.5477802	87.89748678	-0.5156622	-74.38140756
2.33	233	-0.013	-1.072	-0.237	-9.453807	-40.7946096	-11.9748222	87.81154308	-0.4010706	-74.78820774
2.34	234	-0.087	-1.041	-0.211	-7.448454	-36.096354	-9.8548776	87.74278812	-0.30939732	-75.14917128
2.35	235	-0.118	-1.011	-0.178	-3.3231564	-29.793816	-7.3911582	87.68549232	-0.2578311	-75.45283902
2.36	236	-0.123	-0.98	-0.146	0	-22.5745452	-5.5003968	87.6912219	-0.20626488	-75.67629264
2.37	237	-0.11	-0.963	-0.132	2.1772404	-15.0687954	-3.8961144	87.71414022	-0.16615782	-75.8309913
2.38	238	-0.096	-0.964	-0.125	3.724227	-8.307891	-1.5469866	87.75424728	-0.15469866	-75.91120542
2.39	239	-0.076	-0.963	-0.116	5.156622	-1.2032118	1.145916	87.8058135	-0.16615782	-75.92266458
2.4	240	-0.068	-0.947	-0.1	6.4744254	3.0366774	3.3804522	87.84019098	-0.21772404	-75.89974626
2.41	241	-0.074	-0.938	-0.086	7.3338624	5.9587632	4.9274388	87.91467552	-0.26929026	-75.83672088
2.42	242	-0.076	-0.938	-0.078	6.9900876	8.0787078	5.8441716	87.98343048	-0.32658606	-75.75650676
2.43	243	-0.078	-0.949	-0.069	6.2452422	9.453807	6.589017	88.04645586	-0.38961144	-75.6591039
2.44	244	-0.084	-0.954	-0.061	5.5003968	10.6570188	7.3338624	88.09802208	-0.46409598	-75.55024188
2.45	245	-0.096	-0.944	-0.053	4.870143	11.6883432	8.1932994	88.13812914	-0.56149884	-75.43565028
2.46	246	-0.108	-0.938	-0.035	4.5263682	12.8342592	9.167328	88.18396578	-0.65317212	-75.30386994
2.47	247	-0.115	-0.933	-0.023	3.3804522	15.0687954	9.6829902	88.21261368	-0.75057498	-75.14917128
2.48	248	-0.118	-0.929	-0.023	1.718874	17.3033316	9.6829902	88.22407284	-0.84224826	-74.97728388
2.49	249	-0.111	-0.925	-0.022	0	19.0222056	9.0527364	88.21834326	-0.93392154	-74.78247816
2.5	250	-0.103	-0.914	-0.03	-2.005353	20.4546006	8.1932994	88.18969536	-1.0313244	-74.58194286
2.51	251	-0.101	-0.905	-0.025	-3.0366774	21.7151082	7.0473834	88.1495883	-1.10007936	-74.36421882
2.52	252	-0.1	-0.896	-0.01	-4.5263682	23.0329116	5.5003968	88.09802208	-1.15164558	-74.13503562
2.53	253	-0.092	-0.895	0	-5.72958	24.4080108	3.724227	88.02926712	-1.18602306	-73.89439326
2.54	254	-0.092	-0.903	0.007	-7.161975	25.78311	2.291832	87.949053	-1.20894138	-73.63656216
2.55	255	-0.092	-0.902	0.009	-8.7089616	26.929026	1.3750992	87.85737972	-1.2318597	-73.37300148
2.56	256	-0.104	-0.915	0.015	-9.0527364	27.1009134	0.9167328	87.75424728	-1.24331886	-73.10371122
2.57	257	-0.111	-0.919	0.023	-9.8548776	27.788463	0.2291832	87.64538526	-1.24331886	-72.82869138
2.58	258	-0.111	-0.929	0.03	-10.3705398	28.4760126	-0.4583664	87.53079366	-1.2318597	-72.54794196
2.59	259	-0.1	-0.921	0.037	-11.0007936	28.8770832	-1.0313244	87.4047429	-1.22040054	-72.26719254
2.6	260	-0.094	-0.914	0.049	-10.7716104	28.8197874	-1.7761698	87.30161046	-1.20894138	-71.98071354
2.61	261	-0.081	-0.901	0.07	-10.3705398	29.1062664	-2.578311	87.18701886	-1.1745639	-71.69423454
2.62	262	-0.07	-0.897	0.094	-9.3392154	29.6219286	-3.8961144	87.07815684	-1.13445684	-71.40202596
2.63	263	-0.067	-0.891	0.107	-8.1360036	29.8511118	-5.5576926	86.98648356	-1.07143146	-71.10981738
2.64	264	-0.077	-0.884	0.119	-6.9900876	30.0229992	-7.2192708	86.90626944	-0.99121734	-70.8176088
2.65	265	-0.083	-0.885	0.125	-6.1879464	30.2521824	-8.7089616	86.85470322	-0.90527364	-70.51967064
2.66	266	-0.093	-0.881	0.127	-5.5576926	30.4813656	-9.740286	86.79167784	-0.8021412	-70.22173248
2.67	267	-0.092	-0.881	0.127	-5.2139178	30.9970278	-10.599723	86.72865246	-0.6875496	-69.92379432
2.68	268	-0.077	-0.883	0.121	-5.0420304	31.8564648	-11.6883432	86.67135666	-0.56149884	-69.614397
2.69	269	-0.063	-0.891	0.095	-5.443101	32.658606	-12.7196676	86.60833128	-0.4297185	-69.2992701
2.7	270	-0.068	-0.906	0.078	-5.3285094	32.8304934	-13.1207382	86.56249464	-0.29793816	-68.97841362
2.71	271	-0.083	-0.921	0.055	-5.5576926	32.8877892	-12.1467096	86.49946926	-0.16615782	-68.66328672
2.72	272	-0.098	-0.947	0.042	-7.3338624	31.9710564	-10.1986524	86.41925514	-0.05156622	-68.3538894
2.73	273	-0.096	-0.972	0.027	-9.6256944	30.7678446	-7.7922288	86.3161227	0.0286479	-68.05595124
2.74	274	-0.08	-0.988	0.012	-11.0007936	28.9916748	-5.7868758	86.2015311	0.09740286	-67.77520182
2.75	275	-0.061	-0.998	0.015	-10.5424272	26.1841806	-4.3544808	86.10412824	0.13750992	-67.51737072
2.76	276	-0.047	-0.996	0.057	-7.734933	23.6058696	-3.4950438	86.02391412	0.18334656	-67.28818752
2.77	277	-0.032	-0.995	0.132	-2.86479	23.6058696	-3.4950438	85.98953664	0.2291832	-67.05327474
2.78	278	-0.031	-1.022	0.21	2.2345362	27.1582092	-4.1252976	86.01245496	0.28074942	-66.78971406
2.79	279	-0.037	-1.083	0.215	5.3858052	35.1223254	-4.4690724	86.06402118	0.33804522	-66.44593926
2.8	280	-0.018	-1.194	0.146	1.4896908	40.3362432	-2.7501984	86.0869395	0.38388186	-66.04486866
2.81	281	0.081	-1.427	-0.014	-12.5477802	40.966497	2.6356068	85.95515916	0.3724227	-65.63806848
2.82	282	0.169	-1.491	-0.086	-21.0848544	30.366774	8.5370742	85.7431647	0.29793816	-65.33440074
2.83	283	0.237	-1.436	-0.147	-18.4492476	19.8243468	15.183387	85.55408856	0.15469866	-65.12813586
2.84	284	0.258	-1.458	-0.203	-14.6677248	10.7716104	22.8037284	85.3993899	-0.06302538	-65.00781468
2.85	285	0.226	-1.413	-0.255	-9.453807	1.2605076	29.3354496	85.29625746	-0.3437748	-64.9734372
2.86	286	0.123	-1.254	-0.282	2.3491278	-2.9793816	34.0337052	85.32490536	-0.68182002	-64.97916678
2.87	287	-0.109	-1.075	-0.282	15.6417534	-2.6929026	31.799169	85.4853336	-0.99694692	-64.97916678
2.88	288	-0.334	-0.976	-0.147	25.210152	-0.9740286	23.204799	85.73743512	-1.22613012	-64.96770762
2.89	289	-0.452	-0.961	-0.064	28.361421	6.3598338	15.183387	86.02391412	-1.36936962	-64.89322308
2.9	290	-0.487	-0.959	-0.06	23.5485738	21.5432208	11.5737516	86.25309732	-1.5183387	-64.66976946
2.91	291	-0.458	-0.993	-0.107	17.8189938	40.7946096	11.9748222	86.41925514	-1.62147114	-64.2572397
2.92	292	-0.374	-1.002	-0.143	11.3445684	55.576926	13.8082878	86.51092842	-1.73606274	-63.69574086
2.93	293	-0.271	-1	-0.179	6.7609044	65.3745078	15.6417534	86.55103548	-1.87357266	-63.04256874
2.94	294	-0.145	-1.039	-0.215	0.9167328	70.7030172	17.18874	86.52238758	-2.01681216	-62.33210082
2.95	295	-0.005	-1.057	-0.231	-3.2085648	70.3019466	18.907614	86.44217346	-2.1772404	-61.62736248
2.96	296	0.136	-1.059	-0.237	-3.437748	63.884817	20.1681216	86.3734185	-2.35485738	-60.98564952
2.97	297	0.222	-1.037	-0.233	-1.3178034	51.6808116	19.9389384	86.33331144	-2.53820394	-60.46425774
2.98	298	0.224	-0.979	-0.231	1.145916	36.7266078	17.9908812	86.32185228	-2.69863218	-60.08610546
2.99	299	0.179	-0.913	-0.233	4.2398892	22.2307704	13.6936962	86.35050018	-2.83041252	-59.85692226
3	300	0.12	-0.864	-0.22	7.3911582	10.0840608	8.3651868	86.3734185	-2.87051958	-59.76524898
3.01	301	0.055	-0.847	-0.195	9.5111028	0	3.8388186	86.47082136	-2.91062664	-59.7595194
3.02	302	0.012	-0.849	-0.148	11.172681	-7.5057498	0.286479	86.58541296	-2.91062664	-59.83400394
3.03	303	0.002	-0.865	-0.108	12.7769634	-14.3812458	-1.9480572	86.72865246	-2.8934379	-59.97724344
3.04	304	0.001	-0.9	-0.093	13.5218088	-18.3919518	-2.8074942	86.87762154	-2.87051958	-60.15486042
3.05	305	0.003	-0.95	-0.09	13.5791046	-20.3973048	-2.86479	87.01513146	-2.8361421	-60.3611253
3.06	306	0.024	-0.982	-0.095	13.4072172	-20.7983754	-2.578311	87.16410054	-2.81322378	-60.56739018
3.07	307	0.045	-0.992	-0.097	13.6936962	-21.0275586	-2.0626488	87.31306962	-2.79603504	-60.77365506
3.08	308	0.067	-0.996	-0.096	13.8082878	-21.8869956	-1.6042824	87.46776828	-2.78457588	-60.9913791
3.09	309	0.08	-1.004	-0.095	13.6364004	-23.5485738	-1.6042824	87.62246694	-2.76738714	-61.22629188
3.1	310	0.077	-1.004	-0.094	13.2353298	-25.1528562	-2.578311	87.75997686	-2.72728008	-61.47266382
3.11	311	0.04	-0.992	-0.09	13.178034	-25.7258142	-4.1252976	87.90894594	-2.68717302	-61.73049492
3.12	312	0.002	-0.996	-0.076	12.605076	-24.064236	-6.6463128	88.05218544	-2.61841806	-61.97113728
3.13	313	-0.023	-1.004	-0.054	10.8289062	-21.3140376	-8.5370742	88.17250662	-2.53247436	-62.18313174
3.14	314	-0.055	-1.004	-0.037	8.1932994	-17.9908812	-9.2819196	88.2641799	-2.44080108	-62.36074872
3.15	315	-0.065	-1.01	-0.026	4.9847346	-14.4958374	-9.453807	88.3214757	-2.35485738	-62.5097178
3.16	316	-0.056	-1.017	-0.016	1.2605076	-10.8289062	-9.5111028	88.33866444	-2.25745452	-62.61857982
3.17	317	-0.037	-1.015	-0.016	-2.578311	-6.9900876	-9.0527364	88.31574612	-2.16578124	-62.68733478
3.18	318	-0.011	-1.019	-0.021	-6.589017	-3.724227	-8.1932994	88.25272074	-2.08556712	-62.72744184
3.19	319	0.001	-1.014	-0.021	-10.4278356	-1.0313244	-7.3338624	88.14385872	-2.01681216	-62.74463058
3.2	320	0.017	-0.997	-0.018	-12.2613012	0.1718874	-6.7609044	88.01780796	-1.92513888	-62.74463058
3.21	321	0.032	-0.978	-0.012	-14.037471	0.6302538	-6.3598338	87.87456846	-1.8621135	-62.74463058
3.22	322	0.043	-0.955	-0.005	-15.469866	-0.3437748	-5.5003968	87.7198698	-1.81054728	-62.75036016
3.23	323	0.048	-0.94	-0.002	-15.9282324	-2.4064236	-4.5263682	87.55944156	-1.76471064	-62.77900806
3.24	324	0.05	-0.93	0.006	-16.6730778	-5.2712136	-4.010706	87.38755416	-1.73033316	-62.83630386
3.25	325	0.035	-0.921	0.012	-17.3606274	-8.9954406	-3.6096354	87.22712592	-1.68449652	-62.92797714
3.26	326	0.02	-0.908	0.011	-16.7876694	-12.2040054	-2.5210152	87.0609681	-1.6615782	-63.04829832
3.27	327	0.014	-0.887	0.009	-14.6677248	-16.1001198	-0.286479	86.9177286	-1.66730778	-63.20872656
3.28	328	0	-0.888	-0.006	-12.891555	-18.9649098	0.9167328	86.79740742	-1.67876694	-63.3978027
3.29	329	-0.029	-0.88	-0.012	-9.3392154	-20.5118964	1.9480572	86.70573414	-1.70741484	-63.60406758
3.3	330	-0.056	-0.884	-0.01	-4.9847346	-21.3140376	3.151269	86.67135666	-1.75325148	-63.81033246
3.31	331	-0.068	-0.88	0.014	0	-21.0848544	4.2398892	86.68281582	-1.79908812	-64.01659734
3.32	332	-0.065	-0.846	0.052	7.2765666	-20.3973048	6.4171296	86.76302994	-1.87357266	-64.21713264
3.33	333	-0.05	-0.819	0.102	13.2926256	-20.340009	10.2559482	86.91199902	-1.9767051	-64.41193836
3.34	334	-0.04	-0.826	0.133	15.0687954	-20.7410796	13.9228794	87.07242726	-2.1199446	-64.60674408
3.35	335	-0.049	-0.861	0.15	14.7823164	-20.912967	15.8709366	87.2615034	-2.28610242	-64.8015498
3.36	336	-0.066	-0.907	0.152	14.2093584	-19.8816426	14.6677248	87.41620206	-2.42934192	-64.99062594
3.37	337	-0.064	-0.945	0.155	14.4385416	-17.8762896	12.032118	87.57090072	-2.55539268	-65.15678376
3.38	338	-0.047	-0.966	0.156	15.1260912	-16.8449652	9.9694692	87.73705854	-2.65279554	-65.32294158
3.39	339	-0.029	-0.982	0.161	15.9282324	-19.194093	9.9121734	87.90894594	-2.7501984	-65.50628814
3.4	340	-0.006	-0.992	0.18	17.475219	-23.9496444	11.45916	88.12666998	-2.85906042	-65.73547134
3.41	341	0.023	-0.985	0.201	18.7930224	-28.4760126	13.8655836	88.33866444	-2.99657034	-66.01049118
3.42	342	0.046	-0.988	0.213	18.048177	-31.9710564	16.329303	88.54492932	-3.15699858	-66.3198885
3.43	343	0.053	-1	0.222	15.2979786	-35.236917	19.5378678	88.7225463	-3.34607472	-66.6636633
3.44	344	0.028	-1.001	0.219	10.7143146	-37.4141574	21.8869956	88.86005622	-3.56379876	-67.03035642
3.45	345	-0.015	-1.017	0.214	6.9327918	-38.961144	23.0329116	88.9803774	-3.7815228	-67.4085087
3.46	346	-0.058	-1.051	0.178	0.4010706	-39.6486936	21.8869956	89.02048446	-3.99924684	-67.79812014
3.47	347	-0.183	-1.179	0.072	-14.5531332	-41.3675676	17.3033316	88.90589286	-4.16540466	-68.2106499
3.48	348	-0.37	-1.353	-0.025	-28.1322378	-43.258329	9.1100322	88.65952092	-4.25707794	-68.6403684
3.49	349	-0.519	-1.528	-0.159	-38.0444112	-36.3255372	-5.0420304	88.30428696	-4.2112413	-69.00706152
3.5	350	-0.672	-1.632	-0.201	-49.0452048	-16.5584862	-25.5539268	87.81727266	-3.96486936	-69.1846785
3.51	351	-0.743	-1.498	-0.35	-40.9092012	16.4438946	-47.0398518	87.39328374	-3.50077338	-69.041439
3.52	352	-0.558	-1.309	-0.531	-7.7922288	27.1009134	-50.3630082	87.29588088	-2.99657034	-68.79506706
3.53	353	-0.285	-1.131	-0.392	25.5539268	34.4347758	-41.5967508	87.53079366	-2.57258142	-68.468481
3.54	354	0.061	-1.01	-0.239	42.2270046	44.9199072	-30.2521824	87.93759384	-2.2631841	-68.03303292
3.55	355	0.342	-0.995	-0.256	44.2323576	38.7892566	-21.5432208	88.3501236	-2.01681216	-67.65488064
3.56	356	0.527	-1.091	-0.233	30.1375908	18.7930224	-16.7876694	88.64233218	-1.84492476	-67.4658045
3.57	357	0.606	-1.127	-0.249	10.4278356	-5.3285094	-15.2406828	88.7511942	-1.69595568	-67.5231003
3.58	358	0.593	-1.077	-0.258	-2.9220858	-29.3927454	-16.1001198	88.73400546	-1.52979786	-67.81530888
3.59	359	0.49	-1.012	-0.219	-13.2353298	-50.9359662	-19.4232762	88.61941386	-1.33499214	-68.3252415
3.6	360	0.351	-1.002	-0.193	-18.5065434	-60.2751816	-22.631841	88.44179688	-1.09434978	-68.93257698
3.61	361	0.17	-1.002	-0.17	-20.626488	-63.598338	-24.350715	88.24699116	-0.85370742	-69.56856036
3.62	362	0	-1.008	-0.155	-21.0848544	-62.5097178	-24.350715	88.05218544	-0.61306506	-70.19881416
3.63	363	-0.128	-0.981	-0.128	-20.626488	-56.9520252	-22.7464326	87.85165014	-0.39534102	-70.77177216
3.64	364	-0.253	-0.952	-0.108	-18.1627686	-47.2117392	-20.1681216	87.67403316	-0.2005353	-71.2473273
3.65	365	-0.32	-0.919	-0.122	-15.6417534	-34.950438	-16.7303736	87.50787534	-0.08021412	-71.60256126
3.66	366	-0.308	-0.898	-0.136	-11.1153852	-20.626488	-13.464513	87.39901332	0.04010706	-71.81455572
3.67	367	-0.23	-0.883	-0.16	-6.5317212	-6.2452422	-11.0580894	87.33025836	0.14896908	-71.88331068
3.68	368	-0.164	-0.853	-0.153	-2.9220858	2.6929026	-9.167328	87.30161046	0.24064236	-71.86039236
3.69	369	-0.103	-0.841	-0.153	-0.9740286	9.167328	-7.7922288	87.2901513	0.32085648	-71.76871908
3.7	370	-0.056	-0.853	-0.153	-0.6302538	13.2353298	-6.9327918	87.24431466	0.37815228	-71.6483979
3.71	371	-0.029	-0.878	-0.153	-0.1718874	15.1260912	-6.016059	87.23858508	0.44117766	-71.5051584
3.72	372	-0.024	-0.896	-0.15	1.0886202	14.7250206	-4.7555514	87.25004424	0.49274388	-71.3619189
3.73	373	-0.027	-0.919	-0.135	3.151269	13.2353298	-3.437748	87.28442172	0.52712136	-71.23013856
3.74	374	-0.046	-0.967	-0.115	4.297185	13.5791046	-1.5469866	87.32452878	0.55003968	-71.09835822
3.75	375	-0.082	-0.997	-0.114	4.583664	15.5271618	-0.7448454	87.33598794	0.52712136	-70.94938914
3.76	376	-0.111	-0.996	-0.128	4.6409598	17.8189938	-0.9167328	87.38182458	0.53858052	-70.77177216
3.77	377	-0.114	-0.992	-0.131	4.4690724	20.626488	-0.9167328	87.42766122	0.55003968	-70.56550728
3.78	378	-0.104	-0.992	-0.145	3.151269	23.1475032	-0.5156622	87.45630912	0.56149884	-70.33632408
3.79	379	-0.086	-0.99	-0.169	0.3437748	24.637194	-0.3437748	87.4620387	0.56722842	-70.09568172
3.8	380	-0.056	-1.001	-0.201	-2.1199446	24.6944898	-0.3437748	87.38182458	0.56149884	-69.86076894
3.81	381	-0.042	-1.016	-0.218	-4.010706	22.91832	-1.0313244	87.34171752	0.572958	-69.63731532
3.82	382	-0.013	-1.022	-0.223	-5.7868758	21.0275586	-2.3491278	87.28442172	0.6016059	-69.43105044
3.83	383	-0.015	-1.039	-0.222	-7.6776372	18.7930224	-3.2658606	87.2042076	0.63598338	-69.24770388
3.84	384	-0.023	-1.032	-0.215	-9.9694692	17.0168526	-4.297185	87.10107516	0.68182002	-69.08154606
3.85	385	-0.032	-1.016	-0.206	-13.464513	15.5844576	-5.7868758	86.92918776	0.73338624	-68.93830656
3.86	386	-0.047	-1.023	-0.171	-17.475219	15.756345	-6.7609044	86.75157078	0.8021412	-68.7836079
3.87	387	-0.055	-1.028	-0.126	-20.7983754	17.761698	-7.3338624	86.53957632	0.88235532	-68.61745008
3.88	388	-0.044	-1.025	-0.093	-22.345362	20.340009	-6.9327918	86.3161227	0.95683986	-68.42264436
3.89	389	-0.042	-1.053	-0.045	-25.4393352	22.7464326	-5.443101	86.0582916	1.01413566	-68.20492032
3.9	390	-0.029	-1.075	0.009	-34.2055926	26.2987722	-4.010706	85.72024638	1.0599723	-67.94708922
3.91	391	0.009	-1.065	-0.009	-44.8053156	27.5592798	-4.3544808	85.26187998	1.11153852	-67.68352854
3.92	392	0.052	-1.07	-0.098	-50.6494872	24.0069402	-4.2398892	84.75194736	1.16310474	-67.45434534
3.93	393	0.075	-1.093	-0.131	-56.149884	19.5378678	-3.724227	84.18471894	1.20894138	-67.27099878
3.94	394	0.064	-1.08	-0.067	-57.868758	16.3865988	-2.8074942	83.5945722	1.24904844	-67.1220297
3.95	395	0.049	-1.027	0.055	-57.8114622	17.2460358	-1.6615782	83.02734378	1.27769634	-66.95587188
3.96	396	0.02	-0.956	0.089	-59.9314068	22.1161788	-2.4064236	82.4200083	1.3178034	-66.74387742
3.97	397	-0.031	-0.938	0.086	-60.733548	25.3820394	-4.5263682	81.80694324	1.38082878	-66.50896464
3.98	398	-0.077	-0.981	0.112	-59.014674	26.7571386	-6.4744254	81.21106692	1.47250206	-66.2625927
3.99	399	-0.111	-1.005	0.134	-57.2958	27.788463	-7.161975	80.63237934	1.56990492	-66.0047616
4	400	-0.139	-1.024	0.163	-55.9779966	29.6792244	-7.6203414	80.09379882	1.66730778	-65.72401218
4.01	401	-0.16	-1.019	0.168	-55.3477428	33.1742682	-7.5057498	79.53802956	1.78762896	-65.42034444
4.02	402	-0.165	-1.017	0.16	-53.571573	37.4141574	-7.3338624	78.99944904	1.91367972	-65.07084006
4.03	403	-0.143	-1.006	0.153	-52.0245864	41.539455	-7.7922288	78.47805726	2.05118964	-64.6869582
4.04	404	-0.072	-1.025	0.146	-52.0818822	46.0085274	-8.4224826	77.96239506	2.2058883	-64.26296928
4.05	405	-0.002	-1.047	0.134	-52.4829528	49.847346	-8.5370742	77.4639216	2.3777757	-63.79314372
4.06	406	0.04	-1.07	0.118	-52.3683612	52.6548402	-9.6829902	76.9482594	2.56685184	-63.311859
4.07	407	0.07	-1.088	0.047	-54.0872352	54.0299394	-10.599723	76.40967888	2.77311672	-62.81338554
4.08	408	0.143	-1.134	-0.107	-58.9000824	52.8840234	-10.9434978	75.8309913	2.98511118	-62.33210082
4.09	409	0.247	-1.233	-0.29	-64.8588456	49.5035712	-8.59437	75.18927834	3.16845774	-61.88519358
4.1	410	0.379	-1.345	-0.427	-71.8489332	42.4561878	-3.9534102	74.47308084	3.30596766	-61.48985256
4.11	411	0.459	-1.385	-0.418	-75.2293854	30.7105488	-0.1718874	73.72250586	3.37472262	-61.20337356
4.12	412	0.437	-1.286	-0.333	-75.1147938	15.0687954	-0.0572958	72.9662013	3.40337052	-61.06586364
4.13	413	0.399	-1.138	-0.271	-74.8283148	-2.1772404	-4.7555514	72.20416716	3.437748	-61.1059707
4.14	414	0.3	-0.945	-0.286	-74.1407652	-18.1627686	-9.453807	71.44213302	3.4663959	-61.31796516
4.15	415	0.19	-0.83	-0.277	-70.4165382	-30.1948866	-8.7089616	70.71447636	3.46066632	-61.63309206
4.16	416	0.082	-0.831	-0.247	-64.3431834	-35.6379876	-8.6516658	70.03838592	3.42628884	-62.00551476
4.17	417	-0.055	-0.819	-0.27	-58.7854908	-36.7266078	-8.880849	69.42532086	3.38618178	-62.38366704
4.18	418	-0.191	-0.782	-0.292	-50.9359662	-32.8304934	-8.1360036	68.89246992	3.34607472	-62.72744184
4.19	419	-0.249	-0.797	-0.305	-37.7006364	-25.5539268	-9.6256944	68.4971289	3.34607472	-63.00246168
4.2	420	-0.255	-0.854	-0.329	-26.4706596	-17.3606274	-13.1207382	68.21637948	3.35753388	-63.21445614
4.21	421	-0.191	-0.89	-0.363	-20.8556712	-12.6623718	-16.6730778	67.99292586	3.4663959	-63.39207312
4.22	422	-0.049	-0.882	-0.381	-19.9962342	-13.3499214	-19.5378678	67.7809314	3.59817624	-63.59260842
4.23	423	0.094	-0.841	-0.368	-22.1161788	-18.2200644	-21.1421502	67.54028904	3.72995658	-63.84470994
4.24	424	0.175	-0.797	-0.363	-25.210152	-26.1268848	-21.2567418	67.2652692	3.82735944	-64.16556642
4.25	425	0.261	-0.783	-0.351	-27.2728008	-33.7472262	-20.8556712	66.96160146	3.91903272	-64.56090744
4.26	426	0.319	-0.788	-0.387	-29.8511118	-41.252976	-19.8816426	66.6350154	3.94195104	-65.02500342
4.27	427	0.31	-0.798	-0.446	-30.8251404	-49.6181628	-17.3606274	66.2912406	3.91330314	-65.55212478
4.28	428	0.267	-0.829	-0.48	-28.5906042	-56.3790672	-14.4958374	65.97038412	3.83308902	-66.13081236
4.29	429	0.216	-0.843	-0.492	-26.2414764	-61.0773228	-12.6623718	65.66671638	3.71276784	-66.73814784
4.3	430	0.141	-0.853	-0.482	-23.5485738	-64.5150708	-12.605076	65.39169654	3.5809875	-67.38559038
4.31	431	0.056	-0.884	-0.462	-21.4286292	-66.463128	-12.8342592	65.13959502	3.437748	-68.04449208
4.32	432	0.01	-0.915	-0.457	-19.8816426	-65.603691	-13.5791046	64.91041182	3.30023808	-68.6976642
4.33	433	-0.006	-0.948	-0.451	-18.5638392	-63.9994086	-15.469866	64.69268778	3.1799169	-69.34510674
4.34	434	-0.028	-0.95	-0.438	-17.8762896	-61.4210976	-16.6730778	64.48069332	3.08251404	-69.97536054
4.35	435	-0.063	-0.92	-0.425	-16.4438946	-57.5249832	-17.1314442	64.29161718	2.99084076	-70.57123686
4.36	436	-0.071	-0.875	-0.432	-13.9228794	-52.5975444	-16.5011904	64.12545936	2.92781538	-71.11554696
4.37	437	-0.032	-0.843	-0.459	-11.5164558	-47.7846972	-14.6677248	63.99367902	2.85906042	-71.61402042
4.38	438	0.024	-0.834	-0.489	-9.6829902	-44.8053156	-11.2299768	63.87335784	2.7788463	-72.06665724
4.39	439	0.077	-0.844	-0.498	-8.2505952	-42.4561878	-8.4797784	63.77595498	2.67571386	-72.48491658
4.4	440	0.1	-0.852	-0.5	-6.589017	-40.5654264	-7.3911582	63.67855212	2.58404058	-72.88598718
4.41	441	0.094	-0.854	-0.495	-4.4117766	-38.388186	-7.6776372	63.6269859	2.4923673	-73.26413946
4.42	442	0.092	-0.858	-0.496	-1.718874	-35.3515086	-8.0787078	63.598338	2.41788276	-73.61937342
4.43	443	0.086	-0.864	-0.504	0.8021412	-34.1482968	-8.8235532	63.59260842	2.35485738	-73.9688778
4.44	444	0.097	-0.866	-0.507	2.005353	-34.7785506	-9.5111028	63.60406758	2.29756158	-74.31838218
4.45	445	0.102	-0.859	-0.518	1.3178034	-35.236917	-9.740286	63.58687884	2.25172494	-74.6850753
4.46	446	0.102	-0.832	-0.523	-0.1145916	-35.3515086	-9.5683986	63.57541968	2.18869956	-75.04603884
4.47	447	0.111	-0.797	-0.517	-0.286479	-34.4920716	-9.9121734	63.56396052	2.13140376	-75.4012728
4.48	448	0.126	-0.775	-0.515	0.6302538	-31.9137606	-9.9121734	63.56396052	2.0912967	-75.72785886
4.49	449	0.133	-0.765	-0.525	1.4896908	-29.220858	-9.5111028	63.5696901	2.05118964	-76.0315266
4.5	450	0.146	-0.763	-0.529	2.291832	-27.501984	-8.880849	63.55250136	2.04546006	-76.32373518
4.51	451	0.152	-0.774	-0.532	2.5210152	-27.0436176	-8.307891	63.5696901	2.005353	-76.6044846
4.52	452	0.155	-0.787	-0.531	2.9793816	-27.1582092	-7.9068204	63.598338	1.96524594	-76.88523402
4.53	453	0.157	-0.797	-0.546	3.6096354	-27.6165756	-7.5057498	63.6269859	1.9194093	-77.16598344
4.54	454	0.157	-0.797	-0.556	4.8128472	-27.4446882	-6.875496	63.67282254	1.86784308	-77.44100328
4.55	455	0.159	-0.788	-0.572	6.9327918	-27.4446882	-6.1306506	63.69574086	1.8334656	-77.7217527
4.56	456	0.163	-0.783	-0.585	9.6256944	-28.8197874	-5.5003968	63.78741414	1.76471064	-78.0082317
4.57	457	0.17	-0.782	-0.599	13.0634424	-30.9970278	-5.0993262	63.9134649	1.68449652	-78.30616986
4.58	458	0.182	-0.783	-0.601	16.6730778	-32.3148312	-5.2712136	64.07962272	1.6042824	-78.62129676
4.59	459	0.179	-0.78	-0.587	20.1108258	-32.8877892	-5.6722842	64.28015802	1.52406828	-78.94215324
4.6	460	0.178	-0.776	-0.558	22.8037284	-32.658606	-5.5576926	64.48069332	1.46677248	-79.26300972
4.61	461	0.189	-0.757	-0.542	24.5226024	-31.9137606	-4.6982556	64.72706526	1.38655836	-79.56667746
4.62	462	0.209	-0.749	-0.536	25.7258142	-32.5440144	-3.724227	64.98489636	1.29488508	-79.87607478
4.63	463	0.241	-0.762	-0.539	26.5279554	-34.8931422	-3.5523396	65.24845704	1.19175264	-80.20839042
4.64	464	0.259	-0.79	-0.534	26.7571386	-38.2735944	-3.5523396	65.5177473	1.07716104	-80.56935396
4.65	465	0.266	-0.816	-0.521	27.501984	-41.1383844	-2.86479	65.78130798	0.97975818	-80.9589654
4.66	466	0.252	-0.825	-0.503	27.7311672	-44.2323576	-2.3491278	66.0620574	0.83651868	-81.37149516
4.67	467	0.234	-0.821	-0.497	27.7311672	-46.0658232	-2.8074942	66.34280682	0.69327918	-81.80121366
4.68	468	0.224	-0.826	-0.497	26.7571386	-44.977203	-3.8388186	66.61782666	0.56722842	-82.22520258
4.69	469	0.228	-0.832	-0.495	26.8144344	-42.97185	-3.5523396	66.8928465	0.44690724	-82.63200276
4.7	470	0.249	-0.829	-0.496	26.929026	-44.0031744	-3.2085648	67.1506776	0.34950438	-83.0502621
4.71	471	0.294	-0.83	-0.487	27.1009134	-46.409598	-4.6982556	67.42569744	0.2291832	-83.49716934
4.72	472	0.332	-0.828	-0.464	26.8717302	-50.7640788	-6.5317212	67.70644686	0.1145916	-83.98991322
4.73	473	0.356	-0.81	-0.439	27.501984	-56.6655462	-7.9068204	67.99292586	0	-84.5399529
4.74	474	0.389	-0.799	-0.406	27.8457588	-61.9940556	-8.9954406	68.28513444	-0.12605076	-85.14728838
4.75	475	0.388	-0.799	-0.365	26.8144344	-67.3798608	-8.9381448	68.56015428	-0.23491278	-85.80619008
4.76	476	0.341	-0.803	-0.325	25.3247436	-74.5991316	-7.9641162	68.83517412	-0.40680018	-86.52238758
4.77	477	0.26	-0.816	-0.35	20.5118964	-82.1621772	-7.734933	69.05862774	-0.6016059	-87.3187992
4.78	478	0.194	-0.824	-0.372	14.2093584	-85.7718126	-10.2559482	69.22478556	-0.78495246	-88.1495883
4.79	479	0.129	-0.848	-0.44	3.2658606	-87.1469118	-14.4385416	69.28208136	-0.93392154	-89.01475488
4.8	480	0.059	-0.85	-0.484	-6.3598338	-86.4593622	-17.5898106	69.23051514	-1.04851314	-89.88565104
4.81	481	0.005	-0.844	-0.486	-11.0580894	-81.073557	-20.5691922	69.14457144	-1.12299768	-90.71644014
4.82	482	-0.037	-0.845	-0.449	-12.6623718	-72.9948492	-22.8610242	69.041439	-1.15164558	-91.47847428
4.83	483	-0.047	-0.827	-0.421	-14.896908	-61.1346186	-24.9809688	68.90965866	-1.1172681	-92.14310556
4.84	484	-0.026	-0.811	-0.407	-15.5844576	-45.550161	-26.1268848	68.76641916	-1.0313244	-92.65876776
4.85	485	-0.009	-0.789	-0.399	-16.2147114	-30.4240698	-25.496631	68.59453176	-0.89381448	-93.03692004
4.86	486	0.018	-0.769	-0.419	-16.902261	-16.8449652	-23.777757	68.42837394	-0.73338624	-93.28329198
4.87	487	0.062	-0.75	-0.438	-17.3606274	-4.4690724	-22.2880662	68.25648654	-0.5443101	-93.40361316
4.88	488	0.107	-0.753	-0.426	-16.3865988	1.4896908	-21.4286292	68.09032872	-0.3437748	-93.47236812
4.89	489	0.139	-0.762	-0.395	-16.6730778	2.291832	-20.5118964	67.91844132	-0.14896908	-93.52966392
4.9	490	0.177	-0.745	-0.383	-17.8762896	1.9480572	-20.6837838	67.71790602	0.08021412	-93.58695972
4.91	491	0.236	-0.72	-0.362	-17.8762896	1.6042824	-22.1734746	67.53455946	0.286479	-93.65571468
4.92	492	0.284	-0.699	-0.34	-18.1627686	3.151269	-23.7204612	67.34548332	0.5156622	-93.71874006
4.93	493	0.292	-0.699	-0.325	-17.2460358	0.1718874	-22.9756158	67.16786634	0.72765666	-93.80468376
4.94	494	0.296	-0.706	-0.267	-14.2666542	-4.583664	-20.2827132	67.02462684	0.89381448	-93.93073452
4.95	495	0.311	-0.737	-0.219	-15.1260912	-6.8182002	-17.6471064	66.88138734	1.08289062	-94.05678528
4.96	496	0.313	-0.749	-0.247	-20.626488	-12.6623718	-15.9282324	66.66939288	1.18029348	-94.23440226
4.97	497	0.295	-0.725	-0.273	-27.501984	-22.4599536	-15.5844576	66.38864346	1.23758928	-94.50369252
4.98	498	0.249	-0.676	-0.253	-32.6013102	-29.3927454	-16.6730778	66.05059824	1.27769634	-94.84173774
4.99	499	0.233	-0.644	-0.228	-35.8671708	-31.1689152	-17.0168526	65.68390512	1.30634424	-95.20270128
5	500	0.221	-0.6	-0.238	-38.5027776	-32.6013102	-15.5844576	65.2885641	1.33499214	-95.56366482
5.01	501	0.236	-0.565	-0.32	-43.3729206	-36.7839036	-14.2093584	64.84165686	1.3178034	-95.95900584
5.02	502	0.247	-0.54	-0.334	-49.4462754	-47.269035	-12.8342592	64.33745382	1.23758928	-96.44602014
5.03	503	0.241	-0.487	-0.295	-55.290447	-58.2698286	-11.2299768	63.7702254	1.09434978	-97.02470772
5.04	504	0.221	-0.406	-0.22	-54.0872352	-67.322565	-9.0527364	63.22018572	0.8880849	-97.67215026
5.05	505	0.191	-0.34	-0.144	-49.5035712	-74.8856106	-6.589017	62.71598268	0.6302538	-98.37115902
5.06	506	0.188	-0.312	-0.06	-46.3523022	-78.8963166	-4.8128472	62.2518867	0.32658606	-99.09881568
5.07	507	0.224	-0.351	-0.044	-49.0452048	-81.4173318	-4.9274388	61.7648724	0.00572958	-99.84366108
5.08	508	0.215	-0.397	-0.086	-53.6861646	-83.365389	-6.6463128	61.23202146	-0.30939732	-100.6114248
5.09	509	0.184	-0.426	-0.099	-58.728195	-81.5319234	-8.4224826	60.65333388	-0.61306506	-101.3734589
5.1	510	0.159	-0.434	-0.086	-65.2599162	-86.7458412	-7.2192708	60.0173505	-0.95683986	-102.1698706
5.11	511	0.167	-0.445	-0.141	-69.3852138	-98.548776	-2.7501984	59.34698964	-1.40947668	-103.0407667
5.12	512	0.222	-0.445	-0.148	-68.2965936	-108.9193158	3.2658606	58.69381752	-1.97097552	-103.9689587
5.13	513	0.267	-0.426	-0.175	-66.0047616	-120.3784758	9.6256944	58.08075246	-2.65852512	-104.9487169
5.14	514	0.212	-0.371	-0.148	-60.16059	-134.2440594	16.042824	57.54217194	-3.47785506	-106.0144187
5.15	515	0.114	-0.286	-0.12	-52.9413192	-143.2395	21.7151082	57.10672386	-4.38885828	-107.1144981
5.16	516	0.028	-0.199	-0.041	-43.258329	-145.6459236	24.1215318	56.7801378	-5.35142772	-108.220307
5.17	517	-0.021	-0.173	-0.03	-34.4347758	-143.7551622	21.3140376	56.56241376	-6.27961968	-109.3203864
5.18	518	-0.057	-0.199	-0.05	-24.4653066	-136.077525	18.3919518	56.45355174	-7.14478626	-110.3688995
5.19	519	-0.073	-0.274	-0.078	-16.2147114	-126.05076	20.5118964	56.43063342	-7.97557536	-111.3257394
5.2	520	-0.137	-0.343	-0.134	-9.453807	-119.0606724	25.0382646	56.48219964	-8.81782362	-112.1966356
5.21	521	-0.168	-0.365	-0.079	-2.0626488	-115.6802202	32.8304934	56.6082504	-9.69444936	-112.9987768
5.22	522	-0.173	-0.327	-0.042	3.151269	-116.1385866	40.7373138	56.79159696	-10.63410048	-113.7665405
5.23	523	-0.125	-0.246	-0.031	12.3758928	-117.2845026	46.6387812	57.07807596	-11.62531782	-114.5171155
5.24	524	-0.047	-0.198	-0.029	25.0955604	-117.8001648	51.3370368	57.50779446	-12.65664222	-115.2562313
5.25	525	0.019	-0.164	0.009	37.9871154	-124.1027028	57.1812084	58.0979412	-13.750992	-116.0297246
5.26	526	0.118	-0.163	0.043	53.1705024	-133.212735	65.7182826	58.85997534	-14.95993338	-116.8547841
5.27	527	0.131	-0.133	0.078	67.3798608	-143.4113874	74.9429064	59.80535604	-16.27773678	-117.742869
5.28	528	0.087	-0.118	0.166	85.084263	-150.5160666	84.1675302	60.9627312	-17.69867262	-118.6825201
5.29	529	-0.002	-0.081	0.25	100.6114248	-156.9331962	92.9910834	62.32064166	-19.194093	-119.6737375
5.3	530	-0.094	-0.039	0.321	115.2218538	-163.579509	100.6687206	63.89627616	-20.77545708	-120.7508985
5.31	531	-0.167	-0.011	0.431	131.6084526	-173.1479076	108.4609494	65.6896347	-22.41984654	-121.9369216
5.32	532	-0.247	-0.008	0.447	145.4167404	-184.4351802	113.9613462	67.72936518	-24.11580222	-123.2833729
5.33	533	-0.585	-0.253	0.155	156.5321256	-197.4986226	116.883432	70.00400844	-25.83467622	-124.8418186
5.34	534	-1.316	-0.843	-0.041	182.2579398	-206.8951338	127.6550424	72.65680398	-27.6165756	-126.5606926
5.35	535	-2.094	-1.582	0.379	200.248821	-207.9264582	136.9942578	75.59034894	-29.41566372	-128.3884286
5.36	536	-2.536	-1.985	-0.038	199.9050462	-190.6231266	163.6368048	78.51243474	-31.35226176	-130.0958435
5.37	537	-3.1	-2.626	-0.099	202.1968782	-176.0126976	197.097552	81.45743886	-33.51231342	-131.711585
5.38	538	-3.429	-3.337	-0.078	193.2587334	-157.9072248	225.9173394	84.31649928	-35.87290038	-133.2471125
5.39	539	-3.75	-3.673	-0.004	174.0073446	-145.9896984	244.5957702	87.05523852	-38.34807894	-134.8112878
5.4	540	-3.89	-3.791	0.135	154.8705474	-129.8895786	266.8265406	89.6392791	-40.98368574	-136.3697336
5.41	541	-3.212	-3.699	0.338	141.2914428	-98.0331138	303.8969232	92.01132522	-43.95160818	-137.7333736
5.42	542	-1.998	-2.819	0.402	123.9881112	-51.6235158	338.2744032	93.97657116	-47.25184626	-138.7074022
5.43	543	-0.979	-1.823	0.438	114.1905294	-23.777757	343.4310252	95.7412818	-50.61510972	-139.4980843
5.44	544	-0.285	-1.137	0.437	106.283709	-3.4950438	327.731976	97.33983462	-53.83513368	-140.1512564
5.45	545	-0.354	-0.559	0.387	117.3417984	12.891555	314.7258294	99.00141282	-56.94056604	-140.7127552
5.46	546	-0.745	0.067	0.443	116.1958824	14.7823164	311.402673	100.8119601	-60.00589134	-141.4404119
5.47	547	-0.779	0.445	0.354	117.5709816	15.5844576	302.235345	102.845961	-62.97381378	-142.4029813
5.48	548	-0.539	0.257	0.277	139.5725688	31.1116194	291.349143	105.0804972	-65.85006294	-143.3025254
5.49	549	-0.23	-0.191	0.425	165.1837914	21.6005166	269.4048516	108.0541492	-68.47421058	-144.7062725
5.5	550	-0.698	0.071	0.44	163.7513964	-18.1054728	268.5454146	112.655002	-70.9035525	-147.8288936
5.51	551	-0.96	0.031	0.715	174.4084152	-56.8947294	271.3529088	119.5648754	-73.052145	-153.2204284
5.52	552	-1.556	0.517	0.541	153.4381524	-61.7648724	277.6554468	128.1936229	-74.98874304	-160.5600203
5.53	553	-1.48	0.208	0.901	169.6528638	-71.6770458	263.6179758	138.8964784	-76.38676056	-169.8075625
5.54	554	-1.312	-0.369	0.832	162.9492552	-66.0047616	250.5545334	150.7395202	-77.28057504	179.7369246
5.55	555	-1.459	-0.064	0.92	112.872726	-60.9054354	256.398705	163.4534582	-77.70456396	167.9053419
5.56	556	-1.391	0.635	0.867	103.9345812	-60.5043648	275.9365728	177.2159094	-77.5785132	154.9106545
5.57	557	-1.321	0.471	0.84	107.2004418	-64.1140002	262.0709892	-170.5065712	-76.79356074	143.4629536
5.58	558	-1.407	0.175	0.574	70.9322004	-56.436363	224.8287192	-161.5455081	-75.7163997	134.9889048
5.59	559	-1.538	0.381	0.435	42.2270046	-54.6601932	197.8423974	-155.053894	-74.49599916	128.7264739
5.6	560	-1.79	0.245	0.493	45.7793442	-67.036086	160.8866064	-150.7738977	-73.18392534	124.7673341
5.61	561	-1.584	0.573	0.503	29.793816	-73.2240324	125.3059146	-148.2758008	-71.94060648	122.4812317
5.62	562	-1.45	0.608	0.488	47.555514	-83.07891	92.3035338	-146.854865	-70.77750174	121.5014735
5.63	563	-1.312	0.669	0.559	42.97185	-89.7825186	69.4998054	-146.2246112	-69.6716928	121.3066678
5.64	564	-1.123	0.429	0.646	36.1536498	-91.100322	49.274388	-146.1501266	-68.6690163	121.6389834
5.65	565	-1.04	0.493	0.443	19.8243468	-92.9910834	37.2995658	-146.4652535	-67.70644686	122.2119414
5.66	566	-0.851	0.637	0.373	13.6364004	-93.3348582	21.4286292	-147.1470736	-66.8355507	123.1114855
5.67	567	-0.711	0.633	0.325	9.5683986	-97.1736768	8.6516658	-148.0981838	-65.99330244	124.2745902
5.68	568	-0.604	0.66	0.269	7.3338624	-104.851314	-0.0572958	-149.2498294	-65.12240628	125.6382302
5.69	569	-0.602	0.512	0.201	24.064236	-86.6885454	-12.7769634	-150.1894805	-64.46350458	126.9560336
5.7	570	-0.639	0.63	0.357	29.3354496	-86.6312496	-18.048177	-151.0718359	-63.7988733	128.2852962
5.71	571	-0.597	0.425	0.38	12.4331886	-96.829902	-20.1681216	-152.2406702	-63.06548706	129.7463391
5.72	572	-0.661	0.469	0.356	8.6516658	-93.965112	-20.8556712	-153.3636679	-62.34928956	131.1271679
5.73	573	-0.633	0.394	0.343	5.9587632	-91.959759	-25.9549974	-154.521043	-61.65601038	132.5194558
5.74	574	-0.502	0.34	0.336	-0.6875496	-88.9230816	-32.1429438	-155.7586323	-61.00283826	133.9403917
5.75	575	-0.6	0.475	0.274	1.3178034	-81.1308528	-34.7785506	-156.8415229	-60.41269152	135.218088
5.76	576	-0.576	0.396	0.354	3.6096354	-66.9214944	-37.2995658	-157.8671177	-59.94859554	136.4556773
5.77	577	-0.657	0.463	0.282	-5.3858052	-53.5142772	-37.9871154	-158.8755238	-59.60482074	137.5672158
5.78	578	-0.687	0.417	0.285	1.2032118	-41.9405256	-42.112413	-159.786527	-59.36990796	138.6443768
5.79	579	-0.69	0.366	0.26	-1.6042824	-34.4347758	-48.1857678	-160.7662852	-59.2152093	139.7673745
5.8	580	-0.699	0.316	0.219	-1.7761698	-35.523396	-51.0505578	-161.7345842	-59.06051064	140.8903722
5.81	581	-0.631	0.245	0.241	6.9327918	-37.528749	-50.8213746	-162.6627762	-58.86570492	142.0592065
5.82	582	-0.716	0.257	0.29	6.875496	-41.4248634	-47.9565846	-163.5508611	-58.61933298	143.1879338
5.83	583	-0.851	0.151	0.472	9.167328	-45.83664	-48.8160216	-164.438946	-58.32139482	144.3453089
5.84	584	-0.943	0.113	0.622	-2.3491278	-45.6074568	-51.852699	-165.4645408	-58.02345666	145.531332
5.85	585	-0.98	0.192	0.681	-12.6623718	-42.398892	-52.4829528	-166.5703498	-57.74270724	146.6887072
5.86	586	-0.989	0.165	0.734	-4.4117766	-36.7839036	-54.5456016	-167.590215	-57.50779446	147.8460823
5.87	587	-0.999	0.096	0.731	-11.4018642	-27.7311672	-54.6601932	-168.6329986	-57.3530958	148.9518913
5.88	588	-1.016	0.1	0.741	-28.3041252	-23.5485738	-55.863405	-169.8419399	-57.22704504	150.046241
5.89	589	-0.981	0.177	0.747	-33.6326346	-17.475219	-53.9153478	-171.0508813	-57.14683092	151.083295
5.9	590	-0.955	0.097	0.719	-22.5745452	-0.0572958	-52.7694318	-172.0936649	-57.2098563	152.0458645
5.91	591	-0.969	0.094	0.684	-19.767051	12.7196676	-52.3110654	-173.0676935	-57.40466202	152.9625973
5.92	592	-0.974	0.091	0.705	-10.7716104	21.199446	-51.0505578	-173.9214009	-57.6682227	153.8449526
5.93	593	-0.96	0.06	0.66	-6.016059	29.9084076	-49.5035712	-174.7063534	-58.0119975	154.6929304
5.94	594	-0.95	0.029	0.599	-7.9068204	34.2055926	-46.2377106	-175.4683875	-58.3844202	155.4836125
5.95	595	-0.957	0.041	0.72	1.2032118	42.7999626	-42.4561878	-176.075723	-58.83132744	156.2055395
5.96	596	-1.002	0.167	0.699	9.453807	49.9046418	-37.0130868	-176.5226302	-59.34698964	156.8357933
5.97	597	-0.991	0.02	0.705	10.026765	54.7747848	-41.825934	-177.0612107	-59.91421806	157.56345
5.98	598	-1.045	0.255	0.708	3.4950438	39.0184398	-36.955791	-177.6227096	-60.31528866	158.24527
5.99	599	-1.008	0.244	0.705	14.0947668	44.2323576	-39.6486936	-178.1326422	-60.76792548	158.9901154
6	600	-0.946	0.249	0.677	17.475219	55.003968	-40.7946096	-178.6139269	-61.31796516	159.7406904
6.01	601	-0.962	0.153	0.66	19.8243468	67.2079734	-39.820581	-179.0952116	-61.9940556	160.5084541
6.02	602	-0.941	0.128	0.66	19.1367972	75.9742308	-35.8671708	-179.5421189	-62.75036016	161.2131925
6.03	603	-0.93	0.026	0.66	18.2200644	82.9643184	-32.085648	-179.9489191	-63.57541968	161.8663646
6.04	604	-0.925	-0.041	0.629	8.7089616	88.3501236	-30.366774	179.5478485	-64.45204542	162.5080775
6.05	605	-0.982	0.025	0.589	8.021412	90.6419556	-23.8350528	179.1410483	-65.34013032	163.0351989
6.06	606	-0.983	0.039	0.532	2.1199446	93.7359288	-17.761698	178.7800847	-66.2625927	163.4419991
6.07	607	-0.973	0.051	0.45	17.4179232	94.7099574	-12.2613012	178.6654931	-67.19651424	163.7399372
6.08	608	-0.957	-0.082	0.524	21.7151082	95.7412818	-8.59437	178.6712227	-68.14762452	163.9633909
6.09	609	-0.893	-0.081	0.494	22.631841	99.981171	-6.4171296	178.7342481	-69.13884186	164.1295487
6.1	610	-0.8	-0.196	0.502	29.507337	102.559482	-6.589017	178.8030031	-70.13578878	164.3530023
6.11	611	-0.794	-0.165	0.503	27.1582092	100.3822416	-4.4690724	178.9577017	-71.1327357	164.4675939
6.12	612	-0.807	-0.143	0.53	26.2987722	96.1423524	-2.6929026	179.158237	-72.08384598	164.5306193
6.13	613	-0.893	-0.147	0.489	27.7311672	93.9078162	-0.0572958	179.4619048	-73.01203794	164.4905122
6.14	614	-0.932	-0.042	0.465	22.2880662	97.7466348	1.7761698	179.79995	-73.98606654	164.3587319
6.15	615	-1.001	-0.012	0.427	25.0382646	100.554129	4.1825934	-179.7140063	-74.9715543	164.1123599
6.16	616	-1.049	0.047	0.411	24.1788276	103.13244	5.7868758	-179.11813	-75.99141954	163.7342077
6.17	617	-1.071	0.006	0.385	26.929026	106.1691174	6.7609044	-178.3732846	-77.03993268	163.2357342
6.18	618	-1.083	0.116	0.381	20.5691922	110.7527814	7.448454	-177.5310363	-78.13428246	162.5711029
6.19	619	-1.111	0.054	0.351	24.8090814	116.7115446	6.6463128	-176.5111711	-79.28592804	161.7746913
6.2	620	-1.09	0.065	0.345	21.7151082	120.9514338	4.8128472	-175.3881734	-80.46049194	160.8407698
6.21	621	-1.063	0.063	0.304	21.1421502	129.7176912	2.8074942	-174.0417221	-81.73818828	159.677665
6.22	622	-0.976	0.034	0.252	20.3973048	135.1034964	1.2605076	-172.2999298	-83.05599168	158.1134897
6.23	623	-0.958	0.004	0.22	21.8296998	135.3326796	2.0626488	-169.6872413	-84.37379508	155.6898773
6.24	624	-0.983	-0.004	0.204	24.6944898	123.18597	3.2085648	-165.8083156	-85.55408856	152.0286757
6.25	625	-0.94	-0.039	0.135	20.4546006	106.3410048	4.1252976	-160.2850005	-86.53957632	146.6887072
6.26	626	-0.904	-0.008	0.033	8.7089616	90.7565472	5.2139178	-152.120349	-87.33025836	138.5928106
6.27	627	-0.842	0.036	-0.101	0.8021412	76.5471888	5.156622	-140.5007608	-87.92613468	126.9617632
6.28	628	-0.803	0.064	-0.268	-3.4950438	57.3530958	4.9847346	-126.7898758	-88.26990948	113.1935825
6.29	629	-0.796	0.045	-0.368	-8.021412	39.4195104	2.2345362	-114.5801408	-88.44179688	100.8979038
6.3	630	-0.733	0.035	-0.369	-12.5477802	17.3033316	-1.6615782	-104.9888239	-88.53347016	91.16334738
6.31	631	-0.693	0.032	-0.321	-13.6936962	2.2345362	-3.6096354	-104.6908858	-88.57357722	90.72216972
6.32	632	-0.715	0.022	-0.279	-11.45916	-3.3231564	-4.3544808	-106.6446725	-88.6079547	92.5613649
6.33	633	-0.703	0.048	-0.218	-8.5370742	-1.8907614	-4.2398892	-108.0369605	-88.64233218	93.86770914
6.34	634	-0.778	0.059	-0.163	-2.9793816	3.4950438	-4.4690724	-107.2233601	-88.6938984	93.0197313
6.35	635	-0.778	0.066	-0.133	0.286479	11.4018642	-4.6409598	-100.4739149	-88.75692378	86.27028606
6.36	636	-0.769	0.043	-0.128	3.2085648	14.3812458	-4.5263682	-93.98230074	-88.81421958	79.80159024
6.37	637	-0.773	0.027	-0.119	3.4950438	14.3812458	-4.9847346	-86.89481028	-88.8657858	72.74847726
6.38	638	-0.809	0.042	-0.111	0.7448454	10.8289062	-5.3285094	-81.12512322	-88.90016328	66.98451978
6.39	639	-0.829	0.046	-0.103	-0.1145916	6.7609044	-6.0733548	-77.01128478	-88.94599992	62.87068134
6.4	640	-0.84	0.045	-0.092	-0.572958	2.291832	-6.6463128	-72.2786517	-88.97464782	58.1265891
6.41	641	-0.849	0.028	-0.062	-0.5156622	-3.151269	-6.9900876	-72.78858432	-89.04913236	58.62506256
6.42	642	-0.866	0.009	-0.04	-0.7448454	-9.8548776	-6.6463128	-77.68164564	-89.14080564	63.5123943
6.43	643	-0.886	0.001	-0.018	-1.145916	-16.4438946	-5.443101	-88.52774058	-89.21529018	74.34703008
6.44	644	-0.913	0.002	0.002	-2.2345362	-21.772404	-4.583664	-105.0518493	-89.24393808	90.85967964
6.45	645	-0.947	0.021	0.024	-3.6096354	-25.7258142	-4.010706	-123.5984998	-89.17518312	109.3719526
6.46	646	-0.983	0.041	0.038	-4.6409598	-29.3354496	-3.8961144	-139.4637068	-89.01475488	125.1970526
6.47	647	-1.013	0.04	0.052	-4.7555514	-30.7678446	-4.010706	-150.7337906	-88.79130126	136.4270294
6.48	648	-1.037	0.05	0.057	-5.5003968	-31.51269	-3.6096354	-158.2739179	-88.52774058	143.9155904
6.49	649	-1.044	0.046	0.07	-5.3858052	-31.5699858	-3.7815228	-163.510754	-88.24699116	149.1008603
6.5	650	-1.049	0.049	0.089	-5.6722842	-31.8564648	-3.9534102	-167.1719557	-87.93759384	152.7104957
6.51	651	-1.062	0.052	0.112	-6.016059	-31.51269	-4.4117766	-170.1456077	-87.64538526	155.626852
6.52	652	-1.069	0.05	0.123	-6.3598338	-30.1375908	-4.7555514	-172.4832763	-87.35317668	157.9129544
6.53	653	-1.063	0.045	0.128	-6.2452422	-28.934379	-4.6982556	-174.3396602	-87.07815684	159.7063129
6.54	654	-1.058	0.038	0.136	-5.443101	-28.4187168	-4.1825934	-175.7663257	-86.803137	161.0814121
6.55	655	-1.063	0.033	0.142	-5.0993262	-27.6738714	-3.4950438	-176.7460838	-86.51092842	162.0153337
6.56	656	-1.052	0.029	0.144	-4.6982556	-26.9863218	-3.0366774	-177.5883321	-86.24736774	162.8174749
6.57	657	-1.04	0.034	0.146	-4.0680018	-26.4133638	-2.4064236	-178.2243155	-85.98380706	163.4133512
6.58	658	-1.027	0.035	0.146	-3.0366774	-26.2414764	-1.8334656	-178.6998706	-85.72597596	163.865988
6.59	659	-1.017	0.032	0.15	-2.4064236	-25.496631	-1.6042824	-179.0837525	-85.47387444	164.2326811
6.6	660	-1.017	0.032	0.149	-1.718874	-24.350715	-1.718874	-179.2900174	-85.21031376	164.4274868
6.61	661	-0.995	0.032	0.148	-0.572958	-23.3193906	-1.8907614	-179.6166034	-84.98113056	164.7540729
6.62	662	-0.984	0.031	0.153	1.0313244	-21.8296998	-1.8334656	-179.8858937	-84.76340652	165.0348223
6.63	663	-0.985	0.03	0.158	2.0626488	-20.05353	-1.5469866	179.9030824	-84.56287122	165.2640055
6.64	664	-0.993	0.033	0.164	3.3804522	-18.2773602	-1.2605076	179.7598429	-84.38525424	165.4473521
6.65	665	-1.002	0.034	0.174	4.6982556	-16.329303	-1.145916	179.7942204	-84.19044852	165.4645408
6.66	666	-1.007	0.033	0.185	5.72958	-14.2093584	-1.0886202	179.7140063	-84.0529386	165.6077803
6.67	667	-1.013	0.032	0.192	6.2452422	-11.6310474	-1.2605076	179.6280626	-83.938347	165.7567494
6.68	668	-1.019	0.033	0.197	6.4744254	-9.2246238	-1.4896908	179.5306597	-83.84667372	165.9229072
6.69	669	-1.027	0.03	0.204	6.7609044	-6.9900876	-1.718874	179.4217977	-83.77791876	166.1005242
6.7	670	-1.035	0.028	0.208	6.302538	-4.297185	-1.718874	179.5192006	-83.66905674	166.0833355
6.71	671	-1.037	0.025	0.204	5.7868758	-2.291832	-1.4896908	179.4332569	-83.64613842	166.226575
6.72	672	-1.034	0.024	0.201	5.6722842	-0.5156622	-1.0886202	179.3874202	-83.64040884	166.3297074
6.73	673	-1.031	0.022	0.199	5.3285094	1.145916	-0.7448454	179.3702315	-83.651868	166.4041919
6.74	674	-1.029	0.024	0.186	5.156622	2.86479	-0.286479	179.3931498	-83.6805159	166.4328398
6.75	675	-1.028	0.026	0.177	5.443101	3.8388186	0.1145916	179.6796288	-83.66905674	166.2093862
6.76	676	-1.024	0.026	0.169	5.3285094	4.4690724	0.286479	179.7655725	-83.71489338	166.1692792
6.77	677	-1.019	0.029	0.153	4.9847346	4.9274388	0.5156622	179.8744345	-83.7664596	166.1119834
6.78	678	-1.009	0.032	0.145	4.583664	5.0993262	0.5156622	179.9832965	-83.81802582	166.0546876
6.79	679	-1.001	0.028	0.141	4.1825934	4.6982556	0.3437748	-179.9260007	-83.86386246	166.0088509
6.8	680	-0.996	0.027	0.139	3.5523396	4.1252976	0.3437748	-179.513471	-83.86959204	165.6306986
6.81	681	-0.997	0.025	0.138	3.151269	3.3804522	0.4583664	-179.4275273	-83.90396952	165.5791324
6.82	682	-0.993	0.025	0.138	2.3491278	3.0939732	0.6875496	-179.3301244	-83.938347	165.5046479
6.83	683	-0.992	0.025	0.135	1.3178034	3.437748	0.7448454	-179.2327216	-83.97272448	165.4187042
6.84	684	-0.993	0.029	0.134	0.4583664	3.4950438	0.7448454	-179.1410483	-84.00710196	165.3327605
6.85	685	-0.991	0.029	0.137	-0.1145916	3.2085648	0.9167328	-178.4649578	-83.97272448	164.65667
6.86	686	-0.99	0.032	0.139	-0.9167328	3.2658606	0.9740286	-178.3560958	-84.00710196	164.5420784
6.87	687	-0.987	0.034	0.136	-1.6042824	3.9534102	0.8021412	-178.2758817	-84.04720902	164.4446756
6.88	688	-0.988	0.036	0.132	-2.1199446	4.2398892	0.572958	-178.2185859	-84.08731608	164.3587319
6.89	689	-0.988	0.037	0.132	-2.4064236	4.297185	0.2291832	-178.189938	-84.12742314	164.3071657
6.9	690	-0.988	0.036	0.133	-2.578311	4.0680018	0.0572958	-177.725842	-84.12742314	163.8258809
6.91	691	-0.988	0.036	0.136	-2.578311	3.9534102	-0.0572958	-177.7315716	-84.1675302	163.8029626
6.92	692	-0.988	0.037	0.134	-2.5210152	4.010706	-0.2291832	-177.7544899	-84.20763726	163.797233
6.93	693	-0.989	0.04	0.132	-2.4064236	3.724227	-0.572958	-177.8175153	-84.24201474	163.8316105
6.94	694	-0.989	0.039	0.13	-2.0626488	3.2658606	-0.9167328	-177.9091886	-84.27639222	163.9060951
6.95	695	-0.99	0.039	0.129	-1.7761698	2.7501984	-1.145916	-177.3534193	-84.2534739	163.3331371
6.96	696	-0.991	0.037	0.131	-1.3178034	2.2345362	-1.3178034	-177.4851997	-84.27639222	163.4534582
6.97	697	-0.99	0.037	0.131	-1.0313244	1.8334656	-1.4896908	-177.6341687	-84.29358096	163.5909682
6.98	698	-0.989	0.035	0.126	-0.7448454	1.5469866	-1.6042824	-177.794597	-84.3107697	163.7456668
6.99	699	-0.988	0.034	0.125	-0.4010706	0.9740286	-1.7761698	-177.972214	-84.32222886	163.9175542
7	700	-0.988	0.032	0.125	-0.286479	0.7448454	-1.8907614	-177.1070474	-84.2534739	163.0581172
7.01	701	-0.985	0.032	0.124	0.0572958	0.4010706	-1.8334656	-177.2846644	-84.25920348	163.2357342
7.02	702	-0.984	0.031	0.123	0.4010706	-0.0572958	-1.718874	-177.4565518	-84.25920348	163.4133512
7.03	703	-0.985	0.029	0.121	0.572958	-0.3437748	-1.718874	-177.6227096	-84.25920348	163.5852386
7.04	704	-0.988	0.028	0.123	0.9167328	-0.7448454	-1.6042824	-177.7774082	-84.2534739	163.7513964
7.05	705	-0.987	0.025	0.125	1.0886202	-0.9740286	-1.4896908	-177.3591489	-84.19044852	163.3445962
7.06	706	-0.986	0.024	0.124	0.9167328	-1.3750992	-1.2032118	-177.4794701	-84.17325978	163.4763766
7.07	707	-0.985	0.023	0.127	0.9740286	-1.8334656	-1.0313244	-177.5826025	-84.15607104	163.5909682
7.08	708	-0.986	0.021	0.129	0.8021412	-2.005353	-0.7448454	-177.6628166	-84.1388823	163.6826414
7.09	709	-0.986	0.022	0.129	0.572958	-1.9480572	-0.4583664	-177.7143829	-84.12169356	163.7399372
7.1	710	-0.987	0.024	0.13	0.5156622	-2.291832	-0.1145916	-177.1815319	-84.03002028	163.2185455
7.11	711	-0.986	0.024	0.132	0.572958	-2.6929026	0	-177.1872615	-84.00710196	163.2357342
7.12	712	-0.987	0.025	0.132	0.4583664	-2.9220858	0.1718874	-177.1872615	-83.97272448	163.2357342
7.13	713	-0.987	0.025	0.133	0.3437748	-3.2085648	0.286479	-177.1758023	-83.94407658	163.2300046
7.14	714	-0.988	0.026	0.133	0.3437748	-3.5523396	0.4583664	-177.152884	-83.9096991	163.2128159
7.15	715	-0.989	0.027	0.135	0.1718874	-3.8388186	0.5156622	-176.7403543	-83.81802582	162.8060157
7.16	716	-0.988	0.025	0.138	-0.1145916	-4.0680018	0.6302538	-176.7117064	-83.77791876	162.7773678
7.17	717	-0.988	0.027	0.14	-0.1145916	-4.1252976	0.8021412	-176.6715993	-83.7378117	162.7372607
7.18	718	-0.989	0.026	0.142	-0.1145916	-4.0680018	1.0313244	-176.6143035	-83.69197506	162.6742354
7.19	719	-0.989	0.028	0.142	-0.2291832	-3.8961144	1.145916	-176.539819	-83.65759758	162.5940212
7.2	720	-0.991	0.029	0.144	-0.1718874	-3.724227	1.3750992	-176.0986413	-83.5659243	162.1585732
7.21	721	-0.995	0.032	0.147	-0.2291832	-3.4950438	1.3750992	-176.0012384	-83.53154682	162.0611703
7.22	722	-0.997	0.033	0.15	-0.2291832	-3.3804522	1.3178034	-175.9210243	-83.49716934	161.9752266
7.23	723	-0.998	0.034	0.151	-0.3437748	-3.437748	1.145916	-175.8522694	-83.46279186	161.9064716
7.24	724	-0.997	0.035	0.151	-0.5156622	-3.3231564	0.9167328	-175.8064327	-83.42841438	161.8549054
7.25	725	-0.997	0.035	0.151	-0.6302538	-3.2658606	0.6302538	-175.3824438	-83.33101152	161.4251869
7.26	726	-0.998	0.035	0.152	-0.6875496	-3.3804522	0.4010706	-175.3824438	-83.29663404	161.4194573
7.27	727	-0.998	0.036	0.155	-0.7448454	-3.437748	0.1145916	-175.4053621	-83.26225656	161.4366461
7.28	728	-1	0.035	0.157	-0.7448454	-3.2085648	0	-175.4397396	-83.22787908	161.4595644
7.29	729	-0.996	0.036	0.158	-0.6875496	-2.8074942	-0.0572958	-175.4741171	-83.20496076	161.4939419
7.3	730	-0.997	0.035	0.161	-0.572958	-2.4637194	-0.286479	-175.0558577	-83.07891	161.0756825
7.31	731	-0.997	0.035	0.158	-0.5156622	-1.8334656	-0.4583664	-175.1188831	-83.06172126	161.1329783
7.32	732	-0.997	0.034	0.156	-0.3437748	-1.6615782	-0.572958	-175.1876381	-83.04453252	161.2017333
7.33	733	-0.998	0.033	0.159	-0.286479	-1.6042824	-0.7448454	-175.2678522	-83.03307336	161.2762178
7.34	734	-0.998	0.033	0.16	-0.1718874	-1.5469866	-0.859437	-175.3537959	-83.01588462	161.3621615
7.35	735	-0.999	0.032	0.16	-0.1145916	-1.6042824	-0.859437	-174.9584549	-82.90129302	160.9782797
7.36	736	-0.997	0.031	0.16	0	-1.718874	-0.9167328	-175.0501282	-82.88410428	161.069953
7.37	737	-0.999	0.031	0.157	0.0572958	-1.718874	-0.859437	-175.1360719	-82.86691554	161.1558967
7.38	738	-0.997	0.03	0.156	0.0572958	-1.432395	-0.6875496	-175.2048268	-82.85545638	161.2246516
7.39	739	-0.997	0.031	0.154	0	-0.9167328	-0.572958	-175.2621226	-82.84399722	161.2819474
7.4	740	-0.994	0.032	0.154	0	-0.5156622	-0.7448454	-174.4313335	-82.67210982	160.4683471
7.41	741	-0.99	0.031	0.154	-0.0572958	-0.6302538	-0.859437	-174.5058181	-82.66638024	160.5428316
7.42	742	-0.989	0.028	0.154	-0.2291832	-0.9740286	-0.859437	-174.5860322	-82.65492108	160.6173161
7.43	743	-0.987	0.026	0.151	-0.4010706	-0.9167328	-0.6875496	-174.6547871	-82.64346192	160.6803415
7.44	744	-0.986	0.027	0.15	-0.4583664	-0.6875496	-0.4583664	-174.7006238	-82.63773234	160.7261782
7.45	745	-0.989	0.026	0.151	-0.4583664	-0.3437748	-0.3437748	-174.1448545	-82.49449284	160.1761385
7.46	746	-0.989	0.024	0.154	-0.9167328	0	-0.286479	-174.1735024	-82.49449284	160.1990568
7.47	747	-0.987	0.025	0.154	-1.3178034	-0.1145916	-0.0572958	-174.1964207	-82.49449284	160.2047864
7.48	748	-0.983	0.026	0.153	-1.3750992	0	0.0572958	-174.2021503	-82.49449284	160.1990568
7.49	749	-0.981	0.025	0.153	-1.3750992	0.4583664	0.286479	-174.1849616	-82.50022242	160.1704089
7.5	750	-0.983	0.025	0.152	-1.5469866	1.3750992	0.572958	-174.0073446	-82.4773041	159.9756032
7.51	751	-0.985	0.028	0.15	-1.7761698	2.291832	0.6875496	-173.9500488	-82.50022242	159.8953891
7.52	752	-0.986	0.031	0.148	-1.8334656	2.8074942	0.6875496	-173.8870234	-82.52887032	159.8151749
7.53	753	-0.988	0.03	0.151	-1.718874	2.8074942	0.6875496	-173.8182685	-82.55178864	159.7292312
7.54	754	-0.99	0.031	0.154	-1.6615782	2.7501984	0.6875496	-173.7552431	-82.58043654	159.6432875
7.55	755	-0.993	0.032	0.155	-1.4896908	2.4637194	0.6302538	-173.5146007	-82.56897738	159.391186
7.56	756	-0.995	0.034	0.155	-1.432395	2.1772404	0.5156622	-173.4630345	-82.58616612	159.3281606
7.57	757	-0.997	0.034	0.153	-1.3178034	1.8907614	0.3437748	-173.428657	-82.60335486	159.2765944
7.58	758	-0.998	0.033	0.154	-1.2032118	1.3178034	0.1718874	-173.4057387	-82.6205436	159.2422169
7.59	759	-0.997	0.033	0.155	-1.0886202	1.145916	0	-173.4057387	-82.63200276	159.2307578
7.6	760	-0.997	0.033	0.155	-0.9167328	0.859437	-0.0572958	-172.9129948	-82.54032948	158.7380139
7.61	761	-0.994	0.032	0.154	-0.859437	0.859437	-0.1145916	-172.924454	-82.55178864	158.7380139
7.62	762	-0.992	0.032	0.152	-0.7448454	1.0313244	-0.1145916	-172.924454	-82.55751822	158.7322843
7.63	763	-0.994	0.032	0.152	-0.4010706	1.0313244	-0.1145916	-172.9301836	-82.56897738	158.7322843
7.64	764	-0.994	0.03	0.154	-0.2291832	0.9740286	-0.0572958	-172.924454	-82.58043654	158.7208252
7.65	765	-0.993	0.031	0.153	-0.286479	0.9167328	0	-172.4145214	-82.48876326	158.2166221
7.66	766	-0.991	0.032	0.15	-0.4010706	0.8021412	0	-172.4145214	-82.49449284	158.2108925
7.67	767	-0.992	0.032	0.148	-0.3437748	0.7448454	-0.0572958	-172.4145214	-82.505952	158.205163
7.68	768	-0.991	0.031	0.148	-0.286479	0.7448454	-0.1718874	-172.4202509	-82.51168158	158.2108925
7.69	769	-0.99	0.03	0.148	-0.2291832	0.6875496	-0.1145916	-172.4259805	-82.51741116	158.2166221
7.7	770	-0.989	0.031	0.15	-0.2291832	0.7448454	-0.0572958	-171.9790733	-82.45438578	157.7697149
7.71	771	-0.988	0.03	0.147	-0.286479	0.8021412	-0.1145916	-171.9848029	-82.46011536	157.7697149
7.72	772	-0.989	0.03	0.147	-0.3437748	0.572958	-0.2291832	-172.0019916	-82.46584494	157.781174
7.73	773	-0.991	0.028	0.148	-0.5156622	0.286479	-0.286479	-172.0249099	-82.47157452	157.7983628
7.74	774	-0.99	0.03	0.15	-0.4583664	0	-0.1145916	-172.0363691	-82.47157452	157.8098219
7.75	775	-0.99	0.029	0.151	-0.5156622	-0.0572958	-0.1145916	-171.5608139	-82.31687586	157.3399964
7.76	776	-0.989	0.029	0.152	-0.5156622	0	-0.0572958	-171.5665435	-82.31687586	157.3399964
7.77	777	-0.988	0.029	0.152	-0.6875496	0.1145916	-0.1145916	-171.5837323	-82.32260544	157.3514555
7.78	778	-0.989	0.03	0.152	-0.6302538	0.3437748	0	-171.5837323	-82.32260544	157.345726
7.79	779	-0.989	0.03	0.152	-0.572958	0.4010706	-0.0572958	-171.5894618	-82.32833502	157.345726
7.8	780	-0.991	0.03	0.152	-0.5156622	0.4010706	0	-171.3316307	-82.24239132	157.0821653
7.81	781	-0.994	0.03	0.154	-0.5156622	0.4010706	0.1145916	-171.3201716	-82.2481209	157.0707061
7.82	782	-0.996	0.03	0.154	-0.6302538	0.5156622	0.1718874	-171.3029828	-82.25385048	157.0477878
7.83	783	-0.997	0.031	0.155	-0.572958	0.3437748	0.2291832	-171.2857941	-82.25385048	157.0191399
7.84	784	-0.998	0.031	0.154	-0.5156622	0.2291832	0.2291832	-171.2686054	-82.25958006	156.9962216
7.85	785	-0.996	0.033	0.154	-0.5156622	0.286479	0.1718874	-170.9362897	-82.1908251	156.6639059
7.86	786	-0.995	0.033	0.153	-0.4010706	0.286479	0.1145916	-170.919101	-82.19655468	156.6467172
7.87	787	-0.995	0.033	0.153	-0.286479	0.4010706	0.0572958	-170.9133714	-82.20228426	156.635258
7.88	788	-0.992	0.033	0.153	-0.2291832	0.4583664	-0.0572958	-170.9133714	-82.20801384	156.6295285
7.89	789	-0.991	0.032	0.151	-0.2291832	0.572958	-0.0572958	-170.919101	-82.21374342	156.6295285
7.9	790	-0.988	0.033	0.15	-0.1145916	0.3437748	-0.2291832	-170.4721937	-82.13925888	156.1883508
7.91	791	-0.99	0.032	0.15	-0.1145916	0.3437748	-0.286479	-170.4893825	-82.13925888	156.2055395
7.92	792	-0.991	0.031	0.15	-0.0572958	0.1145916	-0.2291832	-170.5065712	-82.14498846	156.2227283
7.93	793	-0.992	0.031	0.153	0.0572958	0.1145916	-0.1718874	-170.5180304	-82.14498846	156.2341874
7.94	794	-0.992	0.03	0.154	0.0572958	0.4010706	-0.1145916	-170.5180304	-82.15071804	156.239917
7.95	795	-0.993	0.031	0.152	0	0.4010706	-0.1718874	-170.3003063	-82.0762335	156.0279226
7.96	796	-0.991	0.03	0.151	0.0572958	0.3437748	-0.1718874	-170.3060359	-82.0762335	156.0336521
7.97	797	-0.991	0.031	0.149	0.0572958	0.1145916	-0.2291832	-170.3232247	-82.08196308	156.0508409
7.98	798	-0.99	0.03	0.149	0.0572958	-0.2291832	-0.2291832	-170.3404134	-82.0762335	156.0680296
7.99	799	-0.991	0.029	0.149	0.286479	-0.5156622	-0.0572958	-170.3518726	-82.07050392	156.0852184
8	800	-0.99	0.03	0.15	0.2291832	-0.6302538	0	-170.2029035	-82.0189377	155.9419789
8.01	801	-0.991	0.029	0.151	0.2291832	-0.5156622	0.0572958	-170.2029035	-82.01320812	155.9477084
8.02	802	-0.991	0.031	0.149	0.4010706	-0.572958	0.1718874	-170.1914443	-82.00747854	155.9419789
8.03	803	-0.992	0.032	0.149	0.4583664	-0.6302538	0.1718874	-170.1857147	-81.99601938	155.9362493
8.04	804	-0.993	0.033	0.15	0.4583664	-0.6875496	0.1145916	-170.1799852	-81.9902898	155.9362493
8.05	805	-0.991	0.033	0.152	0.3437748	-0.8021412	-0.0572958	-170.0367457	-81.95591232	155.8044689
8.06	806	-0.989	0.032	0.151	0.286479	-1.2032118	-0.1145916	-170.059664	-81.94445316	155.8273873
8.07	807	-0.988	0.029	0.15	0.4010706	-1.5469866	-0.1145916	-170.0883119	-81.92726442	155.8560352
8.08	808	-0.988	0.03	0.15	0.286479	-1.5469866	0	-170.1055006	-81.91580526	155.8789535
8.09	809	-0.988	0.03	0.151	0.286479	-1.432395	-0.0572958	-170.1284189	-81.89861652	155.9076014
8.1	810	-0.991	0.03	0.155	0.1145916	-1.2605076	-0.1145916	-170.1112302	-81.85850946	155.8961422
8.11	811	-0.993	0.029	0.159	-0.3437748	-1.4896908	-0.1145916	-170.1456077	-81.8470503	155.9247901
8.12	812	-0.992	0.029	0.16	-0.4010706	-1.6615782	0.0572958	-170.168526	-81.82986156	155.9477084
8.13	813	-0.989	0.03	0.159	-0.286479	-1.6615782	0	-170.1914443	-81.81267282	155.9648972
8.14	814	-0.989	0.03	0.156	-0.0572958	-1.3178034	0.2291832	-170.1914443	-81.80121366	155.9648972
8.15	815	-0.99	0.033	0.152	0	-1.145916	0.1718874	-170.0023682	-81.77829534	155.775821
8.16	816	-0.991	0.035	0.15	0.0572958	-1.2032118	0.0572958	-170.0080978	-81.7611066	155.7815506
8.17	817	-0.992	0.035	0.152	0.2291832	-1.3178034	-0.0572958	-170.0310161	-81.74964744	155.8101985
8.18	818	-0.994	0.033	0.155	0.4583664	-1.4896908	-0.1718874	-170.059664	-81.73818828	155.844576
8.19	819	-0.993	0.033	0.157	0.5156622	-1.5469866	-0.2291832	-170.0940415	-81.72099954	155.8846831
8.2	820	-0.993	0.031	0.159	0.3437748	-1.6042824	-0.286479	-170.0424752	-81.68662206	155.8331168
8.21	821	-0.99	0.032	0.158	0.286479	-1.5469866	-0.3437748	-170.0825823	-81.66943332	155.8789535
8.22	822	-0.99	0.031	0.16	0.4583664	-1.3178034	-0.3437748	-170.1169598	-81.65797416	155.9247901
8.23	823	-0.99	0.031	0.159	0.5156622	-1.145916	-0.3437748	-170.1513373	-81.646515	155.9648972
8.24	824	-0.988	0.031	0.158	0.5156622	-0.9740286	-0.286479	-170.1799852	-81.63505584	155.9992747
8.25	825	-0.989	0.031	0.158	0.6302538	-0.9167328	-0.3437748	-170.1513373	-81.61213752	155.9763563
8.26	826	-0.989	0.031	0.157	0.4583664	-0.859437	-0.4010706	-170.1857147	-81.60640794	156.0164634
8.27	827	-0.989	0.03	0.156	0.572958	-1.0886202	-0.3437748	-170.2200922	-81.59494878	156.0565705
8.28	828	-0.99	0.031	0.157	0.4583664	-1.3178034	-0.4010706	-170.2601993	-81.58348962	156.1081367
8.29	829	-0.99	0.029	0.159	0.3437748	-1.4896908	-0.4010706	-170.3060359	-81.56630088	156.1539733
8.3	830	-0.989	0.028	0.159	0.286479	-1.5469866	-0.4583664	-170.3174951	-81.54338256	156.1711621
8.31	831	-0.99	0.03	0.158	0.4010706	-1.5469866	-0.286479	-170.3576021	-81.52619382	156.2112691
8.32	832	-0.991	0.028	0.157	0.4583664	-1.5469866	-0.1145916	-170.3805205	-81.51473466	156.2456466
8.33	833	-0.992	0.03	0.158	0.5156622	-1.432395	-0.1145916	-170.4034388	-81.49754592	156.2742945
8.34	834	-0.991	0.03	0.159	0.7448454	-1.3750992	0	-170.4148979	-81.48608676	156.2972128
8.35	835	-0.992	0.031	0.159	0.859437	-1.6042824	0	-170.3633317	-81.46316844	156.2513762
8.36	836	-0.994	0.032	0.158	0.859437	-1.9480572	-0.1145916	-170.38625	-81.44025012	156.2857537
8.37	837	-0.994	0.031	0.161	0.8021412	-2.5210152	-0.2291832	-170.4263571	-81.4173318	156.3315903
8.38	838	-0.994	0.031	0.162	0.4010706	-1.5469866	-0.1145916	-170.4492754	-81.40587264	156.3659678
8.39	839	-0.993	0.032	0.163	0.572958	-2.005353	-0.0572958	-170.4779233	-81.38295432	156.3946157
8.4	840	-0.993	0.032	0.165	0.6302538	-2.3491278	-0.0572958	-170.4607346	-81.34857684	156.3888861
8.41	841	-0.991	0.032	0.165	0.5156622	-2.5210152	-0.2291832	-170.5065712	-81.32565852	156.4404523
8.42	842	-0.989	0.031	0.167	0.572958	-2.578311	-0.1718874	-170.5409487	-81.29701062	156.4805594
8.43	843	-0.987	0.031	0.164	0.6302538	-2.578311	-0.2291832	-170.5810558	-81.2740923	156.5321256
8.44	844	-0.985	0.031	0.164	0.6875496	-2.578311	-0.1718874	-170.6211628	-81.25117398	156.5779622
8.45	845	-0.986	0.03	0.164	0.859437	-2.578311	-0.1145916	-170.6211628	-81.2167965	156.5894214
8.46	846	-0.988	0.031	0.166	0.7448454	-2.4064236	-0.1718874	-170.6555403	-81.19387818	156.6295285
8.47	847	-0.987	0.033	0.165	0.7448454	-2.1772404	-0.2291832	-170.6899178	-81.17095986	156.6753651
8.48	848	-0.986	0.031	0.165	0.6875496	-2.1199446	-0.1718874	-170.7185657	-81.15377112	156.7154722
8.49	849	-0.986	0.031	0.165	0.6875496	-2.1199446	-0.286479	-170.7586727	-81.1308528	156.7613088
8.5	850	-0.986	0.031	0.165	0.6875496	-2.2345362	-0.4010706	-170.7701319	-81.1022049	156.7784975
8.51	851	-0.986	0.031	0.166	0.7448454	-2.1199446	-0.4010706	-170.8159685	-81.07928658	156.8357933
8.52	852	-0.987	0.029	0.167	0.7448454	-1.9480572	-0.4583664	-170.8618052	-81.06209784	156.8873596
8.53	853	-0.985	0.028	0.166	0.5156622	-1.7761698	-0.286479	-170.8961827	-81.0449091	156.9274666
8.54	854	-0.984	0.028	0.169	0.572958	-1.3178034	-0.2291832	-170.919101	-81.03344994	156.9618441
8.55	855	-0.983	0.029	0.172	0.572958	-0.9740286	-0.2291832	-170.8789939	-80.9876133	156.9274666
8.56	856	-0.985	0.03	0.171	0.4583664	-0.7448454	-0.2291832	-170.8961827	-80.97615414	156.9503849
8.57	857	-0.987	0.026	0.171	0.4010706	-0.572958	-0.286479	-170.919101	-80.97042456	156.9790328
8.58	858	-0.988	0.026	0.172	0.286479	-0.572958	-0.1718874	-170.9362897	-80.97042456	157.0019512
8.59	859	-0.989	0.026	0.175	0.2291832	-0.6875496	-0.1145916	-170.9534785	-80.9589654	157.0191399
8.6	860	-0.989	0.027	0.179	0.1145916	-0.5156622	0	-171.0451517	-80.86156254	157.1165428
8.61	861	-0.991	0.027	0.181	0	-0.1718874	0.1718874	-171.0336926	-80.86156254	157.1050836
8.62	862	-0.991	0.028	0.179	-0.0572958	0.1145916	0.1718874	-171.0222334	-80.86156254	157.0936244
8.63	863	-0.992	0.028	0.177	0	0.286479	0.2291832	-170.9993151	-80.86729212	157.0707061
8.64	864	-0.991	0.028	0.177	0.0572958	0.286479	0.3437748	-170.9763968	-80.86729212	157.0420582
8.65	865	-0.99	0.03	0.177	0	0.3437748	0.4010706	-170.8904531	-80.80999632	156.9675737
8.66	866	-0.989	0.03	0.178	-0.0572958	0.286479	0.4010706	-170.8618052	-80.80999632	156.9331962
8.67	867	-0.989	0.03	0.179	-0.1145916	0.4010706	0.4010706	-170.8331573	-80.8157259	156.9045483
8.68	868	-0.99	0.03	0.179	-0.0572958	0.4583664	0.4010706	-170.8045094	-80.82145548	156.8759004
