TimeStamp(s)	FrameCounter	AccX	AccY	AccZ	GyrX	GyrY	GyrZ	EulerX	EulerY	EulerZ
0.01	1	-0.029	-1.004	0.068	0.572958	-0.4010706	-0.1145916	93.60414846	-1.6615782	-10.89193158
0.02	2	-0.024	-1.004	0.056	1.3750992	-0.1145916	-0.4010706	93.6213372	-1.65584862	-10.89193158
0.03	3	-0.023	-1.004	0.055	1.5469866	-0.1145916	-0.4583664	93.63279636	-1.65011904	-10.89193158
0.04	4	-0.024	-1.004	0.055	1.7761698	-0.1145916	-0.3437748	93.65571468	-1.64438946	-10.89193158
0.05	5	-0.026	-1.006	0.057	1.8334656	-0.286479	-0.286479	93.63852594	-1.6329303	-10.89193158
0.06	6	-0.025	-1.007	0.06	1.8907614	-0.4583664	-0.1718874	93.65571468	-1.62720072	-10.89193158
0.07	7	-0.025	-1.008	0.061	1.8907614	-0.6302538	-0.1145916	93.678633	-1.62720072	-10.89766116
0.08	8	-0.025	-1.009	0.061	1.8334656	-0.6302538	-0.1145916	93.69582174	-1.62147114	-10.90912032
0.09	9	-0.026	-1.01	0.062	1.6615782	-0.6875496	-0.1718874	93.71301048	-1.62147114	-10.9148499
0.1	10	-0.028	-1.009	0.063	1.5469866	-0.6875496	-0.2291832	93.69582174	-1.61001198	-10.9148499
0.11	11	-0.028	-1.009	0.064	1.3750992	-0.6302538	-0.286479	93.71301048	-1.6042824	-10.92057948
0.12	12	-0.026	-1.008	0.062	1.2605076	-0.6875496	-0.3437748	93.72446964	-1.59855282	-10.92630906
0.13	13	-0.027	-1.007	0.062	1.145916	-0.8021412	-0.2291832	93.7359288	-1.59855282	-10.93776822
0.14	14	-0.027	-1.006	0.063	1.0313244	-0.7448454	-0.2291832	93.74738796	-1.59282324	-10.9434978
0.15	15	-0.027	-1.006	0.064	0.9167328	-0.3437748	0	93.69582174	-1.5756345	-10.93776822
0.16	16	-0.027	-1.005	0.061	0.9167328	-0.2291832	0.1718874	93.70155132	-1.5756345	-10.93776822
0.17	17	-0.024	-1.007	0.061	0.9740286	-0.3437748	0.1718874	93.71301048	-1.5756345	-10.9434978
0.18	18	-0.023	-1.01	0.061	0.9167328	-0.572958	0.1145916	93.72446964	-1.58136408	-10.94922738
0.19	19	-0.026	-1.01	0.06	0.859437	-0.572958	0.0572958	93.73019922	-1.58136408	-10.95495696
0.2	20	-0.029	-1.009	0.057	0.6875496	-0.572958	0.0572958	93.66717384	-1.58136408	-10.96068654
0.21	21	-0.03	-1.009	0.056	0.572958	-0.4583664	0.1145916	93.67290342	-1.58136408	-10.96068654
0.22	22	-0.028	-1.01	0.058	0.4583664	-0.1718874	0.1718874	93.678633	-1.58136408	-10.96641612
0.23	23	-0.026	-1.013	0.061	0.2291832	-0.0572958	0.1718874	93.678633	-1.58136408	-10.96641612
0.24	24	-0.024	-1.013	0.062	0.286479	-0.3437748	0.2291832	93.68436258	-1.58709366	-10.9721457
0.25	25	-0.022	-1.01	0.063	0.286479	-0.572958	0.1718874	93.61560762	-1.55271618	-10.96068654
0.26	26	-0.025	-1.007	0.063	0.286479	-0.6875496	0.286479	93.6213372	-1.55271618	-10.96641612
0.27	27	-0.028	-1.004	0.065	0.286479	-0.7448454	0.4010706	93.62706678	-1.55271618	-10.97787528
0.28	28	-0.031	-1.001	0.062	0.1718874	-0.572958	0.3437748	93.62706678	-1.55844576	-10.98360486
0.29	29	-0.029	-0.999	0.061	0.1145916	-0.4010706	0.4010706	93.62706678	-1.56417534	-10.98360486
0.3	30	-0.028	-1.001	0.06	0.2291832	-0.3437748	0.4010706	93.55258224	-1.5469866	-10.97787528
0.31	31	-0.027	-1.003	0.06	0.4010706	-0.4583664	0.286479	93.55831182	-1.5469866	-10.98360486
0.32	32	-0.028	-1.004	0.061	0.4010706	-0.4583664	0.1718874	93.5640414	-1.55271618	-10.98933444
0.33	33	-0.029	-1.006	0.061	0.4583664	-0.5156622	0.1145916	93.56977098	-1.55271618	-10.99506402
0.34	34	-0.029	-1.008	0.062	0.4010706	-0.4583664	0.1145916	93.56977098	-1.55271618	-11.0007936
0.35	35	-0.03	-1.009	0.062	0.4010706	-0.3437748	0	93.50101602	-1.54125702	-10.99506402
0.36	36	-0.03	-1.009	0.063	0.5156622	-0.4010706	0.1145916	93.5067456	-1.5469866	-11.0007936
0.37	37	-0.031	-1.008	0.064	0.572958	-0.286479	0.0572958	93.51247518	-1.5469866	-11.00652318
0.38	38	-0.031	-1.006	0.064	0.6875496	-0.286479	0.0572958	93.52393434	-1.5469866	-11.00652318
0.39	39	-0.03	-1.005	0.064	0.5156622	-0.286479	0.0572958	93.52966392	-1.5469866	-11.01225276
0.4	40	-0.029	-1.002	0.063	0.4583664	0	0.1145916	93.43226106	-1.53552744	-11.0007936
0.41	41	-0.03	-1.002	0.062	0.5156622	0.1718874	0.1145916	93.43799064	-1.54125702	-11.0007936
0.42	42	-0.03	-1.003	0.061	0.5156622	0.4010706	0.1145916	93.43799064	-1.54125702	-10.99506402
0.43	43	-0.03	-1.004	0.062	0.4583664	0.3437748	0.0572958	93.44372022	-1.54125702	-10.99506402
0.44	44	-0.03	-1.003	0.063	0.4010706	0.0572958	0.0572958	93.4494498	-1.54125702	-10.98933444
0.45	45	-0.03	-1.002	0.064	0.4583664	-0.286479	0	93.40361316	-1.53552744	-10.98933444
0.46	46	-0.029	-1.003	0.064	0.6875496	-0.4583664	-0.1145916	93.41507232	-1.53552744	-10.99506402
0.47	47	-0.031	-1.006	0.066	0.859437	-0.5156622	-0.1145916	93.4208019	-1.52979786	-11.0007936
0.48	48	-0.033	-1.008	0.069	0.859437	-0.286479	-0.1145916	93.43226106	-1.52979786	-11.0007936
0.49	49	-0.033	-1.009	0.069	0.8021412	0.0572958	-0.1145916	93.43799064	-1.52979786	-11.0007936
0.5	50	-0.033	-1.009	0.066	0.2291832	0.572958	-0.2291832	93.392154	-1.52979786	-10.99506402
0.51	51	-0.031	-1.008	0.066	0	0.6302538	-0.286479	93.392154	-1.52406828	-10.98933444
0.52	52	-0.03	-1.006	0.063	-0.1145916	0.5156622	-0.286479	93.392154	-1.52406828	-10.98360486
0.53	53	-0.029	-1.002	0.061	0	0.5156622	-0.286479	93.392154	-1.52406828	-10.97787528
0.54	54	-0.029	-1.002	0.059	0.2291832	0.3437748	-0.2291832	93.392154	-1.5183387	-10.9721457
0.55	55	-0.031	-1.001	0.058	0.4583664	0.1718874	-0.2291832	93.3348582	-1.52406828	-10.9721457
0.56	56	-0.034	-1.002	0.062	0.7448454	0	-0.2291832	93.34058778	-1.52406828	-10.9721457
0.57	57	-0.032	-1.005	0.064	0.7448454	0.1145916	-0.286479	93.35204694	-1.5183387	-10.96641612
0.58	58	-0.032	-1.008	0.063	0.6875496	0.0572958	-0.4010706	93.35777652	-1.51260912	-10.96641612
0.59	59	-0.03	-1.008	0.064	0.6875496	0.0572958	-0.5156622	93.3635061	-1.50687954	-10.96641612
0.6	60	-0.03	-1.008	0.063	0.5156622	-0.0572958	-0.5156622	93.31766946	-1.50114996	-10.96068654
0.61	61	-0.03	-1.007	0.066	0.4010706	0	-0.3437748	93.32339904	-1.49542038	-10.96068654
0.62	62	-0.03	-1.008	0.067	0.286479	0	-0.286479	93.32912862	-1.49542038	-10.96068654
0.63	63	-0.029	-1.009	0.068	0.1145916	0	-0.2291832	93.32912862	-1.4896908	-10.96641612
0.64	64	-0.028	-1.009	0.069	0	-0.0572958	-0.1145916	93.32912862	-1.4896908	-10.96641612
0.65	65	-0.029	-1.008	0.069	-0.1718874	-0.2291832	-0.0572958	93.28902156	-1.4896908	-10.96641612
0.66	66	-0.03	-1.006	0.068	-0.3437748	-0.1145916	0	93.28902156	-1.4896908	-10.96641612
0.67	67	-0.031	-1.005	0.067	-0.4583664	-0.1718874	0	93.28329198	-1.48396122	-10.96641612
0.68	68	-0.031	-1.006	0.064	-0.5156622	-0.2291832	-0.0572958	93.2775624	-1.48396122	-10.9721457
0.69	69	-0.031	-1.009	0.062	-0.6875496	-0.4010706	0	93.27183282	-1.48396122	-10.97787528
0.7	70	-0.03	-1.011	0.06	-0.6302538	-0.5156622	0	93.2202666	-1.47823164	-10.97787528
0.71	71	-0.03	-1.009	0.06	-0.6875496	-0.572958	0.1145916	93.21453702	-1.48396122	-10.98360486
0.72	72	-0.03	-1.007	0.059	-0.7448454	-0.572958	0.1145916	93.20307786	-1.48396122	-10.98933444
0.73	73	-0.032	-1.006	0.06	-0.7448454	-0.6302538	0.2291832	93.19734828	-1.48396122	-10.99506402
0.74	74	-0.033	-1.004	0.062	-0.7448454	-0.4583664	0.3437748	93.1916187	-1.4896908	-11.0007936
0.75	75	-0.032	-1.002	0.063	-0.6302538	-0.4010706	0.4010706	93.15724122	-1.49542038	-11.00652318
0.76	76	-0.033	-1.003	0.065	-0.572958	-0.286479	0.4010706	93.15151164	-1.50114996	-11.01225276
0.77	77	-0.033	-1.005	0.065	-0.4583664	-0.1718874	0.4583664	93.14578206	-1.50687954	-11.01225276
0.78	78	-0.033	-1.007	0.066	-0.4010706	-0.0572958	0.3437748	93.14005248	-1.50687954	-11.01225276
0.79	79	-0.032	-1.007	0.065	-0.3437748	-0.1145916	0.3437748	93.1343229	-1.51260912	-11.01225276
0.8	80	-0.031	-1.007	0.067	-0.3437748	-0.2291832	0.286479	93.105675	-1.51260912	-11.01798234
0.81	81	-0.031	-1.007	0.067	-0.4583664	-0.3437748	0.286479	93.105675	-1.5183387	-11.01798234
0.82	82	-0.032	-1.006	0.068	-0.4010706	-0.4583664	0.1718874	93.09994542	-1.5183387	-11.02371192
0.83	83	-0.034	-1.007	0.069	-0.5156622	-0.4010706	0.0572958	93.09421584	-1.5183387	-11.0294415
0.84	84	-0.035	-1.006	0.067	-0.5156622	-0.1718874	-0.0572958	93.08848626	-1.5183387	-11.0294415
0.85	85	-0.035	-1.006	0.067	-0.6875496	-0.1145916	-0.1145916	93.05983836	-1.52979786	-11.03517108
0.86	86	-0.035	-1.008	0.066	-0.9740286	0.1718874	-0.1718874	93.0483792	-1.52979786	-11.03517108
0.87	87	-0.034	-1.008	0.065	-1.0886202	0.5156622	0	93.03692004	-1.52979786	-11.0294415
0.88	88	-0.032	-1.005	0.063	-0.9740286	0.572958	0.0572958	93.02546088	-1.52979786	-11.02371192
0.89	89	-0.028	-1.003	0.063	-0.8021412	0.5156622	0.1718874	93.01400172	-1.52979786	-11.01798234
0.9	90	-0.026	-1.005	0.062	-0.6302538	0.2291832	0.1145916	92.97389466	-1.51260912	-11.00652318
0.91	91	-0.026	-1.007	0.063	-0.6875496	0.1145916	0.1718874	92.96816508	-1.5183387	-11.00652318
0.92	92	-0.029	-1.008	0.062	-0.6875496	0	0.3437748	92.9624355	-1.5183387	-11.00652318
0.93	93	-0.033	-1.009	0.061	-0.8021412	0	0.286479	92.95097634	-1.52406828	-11.00652318
0.94	94	-0.034	-1.009	0.06	-0.7448454	0.1718874	0.1145916	92.94524676	-1.52406828	-11.00652318
0.95	95	-0.032	-1.011	0.063	-0.9167328	0.0572958	0.1145916	92.91086928	-1.52979786	-11.00652318
0.96	96	-0.03	-1.012	0.066	-1.145916	-0.1718874	0.0572958	92.89941012	-1.52979786	-11.00652318
0.97	97	-0.029	-1.01	0.067	-1.3178034	-0.572958	0	92.88795096	-1.52979786	-11.01225276
0.98	98	-0.029	-1.007	0.067	-1.2032118	-0.859437	0.1145916	92.8764918	-1.52979786	-11.02371192
0.99	99	-0.032	-1.004	0.066	-1.3750992	-0.859437	0.1718874	92.85930306	-1.52979786	-11.0294415
1	100	-0.035	-1	0.063	-1.0313244	-0.5156622	0.1718874	92.82492558	-1.5469866	-11.04090066
1.01	101	-0.037	-0.997	0.061	-0.572958	0	0.0572958	92.819196	-1.5469866	-11.04090066
1.02	102	-0.036	-1.001	0.059	-0.4010706	0.286479	0.0572958	92.819196	-1.55271618	-11.04090066
1.03	103	-0.033	-1.003	0.06	-0.1145916	0.286479	-0.1145916	92.81346642	-1.5469866	-11.03517108
1.04	104	-0.033	-1.007	0.062	-0.1145916	-0.1718874	-0.3437748	92.81346642	-1.5469866	-11.03517108
1.05	105	-0.037	-1.007	0.062	-0.1718874	-0.4583664	-0.5156622	92.7905481	-1.55271618	-11.04663024
1.06	106	-0.036	-1.008	0.063	-0.286479	0	-0.5156622	92.78481852	-1.5469866	-11.04663024
1.07	107	-0.037	-1.009	0.064	-0.4583664	0.3437748	-0.4583664	92.77908894	-1.5469866	-11.04090066
1.08	108	-0.036	-1.011	0.063	-0.6875496	0.6302538	-0.5156622	92.77335936	-1.54125702	-11.03517108
1.09	109	-0.036	-1.012	0.064	-0.7448454	0.7448454	-0.5156622	92.7619002	-1.53552744	-11.02371192
1.1	110	-0.036	-1.009	0.06	-0.572958	0.8021412	-0.4583664	92.73898188	-1.53552744	-11.01798234
1.11	111	-0.034	-1.006	0.06	-0.4583664	0.6875496	-0.3437748	92.7332523	-1.53552744	-11.01225276
1.12	112	-0.031	-1.004	0.06	-0.3437748	0.7448454	-0.2291832	92.72752272	-1.52979786	-11.00652318
1.13	113	-0.031	-1.002	0.061	-0.4010706	0.8021412	-0.0572958	92.72179314	-1.52979786	-10.99506402
1.14	114	-0.032	-1.001	0.059	-0.3437748	1.0313244	0.1145916	92.72179314	-1.53552744	-10.98360486
1.15	115	-0.035	-1.003	0.058	-0.286479	1.145916	0.2291832	92.69887482	-1.5469866	-10.97787528
1.16	116	-0.036	-1.004	0.058	-0.1718874	1.2605076	0.286479	92.69887482	-1.5469866	-10.96068654
1.17	117	-0.035	-1.005	0.058	0	0.9740286	0.286479	92.69887482	-1.55271618	-10.95495696
1.18	118	-0.034	-1.006	0.059	0.1145916	0.7448454	0.1718874	92.69887482	-1.55844576	-10.9434978
1.19	119	-0.035	-1.008	0.061	0.1145916	0.8021412	0.1145916	92.69887482	-1.55844576	-10.93776822
1.2	120	-0.035	-1.008	0.064	0	1.0886202	0.286479	92.69314524	-1.56990492	-10.92630906
1.21	121	-0.037	-1.008	0.063	-0.2291832	1.3178034	0.2291832	92.68741566	-1.5756345	-10.9148499
1.22	122	-0.034	-1.006	0.059	-0.4583664	1.2032118	0.1718874	92.68168608	-1.5756345	-10.90339074
1.23	123	-0.032	-1.003	0.057	-0.572958	1.0313244	0.1718874	92.6759565	-1.5756345	-10.89193158
1.24	124	-0.031	-1.003	0.055	-0.4583664	0.572958	0.1718874	92.67022692	-1.58136408	-10.886202
1.25	125	-0.03	-1.003	0.054	-0.2291832	0.4010706	0.1145916	92.6186607	-1.5756345	-10.88047242
1.26	126	-0.03	-1.006	0.055	0	0.2291832	0.1718874	92.6186607	-1.5756345	-10.87474284
1.27	127	-0.032	-1.005	0.056	0.2291832	0.0572958	0.3437748	92.62439028	-1.58136408	-10.87474284
1.28	128	-0.034	-1.006	0.057	0.3437748	0	0.4583664	92.62439028	-1.58136408	-10.87474284
1.29	129	-0.036	-1.007	0.06	0.286479	0.0572958	0.4010706	92.63011986	-1.58709366	-10.87474284
1.3	130	-0.037	-1.007	0.058	0.1145916	0.1718874	0.4010706	92.5900128	-1.61574156	-10.87474284
1.31	131	-0.037	-1.008	0.058	0	0.2291832	0.3437748	92.5900128	-1.61574156	-10.87474284
1.32	132	-0.036	-1.007	0.057	-0.0572958	0.1718874	0.286479	92.5900128	-1.62147114	-10.87474284
1.33	133	-0.035	-1.007	0.056	-0.2291832	0.1718874	0.1718874	92.58428322	-1.62147114	-10.86901326
1.34	134	-0.034	-1.007	0.058	-0.3437748	0.5156622	0.1718874	92.58428322	-1.62720072	-10.86328368
1.35	135	-0.032	-1.008	0.057	-0.3437748	0.6302538	0.2291832	92.55563532	-1.62720072	-10.8575541
1.36	136	-0.032	-1.008	0.057	-0.4010706	0.572958	0.1718874	92.54990574	-1.62720072	-10.85182452
1.37	137	-0.032	-1.006	0.056	-0.4010706	0.5156622	0.1718874	92.54417616	-1.6329303	-10.84609494
1.38	138	-0.033	-1.005	0.056	-0.286479	0.5156622	0.1718874	92.54417616	-1.6329303	-10.84036536
1.39	139	-0.033	-1.006	0.057	-0.2291832	0.5156622	0.1718874	92.53844658	-1.63865988	-10.83463578
1.4	140	-0.034	-1.006	0.057	-0.2291832	0.4010706	0.286479	92.50979868	-1.63865988	-10.8289062
1.41	141	-0.034	-1.004	0.056	-0.1145916	0.4583664	0.3437748	92.5040691	-1.64438946	-10.8289062
1.42	142	-0.033	-1.005	0.056	-0.0572958	0.3437748	0.3437748	92.5040691	-1.65011904	-10.82317662
1.43	143	-0.034	-1.005	0.056	-0.0572958	0.4583664	0.286479	92.5040691	-1.65011904	-10.81744704
1.44	144	-0.036	-1.005	0.054	-0.1145916	0.286479	0.3437748	92.5040691	-1.65584862	-10.81744704
1.45	145	-0.034	-1.005	0.054	-0.2291832	0.1145916	0.286479	92.4467733	-1.66730778	-10.81171746
1.46	146	-0.033	-1.007	0.055	-0.1718874	0	0.2291832	92.44104372	-1.67303736	-10.81171746
1.47	147	-0.034	-1.008	0.054	0	-0.5156622	0	92.44104372	-1.66730778	-10.81744704
1.48	148	-0.034	-1.007	0.053	0.0572958	-0.6875496	-0.1718874	92.44104372	-1.66730778	-10.8289062
1.49	149	-0.035	-1.008	0.054	0.2291832	-0.859437	-0.1718874	92.4467733	-1.66730778	-10.83463578
1.5	150	-0.037	-1.007	0.054	0.2291832	-1.0313244	-0.286479	92.43531414	-1.66730778	-10.84609494
1.51	151	-0.038	-1.006	0.056	0.2291832	-1.145916	-0.4583664	92.43531414	-1.6615782	-10.8575541
1.52	152	-0.038	-1.006	0.056	0.2291832	-1.145916	-0.5156622	92.44104372	-1.65584862	-10.86901326
1.53	153	-0.037	-1.004	0.054	0.2291832	-0.859437	-0.6875496	92.44104372	-1.65011904	-10.87474284
1.54	154	-0.036	-1.004	0.052	0.2291832	-0.7448454	-0.6875496	92.4467733	-1.63865988	-10.886202
1.55	155	-0.036	-1.004	0.052	0.2291832	-0.6875496	-0.6302538	92.42385498	-1.63865988	-10.89193158
1.56	156	-0.036	-1.004	0.053	0.2291832	-0.6302538	-0.6875496	92.42958456	-1.62720072	-10.89766116
1.57	157	-0.037	-1.006	0.052	0.3437748	-0.572958	-0.572958	92.43531414	-1.62147114	-10.90339074
1.58	158	-0.039	-1.007	0.053	0.4583664	-0.5156622	-0.4583664	92.44104372	-1.61574156	-10.90912032
1.59	159	-0.036	-1.008	0.055	0.4583664	-0.572958	-0.3437748	92.44104372	-1.61574156	-10.9148499
1.6	160	-0.036	-1.008	0.053	0.3437748	-0.6302538	-0.286479	92.4181254	-1.61574156	-10.92057948
1.61	161	-0.036	-1.008	0.051	0.286479	-0.572958	-0.3437748	92.42385498	-1.61001198	-10.92630906
1.62	162	-0.038	-1.01	0.05	0.2291832	-0.4010706	-0.3437748	92.42385498	-1.61001198	-10.93203864
1.63	163	-0.04	-1.011	0.053	0.3437748	0.0572958	-0.1718874	92.42958456	-1.6042824	-10.93203864
1.64	164	-0.037	-1.01	0.055	0.286479	0.4010706	-0.1145916	92.42958456	-1.6042824	-10.92630906
1.65	165	-0.034	-1.007	0.057	0.2291832	-0.0572958	-0.3437748	92.4181254	-1.59855282	-10.92630906
1.66	166	-0.031	-1.007	0.057	0.1718874	-0.8021412	-0.4583664	92.4181254	-1.59282324	-10.93203864
1.67	167	-0.032	-1.005	0.058	0	-1.145916	-0.4010706	92.4181254	-1.59282324	-10.9434978
1.68	168	-0.034	-1.005	0.058	-0.0572958	-1.145916	-0.1718874	92.4181254	-1.58709366	-10.95495696
1.69	169	-0.036	-1.004	0.056	-0.2291832	-0.9167328	0	92.4181254	-1.58709366	-10.96641612
1.7	170	-0.038	-1.004	0.054	-0.2291832	-0.7448454	0.0572958	92.37801834	-1.6042824	-10.9721457
1.71	171	-0.039	-1.004	0.053	-0.0572958	-0.6875496	0	92.37801834	-1.6042824	-10.98360486
1.72	172	-0.041	-1.005	0.053	0.1718874	-0.5156622	-0.0572958	92.37801834	-1.6042824	-10.98933444
1.73	173	-0.041	-1.005	0.052	0.1718874	-0.3437748	-0.2291832	92.38374792	-1.59855282	-10.98933444
1.74	174	-0.04	-1.006	0.052	0.0572958	-0.2291832	-0.3437748	92.38374792	-1.59855282	-10.99506402
1.75	175	-0.04	-1.007	0.052	0	-0.3437748	-0.4583664	92.34937044	-1.61574156	-11.0007936
1.76	176	-0.038	-1.006	0.051	0	-0.572958	-0.572958	92.34937044	-1.61001198	-11.00652318
1.77	177	-0.037	-1.006	0.052	0.1718874	-0.5156622	-0.5156622	92.34937044	-1.6042824	-11.01225276
1.78	178	-0.038	-1.007	0.051	0.286479	-0.4010706	-0.572958	92.35510002	-1.59282324	-11.01225276
1.79	179	-0.038	-1.006	0.052	0.4583664	-0.3437748	-0.5156622	92.3608296	-1.58709366	-11.01798234
1.8	180	-0.038	-1.005	0.05	0.6302538	-0.286479	-0.4583664	92.34364086	-1.59282324	-11.02371192
1.81	181	-0.038	-1.004	0.05	0.9740286	-0.3437748	-0.4010706	92.34937044	-1.59282324	-11.02371192
1.82	182	-0.037	-1.003	0.052	1.0313244	-0.4010706	-0.286479	92.3608296	-1.58709366	-11.0294415
1.83	183	-0.038	-1.001	0.051	0.7448454	0	0	92.37228876	-1.58709366	-11.0294415
1.84	184	-0.04	-1.003	0.05	0.6875496	0.3437748	0.0572958	92.37801834	-1.58709366	-11.02371192
1.85	185	-0.042	-1.003	0.049	0.7448454	0.6875496	0.2291832	92.3608296	-1.6042824	-11.01798234
1.86	186	-0.044	-1.005	0.049	0.859437	1.0886202	0.286479	92.37228876	-1.61001198	-11.01225276
1.87	187	-0.042	-1.006	0.049	0.9740286	1.145916	0.1145916	92.38374792	-1.61001198	-11.0007936
1.88	188	-0.04	-1.007	0.052	1.145916	0.9167328	0.0572958	92.39520708	-1.61574156	-10.98933444
1.89	189	-0.039	-1.01	0.054	1.2032118	0.8021412	0.0572958	92.40666624	-1.61574156	-10.97787528
1.9	190	-0.038	-1.011	0.053	0.9740286	0.7448454	0.0572958	92.39520708	-1.62147114	-10.9721457
1.91	191	-0.037	-1.011	0.053	0.8021412	0.8021412	0.0572958	92.40093666	-1.62147114	-10.96641612
1.92	192	-0.037	-1.008	0.051	0.6302538	0.7448454	0.0572958	92.40666624	-1.62720072	-10.95495696
1.93	193	-0.037	-1.006	0.05	0.572958	0.572958	0.0572958	92.41239582	-1.62720072	-10.94922738
1.94	194	-0.037	-1.005	0.052	0.4583664	0.572958	0	92.4181254	-1.62720072	-10.9434978
1.95	195	-0.038	-1.007	0.051	0.4010706	0.5156622	0.0572958	92.38374792	-1.64438946	-10.9434978
1.96	196	-0.038	-1.007	0.052	0.3437748	0.5156622	0.0572958	92.3894775	-1.64438946	-10.93776822
1.97	197	-0.038	-1.007	0.05	0.1718874	0.572958	0.0572958	92.3894775	-1.65011904	-10.93203864
1.98	198	-0.038	-1.007	0.049	0.2291832	0.6875496	0.1718874	92.39520708	-1.65011904	-10.92057948
1.99	199	-0.039	-1.006	0.048	0.286479	0.7448454	0.1718874	92.39520708	-1.65011904	-10.9148499
2	200	-0.039	-1.006	0.047	0.4010706	0.8021412	0.2291832	92.36655918	-1.66730778	-10.90912032
2.01	201	-0.038	-1.006	0.048	0.286479	0.859437	0.2291832	92.36655918	-1.67303736	-10.89766116
2.02	202	-0.038	-1.007	0.05	0.1718874	0.6875496	0.2291832	92.37228876	-1.67303736	-10.89193158
2.03	203	-0.038	-1.009	0.05	0.0572958	0.6302538	0.1718874	92.37228876	-1.67876694	-10.886202
2.04	204	-0.037	-1.008	0.05	0	0.4583664	0.1145916	92.37228876	-1.67876694	-10.88047242
2.05	205	-0.037	-1.009	0.05	0	0.4010706	0.0572958	92.31499296	-1.69595568	-10.88047242
2.06	206	-0.037	-1.008	0.05	0	0.5156622	0.1718874	92.31499296	-1.70168526	-10.87474284
2.07	207	-0.037	-1.008	0.051	0	0.572958	0.2291832	92.31499296	-1.70168526	-10.86901326
2.08	208	-0.038	-1.008	0.052	0	0.6302538	0.2291832	92.31499296	-1.70741484	-10.8575541
2.09	209	-0.038	-1.006	0.053	0	0.7448454	0.286479	92.31499296	-1.70741484	-10.85182452
2.1	210	-0.039	-1.006	0.053	-0.0572958	0.6875496	0.3437748	92.29780422	-1.72460358	-10.84609494
2.11	211	-0.038	-1.006	0.053	-0.2291832	0.6875496	0.286479	92.29207464	-1.73033316	-10.84036536
2.12	212	-0.04	-1.006	0.052	-0.7448454	0.1718874	0.1145916	92.28634506	-1.73033316	-10.84036536
2.13	213	-0.04	-1.005	0.051	-0.7448454	0.1718874	0.0572958	92.2748859	-1.73033316	-10.83463578
2.14	214	-0.042	-1.003	0.052	-0.6875496	0.1718874	0	92.26915632	-1.73033316	-10.83463578
2.15	215	-0.041	-1.004	0.05	-0.6302538	0.2291832	0	92.22904926	-1.7475219	-10.83463578
2.16	216	-0.041	-1.005	0.052	-0.572958	0.2291832	0	92.22331968	-1.7475219	-10.8289062
2.17	217	-0.04	-1.006	0.051	-0.4583664	0.2291832	-0.1145916	92.2175901	-1.7475219	-10.8289062
2.18	218	-0.04	-1.006	0.05	-0.3437748	0.1718874	-0.1718874	92.21186052	-1.7475219	-10.8289062
2.19	219	-0.039	-1.006	0.049	-0.2291832	0	-0.3437748	92.21186052	-1.74179232	-10.8289062
2.2	220	-0.038	-1.004	0.049	-0.0572958	-0.2291832	-0.3437748	92.16602388	-1.7475219	-10.8289062
2.21	221	-0.038	-1.002	0.048	0.1145916	-0.3437748	-0.4010706	92.16602388	-1.74179232	-10.83463578
2.22	222	-0.037	-1.003	0.047	0.286479	-0.572958	-0.4583664	92.17175346	-1.73606274	-10.84036536
2.23	223	-0.039	-1.003	0.047	0.4010706	-0.6875496	-0.4583664	92.17748304	-1.73033316	-10.84609494
2.24	224	-0.04	-1.005	0.048	0.572958	-0.859437	-0.5156622	92.18321262	-1.72460358	-10.85182452
2.25	225	-0.041	-1.004	0.049	0.7448454	-0.6875496	-0.3437748	92.17175346	-1.73606274	-10.86328368
2.26	226	-0.039	-1.005	0.049	0.7448454	-0.0572958	-0.1718874	92.17748304	-1.73033316	-10.86328368
2.27	227	-0.036	-1.006	0.049	0.9167328	0.286479	-0.0572958	92.1889422	-1.73033316	-10.8575541
2.28	228	-0.036	-1.008	0.047	0.9740286	0.1145916	0	92.20040136	-1.73033316	-10.8575541
2.29	229	-0.039	-1.011	0.047	1.0313244	-0.0572958	0.0572958	92.21186052	-1.73033316	-10.8575541
2.3	230	-0.042	-1.015	0.05	0.9167328	-0.1145916	0	92.1889422	-1.75325148	-10.86328368
2.31	231	-0.043	-1.015	0.054	0.7448454	0.3437748	0.0572958	92.19467178	-1.75325148	-10.8575541
2.32	232	-0.042	-1.014	0.054	0.3437748	0.6875496	0	92.20040136	-1.75325148	-10.85182452
2.33	233	-0.041	-1.012	0.054	0.1718874	0.5156622	-0.1718874	92.20040136	-1.75325148	-10.84609494
2.34	234	-0.039	-1.011	0.053	-0.0572958	0.1718874	-0.4010706	92.20040136	-1.7475219	-10.84036536
2.35	235	-0.038	-1.01	0.052	-0.3437748	0.0572958	-0.5156622	92.17175346	-1.75325148	-10.84036536
2.36	236	-0.037	-1.011	0.053	-0.6302538	0.2291832	-0.3437748	92.16602388	-1.7475219	-10.84036536
2.37	237	-0.036	-1.01	0.051	-0.859437	0.7448454	-0.1145916	92.15456472	-1.7475219	-10.8289062
2.38	238	-0.035	-1.009	0.044	-0.9740286	1.145916	0.286479	92.14883514	-1.75325148	-10.81744704
2.39	239	-0.037	-1.008	0.043	-0.8021412	1.2605076	0.4583664	92.13737598	-1.75898106	-10.80598788
2.4	240	-0.04	-1.006	0.042	-0.572958	1.145916	0.5156622	92.10872808	-1.77044022	-10.79452872
2.41	241	-0.042	-1.005	0.041	-0.3437748	0.9167328	0.4010706	92.1029985	-1.7761698	-10.78879914
2.42	242	-0.042	-1.004	0.042	-0.286479	0.859437	0.1145916	92.1029985	-1.7761698	-10.77733998
2.43	243	-0.04	-1.005	0.044	-0.1718874	0.6875496	-0.0572958	92.09726892	-1.7761698	-10.7716104
2.44	244	-0.039	-1.006	0.045	0	0.4583664	-0.1718874	92.09726892	-1.7761698	-10.76588082
2.45	245	-0.037	-1.006	0.043	-0.0572958	0.2291832	-0.2291832	92.01132522	-1.78189938	-10.76015124
2.46	246	-0.036	-1.006	0.044	0	-0.0572958	-0.2291832	92.01132522	-1.7761698	-10.76015124
2.47	247	-0.035	-1.004	0.045	-0.0572958	-0.2291832	-0.1718874	92.01132522	-1.7761698	-10.76588082
2.48	248	-0.033	-1.004	0.044	-0.0572958	-0.286479	0	92.00559564	-1.7761698	-10.76588082
2.49	249	-0.032	-1.004	0.046	0	-0.5156622	0.2291832	92.00559564	-1.7761698	-10.7716104
2.5	250	-0.032	-1.004	0.045	0.1718874	-0.7448454	0.4583664	91.9884069	-1.7761698	-10.77733998
2.51	251	-0.033	-1.003	0.045	0.3437748	-0.9167328	0.7448454	91.99413648	-1.78189938	-10.78879914
2.52	252	-0.039	-1.003	0.043	0.5156622	-0.8021412	0.8021412	91.99986606	-1.79335854	-10.8002583
2.53	253	-0.042	-1.003	0.045	0.7448454	-0.3437748	0.9167328	92.00559564	-1.79908812	-10.8002583
2.54	254	-0.041	-1.005	0.045	0.9167328	-0.1145916	0.7448454	92.0170548	-1.81054728	-10.8002583
2.55	255	-0.04	-1.003	0.045	1.0313244	-0.1145916	0.572958	92.00559564	-1.82200644	-10.80598788
2.56	256	-0.038	-1.002	0.044	0.9740286	-0.5156622	0.4010706	92.0170548	-1.82200644	-10.81171746
2.57	257	-0.037	-1.004	0.044	0.9740286	-0.9167328	0.2291832	92.02851396	-1.82773602	-10.81744704
2.58	258	-0.037	-1.007	0.045	0.859437	-1.0886202	0.1718874	92.03424354	-1.82773602	-10.8289062
2.59	259	-0.038	-1.01	0.045	0.7448454	-1.0886202	0.0572958	92.0457027	-1.82773602	-10.84036536
2.6	260	-0.039	-1.012	0.043	0.6302538	-0.7448454	0	92.02278438	-1.8334656	-10.84609494
2.61	261	-0.039	-1.01	0.042	0.6875496	-0.4583664	-0.0572958	92.02851396	-1.8334656	-10.85182452
2.62	262	-0.041	-1.007	0.042	0.7448454	-0.1718874	-0.1145916	92.03997312	-1.82773602	-10.8575541
2.63	263	-0.041	-1.006	0.043	0.8021412	0	-0.1145916	92.0457027	-1.82773602	-10.8575541
2.64	264	-0.041	-1.006	0.043	0.859437	0.1718874	-0.2291832	92.05716186	-1.82773602	-10.85182452
2.65	265	-0.04	-1.006	0.042	0.8021412	0.2291832	-0.3437748	92.03424354	-1.82773602	-10.85182452
2.66	266	-0.038	-1.006	0.041	0.7448454	0.1718874	-0.4010706	92.0457027	-1.82773602	-10.84609494
2.67	267	-0.036	-1.006	0.04	0.7448454	0.1145916	-0.572958	92.05143228	-1.82200644	-10.84609494
2.68	268	-0.034	-1.009	0.041	0.6302538	0.1145916	-0.4583664	92.05716186	-1.81627686	-10.84609494
2.69	269	-0.033	-1.011	0.04	0.6302538	0.0572958	-0.4010706	92.06289144	-1.81054728	-10.84609494
2.7	270	-0.033	-1.011	0.039	0.6302538	-0.286479	-0.2291832	92.02851396	-1.8048177	-10.84609494
2.71	271	-0.035	-1.011	0.041	0.572958	-0.572958	-0.1145916	92.03424354	-1.79908812	-10.85182452
2.72	272	-0.036	-1.011	0.04	0.6875496	-0.859437	0	92.03997312	-1.79908812	-10.8575541
2.73	273	-0.038	-1.01	0.039	0.5156622	-1.2032118	-0.1145916	92.0457027	-1.79908812	-10.86901326
2.74	274	-0.04	-1.012	0.036	0.5156622	-1.3750992	-0.1718874	92.05143228	-1.79335854	-10.886202
2.75	275	-0.04	-1.014	0.033	0.3437748	-1.3178034	-0.3437748	92.02278438	-1.79335854	-10.89766116
2.76	276	-0.04	-1.015	0.032	0.286479	-1.2605076	-0.5156622	92.02851396	-1.78762896	-10.90912032
2.77	277	-0.039	-1.015	0.03	0.1145916	-1.0886202	-0.572958	92.02851396	-1.78189938	-10.92057948
2.78	278	-0.039	-1.013	0.029	0	-1.0313244	-0.5156622	92.02851396	-1.7761698	-10.93203864
2.79	279	-0.039	-1.01	0.028	0	-1.0886202	-0.4583664	92.02851396	-1.77044022	-10.93776822
2.8	280	-0.038	-1.007	0.028	-0.1718874	-1.0886202	-0.286479	91.97694774	-1.77044022	-10.94922738
2.81	281	-0.036	-1.007	0.026	-0.2291832	-1.0313244	-0.1145916	91.97694774	-1.76471064	-10.96068654
2.82	282	-0.035	-1.006	0.027	-0.2291832	-1.2605076	0	91.97121816	-1.76471064	-10.9721457
2.83	283	-0.036	-1.008	0.029	0	-1.4896908	0.2291832	91.97121816	-1.76471064	-10.98933444
2.84	284	-0.037	-1.009	0.03	0.1145916	-1.432395	0.6302538	91.97694774	-1.77044022	-11.0007936
2.85	285	-0.039	-1.012	0.031	0.2291832	-1.432395	1.0886202	91.95402942	-1.78762896	-11.01798234
2.86	286	-0.043	-1.012	0.032	0.0572958	-1.2605076	1.5469866	91.95402942	-1.79908812	-11.0294415
2.87	287	-0.045	-1.01	0.031	-0.0572958	-1.145916	1.7761698	91.95402942	-1.81627686	-11.04090066
2.88	288	-0.047	-1.009	0.032	-0.4010706	-1.2032118	1.7761698	91.94829984	-1.8334656	-11.0580894
2.89	289	-0.05	-1.009	0.032	-0.7448454	-1.2032118	1.718874	91.94257026	-1.85065434	-11.06954856
2.9	290	-0.052	-1.008	0.031	-1.0886202	-1.2605076	1.4896908	91.91392236	-1.87930224	-11.08100772
2.91	291	-0.053	-1.008	0.032	-1.3750992	-1.3750992	1.3178034	91.9024632	-1.8907614	-11.09819646
2.92	292	-0.052	-1.007	0.029	-1.6042824	-1.2605076	1.2032118	91.88527446	-1.90222056	-11.10965562
2.93	293	-0.051	-1.007	0.029	-1.7761698	-1.3178034	1.0886202	91.86808572	-1.91367972	-11.12684436
2.94	294	-0.05	-1.007	0.027	-2.291832	-1.0313244	1.0313244	91.8451674	-1.92513888	-11.13830352
2.95	295	-0.048	-1.007	0.024	-2.6929026	-0.572958	0.9740286	91.79360118	-1.93659804	-11.1440331
2.96	296	-0.046	-1.006	0.022	-2.8074942	-0.286479	0.9740286	91.76495328	-1.9480572	-11.1440331
2.97	297	-0.044	-1.006	0.021	-2.9793816	0	0.9740286	91.73630538	-1.95951636	-11.1440331
2.98	298	-0.042	-1.008	0.019	-2.9220858	0.2291832	0.859437	91.7019279	-1.96524594	-11.1440331
2.99	299	-0.042	-1.009	0.015	-2.86479	0.1145916	0.7448454	91.67328	-1.9767051	-11.1440331
3	300	-0.043	-1.008	0.012	-2.9220858	0.1145916	0.572958	91.61025462	-1.98816426	-11.1440331
3.01	301	-0.044	-1.009	0.013	-2.86479	0.3437748	0.3437748	91.58160672	-1.98816426	-11.13830352
3.02	302	-0.042	-1.01	0.013	-2.9793816	0.7448454	0.1718874	91.55295882	-1.99389384	-11.13257394
3.03	303	-0.039	-1.009	0.012	-3.0366774	0.6302538	0.0572958	91.51858134	-1.99389384	-11.12684436
3.04	304	-0.035	-1.008	0.013	-3.0366774	0.1718874	-0.1718874	91.48993344	-1.99389384	-11.12111478
3.05	305	-0.031	-1.006	0.014	-3.2085648	0	-0.3437748	91.42690806	-1.98243468	-11.12111478
3.06	306	-0.029	-1.004	0.011	-3.2658606	-0.2291832	-0.5156622	91.39253058	-1.9767051	-11.12111478
3.07	307	-0.028	-1.004	0.013	-3.4950438	-0.859437	-0.6302538	91.3581531	-1.97097552	-11.13257394
3.08	308	-0.025	-1.004	0.017	-4.297185	-1.0886202	-0.7448454	91.31231646	-1.95951636	-11.1440331
3.09	309	-0.023	-1.004	0.016	-4.6982556	-1.2605076	-0.7448454	91.26647982	-1.95378678	-11.15549226
3.1	310	-0.018	-1.003	0.013	-4.9274388	-1.4896908	-0.6875496	91.20345444	-1.93659804	-11.172681
3.11	311	-0.016	-1.004	0.012	-4.6409598	-1.9480572	-0.5156622	91.1576178	-1.93086846	-11.18986974
3.12	312	-0.015	-1.008	0.008	-4.3544808	-2.3491278	-0.4583664	91.11178116	-1.92513888	-11.21278806
3.13	313	-0.015	-1.011	0.005	-4.2398892	-2.8074942	-0.4583664	91.0716741	-1.9194093	-11.24143596
3.14	314	-0.015	-1.014	0.006	-4.4117766	-3.437748	-0.6875496	91.02583746	-1.90795014	-11.27581344
3.15	315	-0.017	-1.021	0.005	-4.9847346	-4.1825934	-1.0886202	90.96854166	-1.8907614	-11.3159205
3.16	316	-0.02	-1.025	0.011	-5.7868758	-5.3285094	-1.3750992	90.91124586	-1.87357266	-11.3732163
3.17	317	-0.02	-1.028	0.022	-7.0473834	-5.9014674	-1.4896908	90.8424909	-1.8621135	-11.4305121
3.18	318	-0.019	-1.029	0.024	-8.021412	-5.6149884	-1.4896908	90.76227678	-1.84492476	-11.4878079
3.19	319	-0.018	-1.033	0.021	-8.880849	-5.5576926	-1.2032118	90.67633308	-1.82773602	-11.5451037
3.2	320	-0.018	-1.036	0.016	-9.9121734	-5.5576926	-0.7448454	90.57320064	-1.81627686	-11.59666992
3.21	321	-0.021	-1.035	0.011	-11.1153852	-5.3285094	-0.4010706	90.46433862	-1.81054728	-11.65396572
3.22	322	-0.02	-1.028	0.005	-12.3758928	-4.9274388	0	90.33828786	-1.81054728	-11.69980236
3.23	323	-0.024	-1.024	0.005	-13.9801752	-4.9274388	0.286479	90.20077794	-1.81054728	-11.75136858
3.24	324	-0.028	-1.022	0.007	-15.8709366	-4.870143	0.1718874	90.0403497	-1.81627686	-11.8029348
3.25	325	-0.029	-1.021	0.013	-17.0741484	-4.297185	0	89.8684623	-1.81627686	-11.84877144
3.26	326	-0.026	-1.019	0.009	-17.6471064	-4.2398892	-0.0572958	89.69084532	-1.81627686	-11.89460808
3.27	327	-0.027	-1.014	-0.002	-17.18874	-4.1825934	0	89.51895792	-1.81627686	-11.93471514
3.28	328	-0.034	-1.015	-0.014	-17.18874	-3.437748	-0.2291832	89.34707052	-1.81054728	-11.96909262
3.29	329	-0.042	-1.017	-0.019	-17.3606274	-2.7501984	-0.7448454	89.16945354	-1.8048177	-12.0034701
3.3	330	-0.043	-1.02	-0.031	-17.9335854	-1.2605076	-1.4896908	88.9803774	-1.79335854	-12.01492926
3.31	331	-0.043	-1.018	-0.047	-18.5638392	0.572958	-2.0626488	88.79130126	-1.7761698	-12.01492926
3.32	332	-0.034	-1.001	-0.053	-18.8503182	1.7761698	-2.291832	88.59649554	-1.75325148	-11.99774052
3.33	333	-0.024	-0.992	-0.057	-18.7930224	2.1199446	-2.5210152	88.4074194	-1.73033316	-11.98055178
3.34	334	-0.025	-0.996	-0.072	-18.907614	1.9480572	-2.9793816	88.21261368	-1.70168526	-11.96336304
3.35	335	-0.027	-0.998	-0.084	-19.1367972	2.2345362	-3.4950438	88.0063488	-1.66730778	-11.94044472
3.36	336	-0.018	-0.995	-0.081	-19.4232762	2.6929026	-4.1825934	87.81154308	-1.62720072	-11.9175264
3.37	337	-0.018	-0.998	-0.078	-19.9389384	2.4637194	-4.4690724	87.6052782	-1.58136408	-11.90033766
3.38	338	-0.024	-1.001	-0.081	-20.7983754	1.5469866	-4.870143	87.39328374	-1.53552744	-11.8888785
3.39	339	-0.029	-0.997	-0.087	-22.058883	1.145916	-5.72958	87.16983012	-1.47823164	-11.88314892
3.4	340	-0.033	-0.99	-0.092	-23.3766864	0.8021412	-6.8182002	86.92345818	-1.41520626	-11.87741934
3.41	341	-0.025	-0.994	-0.1	-25.78311	-0.1145916	-7.9068204	86.66562708	-1.34072172	-11.8888785
3.42	342	-0.016	-0.998	-0.108	-29.220858	-1.7761698	-8.7662574	86.36768892	-1.25477802	-11.91179682
3.43	343	-0.005	-1.001	-0.107	-32.8877892	-3.2085648	-9.8548776	86.03537328	-1.16310474	-11.95763346
3.44	344	0.003	-0.987	-0.115	-37.24227	-5.0993262	-11.745639	85.657221	-1.04851314	-12.02065884
3.45	345	0	-0.961	-0.136	-40.8519054	-6.9900876	-14.0947668	85.23896166	-0.9167328	-12.10087296
3.46	346	-0.009	-0.924	-0.148	-43.544808	-7.3338624	-16.5011904	84.80351358	-0.76203414	-12.19254624
3.47	347	-0.006	-0.896	-0.143	-46.3523022	-6.5317212	-18.334656	84.33368802	-0.59014674	-12.27848994
3.48	348	-0.01	-0.873	-0.147	-49.274388	-5.72958	-19.3086846	83.83521456	-0.40680018	-12.36443364
3.49	349	-0.014	-0.86	-0.169	-52.712136	-4.3544808	-19.5951636	83.29663404	-0.21772404	-12.4331886
3.5	350	-0.025	-0.856	-0.181	-55.863405	-2.1199446	-18.3919518	82.72367604	-0.04583664	-12.47902524
3.51	351	-0.022	-0.814	-0.181	-57.9833496	1.4896908	-15.4125702	82.13925888	0.09740286	-12.4904844
3.52	352	0	-0.758	-0.187	-59.0719698	5.7868758	-12.605076	81.53765298	0.21772404	-12.45610692
3.53	353	0.02	-0.707	-0.201	-59.4157446	10.5424272	-9.5683986	80.9303175	0.32085648	-12.3758928
3.54	354	0.031	-0.656	-0.205	-59.1292656	14.5531332	-5.3858052	80.3287116	0.38961144	-12.24411246
3.55	355	0.015	-0.621	-0.202	-57.582279	15.2406828	0.2291832	79.73856486	0.4010706	-12.10087296
3.56	356	-0.019	-0.596	-0.207	-54.717489	10.599723	7.5057498	79.1827956	0.33804522	-11.98628136
3.57	357	-0.079	-0.61	-0.223	-50.0192334	0.4583664	13.9228794	78.67859256	0.2005353	-11.96336304
3.58	358	-0.136	-0.66	-0.232	-44.3469492	-8.4797784	14.9542038	78.22595574	0.03437748	-12.02065884
3.59	359	-0.172	-0.746	-0.19	-40.5081306	-14.2666542	9.3392154	77.81915556	-0.08021412	-12.14098002
3.6	360	-0.173	-0.849	-0.143	-40.1643558	-14.9542038	0.4010706	77.41808496	-0.12605076	-12.29567868
3.61	361	-0.136	-0.944	-0.158	-39.3622146	-8.9954406	-6.4744254	77.01701436	-0.0859437	-12.39881112
3.62	362	-0.091	-0.984	-0.198	-36.2682414	-1.718874	-8.6516658	76.65032124	-0.01145916	-12.43891818
3.63	363	-0.075	-0.944	-0.212	-30.8824362	3.0366774	-5.9014674	76.33519434	0.04583664	-12.42745902
3.64	364	-0.094	-0.874	-0.209	-26.2414764	5.9587632	-1.0313244	76.06590408	0.06302538	-12.37016322
3.65	365	-0.1	-0.846	-0.213	-23.7204612	9.1100322	2.3491278	75.82526172	0.05156622	-12.28421952
3.66	366	-0.083	-0.877	-0.251	-24.6944898	12.5477802	4.6982556	75.5731602	0.0286479	-12.15243918
3.67	367	-0.035	-0.944	-0.33	-27.7311672	15.0687954	8.307891	75.2866812	-0.01718874	-11.98628136
3.68	368	0.047	-1.042	-0.451	-32.4867186	13.4072172	14.1520626	74.95436556	-0.12605076	-11.82585312
3.69	369	0.13	-1.083	-0.532	-35.6379876	5.6722842	20.2827132	74.59340202	-0.30939732	-11.72272068
3.7	370	0.145	-0.945	-0.388	-28.1895336	-9.3965112	20.6837838	74.30119344	-0.52139178	-11.75709816
3.71	371	0.113	-0.749	-0.223	-17.8762896	-19.6524594	13.5218088	74.12357646	-0.69900876	-11.91179682
3.72	372	0.039	-0.657	-0.219	-14.2093584	-19.3659804	3.437748	73.98606654	-0.78495246	-12.0894138
3.73	373	-0.017	-0.7	-0.258	-13.8655836	-14.2666542	-4.7555514	73.84855662	-0.7734933	-12.23838288
3.74	374	-0.077	-0.8	-0.327	-12.4331886	-7.5057498	-9.3392154	73.72823544	-0.70473834	-12.34151532
3.75	375	-0.126	-0.87	-0.392	-8.9381448	-0.9167328	-10.8289062	73.5964551	-0.63598338	-12.38162238
3.76	376	-0.153	-0.892	-0.445	-3.6096354	4.870143	-9.5683986	73.56207762	-0.52712136	-12.36443364
3.77	377	-0.153	-0.883	-0.458	1.5469866	9.6829902	-6.9327918	73.57353678	-0.44117766	-12.2899491
3.78	378	-0.14	-0.837	-0.334	8.6516658	11.8029348	-4.2398892	73.65948048	-0.36669312	-12.18681666
3.79	379	-0.096	-0.802	-0.223	10.1413566	9.167328	-1.8334656	73.76261292	-0.32658606	-12.10087296
3.8	380	-0.028	-0.79	-0.214	6.9900876	4.4117766	0	73.8256383	-0.3151269	-12.0607659
3.81	381	0.001	-0.824	-0.314	3.3231564	1.718874	1.145916	73.86001578	-0.32085648	-12.03784758
3.82	382	0.011	-0.87	-0.421	3.0939732	2.3491278	-0.1145916	73.88866368	-0.3151269	-12.01492926
3.83	383	0.018	-0.859	-0.475	5.0420304	5.6722842	-4.6982556	73.9402299	-0.25210152	-11.9748222
3.84	384	0.016	-0.85	-0.511	12.2040054	7.0473834	-9.2819196	74.06628066	-0.1432395	-11.92898556
3.85	385	0.03	-0.816	-0.498	17.8189938	8.59437	-13.5791046	74.21524974	0.00572958	-11.88314892
3.86	386	0.022	-0.813	-0.476	22.1734746	11.3445684	-15.6990492	74.43870336	0.18334656	-11.81439396
3.87	387	-0.033	-0.829	-0.425	23.8923486	13.9228794	-15.9855282	74.67934572	0.3724227	-11.7169911
3.88	388	-0.054	-0.841	-0.377	21.4286292	19.9389384	-15.2979786	74.89706976	0.572958	-11.56229244
3.89	389	-0.039	-0.852	-0.358	22.1161788	24.1788276	-12.7769634	75.12052338	0.75057498	-11.36175714
3.9	390	-0.024	-0.886	-0.351	22.4026578	23.3766864	-8.9954406	75.33824742	0.8880849	-11.16122184
3.91	391	-0.052	-0.907	-0.303	25.1528562	19.4232762	-5.8441716	75.59607852	0.99121734	-10.98360486
3.92	392	-0.078	-0.886	-0.271	24.637194	18.621135	-2.8074942	75.84245046	1.0599723	-10.80598788
3.93	393	-0.08	-0.83	-0.299	25.3247436	20.6837838	-0.6875496	76.10601114	1.1172681	-10.60545258
3.94	394	-0.065	-0.771	-0.339	26.9863218	20.626488	-0.4010706	76.38103098	1.16883432	-10.40491728
3.95	395	-0.04	-0.75	-0.36	31.3408026	17.0741484	-0.2291832	76.68469872	1.2032118	-10.23875946
3.96	396	0.004	-0.762	-0.265	35.6952834	10.313244	-0.6875496	77.04566226	1.2318597	-10.13562702
3.97	397	0.028	-0.77	-0.203	36.0390582	2.1772404	-3.0366774	77.41235538	1.27196676	-10.11843828
3.98	398	0.021	-0.74	-0.167	38.101707	0.5156622	-6.3598338	77.80196682	1.34072172	-10.12416786
3.99	399	0.022	-0.756	-0.112	45.2063862	3.2085648	-8.7662574	78.26033322	1.432395	-10.10697912
4	400	-0.037	-0.748	-0.084	40.6227222	7.6203414	-11.45916	78.67286298	1.55844576	-10.04968332
4.01	401	-0.059	-0.712	-0.107	37.5860448	13.6364004	-14.4385416	79.05674484	1.72460358	-9.9408213
4.02	402	-0.072	-0.687	-0.125	42.7426668	18.1054728	-16.7303736	79.49219292	1.92513888	-9.79185222
4.03	403	-0.048	-0.706	-0.063	46.1804148	22.2307704	-19.3086846	79.96201848	2.1485925	-9.60277608
4.04	404	-0.002	-0.702	-0.059	41.7686382	26.069589	-20.8556712	80.39173698	2.39496444	-9.37359288
4.05	405	0.026	-0.693	-0.085	37.2995658	27.5592798	-22.2307704	80.77561884	2.65279554	-9.1386801
4.06	406	0.009	-0.688	-0.114	28.4187168	26.2987722	-21.8296998	81.073557	2.90489706	-8.9094969
4.07	407	0.022	-0.647	-0.082	17.7044022	24.350715	-20.912967	81.26263314	3.14553942	-8.69750244
4.08	408	0.061	-0.586	-0.063	7.2192708	19.9389384	-19.5378678	81.34284726	3.35753388	-8.53134462
4.09	409	0.083	-0.55	-0.101	-0.6875496	13.2926256	-17.2460358	81.33711768	3.54661002	-8.42821218
4.1	410	0.105	-0.529	-0.073	-8.2505952	4.5263682	-13.1207382	81.25690356	3.68411994	-8.39956428
4.11	411	0.123	-0.531	-0.001	-16.1574156	-1.2605076	-8.5370742	81.09074574	3.76433406	-8.42821218
4.12	412	0.167	-0.548	0.003	-27.8457588	0	-4.4690724	80.80426674	3.80444112	-8.43967134
4.13	413	0.255	-0.513	-0.027	-38.0444112	-3.0366774	0.0572958	80.42038488	3.79871154	-8.47404882
4.14	414	0.342	-0.517	0.027	-37.1276784	-11.9175264	5.5003968	80.03650302	3.724227	-8.58291084
4.15	415	0.341	-0.622	0.073	-44.8053156	-19.4232762	11.0580894	79.57813662	3.59817624	-8.75479824
4.16	416	0.271	-0.644	0.019	-58.728195	-25.496631	18.048177	78.97080114	3.37472262	-8.97825186
4.17	417	0.217	-0.683	-0.077	-70.760313	-26.356068	23.3193906	78.24887406	3.0939732	-9.20170548
4.18	418	0.182	-0.662	-0.022	-74.0261736	-26.8717302	28.8197874	77.48683992	2.75592798	-9.40797036
4.19	419	0.119	-0.596	-0.196	-70.5884256	-19.6524594	32.3148312	76.77064242	2.40069402	-9.53402112
4.2	420	0.016	-0.59	-0.463	-63.2545632	-9.167328	33.804522	76.11174072	2.04546006	-9.55120986
4.21	421	-0.036	-0.535	-0.63	-48.8733174	-7.3911582	34.37748	75.61899684	1.6902261	-9.54548028
4.22	422	-0.082	-0.48	-0.782	-29.7365202	-20.8556712	31.7418732	75.3153291	1.33499214	-9.67153104
4.23	423	-0.153	-0.407	-0.557	-9.2819196	-43.3156248	30.2521824	75.21792624	0.9453807	-10.01530584
4.24	424	-0.155	-0.276	-0.488	8.8235532	-53.9726436	28.1895336	75.30959952	0.55576926	-10.46221308
4.25	425	-0.082	-0.206	-0.581	29.1635622	-53.0559108	23.4339822	75.58461936	0.21199446	-10.9148499
4.26	426	0.006	-0.191	-0.65	52.139178	-49.2170922	17.8189938	76.12319988	-0.05156622	-11.33883882
4.27	427	-0.009	-0.159	-0.488	82.9070226	-34.2628884	11.745639	76.97117772	-0.2291832	-11.63677698
4.28	428	-0.064	-0.116	-0.536	115.2791496	-25.7258142	5.5576926	78.14574162	-0.32085648	-11.86596018
4.29	429	-0.089	-0.143	-0.539	145.531332	-27.9030546	0.1718874	79.62397326	-0.34950438	-12.12379128
4.3	430	-0.093	-0.164	-0.474	171.6582168	-25.210152	0.4010706	81.360036	-0.37815228	-12.35297448
4.31	431	-0.198	-0.09	-0.43	195.6078612	-32.6013102	-0.1718874	83.35392984	-0.38961144	-12.65091264
4.32	432	-0.268	-0.299	-0.089	235.0846674	-35.4661002	-8.880849	85.7431647	-0.30366774	-12.98322828
4.33	433	-0.209	-0.543	0.164	272.4988248	-37.6433406	-16.2720072	88.51628142	-0.12605076	-13.33273266
4.34	434	0.001	-0.9	0.186	312.3194058	-36.8411994	-20.626488	91.69046874	0.10886202	-13.65931872
4.35	435	0.234	-1.344	0.671	342.055926	-32.7159018	-25.6112226	95.1683238	0.41825934	-13.92860898
4.36	436	0.238	-2.081	1.224	369.3860226	-28.1322378	-30.2521824	98.91546912	0.77922288	-14.11768512
4.37	437	0.041	-2.917	1.591	374.714532	-19.6524594	-40.2789474	102.7199102	1.23758928	-14.18644008
4.38	438	-0.045	-3.295	1.813	359.3019618	-14.037471	-41.4248634	106.3696527	1.6902261	-14.16352176
4.39	439	-0.186	-3.304	1.954	341.9413344	-12.0894138	-39.8778768	109.8417782	2.1199446	-14.10622596
4.4	440	-0.222	-2.688	1.957	319.9397472	-6.7036086	-25.0382646	113.09045	2.38923486	-14.037471
4.41	441	-0.147	-2.282	1.871	313.408026	-1.5469866	-7.0473834	116.2760965	2.46944898	-13.9801752
4.42	442	0.014	-2.12	1.807	302.1780492	7.5057498	-9.740286	119.3471514	2.5210152	-13.82547654
4.43	443	0.052	-1.787	1.556	282.5255898	19.480572	-19.2513888	122.2234006	2.58404058	-13.5218088
4.44	444	0.019	-1.382	1.202	280.462941	25.5539268	-19.0222056	125.082461	2.59549974	-13.17230442
4.45	445	0.159	-1.021	0.964	282.2391108	15.0114996	-9.1100322	127.9529806	2.578311	-12.96030996
4.46	446	0.349	-0.583	0.884	285.5622672	-2.6929026	1.145916	130.852148	2.58404058	-12.9488508
4.47	447	0.396	-0.511	0.825	295.1306658	-12.891555	7.5057498	133.8487184	2.61268848	-13.05198324
4.48	448	0.419	-0.585	0.728	294.7295952	-18.5638392	11.4018642	136.8338296	2.6642547	-13.21814106
4.49	449	0.205	0.032	1.024	287.911395	-21.5432208	8.9954406	139.7501858	2.75592798	-13.38429888
4.5	450	0.111	-0.149	1.055	592.7823468	-1.6615782	-7.6203414	145.7719744	2.79030546	-13.25251854
4.51	451	0.181	-0.09	0.882	500.5934046	-20.05353	-11.8029348	150.8541118	2.99657034	-13.18376358
4.52	452	-0.036	0.242	1.287	351.6243246	-11.0007936	-13.5218088	154.4350993	3.13408026	-13.06917198
4.53	453	-0.016	0.004	1.12	192.3992964	-21.2567418	-1.3178034	156.3831565	3.3231564	-13.11500862
4.54	454	-0.071	0.047	0.853	156.1883508	-16.2147114	-7.0473834	157.9759798	3.48358464	-13.08636072
4.55	455	0.066	-0.005	0.904	157.1623794	-0.286479	-9.6829902	159.5859917	3.51223254	-12.98322828
4.56	456	0.009	0.022	0.933	162.4908888	5.8441716	-4.0680018	161.2361108	3.46066632	-12.90301416
4.57	457	-0.013	0.086	0.96	194.2900578	-5.0993262	-11.745639	163.2185455	3.52942128	-12.78842256
4.58	458	0.023	0.218	1.19	230.5010034	-15.2979786	-19.7097552	165.5676733	3.70703826	-12.61080558
4.59	459	0.112	0.132	1.479	254.7371268	-4.5263682	-12.9488508	168.163173	3.7528749	-12.46756608
4.6	460	0.222	0.08	1.825	264.1909338	-12.6623718	-10.0840608	170.8560756	3.87319608	-12.35870406
4.61	461	0.173	-0.08	1.896	263.9044548	-11.4018642	0.0572958	173.537519	3.95913978	-12.3472449
4.62	462	0.239	-0.538	2.058	255.9976344	-17.8189938	3.3804522	176.1387484	4.10237928	-12.37016322
4.63	463	0.139	-0.714	2.199	260.8104816	-16.3865988	8.1932994	178.7800847	4.23415962	-12.42745902
4.64	464	0.008	-0.168	2.299	251.0128998	-5.72958	4.0680018	-178.6654931	4.26280752	-12.45037734
4.65	465	0.11	0.061	2.31	214.85925	4.2398892	-1.4896908	-176.4825232	4.19405256	-12.42172944
4.66	466	0.037	0.196	2.026	177.9607548	-4.1252976	-7.7922288	-174.6719759	4.20551172	-12.32432658
4.67	467	0.014	0.25	1.948	146.1615858	-5.9587632	-9.9694692	-173.1765555	4.2398892	-12.20973498
4.68	468	-0.034	0.222	1.685	101.5854534	-1.4896908	-11.1153852	-172.1395015	4.22270046	-12.0894138
4.69	469	-0.115	0.288	1.365	84.7404882	10.2559482	-14.4958374	-171.2686054	4.09092012	-11.95763346
4.7	470	-0.038	0.32	1.116	88.4647152	26.5852512	-10.2559482	-170.3633317	3.80444112	-11.90033766
4.71	471	0.029	-0.924	1.327	31.226211	23.777757	-29.4500412	-170.0367457	3.51796212	-11.6596953
4.72	472	0.012	0.174	0.96	4.1825934	37.0130868	-10.0840608	-169.9966386	3.14553942	-11.6310474
4.73	473	0.003	-0.446	1.065	-9.1100322	38.9038482	-8.7089616	-170.0940415	2.7501984	-11.62531782
4.74	474	0.172	0.485	0.716	-19.3086846	43.0291458	4.297185	-170.3003063	2.34339822	-11.75136858
4.75	475	0.132	0.488	0.722	-27.8457588	36.6120162	2.578311	-170.5409487	2.005353	-11.84877144
4.76	476	0.07	0.498	0.644	-12.6623718	36.096354	6.875496	-170.6784586	1.66730778	-11.98628136
4.77	477	0.073	0.211	0.784	-31.8564648	34.3201842	3.0939732	-171.0050447	1.34072172	-12.08368422
4.78	478	0.069	0.708	0.679	-39.4195104	36.5547204	8.6516658	-171.4175744	1.00840608	-12.2326533
4.79	479	0.056	0.574	0.667	-44.977203	33.3461556	7.7922288	-171.8759408	0.69900876	-12.37016322
4.8	480	0.048	0.195	0.729	-42.5134836	28.9916748	5.8441716	-172.3285777	0.4297185	-12.47902524
4.81	481	0.023	0.656	0.457	-59.6449278	23.3193906	4.583664	-172.9359131	0.21772404	-12.56496894
4.82	482	0.03	0.367	0.537	-39.1330314	13.5791046	1.145916	-173.3369837	0.0859437	-12.59934642
4.83	483	0.008	0.429	0.532	-33.6326346	13.178034	0.3437748	-173.6807585	-0.0286479	-12.62226474
4.84	484	-0.012	0.279	0.643	-24.7517856	15.756345	-0.572958	-173.9328601	-0.18334656	-12.63945348
4.85	485	-0.03	0.199	0.797	-21.5432208	14.9542038	-0.4583664	-174.1620433	-0.33804522	-12.65664222
4.86	486	-0.048	0.08	0.974	-25.8404058	16.329303	-0.9167328	-174.4256039	-0.49847346	-12.66810138
4.87	487	-0.043	0.088	1.037	-31.8564648	18.3919518	-1.718874	-174.75219	-0.67609044	-12.67383096
4.88	488	-0.024	0.115	1.056	-35.809875	19.9962342	-1.9480572	-175.1188831	-0.87089616	-12.67956054
4.89	489	-0.018	0.23	1.077	-37.9298196	20.5118964	-1.432395	-175.502765	-1.06570188	-12.6910197
4.9	490	-0.072	0.006	1.183	-43.4302164	19.5951636	-1.718874	-175.9554018	-1.2605076	-12.69674928
4.91	491	-0.043	0.019	1.192	-43.7739912	20.2254174	-2.6929026	-176.402309	-1.45531332	-12.6910197
4.92	492	-0.081	0.019	1.171	-41.1956802	18.7930224	-3.2085648	-176.826298	-1.63865988	-12.67956054
4.93	493	-0.039	0.04	1.161	-31.4553942	18.2773602	-3.8961144	-177.1471544	-1.81627686	-12.65664222
4.94	494	-0.053	0.173	1.119	-22.2307704	17.9335854	-3.724227	-177.3763376	-1.99389384	-12.6337239
4.95	495	-0.053	0.057	1.114	-17.0741484	15.756345	-3.437748	-177.5539546	-2.1485925	-12.61080558
4.96	496	-0.075	0.04	1.109	-12.8342592	14.32395	-3.3804522	-177.685735	-2.291832	-12.58788726
4.97	497	-0.03	0.035	1.083	-10.313244	11.9175264	-2.9220858	-177.794597	-2.4064236	-12.57069852
4.98	498	-0.066	0.08	1.038	-8.880849	9.8548776	-2.1772404	-177.8862703	-2.50382646	-12.55350978
4.99	499	-0.063	0.049	1.052	-9.3392154	7.5630456	-2.2345362	-177.9836731	-2.578311	-12.53632104
5	500	-0.04	0.032	1.038	-9.2819196	5.3858052	-1.5469866	-178.0982647	-2.62414764	-12.52486188
5.01	501	-0.068	-0.055	1.024	-16.5011904	1.432395	-1.0313244	-178.2644225	-2.6356068	-12.51340272
5.02	502	-0.055	0.047	0.953	-15.3552744	-0.9167328	-0.0572958	-178.4248508	-2.62414764	-12.51340272
5.03	503	-0.032	0.053	0.938	-15.9855282	-2.291832	0.0572958	-178.585279	-2.60122932	-12.51340272
5.04	504	-0.06	0.158	0.92	-10.313244	-2.4064236	0.1718874	-178.6884115	-2.578311	-12.5191323
5.05	505	-0.063	0.098	0.939	-11.2872726	-3.0939732	-0.3437748	-178.7686256	-2.54393352	-12.51340272
5.06	506	-0.059	0.241	0.924	-4.1252976	-4.297185	-0.7448454	-178.8087326	-2.50382646	-12.50767314
5.07	507	-0.09	-0.104	1.005	-10.1413566	-3.8388186	-2.1199446	-178.9118651	-2.4637194	-12.48475482
5.08	508	-0.079	-0.103	0.946	-11.5737516	-6.302538	-0.3437748	-179.0264567	-2.40069402	-12.47902524
5.09	509	-0.044	-0.105	0.944	-12.605076	-7.8495246	0.4583664	-179.158237	-2.3204799	-12.47902524
5.1	510	-0.068	-0.065	0.961	-15.2979786	-7.5057498	0.2291832	-179.3186653	-2.24599536	-12.47902524
5.11	511	-0.062	-0.015	0.961	-12.7196676	-6.1306506	0	-179.4504456	-2.18296998	-12.47902524
5.12	512	-0.064	-0.016	1.005	-12.1467096	-4.870143	-0.286479	-179.5707668	-2.13140376	-12.47329566
5.13	513	-0.062	-0.019	1.027	-11.45916	-3.437748	-0.3437748	-179.691088	-2.09702628	-12.47329566
5.14	514	-0.057	0.213	1.015	-6.9900876	-1.718874	-0.4583664	-179.7598429	-2.07983754	-12.46756608
5.15	515	-0.034	-0.174	1.041	-7.3338624	-2.6356068	-0.9167328	-179.9317303	-2.04546006	-12.45037734
5.16	516	-0.041	-0.083	1.01	-5.6149884	-4.583664	0.0572958	-179.9890261	-1.99962342	-12.45037734
5.17	517	-0.039	-0.044	1.008	-4.8128472	-4.870143	0.2291832	179.9603782	-1.95378678	-12.45610692
5.18	518	-0.042	-0.013	1.015	-4.5263682	-4.8128472	0.1718874	179.9145416	-1.90222056	-12.45610692
5.19	519	-0.045	-0.02	1.018	-5.5003968	-5.5003968	0.2291832	179.8572458	-1.85065434	-12.45610692
5.2	520	-0.041	-0.011	1.013	-6.2452422	-6.4171296	0.4583664	179.7884908	-1.78762896	-12.4618365
5.21	521	-0.044	-0.007	1.001	-6.7609044	-6.7036086	0.5156622	179.7197359	-1.72460358	-12.46756608
5.22	522	-0.039	0.004	0.987	-7.2765666	-6.3598338	0.5156622	179.6452513	-1.65584862	-12.46756608
5.23	523	-0.042	0.002	0.988	-7.9641162	-5.72958	0.4583664	179.5650372	-1.59855282	-12.47329566
5.24	524	-0.049	0.004	0.997	-8.7662574	-4.9274388	0.2291832	179.4790935	-1.55271618	-12.47329566
5.25	525	-0.03	0.003	0.999	-8.9954406	-3.437748	0.0572958	179.3874202	-1.5183387	-12.47902524
5.26	526	-0.035	-0.003	1.006	-8.5370742	-2.7501984	0.0572958	179.3014765	-1.4896908	-12.47902524
5.27	527	-0.042	-0.003	1.01	-7.7922288	-2.4637194	0	179.2212624	-1.4610429	-12.47902524
5.28	528	-0.04	-0.002	1.012	-7.0473834	-2.3491278	0	179.1525074	-1.43812458	-12.47902524
5.29	529	-0.038	-0.003	1.015	-6.302538	-1.9480572	-0.1145916	179.0894821	-1.41520626	-12.47902524
5.3	530	-0.035	0	1.019	-5.7868758	-1.432395	-0.1145916	179.0379158	-1.40947668	-12.47902524
5.31	531	-0.036	-0.001	1.021	-5.3285094	-0.9167328	-0.1145916	178.98062	-1.39801752	-12.47902524
5.32	532	-0.033	-0.003	1.024	-4.583664	-0.3437748	-0.1145916	178.9347834	-1.39801752	-12.47329566
5.33	533	-0.035	-0.003	1.027	-3.4950438	0.2291832	0	178.9004059	-1.39801752	-12.47329566
5.34	534	-0.035	-0.007	1.024	-2.86479	0.7448454	-0.0572958	178.871758	-1.4037471	-12.47329566
5.35	535	-0.037	-0.004	1.019	-2.4064236	0.9740286	0	178.8602989	-1.432395	-12.47902524
5.36	536	-0.037	-0.003	1.013	-2.005353	1.0886202	-0.0572958	178.8431101	-1.44385416	-12.47902524
5.37	537	-0.037	-0.004	1.009	-2.005353	1.2605076	-0.286479	178.8201918	-1.45531332	-12.47329566
5.38	538	-0.039	-0.007	1.008	-2.291832	1.3178034	-0.3437748	178.7972735	-1.47250206	-12.46756608
5.39	539	-0.039	-0.011	1.01	-2.9220858	1.432395	-0.3437748	178.762896	-1.48396122	-12.46756608
5.4	540	-0.039	-0.015	1.006	-3.4950438	1.718874	-0.5156622	178.7285185	-1.51260912	-12.4618365
5.41	541	-0.039	-0.018	0.999	-3.9534102	2.1199446	-0.5156622	178.6884115	-1.53552744	-12.45610692
5.42	542	-0.04	-0.016	0.994	-3.3804522	2.0626488	-0.4583664	178.654034	-1.55271618	-12.45037734
5.43	543	-0.04	-0.013	0.995	-2.1772404	2.1199446	-0.4583664	178.6311157	-1.5756345	-12.45037734
5.44	544	-0.043	-0.011	0.999	-0.6875496	2.0626488	-0.4010706	178.6196565	-1.59282324	-12.44464776
5.45	545	-0.041	-0.014	1.002	0.1145916	1.8907614	-0.4583664	178.6253861	-1.64438946	-12.44464776
5.46	546	-0.042	-0.015	1.005	0.3437748	1.8907614	-0.4583664	178.6253861	-1.6615782	-12.43891818
5.47	547	-0.041	-0.016	1.014	0.4010706	1.7761698	-0.5156622	178.6311157	-1.67876694	-12.4331886
5.48	548	-0.041	-0.018	1.024	0.286479	1.718874	-0.572958	178.6311157	-1.69595568	-12.42745902
5.49	549	-0.043	-0.019	1.034	0.1145916	1.718874	-0.5156622	178.6368452	-1.71314442	-12.42172944
5.5	550	-0.042	-0.019	1.036	-0.1718874	1.6042824	-0.5156622	178.6311157	-1.7475219	-12.41599986
5.51	551	-0.042	-0.018	1.035	-0.5156622	1.3750992	-0.4010706	178.6253861	-1.75898106	-12.41027028
5.52	552	-0.042	-0.018	1.03	-0.572958	1.145916	-0.4010706	178.6139269	-1.77044022	-12.41027028
5.53	553	-0.043	-0.018	1.023	-0.572958	0.9167328	-0.3437748	178.6081973	-1.78189938	-12.4045407
5.54	554	-0.043	-0.02	1.017	-0.4583664	0.6875496	-0.3437748	178.6024678	-1.78762896	-12.39881112
5.55	555	-0.042	-0.02	1.016	-0.5156622	0.4583664	-0.3437748	178.585279	-1.82773602	-12.39881112
5.56	556	-0.043	-0.021	1.018	-0.8021412	0.3437748	-0.3437748	178.5738199	-1.8334656	-12.39881112
5.57	557	-0.043	-0.022	1.021	-1.2032118	0.286479	-0.2291832	178.5623607	-1.8334656	-12.39308154
5.58	558	-0.044	-0.021	1.021	-1.3750992	0.286479	-0.2291832	178.5509015	-1.83919518	-12.39308154
5.59	559	-0.043	-0.019	1.021	-1.4896908	0.1718874	-0.1718874	178.5337128	-1.83919518	-12.38735196
5.6	560	-0.044	-0.019	1.02	-1.718874	0	-0.1718874	178.5165241	-1.86784308	-12.38735196
5.61	561	-0.045	-0.018	1.017	-2.0626488	-0.0572958	-0.1718874	178.4936057	-1.86784308	-12.38735196
5.62	562	-0.043	-0.02	1.014	-2.291832	-0.286479	-0.1145916	178.4706874	-1.8621135	-12.38735196
5.63	563	-0.043	-0.02	1.016	-2.4064236	-0.6302538	-0.1145916	178.4477691	-1.85638392	-12.38735196
5.64	564	-0.043	-0.02	1.016	-2.5210152	-0.6875496	-0.1145916	178.4191212	-1.84492476	-12.38162238
5.65	565	-0.045	-0.02	1.02	-2.4637194	-0.6302538	-0.1145916	178.4019325	-1.85638392	-12.38162238
5.66	566	-0.043	-0.02	1.016	-2.291832	-0.5156622	-0.0572958	178.3732846	-1.85065434	-12.38162238
5.67	567	-0.044	-0.02	1.014	-1.8907614	-0.6302538	-0.0572958	178.3560958	-1.84492476	-12.38162238
5.68	568	-0.043	-0.02	1.015	-1.6615782	-0.6302538	-0.0572958	178.3389071	-1.83919518	-12.38162238
5.69	569	-0.042	-0.02	1.016	-1.7761698	-0.5156622	-0.1145916	178.3217183	-1.8334656	-12.38162238
5.7	570	-0.042	-0.021	1.016	-2.1772404	-0.4583664	-0.1145916	178.2988	-1.84492476	-12.38162238
5.71	571	-0.043	-0.02	1.018	-2.291832	-0.6302538	-0.1145916	178.2758817	-1.83919518	-12.38162238
5.72	572	-0.043	-0.022	1.018	-1.9480572	-0.6875496	-0.1718874	178.2529634	-1.8334656	-12.3758928
5.73	573	-0.041	-0.022	1.017	-1.4896908	-0.3437748	-0.0572958	178.2415042	-1.82773602	-12.3758928
5.74	574	-0.041	-0.022	1.017	-1.3178034	-0.0572958	-0.1145916	178.2243155	-1.82773602	-12.3758928
5.75	575	-0.041	-0.023	1.018	-1.2032118	0.0572958	-0.1145916	178.2128563	-1.85638392	-12.3758928
5.76	576	-0.041	-0.024	1.019	-1.0886202	0.1145916	-0.1145916	178.2013972	-1.85638392	-12.3758928
5.77	577	-0.041	-0.023	1.018	-1.0313244	0.4010706	-0.1145916	178.189938	-1.8621135	-12.37016322
5.78	578	-0.041	-0.024	1.017	-0.6302538	0.4010706	-0.1718874	178.1842084	-1.86784308	-12.37016322
5.79	579	-0.041	-0.023	1.018	-0.4010706	0.286479	-0.286479	178.1784788	-1.86784308	-12.37016322
5.8	580	-0.041	-0.023	1.017	-0.1718874	0.2291832	-0.286479	178.1956676	-1.91367972	-12.37016322
5.81	581	-0.041	-0.024	1.017	-0.1145916	0.286479	-0.286479	178.1956676	-1.91367972	-12.36443364
5.82	582	-0.042	-0.024	1.018	-0.4010706	0.4010706	-0.3437748	178.189938	-1.9194093	-12.36443364
5.83	583	-0.04	-0.026	1.018	-0.7448454	0.572958	-0.286479	178.1784788	-1.92513888	-12.35870406
5.84	584	-0.041	-0.027	1.017	-0.9167328	0.859437	-0.286479	178.1727493	-1.93086846	-12.35870406
5.85	585	-0.042	-0.028	1.017	-0.9740286	1.0313244	-0.4010706	178.1555605	-1.95378678	-12.35297448
5.86	586	-0.042	-0.027	1.021	-0.9167328	1.0886202	-0.3437748	178.1441014	-1.96524594	-12.3472449
5.87	587	-0.042	-0.028	1.019	-1.0313244	1.0886202	-0.3437748	178.1326422	-1.9767051	-12.3472449
5.88	588	-0.043	-0.028	1.015	-1.145916	1.0886202	-0.3437748	178.121183	-1.98816426	-12.34151532
5.89	589	-0.044	-0.028	1.011	-1.2032118	0.9167328	-0.3437748	178.1097239	-1.99389384	-12.33578574
5.9	590	-0.044	-0.027	1.01	-0.9740286	0.6875496	-0.3437748	178.0925351	-2.02254174	-12.33578574
5.91	591	-0.043	-0.026	1.009	-0.8021412	0.6302538	-0.286479	178.081076	-2.02827132	-12.33005616
5.92	592	-0.043	-0.027	1.012	-0.7448454	0.4583664	-0.2291832	178.0753464	-2.0340009	-12.33005616
5.93	593	-0.044	-0.026	1.013	-0.859437	0.286479	-0.3437748	178.0638872	-2.03973048	-12.32432658
5.94	594	-0.043	-0.027	1.015	-0.9740286	0.3437748	-0.286479	178.0581577	-2.03973048	-12.32432658
5.95	595	-0.044	-0.027	1.016	-0.9167328	0.2291832	-0.2291832	178.0466985	-2.0626488	-12.32432658
5.96	596	-0.044	-0.027	1.018	-0.9740286	0.1718874	-0.2291832	178.0352393	-2.0626488	-12.318597
5.97	597	-0.044	-0.027	1.019	-0.9167328	0.286479	-0.2291832	178.0237802	-2.06837838	-12.318597
5.98	598	-0.043	-0.027	1.018	-0.859437	0.286479	-0.1718874	178.012321	-2.06837838	-12.318597
5.99	599	-0.044	-0.026	1.018	-0.859437	0.286479	-0.2291832	178.0065914	-2.07410796	-12.31286742
6	600	-0.044	-0.027	1.017	-0.8021412	0.286479	-0.1718874	178.0008619	-2.0912967	-12.31286742
6.01	601	-0.043	-0.027	1.018	-0.7448454	0.2291832	-0.1718874	177.9951323	-2.09702628	-12.31286742
6.02	602	-0.043	-0.027	1.017	-0.6302538	0.1718874	-0.1718874	177.9894027	-2.09702628	-12.30713784
6.03	603	-0.044	-0.028	1.017	-0.572958	0.1718874	-0.1718874	177.9836731	-2.09702628	-12.30713784
6.04	604	-0.044	-0.028	1.015	-0.4583664	0.1718874	-0.1718874	177.9779435	-2.10275586	-12.30713784
6.05	605	-0.043	-0.029	1.015	-0.3437748	0.2291832	-0.1718874	177.9664844	-2.13140376	-12.30713784
6.06	606	-0.043	-0.028	1.015	-0.2291832	0.286479	-0.1718874	177.9664844	-2.13713334	-12.30140826
6.07	607	-0.044	-0.029	1.015	-0.1718874	0.1718874	-0.1145916	177.9607548	-2.13713334	-12.30140826
6.08	608	-0.044	-0.028	1.015	-0.2291832	0.286479	-0.1718874	177.9607548	-2.13713334	-12.30140826
6.09	609	-0.044	-0.029	1.017	-0.0572958	0.286479	-0.1145916	177.9607548	-2.14286292	-12.29567868
6.1	610	-0.044	-0.028	1.017	0	0.286479	-0.1145916	177.9664844	-2.20015872	-12.30140826
6.11	611	-0.044	-0.028	1.018	0	0.3437748	-0.1718874	177.9664844	-2.2058883	-12.29567868
6.12	612	-0.044	-0.029	1.02	0.0572958	0.1718874	-0.1718874	177.9664844	-2.2058883	-12.29567868
6.13	613	-0.044	-0.027	1.019	0.6875496	-0.1145916	0.0572958	177.972214	-2.2058883	-12.29567868
6.14	614	-0.044	-0.026	1.019	0.859437	-0.1718874	0	177.9836731	-2.2058883	-12.29567868
6.15	615	-0.045	-0.027	1.018	0.9740286	-0.1718874	0	177.9951323	-2.21161788	-12.29567868
6.16	616	-0.044	-0.027	1.018	1.0886202	-0.1718874	0	178.0065914	-2.21161788	-12.29567868
6.17	617	-0.044	-0.027	1.017	1.145916	-0.1145916	0.0572958	178.0180506	-2.2058883	-12.30140826
6.18	618	-0.044	-0.029	1.015	1.2605076	-0.0572958	0.0572958	178.0352393	-2.2058883	-12.30140826
6.19	619	-0.043	-0.029	1.016	1.2605076	0	0	178.0466985	-2.2058883	-12.30140826
6.2	620	-0.044	-0.028	1.018	1.3178034	0	0	178.0581577	-2.21734746	-12.30140826
6.21	621	-0.045	-0.027	1.019	1.2032118	-0.0572958	0	178.0696168	-2.21734746	-12.30140826
6.22	622	-0.045	-0.027	1.019	1.2032118	-0.0572958	0.0572958	178.0868056	-2.21734746	-12.30140826
6.23	623	-0.045	-0.027	1.018	1.2032118	-0.0572958	0.0572958	178.0982647	-2.21161788	-12.30140826
6.24	624	-0.044	-0.028	1.015	1.145916	-0.1145916	0	178.1097239	-2.21161788	-12.30140826
6.25	625	-0.045	-0.029	1.014	1.2032118	-0.1145916	0.0572958	178.1097239	-2.22307704	-12.30140826
6.26	626	-0.044	-0.029	1.015	1.2605076	-0.2291832	0	178.121183	-2.21734746	-12.30140826
6.27	627	-0.045	-0.028	1.016	1.2032118	-0.2291832	0.0572958	178.1383718	-2.21734746	-12.30140826
6.28	628	-0.044	-0.029	1.016	1.145916	-0.1718874	0.0572958	178.1498309	-2.21734746	-12.30140826
6.29	629	-0.045	-0.028	1.019	0.9167328	-0.3437748	0.0572958	178.1555605	-2.21161788	-12.30140826
6.3	630	-0.045	-0.029	1.017	0.9167328	-0.3437748	0.0572958	178.1612901	-2.22307704	-12.30140826
6.31	631	-0.045	-0.028	1.017	0.9167328	-0.2291832	0	178.1670197	-2.21734746	-12.30713784
6.32	632	-0.045	-0.029	1.015	1.0313244	-0.2291832	0.0572958	178.1784788	-2.21734746	-12.30713784
6.33	633	-0.045	-0.028	1.015	1.145916	-0.286479	0.0572958	178.189938	-2.21734746	-12.30713784
6.34	634	-0.044	-0.028	1.018	0.9740286	-0.2291832	0.0572958	178.2013972	-2.21161788	-12.30713784
6.35	635	-0.045	-0.027	1.019	0.6875496	-0.2291832	0.0572958	178.1956676	-2.22880662	-12.30713784
6.36	636	-0.045	-0.027	1.021	0.4010706	-0.4583664	0.0572958	178.2013972	-2.22880662	-12.30713784
6.37	637	-0.044	-0.027	1.022	0.572958	-0.6302538	0.0572958	178.2071267	-2.22307704	-12.30713784
6.38	638	-0.045	-0.026	1.02	0.6875496	-0.5156622	0.0572958	178.2128563	-2.21734746	-12.31286742
6.39	639	-0.045	-0.028	1.016	0.7448454	-0.2291832	0.1145916	178.2185859	-2.21161788	-12.31286742
6.4	640	-0.044	-0.028	1.014	0.7448454	-0.1718874	0.1145916	178.2185859	-2.2345362	-12.31286742
6.41	641	-0.045	-0.026	1.016	0.6875496	-0.1718874	0.0572958	178.2243155	-2.22880662	-12.31286742
6.42	642	-0.046	-0.027	1.017	0	0	0.0572958	178.2243155	-2.22880662	-12.31286742
6.43	643	-0.046	-0.026	1.016	-0.2291832	0	0	178.2185859	-2.22880662	-12.31286742
6.44	644	-0.045	-0.025	1.016	-0.1718874	0	0	178.2185859	-2.22880662	-12.31286742
6.45	645	-0.045	-0.026	1.016	-0.1145916	-0.2291832	0	178.2013972	-2.25745452	-12.31286742
6.46	646	-0.045	-0.025	1.017	-0.0572958	-0.3437748	0	178.2013972	-2.25172494	-12.31286742
6.47	647	-0.044	-0.026	1.016	-0.0572958	-0.2291832	0	178.2013972	-2.25172494	-12.318597
6.48	648	-0.045	-0.027	1.019	0	-0.2291832	0	178.2013972	-2.24599536	-12.318597
6.49	649	-0.045	-0.027	1.019	0.1145916	-0.2291832	0	178.2013972	-2.24599536	-12.31286742
6.5	650	-0.044	-0.027	1.019	0.1145916	-0.1145916	0	178.1842084	-2.27464326	-12.318597
6.51	651	-0.044	-0.027	1.018	0.1145916	-0.0572958	0	178.189938	-2.27464326	-12.318597
6.52	652	-0.044	-0.028	1.018	0.1718874	-0.0572958	0	178.189938	-2.27464326	-12.31286742
6.53	653	-0.045	-0.027	1.019	0	-0.0572958	-0.0572958	178.189938	-2.27464326	-12.31286742
6.54	654	-0.043	-0.027	1.018	-0.0572958	-0.0572958	0	178.189938	-2.27464326	-12.31286742
6.55	655	-0.045	-0.026	1.017	-0.1718874	0	0	178.1784788	-2.30329116	-12.318597
6.56	656	-0.045	-0.027	1.015	-0.1145916	0.0572958	0	178.1784788	-2.30329116	-12.31286742
6.57	657	-0.044	-0.028	1.013	0	0	0	178.1784788	-2.30329116	-12.31286742
6.58	658	-0.044	-0.029	1.014	0	0	0	178.1784788	-2.30329116	-12.31286742
6.59	659	-0.045	-0.028	1.016	-0.1145916	0.0572958	0	178.1727493	-2.30329116	-12.31286742
6.6	660	-0.045	-0.028	1.018	-0.2291832	0.0572958	0	178.1498309	-2.32620948	-12.31286742
6.61	661	-0.045	-0.027	1.018	-0.4010706	0	0	178.1441014	-2.32620948	-12.31286742
6.62	662	-0.046	-0.028	1.018	-0.2291832	-0.0572958	0	178.1441014	-2.32620948	-12.31286742
6.63	663	-0.045	-0.027	1.018	-0.1145916	0	0	178.1383718	-2.32620948	-12.31286742
6.64	664	-0.045	-0.027	1.017	-0.1718874	0	0	178.1383718	-2.32620948	-12.31286742
6.65	665	-0.044	-0.026	1.018	-0.1718874	0.0572958	0	178.1383718	-2.33766864	-12.31286742
6.66	666	-0.046	-0.027	1.017	-0.1718874	0.0572958	0	178.1326422	-2.33766864	-12.31286742
6.67	667	-0.044	-0.027	1.017	-0.2291832	0.0572958	0	178.1326422	-2.33766864	-12.31286742
6.68	668	-0.046	-0.026	1.016	-0.2291832	0.0572958	0	178.1326422	-2.33766864	-12.31286742
6.69	669	-0.045	-0.026	1.018	-0.2291832	0	-0.0572958	178.1269126	-2.33766864	-12.31286742
6.7	670	-0.045	-0.025	1.017	-0.1718874	0	-0.0572958	178.1269126	-2.3491278	-12.31286742
6.71	671	-0.045	-0.027	1.017	0	-0.0572958	0	178.1269126	-2.3491278	-12.31286742
6.72	672	-0.045	-0.026	1.018	0	0	0	178.1269126	-2.3491278	-12.31286742
6.73	673	-0.044	-0.026	1.019	0	0	0	178.121183	-2.3491278	-12.31286742
6.74	674	-0.045	-0.025	1.018	0	0	0	178.121183	-2.3491278	-12.31286742
6.75	675	-0.045	-0.026	1.017	0	0.0572958	0	178.1269126	-2.3777757	-12.31286742
6.76	676	-0.046	-0.026	1.017	0.0572958	-0.0572958	0	178.1269126	-2.3777757	-12.31286742
6.77	677	-0.046	-0.026	1.017	0	0	0	178.1269126	-2.3777757	-12.31286742
6.78	678	-0.045	-0.026	1.019	0	0.0572958	0	178.1269126	-2.3777757	-12.31286742
6.79	679	-0.045	-0.026	1.018	0	0.1145916	-0.1145916	178.1269126	-2.3777757	-12.31286742
6.8	680	-0.046	-0.026	1.018	0	0.1145916	0	178.121183	-2.4064236	-12.31286742
6.81	681	-0.046	-0.026	1.019	0	0.0572958	0	178.121183	-2.4064236	-12.31286742
6.82	682	-0.045	-0.026	1.019	-0.0572958	0.1145916	0	178.121183	-2.4064236	-12.31286742
6.83	683	-0.045	-0.026	1.019	0	0.1145916	0	178.1154535	-2.4064236	-12.31286742
6.84	684	-0.046	-0.026	1.016	0	0.1145916	0	178.1154535	-2.4064236	-12.31286742
6.85	685	-0.045	-0.027	1.016	0	0	0	178.0982647	-2.42361234	-12.31286742
6.86	686	-0.045	-0.027	1.017	0	0	0	178.0982647	-2.42361234	-12.31286742
6.87	687	-0.045	-0.027	1.017	0	0	0	178.0982647	-2.42361234	-12.31286742
6.88	688	-0.045	-0.027	1.017	-0.1145916	0	0	178.0982647	-2.42361234	-12.31286742
6.89	689	-0.045	-0.026	1.019	-0.2291832	-0.0572958	0	178.0925351	-2.42361234	-12.31286742
6.9	690	-0.046	-0.026	1.019	-0.286479	-0.0572958	0	178.0925351	-2.4350715	-12.31286742
6.91	691	-0.046	-0.025	1.019	-0.2291832	-0.0572958	0	178.0925351	-2.4350715	-12.31286742
6.92	692	-0.046	-0.027	1.018	-0.4010706	-0.0572958	0	178.0868056	-2.4350715	-12.31286742
6.93	693	-0.046	-0.027	1.017	-0.4010706	0.0572958	0	178.081076	-2.4350715	-12.31286742
6.94	694	-0.044	-0.026	1.015	-0.4583664	0.1718874	0	178.081076	-2.4350715	-12.31286742
6.95	695	-0.044	-0.027	1.016	-0.6302538	0	0	178.0696168	-2.44080108	-12.31286742
6.96	696	-0.046	-0.027	1.017	-0.572958	-0.1145916	0	178.0638872	-2.4350715	-12.31286742
6.97	697	-0.046	-0.027	1.017	-0.4583664	0	0	178.0581577	-2.4350715	-12.31286742
6.98	698	-0.046	-0.028	1.016	-0.4583664	-0.1145916	0	178.0524281	-2.4350715	-12.31286742
6.99	699	-0.046	-0.028	1.014	-0.3437748	-0.1718874	0	178.0524281	-2.4350715	-12.31286742
7	700	-0.044	-0.03	1.017	-0.286479	-0.1718874	0	178.0352393	-2.42934192	-12.31286742
7.01	701	-0.046	-0.029	1.021	-0.6875496	0	0	178.0295098	-2.42934192	-12.31286742
7.02	702	-0.046	-0.027	1.022	-0.8021412	-0.1145916	0	178.0237802	-2.42934192	-12.31286742
7.03	703	-0.044	-0.027	1.024	-0.572958	-0.286479	0	178.0180506	-2.42934192	-12.31286742
7.04	704	-0.046	-0.028	1.023	-0.3437748	-0.0572958	0.0572958	178.012321	-2.42361234	-12.31286742
7.05	705	-0.046	-0.027	1.018	-0.3437748	0	0	178.0065914	-2.4350715	-12.31286742
7.06	706	-0.046	-0.027	1.014	-0.2291832	0	0	178.0065914	-2.4350715	-12.31286742
7.07	707	-0.046	-0.027	1.013	-0.2291832	-0.0572958	0	178.0008619	-2.42934192	-12.31286742
7.08	708	-0.047	-0.027	1.016	-0.1718874	-0.1718874	0	178.0008619	-2.42934192	-12.31286742
7.09	709	-0.045	-0.027	1.016	-0.1718874	-0.1145916	0	178.0008619	-2.42934192	-12.31286742
7.1	710	-0.046	-0.027	1.016	-0.1718874	-0.1718874	0	177.9951323	-2.4350715	-12.31286742
7.11	711	-0.045	-0.026	1.018	-0.0572958	-0.1718874	0	177.9894027	-2.4350715	-12.318597
7.12	712	-0.046	-0.027	1.018	0	-0.1145916	0.0572958	177.9894027	-2.42934192	-12.318597
7.13	713	-0.045	-0.027	1.018	0	-0.1718874	0.0572958	177.9894027	-2.42934192	-12.318597
7.14	714	-0.045	-0.028	1.017	0.1145916	-0.0572958	0	177.9951323	-2.42934192	-12.318597
7.15	715	-0.045	-0.028	1.019	0.2291832	0	0	177.9951323	-2.42934192	-12.318597
7.16	716	-0.045	-0.029	1.019	0.2291832	0	0.0572958	177.9951323	-2.42934192	-12.318597
7.17	717	-0.045	-0.03	1.018	0.1145916	0	0	177.9951323	-2.42934192	-12.318597
7.18	718	-0.045	-0.029	1.018	0.1145916	0	0	178.0008619	-2.42934192	-12.318597
7.19	719	-0.045	-0.029	1.017	0.1145916	-0.0572958	0	178.0008619	-2.42934192	-12.318597
7.2	720	-0.045	-0.029	1.018	0	-0.0572958	0	177.9951323	-2.4350715	-12.318597
7.21	721	-0.044	-0.028	1.017	-0.0572958	0	0	177.9951323	-2.4350715	-12.318597
7.22	722	-0.046	-0.029	1.016	0	0	0	177.9951323	-2.4350715	-12.318597
7.23	723	-0.045	-0.029	1.014	0.1145916	0.0572958	0.0572958	177.9951323	-2.4350715	-12.318597
7.24	724	-0.045	-0.029	1.016	0.1145916	0	0	177.9951323	-2.4350715	-12.318597
7.25	725	-0.046	-0.03	1.017	0	0.1145916	0	177.9894027	-2.44653066	-12.318597
7.26	726	-0.046	-0.029	1.017	0	0.1145916	0	177.9894027	-2.44653066	-12.318597
7.27	727	-0.046	-0.03	1.019	-0.0572958	0.0572958	0	177.9894027	-2.44653066	-12.318597
7.28	728	-0.046	-0.029	1.019	0	0	0	177.9894027	-2.44653066	-12.318597
7.29	729	-0.045	-0.029	1.018	0	0.0572958	0	177.9894027	-2.44653066	-12.318597
7.3	730	-0.045	-0.029	1.017	0	0.0572958	-0.0572958	177.9664844	-2.44653066	-12.318597
7.31	731	-0.045	-0.029	1.016	0	0.0572958	0	177.972214	-2.45226024	-12.318597
7.32	732	-0.046	-0.029	1.017	0	0	0	177.972214	-2.45226024	-12.318597
7.33	733	-0.045	-0.028	1.018	0	0	0	177.972214	-2.45226024	-12.318597
7.34	734	-0.046	-0.029	1.017	0	-0.0572958	0	177.972214	-2.45226024	-12.318597
7.35	735	-0.045	-0.029	1.018	0	0	0	177.9492956	-2.45798982	-12.318597
7.36	736	-0.045	-0.03	1.018	0	0	0	177.9492956	-2.45798982	-12.318597
7.37	737	-0.044	-0.029	1.018	0	0	0	177.9492956	-2.4637194	-12.318597
7.38	738	-0.046	-0.028	1.017	0.0572958	0.0572958	-0.0572958	177.9550252	-2.4637194	-12.31286742
7.39	739	-0.045	-0.03	1.017	0.1145916	0.0572958	0	177.9550252	-2.4637194	-12.31286742
7.4	740	-0.046	-0.029	1.017	0.1145916	0.0572958	0	177.9550252	-2.47517856	-12.318597
7.41	741	-0.045	-0.03	1.017	0.0572958	0.1718874	0	177.9550252	-2.48090814	-12.318597
7.42	742	-0.046	-0.03	1.016	0.0572958	0	0	177.9550252	-2.48090814	-12.318597
7.43	743	-0.046	-0.03	1.017	0.1718874	0	0	177.9607548	-2.48090814	-12.31286742
7.44	744	-0.046	-0.029	1.017	0.1718874	0.0572958	0	177.9607548	-2.48090814	-12.31286742
7.45	745	-0.046	-0.03	1.018	0.0572958	0	0	177.9550252	-2.48663772	-12.31286742
7.46	746	-0.045	-0.03	1.019	0	0	0	177.9550252	-2.48663772	-12.31286742
7.47	747	-0.046	-0.03	1.019	-0.0572958	0.1145916	0	177.9550252	-2.48663772	-12.31286742
7.48	748	-0.045	-0.03	1.017	-0.1145916	0.1145916	-0.0572958	177.9550252	-2.48663772	-12.31286742
