TimeStamp(s)	FrameCounter	AccX	AccY	AccZ	GyrX	GyrY	GyrZ	EulerX	EulerY	EulerZ
0.01	1	-0.033	-1.009	0.019	-0.286479	0.4010706	0	90.43569072	-1.22040054	-20.9702628
0.02	2	-0.032	-1.008	0.014	-0.6302538	0.4010706	0	90.42996114	-1.22040054	-20.96453322
0.03	3	-0.031	-1.007	0.012	-0.6302538	0.286479	0	90.42423156	-1.22040054	-20.96453322
0.04	4	-0.032	-1.006	0.011	-0.5156622	0.286479	0	90.41850198	-1.22040054	-20.95880364
0.05	5	-0.032	-1.006	0.009	-0.572958	0.4583664	0.0572958	90.36120618	-1.24904844	-20.94734448
0.06	6	-0.033	-1.006	0.012	-0.286479	0.5156622	0.0572958	90.3554766	-1.24904844	-20.9416149
0.07	7	-0.034	-1.008	0.013	-0.4010706	0.6302538	0.0572958	90.34974702	-1.24904844	-20.93588532
0.08	8	-0.034	-1.007	0.012	-0.5156622	0.7448454	0.1145916	90.34974702	-1.24904844	-20.92442616
0.09	9	-0.031	-1.008	0.01	-0.4583664	0.8021412	0.1718874	90.34401744	-1.25477802	-20.91869658
0.1	10	-0.029	-1.009	0.012	-0.4010706	0.9167328	0.286479	90.31536954	-1.2605076	-20.90723742
0.11	11	-0.029	-1.01	0.011	-0.2291832	0.859437	0.286479	90.30963996	-1.2605076	-20.90150784
0.12	12	-0.03	-1.011	0.009	-0.1145916	0.859437	0.3437748	90.30963996	-1.26623718	-20.89004868
0.13	13	-0.033	-1.009	0.01	-0.2291832	0.8021412	0.4010706	90.30963996	-1.27196676	-20.8843191
0.14	14	-0.031	-1.01	0.012	-0.3437748	0.9167328	0.3437748	90.30391038	-1.27769634	-20.87285994
0.15	15	-0.029	-1.009	0.015	-0.3437748	0.7448454	0.2291832	90.27526248	-1.28342592	-20.86140078
0.16	16	-0.027	-1.008	0.014	-0.286479	0.4010706	0.2291832	90.2695329	-1.28342592	-20.86140078
0.17	17	-0.026	-1.006	0.014	-0.286479	0	0.1145916	90.2695329	-1.2891555	-20.86140078
0.18	18	-0.025	-1.007	0.016	-0.4583664	-0.3437748	0.0572958	90.26380332	-1.2891555	-20.86140078
0.19	19	-0.025	-1.006	0.015	-0.572958	-0.4010706	0.0572958	90.25807374	-1.2891555	-20.86713036
0.2	20	-0.026	-1.005	0.013	-0.7448454	-0.2291832	0.0572958	90.2122371	-1.2891555	-20.86713036
0.21	21	-0.028	-1.004	0.012	-0.572958	-0.1145916	0.0572958	90.20650752	-1.29488508	-20.87285994
0.22	22	-0.028	-1.004	0.011	-0.4010706	-0.0572958	0.0572958	90.20077794	-1.29488508	-20.87285994
0.23	23	-0.029	-1.008	0.012	-0.3437748	-0.1718874	0.0572958	90.20077794	-1.29488508	-20.87285994
0.24	24	-0.03	-1.008	0.011	-0.3437748	-0.3437748	0	90.19504836	-1.29488508	-20.87858952
0.25	25	-0.031	-1.007	0.01	-0.3437748	-0.2291832	0	90.10910466	-1.32353298	-20.87285994
0.26	26	-0.031	-1.008	0.009	-0.286479	-0.0572958	0	90.10910466	-1.32353298	-20.87285994
0.27	27	-0.031	-1.006	0.009	-0.1718874	-0.0572958	-0.0572958	90.10910466	-1.32353298	-20.87285994
0.28	28	-0.03	-1.007	0.01	-0.1718874	-0.1145916	-0.0572958	90.10337508	-1.3178034	-20.87285994
0.29	29	-0.03	-1.009	0.011	-0.286479	-0.1718874	0	90.10337508	-1.3178034	-20.87858952
0.3	30	-0.03	-1.008	0.007	-0.3437748	-0.2291832	0	90.0403497	-1.32926256	-20.87858952
0.31	31	-0.028	-1.008	0.008	-0.4010706	-0.286479	0	90.03462012	-1.32926256	-20.87858952
0.32	32	-0.029	-1.007	0.009	-0.3437748	-0.4583664	0.0572958	90.03462012	-1.32926256	-20.8843191
0.33	33	-0.032	-1.006	0.011	-0.4583664	-0.4010706	0.1718874	90.02889054	-1.32926256	-20.89004868
0.34	34	-0.035	-1.007	0.01	-0.286479	-0.286479	0.3437748	90.02316096	-1.33499214	-20.89004868
0.35	35	-0.036	-1.007	0.011	-0.4010706	0.1145916	0.5156622	89.99451306	-1.35791046	-20.8843191
0.36	36	-0.036	-1.008	0.01	-0.5156622	0.4010706	0.5156622	89.98878348	-1.36364004	-20.87858952
0.37	37	-0.036	-1.008	0.008	-0.4583664	0.4010706	0.5156622	89.9830539	-1.36936962	-20.87858952
0.38	38	-0.033	-1.006	0.009	-0.5156622	0	0.3437748	89.97732432	-1.3750992	-20.87285994
0.39	39	-0.032	-1.007	0.011	-0.4583664	0	0.3437748	89.97159474	-1.38082878	-20.87858952
0.4	40	-0.031	-1.008	0.011	-0.5156622	0.1145916	0.5156622	89.94867642	-1.39228794	-20.87285994
0.41	41	-0.032	-1.009	0.011	-0.7448454	0.286479	0.572958	89.94294684	-1.39801752	-20.86713036
0.42	42	-0.033	-1.009	0.011	-0.9167328	0.4010706	0.7448454	89.93148768	-1.40947668	-20.86713036
0.43	43	-0.031	-1.009	0.009	-1.0886202	0.2291832	0.859437	89.92002852	-1.41520626	-20.86140078
0.44	44	-0.033	-1.009	0.008	-1.145916	-0.0572958	0.9167328	89.90856936	-1.42666542	-20.86140078
0.45	45	-0.034	-1.008	0.005	-1.145916	-0.2291832	1.0313244	89.87992146	-1.44385416	-20.86713036
0.46	46	-0.033	-1.007	0.005	-1.0313244	-0.1145916	0.9740286	89.8684623	-1.45531332	-20.86713036
0.47	47	-0.033	-1.005	0.007	-0.9740286	-0.1145916	1.0313244	89.85700314	-1.4610429	-20.86713036
0.48	48	-0.03	-1.005	0.007	-0.9167328	0.0572958	0.9740286	89.85127356	-1.47250206	-20.86713036
0.49	49	-0.031	-1.003	0.007	-0.9167328	0.4583664	1.2032118	89.8398144	-1.48396122	-20.86140078
0.5	50	-0.033	-1.003	0.006	-0.9740286	0.4010706	1.4896908	89.81689608	-1.50687954	-20.8556712
0.51	51	-0.035	-1.003	0.007	-1.0313244	0.572958	1.5469866	89.80543692	-1.5183387	-20.84994162
0.52	52	-0.034	-1.005	0.005	-0.8021412	0.9167328	1.5469866	89.79970734	-1.53552744	-20.84421204
0.53	53	-0.034	-1.006	0.004	-0.6875496	1.0886202	1.3178034	89.78824818	-1.55271618	-20.83275288
0.54	54	-0.031	-1.01	0.008	-0.572958	1.2605076	1.0313244	89.7825186	-1.56417534	-20.81556414
0.55	55	-0.029	-1.007	0.012	-0.5156622	1.6615782	0.5156622	89.77105944	-1.56417534	-20.80410498
0.56	56	-0.024	-1.004	0.012	-0.5156622	2.3491278	0.2291832	89.76532986	-1.56417534	-20.78118666
0.57	57	-0.022	-1.005	0.01	-0.7448454	2.578311	0.0572958	89.7538707	-1.56417534	-20.75253876
0.58	58	-0.021	-1.008	0.004	-0.9167328	2.578311	0	89.74241154	-1.56990492	-20.72962044
0.59	59	-0.02	-1.007	0.004	-0.6875496	2.6929026	-0.286479	89.73668196	-1.56417534	-20.70097254
0.6	60	-0.019	-1.003	0.003	-0.0572958	3.2658606	-0.6875496	89.71949322	-1.5469866	-20.67232464
0.61	61	-0.017	-0.998	0.005	0.2291832	3.6096354	-1.0886202	89.7252228	-1.53552744	-20.63221758
0.62	62	-0.014	-1	0.007	0.572958	4.0680018	-1.4896908	89.7252228	-1.52406828	-20.59211052
0.63	63	-0.01	-1	0.012	0.5156622	4.8128472	-1.9480572	89.73095238	-1.50687954	-20.54627388
0.64	64	0	-0.998	0.016	1.0886202	5.6149884	-2.578311	89.74241154	-1.47823164	-20.48897808
0.65	65	0.01	-0.995	0.021	2.4637194	5.7868758	-2.9220858	89.76532986	-1.43812458	-20.43168228
0.66	66	0.018	-0.995	0.025	4.010706	5.5576926	-3.0366774	89.79970734	-1.40947668	-20.38011606
0.67	67	0.019	-0.994	0.029	5.3285094	5.0993262	-2.9220858	89.85700314	-1.38082878	-20.32854984
0.68	68	0.016	-0.986	0.032	6.6463128	4.5263682	-2.6929026	89.92002852	-1.35218088	-20.2827132
0.69	69	0.014	-0.975	0.04	8.2505952	4.2398892	-2.3491278	90.00597222	-1.32926256	-20.23687656
0.7	70	0.013	-0.969	0.048	9.6829902	3.9534102	-1.9480572	90.10337508	-1.30061466	-20.1967695
0.71	71	0.013	-0.963	0.054	10.4851314	3.7815228	-1.6042824	90.2122371	-1.2891555	-20.16239202
0.72	72	0.015	-0.966	0.062	11.1153852	3.3231564	-1.0886202	90.32109912	-1.27769634	-20.12801454
0.73	73	0.015	-0.972	0.07	11.745639	2.7501984	-0.572958	90.4414203	-1.27196676	-20.09936664
0.74	74	0.019	-0.981	0.075	12.4904844	2.1199446	0	90.56747106	-1.27196676	-20.07644832
0.75	75	0.023	-0.987	0.08	13.3499214	1.2605076	0.5156622	90.71071056	-1.26623718	-20.06498916
0.76	76	0.023	-0.998	0.085	14.1520626	0.5156622	1.145916	90.85395006	-1.27196676	-20.05925958
0.77	77	0.022	-1.015	0.085	14.3812458	0.1718874	1.8334656	91.00291914	-1.2891555	-20.05353
0.78	78	0.015	-1.018	0.079	14.1520626	0	2.9220858	91.14615864	-1.3178034	-20.05353
0.79	79	0.01	-1.017	0.074	13.2926256	0	4.2398892	91.28366856	-1.36364004	-20.05353
0.8	80	0.006	-1.019	0.066	11.9748222	-0.286479	5.5003968	91.40398974	-1.40947668	-20.05925958
0.81	81	0.003	-1.017	0.057	10.599723	-1.0313244	6.3598338	91.51285176	-1.46677248	-20.06498916
0.82	82	-0.004	-1.006	0.046	9.740286	-2.291832	6.589017	91.6159842	-1.53552744	-20.09363706
0.83	83	-0.014	-0.995	0.032	9.0527364	-4.0680018	6.4171296	91.70765748	-1.59282324	-20.13374412
0.84	84	-0.021	-0.984	0.019	7.734933	-5.6722842	5.8441716	91.7878716	-1.65011904	-20.19103992
0.85	85	-0.029	-0.972	0.017	6.3598338	-6.6463128	4.9274388	91.85089698	-1.6902261	-20.2540653
0.86	86	-0.031	-0.96	0.022	4.9274388	-6.5317212	3.7815228	91.9024632	-1.72460358	-20.32282026
0.87	87	-0.029	-0.961	0.024	3.724227	-7.0473834	3.2658606	91.94829984	-1.75325148	-20.39157522
0.88	88	-0.024	-0.972	0.032	2.3491278	-8.7089616	3.0366774	91.97121816	-1.78189938	-20.47751892
0.89	89	-0.016	-0.995	0.041	1.432395	-10.5424272	2.8074942	91.99413648	-1.79908812	-20.58638094
0.9	90	0	-1.025	0.046	0.286479	-11.4018642	2.5210152	91.99986606	-1.81054728	-20.70097254
0.91	91	0.013	-1.047	0.048	-0.1718874	-12.891555	2.5210152	92.00559564	-1.82773602	-20.8270233
0.92	92	0.007	-1.054	0.052	0.6302538	-16.5011904	3.0366774	92.0170548	-1.84492476	-20.99318112
0.93	93	-0.021	-1.047	0.072	1.6615782	-20.5691922	3.7815228	92.0457027	-1.86784308	-21.199446
0.94	94	-0.054	-1.03	0.111	3.3804522	-23.8350528	4.6409598	92.09153934	-1.90222056	-21.43435878
0.95	95	-0.077	-1.012	0.138	4.583664	-25.6112226	5.0993262	92.15456472	-1.94232762	-21.6864603
0.96	96	-0.098	-1.007	0.165	5.0993262	-26.929026	5.2139178	92.22331968	-1.9767051	-21.95575056
0.97	97	-0.109	-1.015	0.194	3.8961144	-26.069589	4.9274388	92.2748859	-2.005353	-22.21358166
0.98	98	-0.105	-1.028	0.215	1.5469866	-23.6631654	4.6409598	92.3035338	-2.0340009	-22.44849444
0.99	99	-0.098	-1.037	0.227	-0.2291832	-20.7983754	4.7555514	92.30926338	-2.06837838	-22.65475932
1	100	-0.102	-1.048	0.245	-1.4896908	-16.6730778	5.5576926	92.32645212	-2.1199446	-22.82664672
1.01	101	-0.105	-1.056	0.264	-1.6615782	-10.9434978	6.7036086	92.31499296	-2.18296998	-22.93550874
1.02	102	-0.105	-1.066	0.27	-1.2032118	-5.2139178	7.7922288	92.30926338	-2.25745452	-22.99280454
1.03	103	-0.101	-1.08	0.267	-1.4896908	-2.1772404	9.0527364	92.29207464	-2.34339822	-23.01572286
1.04	104	-0.093	-1.09	0.255	-2.5210152	0.4010706	10.5424272	92.26915632	-2.45226024	-23.01572286
1.05	105	-0.09	-1.089	0.226	-4.2398892	2.6929026	12.0894138	92.24050842	-2.578311	-22.99280454
1.06	106	-0.089	-1.07	0.191	-6.302538	4.0680018	13.464513	92.17748304	-2.71582092	-22.95842706
1.07	107	-0.086	-1.046	0.172	-8.4224826	3.8388186	14.6677248	92.09153934	-2.86479	-22.92977916
1.08	108	-0.082	-1.019	0.151	-10.7716104	2.6929026	15.3552744	91.97694774	-3.01948866	-22.91259042
1.09	109	-0.084	-0.994	0.133	-13.5218088	2.0626488	15.6990492	91.83943782	-3.17418732	-22.89540168
1.1	110	-0.097	-0.964	0.115	-16.5011904	1.6615782	15.5271618	91.67900958	-3.33461556	-22.88394252
1.11	111	-0.104	-0.943	0.101	-18.6784308	1.2605076	14.7823164	91.48993344	-3.48931422	-22.87821294
1.12	112	-0.116	-0.925	0.089	-20.7410796	0.1718874	13.8082878	91.27793898	-3.62682414	-22.88394252
1.13	113	-0.122	-0.915	0.088	-21.9442914	-0.5156622	12.605076	91.05448536	-3.7528749	-22.89540168
1.14	114	-0.122	-0.91	0.1	-22.2307704	-1.0313244	11.2872726	90.83103174	-3.8674665	-22.91259042
1.15	115	-0.127	-0.909	0.116	-22.1734746	-1.3178034	10.026765	90.61903728	-3.97632852	-22.92977916
1.16	116	-0.129	-0.916	0.126	-22.345362	-0.9167328	8.7089616	90.39558366	-4.06227222	-22.94123832
1.17	117	-0.127	-0.92	0.131	-22.058883	-1.145916	7.2765666	90.17213004	-4.13675676	-22.95269748
1.18	118	-0.127	-0.929	0.147	-21.4286292	-1.2605076	5.156622	89.954406	-4.18832298	-22.96988622
1.19	119	-0.131	-0.932	0.165	-21.5432208	-0.3437748	3.4950438	89.73668196	-4.22843004	-22.9756158
1.2	120	-0.128	-0.932	0.177	-21.3713334	0.9740286	1.8334656	89.54187624	-4.25707794	-22.96988622
1.21	121	-0.128	-0.935	0.188	-21.199446	2.4064236	0	89.3241522	-4.25707794	-22.9469679
1.22	122	-0.126	-0.944	0.207	-21.3140376	5.156622	-1.6615782	89.10642816	-4.24561878	-22.90113126
1.23	123	-0.121	-0.954	0.207	-21.6578124	7.7922288	-2.86479	88.87724496	-4.21697088	-22.82664672
1.24	124	-0.117	-0.965	0.191	-21.485925	8.880849	-4.0680018	88.65379134	-4.17686382	-22.74070302
1.25	125	-0.111	-0.974	0.173	-21.7151082	9.6829902	-5.6722842	88.44179688	-4.13102718	-22.64902974
1.26	126	-0.106	-0.984	0.158	-21.7151082	9.9694692	-7.2192708	88.21261368	-4.05654264	-22.55162688
1.27	127	-0.107	-0.994	0.153	-20.8556712	10.4851314	-8.5370742	87.99488964	-3.97632852	-22.45422402
1.28	128	-0.111	-0.997	0.145	-20.05353	12.318597	-9.5111028	87.7771656	-3.87892566	-22.33390284
1.29	129	-0.116	-1.004	0.131	-18.8503182	13.5791046	-10.0840608	87.5766303	-3.7815228	-22.20785208
1.3	130	-0.117	-1.009	0.127	-17.2460358	13.750992	-10.313244	87.4047429	-3.68411994	-22.07607174
1.31	131	-0.124	-1.019	0.134	-16.1574156	14.6677248	-10.4851314	87.2328555	-3.57525792	-21.93856182
1.32	132	-0.146	-1.031	0.139	-15.9282324	16.1001198	-9.9694692	87.05523852	-3.47785506	-21.78386316
1.33	133	-0.181	-1.03	0.148	-15.0687954	17.6471064	-8.7662574	86.8890807	-3.38618178	-21.61770534
1.34	134	-0.207	-1.025	0.177	-15.1260912	20.7983754	-8.2505952	86.72292288	-3.30023808	-21.41717004
1.35	135	-0.222	-1.019	0.206	-15.756345	25.3820394	-8.7089616	86.56249464	-3.22002396	-21.1707981
1.36	136	-0.229	-1.014	0.229	-12.9488508	29.9084076	-9.167328	86.41352556	-3.11689152	-20.87858952
1.37	137	-0.222	-1.022	0.242	-9.1100322	35.5806918	-9.1100322	86.29320438	-3.01948866	-20.53481472
1.38	138	-0.207	-1.068	0.226	-5.72958	40.0497642	-8.4797784	86.21299026	-2.91635622	-20.14520328
1.39	139	-0.184	-1.139	0.195	-5.0993262	41.0237928	-6.6463128	86.13277614	-2.8361421	-19.74413268
1.4	140	-0.147	-1.187	0.14	-5.156622	39.4195104	-4.1252976	86.06402118	-2.78457588	-19.35452124
1.41	141	-0.065	-1.233	0.045	-3.7815228	36.669312	-1.3178034	86.00672538	-2.75592798	-18.9935577
1.42	142	0.042	-1.263	0	-3.3804522	30.4813656	0.1718874	85.94942958	-2.74446882	-18.68988996
1.43	143	0.098	-1.208	0.028	-2.3491278	23.204799	-0.7448454	85.9150521	-2.72728008	-18.46070676
1.44	144	0.122	-1.169	0.033	-1.3750992	15.2406828	-2.2345362	85.89213378	-2.69863218	-18.31173768
1.45	145	0.104	-1.19	-0.036	-0.4583664	8.1360036	-0.572958	85.88067462	-2.66998428	-18.23725314
1.46	146	0.027	-1.19	-0.117	1.9480572	4.3544808	1.4896908	85.89786336	-2.68144344	-18.1914165
1.47	147	-0.07	-1.117	-0.071	6.1306506	3.9534102	0.572958	85.95515916	-2.68717302	-18.15130944
1.48	148	-0.162	-1.055	-0.033	10.4278356	7.448454	-2.7501984	86.0582916	-2.65279554	-18.0768249
1.49	149	-0.217	-1.058	-0.053	9.7975818	16.1574156	-6.3598338	86.14996488	-2.58404058	-17.92212624
1.5	150	-0.257	-1.075	-0.113	8.4224826	28.7051958	-7.5057498	86.21299026	-2.51528562	-17.64137682
1.51	151	-0.278	-1.059	-0.146	9.3392154	39.3049188	-6.4171296	86.28174522	-2.4350715	-17.25176538
1.52	152	-0.252	-1.023	-0.155	7.3911582	46.696077	-4.6409598	86.33331144	-2.37204612	-16.79339898
1.53	153	-0.186	-0.97	-0.194	3.9534102	53.1132066	-3.724227	86.3447706	-2.31475032	-16.2720072
1.54	154	-0.108	-0.946	-0.238	1.145916	59.4730404	-3.3231564	86.32758186	-2.2631841	-15.68186046
1.55	155	-0.027	-0.963	-0.263	-1.9480572	61.879464	-2.4637194	86.2588269	-2.21161788	-15.07452498
1.56	156	0.055	-0.971	-0.273	-4.4690724	59.014674	-0.9740286	86.18434236	-2.1772404	-14.49010782
1.57	157	0.103	-0.953	-0.264	-4.0680018	52.1964738	0.286479	86.1155874	-2.16005166	-13.97444562
1.58	158	0.107	-0.932	-0.235	-0.9740286	42.2843004	0.286479	86.08120992	-2.1485925	-13.55618628
1.59	159	0.081	-0.922	-0.203	2.4064236	32.7159018	-0.9740286	86.09266908	-2.12567418	-13.2353298
1.6	160	0.047	-0.927	-0.167	5.0420304	23.7204612	-2.6929026	86.1155874	-2.07410796	-13.00041702
1.61	161	0.022	-0.947	-0.137	6.589017	16.2147114	-4.297185	86.1728832	-2.02827132	-12.83998878
1.62	162	0	-0.97	-0.12	7.0473834	9.6829902	-5.443101	86.24163816	-1.96524594	-12.7483155
1.63	163	-0.013	-0.985	-0.11	7.1046792	4.8128472	-6.0733548	86.31039312	-1.90795014	-12.70247886
1.64	164	-0.022	-0.999	-0.097	7.448454	0.8021412	-6.0733548	86.38487766	-1.84492476	-12.69674928
1.65	165	-0.02	-1.018	-0.078	7.7922288	-2.4637194	-6.1306506	86.4593622	-1.7761698	-12.72539718
1.66	166	-0.001	-1.039	-0.064	7.3338624	-4.6982556	-6.2452422	86.53384674	-1.71314442	-12.7769634
1.67	167	0.012	-1.045	-0.055	6.4171296	-5.3858052	-6.4171296	86.6026017	-1.65011904	-12.8342592
1.68	168	0.018	-1.033	-0.045	5.72958	-5.2712136	-6.9900876	86.66562708	-1.58709366	-12.88582542
1.69	169	0.02	-1.01	-0.029	5.0420304	-4.6409598	-7.6203414	86.7171933	-1.50687954	-12.93739164
1.7	170	0.011	-0.995	-0.011	3.8388186	-3.4950438	-8.3651868	86.76302994	-1.41520626	-12.9774987
1.71	171	0	-0.986	-0.009	1.8334656	-2.1772404	-8.880849	86.78594826	-1.32926256	-13.0061466
1.72	172	-0.009	-0.973	-0.012	-0.0572958	-0.4010706	-9.1100322	86.78594826	-1.23758928	-13.01187618
1.73	173	-0.017	-0.952	-0.01	-1.5469866	1.0313244	-9.1100322	86.76875952	-1.145916	-13.01187618
1.74	174	-0.017	-0.932	-0.007	-2.9793816	2.3491278	-8.880849	86.73438204	-1.05424272	-12.98895786
1.75	175	-0.015	-0.922	-0.005	-4.4117766	2.86479	-8.3651868	86.69427498	-0.9740286	-12.96603954
1.76	176	-0.001	-0.912	-0.003	-5.72958	2.86479	-7.8495246	86.63697918	-0.89381448	-12.94312122
1.77	177	0.008	-0.906	-0.003	-6.6463128	3.0366774	-7.3911582	86.56822422	-0.81932994	-12.9202029
1.78	178	0.021	-0.906	-0.003	-7.0473834	3.724227	-6.875496	86.49373968	-0.75057498	-12.88582542
1.79	179	0.036	-0.912	0.003	-7.3911582	3.3804522	-6.1879464	86.41925514	-0.6875496	-12.85717752
1.8	180	0.046	-0.919	0.012	-7.3911582	2.005353	-5.6149884	86.35622976	-0.61306506	-12.84571836
1.81	181	0.053	-0.921	0.013	-7.3911582	0.9167328	-4.870143	86.28174522	-0.56722842	-12.83998878
1.82	182	0.057	-0.922	0.014	-7.0473834	-0.1718874	-4.1252976	86.20726068	-0.52712136	-12.84571836
1.83	183	0.055	-0.922	0.024	-6.2452422	-1.0886202	-3.5523396	86.1442353	-0.49274388	-12.85717752
1.84	184	0.05	-0.927	0.03	-6.2452422	-2.2345362	-2.8074942	86.08120992	-0.46409598	-12.88582542
1.85	185	0.05	-0.929	0.035	-6.589017	-3.4950438	-1.8907614	86.04110286	-0.42398892	-12.92593248
1.86	186	0.049	-0.928	0.037	-7.2192708	-5.5003968	-0.859437	85.96661832	-0.41825934	-12.9774987
1.87	187	0.048	-0.916	0.038	-7.2765666	-6.7609044	0.4010706	85.89786336	-0.4297185	-13.04625366
1.88	188	0.052	-0.903	0.043	-7.0473834	-8.1932994	1.8907614	85.82337882	-0.45263682	-13.12646778
1.89	189	0.064	-0.889	0.048	-6.3598338	-11.0007936	3.3231564	85.76035344	-0.4870143	-13.2353298
1.9	190	0.071	-0.872	0.056	-4.6982556	-14.4385416	4.297185	85.73170554	-0.52712136	-13.3785693
1.91	191	0.077	-0.856	0.063	-2.1199446	-17.2460358	4.870143	85.7145168	-0.58441716	-13.54472712
1.92	192	0.076	-0.847	0.065	0.4010706	-20.2827132	5.0993262	85.72597596	-0.64171296	-13.73953284
1.93	193	0.062	-0.844	0.056	3.437748	-22.5172494	5.156622	85.76608302	-0.70473834	-13.96298646
1.94	194	0.045	-0.835	0.061	7.5630456	-24.064236	5.156622	85.85202672	-0.76776372	-14.19216966
1.95	195	0.027	-0.827	0.089	12.8342592	-24.637194	5.156622	86.0009958	-0.82505952	-14.43281202
1.96	196	0.019	-0.841	0.124	17.4179232	-24.2361234	5.3285094	86.18434236	-0.88235532	-14.6677248
1.97	197	0.018	-0.889	0.138	18.5065434	-23.2620948	5.3285094	86.37914808	-0.9453807	-14.89117842
1.98	198	0.017	-0.959	0.13	16.6730778	-21.772404	4.870143	86.55676506	-0.99694692	-15.10317288
1.99	199	0.033	-1.019	0.118	14.2093584	-18.7357266	3.3804522	86.70573414	-1.03705398	-15.28651944
2	200	0.054	-1.076	0.104	10.2559482	-13.464513	0.4583664	86.83751448	-1.02559482	-15.41829978
2.01	201	0.069	-1.109	0.094	7.6203414	-8.5370742	-2.0626488	86.9177286	-1.00840608	-15.50424348
2.02	202	0.072	-1.105	0.103	7.6776372	-6.1879464	-2.7501984	86.99794272	-0.97975818	-15.56726886
2.03	203	0.069	-1.085	0.137	9.2819196	-6.1879464	-1.3750992	87.09534558	-0.96829902	-15.63029424
2.04	204	0.072	-1.067	0.186	11.3445684	-8.0787078	0.859437	87.20993718	-0.97975818	-15.70477878
2.05	205	0.087	-1.071	0.226	14.4958374	-11.5737516	3.2085648	87.39328374	-0.99694692	-15.81937038
2.06	206	0.108	-1.097	0.241	16.6730778	-16.8449652	4.4690724	87.57090072	-1.04278356	-15.9855282
2.07	207	0.109	-1.148	0.22	15.5844576	-21.4286292	3.3231564	87.73705854	-1.07716104	-16.19179308
2.08	208	0.091	-1.208	0.186	14.1520626	-22.6891368	-0.8021412	87.88602762	-1.07143146	-16.4152467
2.09	209	0.055	-1.217	0.134	13.9228794	-21.6578124	-6.5317212	88.0349967	-1.0026765	-16.63297074
2.1	210	0.031	-1.234	0.099	7.734933	-19.767051	-9.9121734	88.1209404	-0.90527364	-16.82777646
2.11	211	-0.084	-1.336	-0.005	-5.5576926	-18.2773602	-13.1207382	88.06937418	-0.7734933	-17.0168526
2.12	212	-0.27	-1.461	-0.134	-10.3705398	-16.615782	-19.9389384	87.97197132	-0.57868758	-17.18874
2.13	213	-0.389	-1.473	-0.239	-13.3499214	-11.3445684	-31.6272816	87.8344614	-0.26929026	-17.30906118
2.14	214	-0.429	-1.342	-0.267	-7.9068204	0.6302538	-39.3049188	87.75424728	0.1145916	-17.32052034
2.15	215	-0.283	-1.177	-0.373	7.448454	6.3598338	-40.393539	87.8058135	0.50420304	-17.26895412
2.16	216	-0.023	-1.047	-0.34	25.3820394	5.5576926	-32.4294228	88.0636446	0.8307891	-17.22311748
2.17	217	0.204	-0.993	-0.226	33.7472262	5.2712136	-21.3140376	88.4074194	1.04851314	-17.17155126
2.18	218	0.366	-0.981	-0.223	34.663959	-1.0313244	-13.1207382	88.76265336	1.18029348	-17.18301042
2.19	219	0.426	-1.017	-0.217	26.929026	-15.1260912	-8.7662574	89.03194362	1.27196676	-17.32624992
2.2	220	0.403	-1.056	-0.192	15.5844576	-28.7051958	-8.1360036	89.17518312	1.38082878	-17.6184585
2.21	221	0.359	-1.07	-0.184	7.2765666	-41.7686382	-9.453807	89.24393808	1.48396122	-18.03098826
2.22	222	0.276	-1.078	-0.162	2.3491278	-51.9099948	-11.0580894	89.26112682	1.59855282	-18.54665046
2.23	223	0.153	-1.098	-0.162	-2.578311	-55.1185596	-14.037471	89.22674934	1.7475219	-19.09096056
2.24	224	0.014	-1.121	-0.177	-5.9587632	-53.4569814	-16.8449652	89.1522648	1.9194093	-19.6238115
2.25	225	-0.105	-1.113	-0.182	-6.9900876	-48.414951	-17.3606274	89.06059152	2.08556712	-20.10509622
2.26	226	-0.186	-1.077	-0.153	-4.3544808	-40.1643558	-15.8709366	89.0090253	2.25172494	-20.50616682
2.27	227	-0.198	-1.036	-0.136	-3.0366774	-29.3354496	-13.0061466	88.96891824	2.38350528	-20.7983754
2.28	228	-0.165	-0.987	-0.123	-2.1199446	-18.3919518	-9.167328	88.94027034	2.47517856	-20.98172196
2.29	229	-0.128	-0.962	-0.118	-1.2032118	-8.1932994	-4.297185	88.9230816	2.5210152	-21.06193608
2.3	230	-0.083	-0.948	-0.113	-0.6875496	0.6302538	0.8021412	88.8371379	2.42934192	-21.05047692
2.31	231	-0.049	-0.933	-0.1	-0.2291832	5.2712136	4.010706	88.83140832	2.38923486	-20.99318112
2.32	232	-0.022	-0.917	-0.083	0.1718874	7.6776372	5.9587632	88.8371379	2.32620948	-20.91869658
2.33	233	-0.005	-0.911	-0.062	0.1145916	9.2246238	6.9327918	88.84286748	2.25745452	-20.8270233
2.34	234	0.003	-0.921	-0.049	-1.3178034	10.5424272	7.2192708	88.83140832	2.18869956	-20.71816128
2.35	235	-0.002	-0.936	-0.056	-3.3804522	10.3705398	7.0473834	88.78557168	2.10275586	-20.61502884
2.36	236	-0.019	-0.956	-0.053	-5.156622	9.6829902	6.9900876	88.73400546	2.0340009	-20.51762598
2.37	237	-0.042	-0.971	-0.061	-6.8182002	9.8548776	8.0787078	88.6652505	1.95378678	-20.42022312
2.38	238	-0.076	-0.969	-0.061	-7.5630456	10.1413566	9.6256944	88.59076596	1.85638392	-20.31709068
2.39	239	-0.101	-0.963	-0.064	-7.8495246	11.2299768	11.45916	88.51628142	1.74179232	-20.20249908
2.4	240	-0.108	-0.946	-0.065	-7.734933	12.8342592	12.8342592	88.43033772	1.59282324	-20.07071874
2.41	241	-0.105	-0.925	-0.059	-7.448454	13.6364004	13.4072172	88.35585318	1.45531332	-19.93320882
2.42	242	-0.097	-0.908	-0.037	-7.5057498	14.4385416	13.2353298	88.28136864	1.32353298	-19.78996932
2.43	243	-0.086	-0.904	-0.019	-9.1100322	15.9855282	12.5477802	88.18969536	1.2032118	-19.62954108
2.44	244	-0.054	-0.906	-0.017	-10.8289062	16.5011904	11.5164558	88.08083334	1.0886202	-19.46338326
2.45	245	-0.037	-0.907	-0.014	-12.1467096	15.1260912	10.2559482	87.96051216	0.97975818	-19.3086846
2.46	246	-0.03	-0.919	-0.005	-12.8342592	12.1467096	8.9954406	87.82873182	0.8880849	-19.18836342
2.47	247	-0.035	-0.932	0.008	-12.7769634	9.3965112	8.5370742	87.69695148	0.8021412	-19.09096056
2.48	248	-0.049	-0.937	0.021	-12.605076	7.3338624	7.9068204	87.57090072	0.72765666	-19.01647602
2.49	249	-0.074	-0.939	0.031	-12.2613012	5.8441716	7.0473834	87.44484996	0.65317212	-18.95918022
2.5	250	-0.087	-0.938	0.045	-11.9748222	5.2712136	5.9014674	87.34171752	0.572958	-18.90188442
2.51	251	-0.094	-0.929	0.057	-11.8029348	5.2712136	4.6409598	87.22139634	0.52712136	-18.8503182
2.52	252	-0.102	-0.919	0.079	-11.5737516	6.0733548	3.437748	87.10107516	0.49274388	-18.78729282
2.53	253	-0.099	-0.913	0.093	-11.4018642	8.1932994	2.3491278	86.98648356	0.46982556	-18.7070787
2.54	254	-0.1	-0.902	0.101	-10.7716104	10.599723	0.859437	86.87762154	0.46409598	-18.60394626
2.55	255	-0.105	-0.896	0.106	-10.0840608	13.0634424	-0.1718874	86.803137	0.44690724	-18.47216592
2.56	256	-0.105	-0.922	0.088	-10.3705398	15.8709366	-0.6302538	86.69427498	0.45263682	-18.31746726
2.57	257	-0.086	-1.016	0.029	-13.6364004	17.475219	1.0886202	86.55676506	0.44690724	-18.14557986
2.58	258	-0.05	-1.056	-0.012	-15.8136408	13.2926256	4.870143	86.39060724	0.4010706	-18.01379952
2.59	259	-0.073	-0.95	-0.002	-7.0473834	3.7815228	6.6463128	86.32185228	0.33804522	-17.96796288
2.6	260	-0.072	-0.866	0.058	-2.86479	2.8074942	3.7815228	86.33331144	0.27501984	-17.93931498
2.61	261	-0.062	-0.866	0.117	-1.3750992	7.448454	-3.151269	86.3161227	0.30939732	-17.86483044
2.62	262	-0.04	-0.881	0.159	-4.297185	15.6990492	-9.6256944	86.27601564	0.41252976	-17.71586136
2.63	263	-0.015	-0.92	0.151	-7.2192708	21.199446	-10.8289062	86.2015311	0.52712136	-17.51532606
2.64	264	-0.013	-1.006	0.105	-8.9954406	22.2307704	-8.3651868	86.10412824	0.61879464	-17.3033316
2.65	265	-0.033	-1.08	0.056	-10.7143146	19.5951636	-3.0366774	86.01245496	0.64744254	-17.10852588
2.66	266	-0.058	-1.065	0.055	-8.3651868	14.9542038	1.3178034	85.92651126	0.63598338	-16.9595568
2.67	267	-0.076	-1.011	0.077	-3.2658606	13.9801752	2.1772404	85.89213378	0.62452422	-16.82204688
2.68	268	-0.065	-1.008	0.109	1.3178034	15.8136408	1.3750992	85.90359294	0.61306506	-16.66161864
2.69	269	-0.024	-1.083	0.123	2.9793816	20.8556712	2.4637194	85.93797042	0.6016059	-16.45535376
2.7	270	0.066	-1.29	0.045	-0.4583664	26.8144344	8.6516658	85.93224084	0.52712136	-16.1860635
2.71	271	0.19	-1.592	-0.069	-11.45916	27.1582092	20.3973048	85.81764924	0.33804522	-15.90531408
2.72	272	0.34	-1.87	-0.18	-22.0015872	18.1054728	36.5547204	85.58846604	-0.01145916	-15.6990492
2.73	273	0.449	-1.879	-0.279	-26.9863218	-0.7448454	53.6861646	85.31917578	-0.55003968	-15.6704013
2.74	274	0.393	-1.541	-0.373	-23.0329116	-20.8556712	62.7961968	85.08999258	-1.18602306	-15.83082954
2.75	275	0.166	-1.092	-0.331	0.9740286	-33.5753388	58.2125328	85.10145174	-1.7761698	-16.11157896
2.76	276	-0.144	-0.862	-0.151	23.8350528	-33.0596766	41.1956802	85.35928284	-2.20015872	-16.40378754
2.77	277	-0.359	-0.855	-0.027	29.3354496	-24.350715	21.772404	85.66868016	-2.42361234	-16.62724116
2.78	278	-0.455	-0.904	0.031	18.5638392	-12.1467096	8.5370742	85.86348588	-2.50955604	-16.73610318
2.79	279	-0.491	-0.92	-0.003	5.2712136	4.9274388	2.5210152	85.9150521	-2.53247436	-16.68453696
2.8	280	-0.473	-0.922	-0.048	-1.7761698	24.2361234	0.1718874	85.88067462	-2.59549974	-16.43816502
2.81	281	-0.399	-0.895	-0.074	-5.3858052	39.5913978	-0.0572958	85.8004605	-2.578311	-16.04855358
2.82	282	-0.302	-0.849	-0.113	-6.9900876	51.3943326	1.4896908	85.70305764	-2.56685184	-15.53862096
2.83	283	-0.209	-0.83	-0.122	-9.0527364	59.4730404	4.6982556	85.57700688	-2.58404058	-14.94847422
2.84	284	-0.099	-0.845	-0.122	-12.2040054	62.9107884	8.7662574	85.41657864	-2.64133638	-14.31822042
2.85	285	0.004	-0.876	-0.137	-14.7250206	62.1086472	11.8602306	85.22177292	-2.7215505	-13.69942578
2.86	286	0.098	-0.909	-0.162	-15.9282324	57.5249832	12.318597	85.02123762	-2.81322378	-13.1207382
2.87	287	0.136	-0.908	-0.192	-15.5844576	50.5348956	11.2299768	84.83216148	-2.89916748	-12.61653516
2.88	288	0.14	-0.894	-0.208	-13.750992	40.1643558	10.0840608	84.66600366	-2.97365202	-12.20973498
2.89	289	0.114	-0.89	-0.217	-14.037471	27.1582092	9.3392154	84.50557542	-3.04813656	-11.93471514
2.9	290	0.085	-0.896	-0.231	-14.9542038	15.469866	8.8235532	84.31649928	-3.10543236	-11.7742869
2.91	291	0.06	-0.914	-0.251	-16.9595568	5.443101	8.4224826	84.1388823	-3.18564648	-11.7169911
2.92	292	0.051	-0.918	-0.247	-18.048177	-2.291832	7.2192708	83.95553574	-3.26013102	-11.73417984
2.93	293	0.037	-0.909	-0.221	-16.9595568	-7.9068204	4.6409598	83.78937792	-3.31742682	-11.80866438
2.94	294	0.015	-0.909	-0.186	-13.5791046	-10.599723	1.145916	83.66332716	-3.34034514	-11.91179682
2.95	295	-0.02	-0.923	-0.153	-9.3392154	-11.0007936	-2.4637194	83.56019472	-3.31742682	-12.02638842
2.96	296	-0.056	-0.943	-0.114	-4.870143	-10.1413566	-6.8182002	83.51435808	-3.26013102	-12.13525044
2.97	297	-0.088	-0.973	-0.072	-1.0886202	-7.5630456	-11.3445684	83.5086285	-3.151269	-12.22119414
2.98	298	-0.106	-0.994	-0.032	1.3750992	-3.3804522	-15.8709366	83.53154682	-2.99657034	-12.27276036
2.99	299	-0.108	-1	-0.006	2.1199446	1.5469866	-19.5951636	83.54873556	-2.80176462	-12.27848994
3	300	-0.089	-0.99	0.006	1.0886202	6.9900876	-22.1734746	83.57738346	-2.58404058	-12.2326533
3.01	301	-0.052	-0.975	0.018	-1.6042824	12.2040054	-23.6058696	83.55446514	-2.33766864	-12.14098002
3.02	302	-0.022	-0.959	0.023	-4.9274388	16.1001198	-23.7204612	83.49716934	-2.0912967	-12.00919968
3.03	303	0.001	-0.944	0.022	-7.3911582	18.8503182	-23.3193906	83.41122564	-1.84492476	-11.84877144
3.04	304	0.013	-0.933	0.018	-9.2246238	20.912967	-22.7464326	83.3080932	-1.6042824	-11.66542488
3.05	305	0.024	-0.92	0.015	-9.6256944	23.0902074	-22.1161788	83.21641992	-1.35791046	-11.46488958
3.06	306	0.028	-0.916	0.017	-9.6829902	24.8090814	-21.0848544	83.1075579	-1.12872726	-11.24716554
3.07	307	0.028	-0.906	0.015	-9.9121734	26.2987722	-19.7097552	82.99869588	-0.91100322	-11.01225276
3.08	308	0.036	-0.895	0.011	-10.7716104	27.215505	-18.1054728	82.88410428	-0.70473834	-10.76588082
3.09	309	0.045	-0.891	0.013	-12.7769634	28.0176462	-16.5011904	82.74659436	-0.52139178	-10.5137793
3.1	310	0.058	-0.891	0.007	-15.2979786	28.2468294	-15.5844576	82.5918957	-0.33231564	-10.2559482
3.11	311	0.076	-0.896	0.002	-16.2147114	28.8770832	-15.3552744	82.42573788	-0.14896908	-9.99238752
3.12	312	0.1	-0.901	0.004	-16.8449652	29.220858	-15.6990492	82.2481209	0.0286479	-9.72882684
3.13	313	0.116	-0.904	0.008	-17.1314442	29.3927454	-16.4438946	82.07050392	0.21772404	-9.46526616
3.14	314	0.115	-0.912	0.018	-17.2460358	29.6792244	-17.0168526	81.89288694	0.41825934	-9.1959759
3.15	315	0.103	-0.925	0.032	-16.6730778	30.2521824	-17.5898106	81.7324587	0.6302538	-8.92668564
3.16	316	0.083	-0.942	0.039	-14.9542038	32.8304934	-18.3919518	81.58348962	0.84797784	-8.62874748
3.17	317	0.089	-0.967	0.045	-12.2613012	37.3568616	-19.3086846	81.45743886	1.08289062	-8.29070226
3.18	318	0.093	-1.002	0.037	-9.9121734	41.539455	-20.1108258	81.360036	1.32926256	-7.91254998
3.19	319	0.084	-1.053	0.007	-9.3392154	44.3469492	-20.3973048	81.26836272	1.58136408	-7.51147938
3.2	320	0.061	-1.093	0.015	-10.5424272	47.8992888	-21.0848544	81.17668944	1.85065434	-7.0760313
3.21	321	0.108	-1.03	0.011	0.1718874	57.7541664	-19.0222056	81.19387818	2.11421502	-6.53745078
3.22	322	0.124	-0.924	0.019	3.0366774	52.712136	-10.0840608	81.23398524	2.27464326	-6.03324774
3.23	323	0.102	-0.87	0.071	-1.6615782	31.9137606	-0.286479	81.22825566	2.3204799	-5.71812084
3.24	324	0.093	-0.905	0.116	-3.3804522	19.194093	3.2085648	81.19960776	2.30902074	-5.52331512
3.25	325	0.1	-0.908	0.135	0.9167328	10.886202	0.1145916	81.29701062	2.35485738	-5.42018268
3.26	326	0.116	-0.883	0.117	7.5630456	5.6722842	-2.9793816	81.37722474	2.38923486	-5.36861646
3.27	327	0.119	-0.851	0.127	12.6623718	-2.005353	-3.4950438	81.5032755	2.42361234	-5.39153478
3.28	328	0.099	-0.839	0.137	17.6471064	-9.3392154	-2.3491278	81.68089248	2.4350715	-5.48893764
3.29	329	0.078	-0.826	0.149	22.345362	-16.329303	-1.145916	81.9043461	2.42934192	-5.6436363
3.3	330	0.047	-0.797	0.141	26.1841806	-22.345362	-0.6875496	82.18509552	2.41788276	-5.86708992
3.31	331	0.005	-0.768	0.119	28.7051958	-24.5798982	-1.2605076	82.47157452	2.4064236	-6.10773228
3.32	332	-0.054	-0.752	0.081	29.4500412	-21.199446	-2.9793816	82.7637831	2.41788276	-6.31399716
3.33	333	-0.137	-0.749	0.01	27.788463	-11.6310474	-6.589017	83.03880294	2.47517856	-6.43431834
3.34	334	-0.225	-0.744	-0.115	24.064236	0.3437748	-11.9748222	83.28517488	2.59549974	-6.44004792
3.35	335	-0.322	-0.721	-0.203	17.9908812	12.4331886	-18.4492476	83.4513327	2.74446882	-6.33691548
3.36	336	-0.388	-0.686	-0.27	11.6310474	25.78311	-24.8090814	83.57738346	3.01375908	-6.10773228
3.37	337	-0.397	-0.66	-0.369	2.8074942	36.2109456	-30.3094782	83.6232201	3.34607472	-5.78114622
3.38	338	-0.338	-0.617	-0.41	-3.724227	39.4195104	-34.1482968	83.60030178	3.71276784	-5.43164184
3.39	339	-0.235	-0.586	-0.368	-5.156622	39.9351726	-35.4661002	83.5659243	4.0966497	-5.07640788
3.4	340	-0.078	-0.571	-0.295	2.3491278	39.8778768	-33.0596766	83.5945722	4.45188366	-4.71544434
3.41	341	0.037	-0.585	-0.206	16.5011904	36.1536498	-26.2987722	83.78364834	4.74409224	-4.3831287
3.42	342	0.073	-0.616	-0.067	28.9916748	30.7105488	-17.5898106	84.09877524	4.94462754	-4.0966497
3.43	343	0.096	-0.686	0.069	36.4401288	29.3354496	-9.2819196	84.48838668	5.05921914	-3.8101707
3.44	344	0.122	-0.809	0.198	36.8411994	31.9710564	-2.4064236	84.8837277	5.10505578	-3.48931422
3.45	345	0.102	-0.947	0.273	33.4607472	38.5600734	2.86479	85.2847983	5.10505578	-3.09970278
3.46	346	0.027	-1.059	0.292	26.2987722	46.0085274	6.1879464	85.58846604	5.0706783	-2.64133638
3.47	347	-0.055	-1.102	0.283	13.6936962	51.279741	7.9068204	85.76608302	5.0133825	-2.1199446
3.48	348	-0.127	-1.045	0.26	-2.6356068	52.5975444	8.2505952	85.77754218	4.9560867	-1.59282324
3.49	349	-0.113	-0.954	0.212	-19.8816426	52.0818822	8.59437	85.61138436	4.89306132	-1.07716104
3.5	350	-0.075	-0.856	0.143	-35.4661002	50.9359662	9.2819196	85.29625746	4.81857678	-0.56722842
3.51	351	-0.005	-0.725	0.047	-50.1911208	47.4982182	8.5370742	84.82070232	4.7555514	-0.09167328
3.52	352	0.087	-0.606	-0.032	-61.020027	41.1383844	8.021412	84.23055558	4.6982556	0.30939732
3.53	353	0.157	-0.486	-0.102	-70.2446508	34.5493674	8.021412	83.54300598	4.6409598	0.65317212
3.54	354	0.203	-0.315	-0.137	-70.760313	29.507337	9.6256944	82.84399722	4.56074568	0.9453807
3.55	355	0.204	-0.14	-0.151	-60.733548	30.4240698	14.2666542	82.23666174	4.45761324	1.2605076
3.56	356	0.16	-0.027	-0.157	-43.544808	37.2995658	21.485925	81.8184024	4.27999626	1.65011904
3.57	357	0.083	-0.073	-0.081	-23.2620948	49.3316838	30.3094782	81.61213752	4.0393539	2.1772404
3.58	358	0.022	-0.248	0.053	-11.1153852	59.0719698	32.8304934	81.53765298	3.78725238	2.8074942
3.59	359	0.002	-0.426	0.101	-14.8396122	64.2285918	28.1322378	81.42306138	3.5809875	3.47785506
3.6	360	0.016	-0.652	0.011	-31.6845774	63.311859	16.042824	81.13658238	3.50077338	4.11956802
3.61	361	0.01	-0.916	-0.141	-58.0406454	50.4775998	-1.9480572	80.56935396	3.57525792	4.60658232
3.62	362	-0.002	-1.209	-0.323	-101.5854534	24.5798982	-23.491278	79.54375914	3.83308902	4.79565846
3.63	363	0.047	-1.535	-0.533	-155.9591676	1.3750992	-45.1490904	77.95666548	4.25707794	4.70971476
3.64	364	0.166	-1.952	-0.914	-216.291645	-13.178034	-63.6556338	75.73931802	4.82430636	4.41750618
3.65	365	0.328	-2.223	-1.078	-274.2749946	-14.5531332	-76.203414	72.92036466	5.48893764	4.05081306
3.66	366	0.479	-2.361	-1.104	-305.3293182	-12.9488508	-79.2973872	69.78055482	6.16502808	3.64974246
3.67	367	0.458	-2.393	-1.211	-307.5638544	-32.8304934	-74.771019	66.59490834	6.7036086	3.04240698
3.68	368	0.285	-2.454	-1.071	-315.5279706	-57.582279	-67.2652692	63.30039984	7.0473834	2.21161788
3.69	369	0.167	-2.407	-0.885	-325.7839188	-56.149884	-59.7022236	59.9027589	7.2765666	1.40947668
3.7	370	0.18	-2.324	-0.793	-345.780153	-69.8435802	-60.16059	56.28166434	7.3911582	0.47555514
3.71	371	0.09	-2.329	-0.608	-361.4219064	-90.240885	-66.8069028	52.47722322	7.38542862	-0.67036086
3.72	372	-0.078	-2.113	-0.141	-358.8435954	-88.7511942	-69.0987348	48.70143	7.32813282	-1.82200644
3.73	373	-0.231	-1.845	0.125	-350.3065212	-82.1048814	-57.9833496	45.02303964	7.16770458	-2.8361421
3.74	374	-0.299	-1.506	0.309	-336.2117544	-81.2454444	-37.0130868	41.52226626	6.80101146	-3.68411994
3.75	375	-0.239	-1.212	0.426	-321.9451002	-77.4066258	-20.9702628	38.19910986	6.31399716	-4.3544808
3.76	376	-0.046	-1.015	0.471	-305.3293182	-70.6457214	-11.0007936	35.05930002	5.7868758	-4.88160216
3.77	377	0.184	-0.926	0.608	-293.1253128	-72.192708	-1.0886202	32.05127052	5.16808116	-5.2998615
3.78	378	0.277	-0.787	0.535	-286.1352252	-80.6724864	3.9534102	29.12918472	4.43469492	-5.68947294
3.79	379	0.308	-0.641	0.517	-279.2024334	-87.7771656	3.437748	26.27585388	3.62109456	-6.07908438
3.8	380	0.303	-0.492	0.701	-273.9885156	-87.0323202	2.4637194	23.50273716	2.81322378	-6.43431834
3.81	381	0.481	-0.242	0.798	-276.7960098	-66.0047616	-2.9793816	20.68951338	2.18869956	-6.71506776
3.82	382	0.663	0.211	0.657	-275.306319	-49.7900502	-10.5424272	17.89347834	1.72460358	-6.98435802
3.83	383	0.578	0.442	0.456	-264.420117	-42.7999626	-13.3499214	15.2120349	1.32926256	-7.23072996
3.84	384	0.124	0.522	0.236	-250.2680544	-27.2728008	-9.0527364	12.66810138	1.05424272	-7.37969904
3.85	385	-0.441	0.363	0.127	-226.2038184	1.432395	-2.9793816	10.36481022	1.02559482	-7.3911582
3.86	386	-0.913	0.297	0.051	-207.8691624	36.382833	4.583664	8.25632478	1.3464513	-7.26510744
3.87	387	-1.475	0.663	-0.186	-169.4809764	85.5426294	7.161975	6.52599162	2.1485925	-7.05311298
3.88	388	-1.483	1.169	-0.267	-130.1187618	125.5350978	-0.9167328	5.19672906	3.36899304	-6.89268474
3.89	389	-0.672	1.353	-0.159	-111.8414016	153.7819272	-12.4331886	4.04508348	4.87587258	-6.84111852
3.9	390	0.158	1.51	-0.232	-113.159205	166.9599612	-10.2559482	2.86479	6.51453246	-6.79528188
3.91	391	0.713	1.466	-0.489	-116.4250656	170.2831176	2.6356068	1.67876694	8.18184024	-6.64058322
3.92	392	1.11	0.897	-0.764	-122.5557162	166.7880738	13.0061466	0.44690724	9.80904096	-6.42285918
3.93	393	1.046	0.276	-0.793	-133.8429888	147.823164	10.9434978	-0.89381448	11.25289512	-6.26816052
3.94	394	0.789	0.276	-0.772	-137.5672158	126.623718	-3.2085648	-2.31475032	12.4904844	-6.28534926
3.95	395	0.519	0.642	-1.174	-99.121734	110.580894	-18.7357266	-3.39191136	13.56191586	-6.49734372
3.96	396	0.423	0.821	-1.193	-54.0299394	111.3830352	-37.3568616	-4.05654264	14.63334732	-6.91560306
3.97	397	0.471	0.85	-1.108	-59.4157446	92.5900128	-39.3622146	-4.78992888	15.51570264	-7.3625103
3.98	398	0.243	0.905	-1.089	-41.5967508	61.592985	-28.8770832	-5.31132066	16.09439022	-7.69482594
3.99	399	0.127	0.941	-1.209	-37.815228	40.9092012	-41.6540466	-5.82698286	16.45535376	-8.14746276
4	400	-0.7	1.182	-1.416	-44.8626114	8.9954406	-75.916935	-6.51453246	16.45535376	-8.93241522
4.01	401	0.396	2.145	-2.384	-107.3723292	-11.2299768	-112.2424722	-7.92400914	16.19752266	-10.06114248
4.02	402	1.897	3.092	-3.934	-62.3951262	-13.6364004	-133.2700308	-8.92668564	15.86520702	-11.4018642
4.03	403	2.64	3.034	-3.996	-21.6005166	-92.7619002	-114.4197126	-9.40797036	14.77658682	-12.43891818
4.04	404	2.668	1.908	-3.996	-19.194093	-143.9270496	-78.208767	-9.72882684	13.2353298	-13.02333534
4.05	405	1.494	1.994	-3.71	-27.9603504	-156.4748298	-44.5188366	-10.03822416	11.62531782	-13.2353298
4.06	406	0.872	1.833	-3.159	-0.4010706	-109.3776822	-9.1100322	-10.01530584	10.5424272	-13.16657484
4.07	407	1.362	1.415	-2.867	43.4875122	-91.7305758	17.7044022	-9.5111028	9.67726062	-12.8629071
4.08	408	1.632	0.89	-2.109	36.096354	-115.451037	40.10706	-9.04127724	8.61155874	-12.31286742
4.09	409	1.399	0.415	-1.17	9.167328	-136.8796662	56.3217714	-8.8235532	7.35678072	-11.58521076
4.1	410	0.769	0.248	-0.439	-17.9335854	-146.5626564	57.1812084	-8.90376732	6.02751816	-10.83463578
4.11	411	0.317	0.181	-0.258	-25.9549974	-140.6038932	47.269035	-9.08711388	4.71544434	-10.18719324
4.12	412	0.151	0.168	-0.318	-28.0176462	-126.7956054	38.6173692	-9.31629708	3.52942128	-9.63715356
4.13	413	0.022	0.204	-0.333	-41.7113424	-123.1286742	29.9084076	-9.70017894	2.37204612	-9.17305758
4.14	414	-0.196	0.354	-0.251	-57.7541664	-119.461743	27.6165756	-10.2559482	1.24331886	-8.72042076
4.15	415	-0.308	0.474	-0.259	-64.457775	-106.1118216	26.069589	-10.90912032	0.2291832	-8.29643184
4.16	416	-0.249	0.438	-0.345	-63.02538	-87.7198698	19.9962342	-11.53364454	-0.58441716	-7.94692746
4.17	417	-0.075	0.321	-0.402	-51.1651494	-74.198061	16.2147114	-12.04930674	-1.27769634	-7.65471888
4.18	418	-0.072	0.207	-0.34	-29.1062664	-64.171296	16.1574156	-12.34151532	-1.87357266	-7.37969904
4.19	419	-0.139	0.171	-0.259	-10.5424272	-54.6601932	15.9855282	-12.45610692	-2.37204612	-7.12186794
4.2	420	-0.173	0.215	-0.133	1.3750992	-52.4829528	13.2926256	-12.45610692	-2.86479	-6.89268474
4.21	421	-0.188	0.234	-0.089	11.3445684	-54.6028974	5.8441716	-12.34151532	-3.3804522	-6.7322565
4.22	422	-0.151	0.182	-0.166	10.6570188	-54.717489	-7.6203414	-12.22692372	-3.93049188	-6.70933818
4.23	423	-0.083	0.077	-0.319	7.3911582	-46.9252602	-22.2307704	-12.13525044	-4.42896534	-6.84111852
4.24	424	-0.042	0.017	-0.495	7.8495246	-36.3255372	-32.085648	-12.032118	-4.84722468	-7.08749046
4.25	425	0.005	0.077	-0.637	12.2040054	-31.2835068	-32.5440144	-11.88314892	-5.20818822	-7.35105114
4.26	426	0.053	0.22	-0.737	19.3086846	-30.5959572	-24.9809688	-11.66542488	-5.5576926	-7.54585686
4.27	427	-0.017	0.348	-0.888	26.2414764	-35.236917	-15.0114996	-11.38467546	-5.9301153	-7.63753014
4.28	428	-0.184	0.409	-1.069	31.7418732	-45.7220484	-8.7089616	-11.05235982	-6.3884817	-7.6489893
4.29	429	-0.243	0.408	-1.2	39.9924684	-59.2438572	-10.1986524	-10.63983006	-6.97862844	-7.65471888
4.3	430	-0.281	0.352	-1.295	45.6074568	-71.046792	-14.4958374	-10.16427492	-7.70055552	-7.69482594
4.31	431	-0.369	0.332	-1.305	45.4355694	-82.505952	-16.7303736	-9.6829902	-8.53134462	-7.74639216
4.32	432	-0.413	0.264	-1.265	42.1697088	-88.9230816	-18.621135	-9.23608296	-9.4251591	-7.81514712
4.33	433	-0.473	0.203	-1.295	35.4661002	-86.3447706	-19.8816426	-8.84647152	-10.30178484	-7.90109082
4.34	434	-0.543	0.14	-1.333	30.7678446	-78.8963166	-20.5691922	-8.50269672	-11.09819646	-8.01568242
4.35	435	-0.58	0.077	-1.345	25.7258142	-69.4425096	-21.4286292	-8.20475856	-11.81439396	-8.14746276
4.36	436	-0.627	0.001	-1.207	20.5118964	-57.868758	-22.7464326	-7.95265704	-12.41599986	-8.31362058
4.37	437	-0.585	-0.046	-1.062	10.8289062	-43.2010332	-25.3247436	-7.7922288	-12.87436626	-8.51988546
4.38	438	-0.485	-0.046	-0.964	3.6096354	-37.8725238	-27.5592798	-7.70055552	-13.28116644	-8.76052782
4.39	439	-0.425	-0.034	-0.906	-1.8907614	-36.8984952	-29.7365202	-7.65471888	-13.68223704	-9.0240885
4.4	440	-0.357	-0.015	-0.845	-7.2192708	-37.5860448	-30.7105488	-7.64325972	-14.11195554	-9.29337876
4.41	441	-0.302	-0.023	-0.793	-12.318597	-35.1796212	-30.3094782	-7.70055552	-14.4958374	-9.56266902
4.42	442	-0.26	-0.037	-0.841	-15.1260912	-30.1948866	-28.4187168	-7.78649922	-14.83388262	-9.81477054
4.43	443	-0.205	-0.055	-0.893	-17.0741484	-25.3247436	-26.069589	-7.89536124	-15.12036162	-10.0554129
4.44	444	-0.175	-0.015	-0.849	-18.7357266	-22.2880662	-23.2620948	-8.02714158	-15.37246314	-10.26167778
4.45	445	-0.193	0.042	-0.821	-17.1314442	-20.6837838	-19.3659804	-8.14173318	-15.60164634	-10.43929476
4.46	446	-0.231	0.089	-0.825	-14.7823164	-19.5378678	-14.7250206	-8.25632478	-15.8136408	-10.56534552
4.47	447	-0.254	0.158	-0.852	-12.6623718	-20.1681216	-10.886202	-8.35945722	-16.03136484	-10.65128922
4.48	448	-0.286	0.207	-0.874	-10.1413566	-23.491278	-8.4797784	-8.44540092	-16.2720072	-10.70858502
4.49	449	-0.325	0.23	-0.88	-6.9900876	-26.642547	-7.3911582	-8.50269672	-16.54702704	-10.74869208
4.5	450	-0.343	0.226	-0.895	-3.3804522	-27.788463	-6.6463128	-8.54280378	-16.8449652	-10.77733998
4.51	451	-0.379	0.223	-0.917	0.286479	-28.4760126	-5.7868758	-8.53134462	-17.13717378	-10.8002583
4.52	452	-0.394	0.225	-0.944	3.437748	-27.2728008	-5.0420304	-8.48550798	-17.41219362	-10.81744704
4.53	453	-0.399	0.24	-0.949	6.5317212	-23.0902074	-3.724227	-8.41102344	-17.64137682	-10.8289062
4.54	454	-0.414	0.268	-0.902	10.6570188	-19.8243468	-2.291832	-8.30216142	-17.83618254	-10.8289062
4.55	455	-0.438	0.282	-0.877	15.4125702	-17.1314442	-1.3750992	-8.18184024	-18.04244742	-10.80598788
4.56	456	-0.473	0.259	-0.896	16.6730778	-14.037471	-1.6042824	-8.00995284	-18.17995734	-10.81171746
4.57	457	-0.511	0.206	-0.946	15.2406828	-7.5630456	-3.3804522	-7.84379502	-18.25444188	-10.84036536
4.58	458	-0.526	0.144	-1.03	13.5791046	1.4896908	-6.302538	-7.68909636	-18.2487123	-10.90912032
4.59	459	-0.486	0.081	-1.119	11.9175264	11.9748222	-11.172681	-7.52866812	-18.14557986	-11.03517108
4.6	460	-0.415	0.096	-1.086	14.0947668	21.0848544	-16.6730778	-7.32240324	-17.9622333	-11.23570638
4.61	461	-0.325	0.129	-0.984	17.761698	29.1635622	-19.3659804	-7.0760313	-17.69294304	-11.46488958
4.62	462	-0.288	0.154	-0.867	19.5378678	32.8877892	-17.18874	-6.8182002	-17.3892753	-11.67688404
4.63	463	-0.249	0.171	-0.738	17.4179232	38.961144	-11.9175264	-6.60047616	-17.0168526	-11.83731228
4.64	464	-0.272	0.155	-0.635	14.2093584	45.3782736	-5.8441716	-6.42858876	-16.57567494	-11.94044472
4.65	465	-0.24	0.101	-0.655	11.172681	46.1804148	1.6615782	-6.31972674	-16.12303812	-11.96336304
4.66	466	-0.252	0.018	-0.744	6.7609044	39.3049188	9.5683986	-6.2738901	-15.72196752	-11.90033766
4.67	467	-0.286	-0.052	-0.817	2.4637194	29.6219286	14.9542038	-6.28534926	-15.4125702	-11.76855732
4.68	468	-0.329	-0.069	-0.874	-0.6302538	19.8243468	17.0741484	-6.33691548	-15.20057574	-11.61385866
4.69	469	-0.392	-0.021	-0.913	-4.5263682	9.6256944	16.5011904	-6.42285918	-15.09171372	-11.45343042
4.7	470	-0.407	0.052	-0.956	-5.7868758	8.021412	15.3552744	-6.52026204	-15.02868834	-11.29873176
4.71	471	-0.414	0.117	-1.011	-4.1252976	9.0527364	13.6364004	-6.59474658	-14.9255559	-11.16695142
4.72	472	-0.408	0.144	-1.058	-0.4583664	11.1153852	12.0894138	-6.63485364	-14.80523472	-11.05235982
4.73	473	-0.386	0.152	-1.076	2.8074942	13.3499214	10.3705398	-6.62912406	-14.65626564	-10.96068654
4.74	474	-0.361	0.141	-1.068	5.5003968	14.4385416	8.4797784	-6.59474658	-14.50729656	-10.886202
4.75	475	-0.337	0.124	-1.037	6.5317212	14.9542038	7.1046792	-6.54890994	-14.36405706	-10.82317662
4.76	476	-0.314	0.114	-0.992	6.4171296	15.2979786	6.2452422	-6.49734372	-14.2093584	-10.7716104
4.77	477	-0.292	0.099	-0.959	5.6149884	18.334656	6.1879464	-6.45150708	-14.02028226	-10.72577376
4.78	478	-0.268	0.082	-0.936	3.7815228	21.3713334	6.5317212	-6.42858876	-13.80255822	-10.67993712
4.79	479	-0.235	0.069	-0.914	2.1199446	23.491278	6.589017	-6.42285918	-13.56191586	-10.63410048
4.8	480	-0.209	0.059	-0.912	1.2032118	25.3247436	6.589017	-6.4171296	-13.29835518	-10.58826384
4.81	481	-0.171	0.054	-0.93	0.8021412	26.5852512	7.0473834	-6.42285918	-13.02906492	-10.5424272
4.82	482	-0.147	0.067	-0.941	0.1718874	26.9863218	7.734933	-6.43431834	-12.75404508	-10.4851314
4.83	483	-0.127	0.081	-0.958	-0.1718874	26.356068	8.4797784	-6.45723666	-12.48475482	-10.42210602
4.84	484	-0.119	0.105	-0.971	-0.4583664	25.0955604	9.5111028	-6.48015498	-12.22692372	-10.34762148
4.85	485	-0.112	0.13	-0.967	-0.4010706	22.1161788	10.0840608	-6.51453246	-11.9748222	-10.26167778
4.86	486	-0.11	0.151	-0.967	-0.4010706	19.2513888	10.026765	-6.53745078	-11.7742869	-10.17573408
4.87	487	-0.124	0.164	-0.972	-0.5156622	16.1574156	9.5683986	-6.56609868	-11.60812908	-10.09551996
4.88	488	-0.13	0.169	-0.983	-0.572958	13.5791046	8.880849	-6.589017	-11.46488958	-10.01530584
4.89	489	-0.132	0.172	-0.995	-0.572958	11.2299768	7.9068204	-6.60620574	-11.3445684	-9.94655088
4.9	490	-0.134	0.173	-1.009	-0.859437	9.3965112	7.0473834	-6.66350154	-11.21851764	-9.87779592
4.91	491	-0.134	0.174	-0.998	-1.718874	7.9068204	5.9587632	-6.69214944	-11.13257394	-9.8262297
4.92	492	-0.128	0.177	-0.979	-2.1772404	6.7609044	5.2712136	-6.72652692	-11.0580894	-9.78039306
4.93	493	-0.137	0.181	-0.967	-2.3491278	4.9274388	4.2398892	-6.75517482	-11.00652318	-9.740286
4.94	494	-0.138	0.183	-0.96	-2.2345362	3.9534102	3.2085648	-6.7895523	-10.96068654	-9.7116381
4.95	495	-0.134	0.173	-0.956	-2.291832	3.6096354	2.6356068	-6.88695516	-10.88047242	-9.67726062
4.96	496	-0.136	0.154	-0.952	-2.9220858	2.291832	1.7761698	-6.92133264	-10.85182452	-9.66007188
4.97	497	-0.155	0.126	-0.958	-4.4690724	-1.3750992	0.1718874	-6.96716928	-10.86901326	-9.6543423
4.98	498	-0.179	0.111	-0.964	-5.6149884	-5.443101	-2.2345362	-7.0187355	-10.92630906	-9.67153104
4.99	499	-0.178	0.11	-0.962	-5.0993262	-6.6463128	-5.0420304	-7.06457214	-10.99506402	-9.71736768
5	500	-0.155	0.122	-0.965	-3.6669312	-5.443101	-6.9900876	-7.09894962	-11.04090066	-9.78039306
5.01	501	-0.145	0.129	-0.961	-2.6929026	-4.6982556	-7.1046792	-7.11613836	-11.09819646	-9.84914802
5.02	502	-0.146	0.121	-0.956	-2.291832	-5.0993262	-6.016059	-7.12759752	-11.15549226	-9.90071424
5.03	503	-0.155	0.109	-0.946	-2.3491278	-5.72958	-4.4690724	-7.14478626	-11.21851764	-9.9408213
5.04	504	-0.168	0.11	-0.952	-2.5210152	-6.4171296	-3.437748	-7.161975	-11.2872726	-9.9694692
5.05	505	-0.185	0.102	-0.961	-2.4064236	-7.0473834	-2.9793816	-7.17916374	-11.36175714	-9.99238752
5.06	506	-0.198	0.105	-0.967	-2.4064236	-8.4224826	-3.0366774	-7.20208206	-11.44770084	-10.01530584
5.07	507	-0.215	0.103	-0.972	-2.2345362	-9.8548776	-3.3804522	-7.2192708	-11.55083328	-10.03822416
5.08	508	-0.226	0.102	-0.98	-2.2345362	-10.599723	-3.7815228	-7.23645954	-11.6596953	-10.06687206
5.09	509	-0.228	0.105	-0.98	-2.6929026	-10.6570188	-3.8961144	-7.25364828	-11.76855732	-10.09551996
5.1	510	-0.227	0.108	-0.973	-2.9220858	-10.1986524	-3.724227	-7.2765666	-11.8888785	-10.12416786
5.11	511	-0.231	0.108	-0.971	-3.0366774	-10.3705398	-3.437748	-7.3052145	-11.99201094	-10.14708618
5.12	512	-0.241	0.108	-0.964	-2.9220858	-11.172681	-2.9220858	-7.32813282	-12.10660254	-10.16427492
5.13	513	-0.251	0.112	-0.951	-2.9793816	-10.8289062	-2.2345362	-7.35105114	-12.22119414	-10.17573408
5.14	514	-0.258	0.119	-0.948	-3.437748	-9.3965112	-1.3178034	-7.38542862	-12.31286742	-10.18146366
5.15	515	-0.267	0.131	-0.958	-3.724227	-7.9068204	-0.7448454	-7.44272442	-12.4331886	-10.1700045
5.16	516	-0.272	0.142	-0.956	-3.7815228	-6.1879464	-0.4010706	-7.48283148	-12.49621398	-10.1700045
5.17	517	-0.274	0.151	-0.947	-3.3804522	-5.156622	-0.2291832	-7.51720896	-12.5477802	-10.16427492
5.18	518	-0.272	0.157	-0.943	-2.2345362	-4.6982556	-0.4583664	-7.5343977	-12.59361684	-10.16427492
5.19	519	-0.264	0.159	-0.936	-1.2032118	-3.8388186	-0.7448454	-7.54585686	-12.6337239	-10.1700045
5.2	520	-0.256	0.156	-0.93	-0.6302538	-2.6929026	-1.0313244	-7.65471888	-12.76550424	-10.14708618
5.21	521	-0.247	0.153	-0.929	-0.3437748	-1.432395	-1.0313244	-7.66044846	-12.7769634	-10.15281576
5.22	522	-0.243	0.149	-0.931	-0.0572958	-0.7448454	-0.9167328	-7.65471888	-12.78842256	-10.16427492
5.23	523	-0.24	0.15	-0.939	0.4583664	-0.4583664	-0.6875496	-7.6489893	-12.79415214	-10.1700045
5.24	524	-0.241	0.153	-0.946	0.7448454	-0.1145916	-0.572958	-7.64325972	-12.79415214	-10.17573408
5.25	525	-0.244	0.153	-0.946	0.9740286	0.3437748	-0.286479	-7.8208767	-12.93739164	-10.12416786
5.26	526	-0.248	0.152	-0.949	1.0886202	0.8021412	-0.1145916	-7.80941754	-12.92593248	-10.12416786
5.27	527	-0.251	0.15	-0.954	1.0313244	1.0886202	0	-7.79795838	-12.91447332	-10.12989744
5.28	528	-0.256	0.145	-0.957	0.6875496	1.0886202	0.0572958	-7.7922288	-12.90301416	-10.12989744
5.29	529	-0.262	0.138	-0.959	0.4010706	0.8021412	0.0572958	-7.78649922	-12.89728458	-10.12989744
5.3	530	-0.263	0.134	-0.956	0.1718874	0.7448454	0	-7.91254998	-13.19522274	-10.07260164
5.31	531	-0.26	0.13	-0.955	0.1718874	1.0886202	0	-7.9068204	-13.18376358	-10.07260164
5.32	532	-0.252	0.124	-0.951	0.0572958	1.6615782	0	-7.9068204	-13.16657484	-10.07833122
5.33	533	-0.247	0.123	-0.951	-0.286479	1.8907614	0.1718874	-7.91254998	-13.1493861	-10.07833122
5.34	534	-0.242	0.121	-0.947	-0.5156622	1.9480572	0.4583664	-7.91827956	-13.12646778	-10.07260164
5.35	535	-0.24	0.123	-0.945	-0.572958	1.9480572	0.6875496	-7.94692746	-13.15511568	-10.06114248
5.36	536	-0.236	0.124	-0.947	-0.6302538	1.8907614	0.7448454	-7.95838662	-13.13219736	-10.0554129
5.37	537	-0.23	0.126	-0.946	-0.7448454	1.4896908	0.6302538	-7.9641162	-13.1207382	-10.04968332
5.38	538	-0.226	0.128	-0.945	-0.6875496	0.9740286	0.4583664	-7.97557536	-13.10927904	-10.04395374
5.39	539	-0.223	0.13	-0.949	-0.572958	0.4583664	0.4010706	-7.98130494	-13.10354946	-10.04395374
5.4	540	-0.219	0.132	-0.957	-0.4010706	0.1718874	0.286479	-8.20475856	-13.08636072	-9.98665794
5.41	541	-0.218	0.132	-0.965	-0.2291832	0	0.0572958	-8.20475856	-13.08636072	-9.98665794
5.42	542	-0.216	0.132	-0.964	-0.1145916	0.1145916	0	-8.20475856	-13.08063114	-9.98665794
5.43	543	-0.215	0.134	-0.96	-0.1718874	0.3437748	0.0572958	-8.21048814	-13.08063114	-9.98665794
5.44	544	-0.217	0.134	-0.956	-0.1145916	0.572958	0.286479	-8.21048814	-13.07490156	-9.98092836
5.45	545	-0.217	0.134	-0.95	-0.4010706	0.7448454	0.5156622	-8.26205436	-13.06917198	-9.9694692
5.46	546	-0.217	0.135	-0.951	-0.9167328	0.572958	0.6302538	-8.27351352	-13.0634424	-9.95801004
5.47	547	-0.218	0.136	-0.955	-1.0886202	-0.286479	0.572958	-8.28497268	-13.0634424	-9.95228046
5.48	548	-0.219	0.138	-0.959	-1.0886202	-1.4896908	0.4583664	-8.30216142	-13.07490156	-9.94655088
5.49	549	-0.222	0.138	-0.958	-0.9167328	-2.3491278	0.1145916	-8.307891	-13.10354946	-9.9408213
5.5	550	-0.225	0.138	-0.955	-0.7448454	-2.6356068	0	-8.34799806	-13.13792694	-9.92936214
5.51	551	-0.226	0.141	-0.955	-0.6302538	-2.8074942	-0.1145916	-8.35372764	-13.16657484	-9.92936214
5.52	552	-0.226	0.141	-0.957	-0.4583664	-2.7501984	-0.1145916	-8.35945722	-13.19522274	-9.92936214
5.53	553	-0.228	0.14	-0.949	-0.6302538	-2.4064236	-0.1145916	-8.3651868	-13.21814106	-9.92363256
5.54	554	-0.23	0.139	-0.949	-0.6875496	-2.1199446	-0.1718874	-8.37664596	-13.24105938	-9.92363256
5.55	555	-0.233	0.136	-0.947	-0.8021412	-1.718874	-0.1145916	-8.41675302	-13.2926256	-9.9121734
5.56	556	-0.233	0.134	-0.944	-0.9167328	-1.2605076	-0.2291832	-8.42821218	-13.30408476	-9.91790298
5.57	557	-0.233	0.134	-0.946	-0.9167328	-1.0313244	-0.286479	-8.43394176	-13.31554392	-9.91790298
5.58	558	-0.233	0.134	-0.948	-0.9740286	-1.0313244	-0.4010706	-8.44540092	-13.32700308	-9.91790298
5.59	559	-0.233	0.134	-0.95	-0.9740286	-1.145916	-0.4010706	-8.45686008	-13.33846224	-9.92363256
5.6	560	-0.234	0.136	-0.955	-0.9167328	-1.3750992	-0.4583664	-8.48550798	-13.3785693	-9.91790298
5.61	561	-0.237	0.137	-0.959	-0.7448454	-1.6615782	-0.4583664	-8.49123756	-13.39575804	-9.91790298
5.62	562	-0.24	0.14	-0.964	-0.3437748	-1.9480572	-0.4010706	-8.49696714	-13.41294678	-9.92363256
5.63	563	-0.245	0.138	-0.958	-0.286479	-1.8907614	-0.4583664	-8.49696714	-13.4358651	-9.92363256
5.64	564	-0.244	0.139	-0.951	-0.286479	-1.6615782	-0.3437748	-8.50269672	-13.45305384	-9.92936214
5.65	565	-0.245	0.139	-0.945	-0.286479	-1.718874	-0.2291832	-8.54280378	-13.53326796	-9.9121734
5.66	566	-0.244	0.137	-0.946	-0.286479	-1.3178034	-0.0572958	-8.54280378	-13.54472712	-9.9121734
5.67	567	-0.243	0.137	-0.948	-0.3437748	-0.859437	0.0572958	-8.54853336	-13.55618628	-9.9121734
5.68	568	-0.245	0.135	-0.944	-0.572958	-0.8021412	0.1718874	-8.55426294	-13.56191586	-9.90644382
5.69	569	-0.245	0.137	-0.943	-0.859437	-0.9740286	0.1145916	-8.5657221	-13.57337502	-9.90644382
5.7	570	-0.247	0.137	-0.945	-0.8021412	-0.6875496	0	-8.62874748	-13.68223704	-9.8835255
5.71	571	-0.246	0.138	-0.945	-0.6875496	-0.3437748	-0.1145916	-8.63447706	-13.68223704	-9.8835255
5.72	572	-0.243	0.136	-0.944	-0.4010706	-0.1145916	-0.1145916	-8.64020664	-13.68796662	-9.8835255
5.73	573	-0.241	0.134	-0.946	-0.1145916	0.2291832	-0.0572958	-8.64020664	-13.68223704	-9.88925508
5.74	574	-0.244	0.134	-0.948	-0.0572958	0.0572958	-0.0572958	-8.64020664	-13.68223704	-9.88925508
5.75	575	-0.245	0.135	-0.946	-0.1145916	0	-0.0572958	-8.73187992	-13.87131318	-9.8548776
5.76	576	-0.245	0.137	-0.948	-0.1145916	0	0	-8.7376095	-13.87131318	-9.8548776
5.77	577	-0.246	0.138	-0.953	-0.0572958	0.286479	0.1145916	-8.7376095	-13.8655836	-9.8548776
5.78	578	-0.246	0.138	-0.954	-0.2291832	0.4583664	0.3437748	-8.7376095	-13.85985402	-9.84914802
5.79	579	-0.243	0.141	-0.952	-0.2291832	0.572958	0.5156622	-8.74333908	-13.85412444	-9.84341844
5.8	580	-0.243	0.143	-0.952	-0.1145916	0.7448454	0.6875496	-8.80063488	-13.87704276	-9.82050012
5.81	581	-0.241	0.146	-0.95	0	0.6302538	0.6875496	-8.80063488	-13.87131318	-9.81477054
5.82	582	-0.241	0.147	-0.953	0.0572958	0.5156622	0.4583664	-8.80063488	-13.8655836	-9.81477054
5.83	583	-0.239	0.146	-0.952	0.1718874	0.4010706	0.286479	-8.80063488	-13.85985402	-9.80904096
5.84	584	-0.235	0.143	-0.951	0.3437748	0.2291832	0.1718874	-8.7949053	-13.85412444	-9.80904096
5.85	585	-0.234	0.141	-0.946	0.2291832	0.1145916	0	-8.92668564	-13.9228794	-9.7689339
5.86	586	-0.234	0.139	-0.948	0	0.1145916	0	-8.92668564	-13.91714982	-9.7689339
5.87	587	-0.235	0.14	-0.946	-0.0572958	0.1718874	0.1145916	-8.92668564	-13.91714982	-9.7689339
5.88	588	-0.238	0.138	-0.948	0	0.0572958	0.286479	-8.92668564	-13.91714982	-9.76320432
5.89	589	-0.238	0.138	-0.949	0	-0.3437748	0.1718874	-8.92668564	-13.91714982	-9.76320432
5.9	590	-0.239	0.136	-0.951	0	-0.4583664	0.1718874	-8.96106312	-13.96871604	-9.74601558
5.91	591	-0.239	0.138	-0.953	0.0572958	-0.3437748	0.1145916	-8.96106312	-13.97444562	-9.74601558
5.92	592	-0.239	0.137	-0.952	0.1718874	-0.2291832	0.0572958	-8.96106312	-13.9801752	-9.74601558
5.93	593	-0.241	0.138	-0.952	0.2291832	-0.0572958	0.0572958	-8.95533354	-13.9801752	-9.740286
5.94	594	-0.241	0.137	-0.954	0.3437748	-0.0572958	0.1145916	-8.95533354	-13.9801752	-9.740286
5.95	595	-0.241	0.136	-0.951	0.286479	0.5156622	0.1718874	-8.9667927	-14.00309352	-9.73455642
5.96	596	-0.24	0.135	-0.949	0.4010706	1.145916	0.1145916	-8.96106312	-13.99163436	-9.73455642
5.97	597	-0.24	0.135	-0.95	0.4010706	1.4896908	0	-8.96106312	-13.97444562	-9.73455642
5.98	598	-0.239	0.134	-0.951	0.3437748	1.4896908	0	-8.95533354	-13.96298646	-9.740286
5.99	599	-0.237	0.134	-0.952	0.1145916	1.2032118	0.0572958	-8.95533354	-13.94579772	-9.740286
6	600	-0.238	0.135	-0.952	0	0.572958	0.1145916	-8.9667927	-13.9801752	-9.73455642
6.01	601	-0.238	0.136	-0.952	0	0.1718874	0.1718874	-8.9667927	-13.97444562	-9.72882684
6.02	602	-0.241	0.138	-0.953	-0.1145916	-0.3437748	0.0572958	-8.9667927	-13.9801752	-9.72882684
6.03	603	-0.242	0.137	-0.956	-0.0572958	-0.7448454	0	-8.9667927	-13.98590478	-9.72882684
6.04	604	-0.242	0.138	-0.953	0	-0.6302538	-0.1145916	-8.9667927	-13.99163436	-9.72882684
6.05	605	-0.243	0.139	-0.953	0	-0.572958	-0.0572958	-9.00117018	-14.05465974	-9.71736768
6.06	606	-0.246	0.141	-0.95	0	-0.3437748	0	-9.00117018	-14.06038932	-9.71736768
6.07	607	-0.248	0.142	-0.954	0.0572958	0	0.1145916	-9.00117018	-14.06038932	-9.71736768
6.08	608	-0.249	0.142	-0.953	0.286479	0.4010706	0.1718874	-9.00117018	-14.05465974	-9.7116381
6.09	609	-0.249	0.142	-0.956	0.4010706	0.859437	0.2291832	-8.9954406	-14.04320058	-9.7116381
6.1	610	-0.249	0.142	-0.956	0.4583664	1.0313244	0.286479	-9.00689976	-14.05465974	-9.70590852
6.11	611	-0.246	0.142	-0.954	0.6302538	1.2605076	0.286479	-9.00117018	-14.04320058	-9.70590852
6.12	612	-0.243	0.143	-0.954	0.8021412	1.3750992	0.286479	-8.98971102	-14.02601184	-9.70590852
6.13	613	-0.242	0.143	-0.952	0.9740286	1.3178034	0.286479	-8.98398144	-14.01455268	-9.70017894
6.14	614	-0.24	0.143	-0.953	1.0313244	1.0886202	0.286479	-8.97252228	-14.00309352	-9.70017894
6.15	615	-0.24	0.143	-0.953	1.0313244	0.859437	0.3437748	-8.97825186	-14.00309352	-9.69444936
6.16	616	-0.242	0.141	-0.956	1.2032118	0.9167328	0.286479	-8.9667927	-13.99163436	-9.68871978
6.17	617	-0.241	0.138	-0.955	1.2605076	1.2605076	0.286479	-8.95533354	-13.9801752	-9.68871978
6.18	618	-0.241	0.137	-0.95	1.2605076	1.718874	0.2291832	-8.9381448	-13.96298646	-9.68871978
6.19	619	-0.239	0.136	-0.948	1.0886202	2.4637194	0.286479	-8.93241522	-13.94006814	-9.68871978
6.2	620	-0.234	0.137	-0.947	1.145916	2.9220858	0.5156622	-8.92668564	-13.91142024	-9.68871978
6.21	621	-0.232	0.139	-0.951	1.0313244	2.6356068	0.572958	-8.91522648	-13.88277234	-9.6829902
6.22	622	-0.233	0.138	-0.954	1.0886202	1.718874	0.5156622	-8.90376732	-13.8655836	-9.6829902
6.23	623	-0.237	0.133	-0.95	1.145916	0.9740286	0.3437748	-8.89230816	-13.85412444	-9.67726062
6.24	624	-0.239	0.129	-0.949	1.0886202	1.0313244	0.2291832	-8.880849	-13.84266528	-9.67726062
6.25	625	-0.241	0.129	-0.949	1.0313244	1.145916	0.2291832	-8.86938984	-13.85412444	-9.67726062
6.26	626	-0.243	0.132	-0.95	0.9167328	1.3750992	0.2291832	-8.86366026	-13.8369357	-9.67726062
6.27	627	-0.242	0.133	-0.952	0.859437	1.5469866	0.286479	-8.8522011	-13.81974696	-9.67726062
6.28	628	-0.243	0.135	-0.953	0.859437	1.6042824	0.3437748	-8.84647152	-13.80255822	-9.67153104
6.29	629	-0.24	0.136	-0.954	0.8021412	1.8334656	0.3437748	-8.83501236	-13.78536948	-9.67153104
6.3	630	-0.237	0.139	-0.956	0.9740286	1.6042824	0.5156622	-8.84074194	-13.77391032	-9.66580146
6.31	631	-0.236	0.138	-0.951	0.9167328	0.9740286	0.572958	-8.82928278	-13.76245116	-9.66007188
6.32	632	-0.24	0.135	-0.947	0.7448454	0.572958	0.572958	-8.8235532	-13.75672158	-9.6543423
6.33	633	-0.242	0.132	-0.947	0.6875496	0.7448454	0.6302538	-8.81782362	-13.750992	-9.64861272
6.34	634	-0.24	0.131	-0.95	0.6875496	0.9740286	0.572958	-8.81209404	-13.73953284	-9.64288314
6.35	635	-0.235	0.131	-0.95	0.7448454	0.8021412	0.4583664	-8.80636446	-13.74526242	-9.64288314
6.36	636	-0.233	0.126	-0.947	0.7448454	0.572958	0.4583664	-8.80063488	-13.73380326	-9.63715356
6.37	637	-0.234	0.128	-0.946	0.4583664	0.1718874	0.286479	-8.7949053	-13.73380326	-9.63142398
6.38	638	-0.236	0.13	-0.946	0.286479	0.1718874	0.4583664	-8.7949053	-13.73380326	-9.63142398
6.39	639	-0.237	0.134	-0.948	0.2291832	0.4583664	0.6302538	-8.78917572	-13.72807368	-9.6256944
6.4	640	-0.241	0.136	-0.955	0.3437748	0.6875496	0.6875496	-8.80063488	-13.74526242	-9.61423524
6.41	641	-0.242	0.135	-0.96	0.4583664	0.859437	0.6875496	-8.7949053	-13.73380326	-9.60850566
6.42	642	-0.243	0.135	-0.958	0.3437748	0.859437	0.572958	-8.7949053	-13.7223441	-9.60277608
6.43	643	-0.244	0.139	-0.954	0.572958	0.5156622	0.4583664	-8.78917572	-13.71661452	-9.5970465
6.44	644	-0.245	0.143	-0.948	0.6875496	0.3437748	0.286479	-8.78344614	-13.71661452	-9.5970465
6.45	645	-0.244	0.144	-0.943	0.6875496	0.4010706	0.1718874	-8.8235532	-13.75672158	-9.57985776
6.46	646	-0.242	0.141	-0.944	0.4583664	0.6302538	0.1718874	-8.81782362	-13.750992	-9.57985776
6.47	647	-0.239	0.139	-0.948	0.5156622	0.6875496	0.3437748	-8.81209404	-13.74526242	-9.57412818
6.48	648	-0.237	0.138	-0.952	0.6875496	0.6875496	0.4010706	-8.80636446	-13.73380326	-9.57412818
6.49	649	-0.235	0.137	-0.956	0.8021412	0.6875496	0.4010706	-8.80063488	-13.72807368	-9.5683986
6.5	650	-0.234	0.136	-0.953	0.9167328	0.6302538	0.4010706	-8.80063488	-13.72807368	-9.56266902
6.51	651	-0.235	0.134	-0.951	0.9167328	0.859437	0.5156622	-8.7949053	-13.7223441	-9.55693944
6.52	652	-0.237	0.132	-0.95	0.9740286	1.145916	0.572958	-8.78344614	-13.70515536	-9.55120986
6.53	653	-0.236	0.132	-0.949	0.859437	1.0313244	0.5156622	-8.77771656	-13.6936962	-9.54548028
6.54	654	-0.237	0.129	-0.952	0.7448454	1.0886202	0.572958	-8.77198698	-13.68223704	-9.54548028
6.55	655	-0.237	0.128	-0.951	0.572958	1.2605076	0.572958	-8.7662574	-13.68796662	-9.5397507
6.56	656	-0.238	0.129	-0.95	0.572958	1.3750992	0.5156622	-8.76052782	-13.67077788	-9.53402112
6.57	657	-0.241	0.129	-0.953	0.572958	1.4896908	0.4583664	-8.75479824	-13.65358914	-9.53402112
6.58	658	-0.239	0.131	-0.955	0.572958	1.5469866	0.4010706	-8.74906866	-13.64212998	-9.52829154
6.59	659	-0.236	0.131	-0.954	0.6302538	1.6615782	0.3437748	-8.74333908	-13.62494124	-9.52829154
6.6	660	-0.233	0.132	-0.951	0.4583664	1.7761698	0.1718874	-8.74333908	-13.61921166	-9.52829154
6.61	661	-0.235	0.13	-0.951	0.6302538	1.4896908	0.2291832	-8.7376095	-13.60202292	-9.52829154
6.62	662	-0.235	0.13	-0.951	0.6875496	1.432395	0.2291832	-8.73187992	-13.59056376	-9.52256196
6.63	663	-0.236	0.13	-0.951	0.6875496	1.3178034	0.2291832	-8.72615034	-13.57337502	-9.52256196
6.64	664	-0.234	0.13	-0.951	0.5156622	1.4896908	0.286479	-8.72042076	-13.56191586	-9.52256196
6.65	665	-0.232	0.132	-0.956	0.4010706	1.6615782	0.3437748	-8.72042076	-13.5504567	-9.51683238
6.66	666	-0.23	0.132	-0.959	0.5156622	1.432395	0.3437748	-8.72042076	-13.53326796	-9.51683238
6.67	667	-0.228	0.134	-0.957	0.7448454	1.2032118	0.5156622	-8.7089616	-13.5218088	-9.5111028
6.68	668	-0.23	0.133	-0.954	0.8021412	1.0313244	0.572958	-8.70323202	-13.51034964	-9.5111028
6.69	669	-0.235	0.134	-0.951	0.859437	0.9167328	0.572958	-8.69750244	-13.49889048	-9.50537322
6.7	670	-0.237	0.132	-0.949	0.8021412	1.2032118	0.5156622	-8.69750244	-13.51034964	-9.49964364
6.71	671	-0.238	0.133	-0.952	0.7448454	1.5469866	0.4583664	-8.69177286	-13.4931609	-9.49391406
6.72	672	-0.238	0.132	-0.953	0.8021412	1.8907614	0.4583664	-8.6803137	-13.47597216	-9.49391406
6.73	673	-0.236	0.132	-0.953	0.7448454	2.1199446	0.4010706	-8.67458412	-13.45305384	-9.48818448
6.74	674	-0.236	0.132	-0.953	0.859437	2.1199446	0.4583664	-8.66885454	-13.43013552	-9.48818448
6.75	675	-0.237	0.131	-0.95	0.7448454	1.8334656	0.3437748	-8.66885454	-13.4358651	-9.4824549
6.76	676	-0.237	0.133	-0.95	0.5156622	1.4896908	0.286479	-8.66312496	-13.42440594	-9.4824549
6.77	677	-0.238	0.131	-0.954	0.572958	1.2605076	0.1718874	-8.65739538	-13.41294678	-9.4824549
6.78	678	-0.236	0.131	-0.952	0.4583664	1.0886202	0.1145916	-8.6516658	-13.40148762	-9.4824549
6.79	679	-0.234	0.131	-0.954	0.4010706	1.0886202	0.0572958	-8.64593622	-13.39002846	-9.4824549
6.8	680	-0.233	0.132	-0.956	0.5156622	1.0886202	0.1718874	-8.6516658	-13.39575804	-9.4824549
6.81	681	-0.232	0.133	-0.955	0.6302538	0.9740286	0.2291832	-8.64593622	-13.38429888	-9.47672532
6.82	682	-0.231	0.132	-0.954	0.572958	1.0313244	0.286479	-8.64020664	-13.37283972	-9.47672532
6.83	683	-0.233	0.13	-0.952	0.572958	1.0313244	0.3437748	-8.63447706	-13.36138056	-9.47672532
6.84	684	-0.234	0.128	-0.953	0.6302538	1.2605076	0.3437748	-8.62874748	-13.3499214	-9.47099574
6.85	685	-0.233	0.128	-0.949	0.6302538	1.3178034	0.4010706	-8.6230179	-13.35565098	-9.47099574
6.86	686	-0.233	0.128	-0.948	0.572958	1.2605076	0.3437748	-8.61728832	-13.34419182	-9.46526616
6.87	687	-0.235	0.126	-0.95	-0.1145916	-0.1718874	-0.0572958	-8.6230179	-13.34419182	-9.47099574
6.88	688	-0.235	0.126	-0.953	-0.286479	-0.4583664	-0.1718874	-8.6230179	-13.3499214	-9.47099574
6.89	689	-0.233	0.124	-0.953	-0.4583664	-0.6875496	-0.2291832	-8.62874748	-13.35565098	-9.47099574
6.9	690	-0.232	0.126	-0.954	-0.6875496	-1.0886202	-0.2291832	-8.63447706	-13.38429888	-9.47099574
6.91	691	-0.231	0.13	-0.953	-0.6875496	-1.145916	-0.1145916	-8.64020664	-13.39575804	-9.47099574
6.92	692	-0.233	0.131	-0.952	-0.572958	-1.0886202	0	-8.64593622	-13.4072172	-9.47099574
6.93	693	-0.234	0.132	-0.954	-0.4583664	-0.9167328	0	-8.6516658	-13.41867636	-9.47099574
6.94	694	-0.234	0.133	-0.951	-0.5156622	-0.8021412	0	-8.65739538	-13.42440594	-9.46526616
6.95	695	-0.233	0.132	-0.95	-0.572958	-0.4010706	-0.0572958	-8.68604328	-13.45878342	-9.45953658
6.96	696	-0.229	0.135	-0.952	-0.4583664	-0.4010706	0	-8.69177286	-13.464513	-9.45953658
6.97	697	-0.23	0.134	-0.947	-0.4583664	-0.8021412	0.1145916	-8.69750244	-13.47024258	-9.45953658
6.98	698	-0.234	0.13	-0.947	-0.572958	-1.0886202	0	-8.70323202	-13.48170174	-9.45953658
6.99	699	-0.234	0.129	-0.95	-0.6875496	-0.8021412	0	-8.7089616	-13.48743132	-9.453807
7	700	-0.229	0.128	-0.95	-0.6302538	-0.5156622	-0.1145916	-8.71469118	-13.50462006	-9.453807
7.01	701	-0.225	0.126	-0.947	-0.5156622	0	-0.286479	-8.72042076	-13.50462006	-9.45953658
7.02	702	-0.225	0.125	-0.949	-0.572958	0.0572958	-0.1718874	-8.72615034	-13.50462006	-9.45953658
7.03	703	-0.228	0.126	-0.947	-0.7448454	-0.2291832	-0.1718874	-8.7376095	-13.50462006	-9.46526616
7.04	704	-0.231	0.127	-0.95	-0.9167328	-0.6302538	-0.2291832	-8.74333908	-13.51607922	-9.46526616
7.05	705	-0.234	0.126	-0.955	-1.0886202	-0.9167328	-0.286479	-8.74906866	-13.53899754	-9.46526616
7.06	706	-0.237	0.127	-0.956	-1.2032118	-1.145916	-0.4010706	-8.76052782	-13.5504567	-9.47099574
7.07	707	-0.237	0.131	-0.955	-1.2032118	-1.2605076	-0.5156622	-8.77198698	-13.56191586	-9.47099574
7.08	708	-0.234	0.133	-0.954	-1.0886202	-1.6042824	-0.6302538	-8.78344614	-13.5791046	-9.47672532
7.09	709	-0.233	0.136	-0.949	-1.0886202	-1.9480572	-0.6875496	-8.7949053	-13.60202292	-9.4824549
7.1	710	-0.23	0.136	-0.945	-1.0313244	-2.1199446	-0.7448454	-8.81209404	-13.63067082	-9.48818448
7.11	711	-0.228	0.134	-0.942	-1.145916	-2.0626488	-0.6875496	-8.81782362	-13.65358914	-9.48818448
7.12	712	-0.227	0.132	-0.94	-1.3178034	-1.8907614	-0.5156622	-8.83501236	-13.67077788	-9.49391406
7.13	713	-0.228	0.131	-0.941	-1.3178034	-1.6042824	-0.3437748	-8.84647152	-13.68796662	-9.49391406
7.14	714	-0.228	0.129	-0.943	-1.3178034	-1.432395	-0.286479	-8.85793068	-13.70515536	-9.49391406
7.15	715	-0.229	0.128	-0.946	-1.145916	-1.3750992	-0.286479	-8.86938984	-13.7223441	-9.49964364
7.16	716	-0.229	0.129	-0.949	-1.145916	-1.3750992	-0.3437748	-8.880849	-13.73380326	-9.49964364
7.17	717	-0.231	0.129	-0.952	-1.2605076	-1.4896908	-0.5156622	-8.89230816	-13.750992	-9.49964364
7.18	718	-0.234	0.128	-0.954	-1.3178034	-1.6042824	-0.572958	-8.90376732	-13.76818074	-9.50537322
7.19	719	-0.236	0.128	-0.952	-1.2605076	-1.718874	-0.572958	-8.91522648	-13.78536948	-9.5111028
7.2	720	-0.236	0.128	-0.952	-1.3178034	-1.3750992	-0.572958	-8.92095606	-13.8082878	-9.51683238
7.21	721	-0.238	0.129	-0.954	-1.3750992	-1.3750992	-0.5156622	-8.9381448	-13.82547654	-9.51683238
