TimeStamp(s)	FrameCounter	AccX	AccY	AccZ	GyrX	GyrY	GyrZ	EulerX	EulerY	EulerZ
0.01	1	-0.026	-1.008	0.032	-0.0572958	0.6302538	-0.572958	94.75006446	-1.43812458	-21.58332786
0.02	2	-0.025	-1.005	0.008	-0.4583664	0.9740286	-0.3437748	94.74433488	-1.432395	-21.5718687
0.03	3	-0.029	-1.003	0.009	-0.5156622	0.572958	-0.5156622	94.7386053	-1.432395	-21.56613912
0.04	4	-0.038	-1.004	0.01	-0.5156622	0.4583664	-0.572958	94.73287572	-1.42666542	-21.56040954
0.05	5	-0.042	-1.006	0.011	-0.4010706	0.8021412	-0.8021412	94.49223336	-1.46677248	-21.52603206
0.06	6	-0.042	-1.007	0.011	-0.4010706	1.5469866	-0.7448454	94.48650378	-1.4610429	-21.50884332
0.07	7	-0.04	-1.005	0.012	-0.3437748	2.2345362	-0.7448454	94.4807742	-1.45531332	-21.485925
0.08	8	-0.036	-1.002	0.013	0	2.9793816	-0.7448454	94.4807742	-1.44958374	-21.4572771
0.09	9	-0.03	-1.004	0.017	0.2291832	3.3231564	-0.4583664	94.4807742	-1.44958374	-21.42289962
0.1	10	-0.028	-1.006	0.016	0.1145916	3.6096354	-0.1145916	94.35472344	-1.44958374	-21.37706298
0.11	11	-0.026	-1.009	0.016	-0.0572958	3.6096354	0.0572958	94.35472344	-1.45531332	-21.3426855
0.12	12	-0.028	-1.01	0.014	-0.4583664	3.3231564	0.1718874	94.34899386	-1.4610429	-21.30830802
0.13	13	-0.031	-1.012	0.013	-0.8021412	2.9793816	0	94.3375347	-1.4610429	-21.27966012
0.14	14	-0.033	-1.012	0.009	-1.145916	2.6929026	-0.3437748	94.32607554	-1.4610429	-21.2567418
0.15	15	-0.036	-1.013	0.007	-1.3750992	2.3491278	-0.4010706	94.18283604	-1.47250206	-21.22236432
0.16	16	-0.034	-1.013	0.006	-1.6615782	2.005353	-0.5156622	94.1656473	-1.46677248	-21.199446
0.17	17	-0.033	-1.011	0.004	-2.005353	1.432395	-0.3437748	94.14272898	-1.46677248	-21.18225726
0.18	18	-0.031	-1.009	0.003	-2.0626488	0.7448454	-0.2291832	94.11981066	-1.46677248	-21.17652768
0.19	19	-0.029	-1.008	0.005	-1.9480572	-0.1718874	0	94.10262192	-1.46677248	-21.18225726
0.2	20	-0.026	-1.009	0.007	-1.9480572	-0.8021412	0.1718874	93.94219368	-1.4610429	-21.18225726
0.21	21	-0.026	-1.01	0.007	-2.1199446	-1.145916	0.3437748	93.91927536	-1.46677248	-21.19371642
0.22	22	-0.027	-1.006	0.007	-2.005353	-1.2605076	0.4583664	93.89635704	-1.46677248	-21.20517558
0.23	23	-0.028	-1.005	0.007	-2.0626488	-1.3178034	0.572958	93.8791683	-1.47250206	-21.22236432
0.24	24	-0.031	-1.004	0.008	-2.1772404	-1.2605076	0.572958	93.85624998	-1.47823164	-21.23382348
0.25	25	-0.034	-1.005	0.01	-2.3491278	-1.2032118	0.572958	93.72446964	-1.49542038	-21.23955306
0.26	26	-0.037	-1.006	0.01	-2.5210152	-1.2032118	0.6302538	93.70155132	-1.50114996	-21.25101222
0.27	27	-0.037	-1.007	0.01	-2.6356068	-1.145916	0.6302538	93.67290342	-1.50687954	-21.26247138
0.28	28	-0.038	-1.008	0.011	-2.6356068	-1.2605076	0.6875496	93.6499851	-1.51260912	-21.27393054
0.29	29	-0.04	-1.009	0.01	-2.86479	-1.3750992	0.7448454	93.6213372	-1.5183387	-21.29111928
0.3	30	-0.041	-1.007	0.007	-3.0366774	-1.8334656	0.572958	93.5067456	-1.54125702	-21.30257844
0.31	31	-0.043	-1.006	0.006	-3.2658606	-1.8907614	0.4010706	93.4780977	-1.54125702	-21.31976718
0.32	32	-0.045	-1.006	0.006	-3.437748	-1.7761698	0.2291832	93.44372022	-1.54125702	-21.33695592
0.33	33	-0.047	-1.005	0.005	-3.4950438	-1.718874	0.0572958	93.40934274	-1.54125702	-21.35414466
0.34	34	-0.047	-1.004	0.005	-3.3804522	-1.6615782	0	93.37496526	-1.54125702	-21.3713334
0.35	35	-0.051	-1.003	0.007	-3.2658606	-1.6615782	0.0572958	93.25464408	-1.56990492	-21.37706298
0.36	36	-0.055	-1.001	0.007	-3.0939732	-1.5469866	0.1718874	93.22599618	-1.56990492	-21.39425172
0.37	37	-0.062	-0.999	0.006	-3.2085648	-1.3178034	0.286479	93.1916187	-1.5756345	-21.40571088
0.38	38	-0.068	-0.995	0.008	-3.724227	-0.572958	0.1718874	93.15724122	-1.5756345	-21.41144046
0.39	39	-0.069	-0.993	0.012	-4.2398892	0.7448454	0.1145916	93.11140458	-1.58136408	-21.40571088
0.4	40	-0.065	-0.997	0.009	-4.5263682	1.9480572	0.1718874	93.00827214	-1.61574156	-21.37706298
0.41	41	-0.061	-1.008	0.01	-4.297185	2.6929026	0.286479	92.9624355	-1.61574156	-21.34841508
0.42	42	-0.061	-1.019	0.011	-4.1252976	3.4950438	0.5156622	92.92232844	-1.62720072	-21.3140376
0.43	43	-0.063	-1.023	0.014	-4.4117766	4.4117766	0.859437	92.8764918	-1.63865988	-21.27393054
0.44	44	-0.067	-1.023	0.019	-4.9274388	5.8441716	1.432395	92.819196	-1.6615782	-21.21663474
0.45	45	-0.068	-1.02	0.02	-5.7868758	7.3338624	1.718874	92.73898188	-1.69595568	-21.1421502
0.46	46	-0.068	-1.016	0.025	-6.9900876	8.4224826	1.7761698	92.66449734	-1.718874	-21.0562065
0.47	47	-0.072	-1.011	0.026	-7.5057498	8.6516658	1.5469866	92.58428322	-1.74179232	-20.97599238
0.48	48	-0.071	-1.013	0.026	-7.6203414	8.3651868	1.2605076	92.5040691	-1.76471064	-20.89004868
0.49	49	-0.068	-1.018	0.03	-7.9641162	8.0787078	1.2032118	92.4181254	-1.78189938	-20.81556414
0.5	50	-0.065	-1.019	0.032	-9.167328	8.1932994	1.145916	92.31499296	-1.81054728	-20.72962044
0.51	51	-0.063	-1.021	0.032	-10.5424272	8.9381448	1.3178034	92.20613094	-1.82773602	-20.64367674
0.52	52	-0.06	-1.021	0.025	-11.8602306	9.6256944	1.4896908	92.08008018	-1.85065434	-20.55200346
0.53	53	-0.056	-1.017	0.018	-12.318597	9.5111028	1.6615782	91.94829984	-1.87357266	-20.46033018
0.54	54	-0.055	-1.013	0.015	-12.6623718	9.2819196	1.6615782	91.8165195	-1.89649098	-20.3686569
0.55	55	-0.055	-1.009	0.016	-12.9488508	9.167328	1.4896908	91.67328	-1.92513888	-20.27698362
0.56	56	-0.055	-1.002	0.011	-13.464513	8.880849	1.145916	91.5300405	-1.94232762	-20.19103992
0.57	57	-0.06	-0.999	0.009	-13.6364004	8.4224826	0.9167328	91.386801	-1.95378678	-20.1108258
0.58	58	-0.063	-0.997	0.012	-14.1520626	8.2505952	0.4010706	91.2435615	-1.96524594	-20.03061168
0.59	59	-0.059	-0.996	0.007	-15.1260912	8.021412	-0.4010706	91.08313326	-1.96524594	-19.95612714
0.6	60	-0.053	-0.998	-0.003	-15.6417534	7.2192708	-0.9167328	90.91124586	-1.96524594	-19.8816426
0.61	61	-0.05	-0.994	-0.01	-15.5844576	5.2712136	-1.2605076	90.74508804	-1.95378678	-19.83007638
0.62	62	-0.051	-0.991	-0.005	-15.3552744	3.0366774	-1.432395	90.59038938	-1.94232762	-19.80142848
0.63	63	-0.051	-0.989	0	-15.183387	1.7761698	-1.8334656	90.43569072	-1.93086846	-19.78423974
0.64	64	-0.055	-0.982	0.006	-15.0114996	0.8021412	-2.6356068	90.28099206	-1.90222056	-19.77851016
0.65	65	-0.053	-0.985	0.003	-15.5844576	0.4010706	-3.6669312	90.11483424	-1.87357266	-19.77278058
0.66	66	-0.054	-0.991	0	-15.8136408	-0.2291832	-4.3544808	89.954406	-1.8334656	-19.77851016
0.67	67	-0.05	-0.997	0.002	-15.5844576	-1.0313244	-4.8128472	89.79970734	-1.78762896	-19.78996932
0.68	68	-0.051	-0.999	0.002	-15.1260912	-1.3750992	-5.3858052	89.64500868	-1.73033316	-19.80715806
0.69	69	-0.048	-0.997	0.005	-14.0947668	-1.7761698	-5.7868758	89.50176918	-1.67303736	-19.8243468
0.7	70	-0.048	-0.999	0.009	-13.3499214	-1.5469866	-6.2452422	89.36425926	-1.62147114	-19.84153554
0.71	71	-0.05	-0.999	0.008	-13.2926256	-1.0313244	-6.5317212	89.23247892	-1.55844576	-19.85872428
0.72	72	-0.057	-0.998	0.003	-13.178034	-0.572958	-6.7609044	89.094969	-1.4896908	-19.86445386
0.73	73	-0.062	-0.996	0	-13.1207382	-0.286479	-7.0473834	88.96318866	-1.42093584	-19.87018344
0.74	74	-0.066	-0.991	-0.002	-12.9488508	-0.1718874	-7.5057498	88.83140832	-1.3464513	-19.87591302
0.75	75	-0.066	-0.989	-0.002	-12.6623718	0.2291832	-8.1360036	88.69962798	-1.27769634	-19.87018344
0.76	76	-0.065	-0.984	-0.002	-12.318597	0.5156622	-8.6516658	88.5793068	-1.19175264	-19.87018344
0.77	77	-0.069	-0.979	0.001	-11.6883432	0.859437	-8.59437	88.45898562	-1.11153852	-19.86445386
0.78	78	-0.072	-0.977	0.001	-11.1153852	2.0626488	-8.2505952	88.34439402	-1.02559482	-19.84726512
0.79	79	-0.073	-0.974	0	-11.5164558	3.3231564	-8.1360036	88.22407284	-0.9453807	-19.81861722
0.8	80	-0.069	-0.978	-0.003	-11.9175264	5.2139178	-8.1360036	88.10375166	-0.88235532	-19.767051
0.81	81	-0.059	-0.982	-0.009	-12.032118	7.2765666	-8.1360036	87.9777009	-0.8021412	-19.69829604
0.82	82	-0.051	-0.984	-0.02	-12.032118	8.7662574	-7.734933	87.85165014	-0.72192708	-19.61235234
0.83	83	-0.051	-0.98	-0.027	-12.032118	9.7975818	-7.2765666	87.73132896	-0.65317212	-19.52067906
0.84	84	-0.052	-0.966	-0.039	-12.605076	11.6310474	-6.6463128	87.59954862	-0.58441716	-19.41181704
0.85	85	-0.047	-0.945	-0.055	-13.9801752	14.4385416	-6.1306506	87.44484996	-0.52712136	-19.26857754
0.86	86	-0.026	-0.926	-0.077	-16.2147114	18.2200644	-5.3858052	87.27869214	-0.46982556	-19.09096056
0.87	87	0.001	-0.909	-0.093	-17.761698	21.3713334	-3.724227	87.089616	-0.4297185	-18.88469568
0.88	88	0.028	-0.898	-0.114	-19.480572	24.5798982	-0.8021412	86.8890807	-0.41825934	-18.64405332
0.89	89	0.041	-0.887	-0.127	-21.3140376	27.6738714	3.2085648	86.66562708	-0.44690724	-18.37476306
0.9	90	0.045	-0.871	-0.123	-22.5172494	30.5386614	7.9068204	86.42498472	-0.50993262	-18.07109532
0.91	91	0.056	-0.861	-0.108	-24.6944898	34.0337052	12.4904844	86.16142404	-0.62452422	-17.72732052
0.92	92	0.061	-0.865	-0.085	-28.4187168	38.8465524	17.761698	85.86348588	-0.78495246	-17.33770908
0.93	93	0.036	-0.89	-0.058	-29.2781538	41.3102718	24.2361234	85.55408856	-1.00840608	-16.91372016
0.94	94	-0.017	-0.974	-0.065	-27.6165756	39.0757356	27.788463	85.26187998	-1.26623718	-16.50691998
0.95	95	-0.058	-1.066	-0.054	-28.074942	36.5547204	26.6998428	84.96394182	-1.5183387	-16.1287677
0.96	96	-0.059	-1.105	-0.032	-29.9084076	34.663959	20.5691922	84.64881492	-1.70168526	-15.77353374
0.97	97	-0.038	-1.093	-0.002	-30.8824362	32.6013102	12.318597	84.32222886	-1.8048177	-15.4412181
0.98	98	-0.023	-1.067	0.047	-30.4240698	30.939732	4.0680018	83.9956428	-1.82773602	-15.13755036
0.99	99	-0.031	-1.102	0.067	-30.9970278	30.4240698	-2.8074942	83.66905674	-1.7761698	-14.8396122
1	100	-0.007	-1.218	0.054	-33.4607472	31.9710564	-7.3338624	83.32528194	-1.67876694	-14.54167404
1.01	101	0.025	-1.347	0.043	-36.1536498	34.3201842	-9.167328	82.94140008	-1.55844576	-14.21508798
1.02	102	0.046	-1.434	0.063	-36.8984952	35.2942128	-9.3392154	82.55178864	-1.432395	-13.88277234
1.03	103	0.046	-1.505	0.049	-37.2995658	32.8877892	-10.1986524	82.1621772	-1.30061466	-13.57337502
1.04	104	0.043	-1.567	0.025	-37.1276784	28.6479	-11.8029348	81.77829534	-1.15737516	-13.31554392
1.05	105	0.066	-1.597	0.014	-36.8984952	23.0329116	-13.5791046	81.39441348	-0.99694692	-13.10927904
1.06	106	0.114	-1.598	-0.014	-36.669312	18.907614	-15.8709366	81.02199078	-0.82505952	-12.95458038
1.07	107	0.152	-1.557	-0.053	-35.6952834	16.042824	-18.6784308	80.65529766	-0.62452422	-12.82852962
1.08	108	0.164	-1.494	-0.081	-33.5753388	15.0687954	-20.7410796	80.30579328	-0.4010706	-12.7196676
1.09	109	0.147	-1.394	-0.107	-32.4867186	15.2979786	-21.0275586	79.97347764	-0.17761698	-12.605076
1.1	110	0.09	-1.27	-0.118	-28.934379	16.615782	-20.05353	79.68126906	0.04010706	-12.48475482
1.11	111	0.045	-1.153	-0.127	-24.350715	18.9649098	-18.8503182	79.43489712	0.25210152	-12.33578574
1.12	112	0.024	-1.041	-0.129	-18.8503182	21.8869956	-17.7044022	79.2400914	0.4583664	-12.15243918
1.13	113	0.02	-0.941	-0.135	-13.8082878	25.0382646	-16.5011904	79.0968519	0.65317212	-11.94044472
1.14	114	0.032	-0.834	-0.137	-8.7089616	28.0176462	-14.896908	79.0109082	0.84797784	-11.69407278
1.15	115	0.047	-0.732	-0.138	-4.5263682	28.5906042	-13.0061466	78.95934198	1.02559482	-11.44197126
1.16	116	0.071	-0.633	-0.133	-1.5469866	27.6165756	-11.2872726	78.94788282	1.18029348	-11.19559932
1.17	117	0.111	-0.53	-0.137	-0.6302538	25.4393352	-9.2246238	78.94215324	1.31207382	-10.96068654
1.18	118	0.146	-0.426	-0.154	0.286479	22.058883	-7.0473834	78.94788282	1.41520626	-10.76015124
1.19	119	0.164	-0.339	-0.178	2.86479	18.5638392	-4.3544808	78.97653072	1.4896908	-10.58826384
1.2	120	0.164	-0.276	-0.197	5.6149884	13.178034	-0.6875496	79.02236736	1.52979786	-10.46221308
1.21	121	0.142	-0.209	-0.211	6.7036086	4.870143	3.2658606	79.09112232	1.50687954	-10.41064686
1.22	122	0.106	-0.137	-0.189	6.8182002	-5.72958	6.589017	79.15987728	1.432395	-10.45075392
1.23	123	0.076	-0.093	-0.171	5.0993262	-15.5844576	7.6776372	79.2114435	1.33499214	-10.58826384
1.24	124	0.081	-0.057	-0.122	2.6356068	-25.0955604	7.448454	79.2400914	1.22040054	-10.81744704
1.25	125	0.098	0.001	-0.08	1.718874	-36.3255372	5.9587632	79.24582098	1.1172681	-11.16695142
1.26	126	0.1	0.07	-0.06	3.7815228	-54.4883058	5.2712136	79.28019846	0.97975818	-11.6883432
1.27	127	0.03	0.056	-0.098	2.0626488	-73.5105114	5.3285094	79.30311678	0.81360036	-12.39881112
1.28	128	-0.227	-0.113	-0.424	-19.4232762	-92.7046044	-4.9847346	79.10258148	0.7161975	-13.31554392
1.29	129	-0.325	-0.436	-0.429	-23.7204612	-65.3745078	-28.6479	78.86193912	0.8880849	-14.0088231
1.3	130	-0.272	-0.948	-0.164	-10.6570188	-6.875496	-40.7946096	78.7530771	1.24331886	-14.14633302
1.31	131	-0.291	-1.412	-0.197	3.6669312	6.3598338	-31.1689152	78.78745458	1.55844576	-14.14633302
1.32	132	-0.103	-1.451	0	12.3758928	3.4950438	-8.0787078	78.91350534	1.64438946	-14.1234147
1.33	133	0.093	-1.602	-0.001	14.2093584	-5.5003968	6.3598338	79.05674484	1.5756345	-14.16352176
1.34	134	0.185	-2.009	-0.055	10.9434978	-4.9274388	3.437748	79.16560686	1.53552744	-14.20362882
1.35	135	0.192	-2.18	-0.111	13.8655836	1.0886202	-3.9534102	79.30884636	1.58136408	-14.19789924
1.36	136	0.177	-2.046	-0.198	16.3865988	0.9740286	-7.734933	79.47500418	1.65584862	-14.20362882
1.37	137	0.106	-1.974	-0.216	18.8503182	-1.145916	-7.7922288	79.6698099	1.73606274	-14.22654714
1.38	138	0.058	-2.049	-0.176	17.9908812	2.2345362	-7.5057498	79.84742688	1.81054728	-14.21508798
1.39	139	0.043	-2.114	-0.186	12.7769634	4.7555514	-8.4797784	79.97920722	1.90222056	-14.1807105
1.4	140	0.017	-2.138	-0.198	9.453807	2.291832	-9.3392154	80.07661008	1.99962342	-14.17498092
1.41	141	0.042	-2.128	-0.175	8.7662574	-1.4896908	-7.3338624	80.16255378	2.06837838	-14.20362882
1.42	142	0.107	-2.04	-0.149	9.8548776	-7.1046792	-2.3491278	80.26568622	2.08556712	-14.27238378
1.43	143	0.14	-1.883	-0.126	10.0840608	-13.6936962	1.6042824	80.36308908	2.05118964	-14.40416412
1.44	144	0.133	-1.696	-0.134	8.1360036	-20.2827132	4.3544808	80.4433032	1.98243468	-14.59324026
1.45	145	0.08	-1.529	-0.158	5.0993262	-25.5539268	6.9327918	80.48913984	1.87930224	-14.83388262
1.46	146	0.001	-1.393	-0.191	1.145916	-28.3041252	10.0840608	80.500599	1.74179232	-15.0974433
1.47	147	-0.08	-1.263	-0.217	-1.8907614	-28.5906042	13.5218088	80.47768068	1.56990492	-15.3552744
1.48	148	-0.171	-1.126	-0.23	-3.6669312	-26.2987722	17.0741484	80.43757362	1.36364004	-15.5844576
1.49	149	-0.208	-0.994	-0.23	-3.6669312	-20.4546006	19.4232762	80.39746656	1.145916	-15.756345
1.5	150	-0.206	-0.825	-0.236	-0.6875496	-10.7716104	20.7410796	80.36881866	0.88235532	-15.8136408
1.51	151	-0.191	-0.673	-0.275	4.010706	-1.8334656	21.6578124	80.40892572	0.67036086	-15.79645206
1.52	152	-0.162	-0.525	-0.331	10.6570188	6.589017	21.6578124	80.51778774	0.46982556	-15.6990492
1.53	153	-0.116	-0.381	-0.321	21.485925	11.2299768	20.626488	80.73551178	0.28074942	-15.55008012
1.54	154	-0.058	-0.274	-0.209	34.1482968	14.2093584	20.05353	81.07928658	0.10886202	-15.37819272
1.55	155	-0.017	-0.201	-0.131	39.1903272	18.621135	21.3713334	81.46889802	-0.07448454	-15.16046868
1.56	156	-0.004	-0.131	-0.087	37.2995658	18.5638392	23.7204612	81.8470503	-0.28074942	-14.93701506
1.57	157	-0.02	-0.088	-0.09	30.8824362	10.313244	24.2934192	82.15644762	-0.50420304	-14.79950514
1.58	158	-0.05	-0.043	-0.114	22.345362	-0.286479	22.4026578	82.38563082	-0.72192708	-14.77085724
1.59	159	-0.06	-0.015	-0.134	14.037471	-3.8388186	20.1108258	82.52887032	-0.92246238	-14.7823164
1.6	160	-0.089	0.037	-0.149	7.3911582	-0.859437	17.761698	82.5918957	-1.11153852	-14.76512766
1.61	161	-0.135	0.101	-0.122	7.1046792	3.3231564	15.2406828	82.66065066	-1.2605076	-14.71356144
1.62	162	-0.161	0.154	-0.052	11.1153852	8.880849	12.4331886	82.76951268	-1.36936962	-14.610429
1.63	163	-0.147	0.196	0.034	16.7303736	16.1001198	8.7089616	82.9356705	-1.43812458	-14.4385416
1.64	164	-0.11	0.19	0.116	21.0848544	25.7258142	3.437748	83.14193538	-1.44958374	-14.1807105
1.65	165	-0.048	0.101	0.078	17.8189938	40.9092012	-1.6042824	83.30236362	-1.39801752	-13.7796399
1.66	166	0.038	-0.083	-0.093	12.4904844	52.5975444	-0.8021412	83.41122564	-1.34072172	-13.25824812
1.67	167	0.104	-0.346	-0.159	9.740286	55.9779966	8.2505952	83.49143976	-1.3750992	-12.69674928
1.68	168	0.145	-0.725	-0.32	1.7761698	57.2958	25.3820394	83.48571018	-1.5756345	-12.10087296
1.69	169	0.102	-1.327	-0.613	-7.734933	41.0810886	49.560867	83.38830732	-2.0340009	-11.64250656
1.7	170	0.154	-2.098	-0.617	-19.5378678	-2.6929026	67.7809314	83.18777202	-2.70436176	-11.59666992
1.71	171	0.34	-2.619	-0.332	-1.145916	-31.1689152	54.3164184	83.1935016	-3.2658606	-11.84304186
1.72	172	0.242	-1.979	-0.171	25.78311	-23.6631654	16.1574156	83.47425102	-3.44347758	-12.05503632
1.73	173	0.095	-1.574	-0.11	42.2270046	-15.9282324	-7.2192708	83.91542868	-3.38618178	-12.21546456
1.74	174	0.04	-1.807	-0.043	42.1697088	-22.5745452	-14.4958374	84.35660634	-3.25440144	-12.45037734
1.75	175	-0.103	-2.053	0.026	35.9244666	-30.0229992	-16.4438946	84.74621778	-3.10543236	-12.75404508
1.76	176	-0.254	-2.266	0.062	30.7105488	-29.4500412	-16.5584862	85.07853342	-2.95646328	-13.05771282
1.77	177	-0.268	-2.407	0.11	23.777757	-28.6479	-14.2666542	85.33636452	-2.83041252	-13.3499214
1.78	178	-0.249	-2.387	0.127	17.3033316	-25.78311	-9.2819196	85.52544066	-2.7501984	-13.61348208
1.79	179	-0.261	-2.263	0.124	12.2040054	-17.1314442	-4.7555514	85.66295058	-2.71009134	-13.7796399
1.8	180	-0.22	-2.127	0.1	5.3858052	-2.578311	-3.8388186	85.72024638	-2.66998428	-13.8082878
1.81	181	-0.117	-2.016	0.011	-4.6982556	13.464513	-6.4744254	85.66295058	-2.60122932	-13.68223704
1.82	182	0.001	-1.872	-0.067	-12.0894138	23.777757	-9.9121734	85.53117024	-2.4923673	-13.45305384
1.83	183	0.087	-1.733	-0.098	-16.2147114	27.7311672	-12.9488508	85.34782368	-2.3491278	-13.19522274
1.84	184	0.09	-1.549	-0.154	-17.2460358	28.0176462	-14.9542038	85.15874754	-2.18869956	-12.93166206
1.85	185	0.042	-1.326	-0.174	-13.8655836	24.8663772	-16.6730778	84.9983193	-2.005353	-12.70247886
1.86	186	0.013	-1.094	-0.176	-7.9068204	22.631841	-16.615782	84.90664602	-1.82773602	-12.4904844
1.87	187	-0.01	-0.881	-0.196	-2.4064236	19.8816426	-15.469866	84.87799812	-1.6615782	-12.30713784
1.88	188	-0.024	-0.645	-0.169	3.8388186	13.4072172	-14.4958374	84.90664602	-1.51260912	-12.18681666
1.89	189	-0.01	-0.465	-0.153	8.59437	7.1046792	-13.750992	84.99258972	-1.36936962	-12.12952086
1.9	190	0.043	-0.308	-0.124	10.886202	4.1252976	-13.464513	85.09572216	-1.22613012	-12.10087296
1.91	191	0.081	-0.205	-0.13	11.0580894	4.1252976	-12.9488508	85.20458418	-1.09434978	-12.06649548
1.92	192	0.126	-0.144	-0.164	11.1153852	4.1252976	-10.599723	85.31917578	-0.98548776	-12.032118
1.93	193	0.121	-0.096	-0.19	11.45916	2.1772404	-7.448454	85.43376738	-0.91100322	-12.01492926
1.94	194	0.122	-0.047	-0.172	13.750992	2.005353	-3.724227	85.5712773	-0.87089616	-11.99774052
1.95	195	0.117	0	-0.116	17.0741484	3.151269	-0.2291832	85.73170554	-0.85370742	-11.96909262
1.96	196	0.095	0.042	-0.096	18.2773602	2.86479	3.724227	85.92078168	-0.8880849	-11.93471514
1.97	197	0.081	0.073	-0.102	17.5325148	-0.286479	7.6203414	86.09839866	-0.96256944	-11.92898556
1.98	198	0.082	0.097	-0.093	19.0795014	-4.297185	8.5370742	86.29320438	-1.04278356	-11.96336304
1.99	199	0.093	0.107	-0.069	23.0329116	-8.6516658	5.7868758	86.52811716	-1.10580894	-12.04357716
2	200	0.103	0.101	-0.032	27.1009134	-11.9748222	0.8021412	86.803137	-1.10007936	-12.16389834
2.01	201	0.117	0.078	-0.009	29.793816	-12.891555	-4.1252976	87.11253432	-1.0599723	-12.2899491
2.02	202	0.119	0.042	0.017	30.366774	-12.032118	-7.6203414	87.42193164	-0.98548776	-12.41027028
2.03	203	0.1	0	0.031	27.7311672	-11.5737516	-8.3651868	87.70841064	-0.89954406	-12.52486188
2.04	204	0.072	-0.049	0.022	23.4339822	-13.1207382	-6.9327918	87.949053	-0.8307891	-12.65664222
2.05	205	0.035	-0.096	-0.039	17.475219	-23.4339822	-4.870143	88.1209404	-0.77922288	-12.88582542
2.06	206	-0.175	-0.308	-0.351	-4.010706	-59.9314068	-10.886202	88.09802208	-0.67609044	-13.48170174
2.07	207	-0.344	-0.591	-0.595	-22.5745452	-87.0323202	-46.6387812	87.88602762	-0.22345362	-14.35832748
2.08	208	-0.335	-1.503	-0.696	-42.2270046	14.4385416	-99.0644382	87.45630912	0.75630456	-14.26092462
2.09	209	-0.472	-1.777	-0.621	-33.231564	109.6641612	-110.1798234	87.12399348	1.86784308	-13.22960022
2.1	210	-0.267	-1.579	-0.275	28.5333084	80.9016696	-61.6502808	87.4333908	2.4923673	-12.45037734
2.11	211	0.147	-1.296	0.11	37.815228	42.0551172	-13.1207382	87.82873182	2.6356068	-12.03784758
2.12	212	0.48	-1.755	0.099	16.7876694	24.7517856	11.4018642	88.0063488	2.5210152	-11.78574606
2.13	213	0.596	-2.496	0.063	0.9167328	8.4224826	16.3865988	88.02353754	2.36058696	-11.69407278
2.14	214	0.532	-2.372	-0.07	3.6669312	-10.8289062	7.9641162	88.05791502	2.28037284	-11.8029348
2.15	215	0.341	-1.974	0.063	9.740286	-14.8396122	4.6409598	88.1495883	2.2345362	-11.9461743
2.16	216	0.19	-2.024	0.095	10.4278356	-10.599723	-0.0572958	88.25272074	2.24026578	-12.04930674
2.17	217	0.028	-2.231	0.079	4.1825934	-7.6203414	-8.7662574	88.29855738	2.32620948	-12.12952086
2.18	218	-0.108	-2.355	0.11	-0.1145916	-8.6516658	-12.3758928	88.2928278	2.44653066	-12.21546456
2.19	219	-0.165	-2.373	0.136	-2.005353	-13.5218088	-7.2765666	88.2641799	2.5210152	-12.35297448
2.2	220	-0.087	-2.217	0.118	-2.291832	-15.9855282	0.6875496	88.24126158	2.51528562	-12.51340272
2.21	221	0.008	-2.058	0.112	-0.6875496	-15.0114996	8.0787078	88.22980242	2.42934192	-12.65664222
2.22	222	0.071	-1.879	0.103	0.3437748	-13.9801752	15.183387	88.22980242	2.28037284	-12.79415214
2.23	223	0.11	-1.716	0.092	0.4583664	-14.7823164	22.91832	88.22980242	2.05118964	-12.93166206
2.24	224	0.113	-1.566	0.047	-1.432395	-17.8189938	30.1948866	88.21261368	1.75325148	-13.10354946
2.25	225	0.072	-1.435	-0.04	-5.8441716	-22.5745452	33.804522	88.1495883	1.41520626	-13.31554392
2.26	226	0.023	-1.314	-0.142	-9.5683986	-27.9603504	32.372127	88.04645586	1.09434978	-13.58483418
2.27	227	-0.027	-1.176	-0.22	-10.7716104	-34.8358464	27.4446882	87.93759384	0.81360036	-13.9228794
2.28	228	-0.098	-0.993	-0.25	-10.0840608	-41.9405256	20.6837838	87.8344614	0.60733548	-14.32967958
2.29	229	-0.136	-0.836	-0.234	-7.161975	-46.982556	11.6883432	87.76570644	0.4870143	-14.79377556
2.3	230	-0.156	-0.695	-0.188	-5.5576926	-46.6387812	6.2452422	87.6912219	0.39534102	-15.24641238
2.31	231	-0.154	-0.563	-0.166	-5.6722842	-43.2010332	3.724227	87.63965568	0.34950438	-15.6704013
2.32	232	-0.109	-0.435	-0.168	-4.5263682	-40.5654264	3.2658606	87.59381904	0.3151269	-16.0714719
2.33	233	-0.092	-0.325	-0.166	-2.0626488	-39.8778768	4.1252976	87.5766303	0.26929026	-16.46681292
2.34	234	-0.056	-0.25	-0.145	0.8021412	-40.5081306	5.5003968	87.58808946	0.20626488	-16.86215394
2.35	235	-0.007	-0.184	-0.115	3.3231564	-41.6540466	6.9327918	87.61673736	0.13178034	-17.2746837
2.36	236	0.033	-0.12	-0.064	4.9847346	-42.6280752	8.307891	87.67403316	0.04583664	-17.69294304
2.37	237	0.037	-0.07	-0.04	3.9534102	-42.5707794	9.167328	87.7198698	-0.04583664	-18.1054728
2.38	238	0.006	-0.034	-0.073	0.8021412	-43.4875122	9.3965112	87.73705854	-0.1432395	-18.5351913
2.39	239	-0.036	-0.023	-0.121	-2.4064236	-44.7480198	10.6570188	87.7198698	-0.2578311	-18.97636896
2.4	240	-0.084	-0.014	-0.161	-5.3858052	-45.4928652	12.3758928	87.65684442	-0.39534102	-19.41754662
2.41	241	-0.103	0.029	-0.145	-5.2139178	-45.4928652	13.3499214	87.61100778	-0.53285094	-19.86445386
2.42	242	-0.081	0.078	-0.101	-2.86479	-42.6280752	12.9488508	87.59381904	-0.67036086	-20.2827132
2.43	243	-0.057	0.116	-0.055	-0.0572958	-38.2162986	11.3445684	87.6052782	-0.79068204	-20.6551359
2.44	244	-0.057	0.12	0.02	1.7761698	-32.4867186	8.7089616	87.62819652	-0.87662574	-20.9702628
2.45	245	-0.061	0.092	0.032	-1.0313244	-23.5485738	3.0939732	87.6339261	-0.92246238	-21.20517558
2.46	246	-0.054	0.062	0.083	-5.2712136	-14.32395	-1.8907614	87.58235988	-0.90527364	-21.34841508
2.47	247	-0.044	-0.046	0.021	-15.756345	-4.1252976	-2.8074942	87.42193164	-0.88235532	-21.38852214
2.48	248	-0.089	-0.216	-0.171	-19.0795014	1.4896908	5.0993262	87.22712592	-0.93392154	-21.37706298
2.49	249	-0.085	-0.586	-0.363	-26.4706596	15.2979786	20.7410796	86.95783566	-1.13445684	-21.21663474
2.5	250	-0.061	-1.209	-0.6	-38.5027776	16.1001198	40.2216516	86.55103548	-1.53552744	-21.03901776
2.51	251	0.039	-2.288	-0.634	-54.5456016	-17.0168526	48.6441342	86.00672538	-2.02827132	-21.18225726
2.52	252	0.17	-3.308	-0.184	-29.220858	-29.0489706	20.1108258	85.72024638	-2.24599536	-21.46300668
2.53	253	0.079	-2.218	-0.085	-3.6096354	-10.7716104	-11.172681	85.69159848	-2.13713334	-21.57759828
2.54	254	-0.085	-1.838	-0.099	8.8235532	-9.3965112	-6.9900876	85.78327176	-2.07410796	-21.67500114
2.55	255	-0.207	-2.074	-0.002	11.45916	-8.880849	0.572958	85.90932252	-2.07983754	-21.76094484
2.56	256	-0.314	-2.107	0.108	4.3544808	-8.59437	3.6096354	85.95515916	-2.1199446	-21.84115896
2.57	257	-0.272	-2.134	0.232	-1.718874	-5.2712136	-1.2032118	85.93797042	-2.10848544	-21.89845476
2.58	258	-0.149	-2.22	0.193	-9.0527364	-4.870143	-7.2765666	85.85202672	-2.03973048	-21.95002098
2.59	259	-0.041	-2.288	0.14	-7.3338624	-6.5317212	-10.1413566	85.77754218	-1.94232762	-22.02450552
2.6	260	-0.016	-2.178	0.168	-3.8961144	-9.2819196	-11.5737516	85.7431647	-1.8334656	-22.12190838
2.61	261	-0.077	-1.968	0.222	-0.4010706	-2.0626488	-12.6623718	85.7431647	-1.70741484	-22.15628586
2.62	262	-0.139	-1.839	0.201	-3.6096354	10.1413566	-13.5218088	85.70305764	-1.56990492	-22.06461258
2.63	263	-0.135	-1.715	0.105	-9.8548776	23.7204612	-13.750992	85.59419562	-1.42093584	-21.84115896
2.64	264	-0.076	-1.558	0.019	-16.615782	35.1223254	-11.5164558	85.41084906	-1.29488508	-21.50311374
2.65	265	0.034	-1.368	-0.068	-18.9649098	44.5188366	-8.1360036	85.1988546	-1.18029348	-21.07339524
2.66	266	0.147	-1.161	-0.221	-16.329303	44.8053156	-7.9068204	85.02123762	-1.08289062	-20.63794716
2.67	267	0.175	-0.901	-0.313	-2.291832	31.7418732	-12.9488508	84.98686014	-0.93392154	-20.33427942
2.68	268	0.104	-0.623	-0.258	18.5065434	17.5325148	-22.9756158	85.1702067	-0.69327918	-20.17958076
2.69	269	0.024	-0.421	-0.092	43.8885828	5.9587632	-34.8931422	85.61138436	-0.3437748	-20.14520328
2.7	270	0.061	-0.364	-0.026	48.0138804	8.4797784	-38.1590028	86.09266908	0.04583664	-20.0821779
2.71	271	0.15	-0.352	-0.122	44.6334282	16.7876694	-32.3148312	86.5453059	0.37815228	-19.92747924
2.72	272	0.205	-0.297	-0.194	40.5654264	22.5745452	-20.6837838	86.95783566	0.59014674	-19.71548478
2.73	273	0.189	-0.19	-0.136	32.7731976	23.4339822	-10.1986524	87.2901513	0.69900876	-19.480572
2.74	274	0.166	-0.03	-0.065	28.6479	18.621135	-2.4637194	87.5766303	0.73338624	-19.29722544
2.75	275	0.188	0.118	-0.087	21.3713334	4.5263682	1.4896908	87.78289518	0.73911582	-19.25711838
2.76	276	0.22	0.237	-0.065	11.3445684	-15.2979786	1.8907614	87.90321636	0.72192708	-19.40608746
2.77	277	0.156	0.297	0.13	4.9274388	-55.290447	0.4010706	87.95478258	0.7161975	-19.95039756
2.78	278	0.079	0.184	0.095	3.3804522	-54.6601932	-3.8961144	87.98916006	0.75057498	-20.49470766
2.79	279	0.045	-0.018	-0.03	1.145916	-35.0077338	-11.6310474	88.00061922	0.859437	-20.84421204
2.8	280	0	-0.181	-0.099	4.297185	-22.91832	-16.9595568	88.02926712	1.02559482	-21.07339524
2.81	281	-0.075	-0.286	-0.083	7.8495246	-20.05353	-20.05353	88.10948124	1.22613012	-21.27393054
2.82	282	-0.121	-0.257	-0.06	7.448454	-13.0061466	-22.9756158	88.18396578	1.45531332	-21.41144046
2.83	283	-0.135	-0.142	0.02	8.1360036	0.572958	-24.4653066	88.2641799	1.69595568	-21.41144046
2.84	284	-0.181	-0.027	0.007	4.297185	17.3606274	-24.8663772	88.31001654	1.94232762	-21.24528264
2.85	285	-0.279	0.042	-0.074	-1.6615782	48.3003594	-24.637194	88.29855738	2.16578124	-20.7697275
2.86	286	-0.383	0.091	-0.105	-2.5210152	69.614397	-21.9442914	88.28709822	2.38350528	-20.08790748
2.87	287	-0.523	0.135	-0.005	-0.8021412	85.084263	-18.1627686	88.30428696	2.56685184	-19.2513888
2.88	288	-0.692	0.137	0.171	-9.167328	88.1209404	-15.5271618	88.24126158	2.7215505	-18.38622222
2.89	289	-0.844	0.054	0.208	-41.539455	80.500599	-22.7464326	87.84592056	2.9507337	-17.60126976
2.9	290	-0.639	-0.038	0.112	-45.6074568	96.9444936	-40.5654264	87.42193164	3.33461556	-16.65588906
2.91	291	-0.321	-0.473	0.27	-20.4546006	144.8437824	-54.6028974	87.28442172	3.8961144	-15.24641238
2.92	292	0.092	-1.123	0.572	-37.6433406	187.9875198	-50.5348956	87.00940188	4.43469492	-13.41294678
2.93	293	0.157	-1.278	0.571	-55.6342218	165.2410872	-27.1582092	86.55103548	4.74982182	-11.79147564
2.94	294	0.029	-1.375	0.581	-55.8061092	118.8314892	-11.0007936	86.06975076	4.89306132	-10.6283709
2.95	295	0.079	-1.54	0.343	-69.614397	89.1522648	-4.6982556	85.4280378	4.97900502	-9.75747474
2.96	296	0.428	-1.772	0.103	-68.0101146	82.9070226	-9.740286	84.797784	5.11651494	-8.94960396
2.97	297	0.852	-1.805	0.203	-50.5921914	63.6556338	-21.485925	84.33368802	5.36288688	-8.34226848
2.98	298	1.079	-1.432	0.234	-47.7846972	32.085648	-27.0436176	83.86959204	5.64936588	-8.06151906
2.99	299	0.914	-0.925	0.172	-64.5150708	-1.2605076	-18.048177	83.21069034	5.82125328	-8.09589654
3	300	0.381	-0.629	-0.051	-78.3806544	-19.1367972	-5.7868758	82.3913604	5.8728195	-8.307891
3.01	301	0.034	-0.635	-0.247	-85.2561504	-27.788463	-4.9274388	81.5032755	5.87854908	-8.59437
3.02	302	0.029	-0.709	-0.428	-107.6588082	-36.4974246	-14.3812458	80.37454824	5.96449278	-8.98971102
3.03	303	0.12	-0.754	-0.653	-139.6871604	-48.3576552	-24.6944898	78.90204618	6.11919144	-9.52256196
3.04	304	0.218	-0.755	-0.844	-180.3671784	-57.1239126	-28.934379	77.01128478	6.27961968	-10.15854534
3.05	305	0.346	-0.861	-1.02	-221.734746	-73.7969904	-24.5226024	74.67361614	6.33691548	-10.95495696
3.06	306	0.374	-1.08	-1.353	-264.3628212	-89.1522648	-18.2200644	71.90049942	6.25097178	-11.88314892
3.07	307	0.52	-1.438	-1.558	-320.1689304	-96.3715356	-18.8503182	68.5544247	6.09054354	-12.88582542
3.08	308	0.645	-1.678	-1.495	-281.1504906	-91.2722094	-16.7303736	65.61515016	5.88427866	-13.81401738
3.09	309	0.581	-1.972	-1.048	-245.8562778	-63.0826758	-17.6471064	63.06548706	5.7582279	-14.47864866
3.1	310	0.085	-2.266	-0.329	-266.4827658	-97.0017894	-24.923673	60.2751816	5.51185596	-15.47559558
3.11	311	-0.461	-2.295	-0.204	-297.93816	-76.0888224	-32.0283522	57.1812084	5.37434604	-16.31784384
3.12	312	-0.734	-2.532	-0.296	-323.6066784	-10.6570188	-14.5531332	53.88097032	5.39726436	-16.5011904
3.13	313	-1.013	-2.542	-0.344	-330.0811038	36.2682414	17.761698	50.5635435	5.42591226	-16.11730854
3.14	314	-1.099	-1.961	-0.415	-328.9924836	59.3584488	27.2728008	47.28049416	5.55196302	-15.49278432
3.15	315	-0.718	-1.334	-0.178	-329.8519206	91.8451674	21.9442914	44.01463356	5.95303362	-14.67918396
3.16	316	-0.217	-0.664	0.179	-315.413379	103.705398	-0.1718874	40.87482372	6.6463128	-13.96871604
3.17	317	0.158	-0.617	0.561	-299.5997382	107.0858502	-9.740286	37.89544212	7.47137232	-13.3499214
3.18	318	0.447	-0.592	0.608	-285.333084	112.5289512	-2.4637194	35.07648876	8.31935016	-12.67956054
3.19	319	0.619	-0.443	0.691	-267.0557238	96.7726062	-3.7815228	32.43515238	9.0813843	-12.1467096
3.2	320	0.699	-0.326	0.681	-254.106873	74.0261736	-6.1306506	29.91986676	9.71736768	-11.8029348
3.21	321	0.625	-0.187	0.543	-239.2672608	48.5868384	-10.3705398	27.51344316	10.15281576	-11.64250656
3.22	322	0.509	-0.015	0.514	-220.015872	27.0436176	-20.6837838	25.2674478	10.44502434	-11.69980236
3.23	323	0.467	0.209	0.334	-201.9103992	15.8709366	-32.4294228	23.1761511	10.69139628	-11.92325598
3.24	324	0.514	0.423	0.1	-184.7216592	3.2658606	-39.3049188	21.23382348	10.84609494	-12.26703078
3.25	325	0.664	0.632	-0.106	-162.6054804	-25.5539268	-42.5134836	19.46338326	10.76588082	-12.77123382
3.26	326	1.03	0.759	-0.439	-155.6726886	-61.4783934	-32.372127	17.79607548	10.27886652	-13.28689602
3.27	327	1.576	1.008	-0.803	-184.492476	-109.3203864	-19.0795014	15.85374786	9.28764918	-13.8082878
3.28	328	2.313	1.506	-1.287	-202.9417236	-174.0646404	-31.1116194	13.69942578	7.68336678	-14.59324026
3.29	329	2.364	1.333	-1.553	-200.5925958	-229.756158	-42.7999626	11.57948118	5.55196302	-15.5558097
3.3	330	1.472	0.723	-1.494	-171.3717378	-266.3108784	-31.2835068	9.80904096	3.02521824	-16.4152467
3.31	331	0.374	0.558	-1.126	-143.4686832	-281.4369696	-11.2872726	8.37091638	0.29220858	-17.03404134
3.32	332	-0.51	0.493	-0.801	-125.3632104	-273.8166282	8.021412	7.13905668	-2.40069402	-17.38354572
3.33	333	-0.998	0.569	-0.688	-109.3776822	-260.0656362	29.3354496	6.06762522	-4.99046418	-17.45230068
3.34	334	-1.529	0.688	-0.798	-122.6703078	-227.9226924	52.2537696	4.83003594	-7.29375534	-17.20592874
3.35	335	-1.68	0.935	-1.28	-113.8467546	-185.2373214	61.4210976	3.63255372	-9.17878716	-16.76475108
3.36	336	-1.165	1.034	-1.871	-58.7854908	-161.4022686	55.290447	2.98511118	-10.81171746	-16.34076216
3.37	337	-0.5	0.666	-1.919	-3.5523396	-150.974433	54.0872352	2.88197874	-12.32432658	-15.91677324
3.38	338	-0.38	0.144	-2.098	17.9908812	-120.3784758	60.733548	2.96792244	-13.54472712	-15.39538146
3.39	339	0.384	0.436	-2.13	4.7555514	-74.8283148	75.343977	2.85333084	-14.31822042	-14.68491354
3.4	340	-0.675	1.229	-2.8	-41.252976	-24.2934192	84.9696714	2.22307704	-14.60469942	-13.83120612
3.41	341	-1.064	1.98	-2.972	-41.8832298	-44.8053156	86.8604328	1.58709366	-15.08598414	-12.96030996
3.42	342	-0.996	1.87	-3.078	-39.5913978	-82.5632478	56.4936588	1.05424272	-15.91677324	-12.42172944
3.43	343	-1.148	1.37	-2.705	-56.0925882	-137.223441	32.1429438	0.42398892	-17.28614286	-12.14098002
3.44	344	-1.829	1.023	-2.534	-59.301153	-119.461743	5.3285094	-0.16615782	-18.47216592	-12.1180617
3.45	345	-1.309	1.346	-2.468	-51.7381074	-63.9421128	3.0939732	-0.69327918	-19.11387888	-12.0894138
3.46	346	-1.137	1.681	-2.039	-41.6540466	-33.8618178	23.6058696	-1.19175264	-19.44619452	-11.84304186
3.47	347	-0.762	1.401	-1.457	-35.236917	-21.8869956	29.4500412	-1.65011904	-19.66391856	-11.53364454
3.48	348	-0.47	1.018	-0.725	-43.4302164	-40.0497642	15.9282324	-2.14286292	-20.05925958	-11.35602756
3.49	349	-0.225	0.732	-0.51	-53.858052	-48.9306132	0	-2.6929026	-20.54627388	-11.3445684
3.5	350	-0.301	0.53	-0.564	-58.4990118	-45.3209778	-11.745639	-3.28304934	-21.02182902	-11.4305121
3.51	351	-0.452	0.421	-0.607	-59.9887026	-29.9084076	-20.4546006	-3.81590028	-21.33695592	-11.6310474
3.52	352	-0.468	0.299	-0.648	-57.1812084	-15.8709366	-27.3300966	-4.297185	-21.52030248	-11.91179682
3.53	353	-0.359	0.257	-0.627	-51.9672906	-6.5317212	-26.4133638	-4.72117392	-21.60624618	-12.18681666
3.54	354	-0.223	0.21	-0.615	-44.1750618	-0.6875496	-25.6685184	-5.0706783	-21.64062366	-12.45610692
3.55	355	-0.122	0.252	-0.62	-35.4661002	0.8021412	-24.923673	-5.36861646	-21.64062366	-12.70820844
3.56	356	0.012	0.279	-0.606	-24.0069402	-4.297185	-24.4080108	-5.51758554	-21.70937862	-12.96030996
3.57	357	0.006	0.358	-0.67	-9.5683986	-13.2926256	-22.0015872	-5.5290447	-21.8583477	-13.18376358
3.58	358	-0.068	0.534	-0.69	-2.9220858	-14.037471	-13.8082878	-5.50612638	-22.01304636	-13.3212735
3.59	359	-0.144	0.557	-0.625	2.0626488	-12.891555	-10.1413566	-5.44883058	-22.15055628	-13.42440594
3.6	360	-0.197	0.55	-0.603	6.302538	-11.2299768	-10.0840608	-5.47747848	-22.26514788	-13.47024258
3.61	361	-0.289	0.528	-0.463	11.3445684	-8.7662574	-9.6256944	-5.3285094	-22.36255074	-13.56764544
3.62	362	-0.375	0.465	-0.327	13.8082878	-3.151269	-6.5317212	-5.156622	-22.39692822	-13.6364004
3.63	363	-0.466	0.365	-0.385	11.6310474	1.7761698	-3.3804522	-5.02484166	-22.37973948	-13.67650746
3.64	364	-0.466	0.316	-0.476	8.4224826	10.3705398	-1.2032118	-4.93316838	-22.27660704	-13.6936962
3.65	365	-0.384	0.399	-0.558	10.4851314	23.8923486	-0.6875496	-4.91597964	-22.06461258	-13.67650746
3.66	366	-0.289	0.538	-0.655	15.2406828	33.231564	1.8334656	-4.76128098	-21.73229694	-13.67650746
3.67	367	-0.226	0.607	-0.765	22.058883	38.7892566	6.4744254	-4.56074568	-21.3426855	-13.63067082
3.68	368	-0.236	0.578	-0.858	29.507337	40.966497	9.6829902	-4.297185	-20.92442616	-13.55618628
3.69	369	-0.354	0.49	-0.812	35.4088044	37.0703826	9.2819196	-3.97059894	-20.55200346	-13.47597216
3.7	370	-0.495	0.383	-0.699	30.7105488	34.5493674	7.3911582	-3.72995658	-20.24260614	-13.39002846
3.71	371	-0.534	0.315	-0.815	19.9389384	46.4668938	4.8128472	-3.54661002	-19.77851016	-13.36138056
3.72	372	-0.507	0.323	-0.975	17.0741484	62.6816052	3.437748	-3.38618178	-19.15398594	-13.34419182
3.73	373	-0.524	0.366	-1.069	20.5118964	74.3126526	4.3544808	-3.19137606	-18.41487012	-13.32700308
3.74	374	-0.492	0.446	-1.154	23.204799	76.3753014	5.5003968	-2.9793816	-17.65283598	-13.28689602
3.75	375	-0.41	0.509	-1.233	25.496631	72.5364828	4.6409598	-2.75592798	-16.9309089	-13.25251854
3.76	376	-0.362	0.497	-1.261	26.1268848	64.2858876	2.6929026	-2.50382646	-16.29492552	-13.24105938
3.77	377	-0.296	0.409	-1.184	24.064236	55.290447	1.432395	-2.2631841	-15.74488584	-13.2353298
3.78	378	-0.248	0.291	-1.088	18.4492476	45.550161	0.572958	-2.08556712	-15.29224902	-13.2353298
3.79	379	-0.238	0.202	-1.034	13.0061466	39.1903272	-0.4010706	-1.95378678	-14.90263758	-13.24678896
3.8	380	-0.236	0.144	-0.986	10.026765	36.7839036	-2.4637194	-1.87357266	-14.53021488	-13.26970728
3.81	381	-0.205	0.129	-0.95	8.4797784	35.6952834	-5.5576926	-1.78189938	-14.1807105	-13.32700308
3.82	382	-0.176	0.117	-0.935	7.8495246	35.0650296	-7.9068204	-1.68449652	-13.83120612	-13.4072172
3.83	383	-0.147	0.1	-0.91	6.875496	33.1742682	-10.4278356	-1.59282324	-13.50462006	-13.51607922
3.84	384	-0.124	0.084	-0.91	5.9587632	30.939732	-13.0634424	-1.50687954	-13.20095232	-13.65358914
3.85	385	-0.092	0.058	-0.891	4.3544808	29.1062664	-15.5844576	-1.43812458	-12.891555	-13.81401738
3.86	386	-0.075	0.041	-0.907	2.6929026	27.215505	-16.3865988	-1.38082878	-12.62799432	-13.9801752
3.87	387	-0.091	0.016	-0.949	2.0626488	26.2987722	-16.9595568	-1.32353298	-12.37016322	-14.1520626
3.88	388	-0.093	0.016	-0.988	3.0366774	27.4446882	-17.9908812	-1.2605076	-12.10087296	-14.32967958
3.89	389	-0.106	0.036	-1.019	4.870143	29.1062664	-17.475219	-1.1745639	-11.81439396	-14.50729656
3.9	390	-0.095	0.03	-1.055	5.72958	29.9657034	-16.5584862	-1.09434978	-11.49926706	-14.67918396
3.91	391	-0.089	0.032	-1.074	7.1046792	29.4500412	-16.329303	-0.99694692	-11.21278806	-14.8396122
3.92	392	-0.086	0.04	-1.069	8.7089616	29.4500412	-16.5011904	-0.87662574	-10.92057948	-15.00577002
3.93	393	-0.091	0.023	-1.053	11.0580894	29.7365202	-16.615782	-0.73911582	-10.6283709	-15.17192784
3.94	394	-0.091	-0.004	-1.02	13.5218088	32.1429438	-16.1001198	-0.57868758	-10.30751442	-15.3266265
3.95	395	-0.1	-0.024	-0.989	15.5271618	35.5806918	-14.8396122	-0.39534102	-9.94655088	-15.47559558
3.96	396	-0.132	-0.045	-0.98	16.4438946	35.4661002	-13.1207382	-0.21199446	-9.5970465	-15.60164634
3.97	397	-0.184	-0.067	-0.968	16.5011904	31.5699858	-10.8289062	-0.03437748	-9.2819196	-15.70477878
3.98	398	-0.192	-0.079	-0.974	15.2979786	28.1895336	-8.307891	0.12605076	-9.00117018	-15.77926332
3.99	399	-0.214	-0.07	-0.997	13.5791046	26.642547	-5.5576926	0.26929026	-8.7376095	-15.83082954
4	400	-0.22	-0.037	-1.01	12.1467096	26.1268848	-3.5523396	0.38961144	-8.49696714	-15.85374786
4.01	401	-0.213	-0.005	-1.002	8.9954406	21.6578124	-2.4637194	0.48128472	-8.28497268	-15.8709366
4.02	402	-0.183	0.041	-0.946	6.7609044	18.048177	-2.86479	0.55003968	-8.10162612	-15.89385492
4.03	403	-0.152	0.072	-0.943	6.6463128	17.6471064	-4.010706	0.62452422	-7.92973872	-15.9282324
4.04	404	-0.124	0.092	-0.948	6.9900876	16.902261	-4.3544808	0.69900876	-7.75785132	-15.96833946
4.05	405	-0.106	0.083	-0.946	6.589017	16.3865988	-2.6929026	0.7161975	-7.58596392	-15.97979862
4.06	406	-0.101	0.063	-0.956	5.2712136	14.3812458	0	0.76776372	-7.44272442	-15.97406904
4.07	407	-0.098	0.056	-0.958	3.9534102	12.2613012	2.291832	0.8021412	-7.32240324	-15.94542114
4.08	408	-0.098	0.051	-0.955	3.4950438	10.886202	3.8961144	0.8307891	-7.21354122	-15.90531408
4.09	409	-0.102	0.048	-0.987	2.5210152	9.3392154	5.443101	0.84797784	-7.12186794	-15.8422887
4.1	410	-0.117	0.059	-0.996	1.4896908	8.021412	6.7036086	0.79068204	-7.05311298	-15.76207458
4.11	411	-0.145	0.075	-0.991	1.2605076	5.2139178	6.9900876	0.79641162	-7.00154676	-15.68759004
4.12	412	-0.152	0.094	-1.013	-0.6302538	1.432395	6.2452422	0.77922288	-6.9900876	-15.62456466
4.13	413	-0.153	0.116	-0.994	-3.6096354	-3.8961144	4.870143	0.73911582	-7.03019466	-15.57872802
4.14	414	-0.127	0.126	-0.991	-7.3338624	-6.6463128	4.3544808	0.6589017	-7.09322004	-15.53862096
4.15	415	-0.028	0.108	-1.005	-12.0894138	-2.0626488	4.870143	0.46982556	-7.05311298	-15.48705474
4.16	416	-0.025	0.135	-1.021	-13.0061466	-8.7662574	5.5003968	0.33231564	-7.14478626	-15.43548852
4.17	417	-0.034	0.12	-0.954	-10.1413566	-12.0894138	4.8128472	0.22345362	-7.26510744	-15.38965188
4.18	418	-0.037	0.105	-0.993	-11.5164558	-16.5011904	5.0993262	0.10313244	-7.43126526	-15.34381524
4.19	419	-0.033	0.115	-1.039	-10.313244	-17.3606274	5.0420304	0	-7.60315266	-15.2979786
4.2	420	-0.03	0.151	-1.047	-7.5630456	-20.7410796	4.3544808	-0.13178034	-7.78076964	-15.25214196
4.21	421	-0.033	0.193	-1.011	-4.297185	-24.9809688	1.3178034	-0.1718874	-8.02714158	-15.24641238
4.22	422	-0.032	0.231	-0.984	-2.0626488	-27.0436176	-2.7501984	-0.18334656	-8.29643184	-15.28078986
4.23	423	-0.046	0.24	-0.958	0.2291832	-26.1268848	-6.8182002	-0.16615782	-8.55426294	-15.3552744
4.24	424	-0.056	0.22	-0.945	2.578311	-21.3713334	-9.1100322	-0.12605076	-8.7662574	-15.45267726
4.25	425	-0.056	0.184	-0.951	4.4117766	-16.2147114	-9.3392154	-0.12605076	-8.89230816	-15.54435054
4.26	426	-0.063	0.156	-0.973	6.589017	-13.5218088	-9.0527364	-0.04583664	-9.0240885	-15.6417534
4.27	427	-0.088	0.151	-0.987	8.8235532	-12.5477802	-9.740286	0.0572958	-9.15013926	-15.74488584
4.28	428	-0.113	0.168	-0.982	10.313244	-11.8602306	-10.7143146	0.17761698	-9.26473086	-15.85374786
4.29	429	-0.078	0.165	-0.96	9.5683986	-8.3651868	-13.178034	0.29793816	-9.34494498	-15.99125778
4.3	430	-0.051	0.148	-0.972	8.880849	-8.880849	-15.2406828	0.3724227	-9.40224078	-16.14595644
4.31	431	-0.055	0.111	-0.998	7.448454	-11.2299768	-16.2147114	0.47555514	-9.5111028	-16.31211426
4.32	432	-0.069	0.08	-1.009	5.3858052	-12.5477802	-15.3552744	0.55576926	-9.63142398	-16.4725425
4.33	433	-0.139	0.056	-0.994	3.2658606	-15.0687954	-13.0061466	0.61879464	-9.77466348	-16.61005242
4.34	434	-0.216	0.015	-0.964	-1.145916	-15.8709366	-11.8029348	0.6302538	-9.93509172	-16.73610318
4.35	435	-0.185	0.029	-0.924	-5.156622	-12.032118	-11.1153852	0.572958	-10.04968332	-16.8449652
4.36	436	-0.146	0.051	-0.931	-8.2505952	-11.3445684	-9.5683986	0.50420304	-10.15854534	-16.94809764
4.37	437	-0.154	0.052	-0.966	-10.4851314	-17.2460358	-7.2765666	0.41825934	-10.33043274	-17.02831176
4.38	438	-0.158	0.047	-0.983	-11.0580894	-21.0848544	-7.161975	0.32085648	-10.5424272	-17.10852588
4.39	439	-0.192	0.048	-0.983	-9.8548776	-25.3247436	-8.1360036	0.24064236	-10.79452872	-17.19446958
4.4	440	-0.24	0.065	-0.971	-9.0527364	-27.6738714	-9.3965112	0.14896908	-11.0867373	-17.29187244
4.41	441	-0.269	0.089	-0.956	-8.7089616	-27.2728008	-9.740286	0.0859437	-11.35602756	-17.40073446
4.42	442	-0.287	0.11	-0.946	-7.9641162	-24.8090814	-9.5111028	0.0286479	-11.6023995	-17.5038669
4.43	443	-0.277	0.115	-0.947	-6.9327918	-21.8296998	-8.9381448	-0.01145916	-11.81439396	-17.59554018
4.44	444	-0.28	0.107	-0.948	-6.016059	-19.1367972	-8.0787078	-0.0572958	-12.00919968	-17.68721346
4.45	445	-0.287	0.096	-0.941	-4.9847346	-15.6990492	-7.161975	-0.13178034	-12.2040054	-17.74450926
4.46	446	-0.29	0.092	-0.943	-4.1252976	-13.0634424	-6.4744254	-0.16042824	-12.33005616	-17.81326422
4.47	447	-0.292	0.095	-0.953	-2.9220858	-10.599723	-5.6722842	-0.1718874	-12.43891818	-17.8762896
4.48	448	-0.297	0.097	-0.952	-1.6615782	-7.9641162	-4.870143	-0.17761698	-12.51340272	-17.92785582
4.49	449	-0.3	0.101	-0.951	-0.572958	-5.0420304	-4.2398892	-0.1718874	-12.56496894	-17.97369246
4.5	450	-0.297	0.094	-0.949	0.0572958	-2.1772404	-3.437748	-0.4010706	-12.79415214	-17.91639666
4.51	451	-0.289	0.088	-0.944	0	-0.4583664	-2.578311	-0.39534102	-12.79988172	-17.94504456
4.52	452	-0.285	0.091	-0.942	-0.5156622	0.2291832	-1.3750992	-0.39534102	-12.79988172	-17.95650372
4.53	453	-0.287	0.099	-0.945	-0.9740286	0.5156622	-0.286479	-0.40680018	-12.79415214	-17.9622333
4.54	454	-0.287	0.104	-0.949	-1.2032118	0.4010706	0.4583664	-0.41825934	-12.78842256	-17.95650372
4.55	455	-0.283	0.113	-0.953	-1.2032118	0.0572958	1.2605076	-0.84224826	-13.0347945	-17.80753464
4.56	456	-0.279	0.118	-0.952	-1.0313244	-0.6302538	2.0626488	-0.859437	-13.04052408	-17.78461632
4.57	457	-0.282	0.128	-0.946	-0.7448454	-0.9167328	3.0366774	-0.87089616	-13.04625366	-17.75023884
4.58	458	-0.297	0.131	-0.941	-0.572958	-1.145916	3.7815228	-0.8880849	-13.05771282	-17.71586136
4.59	459	-0.307	0.131	-0.945	-0.4583664	-1.0886202	4.010706	-0.89954406	-13.06917198	-17.67002472
4.6	460	-0.29	0.137	-0.935	0	0.9740286	3.8388186	-1.12299768	-13.17230442	-17.5611627
4.61	461	-0.271	0.139	-0.927	0.6302538	2.9220858	4.1252976	-1.12872726	-13.13792694	-17.52105564
4.62	462	-0.263	0.134	-0.923	0.9167328	3.0939732	4.5263682	-1.12872726	-13.10927904	-17.475219
4.63	463	-0.247	0.128	-0.918	0.9740286	4.1252976	4.6982556	-1.12872726	-13.0634424	-17.42365278
4.64	464	-0.231	0.126	-0.934	0.9167328	5.0993262	4.6409598	-1.13445684	-13.01187618	-17.37781614
4.65	465	-0.221	0.129	-0.947	1.3750992	5.6722842	4.5263682	-1.24331886	-12.96603954	-17.3033316
4.66	466	-0.217	0.131	-0.953	2.1772404	6.4171296	4.297185	-1.22613012	-12.89728458	-17.25749496
4.67	467	-0.21	0.132	-0.961	3.151269	7.0473834	4.297185	-1.20894138	-12.82852962	-17.21165832
4.68	468	-0.204	0.132	-0.965	3.8961144	7.3911582	3.8388186	-1.1745639	-12.75404508	-17.17155126
4.69	469	-0.199	0.13	-0.965	4.1252976	7.8495246	3.3231564	-1.145916	-12.67383096	-17.13717378
4.7	470	-0.197	0.128	-0.966	4.297185	8.1932994	2.86479	-1.19175264	-12.58215768	-17.09133714
4.71	471	-0.195	0.123	-0.967	3.6669312	8.0787078	2.3491278	-1.15737516	-12.50194356	-17.06268924
4.72	472	-0.192	0.115	-0.964	2.9793816	7.7922288	2.2345362	-1.13445684	-12.42745902	-17.03977092
4.73	473	-0.193	0.107	-0.966	2.291832	7.7922288	2.4637194	-1.1172681	-12.3472449	-17.0168526
4.74	474	-0.196	0.106	-0.969	1.718874	7.3911582	2.5210152	-1.10580894	-12.27276036	-16.9882047
4.75	475	-0.197	0.103	-0.974	1.4896908	7.0473834	2.578311	-1.19175264	-12.19254624	-16.94236806
4.76	476	-0.194	0.106	-0.978	1.432395	6.9900876	2.291832	-1.18602306	-12.12379128	-16.91372016
4.77	477	-0.185	0.11	-0.982	1.4896908	6.4171296	2.005353	-1.1745639	-12.0607659	-16.89653142
4.78	478	-0.179	0.113	-0.98	1.3750992	5.5003968	1.6615782	-1.16310474	-12.0034701	-16.87934268
4.79	479	-0.177	0.113	-0.974	1.3178034	4.1252976	1.3178034	-1.15164558	-11.96336304	-16.86215394
4.8	480	-0.175	0.111	-0.974	1.0886202	2.6356068	0.859437	-1.432395	-11.87741934	-16.79339898
4.81	481	-0.17	0.109	-0.964	0.859437	1.3178034	0.4583664	-1.42666542	-11.8602306	-16.79339898
4.82	482	-0.167	0.107	-0.957	0.5156622	0.4583664	0	-1.42093584	-11.8602306	-16.79339898
4.83	483	-0.167	0.107	-0.952	0.572958	0	-0.3437748	-1.40947668	-11.8602306	-16.79339898
4.84	484	-0.167	0.106	-0.955	0.4010706	-0.8021412	-0.5156622	-1.4037471	-11.86596018	-16.79912856
4.85	485	-0.171	0.11	-0.959	0.4583664	-1.6615782	-0.6302538	-1.70741484	-11.81439396	-16.74183276
4.86	486	-0.176	0.115	-0.961	0.9167328	-1.8334656	-0.9167328	-1.69595568	-11.8315827	-16.75329192
4.87	487	-0.182	0.119	-0.963	1.0886202	-1.8334656	-1.2032118	-1.68449652	-11.85450102	-16.76475108
4.88	488	-0.188	0.12	-0.966	1.2605076	-1.8334656	-1.3178034	-1.66730778	-11.87168976	-16.78193982
4.89	489	-0.19	0.121	-0.966	1.3178034	-1.5469866	-1.432395	-1.65011904	-11.8888785	-16.79339898
4.9	490	-0.192	0.122	-0.967	1.3178034	-1.4896908	-1.3178034	-1.88503182	-11.89460808	-16.74756234
4.91	491	-0.195	0.122	-0.97	1.432395	-1.5469866	-1.2032118	-1.86784308	-11.90606724	-16.76475108
4.92	492	-0.203	0.12	-0.971	1.3750992	-1.6042824	-1.2605076	-1.85065434	-11.92325598	-16.77621024
4.93	493	-0.21	0.12	-0.969	1.2605076	-1.6615782	-1.3750992	-1.83919518	-11.94044472	-16.7876694
4.94	494	-0.217	0.116	-0.967	1.3178034	-1.9480572	-1.432395	-1.82200644	-11.96336304	-16.80485814
4.95	495	-0.222	0.114	-0.962	1.2605076	-1.8907614	-1.4896908	-2.01108258	-12.032118	-16.76475108
4.96	496	-0.225	0.113	-0.959	1.0886202	-1.6615782	-1.4896908	-1.99389384	-12.04930674	-16.78193982
4.97	497	-0.224	0.114	-0.955	0.859437	-2.2345362	-1.432395	-1.98243468	-12.07222506	-16.79339898
4.98	498	-0.224	0.113	-0.954	0.7448454	-2.6356068	-1.3178034	-1.97097552	-12.10087296	-16.81058772
4.99	499	-0.225	0.111	-0.955	0.859437	-2.7501984	-1.2032118	-1.95951636	-12.12379128	-16.82204688
5	500	-0.228	0.109	-0.953	0.9167328	-2.9220858	-1.0886202	-2.12567418	-12.21546456	-16.78193982
5.01	501	-0.228	0.111	-0.955	0.6302538	-3.5523396	-1.0886202	-2.11421502	-12.24984204	-16.79339898
5.02	502	-0.228	0.112	-0.951	0.5156622	-3.8961144	-1.0313244	-2.10848544	-12.2899491	-16.80485814
5.03	503	-0.229	0.114	-0.95	0.4583664	-3.6096354	-0.9167328	-2.09702628	-12.32432658	-16.81058772
5.04	504	-0.23	0.113	-0.95	0.4583664	-3.3231564	-0.7448454	-2.0912967	-12.35870406	-16.82204688
5.05	505	-0.23	0.111	-0.95	0.3437748	-2.9220858	-0.6302538	-2.3204799	-12.45610692	-16.7590215
5.06	506	-0.229	0.11	-0.953	0.3437748	-2.291832	-0.572958	-2.31475032	-12.48475482	-16.76475108
5.07	507	-0.229	0.109	-0.952	0.3437748	-1.8334656	-0.4010706	-2.30902074	-12.50194356	-16.77048066
5.08	508	-0.228	0.111	-0.951	0.4583664	-1.5469866	-0.286479	-2.30329116	-12.5191323	-16.77621024
5.09	509	-0.228	0.111	-0.95	0.6302538	-1.432395	-0.1718874	-2.29756158	-12.53059146	-16.77621024
5.1	510	-0.226	0.112	-0.949	0.9167328	-1.432395	-0.0572958	-2.6069589	-12.62226474	-16.69026654
5.11	511	-0.226	0.112	-0.953	0.859437	-1.4896908	0	-2.59549974	-12.6337239	-16.69026654
5.12	512	-0.229	0.113	-0.947	0.9167328	-1.2605076	0.0572958	-2.58404058	-12.64518306	-16.69026654
5.13	513	-0.229	0.112	-0.944	0.859437	-0.859437	0.1145916	-2.578311	-12.65664222	-16.68453696
5.14	514	-0.227	0.112	-0.943	1.0313244	0	0.3437748	-2.56685184	-12.65664222	-16.68453696
5.15	515	-0.22	0.108	-0.945	0.859437	0.6302538	0.6302538	-2.86479	-12.69674928	-16.59286368
5.16	516	-0.22	0.107	-0.944	0.6875496	0.572958	0.9740286	-2.85906042	-12.6910197	-16.5871341
5.17	517	-0.224	0.109	-0.947	0.572958	0.3437748	1.0313244	-2.85906042	-12.68529012	-16.57567494
5.18	518	-0.228	0.111	-0.955	0.6302538	0.3437748	0.6875496	-2.85333084	-12.68529012	-16.56421578
5.19	519	-0.229	0.114	-0.96	0.8021412	0.7448454	0.4583664	-2.84760126	-12.67383096	-16.56421578
5.2	520	-0.226	0.109	-0.958	0.8021412	1.6615782	0.4583664	-3.04240698	-12.69674928	-16.5011904
5.21	521	-0.222	0.108	-0.959	0.859437	2.291832	0.6302538	-3.0366774	-12.67383096	-16.49546082
5.22	522	-0.22	0.106	-0.964	0.6875496	2.5210152	0.7448454	-3.03094782	-12.64518306	-16.48973124
5.23	523	-0.218	0.107	-0.965	0.6302538	2.86479	0.9167328	-3.02521824	-12.61653516	-16.47827208
5.24	524	-0.217	0.11	-0.967	0.8021412	3.2658606	0.859437	-3.01948866	-12.58788726	-16.4725425
5.25	525	-0.219	0.112	-0.963	0.859437	3.3231564	0.4583664	-3.16845774	-12.5764281	-16.42670586
5.26	526	-0.219	0.115	-0.955	0.859437	3.2085648	0.0572958	-3.16272816	-12.54205062	-16.42670586
5.27	527	-0.218	0.116	-0.95	0.859437	2.9793816	-0.1145916	-3.151269	-12.51340272	-16.42670586
5.28	528	-0.221	0.115	-0.946	0.4010706	2.6356068	-0.2291832	-3.14553942	-12.4904844	-16.43243544
5.29	529	-0.227	0.116	-0.949	-0.1145916	2.5210152	-0.4583664	-3.151269	-12.4618365	-16.43816502
5.3	530	-0.23	0.119	-0.955	-0.1145916	2.291832	-0.8021412	-3.37472262	-12.50194356	-16.3865988
5.31	531	-0.226	0.124	-0.962	0.1145916	2.2345362	-1.0313244	-3.36899304	-12.48475482	-16.39805796
5.32	532	-0.219	0.126	-0.964	0.4583664	2.1199446	-0.9167328	-3.36326346	-12.4618365	-16.40378754
5.33	533	-0.212	0.125	-0.966	0.859437	1.8334656	-0.7448454	-3.3518043	-12.44464776	-16.4152467
5.34	534	-0.211	0.121	-0.966	0.9167328	1.6042824	-0.5156622	-3.34034514	-12.42745902	-16.42097628
5.35	535	-0.214	0.115	-0.964	0.859437	1.432395	-0.3437748	-3.59244666	-12.44464776	-16.3579509
5.36	536	-0.217	0.112	-0.961	0.6302538	1.4896908	-0.2291832	-3.58671708	-12.4331886	-16.3579509
5.37	537	-0.215	0.111	-0.957	0.4583664	1.2605076	-0.1718874	-3.5809875	-12.41599986	-16.36368048
5.38	538	-0.212	0.11	-0.959	0.4010706	0.9740286	-0.1718874	-3.57525792	-12.41027028	-16.36368048
5.39	539	-0.213	0.112	-0.961	0.4583664	0.6302538	0	-3.56952834	-12.4045407	-16.36368048
5.4	540	-0.212	0.113	-0.964	0.572958	0.3437748	0	-4.1539455	-12.45610692	-16.2147114
5.41	541	-0.213	0.111	-0.963	0.8021412	0.1145916	0	-4.14821592	-12.45610692	-16.2147114
5.42	542	-0.213	0.109	-0.961	0.8021412	0.572958	0.0572958	-4.13675676	-12.45037734	-16.20898182
5.43	543	-0.214	0.109	-0.958	0.6302538	1.0313244	0.286479	-4.13102718	-12.43891818	-16.20898182
5.44	544	-0.215	0.11	-0.956	0.5156622	1.0886202	0.3437748	-4.13102718	-12.42745902	-16.20898182
5.45	545	-0.217	0.11	-0.955	0.4583664	1.145916	0.4010706	-4.3258329	-12.4618365	-16.14595644
5.46	546	-0.222	0.11	-0.956	0.4583664	1.145916	0.5156622	-4.3258329	-12.45037734	-16.14022686
5.47	547	-0.225	0.111	-0.96	0.4583664	1.2605076	0.4010706	-4.32010332	-12.43891818	-16.14022686
5.48	548	-0.222	0.113	-0.961	0.5156622	1.4896908	0.2291832	-4.31437374	-12.42172944	-16.13449728
5.49	549	-0.219	0.114	-0.961	0.4583664	1.4896908	0.1145916	-4.30864416	-12.4045407	-16.13449728
5.5	550	-0.214	0.115	-0.959	0.5156622	1.432395	0.0572958	-4.5263682	-12.41599986	-16.08293106
5.51	551	-0.213	0.117	-0.957	0.6302538	1.145916	0.1145916	-4.52063862	-12.4045407	-16.07720148
5.52	552	-0.213	0.116	-0.958	0.4583664	0.8021412	0.2291832	-4.51490904	-12.39308154	-16.07720148
5.53	553	-0.215	0.118	-0.958	0.3437748	1.0313244	0.286479	-4.50917946	-12.38162238	-16.0714719
5.54	554	-0.216	0.116	-0.957	0.5156622	1.3178034	0.3437748	-4.50344988	-12.37016322	-16.0714719
5.55	555	-0.219	0.117	-0.957	0.6875496	1.432395	0.4010706	-4.6696077	-12.4045407	-16.01990568
5.56	556	-0.221	0.118	-0.958	0.6875496	1.3750992	0.1718874	-4.66387812	-12.38735196	-16.01990568
5.57	557	-0.219	0.119	-0.958	0.6302538	1.0313244	0	-4.65241896	-12.3758928	-16.01990568
5.58	558	-0.218	0.119	-0.958	0.5156622	0.7448454	-0.0572958	-4.64668938	-12.37016322	-16.02563526
5.59	559	-0.218	0.119	-0.954	0.6302538	0.572958	-0.0572958	-4.6409598	-12.36443364	-16.02563526
5.6	560	-0.218	0.12	-0.958	0.572958	0.572958	0	-4.94462754	-12.42172944	-15.94542114
5.61	561	-0.217	0.12	-0.961	0.6875496	0.8021412	0	-4.93316838	-12.41599986	-15.94542114
5.62	562	-0.219	0.118	-0.959	0.6875496	0.8021412	0	-4.9274388	-12.4045407	-15.94542114
5.63	563	-0.218	0.119	-0.958	0.4583664	0.859437	-0.1145916	-4.92170922	-12.39881112	-15.94542114
5.64	564	-0.215	0.118	-0.959	0.286479	0.6875496	-0.2291832	-4.91597964	-12.38735196	-15.95115072
5.65	565	-0.213	0.118	-0.959	0.3437748	0.5156622	-0.2291832	-5.2139178	-12.41599986	-15.87666618
5.66	566	-0.21	0.117	-0.96	0.572958	0.1718874	-0.2291832	-5.20245864	-12.41599986	-15.87666618
5.67	567	-0.211	0.114	-0.962	0.572958	-0.0572958	-0.1718874	-5.19672906	-12.41599986	-15.88239576
5.68	568	-0.213	0.112	-0.959	0.6302538	0	-0.286479	-5.19099948	-12.41599986	-15.88239576
5.69	569	-0.215	0.112	-0.958	0.572958	0.0572958	-0.1718874	-5.1852699	-12.41599986	-15.88812534
5.7	570	-0.215	0.113	-0.958	0.3437748	-0.0572958	-0.1718874	-5.60925882	-12.51340272	-15.77353374
5.71	571	-0.216	0.114	-0.961	0.4010706	0	-0.2291832	-5.60352924	-12.5191323	-15.77353374
5.72	572	-0.216	0.114	-0.961	0.572958	-0.1145916	-0.4583664	-5.59779966	-12.5191323	-15.77926332
5.73	573	-0.216	0.114	-0.962	0.8021412	-0.1718874	-0.6302538	-5.5863405	-12.5191323	-15.7849929
5.74	574	-0.222	0.116	-0.963	0.8021412	-0.1718874	-0.6302538	-5.57488134	-12.52486188	-15.79645206
5.75	575	-0.224	0.117	-0.963	0.859437	-0.1145916	-0.6875496	-5.71239126	-12.58788726	-15.76207458
5.76	576	-0.224	0.117	-0.961	1.2032118	0.3437748	-0.7448454	-5.69520252	-12.58215768	-15.76780416
5.77	577	-0.22	0.118	-0.96	1.145916	0.6302538	-0.6302538	-5.68374336	-12.5764281	-15.77353374
5.78	578	-0.218	0.117	-0.958	1.2032118	0.6875496	-0.4583664	-5.6722842	-12.57069852	-15.77926332
5.79	579	-0.22	0.117	-0.954	1.0313244	0.4583664	-0.4010706	-5.66082504	-12.56496894	-15.7849929
5.8	580	-0.22	0.115	-0.958	0.9740286	0.7448454	-0.1718874	-5.7582279	-12.59361684	-15.756345
5.81	581	-0.218	0.112	-0.959	0.9167328	1.3178034	0	-5.74676874	-12.5764281	-15.76207458
5.82	582	-0.215	0.11	-0.955	1.0313244	1.6042824	0.0572958	-5.73530958	-12.56496894	-15.76207458
5.83	583	-0.214	0.109	-0.953	0.9167328	1.145916	0.2291832	-5.72958	-12.5477802	-15.756345
5.84	584	-0.218	0.109	-0.953	0.6875496	0.6875496	0.286479	-5.72385042	-12.54205062	-15.756345
5.85	585	-0.221	0.111	-0.956	0.4010706	0.3437748	0.1718874	-5.94730404	-12.6337239	-15.68759004
5.86	586	-0.222	0.111	-0.96	0.286479	0.1718874	0	-5.94730404	-12.6337239	-15.68759004
5.87	587	-0.224	0.112	-0.964	0.3437748	0.2291832	0	-5.94157446	-12.62799432	-15.69331962
5.88	588	-0.223	0.115	-0.966	0.5156622	0.4583664	-0.1145916	-5.93584488	-12.62226474	-15.69331962
5.89	589	-0.22	0.119	-0.964	0.572958	0.4583664	0	-5.9301153	-12.61653516	-15.69331962
5.9	590	-0.221	0.12	-0.959	0.3437748	0.286479	0	-6.26816052	-12.70820844	-15.60164634
5.91	591	-0.22	0.124	-0.957	0.3437748	0	-0.0572958	-6.26243094	-12.70820844	-15.60164634
5.92	592	-0.22	0.124	-0.954	0.5156622	-0.3437748	-0.0572958	-6.25670136	-12.70820844	-15.60164634
5.93	593	-0.218	0.121	-0.956	0.6875496	-0.572958	0	-6.25097178	-12.71393802	-15.60164634
5.94	594	-0.217	0.117	-0.958	0.572958	-0.4010706	0	-6.2452422	-12.7196676	-15.60164634
5.95	595	-0.216	0.116	-0.96	0.8021412	-0.1718874	0.1145916	-6.34837464	-12.73685634	-15.57299844
5.96	596	-0.217	0.118	-0.959	0.9740286	0.1145916	0.1145916	-6.33691548	-12.73685634	-15.56726886
5.97	597	-0.219	0.118	-0.955	0.9167328	0.5156622	0.1718874	-6.3311859	-12.73112676	-15.56726886
5.98	598	-0.218	0.116	-0.955	0.9167328	0.9167328	0.286479	-6.31972674	-12.7196676	-15.56726886
5.99	599	-0.218	0.117	-0.957	0.859437	1.145916	0.3437748	-6.30826758	-12.70820844	-15.56153928
6	600	-0.217	0.116	-0.96	0.7448454	1.145916	0.3437748	-6.36556338	-12.70820844	-15.54435054
6.01	601	-0.216	0.114	-0.963	0.6875496	0.7448454	0.3437748	-6.3598338	-12.70247886	-15.53862096
6.02	602	-0.217	0.113	-0.962	0.6875496	0.6875496	0.4010706	-6.35410422	-12.69674928	-15.53862096
6.03	603	-0.219	0.115	-0.961	0.7448454	0.6302538	0.4583664	-6.34837464	-12.68529012	-15.53289138
6.04	604	-0.221	0.117	-0.961	0.859437	0.8021412	0.4010706	-6.33691548	-12.67956054	-15.5271618
6.05	605	-0.222	0.118	-0.961	1.0313244	1.0886202	0.3437748	-6.3884817	-12.68529012	-15.50997306
6.06	606	-0.218	0.117	-0.961	0.9740286	1.2032118	0.2291832	-6.37702254	-12.67383096	-15.50997306
6.07	607	-0.216	0.117	-0.961	0.9740286	1.145916	0.1145916	-6.36556338	-12.6623718	-15.50997306
6.08	608	-0.214	0.114	-0.959	0.8021412	0.859437	0	-6.3598338	-12.65664222	-15.50997306
6.09	609	-0.217	0.114	-0.958	0.8021412	0.4010706	0	-6.35410422	-12.65091264	-15.50997306
6.1	610	-0.218	0.114	-0.959	0.6875496	0.4010706	-0.0572958	-6.45150708	-12.68529012	-15.48132516
6.11	611	-0.22	0.116	-0.959	0.572958	0.572958	-0.1718874	-6.4457775	-12.67956054	-15.48132516
6.12	612	-0.22	0.116	-0.96	0.8021412	0.572958	-0.1718874	-6.43431834	-12.67383096	-15.48705474
6.13	613	-0.219	0.117	-0.96	0.859437	0.6875496	-0.1145916	-6.42858876	-12.66810138	-15.48705474
6.14	614	-0.218	0.118	-0.962	1.145916	0.3437748	-0.1145916	-6.4171296	-12.6623718	-15.49278432
6.15	615	-0.219	0.117	-0.963	1.145916	-0.0572958	-0.1718874	-6.48015498	-12.6910197	-15.469866
6.16	616	-0.221	0.118	-0.962	1.145916	0	-0.2291832	-6.46869582	-12.68529012	-15.47559558
6.17	617	-0.221	0.117	-0.957	1.2605076	0.2291832	-0.4010706	-6.45150708	-12.68529012	-15.48132516
6.18	618	-0.22	0.118	-0.953	1.0886202	0.4583664	-0.4583664	-6.44004792	-12.67956054	-15.48132516
6.19	619	-0.22	0.118	-0.952	0.9167328	0.572958	-0.5156622	-6.42858876	-12.67383096	-15.49278432
6.2	620	-0.221	0.118	-0.956	0.7448454	0.5156622	-0.3437748	-6.50880288	-12.70247886	-15.469866
6.21	621	-0.221	0.117	-0.959	0.6302538	0.2291832	-0.4583664	-6.5030733	-12.70247886	-15.47559558
6.22	622	-0.224	0.116	-0.959	0.7448454	0.4010706	-0.572958	-6.49161414	-12.69674928	-15.48132516
6.23	623	-0.225	0.117	-0.959	0.6302538	0.572958	-0.6302538	-6.48588456	-12.6910197	-15.48705474
6.24	624	-0.224	0.121	-0.959	0.6875496	0.7448454	-0.6302538	-6.4744254	-12.68529012	-15.4985139
6.25	625	-0.223	0.121	-0.959	0.859437	0.859437	-0.572958	-6.5317212	-12.70247886	-15.48705474
6.26	626	-0.223	0.12	-0.963	1.0886202	1.0313244	-0.3437748	-6.52026204	-12.6910197	-15.48705474
6.27	627	-0.224	0.116	-0.965	1.145916	1.3178034	-0.1145916	-6.50880288	-12.67956054	-15.49278432
6.28	628	-0.225	0.115	-0.964	1.2605076	2.005353	-0.0572958	-6.49734372	-12.6623718	-15.49278432
6.29	629	-0.224	0.114	-0.966	1.2605076	2.3491278	0	-6.48015498	-12.6337239	-15.4985139
6.3	630	-0.223	0.114	-0.965	1.2032118	2.5210152	0.0572958	-6.49734372	-12.62226474	-15.49278432
6.31	631	-0.219	0.114	-0.962	0.9740286	2.4637194	0.2291832	-6.49161414	-12.59934642	-15.49278432
6.32	632	-0.219	0.113	-0.963	0.9167328	2.4064236	0.3437748	-6.48015498	-12.5764281	-15.48705474
6.33	633	-0.217	0.114	-0.963	0.9740286	2.2345362	0.3437748	-6.4744254	-12.55350978	-15.48705474
6.34	634	-0.217	0.116	-0.965	0.9167328	2.0626488	0.286479	-6.46296624	-12.53059146	-15.48705474
6.35	635	-0.217	0.118	-0.965	0.9167328	1.718874	0.286479	-6.49734372	-12.52486188	-15.47559558
6.36	636	-0.217	0.117	-0.967	1.0886202	1.6615782	0.4010706	-6.48588456	-12.50767314	-15.469866
6.37	637	-0.218	0.117	-0.964	1.2605076	1.8334656	0.4583664	-6.4744254	-12.4904844	-15.46413642
6.38	638	-0.216	0.117	-0.954	1.3178034	2.005353	0.5156622	-6.46296624	-12.46756608	-15.46413642
6.39	639	-0.214	0.116	-0.95	1.0313244	2.0626488	0.6302538	-6.45150708	-12.44464776	-15.45840684
6.4	640	-0.212	0.118	-0.952	0.9740286	2.0626488	0.7448454	-6.48015498	-12.4331886	-15.4412181
6.41	641	-0.213	0.117	-0.961	1.0313244	1.8907614	0.6875496	-6.46869582	-12.41599986	-15.43548852
6.42	642	-0.215	0.114	-0.96	1.2605076	1.8334656	0.572958	-6.45723666	-12.39308154	-15.43548852
6.43	643	-0.212	0.112	-0.957	1.5469866	1.718874	0.5156622	-6.44004792	-12.3758928	-15.42975894
6.44	644	-0.212	0.109	-0.954	1.2605076	1.432395	0.5156622	-6.42858876	-12.35870406	-15.42402936
6.45	645	-0.216	0.108	-0.952	0.9740286	0.8021412	0.4583664	-6.46296624	-12.38162238	-15.4125702
6.46	646	-0.216	0.107	-0.954	0.6875496	0.572958	0.4010706	-6.45723666	-12.3758928	-15.40684062
6.47	647	-0.215	0.108	-0.958	0.4583664	0.5156622	0.5156622	-6.45150708	-12.37016322	-15.40111104
6.48	648	-0.215	0.11	-0.964	0.6302538	0.286479	0.6302538	-6.4457775	-12.36443364	-15.39538146
6.49	649	-0.216	0.113	-0.964	0.7448454	0.1718874	0.6875496	-6.44004792	-12.36443364	-15.38965188
6.5	650	-0.217	0.115	-0.966	0.9167328	0.286479	0.6302538	-6.49161414	-12.39308154	-15.36673356
6.51	651	-0.22	0.12	-0.961	1.0886202	0.2291832	0.5156622	-6.48588456	-12.38735196	-15.36100398
6.52	652	-0.222	0.122	-0.96	1.0886202	0.3437748	0.2291832	-6.4744254	-12.38162238	-15.36100398
6.53	653	-0.22	0.122	-0.958	1.2032118	0.4010706	0.1718874	-6.46296624	-12.38162238	-15.3552744
6.54	654	-0.218	0.118	-0.957	1.3178034	0.1718874	0.1718874	-6.4457775	-12.3758928	-15.3552744
6.55	655	-0.216	0.115	-0.954	1.2605076	0.1718874	0.286479	-6.49734372	-12.4045407	-15.33808566
6.56	656	-0.215	0.114	-0.956	1.0886202	0.4583664	0.286479	-6.48588456	-12.39881112	-15.33235608
6.57	657	-0.215	0.114	-0.957	1.2032118	0.6875496	0.4583664	-6.4744254	-12.38735196	-15.33235608
