TimeStamp(s)	FrameCounter	AccX	AccY	AccZ	GyrX	GyrY	GyrZ	EulerX	EulerY	EulerZ
0.01	1	0.152	-0.949	-0.077	15.5844576	-14.9542038	11.1153852	86.2015311	3.85027776	-13.87131318
0.02	2	0.14	-0.973	-0.079	16.1001198	-19.480572	9.8548776	86.35622976	3.74714532	-14.05465974
0.03	3	0.117	-0.99	-0.085	16.8449652	-22.9756158	7.9641162	86.516658	3.66120162	-14.27811336
0.04	4	0.082	-1.004	-0.086	16.9595568	-25.3820394	5.0420304	86.67708624	3.60390582	-14.5244853
0.05	5	0.051	-1.006	-0.089	16.6730778	-26.1268848	2.0626488	86.82605532	3.57525792	-14.7823164
0.06	6	0.033	-1.007	-0.091	16.6730778	-26.4706596	-0.5156622	86.98648356	3.57525792	-15.0401475
0.07	7	0.024	-1.006	-0.09	16.4438946	-25.9549974	-2.5210152	87.14118222	3.59244666	-15.2979786
0.08	8	0.02	-0.994	-0.084	15.9855282	-25.78311	-4.297185	87.2901513	3.63255372	-15.5558097
0.09	9	0.019	-0.982	-0.068	14.6677248	-27.2728008	-5.9014674	87.42766122	3.68984952	-15.82509996
0.1	10	0.028	-0.989	-0.049	10.9434978	-29.9084076	-7.6776372	87.5193345	3.75860448	-16.12303812
0.11	11	0.04	-1.008	-0.031	4.9847346	-33.6899304	-8.880849	87.55371198	3.84454818	-16.46108334
0.12	12	0.043	-1.028	-0.024	-2.4637194	-37.4141574	-10.1986524	87.50787534	3.93622146	-16.83350604
0.13	13	0.052	-1.029	-0.034	-13.178034	-43.3156248	-12.9488508	87.3474471	4.05654264	-17.26895412
0.14	14	0.065	-1.029	-0.067	-22.91832	-48.128472	-15.9855282	87.08388642	4.20551172	-17.75596842
0.15	15	0.07	-1.029	-0.108	-28.934379	-50.706783	-18.3919518	86.75730036	4.37166954	-18.27163062
0.16	16	0.054	-1.029	-0.137	-31.8564648	-52.139178	-20.5118964	86.39633682	4.5550161	-18.80448156
0.17	17	0.012	-1.025	-0.151	-31.0543236	-51.9672906	-22.5172494	86.04683244	4.7555514	-19.3373325
0.18	18	-0.031	-1.02	-0.131	-25.78311	-49.6181628	-23.9496444	85.7431647	4.97327544	-19.84726512
0.19	19	-0.071	-1.016	-0.082	-18.8503182	-45.0917946	-23.9496444	85.51971108	5.1852699	-20.31709068
0.2	20	-0.092	-1.033	-0.021	-12.2613012	-40.966497	-21.8296998	85.36501242	5.36288688	-20.73535002
0.21	21	-0.088	-1.06	0.03	-6.9327918	-34.1482968	-16.7303736	85.26187998	5.51185596	-21.0848544
0.22	22	-0.066	-1.087	0.044	-5.5576926	-29.1062664	-11.8029348	85.18166586	5.60925882	-21.38852214
0.23	23	-0.043	-1.132	0.044	-3.8388186	-27.4446882	-6.9327918	85.11864048	5.66655462	-21.66354198
0.24	24	-0.028	-1.188	0.055	-2.8074942	-26.4706596	-1.718874	85.06707426	5.66655462	-21.92710266
0.25	25	-0.022	-1.236	0.062	-3.4950438	-25.0382646	2.7501984	85.02123762	5.6149884	-22.1734746
0.26	26	-0.02	-1.261	0.062	-5.0420304	-23.0329116	5.7868758	84.94675308	5.54623344	-22.39692822
0.27	27	-0.007	-1.248	0.046	-6.3598338	-20.5691922	7.3338624	84.86653896	5.45456016	-22.59746352
0.28	28	0.025	-1.199	0.022	-6.8182002	-19.5951636	7.8495246	84.78059526	5.36861646	-22.78081008
0.29	29	0.043	-1.131	0.006	-6.2452422	-21.8869956	8.4224826	84.70038114	5.26548402	-22.99280454
0.3	30	0.058	-1.053	0.006	-6.4171296	-25.5539268	9.0527364	84.6258966	5.156622	-23.23917648
0.31	31	0.053	-0.991	-0.001	-7.3911582	-29.6792244	9.3965112	84.52849374	5.0420304	-23.52565548
0.32	32	0.035	-0.941	-0.012	-8.0787078	-32.8877892	8.9954406	84.4253613	4.93316838	-23.84078238
0.33	33	0.012	-0.901	-0.028	-8.021412	-35.0077338	7.7922288	84.31649928	4.83003594	-24.18455718
0.34	34	-0.017	-0.867	-0.027	-6.302538	-35.6379876	6.302538	84.23055558	4.73836266	-24.52833198
0.35	35	-0.032	-0.85	-0.015	-4.5263682	-34.7785506	5.0993262	84.1675302	4.65241896	-24.8663772
0.36	36	-0.039	-0.839	-0.002	-4.4117766	-33.1742682	4.010706	84.09877524	4.58939358	-25.18723368
0.37	37	-0.042	-0.841	-0.011	-5.3285094	-29.3927454	3.0366774	84.03002028	4.53209778	-25.47944226
0.38	38	-0.042	-0.837	-0.024	-6.016059	-25.6112226	2.0626488	83.94980616	4.49199072	-25.73154378
0.39	39	-0.045	-0.837	-0.024	-4.7555514	-22.345362	1.0313244	83.88678078	4.46334282	-25.94926782
0.4	40	-0.047	-0.85	-0.016	-2.9793816	-18.907614	0.2291832	83.8524033	4.42323576	-26.1268848
0.41	41	-0.058	-0.873	-0.006	-1.9480572	-15.2406828	-0.1718874	83.8237554	4.4117766	-26.28158346
0.42	42	-0.071	-0.902	0.01	-0.859437	-11.5737516	-0.9167328	83.80656666	4.4117766	-26.39617506
0.43	43	-0.085	-0.925	0.018	-0.286479	-7.2192708	-2.0626488	83.80083708	4.42896534	-26.4706596
0.44	44	-0.097	-0.94	0.025	0.6302538	-2.8074942	-3.5523396	83.80656666	4.46334282	-26.4993075
0.45	45	-0.097	-0.944	0.039	2.578311	3.724227	-5.2712136	83.87532162	4.45761324	-26.4420117
0.46	46	-0.082	-0.947	0.055	4.4690724	9.0527364	-6.1879464	83.92688784	4.5263682	-26.36179758
0.47	47	-0.059	-0.955	0.076	5.5003968	13.0061466	-6.302538	83.98991322	4.59512316	-26.23574682
0.48	48	-0.033	-0.968	0.094	5.5003968	15.756345	-5.8441716	84.0529386	4.6696077	-26.08677774
0.49	49	-0.016	-0.978	0.094	4.9274388	16.7876694	-4.9847346	84.11596398	4.73263308	-25.9263495
0.5	50	0	-0.984	0.096	4.7555514	16.902261	-4.5263682	84.21336684	4.77274014	-25.7544621
0.51	51	0.01	-0.991	0.103	4.8128472	16.615782	-4.4117766	84.27066264	4.83003594	-25.58830428
0.52	52	0.02	-1.013	0.108	4.5263682	15.8136408	-4.4117766	84.32795844	4.88160216	-25.4393352
0.53	53	0.03	-1.034	0.103	3.4950438	14.7250206	-4.5263682	84.37379508	4.93889796	-25.2960957
0.54	54	0.032	-1.051	0.101	3.151269	12.9488508	-4.9274388	84.41390214	4.99619376	-25.17004494
0.55	55	0.021	-1.059	0.105	2.9220858	11.3445684	-5.0993262	84.49984584	5.03630082	-25.05545334
0.56	56	-0.001	-1.068	0.103	2.291832	9.740286	-4.6982556	84.53422332	5.08786704	-24.95805048
0.57	57	-0.026	-1.069	0.091	1.3178034	8.4224826	-4.0680018	84.55141206	5.13370368	-24.87783636
0.58	58	-0.056	-1.063	0.076	0.859437	7.9068204	-3.4950438	84.56287122	5.17381074	-24.80335182
0.59	59	-0.082	-1.056	0.071	0.6302538	9.0527364	-3.0366774	84.58005996	5.2139178	-24.71740812
0.6	60	-0.1	-1.05	0.071	0.5156622	11.1153852	-2.6929026	84.64308534	5.17381074	-24.5798982
0.61	61	-0.122	-1.06	0.095	2.291832	12.5477802	-1.8907614	84.67173324	5.19672906	-24.45957702
0.62	62	-0.147	-1.084	0.112	2.8074942	13.6936962	-0.859437	84.7118403	5.21964738	-24.3220671
0.63	63	-0.161	-1.114	0.122	2.8074942	15.2979786	-0.3437748	84.75194736	5.23110654	-24.16736844
0.64	64	-0.158	-1.146	0.123	3.0939732	17.4179232	-0.3437748	84.797784	5.24829528	-23.99548104
0.65	65	-0.121	-1.176	0.078	4.1825934	18.7930224	-0.4010706	84.87226854	5.23683612	-23.80067532
0.66	66	-0.049	-1.223	0.016	5.156622	18.334656	0.572958	84.9410235	5.2425657	-23.61732876
0.67	67	0.046	-1.27	-0.064	6.1879464	14.5531332	3.0939732	85.01550804	5.21964738	-23.46835968
0.68	68	0.139	-1.292	-0.13	9.3392154	8.021412	5.9587632	85.1129109	5.16808116	-23.38241598
0.69	69	0.215	-1.29	-0.119	16.3865988	-0.6302538	8.2505952	85.27906872	5.08786704	-23.38241598
0.7	70	0.259	-1.273	-0.08	20.9702628	-9.453807	9.2819196	85.49106318	5.00192334	-23.46835968
0.71	71	0.232	-1.253	-0.051	22.1734746	-16.7876694	9.740286	85.70305764	4.8987909	-23.62878792
0.72	72	0.144	-1.215	-0.04	21.0275586	-22.7464326	10.4851314	85.90359294	4.7841993	-23.84078238
0.73	73	0.038	-1.171	-0.071	20.1108258	-23.4339822	10.8289062	86.09266908	4.6696077	-24.064236
0.74	74	-0.049	-1.114	-0.16	17.3606274	-17.5325148	10.3705398	86.2588269	4.56074568	-24.23039382
0.75	75	-0.087	-1.073	-0.225	15.6417534	-8.6516658	10.4278356	86.38487766	4.42896534	-24.29914878
0.76	76	-0.106	-1.106	-0.239	16.1574156	0.2291832	11.9175264	86.55103548	4.30864416	-24.28768962
0.77	77	-0.11	-1.158	-0.237	15.0114996	8.021412	13.8082878	86.70573414	4.17686382	-24.20174592
0.78	78	-0.111	-1.133	-0.289	8.1360036	15.2406828	13.464513	86.79740742	4.05081306	-24.04131768
0.79	79	-0.054	-1.068	-0.337	2.2345362	25.1528562	11.45916	86.83751448	3.94195104	-23.78348658
0.8	80	0.06	-1.029	-0.359	-2.9793816	30.7678446	9.6829902	86.79167784	3.85600734	-23.47981884
0.81	81	0.136	-1.006	-0.388	-7.6776372	33.1742682	8.307891	86.72865246	3.7815228	-23.1475032
0.82	82	0.162	-0.98	-0.408	-9.7975818	34.7212548	8.1932994	86.64843834	3.71276784	-22.79799882
0.83	83	0.164	-0.955	-0.396	-9.2246238	32.372127	8.880849	86.56822422	3.63255372	-22.47141276
0.84	84	0.141	-0.931	-0.349	-7.3911582	28.074942	8.8235532	86.51092842	3.5523396	-22.19066334
0.85	85	0.119	-0.932	-0.296	-5.2139178	22.5172494	6.3598338	86.41925514	3.50650296	-21.96720972
0.86	86	0.102	-0.957	-0.245	-2.2345362	18.621135	2.1199446	86.40779598	3.48931422	-21.78386316
0.87	87	0.095	-0.988	-0.22	-0.9740286	16.1001198	-2.6356068	86.40779598	3.5236917	-21.62343492
0.88	88	0.079	-1.003	-0.213	0	12.605076	-7.5057498	86.41352556	3.60390582	-21.50311374
0.89	89	0.098	-1.025	-0.191	1.9480572	9.2246238	-11.8602306	86.43644388	3.724227	-21.42289962
0.9	90	0.13	-1.043	-0.161	2.3491278	6.5317212	-15.5271618	86.44217346	3.8961144	-21.3713334
0.91	91	0.152	-1.053	-0.126	2.578311	3.5523396	-18.3919518	86.46509178	4.07946096	-21.34841508
0.92	92	0.169	-1.054	-0.1	1.8334656	0.7448454	-20.626488	86.4880101	4.28572584	-21.34841508
0.93	93	0.157	-1.038	-0.089	1.0886202	-1.9480572	-21.4286292	86.49373968	4.4977203	-21.38279256
0.94	94	0.137	-1.014	-0.077	0.9740286	-4.6982556	-21.1421502	86.49946926	4.70971476	-21.44008836
0.95	95	0.112	-0.988	-0.065	0.9167328	-6.9900876	-20.1108258	86.49946926	4.91025006	-21.52603206
0.96	96	0.085	-0.961	-0.052	0.572958	-8.9954406	-19.0222056	86.49373968	5.09359662	-21.62343492
0.97	97	0.064	-0.938	-0.037	0.572958	-11.0007936	-18.1054728	86.49373968	5.2712136	-21.7437561
0.98	98	0.057	-0.925	-0.03	0.1718874	-13.6936962	-17.5898106	86.48228052	5.443101	-21.89272518
0.99	99	0.044	-0.909	-0.028	-0.286479	-16.1001198	-17.2460358	86.46509178	5.60352924	-22.058883
1	100	0.038	-0.874	-0.036	-1.145916	-17.3606274	-16.6730778	86.43644388	5.7582279	-22.24222956
1.01	101	0.057	-0.834	-0.049	-1.2032118	-17.9335854	-15.5844576	86.40779598	5.90719698	-22.4313057
1.02	102	0.074	-0.798	-0.055	-0.9167328	-17.8762896	-14.2093584	86.37914808	6.0447069	-22.61465226
1.03	103	0.1	-0.774	-0.051	-0.6302538	-18.3919518	-12.7769634	86.35622976	6.16502808	-22.80945798
1.04	104	0.116	-0.767	-0.053	-0.0572958	-19.4232762	-11.5164558	86.33331144	6.26816052	-23.0042637
1.05	105	0.116	-0.772	-0.059	0.3437748	-20.3973048	-9.7975818	86.31039312	6.36556338	-23.21625816
1.06	106	0.111	-0.776	-0.061	1.5469866	-21.199446	-7.8495246	86.31039312	6.43431834	-23.4339822
1.07	107	0.101	-0.778	-0.061	3.0366774	-21.6005166	-6.1306506	86.3161227	6.49161414	-23.65170624
1.08	108	0.107	-0.782	-0.046	5.443101	-22.2307704	-4.1252976	86.35050018	6.52026204	-23.87515986
1.09	109	0.114	-0.782	-0.054	5.8441716	-24.064236	-1.6615782	86.38487766	6.5317212	-24.11580222
1.1	110	0.117	-0.785	-0.053	8.6516658	-25.78311	0.3437748	86.44790304	6.52599162	-24.37363332
1.11	111	0.103	-0.775	-0.043	11.745639	-27.0436176	1.6615782	86.53957632	6.49734372	-24.637194
1.12	112	0.094	-0.762	-0.036	15.8136408	-26.5279554	3.0366774	86.67135666	6.46296624	-24.90075468
1.13	113	0.094	-0.76	-0.036	17.6471064	-25.496631	4.8128472	86.82605532	6.40567044	-25.14712662
1.14	114	0.116	-0.773	-0.031	19.5378678	-26.2414764	6.5317212	87.0036723	6.33691548	-25.40495772
1.15	115	0.119	-0.783	-0.019	20.8556712	-27.5592798	8.4224826	87.18701886	6.25097178	-25.67424798
1.16	116	0.106	-0.777	-0.022	24.350715	-26.5279554	9.740286	87.41047248	6.15356892	-25.93207908
1.17	117	0.085	-0.801	0.015	30.1948866	-24.1215318	9.6256944	87.69695148	6.05616606	-26.16126228
1.18	118	0.066	-0.829	0.076	32.2002396	-23.6631654	8.7089616	88.00061922	5.97022236	-26.39044548
1.19	119	0.046	-0.895	0.134	32.4867186	-23.3766864	7.161975	88.31574612	5.9014674	-26.61962868
1.2	120	0.042	-0.96	0.147	28.9916748	-22.0015872	5.2712136	88.6079547	5.8441716	-26.83162314
1.21	121	0.055	-1.024	0.145	26.642547	-18.907614	3.8961144	88.86005622	5.80979412	-27.0149697
1.22	122	0.082	-1.09	0.13	23.8350528	-16.5584862	2.4064236	89.08923942	5.7868758	-27.17539794
1.23	123	0.121	-1.139	0.124	20.1108258	-15.756345	1.2605076	89.27831556	5.78114622	-27.3300966
1.24	124	0.149	-1.176	0.135	17.6471064	-16.5011904	-0.1145916	89.44447338	5.78114622	-27.49052484
1.25	125	0.167	-1.19	0.157	16.9595568	-17.5325148	-1.7761698	89.61636078	5.80979412	-27.66241224
1.26	126	0.177	-1.175	0.189	17.8762896	-18.334656	-2.2345362	89.7825186	5.83844202	-27.8457588
1.27	127	0.189	-1.16	0.218	19.6524594	-20.4546006	-2.4064236	89.96013558	5.8728195	-28.0462941
1.28	128	0.195	-1.142	0.219	20.3973048	-21.7151082	-3.3804522	90.14921172	5.91292656	-28.25828856
1.29	129	0.183	-1.122	0.186	22.631841	-21.5432208	-4.6409598	90.36120618	5.97022236	-28.47028302
1.3	130	0.158	-1.138	0.152	26.7571386	-23.8350528	-5.9587632	90.61903728	6.03897732	-28.7051958
1.31	131	0.113	-1.182	0.109	31.226211	-27.2728008	-8.1932994	90.91124586	6.13638018	-28.96875648
1.32	132	0.047	-1.285	0.074	34.5493674	-31.6845774	-11.6883432	91.23210234	6.26816052	-29.2781538
1.33	133	0.021	-1.381	0.064	35.8671708	-28.2468294	-17.5898106	91.57014756	6.46296624	-29.55317364
1.34	134	-0.017	-1.401	0.008	33.6326346	-23.6631654	-21.772404	91.89100404	6.69214944	-29.77662726
1.35	135	-0.068	-1.353	-0.145	30.8251404	-23.491278	-24.2934192	92.17175346	6.94425096	-29.9943513
1.36	136	-0.138	-1.301	-0.34	22.7464326	-22.7464326	-26.4706596	92.37801834	7.22500038	-30.20634576
1.37	137	-0.139	-1.184	-0.448	17.18874	-15.6990492	-30.2521824	92.532717	7.5343977	-30.34385568
1.38	138	-0.154	-1.115	-0.42	20.7410796	-15.3552744	-33.3461556	92.72752272	7.8781725	-30.4813656
1.39	139	-0.095	-1.111	-0.382	24.2361234	-22.6891368	-32.1429438	92.95097634	8.21621772	-30.68763048
1.4	140	0.061	-1.074	-0.353	18.1054728	-29.6792244	-28.361421	93.06556794	8.51988546	-30.9683799
1.41	141	0.242	-1.027	-0.308	13.0634424	-37.4714532	-28.8770832	93.15151164	8.84074194	-31.32361386
1.42	142	0.373	-1.032	-0.259	9.167328	-40.7946096	-31.4553942	93.18588912	9.18451674	-31.7132253
1.43	143	0.416	-1.068	-0.225	5.6149884	-44.6334282	-29.5646328	93.18015954	9.51683238	-32.13721422
1.44	144	0.349	-1.114	-0.206	2.7501984	-46.696077	-23.5485738	93.14005248	9.78612264	-32.58985104
1.45	145	0.204	-1.186	-0.21	-0.4010706	-45.6074568	-15.2406828	93.04264962	9.97519878	-33.04248786
1.46	146	0.041	-1.203	-0.203	-0.5156622	-41.5967508	-5.9014674	92.97389466	10.06687206	-33.45501762
1.47	147	-0.099	-1.204	-0.155	0.859437	-33.7472262	2.9793816	92.92805802	10.06114248	-33.79306284
1.48	148	-0.191	-1.164	-0.123	2.0626488	-23.7204612	9.453807	92.91086928	9.98665794	-34.03943478
1.49	149	-0.23	-1.112	-0.073	4.870143	-8.021412	13.8082878	92.94524676	9.8548776	-34.12537848
1.5	150	-0.208	-1.074	-0.032	4.4690724	2.8074942	16.7876694	92.97389466	9.60850566	-34.08527142
1.51	151	-0.151	-1.051	-0.014	1.3178034	11.6883432	18.5065434	93.00254256	9.41369994	-33.9764094
1.52	152	-0.085	-1.026	-0.004	-2.1199446	18.334656	18.6784308	93.00827214	9.21316464	-33.804522
1.53	153	-0.016	-0.996	0.007	-5.3285094	23.0902074	16.902261	92.98535382	9.02981808	-33.58679796
1.54	154	0.041	-0.95	0.011	-8.6516658	26.5279554	14.7250206	92.9337876	8.85793068	-33.32896686
1.55	155	0.063	-0.904	0.015	-12.2613012	28.8770832	13.464513	92.84211432	8.69177286	-33.04821744
1.56	156	0.071	-0.876	0.011	-15.6417534	31.226211	13.2353298	92.72752272	8.5370742	-32.7445497
1.57	157	0.058	-0.853	-0.013	-20.912967	32.5440144	13.9228794	92.55563532	8.37091638	-32.4294228
1.58	158	0.034	-0.84	-0.028	-22.345362	32.085648	14.896908	92.37228876	8.19902898	-32.12002548
1.59	159	0.004	-0.835	-0.028	-23.204799	32.4867186	16.042824	92.17175346	8.01568242	-31.80489858
1.6	160	-0.008	-0.817	-0.035	-23.4339822	33.1169724	16.1001198	91.97121816	7.82660628	-31.4840421
1.61	161	-0.001	-0.801	-0.025	-23.491278	33.5753388	15.6417534	91.77068286	7.6489893	-31.15745604
1.62	162	0.005	-0.804	-0.036	-22.5745452	33.5753388	15.5844576	91.58160672	7.47137232	-30.83086998
1.63	163	0.006	-0.811	-0.035	-20.6837838	32.085648	15.183387	91.40398974	7.29948492	-30.51574308
1.64	164	0.005	-0.809	-0.013	-19.1367972	30.2521824	13.9801752	91.2435615	7.14478626	-30.21780492
1.65	165	-0.002	-0.82	0.015	-17.761698	28.7051958	12.7196676	91.09459242	6.9900876	-29.9370555
1.66	166	-0.006	-0.83	0.023	-17.2460358	27.501984	11.2299768	90.94562334	6.86403684	-29.66776524
1.67	167	0	-0.83	0.03	-16.7876694	26.2987722	9.1100322	90.80238384	6.7609044	-29.40993414
1.68	168	0.008	-0.828	0.033	-15.8709366	24.923673	6.4744254	90.66487392	6.68641986	-29.1635622
1.69	169	0.017	-0.824	0.037	-14.6677248	23.5485738	3.3804522	90.54455274	6.6463128	-28.92864942
1.7	170	0.029	-0.816	0.05	-13.9801752	22.9756158	0.2291832	90.42423156	6.62339448	-28.69946622
1.71	171	0.042	-0.818	0.059	-12.2040054	23.1475032	-2.6929026	90.3268287	6.64058322	-28.47028302
1.72	172	0.059	-0.835	0.033	-10.3705398	23.1475032	-5.6149884	90.24661458	6.69214944	-28.24109982
1.73	173	0.043	-0.834	-0.004	-4.4690724	19.480572	-7.5057498	90.21796668	6.7609044	-28.0462941
1.74	174	0.063	-0.826	0.033	1.6615782	20.2827132	-9.0527364	90.25807374	6.84111852	-27.8457588
1.75	175	0.073	-0.833	0.078	5.7868758	22.8610242	-9.5111028	90.34974702	6.92706222	-27.61084602
1.76	176	0.071	-0.876	0.113	7.448454	23.777757	-8.4797784	90.45287946	7.00154676	-27.37593324
1.77	177	0.052	-0.934	0.101	6.7036086	22.1161788	-6.9327918	90.54455274	7.06457214	-27.15247962
1.78	178	0.017	-0.988	0.057	5.0993262	18.6784308	-5.5576926	90.61903728	7.11613836	-26.96340348
1.79	179	0.001	-1.01	0.031	4.9274388	16.5011904	-5.0420304	90.68779224	7.15624542	-26.79724566
1.8	180	0.01	-1.005	0.048	6.1306506	16.4438946	-5.3858052	90.77373594	7.17916374	-26.62535826
1.81	181	0.035	-1.008	0.093	8.3651868	17.475219	-5.156622	90.87686838	7.2192708	-26.44774128
1.82	182	0.052	-1.027	0.136	10.8289062	18.6784308	-4.5263682	91.00864872	7.25937786	-26.25866514
1.83	183	0.055	-1.049	0.196	14.037471	21.5432208	-3.151269	91.17480654	7.28229618	-26.04667068
1.84	184	0.025	-1.093	0.25	16.4438946	24.7517856	0.286479	91.36961226	7.26510744	-25.79456916
1.85	185	-0.012	-1.147	0.251	16.3865988	26.6998428	5.6149884	91.58160672	7.18489332	-25.5252789
1.86	186	-0.025	-1.23	0.188	14.5531332	27.2728008	11.9175264	91.7592237	7.05311298	-25.25598864
1.87	187	0.025	-1.318	0.073	11.1153852	29.793816	18.621135	91.9024632	6.8468481	-24.96378006
1.88	188	0.08	-1.411	-0.022	11.6310474	30.3094782	25.6112226	92.05143228	6.57755784	-24.67157148
1.89	189	0.128	-1.459	-0.006	14.32395	22.4026578	31.226211	92.2175901	6.25670136	-24.45957702
1.9	190	0.213	-1.445	-0.019	11.2299768	16.1574156	32.372127	92.34364086	5.92438572	-24.31060794
1.91	191	0.285	-1.413	-0.187	7.0473834	10.7143146	30.5386614	92.42385498	5.6149884	-24.21893466
1.92	192	0.272	-1.374	-0.401	4.9847346	6.875496	28.4760126	92.48115078	5.3285094	-24.16163886
1.93	193	0.192	-1.316	-0.487	12.1467096	3.0939732	30.4240698	92.60720154	5.02484166	-24.14445012
1.94	194	0.113	-1.234	-0.357	21.9442914	2.7501984	32.4294228	92.83065516	4.70398518	-24.13299096
1.95	195	-0.029	-1.13	-0.266	18.4492476	11.745639	26.4706596	92.9910834	4.4117766	-24.02412894
1.96	196	-0.154	-1.067	-0.247	9.1100322	27.8457588	16.615782	93.09994542	4.22843004	-23.75483868
1.97	197	-0.163	-1.055	-0.283	1.7761698	48.128472	12.4331886	93.14578206	4.0680018	-23.28501312
1.98	198	-0.154	-1.026	-0.287	-2.4064236	60.3324774	12.3758928	93.15724122	3.89038482	-22.70059596
1.99	199	-0.115	-1.018	-0.294	-4.583664	64.5723666	14.4385416	93.14005248	3.6955791	-22.07034216
2	200	-0.008	-1.008	-0.287	-5.8441716	61.7648724	16.6730778	93.08275668	3.47785506	-21.46873626
2.01	201	0.13	-1.001	-0.252	-5.2712136	55.2331512	16.042824	93.05410878	3.27731976	-20.93588532
2.02	202	0.238	-1.026	-0.222	-4.3544808	45.550161	13.0634424	93.03119046	3.11116194	-20.49470766
2.03	203	0.294	-1.062	-0.197	-2.6356068	34.2628884	7.5630456	93.01400172	3.0080295	-20.15666244
2.04	204	0.326	-1.073	-0.16	0.4583664	23.6058696	0.4583664	93.03119046	2.9793816	-19.92747924
2.05	205	0.318	-1.036	-0.141	3.8388186	8.9381448	-6.3598338	93.00254256	3.13408026	-19.86445386
2.06	206	0.287	-0.978	-0.119	6.0733548	-0.286479	-10.7716104	93.06556794	3.24294228	-19.85872428
2.07	207	0.247	-0.936	-0.097	6.1306506	-7.3338624	-13.9228794	93.12286374	3.38618178	-19.92174966
2.08	208	0.223	-0.92	-0.073	4.6982556	-13.178034	-16.042824	93.16870038	3.55806918	-20.04207084
2.09	209	0.213	-0.912	-0.052	2.8074942	-18.3919518	-17.2460358	93.18588912	3.74141574	-20.21395824
2.1	210	0.207	-0.899	-0.036	0.5156622	-23.491278	-17.761698	93.1629708	3.96486936	-20.44314144
2.11	211	0.202	-0.897	-0.034	-0.7448454	-28.3041252	-17.3606274	93.14005248	4.15967508	-20.7124317
2.12	212	0.2	-0.887	-0.041	-2.1772404	-32.0283522	-15.9282324	93.09994542	4.34302164	-21.02182902
2.13	213	0.174	-0.87	-0.044	-3.8961144	-37.2995658	-14.7823164	93.03692004	4.52063862	-21.38279256
2.14	214	0.149	-0.852	-0.044	-4.9274388	-39.9924684	-14.4385416	92.95670592	4.6982556	-21.772404
2.15	215	0.118	-0.841	-0.042	-5.9587632	-41.1956802	-14.4958374	92.85930306	4.87587258	-22.1734746
2.16	216	0.102	-0.823	-0.043	-7.5057498	-41.0810886	-14.896908	92.75044104	5.05348956	-22.5745452
2.17	217	0.094	-0.811	-0.039	-9.1100322	-39.820581	-15.0114996	92.63011986	5.23110654	-22.95842706
2.18	218	0.103	-0.816	-0.04	-10.5424272	-37.9298196	-14.896908	92.49260994	5.40872352	-23.33084976
2.19	219	0.109	-0.826	-0.048	-11.3445684	-36.4401288	-14.2666542	92.34937044	5.57488134	-23.68608372
2.2	220	0.126	-0.841	-0.05	-11.8602306	-34.7785506	-13.1207382	92.18321262	5.72958	-24.02985852
2.21	221	0.127	-0.847	-0.063	-11.172681	-34.2055926	-10.9434978	92.03997312	5.86136034	-24.36790374
2.22	222	0.139	-0.848	-0.072	-10.1413566	-34.5493674	-8.9954406	91.90819278	5.97022236	-24.70594896
2.23	223	0.131	-0.858	-0.073	-8.7089616	-34.7785506	-7.448454	91.7878716	6.06762522	-25.04972376
2.24	224	0.116	-0.859	-0.064	-7.161975	-35.236917	-6.302538	91.68473916	6.14783934	-25.39922814
2.25	225	0.115	-0.843	-0.022	-4.1252976	-32.7159018	-6.1879464	91.60452504	6.23378304	-25.7258142
2.26	226	0.089	-0.822	0.03	0.6302538	-29.3927454	-6.3598338	91.58160672	6.31399716	-26.01802278
2.27	227	0.062	-0.832	0.055	2.9220858	-28.0176462	-6.1306506	91.5873363	6.3884817	-26.29304262
2.28	228	0.037	-0.833	0.067	5.2139178	-26.5852512	-5.443101	91.6159842	6.45723666	-26.5566033
2.29	229	0.031	-0.855	0.103	5.72958	-25.496631	-3.6669312	91.6446321	6.50880288	-26.80870482
2.3	230	0.027	-0.878	0.132	5.443101	-26.642547	-2.7501984	91.69619832	6.53745078	-27.06653592
2.31	231	0.045	-0.908	0.127	4.870143	-25.2674478	-1.8334656	91.71911664	6.57182826	-27.31290786
2.32	232	0.072	-0.935	0.088	3.3804522	-21.8296998	-1.432395	91.7305758	6.59474658	-27.5306319
2.33	233	0.098	-0.956	0.06	3.151269	-19.0222056	-0.9740286	91.74776454	6.6176649	-27.71970804
2.34	234	0.123	-0.969	0.027	3.437748	-17.8762896	-0.1145916	91.76495328	6.62912406	-27.89732502
2.35	235	0.133	-0.96	0.026	5.72958	-19.480572	0.9167328	91.79360118	6.64058322	-28.09213074
2.36	236	0.123	-0.947	0.04	8.3651868	-22.1161788	1.6042824	91.85662656	6.64058322	-28.30985478
2.37	237	0.115	-0.958	0.057	11.1153852	-25.3247436	1.3178034	91.94829984	6.64058322	-28.5619563
2.38	238	0.116	-0.992	0.078	13.464513	-28.9916748	0.572958	92.05143228	6.65204238	-28.8484353
2.39	239	0.117	-1.039	0.125	10.886202	-33.518043	-0.1145916	92.1316464	6.6749607	-29.18075094
2.4	240	0.12	-1.079	0.132	5.0420304	-34.8358464	-0.8021412	92.15456472	6.70933818	-29.52452574
2.41	241	0.086	-1.124	0.087	-1.145916	-36.7266078	-1.2032118	92.1029985	6.74371566	-29.89121886
2.42	242	0.029	-1.186	0.007	-5.156622	-36.8984952	-1.2032118	92.0170548	6.77809314	-30.25791198
2.43	243	-0.027	-1.282	-0.111	-5.443101	-34.4920716	-1.2605076	91.92538152	6.81247062	-30.60168678
2.44	244	-0.041	-1.395	-0.126	-8.2505952	-27.1009134	-5.5576926	91.81078992	6.88122558	-30.87097704
2.45	245	-0.049	-1.52	-0.259	-14.8396122	-10.026765	-17.7044022	91.63890252	7.05884256	-30.96265032
2.46	246	-0.076	-1.646	-0.382	-12.9488508	-3.151269	-28.074942	91.50712218	7.33959198	-30.99129822
2.47	247	-0.044	-1.699	-0.281	-5.9587632	-0.9167328	-31.9137606	91.4440968	7.65471888	-30.99129822
2.48	248	0.062	-1.592	-0.221	-8.9954406	-1.5469866	-29.0489706	91.35242352	7.94119788	-30.9970278
2.49	249	0.218	-1.35	-0.254	-15.183387	-10.886202	-24.637194	91.1862657	8.1932994	-31.10588982
2.5	250	0.337	-1.102	-0.33	-23.7204612	-25.3247436	-22.7464326	90.88259796	8.44540092	-31.36372092
2.51	251	0.44	-0.92	-0.353	-26.9863218	-39.7059894	-25.210152	90.55028232	8.7089616	-31.75906194
2.52	252	0.506	-0.81	-0.317	-28.1322378	-46.982556	-29.220858	90.20077794	9.01262934	-32.2288875
2.53	253	0.458	-0.841	-0.299	-29.9084076	-52.0818822	-32.658606	89.81689608	9.35067456	-32.75600886
2.54	254	0.358	-0.917	-0.314	-33.6899304	-51.1651494	-32.6013102	89.39863674	9.6829902	-33.27167106
2.55	255	0.226	-1.004	-0.321	-36.4974246	-46.6387812	-28.5906042	88.92881118	9.9694692	-33.75295578
2.56	256	0.068	-1.061	-0.293	-36.8411994	-37.9871154	-23.0329116	88.4933631	10.1986524	-34.14256722
2.57	257	-0.078	-1.124	-0.273	-34.8358464	-25.8404058	-16.3865988	88.0922925	10.35908064	-34.41185748
2.58	258	-0.195	-1.185	-0.229	-31.9137606	-14.896908	-10.4851314	87.74278812	10.4564835	-34.56655614
2.59	259	-0.244	-1.173	-0.217	-31.9137606	-5.9587632	-6.016059	87.41047248	10.5137793	-34.6353111
2.6	260	-0.215	-1.118	-0.196	-32.1429438	1.4896908	-2.3491278	87.0609681	10.47367224	-34.61239278
2.61	261	-0.114	-1.087	-0.175	-31.8564648	8.6516658	0.1718874	86.75157078	10.46794266	-34.52644908
2.62	262	-0.011	-1.051	-0.172	-32.7159018	10.4278356	-0.1718874	86.43644388	10.47367224	-34.42904622
2.63	263	0.082	-1.001	-0.17	-32.658606	9.740286	-0.4010706	86.12131698	10.47367224	-34.33164336
2.64	264	0.145	-0.931	-0.142	-32.6013102	8.8235532	-1.3750992	85.80619008	10.49086098	-34.25142924
2.65	265	0.183	-0.864	-0.13	-31.9710564	8.021412	-2.86479	85.47960402	10.52523846	-34.1769447
2.66	266	0.209	-0.811	-0.118	-31.3408026	7.3911582	-4.583664	85.1702067	10.57680468	-34.11391932
2.67	267	0.192	-0.779	-0.122	-30.653253	6.0733548	-5.8441716	84.86653896	10.63410048	-34.05662352
2.68	268	0.146	-0.777	-0.115	-30.8251404	5.0420304	-7.161975	84.56287122	10.70858502	-34.01651646
2.69	269	0.076	-0.784	-0.081	-32.0283522	7.6203414	-7.7922288	84.24774432	10.78306956	-33.95349108
2.7	270	0.024	-0.778	-0.073	-33.5753388	11.4018642	-7.9641162	83.92115826	10.85182452	-33.84462906
2.71	271	-0.017	-0.777	-0.084	-33.231564	14.610429	-8.1360036	83.60603136	10.9434978	-33.71284872
2.72	272	-0.047	-0.795	-0.094	-32.1429438	16.7876694	-8.7089616	83.3080932	11.04090066	-33.55815006
2.73	273	-0.054	-0.822	-0.103	-30.939732	17.3606274	-10.313244	83.0216142	11.15549226	-33.39772182
2.74	274	-0.023	-0.834	-0.104	-30.4240698	18.1054728	-12.2040054	82.74086478	11.2872726	-33.231564
2.75	275	0.024	-0.846	-0.116	-29.6219286	18.907614	-13.8082878	82.47157452	11.42478252	-33.0596766
2.76	276	0.074	-0.837	-0.101	-28.1895336	18.2200644	-15.4125702	82.21374342	11.59094034	-32.89924836
2.77	277	0.104	-0.82	-0.107	-25.6685184	15.6990492	-17.5325148	81.97883064	11.78001648	-32.76746802
2.78	278	0.118	-0.809	-0.109	-23.0329116	13.3499214	-19.6524594	81.7611066	11.98628136	-32.66433558
2.79	279	0.129	-0.818	-0.095	-20.5118964	11.8602306	-22.2307704	81.56630088	12.21546456	-32.57839188
2.8	280	0.126	-0.828	-0.087	-17.4179232	13.0634424	-24.8090814	81.41160222	12.46756608	-32.4867186
2.81	281	0.135	-0.851	-0.087	-14.037471	15.183387	-26.8144344	81.29128104	12.7483155	-32.372127
2.82	282	0.138	-0.877	-0.097	-10.313244	17.3033316	-28.0176462	81.21106692	13.04625366	-32.24607624
2.83	283	0.149	-0.903	-0.129	-7.1046792	21.0275586	-29.3354496	81.17668944	13.35565098	-32.07991842
2.84	284	0.175	-0.94	-0.08	-4.583664	23.7204612	-30.4240698	81.17095986	13.68796662	-31.8851127
2.85	285	0.175	-0.937	-0.003	-2.291832	25.6112226	-31.6272816	81.21106692	14.02028226	-31.66738866
2.86	286	0.139	-0.922	-0.018	-0.2291832	26.9863218	-32.945085	81.25690356	14.37551622	-31.44393504
2.87	287	0.112	-0.908	-0.034	-0.5156622	24.923673	-33.9191136	81.29701062	14.74220934	-31.24339974
2.88	288	0.108	-0.906	-0.019	-0.2291832	22.631841	-34.8358464	81.33711768	15.10890246	-31.06578276
2.89	289	0.13	-0.936	-0.003	0.286479	19.0795014	-36.3255372	81.37149516	15.49278432	-30.92827284
2.9	290	0.154	-0.951	-0.051	-1.8907614	19.480572	-37.9871154	81.39441348	15.8709366	-30.77930376
2.91	291	0.201	-0.972	-0.083	-4.297185	20.626488	-38.5600734	81.3886839	16.27773678	-30.63033468
2.92	292	0.244	-0.988	-0.119	-7.2765666	21.772404	-38.7319608	81.360036	16.68453696	-30.46990644
2.93	293	0.254	-0.992	-0.167	-12.032118	28.5333084	-37.7579322	81.3027402	17.08560756	-30.23499366
2.94	294	0.291	-1.048	-0.385	-18.5638392	42.1697088	-31.9710564	81.2167965	17.45230068	-29.8511118
2.95	295	0.511	-1.223	-0.634	-29.6219286	50.7640788	-18.9649098	81.05063868	17.7044022	-29.3640975
2.96	296	0.861	-1.482	-0.658	-46.9252602	29.793816	-4.010706	80.66102724	17.77888674	-29.07188892
2.97	297	1.035	-1.682	-0.691	-57.8114622	-13.464513	4.5263682	80.03077344	17.7044022	-29.20939884
2.98	298	0.982	-1.695	-0.654	-53.9153478	-58.9573782	3.437748	79.30884636	17.57835144	-29.81100474
2.99	299	0.697	-1.426	-0.452	-45.0344988	-92.0743506	-4.1252976	78.5811897	17.46375984	-30.7678446
3	300	0.31	-0.963	-0.304	-33.8618178	-110.0652318	-11.6883432	77.89936968	17.37781614	-31.91949018
3.01	301	0.133	-0.82	-0.267	-23.0902074	-119.5190388	-20.912967	77.30349336	17.3606274	-33.17999778
3.02	302	0.053	-0.766	-0.251	-17.5898106	-114.4770084	-29.3927454	76.77064242	17.4179232	-34.41185748
3.03	303	0.081	-0.781	-0.385	-14.9542038	-107.3723292	-36.0390582	76.27789854	17.54397396	-35.59215096
3.04	304	0.107	-0.796	-0.466	-14.9542038	-102.845961	-37.7579322	75.79661382	17.69294304	-36.7266078
3.05	305	0.105	-0.81	-0.527	-15.8136408	-93.2202666	-35.0650296	75.30959952	17.81326422	-37.76939136
3.06	306	0.163	-0.838	-0.602	-18.4492476	-82.2767688	-29.8511118	74.85123312	17.91066708	-38.68039458
3.07	307	0.293	-0.893	-0.643	-19.9389384	-72.192708	-25.7258142	74.41005546	17.98515162	-39.48253578
3.08	308	0.433	-0.913	-0.644	-18.5065434	-64.8015498	-24.5798982	74.00898486	18.05963616	-40.20446286
3.09	309	0.46	-0.885	-0.601	-13.1207382	-57.0666168	-25.0382646	73.67666922	18.15703902	-40.85763498
3.1	310	0.398	-0.882	-0.53	-6.589017	-54.6601932	-26.5279554	73.40164938	18.27163062	-41.49361836
3.11	311	0.302	-0.918	-0.462	-2.4064236	-52.998615	-31.0543236	73.18392534	18.43205886	-42.11814258
3.12	312	0.207	-0.97	-0.418	0.1145916	-47.7274014	-36.1536498	73.00630836	18.6497829	-42.70828932
3.13	313	0.084	-1.009	-0.404	-0.6302538	-40.4508348	-39.4195104	72.83442096	18.91907316	-43.23541068
3.14	314	0.002	-0.985	-0.412	-2.9793816	-32.3148312	-39.820581	72.65680398	19.21128174	-43.6880475
3.15	315	0.015	-0.907	-0.413	-5.6149884	-25.4393352	-37.528749	72.46199826	19.45765368	-44.0604702
3.16	316	0.069	-0.797	-0.422	-6.4744254	-21.5432208	-33.1169724	72.29011086	19.71548478	-44.38132668
3.17	317	0.141	-0.678	-0.426	-7.6776372	-19.480572	-27.7311672	72.11249388	19.92174966	-44.66780568
3.18	318	0.233	-0.568	-0.438	-6.0733548	-20.626488	-24.2361234	71.95779522	20.09363706	-44.95428468
3.19	319	0.323	-0.513	-0.461	-3.5523396	-23.8350528	-22.2307704	71.81455572	20.23687656	-45.26941158
3.2	320	0.408	-0.51	-0.483	-0.6875496	-28.7624916	-20.9702628	71.63693874	20.38011606	-45.65902302
3.21	321	0.465	-0.546	-0.483	1.3750992	-35.8671708	-20.4546006	71.5051584	20.47178934	-46.08874152
3.22	322	0.482	-0.604	-0.462	2.8074942	-44.9199072	-20.05353	71.35618932	20.53481472	-46.6101333
3.23	323	0.473	-0.652	-0.443	4.2398892	-55.6915176	-18.8503182	71.18430192	20.54627388	-47.23465752
3.24	324	0.429	-0.679	-0.441	5.3285094	-64.8588456	-17.5898106	71.00095536	20.52335556	-47.94512544
3.25	325	0.376	-0.691	-0.448	6.9900876	-73.7396946	-16.3865988	70.78323132	20.46605976	-48.7587258
3.26	326	0.332	-0.688	-0.437	9.6829902	-80.2714158	-15.9282324	70.5884256	20.37438648	-49.6181628
3.27	327	0.313	-0.705	-0.436	12.2613012	-83.4226848	-15.8136408	70.4165382	20.27125404	-50.5062477
3.28	328	0.318	-0.731	-0.447	13.0634424	-85.7145168	-15.2406828	70.2446508	20.15093286	-51.4229805
3.29	329	0.342	-0.756	-0.436	13.750992	-89.7252228	-14.32395	70.0727634	20.00769336	-52.3683612
3.3	330	0.364	-0.778	-0.429	14.037471	-94.1369994	-13.6364004	69.87795768	19.84726512	-53.35957854
3.31	331	0.384	-0.781	-0.437	13.6364004	-97.7466348	-12.7769634	69.68315196	19.66391856	-54.37944378
3.32	332	0.406	-0.773	-0.442	14.7250206	-101.700045	-11.9748222	69.49407582	19.4519241	-55.4336865
3.33	333	0.415	-0.769	-0.44	16.7303736	-108.289062	-10.4278356	69.31072926	19.19982258	-56.53949544
3.34	334	0.411	-0.765	-0.424	19.0222056	-115.5656286	-8.307891	69.13884186	18.907614	-57.71405934
3.35	335	0.412	-0.762	-0.377	20.340009	-123.8735196	-7.0473834	68.9554953	18.57529836	-58.96310778
3.36	336	0.401	-0.764	-0.344	21.0275586	-132.4105938	-6.589017	68.77214874	18.20287566	-60.28664076
3.37	337	0.39	-0.759	-0.354	21.2567418	-138.0255822	-7.161975	68.57734302	17.80753464	-61.66173996
3.38	338	0.374	-0.762	-0.354	23.8923486	-140.661189	-7.448454	68.41691478	17.40646404	-63.05975748
3.39	339	0.357	-0.76	-0.356	25.8977016	-141.9789924	-6.5317212	68.28513444	16.9882047	-64.46350458
3.4	340	0.335	-0.771	-0.361	25.5539268	-142.2081756	-4.010706	68.15908368	16.54702704	-65.85579252
3.41	341	0.329	-0.791	-0.353	23.8350528	-141.8644008	-0.6875496	68.03303292	16.0714719	-67.22516214
3.42	342	0.344	-0.834	-0.377	22.1734746	-141.0049638	0.4583664	67.90698216	15.5844576	-68.5830726
3.43	343	0.346	-0.867	-0.431	21.0275586	-142.953021	-0.3437748	67.77520182	15.09171372	-69.95244222
3.44	344	0.347	-0.898	-0.385	21.772404	-144.671895	-2.291832	67.66061022	14.610429	-71.34473016
3.45	345	0.325	-0.928	-0.354	22.058883	-149.1409674	-3.8961144	67.5517482	14.12914428	-72.78285474
3.46	346	0.267	-0.954	-0.333	19.7097552	-152.3495322	-5.9014674	67.41423828	13.64785956	-74.24962722
3.47	347	0.197	-0.974	-0.423	16.8449652	-154.985139	-8.1932994	67.25953962	13.17230442	-75.75077718
3.48	348	0.114	-1.061	-0.508	13.0061466	-152.4641238	-10.0840608	67.08192264	12.7196676	-77.2347384
3.49	349	-0.027	-1.15	-0.606	8.4797784	-147.9377556	-11.745639	66.87565776	12.29567868	-78.67286298
3.5	350	-0.18	-1.267	-0.602	0.2291832	-131.8949316	-14.7250206	66.62355624	11.93471514	-79.96774806
3.51	351	-0.258	-1.304	-0.54	-9.2246238	-102.9032568	-18.334656	66.33134766	11.72272068	-81.01053162
3.52	352	-0.3	-1.212	-0.492	-15.9282324	-79.641162	-20.6837838	66.01049118	11.61385866	-81.83559114
3.53	353	-0.283	-1.017	-0.483	-18.2773602	-65.9474658	-20.912967	65.6896347	11.55083328	-82.54032948
3.54	354	-0.225	-0.849	-0.499	-16.615782	-57.0666168	-19.3086846	65.40888528	11.50499664	-83.15339454
3.55	355	-0.14	-0.777	-0.487	-13.0634424	-49.3889796	-17.9335854	65.15678376	11.43624168	-83.68624548
3.56	356	-0.064	-0.779	-0.466	-8.6516658	-45.3209778	-17.2460358	64.97916678	11.41332336	-84.18471894
3.57	357	-0.01	-0.765	-0.447	-6.4744254	-45.2063862	-16.042824	64.82446812	11.37894588	-84.67173324
3.58	358	0.037	-0.749	-0.446	-6.2452422	-43.9458786	-15.469866	64.66976946	11.3445684	-85.1415588
3.59	359	0.069	-0.734	-0.459	-6.1306506	-42.5134836	-16.1574156	64.52080038	11.32165008	-85.60565478
3.6	360	0.106	-0.732	-0.46	-4.9274388	-43.544808	-17.18874	64.36610172	11.29300218	-86.0869395
3.61	361	0.136	-0.751	-0.469	-3.8388186	-46.2950064	-18.2773602	64.23432138	11.27008386	-86.59687212
3.62	362	0.144	-0.776	-0.494	-3.437748	-49.6181628	-19.0795014	64.10254104	11.23570638	-87.13545264
3.63	363	0.143	-0.801	-0.534	-4.3544808	-51.7381074	-19.3086846	63.95357196	11.2013289	-87.69695148
3.64	364	0.142	-0.819	-0.558	-5.5576926	-53.285094	-19.2513888	63.79314372	11.14976268	-88.26990948
3.65	365	0.126	-0.834	-0.561	-6.5317212	-54.8320806	-19.194093	63.598338	11.0867373	-88.8657858
3.66	366	0.114	-0.829	-0.531	-5.6149884	-56.5509546	-19.5378678	63.43218018	11.02371192	-89.4673917
3.67	367	0.094	-0.804	-0.523	-3.5523396	-55.290447	-20.5118964	63.28894068	10.97787528	-90.06326802
3.68	368	0.049	-0.8	-0.523	-0.9740286	-54.717489	-20.340009	63.17434908	10.92630906	-90.65914434
3.69	369	0.023	-0.794	-0.491	0.4583664	-55.6342218	-18.3919518	63.07694622	10.8575541	-91.24929108
3.7	370	0.002	-0.772	-0.488	2.1772404	-54.6601932	-16.2147114	62.97954336	10.74869208	-91.82224908
3.71	371	-0.012	-0.749	-0.499	4.6409598	-53.1132066	-13.4072172	62.93370672	10.63983006	-92.36655918
3.72	372	-0.046	-0.742	-0.493	8.59437	-51.7381074	-9.740286	62.93370672	10.50804972	-92.88222138
3.73	373	-0.088	-0.761	-0.482	13.8082878	-49.1025006	-6.9327918	62.9967321	10.36481022	-93.35777652
3.74	374	-0.123	-0.783	-0.482	15.2979786	-42.7999626	-5.3858052	63.0826758	10.23302988	-93.77030628
3.75	375	-0.138	-0.81	-0.473	16.2720072	-36.6120162	-3.8961144	63.18007866	10.06114248	-94.11981066
3.76	376	-0.128	-0.825	-0.479	16.7303736	-31.9710564	-2.5210152	63.30039984	9.95228046	-94.41774882
3.77	377	-0.102	-0.84	-0.478	18.048177	-28.2468294	-1.2032118	63.44363934	9.84914802	-94.6813095
3.78	378	-0.063	-0.836	-0.463	19.0795014	-24.064236	-0.2291832	63.60406758	9.75174516	-94.89903354
3.79	379	-0.036	-0.827	-0.452	20.1681216	-18.6784308	0.4583664	63.78168456	9.67153104	-95.06519136
3.8	380	-0.023	-0.801	-0.43	20.3973048	-16.5011904	1.4896908	63.95357196	9.55693944	-95.20843086
3.81	381	-0.027	-0.773	-0.407	21.0275586	-15.6990492	2.4064236	64.14837768	9.47672532	-95.3402112
3.82	382	-0.025	-0.756	-0.388	21.8869956	-11.172681	2.1199446	64.36037214	9.41369994	-95.43188448
3.83	383	-0.028	-0.753	-0.386	22.2307704	-4.870143	1.2032118	64.57809618	9.38505204	-95.47199154
3.84	384	-0.031	-0.751	-0.395	23.5485738	0.2291832	0	64.81873854	9.39078162	-95.46626196
3.85	385	-0.034	-0.748	-0.379	26.2987722	5.2139178	-0.9167328	65.08229922	9.38505204	-95.42042532
3.86	386	-0.044	-0.745	-0.365	28.7624916	9.3965112	-1.3750992	65.38596696	9.43661826	-95.3402112
3.87	387	-0.039	-0.743	-0.36	30.1948866	12.891555	-1.0886202	65.71255302	9.49964364	-95.21989002
3.88	388	-0.02	-0.743	-0.366	31.51269	16.042824	-0.286479	66.05632782	9.5683986	-95.07092094
3.89	389	0.01	-0.773	-0.375	33.5753388	20.5118964	0.4583664	66.42302094	9.64288314	-94.87611522
3.9	390	0.07	-0.814	-0.412	34.37748	22.631841	1.5469866	66.79544364	9.70590852	-94.66412076
3.91	391	0.151	-0.885	-0.443	35.0077338	19.5378678	4.5263682	67.1793255	9.740286	-94.45785588
3.92	392	0.247	-0.939	-0.456	34.7212548	11.6310474	8.8235532	67.55747778	9.70590852	-94.31461638
3.93	393	0.308	-0.969	-0.447	34.7785506	-0.0572958	12.7769634	67.91844132	9.59131692	-94.26305016
3.94	394	0.345	-0.97	-0.422	33.9764094	-9.0527364	15.2979786	68.26221612	9.4251591	-94.28596848
3.95	395	0.353	-0.94	-0.406	33.8618178	-16.5011904	16.7876694	68.5830726	9.23608296	-94.38337134
3.96	396	0.302	-0.887	-0.389	34.4920716	-24.4653066	18.8503182	68.90965866	8.98398144	-94.54379958
3.97	397	0.243	-0.843	-0.352	36.2109456	-29.6219286	20.626488	69.25343346	8.70323202	-94.74433488
3.98	398	0.173	-0.808	-0.328	37.6433406	-30.8824362	21.6005166	69.60866742	8.40529386	-94.96205892
3.99	399	0.125	-0.796	-0.323	39.1330314	-29.4500412	22.0015872	69.98109012	8.11308528	-95.16259422
4	400	0.089	-0.797	-0.32	40.5654264	-28.1322378	22.1734746	70.36497198	7.81514712	-95.35167036
4.01	401	0.062	-0.804	-0.311	41.3102718	-27.6165756	22.6891368	70.76604258	7.52293854	-95.53501692
4.02	402	0.062	-0.803	-0.304	42.685371	-27.7311672	23.3766864	71.17857234	7.22500038	-95.71836348
4.03	403	0.082	-0.812	-0.303	44.117766	-28.9916748	23.8350528	71.60829084	6.92133264	-95.91889878
4.04	404	0.116	-0.834	-0.3	45.0344988	-29.8511118	23.8923486	72.04373892	6.6176649	-96.12516366
4.05	405	0.141	-0.851	-0.312	44.977203	-31.2835068	24.5798982	72.47345742	6.30826758	-96.34861728
4.06	406	0.145	-0.853	-0.314	44.6334282	-32.8877892	26.0122932	72.90317592	5.98168152	-96.58353006
4.07	407	0.138	-0.847	-0.322	44.0031744	-34.663959	27.6165756	73.33289442	5.63217714	-96.829902
4.08	408	0.122	-0.834	-0.319	43.9458786	-36.382833	29.0489706	73.75688334	5.26548402	-97.09919226
4.09	409	0.113	-0.825	-0.313	44.5761324	-38.1590028	30.366774	74.19233142	4.88733174	-97.37994168
4.1	410	0.103	-0.814	-0.313	44.977203	-39.534102	31.226211	74.62204992	4.50344988	-97.67215026
4.11	411	0.094	-0.8	-0.306	45.7220484	-40.680018	31.9710564	75.06895716	4.10810886	-97.98154758
4.12	412	0.071	-0.783	-0.292	46.696077	-41.5967508	33.2888598	75.52732356	3.6955791	-98.29667448
4.13	413	0.063	-0.759	-0.291	48.1857678	-42.1697088	34.5493674	76.0028787	3.27731976	-98.61180138
4.14	414	0.049	-0.739	-0.28	50.2484166	-42.97185	35.4661002	76.50135216	2.85333084	-98.94411702
4.15	415	0.035	-0.734	-0.279	52.2537696	-43.3729206	36.096354	77.01128478	2.42361234	-99.28216224
4.16	416	0.019	-0.729	-0.283	53.6861646	-42.97185	36.4401288	77.5498653	1.99389384	-99.61447788
4.17	417	-0.001	-0.73	-0.27	54.6028974	-40.966497	36.3255372	78.09990498	1.56990492	-99.92960478
4.18	418	-0.026	-0.723	-0.271	54.7747848	-37.0703826	35.9817624	78.65567424	1.16310474	-100.2160838
4.19	419	-0.049	-0.707	-0.271	54.8893764	-33.231564	35.7525792	79.2114435	0.76203414	-100.4681853
4.2	420	-0.062	-0.689	-0.263	55.0612638	-29.4500412	36.096354	79.76148318	0.36669312	-100.6859093
4.21	421	-0.076	-0.67	-0.26	55.8061092	-26.0122932	37.528749	80.33444118	-0.0286479	-100.8749855
4.22	422	-0.084	-0.65	-0.248	56.6655462	-22.9756158	38.9038482	80.91312876	-0.43544808	-101.0296841
4.23	423	-0.081	-0.637	-0.254	57.2385042	-20.1108258	39.9351726	81.49754592	-0.84797784	-101.1614645
4.24	424	-0.079	-0.63	-0.259	57.8114622	-17.3606274	40.3362432	82.08769266	-1.25477802	-101.2703265
4.25	425	-0.067	-0.637	-0.25	58.2125328	-14.2093584	40.10706	82.66638024	-1.6615782	-101.3562702
4.26	426	-0.045	-0.642	-0.252	58.0979412	-11.8029348	39.7059894	83.26225656	-2.0626488	-101.4192956
4.27	427	-0.044	-0.648	-0.252	57.582279	-10.026765	39.7059894	83.8524033	-2.45798982	-101.4708618
4.28	428	-0.053	-0.63	-0.257	56.722842	-7.9068204	40.1643558	84.43109088	-2.85333084	-101.5052393
4.29	429	-0.058	-0.597	-0.247	57.4676874	-5.6722842	41.1383844	85.01550804	-3.26013102	-101.5166984
4.3	430	-0.061	-0.577	-0.221	59.1292656	-3.6096354	42.4561878	85.5999252	-3.67839036	-101.5166984
4.31	431	-0.058	-0.551	-0.206	60.5043648	-0.859437	43.6593996	86.21299026	-4.10810886	-101.4880505
4.32	432	-0.062	-0.514	-0.183	62.3951262	1.718874	44.5761324	86.84324406	-4.54355694	-101.4364843
4.33	433	-0.054	-0.475	-0.163	63.9994086	4.870143	45.7793442	87.4906866	-4.99046418	-101.3619998
4.34	434	-0.055	-0.429	-0.127	65.2026204	6.0733548	46.982556	88.14385872	-5.44883058	-101.2760561
4.35	435	-0.078	-0.389	-0.109	68.6976642	4.9274388	48.5868384	88.82567874	-5.9301153	-101.2073011
4.36	436	-0.09	-0.352	-0.081	71.2759752	6.2452422	50.8786704	89.54187624	-6.42858876	-101.1328166
4.37	437	-0.072	-0.325	-0.037	75.057498	10.599723	52.3683612	90.28672164	-6.94998054	-101.018225
4.38	438	-0.052	-0.294	-0.005	77.1774426	13.5791046	52.9413192	91.05448536	-7.47137232	-100.8807151
4.39	439	-0.026	-0.258	0.015	79.4119788	15.183387	53.6861646	91.83943782	-8.00422326	-100.7374756
4.4	440	0.005	-0.221	0.021	81.646515	15.8136408	55.1185596	92.6473086	-8.55426294	-100.5885065
4.41	441	0.029	-0.191	0.042	85.084263	15.9855282	57.2958	93.48955686	-9.12722094	-100.4509966
4.42	442	0.05	-0.174	0.075	88.4647152	16.1001198	59.9887026	94.3661826	-9.73455642	-100.3249458
4.43	443	0.062	-0.165	0.102	91.1576178	16.9595568	63.311859	95.26572666	-10.3705398	-100.198895
4.44	444	0.087	-0.16	0.118	92.0743506	17.761698	67.7236356	96.17672988	-11.0580894	-100.0785739
4.45	445	0.129	-0.148	0.123	92.1316464	17.18874	72.479187	97.09919226	-11.7742869	-99.98690058
4.46	446	0.09	-0.152	0.098	93.3348582	10.4278356	77.4066258	98.04457296	-12.5477802	-99.97544142
4.47	447	0.059	-0.168	0.088	93.9078162	5.5003968	83.4226848	99.01287198	-13.37283972	-100.0384668
4.48	448	0.05	-0.175	0.133	96.1423524	1.145916	90.0689976	100.0212781	-14.24946546	-100.1645176
4.49	449	0.016	-0.151	0.136	96.1996482	-4.1825934	95.1683238	101.058332	-15.16046868	-100.376512
4.5	450	0.02	-0.098	0.13	96.3715356	-5.5003968	98.3768886	102.1183043	-16.09439022	-100.6286135
4.51	451	0.036	-0.049	0.142	97.8039306	-5.7868758	102.1584114	103.1897358	-17.06841882	-100.909363
4.52	452	0.01	0.014	0.123	98.1477054	-8.021412	107.7733998	104.2898152	-18.0768249	-101.2474082
4.53	453	-0.076	0.022	0.077	97.3455642	-11.6883432	114.1905294	105.4185424	-19.1367972	-101.6599379
4.54	454	-0.129	0	0.032	96.4288314	-12.4904844	120.7222506	106.5587288	-20.24833572	-102.1240339
4.55	455	-0.175	-0.015	0.024	93.965112	-9.0527364	127.769634	107.6817265	-21.44008836	-102.6053186
4.56	456	-0.243	0	-0.053	90.813843	-11.172681	136.5358914	108.8219129	-22.68340722	-103.1668175
4.57	457	-0.346	0.075	-0.271	93.965112	-37.2995658	142.4373588	110.1282572	-23.88088944	-104.0434432
4.58	458	-0.625	0.107	-0.271	115.1072622	-98.3195928	150.2868834	111.9559932	-24.8950251	-105.601889
4.59	459	-0.819	0.084	0.589	156.3029424	-156.2456466	165.4702704	114.5343042	-25.74873252	-107.8536139
4.6	460	-0.742	0.162	1.304	192.1128174	-197.384031	176.8721346	117.7371394	-26.4133638	-110.6152715
4.61	461	-0.731	-0.042	2.184	247.8616308	-247.6324476	172.6322454	121.7421158	-26.62535826	-113.8639433
4.62	462	-1.148	-0.777	2.983	289.2864942	-254.4506478	143.2967958	126.1137854	-26.34460884	-116.9980236
4.63	463	-3.62	-3.33	2.922	402.9613614	-207.2962044	-27.9030546	130.8750664	-24.82627014	-118.4705257
4.64	464	-3.999	-3.91	2.705	407.7742086	-115.5083328	-15.756345	135.3154909	-23.89807818	-119.1867232
4.65	465	-2.729	-0.55	3.514	621.4875426	-349.0460136	296.9068356	143.5603565	-23.1475032	-123.9308154
4.66	466	-2.373	-0.464	3.999	336.1544586	-17.1314442	146.5053606	147.5194963	-23.84651196	-125.3059146
4.67	467	-1.947	-1.299	3.236	191.0241972	79.2973872	96.4288314	149.6337113	-25.03253502	-125.7470923
4.68	468	-1.117	-1.019	2.034	155.3289138	61.2492102	98.9498466	151.4671769	-26.05812984	-126.3601573
4.69	469	-0.89	-0.416	2.193	132.9835518	107.4869208	108.7474284	153.0428114	-27.51917274	-126.8930083
4.7	470	-0.907	-0.479	1.483	134.1867636	105.424272	121.8108708	154.7387671	-29.00886354	-127.6149353
4.71	471	-0.78	-0.649	1.01	133.0981434	68.6976642	121.9254624	156.5493143	-30.14332038	-128.5660456
4.72	472	-0.847	-0.422	1.085	149.4847422	12.605076	115.3364454	158.6577998	-30.70481922	-129.7176912
4.73	473	-1.135	-0.061	1.303	157.7926332	-24.7517856	103.3616232	160.8694177	-30.83659956	-130.9094438
4.74	474	-0.921	0.017	1.383	155.5008012	-40.966497	89.6106312	163.0180102	-30.73346712	-132.0095232
4.75	475	-0.87	0.274	1.381	146.2188816	-61.1346186	74.6564274	165.0233632	-30.366774	-132.995011
4.76	476	-0.782	0.123	1.43	117.8001648	-72.6510744	59.9314068	166.6448343	-29.81673432	-133.8315296
4.77	477	-0.629	-0.122	1.347	99.6373962	-72.0208206	47.2117392	167.9970152	-29.23231716	-134.5018905
4.78	478	-0.548	-0.369	1.094	98.835255	-77.4639216	49.9619376	169.3491961	-28.57914504	-135.1951697
4.79	479	-0.134	-0.897	0.974	100.9551996	-98.9498466	106.3983006	171.0165038	-27.79992216	-136.5244322
4.8	480	-0.242	-0.694	0.88	103.5335106	-111.5549226	235.772217	173.3484429	-27.03215844	-139.2631715
4.81	481	-0.139	-0.959	0.957	75.0002022	-101.700045	282.0672234	175.5600608	-26.29304262	-142.448818
4.82	482	-0.222	-0.462	0.768	15.8136408	-97.8039306	287.2811412	177.1356953	-25.496631	-145.6516532
4.83	483	-0.367	0.299	0.642	-6.1306506	-94.1369994	221.5055628	178.1269126	-24.64865316	-148.0924543
4.84	484	-0.327	0.311	0.371	-9.453807	-109.9506402	109.6068654	178.5394424	-23.58868086	-149.2842069
4.85	485	-0.553	0.606	0.436	-14.5531332	-110.9819646	29.1062664	178.5910086	-22.5172494	-149.6165225
4.86	486	-0.437	0.447	0.484	-15.9282324	-114.5916	-18.7357266	178.367555	-21.37706298	-149.4159872
4.87	487	-0.716	1.667	0.424	10.886202	-97.5747474	-18.7357266	178.4191212	-20.40876396	-149.2154519
4.88	488	-0.461	0.347	0.484	16.329303	-86.6885454	-14.2093584	178.545172	-19.55505654	-149.0664829
4.89	489	-0.411	0.038	0.619	8.0787078	-87.662574	-2.86479	178.6311157	-18.68416038	-149.0321054
4.9	490	-0.416	0.004	0.683	2.5210152	-85.8864042	-0.1145916	178.6769523	-17.85910086	-149.0263758
4.91	491	-0.33	0.031	0.735	-1.2032118	-85.084263	2.1772404	178.6826819	-17.0168526	-149.0492941
4.92	492	-0.357	0.091	0.846	-5.0420304	-77.9795838	-1.0313244	178.6368452	-16.24908888	-149.0321054
4.93	493	-0.367	0.185	0.95	-4.8128472	-71.61975	-2.291832	178.5910086	-15.53862096	-149.0091871
4.94	494	-0.367	0.207	1.054	-6.016059	-67.2652692	-3.2085648	178.5279832	-14.87398968	-148.9748096
4.95	495	-0.335	0.279	1.14	-7.5057498	-62.3951262	-3.2658606	178.476417	-14.25519504	-148.9404321
4.96	496	-0.343	0.29	1.199	-8.4797784	-56.0925882	-2.578311	178.3962029	-13.69942578	-148.9175138
4.97	497	-0.312	0.314	1.243	-10.5424272	-48.414951	-1.7761698	178.2873409	-13.21814106	-148.900325
4.98	498	-0.33	0.25	1.261	-12.4331886	-40.2789474	-1.9480572	178.1670197	-12.81707046	-148.8774067
4.99	499	-0.301	0.262	1.236	-13.9801752	-31.5699858	-1.9480572	178.0237802	-12.50767314	-148.860218
5	500	-0.291	0.198	1.202	-16.1001198	-24.350715	-0.3437748	177.8862703	-12.26703078	-148.8659476
5.01	501	-0.304	0.132	1.173	-17.475219	-14.8396122	-0.1145916	177.7143829	-12.1180617	-148.8659476
5.02	502	-0.276	0.09	1.158	-18.3919518	-6.2452422	-1.145916	177.5253067	-12.05503632	-148.8544884
5.03	503	-0.188	0.013	1.1	-19.6524594	0.9167328	0	177.3247714	-12.0607659	-148.860218
5.04	504	-0.249	0.039	1.084	-20.7983754	5.9587632	-0.4583664	177.112777	-12.1180617	-148.8544884
5.05	505	-0.299	0.038	1.055	-20.9702628	10.2559482	-0.1718874	176.9179712	-12.2326533	-148.8544884
5.06	506	-0.259	0	1.023	-20.912967	13.6364004	0	176.7002472	-12.36443364	-148.8544884
5.07	507	-0.286	0.01	0.998	-21.4286292	14.2666542	-0.0572958	176.4825232	-12.50194356	-148.8487588
5.08	508	-0.282	-0.004	0.967	-22.6891368	14.3812458	-0.286479	176.2476104	-12.64518306	-148.8430292
5.09	509	-0.277	-0.006	0.935	-23.3193906	13.750992	-0.9740286	176.006968	-12.7769634	-148.8315701
5.1	510	-0.284	-0.015	0.929	-24.064236	13.6364004	-1.6615782	175.7663257	-12.92593248	-148.8086518
5.11	511	-0.288	-0.001	0.932	-24.8663772	14.2093584	-2.1199446	175.5084946	-13.0634424	-148.7857334
5.12	512	-0.292	-0.002	0.941	-25.3247436	15.8709366	-2.7501984	175.2392043	-13.21814106	-148.751356
5.13	513	-0.284	-0.005	0.959	-25.3247436	17.6471064	-3.2085648	174.969914	-13.38429888	-148.7112489
5.14	514	-0.301	-0.01	0.975	-24.2934192	19.8243468	-3.6669312	174.7120829	-13.57337502	-148.6596827
5.15	515	-0.315	-0.029	0.992	-23.5485738	22.2307704	-4.1252976	174.465711	-13.80255822	-148.6081165
5.16	516	-0.312	-0.022	0.994	-22.345362	24.064236	-4.297185	174.2193391	-14.03174142	-148.5508207
5.17	517	-0.326	-0.026	1.005	-21.4286292	25.6112226	-4.4690724	173.9844263	-14.27811336	-148.4877953
5.18	518	-0.349	-0.026	1.013	-19.8816426	26.2414764	-4.4117766	173.7609727	-14.53021488	-148.4190403
5.19	519	-0.344	-0.03	1.04	-19.3659804	26.0122932	-4.3544808	173.5432486	-14.7823164	-148.3560149
5.2	520	-0.343	-0.022	1.08	-21.5432208	26.069589	-4.6409598	173.319795	-15.0401475	-148.28726
5.21	521	-0.355	-0.029	1.078	-23.9496444	26.0122932	-5.0993262	173.0505047	-15.28651944	-148.2127754
5.22	522	-0.359	-0.031	1.046	-24.064236	25.3247436	-5.5576926	172.7812145	-15.5271618	-148.1325613
5.23	523	-0.342	-0.041	1.03	-23.6631654	25.6685184	-5.8441716	172.5176538	-15.77353374	-148.0523472
5.24	524	-0.358	-0.036	1.016	-29.1062664	26.5279554	-7.1046792	172.1910677	-16.01990568	-147.9492148
5.25	525	-0.34	-0.035	0.931	-31.6272816	27.5592798	-7.6776372	171.8587521	-16.28919594	-147.8460823
5.26	526	-0.386	-0.047	0.897	-32.7159018	27.0436176	-7.7922288	171.492059	-16.54129746	-147.7372203
5.27	527	-0.371	-0.044	0.872	-31.9710564	28.3041252	-8.1360036	171.1310954	-16.80485814	-147.6226287
5.28	528	-0.348	-0.024	0.857	-32.658606	29.5646328	-8.7089616	170.7586727	-17.0741484	-147.4965779
5.29	529	-0.38	-0.053	0.827	-27.5592798	26.069589	-8.7089616	170.4378163	-17.31479076	-147.3705272
5.3	530	-0.377	-0.078	0.858	-25.0955604	23.2620948	-8.307891	170.1627964	-17.55543312	-147.2616652
5.31	531	-0.365	-0.069	0.916	-22.91832	22.5172494	-8.0787078	169.8935062	-17.761698	-147.1470736
5.32	532	-0.333	-0.056	0.971	-27.2728008	21.3713334	-9.5683986	169.5726497	-17.95077414	-147.0152932
5.33	533	-0.398	-0.11	0.973	-29.793816	18.1627686	-10.4278356	169.2231453	-18.1054728	-146.8835129
5.34	534	-0.403	-0.105	1.025	-30.4813656	16.902261	-11.45916	168.8679113	-18.24298272	-146.7402734
5.35	535	-0.37	-0.062	0.988	-35.809875	14.0947668	-13.750992	168.4840295	-18.35757432	-146.5855747
5.36	536	-0.339	-0.158	1.012	-41.9978214	15.2406828	-16.8449652	167.9912856	-18.47216592	-146.3850394
5.37	537	-0.345	0.174	1.005	-43.0864416	17.1314442	-19.0222056	167.481353	-18.5924871	-146.1615858
5.38	538	-0.406	0.054	1.073	-56.722842	18.1054728	-21.4286292	166.8224513	-18.71853786	-145.9152139
5.39	539	-0.48	-0.266	0.879	-61.8221682	26.1268848	-24.7517856	166.0947946	-18.907614	-145.6115461
5.4	540	-0.545	-0.369	0.376	-58.9573782	13.6364004	-23.8350528	165.3728675	-19.01074644	-145.3422559
5.41	541	-0.291	-0.301	0.316	-38.7319608	-3.0939732	-16.902261	164.9259603	-18.9362619	-145.1818276
5.42	542	-0.294	-0.133	0.268	-25.496631	-21.7151082	-11.8029348	164.6509405	-18.69561954	-145.1188022
5.43	543	-0.219	-0.218	0.533	-14.610429	-39.7632852	-7.7922288	164.5134305	-18.28881936	-145.1417206
5.44	544	-0.445	-0.322	0.886	17.761698	-33.8618178	-0.286479	164.725425	-17.96796288	-145.2162051
5.45	545	-0.518	-0.224	1.051	53.3996856	-18.7357266	4.4117766	165.3041126	-17.8189938	-145.3078784
5.46	546	-0.463	-0.185	1.266	67.0933818	-1.0886202	8.2505952	166.0088509	-17.83618254	-145.3823629
5.47	547	-0.53	-0.127	1.288	62.7961968	4.297185	10.0840608	166.6734822	-17.9049375	-145.4683066
5.48	548	-0.428	-0.095	1.177	52.998615	8.307891	11.0007936	167.2407106	-18.01379952	-145.5599799
5.49	549	-0.454	-0.157	1.072	43.0864416	2.4637194	9.740286	167.7048066	-18.06536574	-145.6516532
5.5	550	-0.341	-0.126	1.016	40.3362432	-6.2452422	7.6776372	168.1574434	-18.02525868	-145.7375969
5.51	551	-0.388	-0.11	1.037	33.8618178	-15.469866	6.302538	168.5298661	-17.89347834	-145.8292702
5.52	552	-0.395	-0.105	1.05	22.7464326	-21.8296998	4.297185	168.7876972	-17.68721346	-145.9094843
5.53	553	-0.396	-0.101	0.991	11.5164558	-25.78311	1.9480572	168.9252071	-17.44084152	-145.9725097
5.54	554	-0.366	-0.092	0.909	2.4637194	-26.069589	0.4010706	168.9710438	-17.18874	-146.0183463
5.55	555	-0.328	-0.092	0.828	-4.9274388	-24.350715	-0.9167328	168.9423959	-16.97101596	-146.0584534
5.56	556	-0.313	-0.105	0.773	-10.9434978	-22.4026578	-1.718874	168.8392634	-16.74756234	-146.0756421
5.57	557	-0.32	-0.1	0.765	-15.2406828	-21.1421502	-2.4064236	168.6960239	-16.53556788	-146.0928308
5.58	558	-0.325	-0.106	0.776	-17.475219	-19.767051	-2.6929026	168.518407	-16.34076216	-146.0985604
5.59	559	-0.312	-0.121	0.801	-18.5065434	-18.5065434	-2.9793816	168.3350604	-16.15168602	-146.10429
5.6	560	-0.317	-0.124	0.831	-17.761698	-16.2147114	-3.0366774	168.1746322	-16.00271694	-146.1100196
5.61	561	-0.321	-0.114	0.863	-16.9595568	-14.9542038	-3.0366774	168.0027448	-15.84801828	-146.10429
5.62	562	-0.33	-0.124	0.88	-16.8449652	-15.1260912	-2.7501984	167.8308574	-15.69331962	-146.1100196
5.63	563	-0.336	-0.146	0.91	-16.2720072	-16.2147114	-2.291832	167.6704291	-15.5271618	-146.1157492
5.64	564	-0.352	-0.143	0.961	-13.4072172	-15.6417534	-2.2345362	167.5386488	-15.37246314	-146.1272083
5.65	565	-0.338	-0.132	1.039	-7.5630456	-13.1207382	-1.6615782	167.5042713	-15.25787154	-146.1386675
5.66	566	-0.355	-0.139	1.075	-3.0366774	-10.599723	-1.0313244	167.4756234	-15.1547391	-146.1501266
5.67	567	-0.347	-0.162	1.106	2.291832	-6.875496	-0.4583664	167.5042713	-15.08598414	-146.1615858
5.68	568	-0.347	-0.145	1.116	7.734933	-2.291832	0.286479	167.5844854	-15.06306582	-146.1673154
5.69	569	-0.363	-0.148	1.118	11.9748222	1.6615782	0.9167328	167.7048066	-15.08598414	-146.173045
5.7	570	-0.358	-0.132	1.097	15.4125702	5.7868758	1.6615782	167.8881532	-15.16046868	-146.1787745
5.71	571	-0.345	-0.117	1.044	16.3865988	8.6516658	1.9480572	168.054311	-15.25214196	-146.1845041
5.72	572	-0.34	-0.117	0.984	15.5271618	8.3651868	1.9480572	168.2147392	-15.33808566	-146.1845041
5.73	573	-0.347	-0.122	0.919	12.5477802	5.156622	1.718874	168.34079	-15.39538146	-146.1902337
5.74	574	-0.344	-0.11	0.879	10.5424272	2.5210152	1.3750992	168.449652	-15.42402936	-146.2016929
5.75	575	-0.336	-0.115	0.874	8.8235532	-0.2291832	1.0886202	168.6043507	-15.50424348	-146.2246112
5.76	576	-0.329	-0.101	0.873	6.5317212	-3.0366774	0.6302538	168.6731056	-15.47559558	-146.2360703
5.77	577	-0.326	-0.099	0.858	2.4064236	-7.161975	0.1718874	168.7017535	-15.40684062	-146.2475295
5.78	578	-0.325	-0.102	0.852	-2.1772404	-10.6570188	-0.3437748	168.6845648	-15.2979786	-146.2647182
5.79	579	-0.321	-0.11	0.858	-5.2139178	-11.5737516	-0.8021412	168.6387281	-15.183387	-146.2761774
5.8	580	-0.316	-0.117	0.872	-6.2452422	-10.599723	-0.9167328	168.6100802	-15.12036162	-146.2933661
5.81	581	-0.319	-0.12	0.903	-6.1879464	-8.7662574	-0.9167328	168.5470549	-15.03441792	-146.2990957
5.82	582	-0.322	-0.123	0.93	-5.2712136	-7.2765666	-0.9167328	168.4954886	-14.95993338	-146.3048253
5.83	583	-0.322	-0.129	0.959	-3.437748	-5.2712136	-0.6302538	168.4611112	-14.90836716	-146.3048253
5.84	584	-0.329	-0.13	0.991	-1.4896908	-3.2085648	-0.4583664	168.449652	-14.87398968	-146.3105549
5.85	585	-0.337	-0.132	1.014	0.572958	-1.6615782	-0.2291832	168.5757028	-14.97139254	-146.3334732
5.86	586	-0.34	-0.136	1.029	2.5210152	-0.1718874	0	168.5986211	-14.97139254	-146.3334732
5.87	587	-0.344	-0.136	1.031	3.8388186	1.3750992	0.1145916	168.6387281	-14.9828517	-146.3277436
5.88	588	-0.345	-0.135	1.022	4.3544808	2.2345362	0.2291832	168.6845648	-15.00577002	-146.3277436
5.89	589	-0.342	-0.13	1.003	4.1252976	2.6929026	0.2291832	168.7246718	-15.03441792	-146.3277436
5.9	590	-0.34	-0.128	0.98	3.2085648	2.9793816	0.1718874	168.8564522	-15.18911658	-146.3449324
5.91	591	-0.334	-0.127	0.958	2.1199446	3.0939732	0.0572958	168.8736409	-15.21776448	-146.3392028
5.92	592	-0.332	-0.125	0.936	0.9167328	2.9793816	0	168.8793705	-15.25214196	-146.3334732
5.93	593	-0.328	-0.122	0.922	-0.0572958	2.6929026	-0.1145916	168.8793705	-15.27506028	-146.3277436
5.94	594	-0.33	-0.125	0.912	-0.859437	2.3491278	-0.1718874	168.8679113	-15.2979786	-146.322014
5.95	595	-0.329	-0.125	0.905	-1.4896908	1.7761698	-0.1718874	168.9710438	-15.5271618	-146.3449324
5.96	596	-0.328	-0.123	0.906	-2.1199446	0.9167328	-0.2291832	168.9481255	-15.53289138	-146.3449324
5.97	597	-0.328	-0.124	0.914	-2.7501984	-0.4010706	-0.286479	168.9194776	-15.5271618	-146.3392028
5.98	598	-0.328	-0.124	0.919	-2.578311	-1.6615782	-0.286479	168.8965592	-15.50997306	-146.3392028
5.99	599	-0.329	-0.124	0.926	-2.4064236	-3.0939732	-0.3437748	168.8736409	-15.48132516	-146.3449324
6	600	-0.329	-0.124	0.94	-2.3491278	-4.3544808	-0.4010706	168.9252071	-15.5271618	-146.3621211
6.01	601	-0.328	-0.126	0.954	-2.1772404	-5.0420304	-0.5156622	168.9022888	-15.47559558	-146.3678507
6.02	602	-0.328	-0.125	0.965	-1.6042824	-5.3285094	-0.4010706	168.8908297	-15.42402936	-146.3678507
6.03	603	-0.328	-0.127	0.973	-0.7448454	-5.0993262	-0.3437748	168.8851001	-15.37246314	-146.3735803
6.04	604	-0.33	-0.126	0.979	0	-4.3544808	-0.1718874	168.8851001	-15.3266265	-146.3793098
6.05	605	-0.33	-0.127	0.983	0.572958	-3.4950438	-0.1718874	169.0054213	-15.4125702	-146.4079577
6.06	606	-0.329	-0.127	0.98	1.0313244	-2.6356068	-0.1145916	169.0168804	-15.3839223	-146.4136873
6.07	607	-0.33	-0.127	0.977	1.5469866	-1.8334656	-0.1145916	169.0340692	-15.36673356	-146.4136873
6.08	608	-0.33	-0.127	0.972	1.8907614	-1.0313244	0	169.0569875	-15.3552744	-146.4136873
6.09	609	-0.329	-0.125	0.969	2.1199446	-0.286479	0	169.0741762	-15.3552744	-146.4136873
6.1	610	-0.33	-0.124	0.963	2.1772404	0.4010706	0.0572958	169.2632524	-15.55008012	-146.4480648
6.11	611	-0.329	-0.124	0.959	2.1199446	1.0886202	0.1145916	169.2861707	-15.56153928	-146.4480648
6.12	612	-0.327	-0.124	0.953	1.8334656	1.4896908	0.1145916	169.3033594	-15.57872802	-146.4480648
6.13	613	-0.326	-0.123	0.946	1.4896908	1.8334656	0.1145916	169.3205482	-15.59591676	-146.4480648
6.14	614	-0.325	-0.123	0.94	1.2605076	1.7761698	0.1145916	169.3320073	-15.6131055	-146.4423352
6.15	615	-0.325	-0.122	0.942	0.859437	1.6042824	0	169.526813	-15.86520702	-146.4824423
6.16	616	-0.326	-0.123	0.941	0.6302538	1.3178034	0	169.5325426	-15.87666618	-146.4824423
6.17	617	-0.325	-0.124	0.941	0.572958	1.0313244	0	169.5382722	-15.88812534	-146.4824423
6.18	618	-0.327	-0.124	0.941	0.5156622	0.7448454	0	169.5440018	-15.89385492	-146.4767127
6.19	619	-0.326	-0.125	0.944	0.5156622	0.3437748	0	169.5497314	-15.8995845	-146.4767127
6.2	620	-0.327	-0.127	0.948	0.6875496	-0.0572958	0	169.9106949	-16.37513964	-146.5626564
6.21	621	-0.328	-0.127	0.957	0.9167328	-0.572958	0	169.9221541	-16.36941006	-146.5626564
6.22	622	-0.328	-0.128	0.959	1.2032118	-0.6875496	0	169.9336132	-16.3579509	-146.5626564
6.23	623	-0.328	-0.128	0.958	1.3750992	-0.8021412	0	169.950802	-16.35222132	-146.5626564
6.24	624	-0.328	-0.127	0.958	1.6042824	-1.0313244	0	169.9679907	-16.34076216	-146.568386
6.25	625	-0.327	-0.127	0.96	1.7761698	-1.3750992	0	170.0768527	-16.43816502	-146.5913043
6.26	626	-0.328	-0.126	0.959	1.718874	-1.432395	0	170.0940415	-16.42097628	-146.5913043
6.27	627	-0.327	-0.125	0.959	1.8334656	-1.2032118	0	170.1112302	-16.40951712	-146.5913043
6.28	628	-0.326	-0.125	0.959	1.7761698	-1.2032118	0	170.1341485	-16.39805796	-146.5970339
6.29	629	-0.326	-0.124	0.956	1.6615782	-1.145916	0	170.1513373	-16.3865988	-146.5970339
6.3	630	-0.326	-0.123	0.953	1.2605076	-0.9740286	0	170.2888472	-16.53556788	-146.6256818
6.31	631	-0.326	-0.125	0.951	0.7448454	-0.9167328	-0.1718874	170.3003063	-16.52410872	-146.6256818
6.32	632	-0.325	-0.123	0.951	0.5156622	-0.859437	-0.1145916	170.3060359	-16.51837914	-146.6256818
6.33	633	-0.325	-0.123	0.951	0.286479	-0.7448454	-0.1145916	170.3060359	-16.50691998	-146.6256818
6.34	634	-0.326	-0.122	0.953	0.1718874	-0.5156622	-0.1718874	170.3117655	-16.5011904	-146.6256818
6.35	635	-0.324	-0.123	0.956	0	-0.286479	-0.1718874	170.7873206	-17.1027963	-146.7402734
6.36	636	-0.325	-0.124	0.956	0	-0.3437748	-0.1145916	170.7873206	-17.09706672	-146.7402734
6.37	637	-0.326	-0.125	0.954	0	-0.1145916	-0.0572958	170.7873206	-17.09706672	-146.7402734
6.38	638	-0.325	-0.123	0.953	0	0	-0.1145916	170.7873206	-17.09706672	-146.7402734
6.39	639	-0.326	-0.124	0.955	0.0572958	0.0572958	0	170.7873206	-17.09706672	-146.7402734
6.4	640	-0.326	-0.124	0.955	0.286479	0.1145916	0	171.027963	-17.42938236	-146.7975692
6.41	641	-0.326	-0.123	0.956	0.3437748	0.0572958	0	171.027963	-17.42938236	-146.7975692
6.42	642	-0.326	-0.124	0.957	0.572958	-0.0572958	0	171.0336926	-17.42938236	-146.7975692
6.43	643	-0.325	-0.125	0.958	0.7448454	-0.2291832	0	171.0451517	-17.42365278	-146.7975692
6.44	644	-0.325	-0.124	0.959	0.859437	-0.4010706	0	171.0508813	-17.42365278	-146.7975692
6.45	645	-0.326	-0.124	0.956	0.9167328	-0.5156622	0.1145916	171.136825	-17.50959648	-146.8204875
6.46	646	-0.326	-0.124	0.956	0.9167328	-0.572958	0	171.1425546	-17.5038669	-146.8204875
6.47	647	-0.325	-0.124	0.957	0.9167328	-0.572958	0	171.1540138	-17.49813732	-146.8204875
6.48	648	-0.326	-0.124	0.956	0.9167328	-0.5156622	0	171.1654729	-17.49813732	-146.8262171
6.49	649	-0.325	-0.125	0.956	0.7448454	-0.6302538	0	171.1712025	-17.48667816	-146.8262171
6.5	650	-0.324	-0.125	0.955	0.7448454	-0.6875496	0	171.2399575	-17.56689228	-146.8434058
6.51	651	-0.325	-0.124	0.956	0.6875496	-0.7448454	0	171.245687	-17.55543312	-146.8434058
6.52	652	-0.324	-0.124	0.956	0.6875496	-0.859437	-0.0572958	171.2571462	-17.54970354	-146.8434058
6.53	653	-0.325	-0.123	0.957	0.4583664	-0.6875496	0	171.2628758	-17.54397396	-146.8434058
6.54	654	-0.323	-0.124	0.956	0.572958	-0.6875496	0	171.2686054	-17.5325148	-146.8434058
6.55	655	-0.323	-0.124	0.958	0.5156622	-0.6875496	0	171.3488195	-17.6184585	-146.8663241
6.56	656	-0.323	-0.125	0.957	0.4583664	-0.6302538	0	171.3545491	-17.61272892	-146.8663241
6.57	657	-0.323	-0.125	0.956	0.3437748	-0.5156622	-0.0572958	171.3602786	-17.60699934	-146.8663241
6.58	658	-0.324	-0.124	0.956	0.3437748	-0.4010706	0	171.3602786	-17.60126976	-146.8663241
6.59	659	-0.323	-0.124	0.958	0.4010706	-0.2291832	0	171.3660082	-17.60126976	-146.8663241
6.6	660	-0.323	-0.124	0.958	0.5156622	-0.1718874	-0.0572958	171.4691407	-17.74450926	-146.8892425
6.61	661	-0.323	-0.124	0.957	0.4583664	-0.0572958	0	171.4691407	-17.74450926	-146.8892425
6.62	662	-0.323	-0.124	0.954	0.572958	0	0.0572958	171.4805998	-17.74450926	-146.8892425
6.63	663	-0.323	-0.124	0.953	0.572958	0	0	171.4863294	-17.74450926	-146.8892425
6.64	664	-0.323	-0.123	0.953	0.4583664	-0.1718874	0	171.4863294	-17.73877968	-146.8892425
6.65	665	-0.324	-0.123	0.954	0.4583664	-0.1718874	0	171.6066506	-17.88201918	-146.9178904
6.66	666	-0.324	-0.123	0.957	0.286479	-0.4010706	0	171.6123802	-17.8762896	-146.9178904
6.67	667	-0.324	-0.124	0.96	0.1718874	-0.5156622	-0.0572958	171.6123802	-17.87056002	-146.9178904
6.68	668	-0.323	-0.124	0.958	0.0572958	-0.3437748	-0.0572958	171.6123802	-17.87056002	-146.9178904
6.69	669	-0.322	-0.125	0.955	0.1718874	-0.2291832	0	171.6181097	-17.86483044	-146.9178904
6.7	670	-0.321	-0.126	0.954	-0.1145916	0.1145916	0	171.6582168	-17.97942204	-146.9350791
6.71	671	-0.322	-0.125	0.956	-0.1718874	0.2291832	0	171.6582168	-17.98515162	-146.9350791
6.72	672	-0.323	-0.125	0.959	-0.4010706	0.1145916	0	171.6524872	-17.98515162	-146.9350791
6.73	673	-0.323	-0.125	0.962	-0.5156622	-0.0572958	0	171.6467576	-17.98515162	-146.9350791
6.74	674	-0.322	-0.126	0.961	-0.5156622	0	0	171.6410281	-17.98515162	-146.9350791
6.75	675	-0.323	-0.125	0.957	-0.5156622	0	0	171.6811351	-18.05390658	-146.9465383
6.76	676	-0.323	-0.125	0.956	-0.4010706	0	-0.0572958	171.6754055	-18.05390658	-146.9465383
6.77	677	-0.323	-0.124	0.955	-0.1718874	0	0	171.6754055	-18.05390658	-146.9465383
6.78	678	-0.322	-0.125	0.954	-0.1145916	0.0572958	-0.0572958	171.669676	-18.05390658	-146.9465383
6.79	679	-0.322	-0.124	0.954	-0.1145916	0.0572958	0	171.669676	-18.05963616	-146.9465383
6.8	680	-0.322	-0.124	0.957	0	0	0	171.8358338	-18.26590104	-146.9923749
6.81	681	-0.321	-0.125	0.954	0.1145916	0.1145916	0.0572958	171.8415634	-18.27163062	-146.9923749
6.82	682	-0.322	-0.124	0.954	0.0572958	0.1145916	0.0572958	171.8415634	-18.27163062	-146.9923749
6.83	683	-0.321	-0.124	0.956	0.1718874	0.1145916	0	171.8415634	-18.27163062	-146.9923749
6.84	684	-0.321	-0.126	0.957	0.1718874	0.1145916	0	171.8472929	-18.27163062	-146.9923749
6.85	685	-0.322	-0.125	0.957	0.1145916	0.1718874	0.0572958	171.8702113	-18.30027852	-146.9981045
6.86	686	-0.322	-0.125	0.956	0.1718874	0.1145916	0	171.8759408	-18.30027852	-146.9981045
6.87	687	-0.322	-0.126	0.957	0.1718874	0.1718874	0.0572958	171.8759408	-18.3060081	-146.9981045
6.88	688	-0.322	-0.125	0.957	0.2291832	0.1718874	0.1145916	171.8816704	-18.3060081	-147.0038341
6.89	689	-0.321	-0.125	0.957	0.2291832	0.2291832	0	171.8816704	-18.3060081	-147.0038341
6.9	690	-0.321	-0.124	0.956	0.2291832	0.1145916	0	171.9103183	-18.34038558	-147.0095636
6.91	691	-0.322	-0.125	0.956	0.2291832	0	0	171.9160479	-18.34038558	-147.0095636
6.92	692	-0.321	-0.125	0.956	0.1718874	-0.0572958	0	171.9160479	-18.34038558	-147.0095636
6.93	693	-0.321	-0.126	0.955	0.1145916	-0.1145916	0	171.9217775	-18.34038558	-147.0095636
6.94	694	-0.322	-0.125	0.956	0.1145916	0	0	171.9217775	-18.34038558	-147.0095636
6.95	695	-0.321	-0.125	0.956	0.2291832	0	0	171.9332366	-18.3633039	-147.0152932
6.96	696	-0.32	-0.125	0.955	0.286479	0	0.0572958	171.9332366	-18.3633039	-147.0152932
6.97	697	-0.32	-0.125	0.955	0.286479	0.1145916	0.0572958	171.9389662	-18.3633039	-147.0152932
6.98	698	-0.32	-0.125	0.955	0.2291832	0.0572958	0	171.9389662	-18.3633039	-147.0152932
6.99	699	-0.321	-0.124	0.958	0.1718874	0	0.0572958	171.9446958	-18.3633039	-147.0152932
7	700	-0.32	-0.125	0.959	0.1145916	0	-0.0572958	171.9446958	-18.3919518	-147.0152932
7.01	701	-0.32	-0.125	0.959	0.0572958	0	0	171.9446958	-18.3919518	-147.0152932
7.02	702	-0.321	-0.125	0.959	0	0.1718874	0	171.9446958	-18.3919518	-147.0152932
7.03	703	-0.321	-0.125	0.958	0	0.1145916	0	171.9446958	-18.3919518	-147.0152932
7.04	704	-0.322	-0.125	0.958	0	0.0572958	0	171.9446958	-18.3919518	-147.0152932
7.05	705	-0.32	-0.124	0.957	0	0.1718874	0	171.9618845	-18.40341096	-147.0210228
7.06	706	-0.32	-0.125	0.956	0	0.1145916	0.0572958	171.9618845	-18.40914054	-147.0210228
7.07	707	-0.321	-0.124	0.957	0	0.2291832	0	171.9618845	-18.40914054	-147.0210228
7.08	708	-0.32	-0.124	0.96	0.0572958	0.286479	0	171.9618845	-18.41487012	-147.0210228
7.09	709	-0.32	-0.125	0.957	0.1718874	0.1145916	0	171.9618845	-18.41487012	-147.0210228
7.1	710	-0.32	-0.125	0.955	0.286479	0.1718874	0.0572958	171.9676141	-18.4205997	-147.0210228
7.11	711	-0.319	-0.125	0.954	0.286479	0.1145916	0.0572958	171.9676141	-18.4205997	-147.0210228
7.12	712	-0.32	-0.125	0.955	0.3437748	0.286479	0.0572958	171.9733437	-18.4205997	-147.0210228
7.13	713	-0.32	-0.124	0.956	0.3437748	0.3437748	0	171.9790733	-18.42632928	-147.0210228
7.14	714	-0.321	-0.124	0.956	0.4010706	0.286479	0	171.9790733	-18.43205886	-147.0210228
7.15	715	-0.321	-0.125	0.957	0.4010706	0.1718874	0	171.9905324	-18.43205886	-147.0210228
7.16	716	-0.32	-0.124	0.959	0.4583664	0.1718874	0.0572958	171.996262	-18.43205886	-147.0210228
7.17	717	-0.321	-0.124	0.958	0.4010706	0.0572958	0	171.996262	-18.43205886	-147.0210228
7.18	718	-0.32	-0.124	0.958	0.3437748	0.0572958	0.0572958	172.0019916	-18.43778844	-147.0210228
7.19	719	-0.32	-0.125	0.958	0.4583664	0.1145916	0.0572958	172.0077212	-18.43778844	-147.0210228
7.2	720	-0.32	-0.123	0.958	0.4583664	0.2291832	0.0572958	172.0134508	-18.43778844	-147.0210228
7.21	721	-0.319	-0.125	0.957	0.5156622	0.1145916	0.0572958	172.0191803	-18.43778844	-147.0210228
7.22	722	-0.32	-0.124	0.959	0.4010706	0.1718874	0	172.0191803	-18.44351802	-147.0210228
7.23	723	-0.32	-0.123	0.958	0.4010706	0.0572958	0	172.0249099	-18.44351802	-147.0210228
7.24	724	-0.321	-0.123	0.956	0.4583664	0	0	172.0306395	-18.44351802	-147.0210228
7.25	725	-0.32	-0.124	0.955	0.4583664	-0.0572958	0	172.0363691	-18.44351802	-147.0210228
7.26	726	-0.32	-0.123	0.957	0.4583664	0	0	172.0420987	-18.44351802	-147.0210228
7.27	727	-0.32	-0.122	0.96	0.3437748	0	0	172.0420987	-18.44351802	-147.0267524
7.28	728	-0.321	-0.123	0.958	0.2291832	-0.0572958	0	172.0478282	-18.44351802	-147.0267524
7.29	729	-0.32	-0.124	0.956	0.1718874	-0.0572958	0	172.0478282	-18.44351802	-147.0267524
7.3	730	-0.32	-0.123	0.957	0.1718874	0	0	172.0592874	-18.43778844	-147.0267524
7.31	731	-0.319	-0.123	0.957	0.2291832	0.1145916	0	172.0592874	-18.43778844	-147.0267524
7.32	732	-0.32	-0.123	0.957	0.1145916	0.1145916	0	172.0592874	-18.43778844	-147.0267524
7.33	733	-0.32	-0.122	0.957	0	0	0	172.0592874	-18.43778844	-147.0267524
7.34	734	-0.321	-0.123	0.956	0	0	0	172.0592874	-18.43778844	-147.0267524
7.35	735	-0.321	-0.122	0.956	0	-0.286479	0	172.0764761	-18.43778844	-147.032482
7.36	736	-0.32	-0.121	0.959	0	-0.286479	0	172.0764761	-18.43205886	-147.032482
7.37	737	-0.319	-0.122	0.959	0	-0.2291832	0.0572958	172.0764761	-18.43205886	-147.032482
7.38	738	-0.318	-0.122	0.956	0.0572958	-0.1718874	0.0572958	172.0764761	-18.43205886	-147.032482
7.39	739	-0.319	-0.123	0.955	0.1145916	0	0	172.0764761	-18.43205886	-147.032482
7.4	740	-0.319	-0.123	0.958	0.1718874	0	0.0572958	172.105124	-18.41487012	-147.0382115
7.41	741	-0.32	-0.123	0.961	0	-0.1145916	0	172.105124	-18.41487012	-147.0382115
7.42	742	-0.32	-0.123	0.965	-0.1718874	-0.1718874	0	172.0993945	-18.40914054	-147.0382115
7.43	743	-0.32	-0.123	0.963	-0.286479	-0.1718874	0	172.0993945	-18.40914054	-147.0382115
7.44	744	-0.32	-0.123	0.96	-0.286479	-0.0572958	0	172.0936649	-18.40914054	-147.0382115
7.45	745	-0.319	-0.123	0.956	-0.1145916	0	0	172.0879353	-18.40914054	-147.0382115
7.46	746	-0.319	-0.121	0.954	0.1145916	0.0572958	0.0572958	172.0936649	-18.40914054	-147.0382115
7.47	747	-0.319	-0.122	0.956	0.0572958	0.1145916	0.0572958	172.0936649	-18.40914054	-147.0382115
7.48	748	-0.319	-0.12	0.957	0	0.1718874	0.0572958	172.0936649	-18.40914054	-147.0382115
7.49	749	-0.318	-0.121	0.955	0	0.4010706	0.0572958	172.0936649	-18.41487012	-147.0382115
7.5	750	-0.319	-0.122	0.956	-0.0572958	0.6302538	0	172.0993945	-18.4205997	-147.0439411
7.51	751	-0.32	-0.121	0.956	-0.4583664	0.9740286	0	172.0936649	-18.43205886	-147.0382115
7.52	752	-0.319	-0.121	0.955	-0.5156622	1.2605076	0	172.0879353	-18.44351802	-147.0382115
7.53	753	-0.319	-0.121	0.955	-0.572958	1.3178034	0	172.0764761	-18.45497718	-147.0382115
7.54	754	-0.32	-0.121	0.956	-0.6875496	1.432395	-0.0572958	172.0707466	-18.47216592	-147.0382115
7.55	755	-0.32	-0.122	0.958	-0.6875496	1.3750992	0	172.065017	-18.48362508	-147.032482
7.56	756	-0.32	-0.123	0.958	-0.5156622	1.4896908	0	172.0535578	-18.49508424	-147.032482
7.57	757	-0.321	-0.123	0.961	-0.4010706	1.2605076	-0.0572958	172.0535578	-18.5065434	-147.032482
7.58	758	-0.321	-0.123	0.962	-0.286479	0.9740286	0	172.0478282	-18.51800256	-147.0267524
7.59	759	-0.321	-0.123	0.962	-0.1145916	0.7448454	0	172.0478282	-18.52373214	-147.0267524
7.6	760	-0.321	-0.122	0.961	0.0572958	0.6302538	0	172.0535578	-18.52946172	-147.032482
7.61	761	-0.32	-0.123	0.957	0.1718874	0.4583664	0	172.0535578	-18.5351913	-147.0267524
7.62	762	-0.322	-0.123	0.955	0.4583664	0.1145916	0	172.0592874	-18.5351913	-147.0267524
7.63	763	-0.323	-0.121	0.956	0.6302538	0.0572958	0.0572958	172.065017	-18.5351913	-147.032482
7.64	764	-0.321	-0.121	0.958	0.7448454	0.1145916	0.0572958	172.0764761	-18.5351913	-147.032482
7.65	765	-0.321	-0.121	0.959	0.859437	0.1145916	0.0572958	172.0879353	-18.5351913	-147.032482
7.66	766	-0.321	-0.121	0.957	0.8021412	0.0572958	0.0572958	172.0936649	-18.5351913	-147.032482
7.67	767	-0.322	-0.121	0.955	0.7448454	0.0572958	0.0572958	172.0993945	-18.5351913	-147.032482
7.68	768	-0.321	-0.121	0.957	0.6875496	0.0572958	0.0572958	172.1108536	-18.5351913	-147.032482
7.69	769	-0.322	-0.12	0.961	0.6875496	-0.1145916	0.1145916	172.1165832	-18.5351913	-147.032482
7.7	770	-0.321	-0.119	0.961	0.4583664	-0.1718874	0.0572958	172.1337719	-18.52946172	-147.0382115
7.71	771	-0.322	-0.12	0.957	0.1718874	-0.0572958	0.0572958	172.1395015	-18.52946172	-147.0382115
7.72	772	-0.32	-0.12	0.956	0.0572958	-0.0572958	0.0572958	172.1395015	-18.52946172	-147.0382115
7.73	773	-0.321	-0.119	0.958	0	-0.0572958	0.0572958	172.1395015	-18.52946172	-147.0439411
7.74	774	-0.319	-0.12	0.958	-0.1145916	-0.1145916	0.0572958	172.1395015	-18.52946172	-147.0439411
7.75	775	-0.32	-0.119	0.954	-0.2291832	-0.1145916	0.0572958	172.1452311	-18.52373214	-147.0439411
