TimeStamp(s)	FrameCounter	AccX	AccY	AccZ	GyrX	GyrY	GyrZ	EulerX	EulerY	EulerZ
0.01	1	0.087	-1.006	0.023	0.9167328	-1.2605076	-0.2291832	87.27869214	4.84722468	-15.63029424
0.02	2	0.09	-1	0.029	0.4010706	-1.2605076	-0.286479	87.28442172	4.85295426	-15.6417534
0.03	3	0.092	-0.998	0.028	0.5156622	-1.3750992	-0.3437748	87.2901513	4.85868384	-15.65894214
0.04	4	0.092	-0.997	0.029	0.8021412	-1.6042824	-0.3437748	87.29588088	4.85868384	-15.67613088
0.05	5	0.092	-0.996	0.032	0.9167328	-1.6615782	-0.3437748	87.376095	4.88733174	-15.70477878
0.06	6	0.091	-0.997	0.032	1.0313244	-1.6042824	-0.3437748	87.38755416	4.89306132	-15.71623794
0.07	7	0.09	-1.003	0.032	1.0886202	-1.5469866	-0.286479	87.39328374	4.89306132	-15.73342668
0.08	8	0.089	-1.005	0.033	1.2032118	-1.5469866	-0.286479	87.41047248	4.8987909	-15.75061542
0.09	9	0.088	-1.007	0.032	1.2032118	-1.718874	-0.286479	87.41620206	4.8987909	-15.76780416
0.1	10	0.089	-1.006	0.034	1.2605076	-1.8334656	-0.2291832	87.49641618	4.92170922	-15.79645206
0.11	11	0.089	-1.006	0.034	1.2605076	-1.8334656	-0.0572958	87.50787534	4.92170922	-15.8136408
0.12	12	0.091	-1.005	0.033	1.432395	-1.7761698	0	87.52506408	4.92170922	-15.83082954
0.13	13	0.09	-1.006	0.032	1.432395	-1.8334656	-0.0572958	87.53652324	4.92170922	-15.84801828
0.14	14	0.09	-1.005	0.032	1.5469866	-1.8907614	-0.0572958	87.55371198	4.92170922	-15.8709366
0.15	15	0.088	-1.004	0.034	1.6042824	-1.8334656	0	87.6339261	4.93889796	-15.89385492
0.16	16	0.088	-1.003	0.037	1.2605076	-1.7761698	0	87.64538526	4.93889796	-15.91104366
0.17	17	0.087	-1.001	0.038	0.9740286	-1.7761698	0	87.65111484	4.93889796	-15.9282324
0.18	18	0.085	-1.002	0.036	0.8021412	-1.7761698	0	87.65684442	4.93889796	-15.94542114
0.19	19	0.086	-1.004	0.037	0.4010706	-1.6042824	-0.1145916	87.662574	4.93889796	-15.96260988
0.2	20	0.086	-1.006	0.037	0.0572958	-1.5469866	-0.1145916	87.78862476	4.96754586	-15.99125778
0.21	21	0.089	-1.007	0.036	-0.0572958	-1.4896908	-0.1145916	87.78289518	4.96754586	-16.00271694
0.22	22	0.089	-1.005	0.035	0	-1.6042824	-0.0572958	87.78289518	4.96754586	-16.01990568
0.23	23	0.09	-1.005	0.036	0.1145916	-1.6042824	-0.0572958	87.78289518	4.96754586	-16.03709442
0.24	24	0.09	-1.006	0.036	0	-1.6042824	-0.0572958	87.78289518	4.97327544	-16.05428316
0.25	25	0.091	-1.008	0.036	0	-1.7761698	0	87.89748678	5.00192334	-16.08293106
0.26	26	0.09	-1.007	0.037	0	-1.8334656	-0.0572958	87.89748678	5.00192334	-16.1001198
0.27	27	0.087	-1.007	0.037	0	-1.8334656	-0.1718874	87.89748678	5.00192334	-16.11730854
0.28	28	0.087	-1.007	0.037	0	-1.7761698	-0.1718874	87.89748678	5.00765292	-16.14022686
0.29	29	0.086	-1.004	0.034	-0.0572958	-1.6615782	-0.1718874	87.8917572	5.00765292	-16.15168602
0.3	30	0.087	-1.003	0.033	0	-1.4896908	-0.1145916	88.0063488	5.02484166	-16.17460434
0.31	31	0.088	-1.001	0.031	0.0572958	-1.432395	-0.0572958	88.0063488	5.02484166	-16.19179308
0.32	32	0.088	-1.003	0.03	0.1145916	-1.2032118	0	88.0063488	5.02484166	-16.20325224
0.33	33	0.089	-1.002	0.031	0	-1.0313244	-0.0572958	88.0063488	5.03057124	-16.2147114
0.34	34	0.087	-1	0.03	0	-0.9167328	-0.0572958	88.0063488	5.03057124	-16.22044098
0.35	35	0.087	-1	0.029	0.0572958	-1.0313244	0	88.15531788	5.05921914	-16.2433593
0.36	36	0.087	-1.001	0.029	0.1718874	-0.9167328	-0.0572958	88.15531788	5.05921914	-16.25481846
0.37	37	0.088	-1.001	0.027	0.4010706	-0.9740286	-0.1718874	88.15531788	5.05921914	-16.26054804
0.38	38	0.088	-1.003	0.029	0.4010706	-0.9740286	-0.1145916	88.16104746	5.05921914	-16.2720072
0.39	39	0.089	-1.004	0.028	0.4010706	-0.9740286	0	88.16677704	5.05921914	-16.28346636
0.4	40	0.09	-1.006	0.03	0.3437748	-1.0313244	0	88.28136864	5.09359662	-16.30638468
0.41	41	0.09	-1.005	0.03	0.2291832	-0.9740286	0	88.28136864	5.09359662	-16.31784384
0.42	42	0.09	-1.005	0.028	0.286479	-1.145916	0	88.28709822	5.09359662	-16.329303
0.43	43	0.089	-1.005	0.031	0.1145916	-1.2605076	-0.0572958	88.28709822	5.09359662	-16.34076216
0.44	44	0.088	-1.003	0.031	0	-1.432395	-0.1145916	88.28136864	5.0993262	-16.35222132
0.45	45	0.088	-1.003	0.031	0	-1.4896908	-0.1718874	88.35585318	5.11651494	-16.37513964
0.46	46	0.089	-1.003	0.031	-0.0572958	-1.3750992	-0.2291832	88.35585318	5.11651494	-16.3865988
0.47	47	0.09	-1.003	0.029	0	-1.3178034	-0.286479	88.35585318	5.12224452	-16.40378754
0.48	48	0.092	-1.002	0.031	0.1718874	-1.3750992	-0.1145916	88.35585318	5.12224452	-16.4152467
0.49	49	0.094	-1.003	0.033	0.286479	-1.718874	0	88.35585318	5.12224452	-16.43243544
0.5	50	0.092	-1.003	0.032	0.3437748	-1.8334656	0	88.42460814	5.14516284	-16.46108334
0.51	51	0.091	-1.004	0.034	0.286479	-1.7761698	0	88.42460814	5.14516284	-16.47827208
0.52	52	0.09	-1.003	0.034	0.4583664	-1.6615782	0	88.43033772	5.14516284	-16.49546082
0.53	53	0.091	-1.004	0.033	0.4010706	-1.5469866	-0.1718874	88.43033772	5.14516284	-16.51264956
0.54	54	0.091	-1.003	0.032	0.4010706	-1.4896908	-0.1718874	88.4360673	5.14516284	-16.52410872
0.55	55	0.091	-1.002	0.031	0.4583664	-1.6042824	-0.1145916	88.4933631	5.16808116	-16.54702704
0.56	56	0.09	-1.003	0.032	0.4010706	-0.6875496	0	88.49909268	5.16808116	-16.55275662
0.57	57	0.088	-1.003	0.031	0.4583664	-0.3437748	-0.0572958	88.50482226	5.16808116	-16.5584862
0.58	58	0.086	-1.003	0.033	0.286479	-0.3437748	-0.1145916	88.50482226	5.16808116	-16.56421578
0.59	59	0.088	-1.002	0.033	0.2291832	-0.5156622	-0.1145916	88.51055184	5.16808116	-16.56994536
0.6	60	0.088	-1	0.031	0	-0.859437	-0.2291832	88.59649554	5.1852699	-16.58140452
0.61	61	0.087	-0.999	0.028	-0.1145916	-0.7448454	-0.3437748	88.59649554	5.19099948	-16.5871341
0.62	62	0.087	-0.998	0.031	0	-0.4583664	-0.3437748	88.59649554	5.19099948	-16.59286368
0.63	63	0.086	-1.001	0.032	0.1718874	-0.4010706	-0.4010706	88.59649554	5.19672906	-16.59859326
0.64	64	0.085	-1.006	0.033	0.4010706	-0.4010706	-0.4010706	88.60222512	5.20245864	-16.59859326
0.65	65	0.085	-1.011	0.034	0.3437748	-0.3437748	-0.286479	88.73400546	5.19672906	-16.59286368
0.66	66	0.085	-1.015	0.035	0.2291832	-0.4583664	-0.1718874	88.73400546	5.19672906	-16.59859326
0.67	67	0.086	-1.013	0.037	0	-0.4583664	-0.1718874	88.73400546	5.19672906	-16.60432284
0.68	68	0.092	-1.012	0.036	-0.2291832	-0.286479	-0.1718874	88.73400546	5.20245864	-16.60432284
0.69	69	0.091	-1.011	0.035	-0.572958	-0.0572958	-0.0572958	88.72827588	5.20245864	-16.60432284
0.7	70	0.09	-1.01	0.034	-0.6302538	-0.0572958	-0.0572958	88.84859706	5.21964738	-16.61005242
0.71	71	0.088	-1.006	0.034	-0.8021412	0	0	88.84286748	5.21964738	-16.61005242
0.72	72	0.088	-1.003	0.034	-0.6302538	0.1145916	0	88.83140832	5.21964738	-16.61005242
0.73	73	0.087	-1.001	0.032	-0.5156622	0.1145916	-0.0572958	88.82567874	5.22537696	-16.61005242
0.74	74	0.088	-0.999	0.03	-0.4010706	0.0572958	-0.1718874	88.82567874	5.22537696	-16.61005242
0.75	75	0.089	-0.997	0.032	-0.286479	0	-0.286479	88.97464782	5.25402486	-16.615782
0.76	76	0.089	-0.997	0.034	-0.1145916	-0.1145916	-0.286479	88.97464782	5.25975444	-16.615782
0.77	77	0.089	-0.997	0.034	-0.1145916	-0.1145916	-0.2291832	88.97464782	5.26548402	-16.615782
0.78	78	0.087	-0.997	0.031	-0.1718874	0	-0.1718874	88.96891824	5.26548402	-16.615782
0.79	79	0.087	-0.999	0.03	-0.1145916	0.286479	-0.1145916	88.96891824	5.26548402	-16.615782
0.8	80	0.087	-1	0.031	-0.1145916	0.4010706	-0.1718874	89.094969	5.27694318	-16.61005242
0.81	81	0.087	-1.001	0.029	-0.1145916	0.2291832	-0.2291832	89.094969	5.28267276	-16.60432284
0.82	82	0.089	-1.001	0.028	-0.1145916	0.2291832	-0.2291832	89.08923942	5.28267276	-16.60432284
0.83	83	0.091	-1.002	0.029	0.0572958	0.1145916	-0.1718874	89.094969	5.28840234	-16.60432284
0.84	84	0.091	-1.004	0.03	0.1145916	0.1718874	-0.286479	89.094969	5.28840234	-16.59859326
0.85	85	0.092	-1.006	0.029	0.1145916	0.286479	-0.2291832	89.21529018	5.31705024	-16.60432284
0.86	86	0.092	-1.007	0.029	0.1145916	0.286479	-0.1718874	89.21529018	5.31705024	-16.59859326
0.87	87	0.092	-1.008	0.029	0.1718874	0.1145916	-0.1145916	89.22101976	5.31705024	-16.59859326
0.88	88	0.089	-1.008	0.031	0.1145916	-0.0572958	-0.1145916	89.22101976	5.32277982	-16.59859326
0.89	89	0.09	-1.006	0.031	-0.1145916	0.0572958	-0.1145916	89.22101976	5.32277982	-16.59859326
0.9	90	0.09	-1.006	0.03	-0.286479	0.286479	-0.1718874	89.31269304	5.33423898	-16.59286368
0.91	91	0.091	-1.005	0.029	-0.286479	0.2291832	-0.2291832	89.31269304	5.33996856	-16.59286368
0.92	92	0.092	-1.006	0.032	-0.4583664	0	-0.2291832	89.30696346	5.33996856	-16.59286368
0.93	93	0.092	-1.005	0.032	-0.6875496	-0.0572958	-0.2291832	89.30123388	5.33996856	-16.59286368
0.94	94	0.092	-1.005	0.028	-0.7448454	-0.0572958	-0.2291832	89.28977472	5.34569814	-16.59286368
0.95	95	0.093	-1.005	0.03	-0.7448454	-0.286479	-0.286479	89.33561136	5.36288688	-16.60432284
0.96	96	0.092	-1.006	0.032	-0.7448454	-0.2291832	-0.4010706	89.3241522	5.36861646	-16.60432284
0.97	97	0.091	-1.007	0.033	-0.8021412	-0.1718874	-0.286479	89.31842262	5.37434604	-16.61005242
0.98	98	0.091	-1.007	0.036	-0.9740286	-0.0572958	-0.1718874	89.30696346	5.37434604	-16.61005242
0.99	99	0.09	-1.004	0.034	-1.3178034	0.1718874	-0.0572958	89.2955043	5.37434604	-16.60432284
1	100	0.09	-0.999	0.031	-1.2605076	0.1718874	0	89.3241522	5.3858052	-16.61005242
1.01	101	0.092	-0.997	0.031	-0.9740286	0	0.0572958	89.31842262	5.3858052	-16.61005242
1.02	102	0.093	-0.998	0.031	-0.859437	0	0	89.30696346	5.3858052	-16.61005242
1.03	103	0.092	-0.997	0.031	-0.6302538	-0.0572958	0.1145916	89.30123388	5.3858052	-16.61005242
1.04	104	0.093	-0.998	0.03	-0.286479	-0.1718874	0.1718874	89.2955043	5.38007562	-16.61005242
1.05	105	0.092	-0.998	0.03	-0.1145916	-0.1718874	0.1145916	89.49031002	5.43164184	-16.62724116
1.06	106	0.092	-0.998	0.031	0	-0.2291832	0.1145916	89.49031002	5.43164184	-16.62724116
1.07	107	0.093	-0.999	0.029	0.2291832	-0.1718874	0.1718874	89.4960396	5.42591226	-16.62724116
1.08	108	0.092	-0.999	0.028	0.4010706	-0.1145916	0.1718874	89.4960396	5.42591226	-16.63297074
1.09	109	0.092	-1.002	0.028	0.5156622	0	0.1718874	89.50176918	5.42591226	-16.63297074
1.1	110	0.092	-1.002	0.029	0.4583664	0.0572958	0.1718874	89.56479456	5.43737142	-16.63297074
1.11	111	0.093	-1.003	0.028	0.4583664	0	0.2291832	89.57052414	5.43164184	-16.63297074
1.12	112	0.094	-1.003	0.026	0.286479	0	0.286479	89.57052414	5.43164184	-16.63297074
1.13	113	0.094	-1.003	0.024	0.286479	-0.0572958	0.4010706	89.57625372	5.42591226	-16.63297074
1.14	114	0.094	-1.004	0.022	0.4583664	0	0.4583664	89.5819833	5.42018268	-16.63297074
1.15	115	0.093	-1.004	0.023	0.4583664	0	0.4583664	89.6106312	5.42591226	-16.63870032
1.16	116	0.092	-1.005	0.023	0.572958	-0.0572958	0.5156622	89.61636078	5.42018268	-16.63870032
1.17	117	0.089	-1.003	0.026	0.6302538	-0.1718874	0.5156622	89.62209036	5.4144531	-16.63870032
1.18	118	0.091	-1.004	0.025	0.4583664	0	0.4010706	89.62781994	5.4144531	-16.63870032
1.19	119	0.091	-1.005	0.022	0.4010706	0.1718874	0.4583664	89.63354952	5.40872352	-16.63870032
1.2	120	0.091	-1.006	0.02	0.3437748	0	0.4010706	89.65646784	5.40872352	-16.63870032
1.21	121	0.089	-1.007	0.022	0.2291832	0	0.5156622	89.65646784	5.40299394	-16.63870032
1.22	122	0.088	-1.005	0.023	0.2291832	0.1145916	0.572958	89.66219742	5.39726436	-16.63870032
1.23	123	0.087	-1.003	0.026	0.286479	0.1718874	0.572958	89.667927	5.39153478	-16.63870032
1.24	124	0.088	-1	0.025	0.286479	0.3437748	0.5156622	89.667927	5.3858052	-16.63297074
1.25	125	0.09	-1.001	0.024	0.3437748	0.4583664	0.572958	89.68511574	5.3858052	-16.63297074
1.26	126	0.091	-1.002	0.026	0.2291832	0.4010706	0.572958	89.69084532	5.38007562	-16.62724116
1.27	127	0.09	-1.004	0.027	0.2291832	0.2291832	0.6302538	89.69084532	5.37434604	-16.62151158
1.28	128	0.09	-1.004	0.027	0.2291832	0.2291832	0.4583664	89.6965749	5.36861646	-16.62151158
1.29	129	0.089	-1.004	0.028	0.2291832	0.1145916	0.3437748	89.6965749	5.36861646	-16.62151158
1.3	130	0.089	-1.001	0.028	0.3437748	0	0.286479	89.7538707	5.37434604	-16.615782
1.31	131	0.09	-1	0.029	0.5156622	0	0.286479	89.75960028	5.36861646	-16.615782
1.32	132	0.092	-1	0.028	0.7448454	0	0.286479	89.77105944	5.36288688	-16.615782
1.33	133	0.093	-1.001	0.031	0.8021412	0	0.2291832	89.77678902	5.36288688	-16.615782
1.34	134	0.092	-1.002	0.031	0.6875496	0	0.2291832	89.7825186	5.36288688	-16.615782
1.35	135	0.091	-1.002	0.03	0.6302538	-0.1145916	0.2291832	89.82262566	5.36861646	-16.62151158
1.36	136	0.089	-0.999	0.028	0.7448454	-0.0572958	0.286479	89.83408482	5.36288688	-16.62151158
1.37	137	0.09	-0.999	0.031	0.9167328	0	0.3437748	89.8398144	5.36288688	-16.62151158
1.38	138	0.089	-0.999	0.034	1.0886202	0	0.286479	89.85127356	5.3571573	-16.62151158
1.39	139	0.089	-1	0.035	1.0313244	0.1145916	0.3437748	89.86273272	5.3571573	-16.62151158
1.4	140	0.09	-1.004	0.034	0.859437	0.3437748	0.3437748	89.90283978	5.35142772	-16.615782
1.41	141	0.09	-1.005	0.031	0.572958	0.1718874	0.4010706	89.90856936	5.35142772	-16.615782
1.42	142	0.091	-1.003	0.028	0.1718874	-0.1718874	0.1718874	89.90856936	5.34569814	-16.615782
1.43	143	0.089	-1	0.027	0.0572958	-0.1718874	-0.1145916	89.91429894	5.35142772	-16.615782
1.44	144	0.089	-1.002	0.031	0.1145916	0	-0.286479	89.91429894	5.35142772	-16.615782
1.45	145	0.089	-1.005	0.033	-0.0572958	0	-0.4583664	89.94867642	5.36288688	-16.615782
1.46	146	0.091	-1.007	0.031	-0.286479	-0.1718874	-0.4010706	89.94867642	5.36861646	-16.62151158
1.47	147	0.091	-1.008	0.03	-0.1718874	-0.1145916	-0.1718874	89.94294684	5.36861646	-16.62151158
1.48	148	0.093	-1.011	0.029	-0.1718874	0	0	89.94294684	5.36861646	-16.62151158
1.49	149	0.093	-1.016	0.033	-0.3437748	-0.1145916	0.286479	89.93721726	5.36288688	-16.62151158
1.5	150	0.093	-1.015	0.036	-0.9167328	0	0.286479	89.96013558	5.36861646	-16.62724116
1.51	151	0.093	-1.01	0.033	-1.432395	0	0.2291832	89.94294684	5.36861646	-16.62151158
1.52	152	0.093	-1.004	0.03	-1.6042824	0.1718874	0.1718874	89.9257581	5.36288688	-16.62151158
1.53	153	0.092	-1.002	0.028	-1.5469866	0.1718874	0.1145916	89.90856936	5.36288688	-16.62151158
1.54	154	0.09	-1	0.027	-1.3750992	0	0.0572958	89.8971102	5.36288688	-16.62151158
1.55	155	0.089	-0.998	0.028	-1.145916	-0.0572958	0	89.90856936	5.36288688	-16.62151158
1.56	156	0.088	-0.998	0.031	-1.0886202	0	0	89.8971102	5.36861646	-16.62151158
1.57	157	0.088	-0.997	0.03	-1.0313244	0	0	89.88565104	5.36861646	-16.62151158
1.58	158	0.089	-0.997	0.028	-1.0313244	0.1145916	0	89.87419188	5.36861646	-16.62151158
1.59	159	0.088	-0.999	0.03	-1.0313244	0.286479	0.1718874	89.86273272	5.36288688	-16.615782
1.6	160	0.089	-1	0.029	-0.9740286	0.4583664	0.2291832	89.8684623	5.36288688	-16.61005242
1.61	161	0.088	-1.002	0.027	-0.9167328	0.572958	0.2291832	89.85700314	5.36288688	-16.60432284
1.62	162	0.087	-1.002	0.027	-0.9740286	0.6302538	0.286479	89.85127356	5.3571573	-16.59859326
1.63	163	0.089	-1.004	0.028	-0.9740286	0.7448454	0.1718874	89.8398144	5.3571573	-16.59286368
1.64	164	0.089	-1.004	0.027	-0.9740286	0.859437	0.0572958	89.82835524	5.35142772	-16.58140452
1.65	165	0.089	-1.005	0.028	-1.0313244	0.859437	0.0572958	89.83408482	5.3571573	-16.57567494
1.66	166	0.089	-1.006	0.03	-1.2605076	0.9740286	0	89.82262566	5.3571573	-16.56421578
1.67	167	0.09	-1.009	0.029	-1.3750992	1.0313244	0	89.80543692	5.35142772	-16.55275662
1.68	168	0.094	-1.011	0.024	-1.718874	1.145916	0.1145916	89.78824818	5.35142772	-16.54129746
1.69	169	0.095	-1.012	0.025	-1.718874	0.859437	0.1718874	89.77678902	5.35142772	-16.53556788
1.7	170	0.094	-1.011	0.029	-1.9480572	0.572958	0.1718874	89.76532986	5.35142772	-16.5298383
1.71	171	0.091	-1.008	0.027	-2.3491278	0.5156622	0.2291832	89.74241154	5.34569814	-16.52410872
1.72	172	0.09	-1.007	0.024	-2.578311	0.572958	0.1718874	89.71949322	5.34569814	-16.51837914
1.73	173	0.089	-1.006	0.023	-2.4637194	0.5156622	0.1145916	89.69084532	5.34569814	-16.51264956
1.74	174	0.088	-1.004	0.024	-2.3491278	0.572958	0.1145916	89.667927	5.33996856	-16.50691998
1.75	175	0.087	-1.004	0.028	-2.5210152	0.5156622	0.1718874	89.65646784	5.33996856	-16.5011904
1.76	176	0.087	-1.005	0.034	-3.0939732	0.572958	0.286479	89.62209036	5.33423898	-16.49546082
1.77	177	0.088	-1.003	0.031	-3.6669312	0.859437	0.3437748	89.58771288	5.33423898	-16.48973124
1.78	178	0.089	-1.002	0.025	-3.8961144	1.145916	0.3437748	89.54760582	5.3285094	-16.47827208
1.79	179	0.091	-1.003	0.023	-3.8961144	1.3178034	0.4583664	89.50749876	5.32277982	-16.46108334
1.8	180	0.089	-1.006	0.026	-3.9534102	1.3178034	0.572958	89.47885086	5.31705024	-16.44962418
1.81	181	0.087	-1.01	0.036	-4.2398892	1.4896908	0.6302538	89.4387438	5.31132066	-16.43816502
1.82	182	0.087	-1.008	0.036	-4.8128472	2.1199446	0.6875496	89.38717758	5.2998615	-16.4152467
1.83	183	0.089	-1.007	0.03	-4.9847346	2.3491278	0.572958	89.34134094	5.29413192	-16.39232838
1.84	184	0.09	-1.004	0.027	-4.9847346	2.3491278	0.572958	89.28977472	5.28840234	-16.36941006
1.85	185	0.093	-1.006	0.024	-4.7555514	2.0626488	0.5156622	89.24966766	5.28840234	-16.34649174
1.86	186	0.093	-1.006	0.025	-4.3544808	1.7761698	0.4010706	89.2095606	5.28267276	-16.329303
1.87	187	0.093	-1.003	0.029	-4.0680018	1.6042824	0.3437748	89.16945354	5.27694318	-16.31784384
1.88	188	0.096	-1	0.026	-3.8388186	1.4896908	0.4583664	89.12934648	5.2712136	-16.3006551
1.89	189	0.095	-1.001	0.019	-3.7815228	1.432395	0.4583664	89.08923942	5.26548402	-16.28346636
1.9	190	0.093	-1.003	0.018	-3.6669312	1.3750992	0.572958	89.06059152	5.25975444	-16.2720072
1.91	191	0.09	-1.005	0.02	-3.6096354	0.9740286	0.572958	89.02621404	5.25402486	-16.26627762
1.92	192	0.088	-1.004	0.02	-3.6669312	0.6302538	0.3437748	88.99183656	5.25402486	-16.25481846
1.93	193	0.088	-1.003	0.017	-3.6669312	0.572958	0.286479	88.9517295	5.24829528	-16.24908888
1.94	194	0.089	-1.003	0.013	-3.6096354	0.3437748	0.286479	88.91735202	5.2425657	-16.24908888
1.95	195	0.088	-1.004	0.011	-3.3804522	0.2291832	0.286479	88.88870412	5.2425657	-16.24908888
1.96	196	0.089	-1.006	0.012	-3.2085648	0.2291832	0.4010706	88.86005622	5.2425657	-16.2433593
1.97	197	0.089	-1.009	0.011	-3.4950438	0.286479	0.5156622	88.81994916	5.23683612	-16.2433593
1.98	198	0.088	-1.009	0.005	-3.4950438	0.2291832	0.4583664	88.78557168	5.23110654	-16.23762972
1.99	199	0.086	-1.008	0.002	-3.4950438	0.1718874	0.4583664	88.7511942	5.22537696	-16.23762972
2	200	0.084	-1.006	0	-3.4950438	0.1145916	0.5156622	88.71681672	5.2139178	-16.23762972
2.01	201	0.081	-1.006	-0.002	-3.3804522	0	0.5156622	88.67670966	5.20818822	-16.23762972
2.02	202	0.08	-1.005	-0.002	-3.437748	-0.1145916	0.4010706	88.64233218	5.20818822	-16.23762972
2.03	203	0.081	-1.006	-0.001	-3.6096354	-0.1145916	0.3437748	88.6079547	5.20245864	-16.23762972
2.04	204	0.082	-1.006	-0.003	-3.8388186	-0.1718874	0.286479	88.56784764	5.19672906	-16.2433593
2.05	205	0.08	-1.006	-0.005	-4.1252976	-0.1145916	0.286479	88.522011	5.19099948	-16.2433593
2.06	206	0.081	-1.005	-0.008	-3.8961144	0.1145916	0.3437748	88.48190394	5.1852699	-16.2433593
2.07	207	0.081	-1.007	-0.006	-4.0680018	0.3437748	0.3437748	88.44179688	5.1852699	-16.23762972
2.08	208	0.083	-1.005	-0.003	-4.1252976	0.3437748	0.3437748	88.39596024	5.17954032	-16.23762972
2.09	209	0.084	-1.005	-0.005	-4.4117766	0.286479	0.3437748	88.35585318	5.17381074	-16.23190014
2.1	210	0.086	-1.006	-0.008	-4.3544808	0.1718874	0.286479	88.31001654	5.17381074	-16.23190014
2.11	211	0.086	-1.008	-0.009	-4.297185	0.0572958	0.1718874	88.2641799	5.16808116	-16.23190014
2.12	212	0.087	-1.009	-0.006	-4.3544808	0	0.0572958	88.21834326	5.16808116	-16.23190014
2.13	213	0.088	-1.008	-0.006	-4.4117766	-0.1718874	0.0572958	88.17250662	5.16808116	-16.23190014
2.14	214	0.088	-1.008	-0.007	-4.4117766	-0.286479	0.1145916	88.13239956	5.16235158	-16.23762972
2.15	215	0.086	-1.004	-0.001	-4.3544808	-0.286479	0.1145916	88.0922925	5.16235158	-16.2433593
2.16	216	0.085	-1.002	0.002	-4.583664	-0.1718874	0.1145916	88.04645586	5.16235158	-16.2433593
2.17	217	0.085	-1.002	-0.003	-4.8128472	-0.286479	0	87.99488964	5.16235158	-16.24908888
2.18	218	0.085	-1.004	-0.007	-5.0420304	-0.2291832	0	87.94332342	5.16235158	-16.24908888
2.19	219	0.085	-1.007	-0.004	-5.2139178	-0.3437748	0.0572958	87.8917572	5.16235158	-16.25481846
2.2	220	0.084	-1.01	0	-5.2139178	-0.286479	0	87.84592056	5.156622	-16.25481846
2.21	221	0.085	-1.011	-0.001	-5.443101	-0.0572958	-0.1718874	87.79435434	5.16235158	-16.26054804
2.22	222	0.085	-1.008	-0.006	-5.7868758	0	-0.2291832	87.73132896	5.16235158	-16.26054804
2.23	223	0.086	-1.004	-0.01	-5.6722842	-0.0572958	-0.286479	87.67403316	5.16808116	-16.26054804
2.24	224	0.085	-1.001	-0.009	-5.6149884	-0.2291832	-0.4583664	87.61673736	5.16808116	-16.26054804
2.25	225	0.084	-1.003	-0.004	-5.6722842	-0.0572958	-0.6302538	87.57090072	5.17381074	-16.26627762
2.26	226	0.086	-1.006	-0.003	-5.9587632	-0.0572958	-0.6875496	87.50787534	5.17954032	-16.26627762
2.27	227	0.086	-1.009	-0.004	-6.2452422	-0.1718874	-0.7448454	87.44484996	5.19099948	-16.2720072
2.28	228	0.085	-1.012	-0.003	-6.589017	-0.1145916	-0.6302538	87.376095	5.19672906	-16.2720072
2.29	229	0.085	-1.015	-0.002	-6.9327918	0	-0.4010706	87.30734004	5.19672906	-16.2720072
2.3	230	0.088	-1.016	-0.004	-7.2765666	0	-0.2291832	87.23858508	5.20245864	-16.2720072
2.31	231	0.091	-1.015	-0.01	-7.734933	0	-0.1718874	87.16410054	5.20245864	-16.2720072
2.32	232	0.091	-1.015	-0.011	-8.1360036	0.0572958	0	87.07815684	5.20245864	-16.2720072
2.33	233	0.09	-1.014	-0.014	-8.1932994	0.0572958	-0.0572958	86.99794272	5.20245864	-16.27773678
2.34	234	0.088	-1.013	-0.016	-8.4224826	-0.1718874	-0.1145916	86.91199902	5.20245864	-16.27773678
2.35	235	0.086	-1.01	-0.016	-8.8235532	-0.4010706	-0.1145916	86.82605532	5.20245864	-16.28346636
2.36	236	0.083	-1.008	-0.014	-9.1100322	-0.6875496	-0.1145916	86.73438204	5.20818822	-16.28919594
2.37	237	0.083	-1.008	-0.011	-9.5111028	-0.6875496	-0.1145916	86.63697918	5.20818822	-16.3006551
2.38	238	0.085	-1.007	-0.016	-10.1413566	-0.6875496	-0.1145916	86.53384674	5.20818822	-16.30638468
2.39	239	0.09	-1.005	-0.023	-10.6570188	-0.4583664	-0.1145916	86.42498472	5.20818822	-16.31211426
2.4	240	0.09	-1.004	-0.022	-10.886202	-0.286479	0	86.3161227	5.20818822	-16.31784384
2.41	241	0.089	-1.007	-0.022	-11.2299768	0	0.2291832	86.2015311	5.20245864	-16.31784384
2.42	242	0.089	-1.01	-0.031	-11.5164558	0.1145916	0.286479	86.0869395	5.20245864	-16.31784384
2.43	243	0.085	-1.012	-0.03	-11.8602306	0.286479	0.4583664	85.96661832	5.19672906	-16.31784384
2.44	244	0.083	-1.008	-0.032	-12.3758928	0.3437748	0.4583664	85.84056756	5.19099948	-16.31211426
2.45	245	0.086	-1.001	-0.032	-12.605076	0.4010706	0.3437748	85.72024638	5.1852699	-16.31211426
2.46	246	0.095	-0.994	-0.031	-13.0061466	0.286479	0.0572958	85.58846604	5.1852699	-16.30638468
2.47	247	0.099	-0.997	-0.031	-13.1207382	-0.286479	-0.1145916	85.45095612	5.1852699	-16.31211426
2.48	248	0.102	-1.009	-0.026	-13.6364004	-0.9740286	-0.1718874	85.3134462	5.1852699	-16.32357342
2.49	249	0.101	-1.027	-0.026	-14.32395	-1.3750992	-0.2291832	85.16447712	5.1852699	-16.34076216
2.5	250	0.101	-1.044	-0.032	-14.8396122	-1.718874	-0.1145916	85.02123762	5.1852699	-16.3579509
2.51	251	0.103	-1.057	-0.024	-15.6417534	-2.1772404	0.0572958	84.86080938	5.1852699	-16.38086922
2.52	252	0.104	-1.054	-0.036	-16.9595568	-2.7501984	0.286479	84.68892198	5.17954032	-16.4152467
2.53	253	0.099	-1.046	-0.034	-17.9335854	-3.151269	0.5156622	84.49984584	5.16808116	-16.4438946
2.54	254	0.092	-1.035	-0.038	-19.1367972	-3.2658606	0.6302538	84.30504012	5.156622	-16.47827208
2.55	255	0.085	-1.024	-0.042	-19.9389384	-3.151269	0.6302538	84.10450482	5.14516284	-16.51264956
2.56	256	0.08	-1.022	-0.043	-20.9702628	-2.7501984	0.6302538	83.89251036	5.13370368	-16.54129746
2.57	257	0.076	-1.019	-0.049	-21.6578124	-2.291832	0.4583664	83.66905674	5.1279741	-16.56421578
2.58	258	0.077	-1.019	-0.055	-22.345362	-1.9480572	0.3437748	83.43987354	5.11651494	-16.5871341
2.59	259	0.08	-1.019	-0.06	-23.204799	-1.8334656	0.4583664	83.19923118	5.11078536	-16.61005242
2.6	260	0.079	-1.017	-0.067	-24.1788276	-1.8334656	0.4583664	82.95858882	5.0993262	-16.62724116
2.61	261	0.079	-1.018	-0.069	-25.0382646	-2.005353	0.572958	82.70075772	5.08786704	-16.65015948
2.62	262	0.079	-1.016	-0.069	-25.8977016	-2.1772404	0.6302538	82.43719704	5.07640788	-16.6730778
2.63	263	0.08	-1.012	-0.074	-26.929026	-2.578311	0.6875496	82.1621772	5.06494872	-16.7017257
2.64	264	0.085	-1.005	-0.07	-27.501984	-2.578311	0.6875496	81.88142778	5.05348956	-16.7303736
2.65	265	0.086	-1.006	-0.068	-27.9603504	-1.9480572	0.7448454	81.60067836	5.0420304	-16.74756234
2.66	266	0.084	-1.01	-0.077	-28.5333084	-1.5469866	0.7448454	81.31419936	5.03057124	-16.76475108
2.67	267	0.083	-1.019	-0.09	-29.3927454	-1.3750992	0.9167328	81.01053162	5.01911208	-16.78193982
2.68	268	0.081	-1.027	-0.101	-30.4240698	-1.2605076	1.145916	80.7011343	5.00192334	-16.79339898
2.69	269	0.08	-1.029	-0.108	-31.1689152	-1.6042824	1.2032118	80.3860074	4.9847346	-16.81058772
2.7	270	0.084	-1.025	-0.094	-31.226211	-1.8907614	1.2032118	80.0708805	4.96754586	-16.83350604
2.71	271	0.085	-1.023	-0.095	-32.2575354	-2.005353	1.0886202	79.74429444	4.95035712	-16.85069478
2.72	272	0.087	-1.025	-0.117	-33.804522	-2.4637194	1.145916	79.40051964	4.9274388	-16.87934268
2.73	273	0.088	-1.024	-0.122	-35.2942128	-2.8074942	1.3178034	79.0395561	4.91025006	-16.90799058
2.74	274	0.087	-1.012	-0.122	-36.669312	-3.3804522	1.2605076	78.66140382	4.88733174	-16.94236806
2.75	275	0.087	-0.991	-0.107	-36.2109456	-4.4117766	1.0313244	78.30044028	4.86441342	-16.9882047
2.76	276	0.09	-0.989	-0.099	-35.9817624	-4.9274388	0.859437	77.93374716	4.84722468	-17.03977092
2.77	277	0.09	-1.001	-0.134	-38.388186	-5.0993262	0.7448454	77.53840614	4.82430636	-17.09133714
2.78	278	0.089	-1.022	-0.148	-40.3362432	-4.583664	0.572958	77.12587638	4.80711762	-17.13717378
2.79	279	0.082	-1.028	-0.145	-41.7113424	-3.3804522	0.3437748	76.69615788	4.78992888	-17.17155126
2.8	280	0.074	-1.032	-0.142	-43.3156248	-3.9534102	-0.0572958	76.2607098	4.77846972	-17.2173879
2.81	281	0.077	-1.03	-0.134	-44.117766	-4.5263682	-0.4583664	75.81380256	4.76701056	-17.26322454
2.82	282	0.076	-1.033	-0.138	-45.7220484	-5.5003968	-0.6875496	75.343977	4.76128098	-17.32624992
2.83	283	0.076	-1.031	-0.161	-48.0138804	-6.2452422	-0.5156622	74.85123312	4.74409224	-17.3892753
2.84	284	0.077	-1.026	-0.167	-48.3576552	-6.6463128	-0.286479	74.35275966	4.7269035	-17.45803026
2.85	285	0.079	-1.028	-0.168	-49.4462754	-6.8182002	-0.4010706	73.8542862	4.70971476	-17.5325148
2.86	286	0.084	-1.028	-0.17	-50.4775998	-6.6463128	-0.572958	73.338624	4.69252602	-17.60126976
2.87	287	0.087	-1.029	-0.169	-51.9099948	-6.1879464	-0.8021412	72.80577306	4.67533728	-17.66429514
2.88	288	0.089	-1.018	-0.18	-54.717489	-5.8441716	-0.859437	72.24427422	4.66387812	-17.72732052
2.89	289	0.087	-0.997	-0.184	-56.2644756	-5.156622	-0.9167328	71.67131622	4.65241896	-17.78461632
2.9	290	0.087	-0.989	-0.196	-57.1239126	-4.6982556	-0.9740286	71.09262864	4.6409598	-17.83618254
2.91	291	0.096	-0.982	-0.205	-58.2698286	-4.8128472	-0.8021412	70.5024819	4.62950064	-17.89347834
2.92	292	0.096	-0.98	-0.208	-58.9000824	-5.2712136	-0.4583664	69.900876	4.6123119	-17.95077414
2.93	293	0.095	-0.984	-0.229	-60.447069	-6.1879464	-0.0572958	69.28208136	4.583664	-18.01379952
2.94	294	0.109	-0.979	-0.255	-62.165943	-7.1046792	0	68.64609798	4.5550161	-18.08255448
2.95	295	0.112	-0.984	-0.266	-62.165943	-9.0527364	0.2291832	68.01584418	4.51490904	-18.17422776
2.96	296	0.102	-0.994	-0.26	-62.5670136	-12.0894138	0.4583664	67.36840164	4.46334282	-18.28881936
2.97	297	0.096	-0.996	-0.243	-62.8534926	-14.2093584	0.286479	66.72668868	4.40031744	-18.4205997
2.98	298	0.097	-0.999	-0.254	-64.2858876	-15.6417534	-0.2291832	66.0620574	4.33729206	-18.56956878
2.99	299	0.095	-0.999	-0.275	-66.463128	-16.042824	-1.2032118	65.38023738	4.27999626	-18.72999702
3	300	0.095	-0.987	-0.279	-67.4944524	-16.042824	-2.291832	64.69268778	4.22843004	-18.89042526
3.01	301	0.095	-0.981	-0.297	-68.75496	-16.1001198	-3.0939732	63.98221986	4.1825934	-19.0508535
3.02	302	0.086	-0.979	-0.32	-70.187355	-16.1001198	-3.4950438	63.26029278	4.14248634	-19.21701132
3.03	303	0.08	-0.975	-0.336	-71.4478626	-15.5271618	-3.6096354	62.52690654	4.0966497	-19.37743956
3.04	304	0.08	-0.972	-0.353	-73.2813282	-13.8082878	-3.724227	61.77060198	4.06227222	-19.52640864
3.05	305	0.081	-0.964	-0.357	-74.2553568	-12.032118	-3.8961144	61.020027	4.03362432	-19.6524594
3.06	306	0.081	-0.962	-0.382	-74.8856106	-12.1467096	-3.6096354	60.25226328	3.99924684	-19.78423974
3.07	307	0.08	-0.964	-0.411	-75.343977	-13.750992	-2.8074942	59.47876998	3.94768062	-19.92174966
3.08	308	0.077	-0.966	-0.415	-75.6877518	-14.3812458	-2.1772404	58.6995471	3.88465524	-20.05925958
3.09	309	0.08	-0.958	-0.421	-76.2607098	-14.7250206	-2.5210152	57.92032422	3.82735944	-20.20249908
3.1	310	0.088	-0.94	-0.429	-77.062851	-15.469866	-3.7815228	57.13537176	3.77006364	-20.36292732
3.11	311	0.089	-0.921	-0.433	-78.4379502	-16.9595568	-4.1825934	56.32750098	3.70703826	-20.52908514
3.12	312	0.078	-0.9	-0.45	-80.6151906	-17.8762896	-3.9534102	55.50244146	3.63255372	-20.70670212
3.13	313	0.064	-0.875	-0.476	-81.932994	-18.2200644	-3.7815228	54.6601932	3.55806918	-20.8843191
3.14	314	0.044	-0.854	-0.496	-81.932994	-17.7044022	-3.7815228	53.82367452	3.47785506	-21.0562065
3.15	315	0.031	-0.855	-0.519	-82.219473	-16.6730778	-3.7815228	52.98142626	3.39764094	-21.21663474
3.16	316	0.024	-0.863	-0.531	-81.8184024	-15.756345	-3.6669312	52.14490758	3.32888598	-21.36560382
3.17	317	0.019	-0.865	-0.532	-81.5892192	-14.7823164	-3.0939732	51.3083889	3.25440144	-21.50884332
3.18	318	0.028	-0.847	-0.559	-82.0475856	-14.0947668	-1.8907614	50.47187022	3.17418732	-21.63489408
3.19	319	0.04	-0.818	-0.583	-81.646515	-14.2666542	-0.9740286	49.64108112	3.08251404	-21.75521526
3.2	320	0.048	-0.788	-0.594	-80.5578948	-15.2979786	-0.4583664	48.82175118	2.9793816	-21.87553644
3.21	321	0.062	-0.766	-0.603	-79.6984578	-16.1001198	-0.6302538	48.00815082	2.87051958	-22.00731678
3.22	322	0.073	-0.744	-0.617	-78.2660628	-15.9855282	-1.2605076	47.20600962	2.76738714	-22.13909712
3.23	323	0.091	-0.739	-0.63	-76.5471888	-16.5584862	-1.3750992	46.42678674	2.65852512	-22.27087746
3.24	324	0.09	-0.736	-0.635	-74.9429064	-17.9335854	-1.0886202	45.65902302	2.53247436	-22.41411696
3.25	325	0.077	-0.734	-0.638	-73.7396946	-19.8816426	-0.9740286	44.90844804	2.40069402	-22.56308604
3.26	326	0.058	-0.729	-0.631	-72.6510744	-21.0848544	-0.859437	44.16933222	2.25172494	-22.72351428
3.27	327	0.039	-0.725	-0.633	-71.5624542	-20.4546006	-1.0313244	43.44167556	2.10275586	-22.87821294
3.28	328	0.02	-0.722	-0.628	-69.8435802	-19.8243468	-1.2605076	42.73120764	1.96524594	-23.02718202
3.29	329	0.011	-0.724	-0.634	-68.9841432	-18.907614	-1.0313244	42.0264693	1.82773602	-23.16469194
3.3	330	0.005	-0.712	-0.632	-68.5830726	-17.8762896	-0.8021412	41.33319012	1.69595568	-23.2907427
3.31	331	-0.001	-0.693	-0.626	-67.7236356	-17.3606274	-0.859437	40.64564052	1.56417534	-23.41679346
3.32	332	-0.004	-0.677	-0.631	-66.8069028	-17.3033316	-0.572958	39.9638205	1.432395	-23.53711464
3.33	333	0	-0.666	-0.633	-65.603691	-17.18874	0	39.29918922	1.29488508	-23.64597666
3.34	334	0.011	-0.661	-0.629	-64.0567044	-16.1574156	0.3437748	38.65174668	1.15737516	-23.7491091
3.35	335	0.013	-0.653	-0.622	-62.7961968	-15.8709366	0.9167328	38.02149288	1.02559482	-23.84651196
3.36	336	0.006	-0.628	-0.621	-61.7075766	-15.9282324	1.718874	37.39123908	0.88235532	-23.93245566
3.37	337	-0.001	-0.599	-0.617	-59.9314068	-15.9282324	2.9793816	36.7839036	0.73338624	-24.0069402
3.38	338	-0.002	-0.581	-0.614	-57.9833496	-15.5271618	4.297185	36.19948644	0.57868758	-24.064236
3.39	339	-0.002	-0.577	-0.617	-56.0352924	-14.7823164	5.2139178	35.63225802	0.42398892	-24.11580222
3.4	340	0.001	-0.581	-0.615	-54.2591226	-14.0947668	5.9014674	35.08794792	0.26929026	-24.1501797
3.41	341	0.006	-0.583	-0.62	-52.712136	-13.5791046	6.1306506	34.55509698	0.12032118	-24.1788276
3.42	342	0.008	-0.578	-0.619	-51.3943326	-12.7769634	6.2452422	34.0337052	-0.01718874	-24.20174592
3.43	343	0.002	-0.572	-0.62	-49.7900502	-12.4331886	6.016059	33.52950216	-0.16042824	-24.22466424
3.44	344	-0.007	-0.566	-0.624	-48.3576552	-11.8602306	5.9587632	33.04248786	-0.29793816	-24.24185298
3.45	345	-0.011	-0.565	-0.627	-47.0971476	-11.0007936	5.9587632	32.5726623	-0.42398892	-24.25331214
3.46	346	-0.013	-0.569	-0.633	-45.9512316	-10.8289062	6.1879464	32.10856632	-0.55576926	-24.25904172
3.47	347	-0.014	-0.575	-0.638	-44.977203	-10.7143146	6.7609044	31.6559295	-0.68182002	-24.25904172
3.48	348	-0.011	-0.575	-0.638	-44.404245	-10.4278356	7.2765666	31.20329268	-0.81360036	-24.25331214
3.49	349	-0.016	-0.569	-0.641	-43.8885828	-10.1986524	7.3911582	30.76211502	-0.9453807	-24.24758256
3.5	350	-0.03	-0.571	-0.645	-43.4302164	-9.6829902	7.3911582	30.33239652	-1.07143146	-24.23039382
3.51	351	-0.029	-0.587	-0.65	-43.3729206	-8.9954406	8.021412	29.89694844	-1.19175264	-24.2074755
3.52	352	-0.023	-0.602	-0.667	-43.831287	-8.880849	8.9954406	29.4500412	-1.3178034	-24.1788276
3.53	353	-0.018	-0.608	-0.673	-44.404245	-9.6256944	9.6829902	28.99740438	-1.45531332	-24.14445012
3.54	354	-0.023	-0.608	-0.683	-45.3209778	-9.9694692	9.6829902	28.53903798	-1.59282324	-24.10434306
3.55	355	-0.033	-0.611	-0.69	-46.409598	-9.167328	9.2819196	28.08640116	-1.72460358	-24.06996558
3.56	356	-0.036	-0.615	-0.697	-47.6701056	-7.7922288	8.7089616	27.59938686	-1.83919518	-24.02985852
3.57	357	-0.036	-0.623	-0.697	-48.987909	-6.3598338	8.7089616	27.1009134	-1.94232762	-23.98402188
3.58	358	-0.035	-0.629	-0.693	-50.6494872	-4.583664	8.880849	26.59098078	-2.02827132	-23.92672608
3.59	359	-0.035	-0.632	-0.694	-52.3683612	-2.5210152	9.3965112	26.05240026	-2.09702628	-23.85224154
3.6	360	-0.031	-0.637	-0.708	-54.2018268	-1.4896908	9.7975818	25.51954932	-2.16005166	-23.77202742
3.61	361	-0.024	-0.652	-0.706	-56.2071798	-0.6875496	9.9694692	24.94659132	-2.21734746	-23.68035414
3.62	362	-0.013	-0.666	-0.701	-58.3271244	0.1718874	9.9121734	24.350715	-2.26891368	-23.58868086
3.63	363	0	-0.68	-0.718	-60.8481396	0.286479	9.740286	23.73192036	-2.30902074	-23.49700758
3.64	364	0.007	-0.694	-0.713	-63.02538	0.2291832	9.6829902	23.0902074	-2.35485738	-23.4053343
3.65	365	0.014	-0.701	-0.706	-65.603691	-0.1718874	9.740286	22.44276486	-2.40069402	-23.3193906
3.66	366	0.023	-0.702	-0.71	-68.9268474	-1.145916	9.9121734	21.73802652	-2.45798982	-23.22771732
3.67	367	0.024	-0.705	-0.7	-71.7343416	-2.86479	10.2559482	21.01036986	-2.53247436	-23.14177362
3.68	368	0.018	-0.714	-0.69	-74.4272442	-4.1252976	10.313244	20.24833572	-2.61841806	-23.0615595
3.69	369	0.016	-0.707	-0.696	-77.7504006	-4.3544808	10.3705398	19.45765368	-2.70436176	-22.9756158
3.7	370	0.014	-0.7	-0.688	-80.5578948	-4.1825934	10.8289062	18.66124206	-2.78457588	-22.8896721
3.71	371	0.009	-0.695	-0.679	-83.2507974	-4.4117766	11.3445684	17.81326422	-2.87624916	-22.79226924
3.72	372	0.008	-0.689	-0.65	-86.4020664	-4.2398892	11.9175264	16.9309089	-2.96219286	-22.6891368
3.73	373	0.008	-0.678	-0.642	-89.6106312	-3.8961144	12.1467096	16.0141761	-3.04240698	-22.58027478
3.74	374	0.012	-0.668	-0.632	-92.3035338	-4.0680018	12.2040054	15.07452498	-3.12835068	-22.47141276
3.75	375	0.016	-0.663	-0.594	-93.9078162	-4.9274388	12.605076	14.14060344	-3.21429438	-22.36255074
3.76	376	0.024	-0.662	-0.573	-95.970465	-5.9587632	13.178034	13.16084526	-3.31742682	-22.24222956
3.77	377	0.032	-0.657	-0.563	-97.9185222	-5.9014674	13.2926256	12.15816876	-3.41482968	-22.12190838
3.78	378	0.042	-0.67	-0.534	-99.408213	-5.6149884	12.8342592	11.1440331	-3.51223254	-22.00731678
3.79	379	0.039	-0.681	-0.46	-101.2989744	-6.9327918	12.4331886	10.10697912	-3.61536498	-21.89272518
3.8	380	0.032	-0.668	-0.452	-104.4502434	-9.0527364	12.4904844	9.06992514	-3.72995658	-21.78386316
3.81	381	0.043	-0.632	-0.403	-106.1691174	-10.2559482	12.605076	7.98703452	-3.86173692	-21.66927156
3.82	382	0.046	-0.598	-0.267	-107.2004418	-11.0580894	12.0894138	6.89268474	-3.99924684	-21.56040954
3.83	383	0.004	-0.565	-0.259	-108.8047242	-10.6570188	11.8602306	5.78114622	-4.13102718	-21.45154752
3.84	384	-0.05	-0.538	-0.282	-109.434978	-8.307891	12.3758928	4.66387812	-4.2398892	-21.33122634
3.85	385	-0.111	-0.526	-0.252	-108.6328368	-4.1252976	13.750992	3.56952834	-4.30864416	-21.18798684
3.86	386	-0.168	-0.53	-0.246	-107.429625	2.8074942	15.2406828	2.46944898	-4.30291458	-21.0275586
3.87	387	-0.189	-0.544	-0.239	-110.580894	10.6570188	17.3033316	1.32926256	-4.21697088	-20.83848246
3.88	388	-0.243	-0.59	-0.268	-112.8154302	17.9335854	21.772404	0.16615782	-4.05654264	-20.60929926
3.89	389	-0.291	-0.652	-0.402	-120.8368422	25.4393352	29.4500412	-1.07716104	-3.81590028	-20.29990194
3.9	390	-0.36	-0.696	-0.486	-127.9988172	34.4347758	38.5027776	-2.38350528	-3.48931422	-19.90456092
3.91	391	-0.4	-0.675	-0.545	-140.2028226	45.263682	49.6181628	-3.8388186	-3.03094782	-19.41181704
3.92	392	-0.402	-0.634	-0.696	-149.3701506	56.149884	59.014674	-5.39153478	-2.44653066	-18.84458862
3.93	393	-0.439	-0.498	-0.627	-155.7299844	66.0047616	66.2912406	-7.00154676	-1.74179232	-18.22579398
3.94	394	-0.464	-0.294	-0.599	-157.849929	73.1667366	69.7289886	-8.62874748	-0.95111028	-17.60699934
3.95	395	-0.371	-0.115	-0.573	-154.69866	77.34933	67.895523	-10.21011156	-0.10886202	-17.02831176
3.96	396	-0.237	0.019	-0.452	-144.098937	87.5479824	63.9994086	-11.67688404	0.84797784	-16.5298383
3.97	397	-0.086	0.073	-0.258	-126.5091264	97.1736768	57.2958	-12.96603954	1.89649098	-16.14022686
3.98	398	-0.01	0.113	0.042	-105.6534552	103.2470316	50.0765292	-14.037471	3.00229992	-15.85374786
3.99	399	-0.134	0.072	0.302	-71.333271	105.424272	43.4302164	-14.76512766	4.11956802	-15.65894214
4	400	-0.336	0.018	0.447	-48.3576552	111.6695142	48.0711762	-15.25787154	5.2998615	-15.44694768
4.01	401	-0.5	-0.013	0.614	-31.3408026	125.4205062	56.5509546	-15.56726886	6.6463128	-15.19484616
4.02	402	-0.532	-0.132	0.671	-16.042824	134.7597216	64.6296624	-15.70477878	8.1073557	-14.896908
4.03	403	-0.561	-0.012	0.581	-19.8243468	142.3227672	74.3699484	-15.8709366	9.67153104	-14.5244853
4.04	404	-0.271	0.391	0.333	-19.3086846	155.271618	76.3180056	-16.01990568	11.36175714	-14.16925134
4.05	405	0.267	1.674	-0.574	-15.0687954	148.7398968	49.1597964	-16.17460434	12.9202029	-14.0661189
4.06	406	1.255	3.513	-1.738	45.0344988	130.634424	2.1199446	-15.80791122	14.1807105	-14.3812458
4.07	407	2.113	3.999	-2.64	104.1637644	137.6818074	-7.2765666	-14.87398968	15.49278432	-14.79950514
4.08	408	2.204	3.999	-3.326	149.6566296	140.8330764	48.9306132	-13.32700308	16.98247512	-14.6390769
4.09	409	1.833	3.608	-3.774	188.6177736	160.0844652	78.0368796	-11.29300218	18.71853786	-14.17498092
4.1	410	1.551	3.315	-3.933	194.4046494	176.8148388	51.7954032	-9.26473086	20.55773304	-13.93433856
4.11	411	1.974	2.941	-3.996	174.9813732	164.5535376	43.544808	-7.4198061	22.24795914	-13.69942578
4.12	412	1.199	1.303	-3.407	171.2571462	102.845961	66.9214944	-5.46028974	23.35376808	-13.0920903
4.13	413	0.937	-0.225	-1.853	148.7971926	84.9696714	91.386801	-3.58671708	24.27623046	-12.16389834
4.14	414	1.489	-1.409	-1.115	92.532717	109.148499	72.6510744	-2.34339822	25.39922814	-11.40759378
4.15	415	1.607	-0.894	-1.61	-12.7769634	121.5243918	49.3889796	-2.25172494	26.61962868	-10.87474284
4.16	416	1.684	0.366	-2.199	-81.4746276	85.1415588	35.0650296	-2.91635622	27.46760652	-10.49086098
4.17	417	1.62	0.96	-1.961	-73.4532156	25.2674478	19.480572	-3.56379876	27.71970804	-10.27313694
4.18	418	1.112	0.741	-1.243	-31.6272816	-8.3651868	8.59437	-3.8388186	27.63949392	-10.1700045
4.19	419	0.82	0.246	-0.862	-19.5378678	-7.448454	7.5630456	-3.99351726	27.56500938	-10.0840608
4.2	420	0.561	0.085	-0.626	-39.8778768	-1.7761698	15.9855282	-4.32010332	27.56500938	-9.90644382
4.21	421	0.381	0.215	-0.672	-41.6540466	11.2872726	25.6685184	-4.6123119	27.69106014	-9.61996482
4.22	422	0.309	0.045	-0.66	-22.0015872	18.8503182	24.8090814	-4.71544434	27.89732502	-9.35067456
4.23	423	0.409	0.138	-0.519	-14.3812458	10.9434978	4.870143	-4.83576552	28.00618704	-9.29910834
4.24	424	0.442	0.16	-0.334	-3.3231564	-2.1199446	-15.4125702	-4.95035712	27.97180956	-9.47099574
4.25	425	0.366	0.281	-0.195	-2.7501984	-13.9228794	-18.4492476	-5.0993262	27.83429964	-9.6829902
4.26	426	0.369	0.512	-0.151	-3.8388186	-25.3247436	-8.307891	-5.17381074	27.57646854	-9.76320432
4.27	427	0.355	0.566	-0.14	3.6096354	-39.7059894	-1.6615782	-5.1279741	27.18112752	-9.75174516
4.28	428	0.311	0.539	-0.151	4.5263682	-52.4829528	0.9740286	-5.05348956	26.66546532	-9.70590852
4.29	429	0.244	0.544	-0.192	7.6203414	-55.576926	2.4064236	-4.93889796	26.12115522	-9.64288314
4.3	430	0.161	0.545	-0.26	13.9228794	-53.6288688	2.3491278	-4.80711762	25.59403386	-9.60277608
4.31	431	0.234	0.558	-0.343	18.7357266	-48.414951	3.4950438	-4.57793442	25.11847872	-9.53402112
4.32	432	0.327	0.563	-0.337	20.9702628	-42.7999626	9.3392154	-4.30864416	24.70594896	-9.41369994
4.33	433	0.39	0.52	-0.466	25.1528562	-41.5967508	17.2460358	-3.96486936	24.31060794	-9.20743506
4.34	434	0.456	0.448	-0.713	26.4706596	-46.7533728	24.6944898	-3.56952834	23.8637007	-8.92095606
4.35	435	0.498	0.421	-0.899	25.9549974	-55.6342218	31.1116194	-3.17418732	23.34230892	-8.57718126
4.36	436	0.554	0.37	-1.021	26.0122932	-64.6296624	35.1223254	-2.7501984	22.72351428	-8.18184024
4.37	437	0.526	0.289	-1.152	24.923673	-71.333271	35.523396	-2.33766864	22.03596468	-7.7922288
4.38	438	0.421	0.226	-1.256	21.4286292	-75.1147938	30.5386614	-1.98243468	21.30257844	-7.45991316
4.39	439	0.407	0.204	-1.261	16.329303	-72.8802576	21.6005166	-1.72460358	20.59211052	-7.22500038
4.4	440	0.465	0.185	-1.247	13.2926256	-66.6923112	16.329303	-1.52406828	19.9389384	-7.05311298
4.41	441	0.532	0.161	-1.258	8.1932994	-59.6449278	14.9542038	-1.38082878	19.35452124	-6.89841432
4.42	442	0.631	0.103	-1.269	0	-50.3630082	15.5844576	-1.32353298	18.85604778	-6.73798608
4.43	443	0.681	0.051	-1.28	-7.3911582	-37.2995658	12.8342592	-1.35218088	18.48935466	-6.60620574
4.44	444	0.587	-0.004	-1.148	-8.6516658	-21.199446	4.9847346	-1.42093584	18.2773602	-6.54890994
4.45	445	0.499	-0.07	-1.048	-16.2147114	-2.4064236	-2.6929026	-1.58136408	18.27163062	-6.57755784
4.46	446	0.442	-0.036	-1.023	-23.777757	7.734933	-3.6096354	-1.8334656	18.34611516	-6.61193532
4.47	447	0.399	0.005	-0.996	-21.6005166	8.9381448	4.2398892	-2.03973048	18.43205886	-6.56609868
4.48	448	0.377	-0.009	-0.933	-17.0168526	-1.3750992	11.2299768	-2.1772404	18.4205997	-6.45150708
4.49	449	0.333	-0.069	-0.874	-13.9801752	-12.318597	14.896908	-2.2631841	18.30027852	-6.29107884
4.5	450	0.278	-0.118	-0.856	-13.750992	-15.469866	14.0947668	-2.33193906	18.14557986	-6.1306506
4.51	451	0.196	-0.134	-0.814	-16.1001198	-16.2147114	10.0840608	-2.45798982	17.9908812	-6.02178858
4.52	452	0.17	-0.113	-0.776	-18.4492476	-16.042824	4.870143	-2.62987722	17.83045296	-5.97022236
4.53	453	0.166	-0.084	-0.82	-17.9335854	-18.2773602	0.6302538	-2.80176462	17.6471064	-5.95303362
4.54	454	0.182	-0.055	-0.899	-13.0634424	-23.204799	-0.9740286	-2.93354496	17.4179232	-5.9587632
4.55	455	0.245	-0.049	-0.882	-5.3858052	-27.1009134	-0.3437748	-2.96792244	17.14290336	-5.95303362
4.56	456	0.241	-0.053	-0.876	-0.859437	-29.793816	1.9480572	-2.96792244	16.85069478	-5.92438572
4.57	457	0.192	-0.044	-0.902	4.1825934	-25.3820394	3.4950438	-2.90489706	16.59859326	-5.87854908
4.58	458	0.115	-0.073	-0.899	9.9121734	-17.9908812	1.7761698	-2.79603504	16.42097628	-5.86136034
4.59	459	0.074	-0.124	-0.903	8.4797784	-16.2147114	-1.432395	-2.71582092	16.26054804	-5.8728195
4.6	460	0.085	-0.159	-0.958	7.5057498	-18.1054728	-4.1252976	-2.6069589	16.04855358	-5.89573782
4.61	461	0.144	-0.196	-1.02	10.886202	-21.6005166	-5.443101	-2.50955604	15.83082954	-5.94730404
4.62	462	0.205	-0.229	-1.032	11.745639	-24.2361234	-6.589017	-2.40069402	15.59018718	-6.016059
4.63	463	0.216	-0.216	-1.065	7.734933	-23.3193906	-9.167328	-2.34339822	15.3552744	-6.10773228
4.64	464	0.19	-0.179	-1.113	5.3858052	-17.761698	-12.1467096	-2.3204799	15.17765742	-6.22805346
4.65	465	0.189	-0.132	-1.137	4.5263682	-12.5477802	-14.3812458	-2.291832	15.02868834	-6.37129296
4.66	466	0.147	-0.082	-1.124	4.7555514	-11.6310474	-15.469866	-2.28610242	14.90836716	-6.52599162
4.67	467	0.137	-0.041	-1.063	6.1879464	-7.448454	-15.756345	-2.2631841	14.83388262	-6.69214944
4.68	468	0.156	-0.027	-0.99	6.5317212	-2.291832	-15.5844576	-2.2345362	14.80523472	-6.85257768
4.69	469	0.209	-0.009	-0.959	5.2139178	-0.3437748	-13.178034	-2.21734746	14.79377556	-6.98435802
4.7	470	0.252	0.037	-0.952	4.4117766	0.1145916	-10.1986524	-2.21734746	14.79377556	-7.09322004
4.71	471	0.277	0.075	-0.947	4.4117766	-0.6875496	-7.6776372	-2.19442914	14.7823164	-7.17343416
4.72	472	0.268	0.09	-0.94	4.870143	-2.1772404	-6.5317212	-2.16005166	14.75939808	-7.24218912
4.73	473	0.231	0.09	-0.936	5.5003968	-4.0680018	-7.1046792	-2.1199446	14.71929102	-7.31667366
4.74	474	0.18	0.09	-0.927	4.870143	-4.870143	-8.9954406	-2.09702628	14.6677248	-7.40834694
4.75	475	0.137	0.101	-0.915	2.9220858	-3.8961144	-11.2299768	-2.13140376	14.57605152	-7.52293854
4.76	476	0.101	0.12	-0.907	0.6302538	0	-12.891555	-2.15432208	14.57032194	-7.65471888
4.77	477	0.112	0.133	-0.913	-1.2032118	5.2712136	-13.0634424	-2.2058883	14.61615858	-7.78649922
4.78	478	0.174	0.139	-0.928	-2.5210152	8.9954406	-11.8602306	-2.2631841	14.70210228	-7.91254998
4.79	479	0.237	0.14	-0.949	-3.3231564	11.1153852	-9.0527364	-2.3204799	14.8109643	-8.00422326
4.8	480	0.291	0.135	-0.956	-2.9793816	11.6310474	-6.1879464	-2.41215318	14.93701506	-8.08443738
4.81	481	0.321	0.129	-0.952	-2.3491278	11.745639	-3.6669312	-2.44653066	15.05160666	-8.12454444
4.82	482	0.341	0.122	-0.937	-1.0313244	11.6883432	-1.8334656	-2.4637194	15.16619826	-8.14173318
4.83	483	0.359	0.119	-0.923	-0.4010706	9.6256944	-0.8021412	-2.47517856	15.25787154	-8.15319234
4.84	484	0.362	0.118	-0.923	0.0572958	4.870143	-0.2291832	-2.47517856	15.30943776	-8.15319234
4.85	485	0.366	0.103	-0.93	1.0886202	-0.2291832	0.7448454	-2.57258142	15.44694768	-8.19902898
4.86	486	0.359	0.074	-0.935	1.432395	-4.4117766	1.6615782	-2.55539268	15.40684062	-8.18184024
4.87	487	0.334	0.049	-0.939	0.7448454	-6.6463128	1.8907614	-2.53820394	15.33808566	-8.15892192
4.88	488	0.312	0.037	-0.94	-0.2291832	-6.1306506	1.2605076	-2.53820394	15.28078986	-8.14173318
4.89	489	0.301	0.033	-0.944	-1.0886202	-5.3285094	0.572958	-2.54393352	15.22349406	-8.1360036
4.9	490	0.305	0.029	-0.956	-1.6615782	-4.010706	0.1718874	-2.57258142	15.23495322	-8.14173318
4.91	491	0.318	0.021	-0.986	-0.4583664	-2.1199446	0.3437748	-2.57258142	15.2120349	-8.14173318
4.92	492	0.332	0.005	-1.015	1.6615782	-1.3178034	1.0313244	-2.55539268	15.20057574	-8.13027402
4.93	493	0.342	-0.013	-1.022	2.6356068	-2.9793816	2.005353	-2.5210152	15.17192784	-8.1073557
4.94	494	0.325	-0.007	-1.045	1.7761698	-4.010706	2.6356068	-2.4923673	15.13182078	-8.0787078
4.95	495	0.321	0.002	-1.063	2.291832	-2.1199446	2.5210152	-2.45226024	15.1260912	-8.0500599
4.96	496	0.308	-0.01	-1.017	-1.6042824	-4.583664	2.3491278	-2.45798982	15.08025456	-8.02714158
4.97	497	0.269	-0.022	-0.965	-7.161975	-5.7868758	1.5469866	-2.52674478	15.02295876	-8.00995284
4.98	498	0.225	-0.029	-0.916	-11.8029348	-4.4690724	0.0572958	-2.64706596	14.97712212	-8.00422326
4.99	499	0.198	-0.019	-0.888	-14.4958374	-3.0939732	-1.0313244	-2.79603504	14.94274464	-8.01568242
5	500	0.194	0.001	-0.877	-13.9801752	-0.7448454	-1.0886202	-2.93354496	14.91982632	-8.021412
5.01	501	0.215	0.015	-0.885	-12.891555	2.291832	-0.7448454	-3.0653253	14.93701506	-8.02714158
5.02	502	0.235	0.025	-0.926	-11.8029348	4.5263682	-0.0572958	-3.19137606	14.9828517	-8.02714158
5.03	503	0.254	0.016	-0.955	-9.5683986	2.9793816	0.2291832	-3.28304934	15.0114996	-8.02714158
5.04	504	0.252	-0.001	-0.955	-8.1360036	1.5469866	-0.0572958	-3.36899304	15.02868834	-8.02714158
5.05	505	0.229	-0.016	-0.935	-7.9068204	-0.5156622	-1.3750992	-3.42055926	15.00004044	-8.03287116
5.06	506	0.207	-0.009	-0.909	-7.9641162	-3.0366774	-2.9793816	-3.51223254	14.96566296	-8.06151906
5.07	507	0.207	0.014	-0.896	-7.161975	-5.0993262	-4.010706	-3.59244666	14.91409674	-8.10162612
5.08	508	0.216	0.035	-0.896	-5.2139178	-5.9587632	-4.297185	-3.65547204	14.85107136	-8.14173318
5.09	509	0.218	0.046	-0.902	-3.2658606	-5.6722842	-4.010706	-3.70130868	14.78804598	-8.18184024
5.1	510	0.217	0.05	-0.916	-1.432395	-4.5263682	-3.4950438	-3.72995658	14.71929102	-8.21048814
5.11	511	0.216	0.05	-0.924	0.0572958	-2.5210152	-3.0366774	-3.73568616	14.69064312	-8.24486562
5.12	512	0.218	0.05	-0.931	0.9167328	-1.3750992	-2.9220858	-3.73568616	14.67345438	-8.27351352
5.13	513	0.226	0.054	-0.942	1.3750992	-0.6302538	-3.0939732	-3.72995658	14.6677248	-8.30216142
5.14	514	0.229	0.06	-0.958	2.4064236	-0.1145916	-3.3231564	-3.71276784	14.66199522	-8.3365389
5.15	515	0.242	0.059	-0.98	3.8961144	0.7448454	-3.437748	-3.6955791	14.65626564	-8.37664596
5.16	516	0.252	0.05	-0.997	5.0993262	1.0886202	-3.3804522	-3.64974246	14.6677248	-8.41102344
5.17	517	0.261	0.04	-1.015	5.8441716	1.3178034	-3.151269	-3.59817624	14.67918396	-8.44540092
5.18	518	0.272	0.031	-1.03	6.0733548	1.3178034	-2.8074942	-3.54661002	14.69064312	-8.47404882
5.19	519	0.281	0.029	-1.028	5.2712136	0.5156622	-2.2345362	-3.50077338	14.6963727	-8.49696714
5.2	520	0.284	0.03	-1.016	4.010706	-0.2291832	-1.8334656	-3.45493674	14.6963727	-8.51988546
5.21	521	0.283	0.03	-0.997	3.0366774	-0.0572958	-1.8907614	-3.43201842	14.6963727	-8.5370742
5.22	522	0.281	0.031	-0.975	2.5210152	0.572958	-1.9480572	-3.4091001	14.70210228	-8.55999252
5.23	523	0.287	0.033	-0.958	2.291832	0.9740286	-1.8334656	-3.39191136	14.70783186	-8.57718126
5.24	524	0.295	0.035	-0.947	2.291832	0.5156622	-1.4896908	-3.36899304	14.71356144	-8.59437
5.25	525	0.298	0.037	-0.94	2.2345362	-0.286479	-0.9740286	-3.35753388	14.7823164	-8.61728832
5.26	526	0.294	0.038	-0.938	2.1772404	-1.3750992	-0.5156622	-3.33461556	14.77085724	-8.6230179
5.27	527	0.287	0.037	-0.931	1.7761698	-2.578311	-0.2291832	-3.31742682	14.74220934	-8.6230179
5.28	528	0.283	0.032	-0.925	1.145916	-3.3231564	-0.4583664	-3.30596766	14.70783186	-8.62874748
5.29	529	0.274	0.032	-0.915	0.3437748	-3.9534102	-0.572958	-3.30596766	14.6677248	-8.63447706
5.3	530	0.264	0.035	-0.909	-0.0572958	-4.5263682	-0.5156622	-3.31169724	14.6390769	-8.64020664
5.31	531	0.255	0.041	-0.907	0	-4.870143	-0.1718874	-3.31169724	14.59324026	-8.64020664
5.32	532	0.241	0.043	-0.908	-0.1145916	-4.9847346	-0.0572958	-3.31742682	14.54167404	-8.64020664
5.33	533	0.231	0.047	-0.914	-0.5156622	-4.6982556	0	-3.31742682	14.4958374	-8.64020664
5.34	534	0.223	0.05	-0.925	-0.9167328	-4.1252976	0.1145916	-3.32888598	14.45573034	-8.63447706
5.35	535	0.22	0.051	-0.936	-1.432395	-2.9793816	0	-3.36899304	14.3812458	-8.63447706
5.36	536	0.221	0.049	-0.948	-1.7761698	-2.1772404	-0.1718874	-3.38618178	14.35832748	-8.63447706
5.37	537	0.227	0.044	-0.961	-1.718874	-1.8334656	-0.286479	-3.40337052	14.33540916	-8.63447706
5.38	538	0.233	0.039	-0.975	-1.432395	-1.718874	-0.286479	-3.42055926	14.31822042	-8.64020664
5.39	539	0.236	0.033	-0.981	-1.432395	-1.8907614	-0.4010706	-3.43201842	14.30103168	-8.64593622
5.4	540	0.236	0.026	-0.984	-1.7761698	-2.1199446	-0.286479	-3.43201842	14.24373588	-8.63447706
5.41	541	0.236	0.019	-0.984	-2.291832	-2.3491278	-0.286479	-3.45493674	14.22081756	-8.64020664
5.42	542	0.244	0.009	-0.98	-2.7501984	-2.2345362	-0.3437748	-3.48358464	14.19789924	-8.64020664
5.43	543	0.251	0.006	-0.982	-3.724227	-2.1199446	-0.0572958	-3.5236917	14.17498092	-8.64020664
5.44	544	0.242	0.011	-0.992	-4.4117766	-2.1199446	0.0572958	-3.56952834	14.15779218	-8.64020664
5.45	545	0.232	0.02	-1.001	-3.7815228	-1.6615782	0	-3.58671708	14.0947668	-8.62874748
5.46	546	0.223	0.033	-0.997	-2.86479	-1.0313244	-0.1718874	-3.61536498	14.08330764	-8.62874748
5.47	547	0.22	0.044	-0.984	-2.1199446	-0.1718874	-0.572958	-3.6382833	14.08330764	-8.63447706
5.48	548	0.226	0.05	-0.972	-1.3178034	0.7448454	-0.9167328	-3.65547204	14.08903722	-8.64593622
5.49	549	0.231	0.049	-0.966	-0.5156622	1.5469866	-1.0886202	-3.66120162	14.10622596	-8.65739538
5.5	550	0.245	0.045	-0.963	0.1145916	1.2605076	-1.0313244	-3.68411994	14.10049638	-8.66885454
5.51	551	0.252	0.047	-0.962	0.3437748	0.4583664	-0.859437	-3.68411994	14.10049638	-8.6803137
5.52	552	0.257	0.053	-0.959	0.6302538	-0.1718874	-0.9740286	-3.67839036	14.10049638	-8.68604328
5.53	553	0.258	0.056	-0.955	0.7448454	-0.2291832	-1.2032118	-3.67266078	14.0947668	-8.70323202
5.54	554	0.263	0.056	-0.955	0.9740286	-0.286479	-1.2032118	-3.6669312	14.0947668	-8.71469118
5.55	555	0.269	0.052	-0.958	0.8021412	-0.859437	-1.0886202	-3.68411994	14.11768512	-8.7376095
5.56	556	0.261	0.051	-0.961	0.6302538	-1.432395	-0.6302538	-3.67839036	14.10622596	-8.74333908
5.57	557	0.247	0.053	-0.962	0.859437	-1.3750992	-0.4010706	-3.6669312	14.08903722	-8.74333908
5.58	558	0.239	0.059	-0.956	0.9167328	-0.859437	-0.4010706	-3.66120162	14.08330764	-8.74906866
5.59	559	0.241	0.059	-0.952	1.0313244	-0.1718874	-0.572958	-3.64974246	14.07757806	-8.75479824
5.6	560	0.246	0.055	-0.951	1.0313244	0.0572958	-0.6875496	-3.68984952	14.07757806	-8.77198698
5.61	561	0.25	0.048	-0.953	0.9167328	-0.1718874	-0.7448454	-3.67839036	14.07184848	-8.77771656
5.62	562	0.255	0.042	-0.956	0.9740286	-0.6302538	-0.6302538	-3.67266078	14.0661189	-8.78917572
5.63	563	0.256	0.037	-0.959	0.9167328	-1.0313244	-0.572958	-3.66120162	14.05465974	-8.7949053
5.64	564	0.252	0.036	-0.959	0.6875496	-1.2032118	-0.4010706	-3.65547204	14.04320058	-8.7949053
5.65	565	0.248	0.034	-0.961	0.3437748	-1.145916	-0.2291832	-3.63255372	14.02028226	-8.78917572
5.66	566	0.244	0.031	-0.961	0.1145916	-1.0313244	-0.1145916	-3.62682414	14.0088231	-8.7949053
5.67	567	0.243	0.029	-0.961	-0.1718874	-0.4010706	0	-3.63255372	14.00309352	-8.7949053
5.68	568	0.243	0.026	-0.962	-0.4583664	0	0.1718874	-3.6382833	14.00309352	-8.78917572
5.69	569	0.242	0.026	-0.962	-0.7448454	0.0572958	0.286479	-3.64401288	14.00309352	-8.78917572
5.7	570	0.242	0.027	-0.961	-0.859437	-0.1718874	0.3437748	-3.60390582	13.97444562	-8.7662574
5.71	571	0.24	0.027	-0.96	-0.859437	-0.3437748	0.3437748	-3.61536498	13.97444562	-8.7662574
5.72	572	0.239	0.027	-0.96	-0.7448454	-0.4583664	0.286479	-3.62109456	13.96871604	-8.76052782
5.73	573	0.237	0.027	-0.964	-0.572958	-0.1145916	0.3437748	-3.62682414	13.96298646	-8.75479824
5.74	574	0.234	0.026	-0.964	-0.4583664	0	0.286479	-3.62682414	13.96298646	-8.75479824
5.75	575	0.231	0.031	-0.965	-0.4583664	0.1718874	0.286479	-3.60390582	13.87131318	-8.73187992
5.76	576	0.229	0.037	-0.962	-0.1145916	0.6302538	0.2291832	-3.60390582	13.87704276	-8.72615034
5.77	577	0.229	0.038	-0.961	0	0.9740286	0.0572958	-3.60390582	13.88277234	-8.72615034
5.78	578	0.233	0.039	-0.96	0.1718874	1.145916	0	-3.60390582	13.8942315	-8.72615034
5.79	579	0.237	0.039	-0.961	0.3437748	1.3750992	0	-3.59817624	13.91142024	-8.73187992
5.8	580	0.241	0.039	-0.961	0.3437748	1.5469866	-0.1145916	-3.59817624	13.90569066	-8.73187992
5.81	581	0.245	0.041	-0.961	0.3437748	1.6615782	-0.3437748	-3.59244666	13.9228794	-8.73187992
5.82	582	0.249	0.044	-0.962	0.4010706	1.432395	-0.286479	-3.59244666	13.93433856	-8.7376095
5.83	583	0.252	0.046	-0.961	0.286479	1.0886202	-0.286479	-3.58671708	13.94579772	-8.74333908
5.84	584	0.252	0.046	-0.962	0.0572958	1.2032118	-0.4010706	-3.59244666	13.95725688	-8.74906866
5.85	585	0.25	0.048	-0.961	0	1.2032118	-0.4583664	-3.62682414	13.96871604	-8.76052782
5.86	586	0.251	0.047	-0.961	0.0572958	1.0886202	-0.5156622	-3.63255372	13.9801752	-8.7662574
5.87	587	0.254	0.045	-0.961	0.1145916	0.8021412	-0.4010706	-3.63255372	13.99163436	-8.77198698
5.88	588	0.257	0.042	-0.962	0.1145916	0.4010706	-0.3437748	-3.63255372	13.99163436	-8.77198698
5.89	589	0.259	0.04	-0.962	0.1718874	0.0572958	-0.1718874	-3.62682414	13.99163436	-8.77771656
5.9	590	0.259	0.037	-0.96	0.1145916	-0.2291832	-0.0572958	-3.6096354	14.04893016	-8.78344614
5.91	591	0.256	0.035	-0.959	0.2291832	-0.6302538	0	-3.6096354	14.04320058	-8.78344614
5.92	592	0.253	0.035	-0.959	0.286479	-0.859437	0.0572958	-3.60390582	14.037471	-8.77771656
5.93	593	0.249	0.035	-0.959	0.1145916	-0.8021412	0.0572958	-3.60390582	14.02601184	-8.77771656
5.94	594	0.244	0.035	-0.959	0.0572958	-0.572958	0.1145916	-3.59817624	14.02028226	-8.77771656
5.95	595	0.245	0.033	-0.961	0	-0.3437748	0	-3.54088044	13.96871604	-8.75479824
5.96	596	0.245	0.033	-0.963	0	-0.4010706	0	-3.54088044	13.96298646	-8.75479824
5.97	597	0.243	0.033	-0.963	0.0572958	-0.572958	0	-3.53515086	13.95725688	-8.75479824
5.98	598	0.24	0.034	-0.962	0.1145916	-0.6302538	0	-3.53515086	13.9515273	-8.75479824
5.99	599	0.24	0.031	-0.959	0	-0.4583664	-0.0572958	-3.53515086	13.94579772	-8.75479824
6	600	0.242	0.03	-0.958	-0.0572958	-0.3437748	-0.1145916	-3.47785506	13.90569066	-8.74333908
6.01	601	0.244	0.031	-0.96	-0.0572958	-0.4010706	-0.1145916	-3.48358464	13.89996108	-8.74333908
6.02	602	0.242	0.034	-0.963	-0.2291832	-0.286479	-0.2291832	-3.48358464	13.89996108	-8.74333908
6.03	603	0.24	0.035	-0.963	-0.1718874	-0.2291832	-0.286479	-3.48931422	13.8942315	-8.74906866
6.04	604	0.237	0.034	-0.963	-0.0572958	-0.1145916	-0.286479	-3.48931422	13.8942315	-8.74906866
6.05	605	0.239	0.035	-0.961	-0.1145916	0.1718874	-0.3437748	-3.48358464	13.85412444	-8.74906866
6.06	606	0.242	0.039	-0.961	-0.1145916	0.3437748	-0.4583664	-3.48931422	13.85985402	-8.75479824
6.07	607	0.244	0.04	-0.958	-0.2291832	0.1145916	-0.286479	-3.48931422	13.85985402	-8.75479824
6.08	608	0.245	0.042	-0.956	-0.286479	0	-0.2291832	-3.4950438	13.85985402	-8.76052782
6.09	609	0.242	0.041	-0.956	-0.1718874	0	-0.2291832	-3.4950438	13.85985402	-8.76052782
6.1	610	0.24	0.038	-0.958	-0.1145916	0.0572958	-0.2291832	-3.50650296	13.79682864	-8.76052782
6.11	611	0.238	0.036	-0.957	-0.1718874	0.1718874	-0.286479	-3.50650296	13.80255822	-8.76052782
6.12	612	0.237	0.035	-0.955	-0.5156622	0.572958	-0.2291832	-3.51223254	13.8082878	-8.7662574
6.13	613	0.241	0.034	-0.954	-0.859437	0.4583664	-0.286479	-3.5236917	13.8082878	-8.7662574
6.14	614	0.247	0.036	-0.954	-1.0313244	0.286479	-0.0572958	-3.53515086	13.81401738	-8.7662574
6.15	615	0.25	0.036	-0.956	-0.859437	0.1718874	0	-3.54088044	13.82547654	-8.7662574
6.16	616	0.248	0.036	-0.958	-0.9740286	0.2291832	0	-3.5523396	13.83120612	-8.7662574
6.17	617	0.246	0.037	-0.964	-1.0313244	0.3437748	0.0572958	-3.55806918	13.83120612	-8.7662574
6.18	618	0.246	0.038	-0.966	-0.8021412	0.2291832	0.1145916	-3.56952834	13.8369357	-8.7662574
6.19	619	0.247	0.04	-0.968	-0.572958	0.1145916	0.1145916	-3.57525792	13.8369357	-8.7662574
6.2	620	0.25	0.038	-0.967	-0.3437748	0	0.1145916	-3.56952834	13.84839486	-8.76052782
6.21	621	0.249	0.037	-0.966	-0.2291832	0	0.0572958	-3.57525792	13.84839486	-8.76052782
6.22	622	0.246	0.038	-0.964	-0.286479	0	0	-3.57525792	13.84839486	-8.76052782
6.23	623	0.245	0.038	-0.963	-0.4010706	0.0572958	-0.0572958	-3.5809875	13.84839486	-8.76052782
6.24	624	0.245	0.039	-0.961	-0.286479	-0.1145916	-0.0572958	-3.58671708	13.84839486	-8.7662574
6.25	625	0.243	0.039	-0.959	-0.3437748	-0.1718874	-0.1718874	-3.59817624	13.82547654	-8.7662574
6.26	626	0.243	0.039	-0.957	-0.4010706	-0.1145916	-0.1145916	-3.60390582	13.82547654	-8.7662574
6.27	627	0.243	0.04	-0.958	-0.286479	0	-0.1718874	-3.60390582	13.82547654	-8.7662574
6.28	628	0.244	0.042	-0.958	-0.2291832	-0.0572958	-0.1718874	-3.6096354	13.82547654	-8.77198698
6.29	629	0.245	0.04	-0.96	0.1718874	-0.0572958	0	-3.60390582	13.82547654	-8.77198698
6.3	630	0.244	0.039	-0.96	0.1718874	0	-0.0572958	-3.59244666	13.78536948	-8.7662574
6.31	631	0.242	0.039	-0.961	0.2291832	0.0572958	-0.0572958	-3.58671708	13.78536948	-8.7662574
6.32	632	0.243	0.037	-0.961	0.286479	0.1718874	-0.0572958	-3.58671708	13.79109906	-8.7662574
6.33	633	0.246	0.037	-0.962	0.4010706	0.1145916	0	-3.5809875	13.79109906	-8.7662574
6.34	634	0.248	0.037	-0.963	0.4010706	-0.0572958	0	-3.57525792	13.79109906	-8.7662574
6.35	635	0.246	0.037	-0.963	0.3437748	-0.1718874	0	-3.56379876	13.77391032	-8.7662574
6.36	636	0.242	0.038	-0.963	0.5156622	-0.1718874	0.0572958	-3.55806918	13.76818074	-8.76052782
6.37	637	0.24	0.036	-0.962	0.4010706	-0.0572958	0	-3.5523396	13.76818074	-8.76052782
6.38	638	0.241	0.036	-0.962	0.5156622	0	0	-3.54661002	13.76818074	-8.76052782
6.39	639	0.241	0.036	-0.962	0.5156622	0.0572958	0	-3.54088044	13.76818074	-8.76052782
6.4	640	0.243	0.037	-0.959	0.3437748	0.1145916	0	-3.52942128	13.76245116	-8.76052782
6.41	641	0.244	0.037	-0.96	0.1718874	0	-0.0572958	-3.52942128	13.76245116	-8.76052782
6.42	642	0.243	0.038	-0.959	0.0572958	0	-0.1145916	-3.5236917	13.76245116	-8.76052782
6.43	643	0.243	0.039	-0.958	0.1145916	-0.0572958	0	-3.5236917	13.76245116	-8.76052782
6.44	644	0.243	0.038	-0.958	0.1718874	0	0	-3.5236917	13.76245116	-8.76052782
6.45	645	0.244	0.037	-0.959	0.1145916	0.0572958	0	-3.51223254	13.75672158	-8.76052782
6.46	646	0.244	0.037	-0.96	0	0.1718874	0	-3.51223254	13.76245116	-8.76052782
6.47	647	0.244	0.039	-0.962	0.1145916	0.286479	0	-3.51223254	13.76245116	-8.76052782
6.48	648	0.243	0.039	-0.963	0.286479	0.3437748	0	-3.50650296	13.76818074	-8.76052782
6.49	649	0.246	0.039	-0.963	0.286479	0.3437748	0	-3.50650296	13.77391032	-8.76052782
6.5	650	0.246	0.038	-0.964	0.2291832	0.2291832	0	-3.51223254	13.77391032	-8.76052782
6.51	651	0.247	0.039	-0.963	0.1718874	0.2291832	0	-3.51223254	13.77391032	-8.76052782
6.52	652	0.246	0.04	-0.962	0.2291832	0.2291832	0	-3.50650296	13.7796399	-8.76052782
6.53	653	0.247	0.038	-0.96	0.3437748	0.1718874	0.0572958	-3.50650296	13.7796399	-8.76052782
6.54	654	0.247	0.037	-0.96	0.3437748	0	0	-3.50077338	13.7796399	-8.76052782
6.55	655	0.245	0.038	-0.959	0.1718874	-0.1145916	0.0572958	-3.51796212	13.76245116	-8.76052782
6.56	656	0.244	0.038	-0.958	0.0572958	0	0	-3.51223254	13.76245116	-8.76052782
6.57	657	0.243	0.037	-0.959	0.0572958	-0.1718874	0	-3.51223254	13.76245116	-8.76052782
6.58	658	0.242	0.037	-0.959	0.0572958	-0.0572958	0	-3.51223254	13.76245116	-8.76052782
6.59	659	0.242	0.037	-0.958	0.1145916	-0.2291832	0	-3.51223254	13.75672158	-8.76052782
6.6	660	0.243	0.037	-0.959	0	-0.286479	0	-3.51223254	13.74526242	-8.76052782
6.61	661	0.241	0.038	-0.958	0	-0.1145916	0	-3.51223254	13.74526242	-8.76052782
6.62	662	0.239	0.037	-0.96	-0.0572958	0	0	-3.51223254	13.74526242	-8.76052782
6.63	663	0.241	0.036	-0.961	0	0.2291832	0.0572958	-3.51223254	13.74526242	-8.76052782
6.64	664	0.241	0.037	-0.962	0.0572958	0.286479	0.0572958	-3.51223254	13.750992	-8.76052782
6.65	665	0.243	0.036	-0.963	0	0.1145916	0	-3.50077338	13.73953284	-8.75479824
6.66	666	0.245	0.035	-0.96	0.1145916	0.1145916	0	-3.4950438	13.73953284	-8.75479824
6.67	667	0.246	0.035	-0.961	0.1718874	0.0572958	0	-3.4950438	13.73953284	-8.75479824
6.68	668	0.248	0.035	-0.959	0.0572958	0.0572958	0	-3.4950438	13.73953284	-8.75479824
6.69	669	0.249	0.036	-0.96	-0.0572958	0	0	-3.4950438	13.73953284	-8.75479824
6.7	670	0.248	0.036	-0.962	-0.1145916	-0.2291832	0	-3.48931422	13.74526242	-8.75479824
6.71	671	0.246	0.038	-0.962	-0.1145916	-0.286479	0	-3.48931422	13.73953284	-8.75479824
6.72	672	0.241	0.037	-0.962	-0.0572958	-0.2291832	0.0572958	-3.48931422	13.73953284	-8.75479824
6.73	673	0.242	0.036	-0.96	-0.0572958	0	0	-3.48931422	13.73953284	-8.75479824
6.74	674	0.243	0.035	-0.958	-0.2291832	0	0	-3.4950438	13.73953284	-8.75479824
6.75	675	0.246	0.037	-0.961	-0.2291832	0	0	-3.4950438	13.73953284	-8.75479824
6.76	676	0.246	0.038	-0.961	-0.1718874	-0.0572958	0	-3.50077338	13.73953284	-8.75479824
6.77	677	0.243	0.04	-0.964	0.1145916	-0.1718874	0	-3.4950438	13.73953284	-8.75479824
6.78	678	0.242	0.038	-0.963	0.1718874	-0.2291832	0	-3.4950438	13.73953284	-8.75479824
6.79	679	0.244	0.039	-0.961	0	0	0	-3.4950438	13.73380326	-8.75479824
6.8	680	0.246	0.04	-0.961	-0.1145916	0.0572958	0	-3.51796212	13.750992	-8.76052782
6.81	681	0.245	0.042	-0.959	-0.2291832	-0.1718874	0.0572958	-3.5236917	13.750992	-8.76052782
6.82	682	0.243	0.039	-0.957	-0.1718874	-0.1718874	0.0572958	-3.5236917	13.74526242	-8.76052782
6.83	683	0.241	0.035	-0.957	-0.1718874	-0.1145916	0.0572958	-3.5236917	13.74526242	-8.76052782
6.84	684	0.239	0.033	-0.958	-0.1145916	-0.0572958	0.1145916	-3.52942128	13.74526242	-8.75479824
6.85	685	0.239	0.034	-0.956	-0.1718874	0.1718874	0.1145916	-3.51796212	13.73380326	-8.74906866
6.86	686	0.24	0.031	-0.954	-0.6302538	0.4010706	0	-3.5236917	13.73953284	-8.74906866
6.87	687	0.246	0.032	-0.955	-1.0313244	-0.0572958	0	-3.53515086	13.73953284	-8.74906866
6.88	688	0.249	0.036	-0.954	-0.9167328	-0.4010706	0	-3.54088044	13.73380326	-8.74906866
6.89	689	0.247	0.035	-0.954	-1.0313244	-0.286479	0.0572958	-3.5523396	13.73380326	-8.74906866
6.9	690	0.244	0.034	-0.958	-1.145916	0.0572958	0.0572958	-3.5523396	13.72807368	-8.74333908
6.91	691	0.241	0.036	-0.962	-0.9167328	0.1718874	0.0572958	-3.56379876	13.72807368	-8.74333908
6.92	692	0.243	0.037	-0.966	-0.572958	0.1718874	0.0572958	-3.56952834	13.72807368	-8.74333908
6.93	693	0.247	0.038	-0.967	-0.286479	0.1145916	0	-3.57525792	13.73380326	-8.74333908
6.94	694	0.248	0.037	-0.967	-0.0572958	0.0572958	0	-3.57525792	13.73380326	-8.74333908
6.95	695	0.248	0.039	-0.965	0	-0.0572958	0	-3.57525792	13.73380326	-8.74333908
6.96	696	0.246	0.04	-0.963	-0.0572958	-0.1718874	-0.1718874	-3.57525792	13.72807368	-8.74906866
6.97	697	0.244	0.042	-0.961	-0.1145916	-0.1718874	-0.1718874	-3.5809875	13.72807368	-8.74906866
6.98	698	0.243	0.042	-0.96	-0.1145916	-0.1145916	-0.1145916	-3.5809875	13.72807368	-8.74906866
6.99	699	0.242	0.041	-0.959	-0.2291832	-0.1145916	-0.1718874	-3.58671708	13.7223441	-8.75479824
7	700	0.242	0.042	-0.959	-0.1718874	0	-0.1718874	-3.6096354	13.70515536	-8.76052782
7.01	701	0.242	0.042	-0.959	0.0572958	0.1145916	-0.1145916	-3.6096354	13.70515536	-8.76052782
7.02	702	0.243	0.042	-0.96	0.1145916	0.1145916	-0.1145916	-3.6096354	13.71088494	-8.76052782
7.03	703	0.243	0.041	-0.961	0.1145916	0	-0.0572958	-3.6096354	13.71088494	-8.76052782
7.04	704	0.243	0.04	-0.962	0.1718874	0.1145916	-0.1145916	-3.60390582	13.71088494	-8.7662574
7.05	705	0.244	0.038	-0.961	0.286479	0.1718874	-0.1718874	-3.59817624	13.71088494	-8.7662574
7.06	706	0.244	0.036	-0.961	0.4010706	0.0572958	-0.0572958	-3.59244666	13.71088494	-8.7662574
7.07	707	0.245	0.036	-0.962	0.4583664	0.0572958	0	-3.59244666	13.71088494	-8.7662574
7.08	708	0.245	0.037	-0.962	0.5156622	-0.0572958	0.0572958	-3.58671708	13.71088494	-8.7662574
7.09	709	0.244	0.037	-0.962	0.4583664	0	0.0572958	-3.5809875	13.71088494	-8.7662574
7.1	710	0.242	0.036	-0.963	0.4010706	0.1718874	0.1145916	-3.56952834	13.70515536	-8.76052782
7.11	711	0.241	0.035	-0.963	0.3437748	0.1145916	0.0572958	-3.56379876	13.70515536	-8.76052782
7.12	712	0.241	0.034	-0.962	0.4010706	0	0.0572958	-3.55806918	13.70515536	-8.76052782
7.13	713	0.242	0.035	-0.96	0.4010706	0.0572958	0	-3.5523396	13.70515536	-8.76052782
7.14	714	0.242	0.036	-0.959	0.286479	0.1145916	0.0572958	-3.5523396	13.70515536	-8.76052782
7.15	715	0.243	0.035	-0.96	0.2291832	0.1145916	-0.0572958	-3.53515086	13.69942578	-8.75479824
7.16	716	0.244	0.036	-0.958	0.2291832	0	-0.0572958	-3.53515086	13.69942578	-8.75479824
7.17	717	0.243	0.037	-0.959	0.286479	0	0	-3.52942128	13.69942578	-8.75479824
7.18	718	0.245	0.036	-0.959	0.286479	0	0.1145916	-3.52942128	13.69942578	-8.75479824
7.19	719	0.246	0.037	-0.96	0.286479	0.1145916	0	-3.5236917	13.70515536	-8.75479824
7.2	720	0.245	0.038	-0.961	0.3437748	0.286479	0	-3.5236917	13.70515536	-8.75479824
7.21	721	0.247	0.04	-0.962	0.3437748	0.3437748	0	-3.51796212	13.71088494	-8.75479824
7.22	722	0.246	0.04	-0.962	0.286479	0.2291832	0	-3.51796212	13.71088494	-8.75479824
7.23	723	0.246	0.04	-0.963	0.286479	0.1718874	0	-3.51223254	13.71661452	-8.75479824
7.24	724	0.245	0.039	-0.963	0.3437748	0.1145916	0	-3.50650296	13.71661452	-8.75479824
7.25	725	0.246	0.039	-0.962	0.3437748	0.1718874	0	-3.51223254	13.72807368	-8.76052782
7.26	726	0.247	0.037	-0.962	0.286479	0.0572958	0	-3.51223254	13.72807368	-8.76052782
7.27	727	0.245	0.038	-0.96	0.286479	-0.0572958	0.0572958	-3.50650296	13.72807368	-8.76052782
7.28	728	0.244	0.038	-0.959	0.1718874	-0.1145916	0.1718874	-3.50650296	13.72807368	-8.75479824
7.29	729	0.243	0.038	-0.959	0.1718874	-0.1145916	0.1145916	-3.50077338	13.7223441	-8.75479824
7.3	730	0.242	0.038	-0.96	0.2291832	0	0.1145916	-3.50077338	13.71088494	-8.75479824
7.31	731	0.243	0.037	-0.96	0.1145916	-0.0572958	0.0572958	-3.4950438	13.71088494	-8.74906866
7.32	732	0.243	0.036	-0.961	0	-0.1145916	0	-3.4950438	13.71088494	-8.75479824
7.33	733	0.243	0.037	-0.959	0.0572958	-0.2291832	-0.0572958	-3.4950438	13.71088494	-8.75479824
7.34	734	0.243	0.037	-0.961	0.1145916	-0.1718874	-0.0572958	-3.4950438	13.70515536	-8.75479824
7.35	735	0.243	0.036	-0.959	0.1145916	-0.0572958	0	-3.48931422	13.6936962	-8.74906866
7.36	736	0.241	0.036	-0.96	0.0572958	0.1145916	0	-3.48931422	13.6936962	-8.74906866
7.37	737	0.24	0.036	-0.96	0.0572958	0.1145916	0.0572958	-3.48358464	13.69942578	-8.74906866
7.38	738	0.24	0.036	-0.961	0	0.2291832	0	-3.48358464	13.69942578	-8.74906866
