TimeStamp(s)	FrameCounter	AccX	AccY	AccZ	GyrX	GyrY	GyrZ	EulerX	EulerY	EulerZ
0.01	1	0.062	-1.003	-0.092	-0.4010706	2.0626488	-0.2291832	85.4566857	2.6929026	-20.7410796
0.02	2	0.073	-1.005	-0.103	-0.9167328	1.4896908	-0.286479	85.45095612	2.6929026	-20.72962044
0.03	3	0.07	-1.003	-0.101	-1.2605076	0.572958	-0.2291832	85.43376738	2.69863218	-20.72389086
0.04	4	0.064	-0.998	-0.1	-1.5469866	0.286479	-0.1718874	85.42230822	2.69863218	-20.71816128
0.05	5	0.06	-0.996	-0.1	-2.005353	0.1718874	-0.0572958	85.33063494	2.73300966	-20.73535002
0.06	6	0.059	-0.995	-0.099	-2.7501984	0.0572958	0	85.30198704	2.73300966	-20.73535002
0.07	7	0.058	-1	-0.096	-3.6096354	0.0572958	-0.1145916	85.26760956	2.73300966	-20.73535002
0.08	8	0.058	-1.006	-0.095	-4.9847346	0.4010706	-0.4010706	85.21604334	2.73873924	-20.72962044
0.09	9	0.054	-1.007	-0.102	-6.4171296	1.432395	-0.8021412	85.15301796	2.7501984	-20.71816128
0.1	10	0.053	-1.004	-0.11	-7.5057498	3.0366774	-1.0313244	85.06134468	2.76165756	-20.68951338
0.11	11	0.054	-0.995	-0.108	-7.6776372	5.3285094	-1.145916	84.98686014	2.7788463	-20.63794716
0.12	12	0.053	-0.986	-0.106	-7.9068204	7.7922288	-0.8021412	84.90664602	2.79030546	-20.56346262
0.13	13	0.051	-0.977	-0.101	-8.5370742	10.4851314	0.1718874	84.82070232	2.79030546	-20.46033018
0.14	14	0.057	-0.964	-0.095	-9.8548776	13.9801752	1.5469866	84.72902904	2.78457588	-20.32282026
0.15	15	0.066	-0.95	-0.096	-10.886202	17.6471064	2.9220858	84.62016702	2.76738714	-20.15093286
0.16	16	0.075	-0.939	-0.106	-11.3445684	19.8243468	3.9534102	84.511305	2.74446882	-19.95039756
0.17	17	0.092	-0.928	-0.109	-10.8289062	20.912967	4.9274388	84.40817256	2.70436176	-19.7384031
0.18	18	0.106	-0.917	-0.105	-8.2505952	21.3713334	6.016059	84.33368802	2.6642547	-19.52640864
0.19	19	0.111	-0.91	-0.093	-5.3285094	20.9702628	7.3911582	84.2821218	2.60122932	-19.3086846
0.2	20	0.112	-0.914	-0.077	-2.0626488	20.2827132	8.7662574	84.27066264	2.54393352	-19.1081493
0.21	21	0.112	-0.931	-0.062	0.7448454	19.7097552	9.5683986	84.2821218	2.4637194	-18.90188442
0.22	22	0.108	-0.954	-0.046	2.7501984	18.907614	9.8548776	84.31649928	2.3777757	-18.7070787
0.23	23	0.099	-0.969	-0.029	4.1825934	17.9335854	10.1413566	84.3680655	2.291832	-18.51800256
0.24	24	0.085	-0.984	-0.014	4.8128472	17.9908812	10.3705398	84.41963172	2.20015872	-18.32892642
0.25	25	0.072	-0.991	-0.007	5.5576926	18.5638392	10.4851314	84.48838668	2.11421502	-18.13985028
0.26	26	0.07	-1.007	0.001	6.5317212	18.5065434	10.313244	84.56287122	2.02827132	-17.94504456
0.27	27	0.073	-1.024	0.01	7.2192708	18.4492476	9.7975818	84.63735576	1.94232762	-17.75596842
0.28	28	0.062	-1.047	0.014	8.2505952	17.8762896	9.2819196	84.72902904	1.8621135	-17.56689228
0.29	29	0.043	-1.07	0.012	8.4797784	16.2147114	8.8235532	84.81497274	1.78762896	-17.40073446
0.3	30	0.024	-1.08	0.008	7.6776372	14.7250206	8.307891	84.90664602	1.71314442	-17.2460358
0.31	31	0.007	-1.082	-0.005	5.8441716	13.6936962	7.3911582	84.9696714	1.64438946	-17.1027963
0.32	32	0.002	-1.093	-0.024	4.010706	12.2613012	6.0733548	85.00977846	1.59282324	-16.97674554
0.33	33	0.002	-1.099	-0.038	1.4896908	10.1986524	3.7815228	85.0269672	1.56417534	-16.86788352
0.34	34	0.013	-1.089	-0.055	-2.0626488	7.6776372	1.2032118	85.00977846	1.55271618	-16.79339898
0.35	35	0.027	-1.063	-0.073	-6.0733548	4.2398892	-1.8907614	84.9410235	1.58136408	-16.75329192
0.36	36	0.041	-1.02	-0.093	-9.7975818	-1.8334656	-5.5576926	84.84362064	1.6329303	-16.78193982
0.37	37	0.047	-0.967	-0.113	-13.0634424	-9.6829902	-10.313244	84.70611072	1.72460358	-16.88507226
0.38	38	0.046	-0.909	-0.132	-16.5011904	-19.0795014	-16.2720072	84.53422332	1.87357266	-17.09133714
0.39	39	0.055	-0.855	-0.147	-21.1421502	-28.361421	-23.6058696	84.31649928	2.08556712	-17.39500488
0.4	40	0.078	-0.831	-0.172	-26.1841806	-35.523396	-32.085648	84.03002028	2.3777757	-17.77888674
0.41	41	0.1	-0.872	-0.204	-31.2835068	-40.1643558	-41.1956802	83.69770464	2.7501984	-18.22579398
0.42	42	0.088	-0.974	-0.213	-33.6326346	-42.8572584	-44.8626114	83.3367411	3.15699858	-18.70134912
0.43	43	0.077	-1.096	-0.193	-31.4553942	-44.0604702	-41.8832298	82.99869588	3.5236917	-19.18836342
0.44	44	0.064	-1.195	-0.14	-20.7983754	-45.9512316	-35.0077338	82.75805352	3.82735944	-19.6811073
0.45	45	0.083	-1.276	-0.063	-6.7609044	-45.6647526	-26.2987722	82.66638024	4.0393539	-20.1681216
0.46	46	0.111	-1.322	0.019	6.4744254	-45.4355694	-18.1627686	82.7064873	4.17686382	-20.63794716
0.47	47	0.139	-1.309	0.069	14.037471	-45.0917946	-11.2872726	82.8210789	4.24561878	-21.09631356
0.48	48	0.11	-1.251	0.077	14.1520626	-46.5814854	-6.1306506	82.9356705	4.26280752	-21.56040954
0.49	49	0.057	-1.172	0.052	6.589017	-49.3316838	-2.5210152	82.97004798	4.2398892	-22.04742384
0.5	50	0.033	-1.108	0.002	-2.8074942	-51.7381074	-0.4583664	82.91848176	4.19405256	-22.55735646
0.51	51	0.026	-1.036	-0.018	-5.3858052	-52.425657	1.145916	82.83253806	4.13102718	-23.07874824
0.52	52	0.014	-0.966	-0.013	-5.8441716	-50.7640788	2.6929026	82.74659436	4.05081306	-23.57149212
0.53	53	0	-0.915	-0.01	-8.307891	-47.6128098	4.2398892	82.63200276	3.96486936	-24.04131768
0.54	54	-0.048	-0.881	-0.031	-11.2872726	-44.2323576	6.3598338	82.49449284	3.85600734	-24.47103618
0.55	55	-0.077	-0.842	-0.063	-14.5531332	-40.5081306	8.021412	82.32833502	3.724227	-24.85491804
0.56	56	-0.096	-0.794	-0.091	-15.756345	-35.1796212	7.6203414	82.15071804	3.6096354	-25.19296326
0.57	57	-0.117	-0.763	-0.099	-14.9542038	-26.929026	5.3858052	81.98456022	3.5236917	-25.45079436
0.58	58	-0.126	-0.746	-0.112	-13.5218088	-16.329303	3.151269	81.84132072	3.47212548	-25.6112226
0.59	59	-0.123	-0.735	-0.112	-10.2559482	-8.3651868	2.1772404	81.7324587	3.437748	-25.69143672
0.6	60	-0.101	-0.728	-0.11	-6.0733548	-1.5469866	2.291832	81.66943332	3.39764094	-25.6971663
0.61	61	-0.058	-0.738	-0.097	-2.3491278	4.5263682	2.8074942	81.646515	3.37472262	-25.65132966
0.62	62	0	-0.773	-0.07	0.1718874	9.3965112	3.9534102	81.65224458	3.34607472	-25.54819722
0.63	63	0.037	-0.817	-0.049	3.3231564	11.9175264	5.2712136	81.69235164	3.30596766	-25.42787604
0.64	64	0.066	-0.874	-0.021	6.4744254	12.1467096	5.5576926	81.76683618	3.2658606	-25.2960957
0.65	65	0.083	-0.934	0.001	8.9381448	11.45916	4.9274388	81.88142778	3.2372127	-25.17577452
0.66	66	0.071	-0.969	0.028	11.172681	9.9694692	4.4117766	82.00174896	3.20283522	-25.07264208
0.67	67	0.072	-0.984	0.069	12.9488508	8.3651868	3.8388186	82.13925888	3.1799169	-24.9809688
0.68	68	0.073	-0.991	0.082	12.7769634	7.5057498	2.9220858	82.27103922	3.15699858	-24.90075468
0.69	69	0.059	-0.985	0.088	13.0061466	6.3598338	2.1772404	82.40281956	3.14553942	-24.8377293
0.7	70	0.049	-0.987	0.108	13.8655836	4.9847346	1.8907614	82.59762528	3.12835068	-24.7804335
0.71	71	0.033	-1.004	0.131	12.4331886	4.870143	1.6615782	82.72367604	3.11689152	-24.72886728
0.72	72	0.016	-1.023	0.158	9.6829902	4.5263682	1.5469866	82.82680848	3.11116194	-24.67730106
0.73	73	-0.004	-1.049	0.166	5.72958	3.2085648	1.6615782	82.88410428	3.0939732	-24.64292358
0.74	74	-0.027	-1.061	0.139	0.4583664	2.9793816	1.145916	82.89556344	3.08824362	-24.61427568
0.75	75	-0.04	-1.071	0.107	-2.2345362	5.2139178	-0.1718874	82.94712966	3.05386614	-24.53979114
0.76	76	-0.054	-1.09	0.095	-2.7501984	9.1100322	-1.0886202	82.91848176	3.07105488	-24.45384744
0.77	77	-0.058	-1.106	0.084	-3.6096354	13.4072172	-1.2605076	82.88983386	3.0939732	-24.3220671
0.78	78	-0.061	-1.124	0.079	-4.1825934	16.7876694	-0.7448454	82.85545638	3.1226211	-24.16163886
0.79	79	-0.079	-1.136	0.06	-4.870143	19.7097552	0.1145916	82.80961974	3.13408026	-23.96683314
0.8	80	-0.09	-1.135	0.054	-4.583664	22.0015872	0.9740286	82.792431	3.12835068	-23.73764994
0.81	81	-0.085	-1.13	0.069	-2.3491278	24.5226024	1.8334656	82.78097184	3.13408026	-23.49700758
0.82	82	-0.07	-1.13	0.092	1.145916	27.1009134	2.3491278	82.80389016	3.13408026	-23.22771732
0.83	83	-0.062	-1.142	0.124	5.0993262	28.6479	3.437748	82.86691554	3.12835068	-22.93550874
0.84	84	-0.055	-1.164	0.163	8.59437	29.6792244	5.2139178	82.9643184	3.10543236	-22.63757058
0.85	85	-0.051	-1.185	0.193	11.2872726	30.4813656	6.875496	83.11328748	3.05959572	-22.32244368
0.86	86	-0.033	-1.18	0.199	13.8082878	30.8824362	7.7922288	83.26225656	3.01375908	-22.01304636
0.87	87	-0.026	-1.176	0.21	16.7876694	30.8251404	8.6516658	83.44560312	2.95646328	-21.69218988
0.88	88	-0.001	-1.204	0.157	16.902261	29.3354496	10.2559482	83.62894968	2.88197874	-21.39425172
0.89	89	0.143	-1.364	-0.075	0.6875496	23.3766864	16.5011904	83.64613842	2.73873924	-21.1421502
0.9	90	0.209	-1.463	-0.321	0	4.6409598	24.1215318	83.64613842	2.50382646	-21.07339524
0.91	91	0.311	-1.377	-0.263	21.0275586	-2.8074942	25.3820394	83.86386246	2.25172494	-21.07339524
0.92	92	0.375	-1.3	-0.077	32.1429438	-4.0680018	21.1421502	84.19044852	2.04546006	-21.0848544
0.93	93	0.284	-1.248	0.131	32.945085	-15.6417534	15.183387	84.52276416	1.88503182	-21.22236432
0.94	94	0.088	-1.153	0.177	28.8197874	-25.8977016	9.5683986	84.80924316	1.7761698	-21.46873626
0.95	95	-0.106	-1.114	0.091	22.058883	-21.5432208	6.7609044	85.03842636	1.67876694	-21.66354198
0.96	96	-0.252	-1.134	-0.128	12.891555	-1.432395	7.7922288	85.1702067	1.6042824	-21.67500114
0.97	97	-0.345	-1.146	-0.262	6.6463128	24.923673	12.891555	85.23896166	1.4896908	-21.41717004
0.98	98	-0.308	-1.186	-0.31	-5.443101	37.1276784	16.6730778	85.19312502	1.3464513	-21.03328818
0.99	99	-0.159	-1.169	-0.449	-17.6471064	42.1697088	18.2773602	85.01550804	1.18602306	-20.60356968
1	100	-0.003	-1.097	-0.507	-20.4546006	49.9619376	19.3086846	84.797784	1.02559482	-20.09936664
1.01	101	0.149	-1.09	-0.435	-18.1054728	49.0452048	19.767051	84.61443744	0.859437	-19.60089318
1.02	102	0.221	-1.113	-0.408	-19.6524594	43.0291458	20.5118964	84.41390214	0.68182002	-19.15971552
1.03	103	0.186	-1.091	-0.41	-21.0848544	37.7006364	21.0848544	84.20190768	0.49847346	-18.77010408
1.04	104	0.106	-1.063	-0.402	-20.4546006	32.4294228	18.621135	83.98991322	0.33804522	-18.43205886
1.05	105	0.045	-1.041	-0.375	-18.1054728	27.1582092	11.172681	83.77791876	0.24637194	-18.15703902
1.06	106	0.016	-1.035	-0.331	-13.750992	22.2880662	3.2085648	83.64040884	0.23491278	-17.9335854
1.07	107	0.012	-1.032	-0.291	-9.5683986	17.4179232	-3.9534102	83.5372764	0.286479	-17.76742758
1.08	108	0.037	-1.034	-0.249	-5.9014674	14.2666542	-11.172681	83.4799806	0.40680018	-17.63564724
1.09	109	0.08	-1.017	-0.202	-3.724227	11.172681	-17.8189938	83.43987354	0.59014674	-17.54970354
1.1	110	0.097	-0.985	-0.163	-2.9220858	9.3965112	-22.631841	83.39976648	0.84224826	-17.48667816
1.11	111	0.104	-0.958	-0.137	-2.4637194	8.5370742	-24.8090814	83.37111858	1.09434978	-17.42938236
1.12	112	0.119	-0.936	-0.113	-1.8334656	6.5317212	-25.4393352	83.35392984	1.3464513	-17.39500488
1.13	113	0.143	-0.915	-0.083	-1.0313244	2.6929026	-24.923673	83.34247068	1.59855282	-17.39500488
1.14	114	0.159	-0.899	-0.067	-0.9167328	-2.8074942	-23.9496444	83.33101152	1.82773602	-17.4465711
1.15	115	0.151	-0.881	-0.07	-1.2032118	-8.2505952	-23.0902074	83.31955236	2.06837838	-17.5611627
1.16	116	0.13	-0.846	-0.064	-0.5156622	-12.5477802	-22.2880662	83.3080932	2.28037284	-17.71013178
1.17	117	0.109	-0.81	-0.052	0.6302538	-16.1001198	-22.1734746	83.3080932	2.48663772	-17.89347834
1.18	118	0.08	-0.774	-0.043	0.7448454	-18.9649098	-22.2880662	83.3080932	2.68717302	-18.11120238
1.19	119	0.063	-0.725	-0.027	0.7448454	-21.3713334	-22.7464326	83.3080932	2.8934379	-18.34611516
1.2	120	0.048	-0.687	-0.02	0.1718874	-22.058883	-23.3193906	83.30236362	3.10543236	-18.58675752
1.21	121	0.048	-0.656	-0.027	-0.7448454	-21.199446	-23.7204612	83.28517488	3.3231564	-18.82739988
1.22	122	0.052	-0.638	-0.033	-0.3437748	-19.3086846	-22.058883	83.26798614	3.5236917	-19.03939434
1.23	123	0.039	-0.641	-0.038	-0.6302538	-18.5065434	-18.6784308	83.2507974	3.68984952	-19.24565922
1.24	124	0.037	-0.645	-0.045	-2.0626488	-18.5638392	-15.2406828	83.21641992	3.82735944	-19.44619452
1.25	125	0.056	-0.653	-0.048	-3.437748	-19.8243468	-11.6310474	83.17058328	3.9247623	-19.65818898
1.26	126	0.062	-0.674	-0.049	-3.2085648	-20.7410796	-8.5370742	83.13047622	3.98778768	-19.87018344
1.27	127	0.087	-0.708	-0.055	-2.291832	-21.3140376	-6.5317212	83.09036916	4.03362432	-20.08790748
1.28	128	0.106	-0.75	-0.073	-2.86479	-22.5745452	-4.9847346	83.0502621	4.06227222	-20.32282026
1.29	129	0.111	-0.793	-0.091	-1.3750992	-24.2934192	-3.2085648	83.0216142	4.07373138	-20.56346262
1.3	130	0.106	-0.833	-0.103	0.9740286	-26.929026	-1.6042824	83.01015504	4.0680018	-20.83275288
1.31	131	0.125	-0.857	-0.125	5.6722842	-27.4446882	-0.572958	83.05599168	4.05081306	-21.10777272
1.32	132	0.139	-0.877	-0.168	7.2765666	-28.074942	0.286479	83.11328748	4.02216516	-21.38279256
1.33	133	0.142	-0.887	-0.186	11.5737516	-30.2521824	1.2605076	83.21641992	3.98778768	-21.67500114
1.34	134	0.126	-0.885	-0.157	19.4232762	-31.4553942	2.291832	83.3940369	3.93622146	-21.98439846
1.35	135	0.103	-0.899	-0.086	27.9603504	-32.945085	2.7501984	83.66332716	3.89038482	-22.30525494
1.36	136	0.094	-0.946	-0.017	31.2835068	-34.8931422	2.3491278	83.96126532	3.8388186	-22.64330016
1.37	137	0.097	-1.033	0.024	31.4553942	-34.7785506	0.6875496	84.26493306	3.8101707	-22.98134538
1.38	138	0.094	-1.119	0.058	31.1689152	-34.0337052	-0.286479	84.56287122	3.79298196	-23.3193906
1.39	139	0.079	-1.174	0.087	30.3094782	-33.2888598	-0.1145916	84.8550798	3.77579322	-23.64024708
1.4	140	0.077	-1.19	0.12	30.7105488	-31.7418732	1.3178034	85.15874754	3.74714532	-23.9496444
1.41	141	0.077	-1.197	0.147	33.9191136	-30.5959572	2.9220858	85.49106318	3.70703826	-24.24758256
1.42	142	0.057	-1.216	0.121	32.2575354	-32.372127	4.1825934	85.8004605	3.64974246	-24.56270946
1.43	143	-0.026	-1.303	-0.094	19.4232762	-36.3255372	2.86479	85.98380706	3.6096354	-24.91794342
1.44	144	-0.014	-1.355	-0.22	30.5386614	-26.4133638	0	86.27601564	3.59817624	-25.17577452
1.45	145	-0.031	-1.508	-0.286	26.1841806	-23.8923486	-9.3392154	86.52811716	3.68411994	-25.41641688
1.46	146	0.016	-1.513	-0.347	30.2521824	-26.8144344	-18.334656	86.82032574	3.86173692	-25.69143672
1.47	147	0.02	-1.438	-0.398	31.0543236	-37.4714532	-22.7464326	87.11253432	4.07946096	-26.069589
1.48	148	0.003	-1.215	-0.301	25.3820394	-51.0505578	-20.340009	87.34171752	4.27426668	-26.57952162
1.49	149	0.016	-1.052	-0.273	17.2460358	-56.149884	-17.6471064	87.47922744	4.4404245	-27.14102046
1.5	150	0.04	-0.999	-0.413	11.1153852	-59.7595194	-19.4232762	87.53079366	4.62950064	-27.74835594
1.51	151	0.123	-1.005	-0.399	0	-54.2591226	-22.0015872	87.49641618	4.83576552	-28.29266604
1.52	152	0.201	-1.067	-0.303	-4.3544808	-44.6334282	-24.7517856	87.41620206	5.07640788	-28.74530286
1.53	153	0.236	-1.206	-0.256	-9.9121734	-36.2682414	-25.0955604	87.28442172	5.31705024	-29.11772556
1.54	154	0.189	-1.297	-0.267	-17.0741484	-31.2835068	-18.6784308	87.08388642	5.49466722	-29.43858204
1.55	155	0.121	-1.357	-0.282	-18.4492476	-26.5279554	-8.6516658	86.86616238	5.56915176	-29.71360188
1.56	156	0.025	-1.398	-0.262	-18.8503182	-20.8556712	2.6929026	86.6598975	5.53477428	-29.91986676
1.57	157	-0.062	-1.368	-0.21	-16.8449652	-14.9542038	13.3499214	86.47655094	5.39726436	-30.06310626
1.58	158	-0.134	-1.237	-0.18	-15.3552744	-11.2299768	22.345362	86.3161227	5.17381074	-30.16050912
1.59	159	-0.168	-1.098	-0.183	-15.9282324	-8.2505952	25.7258142	86.14996488	4.91025006	-30.22926408
1.6	160	-0.14	-0.968	-0.148	-15.2406828	-2.4637194	25.0382646	85.97807748	4.62950064	-30.22926408
1.61	161	-0.102	-0.867	-0.122	-15.183387	3.9534102	22.4599536	85.8291084	4.40604702	-30.17769786
1.62	162	-0.055	-0.796	-0.103	-14.5531332	9.8548776	19.8816426	85.6858689	4.2112413	-30.06883584
1.63	163	-0.011	-0.737	-0.089	-14.3812458	14.2093584	17.761698	85.55408856	4.04508348	-29.91413718
1.64	164	0.039	-0.673	-0.067	-13.4072172	18.3919518	16.615782	85.4280378	3.88465524	-29.72506104
1.65	165	0.027	-0.625	-0.05	-13.0061466	22.6891368	16.615782	85.30771662	3.72995658	-29.48441868
1.66	166	0.004	-0.59	-0.066	-13.464513	26.642547	18.1627686	85.18166586	3.56379876	-29.20939884
1.67	167	-0.025	-0.579	-0.043	-13.4072172	29.793816	20.2827132	85.06134468	3.3804522	-28.90000152
1.68	168	-0.061	-0.579	-0.043	-14.7823164	34.7212548	22.4599536	84.92956434	3.17418732	-28.53903798
1.69	169	-0.073	-0.57	-0.067	-16.5011904	38.6173692	24.1788276	84.77486568	2.95646328	-28.13796738
1.7	170	-0.069	-0.577	-0.073	-16.8449652	41.7686382	24.4653066	84.62016702	2.73300966	-27.7025193
1.71	171	-0.071	-0.616	-0.056	-16.5584862	44.117766	24.0069402	84.46546836	2.52674478	-27.24988248
1.72	172	-0.074	-0.669	-0.067	-16.615782	45.2063862	22.7464326	84.3107697	2.33193906	-26.78005692
1.73	173	-0.07	-0.736	-0.055	-15.6990492	45.4928652	20.340009	84.1675302	2.16005166	-26.31596094
1.74	174	-0.063	-0.812	-0.05	-14.896908	47.1544434	16.5584862	84.0242907	2.02827132	-25.83467622
1.75	175	-0.038	-0.876	-0.044	-13.6364004	49.1597964	12.7196676	83.89823994	1.93659804	-25.33620276
1.76	176	-0.006	-0.91	-0.02	-12.3758928	51.5089242	9.167328	83.78364834	1.88503182	-24.82054056
1.77	177	0.032	-0.928	-0.01	-11.8602306	53.2277982	6.3598338	83.67478632	1.8621135	-24.28768962
1.78	178	0.048	-0.929	-0.021	-10.599723	51.9099948	5.6149884	83.57738346	1.85065434	-23.77202742
1.79	179	0.058	-0.938	-0.017	-8.7089616	49.1597964	6.4744254	83.49716934	1.82773602	-23.27928354
1.8	180	0.069	-0.947	0.003	-6.016059	46.123119	7.9068204	83.45706228	1.79335854	-22.82091714
1.81	181	0.07	-0.965	0.026	-1.6042824	41.539455	8.5370742	83.44560312	1.74179232	-22.4026578
1.82	182	0.074	-1.001	0.051	2.4637194	37.3568616	7.2192708	83.4799806	1.70168526	-22.02450552
1.83	183	0.067	-1.051	0.072	6.2452422	33.231564	5.2139178	83.54873556	1.67876694	-21.69218988
1.84	184	0.052	-1.1	0.08	9.2819196	28.3041252	2.9220858	83.64613842	1.67876694	-21.40571088
1.85	185	0.036	-1.137	0.076	11.3445684	23.0329116	0.5156622	83.78937792	1.6902261	-21.17652768
1.86	186	0.027	-1.15	0.067	13.5218088	17.6471064	-1.7761698	83.92688784	1.72460358	-21.00464028
1.87	187	0.029	-1.151	0.078	16.042824	14.896908	-4.1252976	84.09304566	1.7761698	-20.86140078
1.88	188	0.043	-1.148	0.119	18.2200644	14.0947668	-6.2452422	84.2821218	1.85065434	-20.72389086
1.89	189	0.054	-1.159	0.2	22.1161788	13.2926256	-7.6776372	84.50557542	1.94232762	-20.5978401
1.9	190	0.04	-1.2	0.242	24.0069402	13.2353298	-8.2505952	84.77486568	2.0340009	-20.47178934
1.91	191	-0.001	-1.235	0.264	23.8350528	12.605076	-8.3651868	85.02123762	2.12567418	-20.35146816
1.92	192	-0.047	-1.262	0.247	24.0069402	11.9175264	-8.6516658	85.26760956	2.21734746	-20.23687656
1.93	193	-0.084	-1.269	0.188	23.3193906	17.18874	-9.6829902	85.50825192	2.32620948	-20.07071874
1.94	194	-0.149	-1.261	0.108	21.5432208	28.934379	-10.7143146	85.73170554	2.45226024	-19.78996932
1.95	195	-0.2	-1.278	0	17.761698	39.1330314	-10.9434978	85.92651126	2.56685184	-19.40608746
1.96	196	-0.188	-1.33	-0.255	6.9327918	50.8213746	-9.1100322	86.01245496	2.67571386	-18.907614
1.97	197	-0.091	-1.373	-0.644	-5.7868758	63.8275212	-1.0886202	85.9723479	2.71582092	-18.2773602
1.98	198	0.082	-1.395	-0.991	-17.8762896	73.5678072	12.3758928	85.81764924	2.62414764	-17.54397396
1.99	199	0.286	-1.388	-1.151	-27.5592798	64.9734372	27.1009134	85.55981814	2.38350528	-16.88507226
2	200	0.498	-1.353	-1.072	-25.7258142	39.3049188	34.4347758	85.30198704	2.0626488	-16.47827208
2.01	201	0.582	-1.179	-0.736	-18.048177	15.4125702	27.8457588	85.12437006	1.79335854	-16.3006551
2.02	202	0.36	-0.971	-0.415	-17.0168526	9.0527364	7.7922288	84.95248266	1.718874	-16.20898182
2.03	203	0.09	-0.956	-0.407	-28.7051958	21.4286292	-11.0007936	84.66027408	1.83919518	-16.00844652
2.04	204	-0.096	-1.048	-0.511	-36.0390582	37.7006364	-18.334656	84.30504012	2.04546006	-15.65894214
2.05	205	-0.172	-1.18	-0.526	-37.0703826	40.5081306	-17.3033316	83.92115826	2.2345362	-15.28078986
2.06	206	-0.205	-1.292	-0.488	-36.955791	32.945085	-15.9855282	83.55446514	2.41788276	-14.97139254
2.07	207	-0.145	-1.367	-0.43	-36.382833	27.8457588	-18.907614	83.1935016	2.62414764	-14.7250206
2.08	208	-0.006	-1.414	-0.399	-36.955791	27.4446882	-24.4080108	82.82680848	2.88770832	-14.48437824
2.09	209	0.143	-1.376	-0.346	-39.7059894	28.4760126	-28.934379	82.43146746	3.19710564	-14.24373588
2.1	210	0.253	-1.243	-0.261	-44.5761324	28.7051958	-30.653253	81.98456022	3.53515086	-14.0088231
2.11	211	0.286	-1.082	-0.234	-48.1857678	28.0176462	-31.51269	81.5032755	3.87319608	-13.78536948
2.12	212	0.272	-0.991	-0.237	-48.414951	24.8090814	-31.5699858	81.02199078	4.20551172	-13.59056376
2.13	213	0.224	-0.951	-0.232	-47.1544434	18.048177	-30.7105488	80.54643564	4.5263682	-13.464513
2.14	214	0.174	-0.884	-0.221	-46.6387812	10.4851314	-30.3094782	80.07661008	4.83576552	-13.41867636
2.15	215	0.135	-0.777	-0.202	-47.3263308	4.297185	-31.3980984	79.58959578	5.15089242	-13.4358651
2.16	216	0.125	-0.681	-0.181	-47.841993	0.2291832	-33.9191136	79.0968519	5.47747848	-13.49889048
2.17	217	0.096	-0.63	-0.19	-48.4722468	-2.8074942	-39.534102	78.59264886	5.84990118	-13.6077525
2.18	218	0.065	-0.621	-0.184	-48.0711762	-7.3338624	-45.3782736	78.08844582	6.2738901	-13.77391032
2.19	219	0.055	-0.619	-0.138	-47.0398518	-11.1153852	-49.5035712	77.58424278	6.7322565	-13.99163436
2.2	220	0.079	-0.614	-0.134	-46.2377106	-12.318597	-49.6754586	77.0914989	7.18489332	-14.22654714
2.21	221	0.133	-0.583	-0.138	-44.5188366	-13.4072172	-46.4668938	76.61021418	7.60315266	-14.4671895
2.22	222	0.188	-0.568	-0.155	-41.1383844	-17.6471064	-42.2270046	76.15184778	7.96984578	-14.74220934
2.23	223	0.228	-0.569	-0.182	-38.8465524	-24.350715	-39.0184398	75.7163997	8.29070226	-15.07452498
2.24	224	0.251	-0.607	-0.196	-36.096354	-30.366774	-37.0130868	75.29241078	8.57718126	-15.46413642
2.25	225	0.246	-0.649	-0.205	-34.5493674	-36.1536498	-35.523396	74.87988102	8.84074194	-15.91677324
2.26	226	0.22	-0.682	-0.211	-33.4034514	-40.6227222	-36.1536498	74.46735126	9.08711388	-16.40951712
2.27	227	0.232	-0.698	-0.256	-31.51269	-43.0864416	-37.7006364	74.06628066	9.34494498	-16.9309089
2.28	228	0.266	-0.696	-0.306	-30.7678446	-47.4409224	-39.9351726	73.66521006	9.60277608	-17.5038669
2.29	229	0.291	-0.693	-0.342	-30.5386614	-53.3996856	-41.4821592	73.2526803	9.86060718	-18.14557986
2.3	230	0.322	-0.679	-0.412	-30.1948866	-61.1346186	-42.112413	72.81723222	10.10697912	-18.86750694
2.31	231	0.341	-0.666	-0.448	-27.6738714	-72.0781164	-40.966497	72.39897288	10.29605526	-19.68683688
2.32	232	0.367	-0.648	-0.367	-26.8717302	-88.0636446	-38.674665	71.9635248	10.41637644	-20.66086548
2.33	233	0.396	-0.598	-0.152	-20.1681216	-102.845961	-36.8984952	71.56818378	10.47367224	-21.76667442
2.34	234	0.43	-0.533	-0.021	-12.605076	-110.3517108	-36.8984952	71.24159772	10.50232014	-22.9469679
2.35	235	0.436	-0.472	0.08	-6.589017	-120.0919968	-36.955791	70.97230746	10.5137793	-24.22466424
2.36	236	0.469	-0.477	0.204	2.9793816	-126.337239	-34.8358464	70.77750174	10.46221308	-25.54819722
2.37	237	0.461	-0.564	0.125	5.7868758	-134.3013552	-32.8304934	70.59988476	10.3705398	-26.94048516
2.38	238	0.502	-0.723	0.11	4.8128472	-138.5412444	-29.9657034	70.41080862	10.2273003	-28.36715058
2.39	239	0.581	-0.877	0.082	0.7448454	-143.7551622	-27.3873924	70.18162542	10.04395374	-29.83392306
2.4	240	0.583	-1.042	-0.072	-8.021412	-154.0111104	-28.5333084	69.85503936	9.83768886	-31.3980984
2.41	241	0.491	-1.239	-0.278	-29.4500412	-159.4542114	-30.4240698	69.2992701	9.60850566	-33.01956954
2.42	242	0.414	-1.51	-0.455	-55.003968	-154.3548852	-33.0596766	68.50285848	9.40224078	-34.60093362
2.43	243	0.409	-1.744	-0.506	-77.8076964	-148.396122	-35.9817624	67.48299324	9.21316464	-36.13646106
2.44	244	0.396	-1.8	-0.407	-88.0063488	-156.417534	-34.37748	66.35426598	8.94960396	-37.73501388
2.45	245	0.34	-1.705	-0.302	-90.4127724	-171.027963	-29.6792244	65.2026204	8.55999252	-39.44242872
2.46	246	0.339	-1.592	-0.391	-99.5228046	-176.5856556	-23.9496444	63.96503112	8.05578948	-41.1670323
2.47	247	0.436	-1.634	-0.646	-113.2737966	-183.0027852	-15.2979786	62.60712066	7.41407652	-42.89163588
2.48	248	0.578	-1.703	-0.679	-124.5037734	-194.1181704	-5.72958	61.15753692	6.589017	-44.65634652
2.49	249	0.681	-1.705	-0.502	-136.1348208	-202.0249908	1.145916	59.61055032	5.62644756	-46.43251632
2.5	250	0.68	-1.637	-0.554	-152.120349	-215.3749122	5.2139178	57.93751296	4.50917946	-48.2717115
2.51	251	0.626	-1.591	-0.495	-157.1050836	-225.458973	8.1932994	56.24155728	3.26013102	-50.14528416
2.52	252	0.509	-1.525	-0.374	-162.433593	-235.8295128	4.9847346	54.53987202	1.93086846	-52.0818822
2.53	253	0.408	-1.363	-0.204	-158.7666618	-250.3253502	-0.0572958	52.91840088	0.49847346	-54.12734226
2.54	254	0.292	-1.184	-0.053	-160.0844652	-259.4926782	5.0993262	51.3370368	-1.07716104	-56.16707274
2.55	255	0.146	-0.987	0.115	-151.547391	-274.160403	21.2567418	49.92183054	-2.91635622	-58.17815532
2.56	256	0.053	-0.733	0.376	-143.525979	-277.7127426	38.7892566	48.62694546	-4.96181628	-60.06891672
2.57	257	0.074	-0.471	0.493	-133.6138056	-271.009134	53.6861646	47.48675904	-7.11613836	-61.77060198
2.58	258	0.124	-0.278	0.552	-123.0713784	-262.0709892	61.1919144	46.4955417	-9.28764918	-63.31758858
2.59	259	0.173	-0.163	0.585	-115.5083328	-253.0182528	61.9367598	45.61891596	-11.43624168	-64.76717232
2.6	260	0.162	-0.061	0.6	-108.4609494	-247.1167854	60.16059	44.86834098	-13.54472712	-66.16518984
2.61	261	0.075	0.018	0.636	-103.0178484	-239.8402188	58.9573782	44.19225054	-15.61883508	-67.50018198
2.62	262	-0.027	0.093	0.626	-97.2309726	-236.5743582	58.4990118	43.61356296	-17.6757543	-68.80652622
2.63	263	-0.102	0.127	0.695	-87.7771656	-230.042637	58.4990118	43.15519656	-19.69256646	-70.06130424
2.64	264	-0.015	0.147	0.742	-76.5471888	-216.2343492	56.722842	42.81715134	-21.61197576	-71.23013856
2.65	265	0.122	0.127	0.797	-57.9833496	-202.7698362	49.2170922	42.70828932	-23.39387514	-72.35886582
2.66	266	0.169	0.116	0.832	-49.274388	-189.649098	42.2270046	42.685371	-25.02680544	-73.45894518
2.67	267	0.235	0.179	0.815	-42.1697088	-177.5596842	36.7839036	42.7426668	-26.53941456	-74.52464706
2.68	268	0.286	0.315	0.799	-34.091001	-171.0852588	30.2521824	42.9145542	-27.95462082	-75.60753768
2.69	269	0.281	0.498	0.94	-22.9756158	-164.9546082	21.5432208	43.24686984	-29.26669464	-76.73626494
2.7	270	0.232	0.657	0.864	-8.59437	-157.9072248	12.2040054	43.76826162	-30.46990644	-77.91082884
2.71	271	0.181	0.745	0.703	8.3651868	-143.5832748	4.5263682	44.4615408	-31.48977168	-79.05674484
2.72	272	0.09	0.762	0.654	30.8251404	-123.5297448	-2.6929026	45.35535528	-32.30910162	-80.12244672
2.73	273	-0.157	0.725	0.528	45.8939358	-112.6435428	-13.0634424	46.41532758	-32.96227374	-81.20533734
2.74	274	-0.403	0.719	0.398	41.4821592	-104.564835	-14.4385416	47.42373366	-33.53523174	-82.24239132
2.75	275	-0.471	0.617	0.191	25.5539268	-93.1629708	-0.6302538	48.13993116	-34.16548554	-83.07891
2.76	276	-0.508	0.45	-0.012	12.7196676	-96.4861272	15.1260912	48.71861874	-34.8931422	-83.84094414
2.77	277	-0.424	0.147	-0.081	-5.6722842	-103.3043274	23.1475032	49.12541892	-35.71820172	-84.6258966
2.78	278	-0.245	-0.05	-0.245	-41.252976	-116.7115446	36.096354	49.20563304	-36.72087822	-85.44522654
2.79	279	-0.178	0.078	-0.407	-41.0237928	-137.1088494	51.7381074	49.3603317	-37.97565624	-86.35050018
2.8	280	-0.29	0.16	-0.46	12.032118	-151.4900952	59.1865614	50.11090668	-39.3622146	-87.3474471
2.81	281	-0.356	0.087	-0.353	26.0122932	-168.2777646	62.452422	51.17660856	-40.85763498	-88.55638848
2.82	282	-0.39	0.074	-0.134	4.3544808	-185.2946172	60.9054354	52.2251217	-42.4275399	-90.02316096
2.83	283	-0.477	0.069	-0.119	-10.8289062	-191.0241972	59.0719698	53.25071652	-43.99744482	-91.63890252
2.84	284	-0.317	0.019	-0.348	-28.074942	-204.0303438	56.0352924	54.3164184	-45.60172722	-93.51820476
2.85	285	0.164	-0.053	-0.574	-44.0604702	-221.3336754	53.7434604	55.47952314	-47.23465752	-95.71836348
2.86	286	0.522	-0.121	-0.371	-31.1689152	-244.366587	51.6808116	57.16401966	-48.95353152	-98.35969986
2.87	287	0.548	-0.155	-0.059	-23.4339822	-264.993075	48.5295426	59.34698964	-50.6781351	-101.482321
2.88	288	0.369	0.043	-0.115	-35.0650296	-279.030546	50.5348956	61.7935203	-52.40846826	-105.0117422
2.89	289	0.041	0.563	-0.105	-38.0444112	-298.6257096	90.240885	64.50934122	-54.47684664	-108.8219129
2.9	290	-1.338	0.486	0.248	0	-335.5242048	144.7291908	68.23356822	-57.04942806	-113.268067
2.91	291	-2.595	-0.335	0.453	46.0658232	-376.7771808	171.6582168	73.625103	-59.78243772	-118.9861879
2.92	292	-3.911	-0.973	0.515	61.020027	-378.0376884	200.9936664	80.12244672	-62.46961074	-125.6325007
2.93	293	-3.999	-0.45	0.145	30.3094782	-286.9373664	258.0029874	85.58846604	-65.2885641	-131.3334328
2.94	294	-3.999	-0.057	-0.087	-8.9381448	-140.37471	303.2666694	88.42460814	-68.3252415	-134.4961609
2.95	295	-3.999	0.924	1.635	-158.3082954	-166.6161864	342.5715882	91.46701512	-71.69996412	-139.4006814
2.96	296	-3.999	1.909	2.05	-73.7969904	-459.4550202	381.4181406	107.6989153	-74.62204992	-157.0420582
2.97	297	-3.999	1.423	0.791	15.0114996	-389.7260316	274.3895862	125.1397568	-75.24657414	-174.8839703
2.98	298	-3.999	1.676	1.187	-34.8358464	-353.1140154	192.1701132	138.87356	-74.24962722	170.5753262
2.99	299	-3.209	0.909	1.001	-25.0382646	-279.7753914	126.1080558	147.4564709	-72.73128852	161.4022686
3	300	-2.177	0.32	1.383	-47.2117392	-320.9710716	128.5144794	154.8017924	-70.51967064	153.2089692
3.01	301	-1.971	0.044	1.396	31.2835068	-234.91278	141.1768512	160.8636881	-68.8695516	147.1184257
3.02	302	-1.691	0.353	1.615	31.0543236	-221.448267	123.4151532	165.5332958	-67.11057054	142.4602771
3.03	303	-1.934	-0.575	1.753	21.3140376	-211.8225726	85.3134462	168.5814323	-65.24272746	139.4006814
3.04	304	-1.625	-0.969	1.409	6.302538	-194.519241	72.5937786	170.7529432	-63.47228724	137.0859311
3.05	305	-1.003	-0.087	0.99	16.042824	-182.8308978	66.5204238	172.637975	-61.7648724	135.1837105
3.06	306	-0.45	0.613	1.033	31.1689152	-172.3457664	52.3683612	174.1735024	-60.12621252	133.8200705
3.07	307	-0.424	0.507	0.989	41.3102718	-168.2204688	37.0130868	175.4053621	-58.50474138	132.9033377
3.08	308	-0.355	0.327	0.841	44.2323576	-164.6108334	33.7472262	176.5111711	-56.90618856	132.1584923
3.09	309	-0.325	0.266	0.702	45.2063862	-155.844576	33.0023808	177.5310363	-55.38784986	131.5053202
3.1	310	-0.374	0.157	0.655	47.9565846	-145.4740362	36.1536498	178.5566311	-53.94972528	130.8750664
3.11	311	-0.295	0.161	0.607	43.7739912	-136.7077788	41.1383844	179.5421189	-52.60900356	130.2218942
3.12	312	-0.33	0.14	0.551	42.2270046	-134.1867636	42.6280752	-179.513471	-51.29120016	129.6030996
3.13	313	-0.376	0.167	0.513	34.37748	-132.9835518	42.2270046	-178.7113298	-49.97339676	129.0358712
3.14	314	-0.316	0.316	0.552	28.4760126	-141.6925134	41.7113424	-178.012321	-48.56392008	128.5259386
3.15	315	-0.389	0.162	0.58	20.3973048	-151.6619826	28.5906042	-177.5711434	-47.05704054	128.2451891
3.16	316	-0.561	0.121	0.511	24.350715	-143.0103168	11.0580894	-177.2961235	-45.64183428	128.23373
3.17	317	-0.341	0.221	0.436	21.8296998	-130.5771282	4.4117766	-177.112777	-44.35267878	128.3139441
3.18	318	-0.18	0.338	0.452	21.199446	-130.061466	0.9167328	-176.975267	-43.07498244	128.4457244
3.19	319	-0.166	0.339	0.542	11.5164558	-146.3334732	6.3598338	-176.8835938	-41.63112828	128.520209
3.2	320	-0.22	0.281	0.649	10.3705398	-153.7819272	6.7609044	-176.7976501	-40.09560084	128.5889639
3.21	321	-0.261	0.184	0.796	-9.2819196	-165.2410872	15.8136408	-176.8492163	-38.45694096	128.560316
3.22	322	-0.273	0.189	0.807	-32.085648	-163.3503258	20.340009	-177.0955882	-36.83546982	128.4686428
3.23	323	-0.292	0.19	0.823	-24.064236	-159.9125778	20.2827132	-177.261746	-35.24264658	128.3655103
3.24	324	-0.309	0.125	0.838	-26.4706596	-160.141761	21.3713334	-177.439363	-33.64982334	128.2509187
3.25	325	-0.387	0.219	0.94	-20.626488	-152.2349406	20.5691922	-177.5596842	-32.13148464	128.1305975
3.26	326	-0.381	0.207	1.001	-5.6722842	-144.3281202	19.3086846	-177.5424955	-30.69908964	128.0217355
3.27	327	-0.386	0.229	1.015	13.2926256	-122.7848994	12.032118	-177.3763376	-29.48441868	127.987358
3.28	328	-0.345	0.167	0.983	18.1627686	-106.0545258	4.297185	-177.1987207	-28.44163512	128.0274651
3.29	329	-0.39	0.15	1.065	18.1054728	-90.5846598	2.4637194	-177.0268333	-27.54782064	128.0790313
3.3	330	-0.382	0.16	1.064	11.9175264	-76.776372	-2.2345362	-176.9237008	-26.78005692	128.1764342
3.31	331	-0.35	0.166	1.055	4.8128472	-70.9322004	-1.3178034	-176.9007825	-26.08104816	128.2509187
3.32	332	-0.397	0.158	1.045	1.8907614	-67.6663398	-0.5156622	-176.9065121	-25.41641688	128.3196737
3.33	333	-0.331	0.194	1.09	0.1145916	-61.4783934	-0.286479	-176.9179712	-24.8090814	128.3769695
3.34	334	-0.364	0.187	1.115	-3.9534102	-52.8840234	0.9167328	-176.9695375	-24.28768962	128.411347
3.35	335	-0.337	0.197	1.091	-4.9274388	-49.3316838	0	-177.0096445	-23.777757	128.451454
3.36	336	-0.314	0.196	1.124	-12.2040054	-46.6387812	-0.4010706	-177.1471544	-23.3193906	128.4915611
3.37	337	-0.332	0.164	1.188	-14.7250206	-45.7220484	-1.6042824	-177.3133123	-22.86675378	128.5488569
3.38	338	-0.264	0.198	1.198	-21.7151082	-40.680018	-1.8907614	-177.548225	-22.46568318	128.6004231
3.39	339	-0.298	0.183	1.159	-25.1528562	-35.6952834	-2.9793816	-177.8175153	-22.11044922	128.6577189
3.4	340	-0.264	0.186	1.149	-24.923673	-33.6899304	-4.2398892	-178.081076	-21.76094484	128.7207443
3.41	341	-0.252	0.164	1.149	-26.356068	-30.366774	-4.2398892	-178.367555	-21.4572771	128.7837697
3.42	342	-0.3	0.064	1.109	-28.1322378	-24.637194	-4.9847346	-178.6712227	-21.21663474	128.846795
3.43	343	-0.188	0.125	1.152	-28.3041252	-21.4286292	-6.1306506	-178.9863496	-20.9989107	128.9212796
3.44	344	-0.348	0.009	1.158	-27.9603504	-17.8762896	-6.7036086	-179.2957469	-20.82129372	128.9957641
3.45	345	-0.258	0.218	1.155	-26.6998428	-9.9121734	-2.578311	-179.5077414	-20.67805422	129.0014937
3.46	346	-0.235	0.364	0.831	-23.6058696	18.048177	-7.0473834	-179.7713021	-20.8556712	129.0702487
3.47	347	-0.234	0.202	0.64	-14.037471	40.6227222	-10.4851314	-179.9546486	-21.2567418	129.1676515
3.48	348	-0.157	0.035	0.756	-4.1252976	49.9046418	-4.3544808	179.977567	-21.74948568	129.202029
3.49	349	-0.189	0.059	1.071	-9.9694692	50.993262	0.2291832	179.8744345	-22.25368872	129.1848403
3.5	350	-0.22	0.118	1.264	-10.1986524	31.1689152	2.1199446	179.7827612	-22.5458973	129.1504628
3.51	351	-0.319	0.056	1.311	-10.4851314	10.5424272	2.6356068	179.691088	-22.64902974	129.1160853
3.52	352	-0.358	0.058	1.205	-11.6883432	-3.151269	2.1772404	179.5822259	-22.61465226	129.093167
3.53	353	-0.403	0.053	1.107	-10.2559482	-9.7975818	0.7448454	179.4790935	-22.5172494	129.0874374
3.54	354	-0.382	0.076	1.037	-6.5317212	-12.2613012	-0.0572958	179.4160681	-22.39692822	129.0874374
3.55	355	-0.294	0.085	0.995	-5.3858052	-11.1153852	-0.5156622	179.404609	-22.21931124	129.0874374
3.56	356	-0.256	0.071	0.948	-6.589017	-5.0993262	-1.718874	179.3301244	-22.16774502	129.1046261
3.57	357	-0.263	0.075	0.914	-7.734933	4.0680018	-2.6356068	179.2441807	-22.20785208	129.133274
3.58	358	-0.26	0.088	0.9	-7.734933	13.0634424	-3.8388186	179.1467779	-22.33390284	129.1733811
3.59	359	-0.267	0.117	0.926	-7.6776372	21.6005166	-6.5317212	179.0379158	-22.5458973	129.2364065
3.6	360	-0.267	0.11	0.962	-9.453807	30.7105488	-9.6256944	178.9290538	-22.8323763	129.3280798
3.61	361	-0.285	0.068	1.014	-12.1467096	38.3308902	-14.9542038	178.7399777	-23.204799	129.488508
3.62	362	-0.302	0.113	1.049	-16.6730778	45.3782736	-20.1681216	178.476417	-23.64597666	129.7005025
3.63	363	-0.322	0.096	1.067	-19.4232762	56.0352924	-32.4294228	178.1269126	-24.19028676	130.0500068
3.64	364	-0.341	0.119	1.072	-22.6891368	64.457775	-34.4347758	177.7315716	-24.81481098	130.4338887
3.65	365	-0.345	0.072	1.097	-24.2934192	73.625103	-39.7059894	177.2903939	-25.51381974	130.8750664
3.66	366	-0.374	0.096	1.082	-26.5279554	81.5319234	-42.4561878	176.7976501	-26.2987722	131.3620807
3.67	367	-0.385	0.087	1.044	-23.204799	88.0636446	-47.4982182	176.2991766	-27.14102046	131.9178499
3.68	368	-0.405	0.081	1.036	-20.3973048	93.105675	-48.2430636	175.8121623	-28.02337578	132.5022671
3.69	369	-0.434	0.114	1.042	-11.6310474	100.26765	-51.56622	175.3709846	-28.97448606	133.1382505
3.7	370	-0.481	0.114	1.067	-4.8128472	112.9873176	-51.1078536	174.9928324	-30.04591752	133.785693
3.71	371	-0.494	0.076	1.113	6.589017	132.639777	-49.274388	174.7063534	-31.3121547	134.4445947
3.72	372	-0.477	0	1.112	25.78311	154.2975894	-45.4355694	174.6032209	-32.79611592	135.0977668
3.73	373	-0.496	-0.043	1.057	37.3568616	165.2410872	-37.6433406	174.6375984	-34.39466874	135.682184
3.74	374	-0.532	-0.079	1.017	39.3049188	164.0378754	-30.1375908	174.7235421	-35.99322156	136.1806574
3.75	375	-0.548	-0.013	0.97	35.6952834	160.714719	-25.3820394	174.8037562	-37.55166732	136.6218351
3.76	376	-0.594	-0.016	0.95	25.78311	158.5374786	-25.78311	174.7579196	-39.09865392	137.0744719
3.77	377	-0.643	0.033	0.926	17.7044022	158.422887	-27.8457588	174.6032209	-40.63418136	137.5729454
3.78	378	-0.674	0.057	0.884	13.3499214	155.558097	-30.939732	174.3511194	-42.1410609	138.1229851
3.79	379	-0.701	-0.003	0.871	12.2040054	155.271618	-33.9191136	174.0359925	-43.64221086	138.7360501
3.8	380	-0.713	-0.011	0.856	8.3651868	158.136408	-34.3201842	173.6463811	-45.16054956	139.3834927
3.81	381	-0.674	0.004	0.831	10.1986524	159.1104366	-34.4347758	173.2395809	-46.69034742	140.0653127
3.82	382	-0.661	0.055	0.775	13.5791046	153.552744	-33.231564	172.8442399	-48.16284948	140.7643214
3.83	383	-0.676	0.031	0.76	17.18874	145.4167404	-33.8618178	172.4488988	-49.55513742	141.4919781
3.84	384	-0.63	0.038	0.811	15.5271618	137.6245116	-33.4607472	172.0134508	-50.86721124	142.2368235
3.85	385	-0.627	0.055	0.82	17.1314442	128.1134088	-31.51269	171.6066506	-52.07042304	142.9644802
3.86	386	-0.674	0.054	0.782	18.907614	120.5503632	-30.8824362	171.1883912	-53.21060946	143.7093256
3.87	387	-0.689	0.021	0.736	18.3919518	116.1958824	-31.226211	170.7357544	-54.30495924	144.4828189
3.88	388	-0.756	0.05	0.695	16.2147114	112.872726	-29.8511118	170.2487401	-55.36493154	145.2620417
3.89	389	-0.842	0	0.66	18.334656	111.8414016	-30.8251404	169.7330779	-56.4077151	146.0928308
3.9	390	-0.866	-0.015	0.625	19.6524594	111.8986974	-30.5959572	169.200227	-57.44476908	146.9522678
3.91	391	-0.882	-0.01	0.623	20.6837838	112.4143596	-30.5959572	168.6215394	-58.48182306	147.8632711
3.92	392	-0.881	-0.006	0.598	20.4546006	114.4770084	-30.8824362	167.9798264	-59.53606578	148.8372997
3.93	393	-0.896	-0.018	0.583	20.5118964	117.2272068	-30.5386614	167.2750881	-60.61322682	149.8686241
3.94	394	-0.963	-0.03	0.549	18.7930224	120.6649548	-31.9137606	166.4500286	-61.71330618	151.0088105
3.95	395	-0.888	0.007	0.536	19.9389384	122.326533	-28.361421	165.6364282	-62.83057428	152.1432673
3.96	396	-0.851	0.015	0.487	21.5432208	119.175264	-22.631841	164.8686645	-63.91919448	153.2318875
3.97	397	-0.838	-0.046	0.398	20.7410796	113.7894588	-19.9962342	164.0894416	-64.96197804	154.3090486
3.98	398	-0.766	-0.093	0.306	13.6364004	106.6274838	-18.5638392	163.2357342	-65.93027706	155.3862096
3.99	399	-0.67	-0.069	0.279	5.6149884	96.3715356	-16.2147114	162.3419197	-66.80117322	156.4118044
4	400	-0.615	-0.033	0.267	0.1145916	85.7145168	-13.5791046	161.4595644	-67.56893694	157.3571851
4.01	401	-0.564	-0.04	0.267	-0.5156622	73.3959198	-11.3445684	160.6516936	-68.22783864	158.2166221
4.02	402	-0.483	-0.041	0.22	-4.8128472	57.5249832	-8.6516658	159.9412257	-68.73777126	158.9213605
4.03	403	-0.483	-0.13	0.193	-1.8334656	37.9298196	-7.5057498	159.4198339	-69.0700869	159.4484818
4.04	404	-0.556	-0.171	0.165	-6.875496	19.194093	-5.72958	159.0474112	-69.23051514	159.7693383
4.05	405	-0.638	-0.139	0.166	-9.453807	6.3598338	-3.724227	158.778121	-69.28208136	159.9469553
4.06	406	-0.689	-0.096	0.191	-6.6463128	-0.7448454	-1.3750992	158.6864477	-69.2706222	159.9756032
4.07	407	-0.739	-0.059	0.221	-1.9480572	-2.9793816	1.0313244	158.7208252	-69.24770388	159.9183074
4.08	408	-0.808	-0.041	0.246	3.0939732	-4.0680018	2.8074942	158.8583351	-69.21905598	159.8037158
4.09	409	-0.861	-0.046	0.268	6.3598338	-4.6409598	3.8388186	159.0531408	-69.19040808	159.6604763
4.1	410	-0.884	-0.059	0.298	6.8182002	-3.0939732	4.6982556	159.3453494	-69.19613766	159.4370227
4.11	411	-0.893	-0.062	0.323	5.0420304	-0.5156622	6.3598338	159.5516143	-69.2133264	159.2651353
4.12	412	-0.9	-0.068	0.357	2.6929026	2.2345362	7.8495246	159.7578791	-69.26489262	159.0817887
4.13	413	-0.894	-0.069	0.367	-0.572958	3.437748	8.3651868	159.9297665	-69.327918	158.886983
4.14	414	-0.884	-0.059	0.355	-3.0939732	3.0939732	8.1932994	160.073006	-69.37948422	158.6979068
4.15	415	-0.884	-0.045	0.34	-4.4690724	1.432395	8.021412	160.3365667	-69.42532086	158.3827799
4.16	416	-0.891	-0.045	0.348	-4.5263682	0.0572958	8.1932994	160.496995	-69.45396876	158.1650559
4.17	417	-0.889	-0.04	0.366	-6.2452422	-1.0886202	9.5111028	160.6803415	-69.47688708	157.8957656
4.18	418	-0.893	-0.024	0.374	-8.7089616	-4.8128472	10.886202	160.9095247	-69.46542792	157.56345
4.19	419	-0.897	-0.021	0.377	-9.2819196	-9.9121734	10.5424272	161.1616262	-69.40240254	157.1910273
4.2	420	-0.886	-0.017	0.382	-10.1986524	-15.5271618	9.6256944	161.4939419	-69.27635178	156.7383905
4.21	421	-0.881	-0.003	0.389	-10.6570188	-20.2254174	8.9954406	161.7689617	-69.11592354	156.3315903
4.22	422	-0.893	0.009	0.394	-10.1413566	-24.350715	8.8235532	162.0668999	-68.90965866	155.9076014
4.23	423	-0.91	0.007	0.4	-8.8235532	-27.1582092	8.2505952	162.3820268	-68.67474588	155.4778829
4.24	424	-0.935	0.007	0.426	-8.1360036	-28.5333084	7.5630456	162.6856945	-68.42837394	155.0710827
4.25	425	-0.939	0.014	0.455	-7.5057498	-28.361421	7.6203414	163.0638468	-68.16481326	154.5955276
4.26	426	-0.944	0.017	0.489	-7.448454	-28.7051958	6.875496	163.3388666	-67.90698216	154.2231049
4.27	427	-0.951	0.027	0.508	-8.0787078	-28.8770832	5.443101	163.5737794	-67.64915106	153.8850596
4.28	428	-0.944	0.034	0.522	-9.1100322	-27.8457588	3.724227	163.7399372	-67.39131996	153.6043102
4.29	429	-0.925	0.037	0.528	-10.026765	-26.6998428	2.1772404	163.8545288	-67.13921844	153.375127
4.3	430	-0.922	0.048	0.533	-10.4851314	-26.4133638	1.0886202	164.0378754	-66.86992818	153.088648
4.31	431	-0.92	0.045	0.543	-11.0580894	-26.929026	0.3437748	164.0951712	-66.61209708	152.9053015
4.32	432	-0.902	0.023	0.552	-11.172681	-26.8717302	-0.8021412	164.1180895	-66.3485364	152.7563324
4.33	433	-0.895	0.016	0.545	-11.2299768	-27.7311672	-1.9480572	164.1238191	-66.07351656	152.6360112
4.34	434	-0.903	0.023	0.531	-10.7143146	-28.934379	-3.151269	164.1123599	-65.78703756	152.5328788
4.35	435	-0.904	0.023	0.523	-9.6256944	-28.4760126	-4.2398892	164.1581966	-65.4890994	152.3896393
4.36	436	-0.893	0.019	0.515	-7.5057498	-26.9863218	-5.156622	164.1238191	-65.21407956	152.3495322
4.37	437	-0.881	0.007	0.51	-4.870143	-25.3247436	-6.0733548	164.083712	-64.95624846	152.338073
4.38	438	-0.876	0	0.508	-2.578311	-23.7204612	-6.7609044	164.0493346	-64.70987652	152.3552618
4.39	439	-0.88	0.002	0.522	-0.5156622	-21.772404	-7.3911582	164.0092275	-64.48069332	152.3953688
4.4	440	-0.883	0.003	0.545	1.8907614	-18.8503182	-7.9641162	164.0665233	-64.25151012	152.3839097
4.41	441	-0.887	-0.002	0.567	3.9534102	-15.4125702	-8.307891	164.0206867	-64.07962272	152.4813125
4.42	442	-0.882	-0.021	0.585	4.583664	-11.5164558	-8.8235532	163.9519317	-63.94784238	152.6073633
4.43	443	-0.876	-0.032	0.586	3.9534102	-8.9381448	-8.9381448	163.8602584	-63.83898036	152.7563324
4.44	444	-0.876	-0.038	0.592	3.0366774	-7.2192708	-8.8235532	163.757126	-63.7415775	152.9053015
4.45	445	-0.876	-0.042	0.598	2.86479	-5.2712136	-8.4224826	163.7800443	-63.598338	152.9568677
4.46	446	-0.878	-0.05	0.596	2.9793816	-2.7501984	-7.7922288	163.6769119	-63.55250136	153.1115663
4.47	447	-0.88	-0.053	0.59	2.4064236	0	-7.1046792	163.5623203	-63.52958304	153.2605354
4.48	448	-0.878	-0.054	0.584	2.1772404	2.1199446	-6.4744254	163.4477287	-63.53531262	153.4152341
4.49	449	-0.876	-0.054	0.58	2.291832	4.1252976	-5.6722842	163.3388666	-63.55823094	153.5584736
4.5	450	-0.879	-0.057	0.572	2.6356068	5.8441716	-4.8128472	163.3732441	-63.53531262	153.5928511
4.51	451	-0.879	-0.058	0.565	2.9220858	7.0473834	-4.2398892	163.2815708	-63.58687884	153.7246314
4.52	452	-0.876	-0.06	0.559	2.6356068	8.2505952	-3.151269	163.2013567	-63.66136338	153.8449526
4.53	453	-0.877	-0.06	0.555	2.6356068	9.453807	-2.1199446	163.1326018	-63.74730708	153.948085
4.54	454	-0.881	-0.06	0.552	2.4064236	10.7143146	-1.0886202	163.0810355	-63.84470994	154.0340287
4.55	455	-0.881	-0.057	0.546	1.718874	11.9175264	-0.1718874	163.1612497	-63.89627616	153.9996512
4.56	456	-0.879	-0.057	0.531	0.7448454	12.4331886	0.6302538	163.115413	-64.02232692	154.0626766
4.57	457	-0.875	-0.059	0.52	-0.6302538	12.032118	1.3750992	163.0695764	-64.13691852	154.1027837
4.58	458	-0.874	-0.056	0.507	-1.8334656	10.886202	2.1772404	163.0351989	-64.25151012	154.1199724
4.59	459	-0.871	-0.053	0.5	-2.8074942	10.1413566	2.9220858	163.006551	-64.35464256	154.1142428
4.6	460	-0.868	-0.049	0.489	-3.2085648	9.6829902	3.724227	163.1039539	-64.4291271	153.9996512
4.61	461	-0.865	-0.048	0.479	-3.0939732	9.3392154	4.5263682	163.1096834	-64.53225954	153.9538146
4.62	462	-0.864	-0.047	0.472	-3.2658606	8.6516658	4.9847346	163.1268722	-64.6296624	153.8907892
4.63	463	-0.864	-0.045	0.472	-3.2658606	8.0787078	5.443101	163.1612497	-64.72133568	153.8220343
4.64	464	-0.866	-0.038	0.476	-3.2085648	7.3911582	5.9587632	163.2070863	-64.80727938	153.730361
4.65	465	-0.871	-0.038	0.479	-3.3231564	6.4744254	6.302538	163.3904329	-64.8588456	153.5183665
4.66	466	-0.869	-0.038	0.476	-3.7815228	5.6149884	6.2452422	163.4477287	-64.92760056	153.4095045
4.67	467	-0.868	-0.031	0.471	-4.1252976	4.583664	6.1306506	163.510754	-64.99062594	153.3006425
4.68	468	-0.866	-0.027	0.468	-3.7815228	3.2085648	5.9587632	163.5737794	-65.03646258	153.1803213
4.69	469	-0.868	-0.021	0.469	-3.0366774	2.005353	5.8441716	163.6539935	-65.07084006	153.0600001
4.7	470	-0.868	-0.019	0.47	-2.1772404	1.145916	5.5576926	164.0206867	-65.04792174	152.6990366
4.71	471	-0.869	-0.016	0.476	-1.3178034	0.4583664	5.3285094	164.1123599	-65.06511048	152.5787154
4.72	472	-0.866	-0.014	0.486	-0.6302538	0.0572958	4.9274388	164.2040332	-65.08229922	152.4641238
4.73	473	-0.864	-0.013	0.489	-0.3437748	-0.3437748	4.4117766	164.2957065	-65.0880288	152.3609914
4.74	474	-0.869	-0.011	0.487	-0.3437748	-1.5469866	3.6669312	164.3759206	-65.08229922	152.2693181
4.75	475	-0.869	-0.006	0.493	-0.4010706	-2.005353	2.9220858	164.943149	-64.95624846	151.7536559
4.76	476	-0.869	-0.01	0.495	0.1718874	-2.1199446	2.291832	165.0061744	-64.93905972	151.6906305
4.77	477	-0.87	-0.009	0.496	0.6875496	-2.0626488	1.6042824	165.0577406	-64.92187098	151.6447939
4.78	478	-0.873	-0.005	0.498	0.9740286	-2.2345362	0.859437	165.0978477	-64.90468224	151.6104164
4.79	479	-0.872	-0.008	0.5	1.6615782	-2.578311	0.1145916	165.1264956	-64.88176392	151.5932276
4.8	480	-0.87	-0.011	0.501	2.1772404	-2.9793816	-0.5156622	165.5218366	-64.74998358	151.2723712
4.81	481	-0.871	-0.011	0.506	2.578311	-3.0366774	-0.9740286	165.5390254	-64.7156061	151.2838303
4.82	482	-0.873	-0.013	0.511	3.151269	-2.7501984	-1.4896908	165.5562141	-64.6869582	151.3010191
4.83	483	-0.874	-0.017	0.511	3.6669312	-2.6356068	-1.9480572	165.5619437	-64.6583103	151.3353965
4.84	484	-0.872	-0.018	0.511	3.5523396	-2.4064236	-2.1772404	165.5676733	-64.6296624	151.369774
4.85	485	-0.869	-0.019	0.509	3.3804522	-2.4637194	-2.4064236	165.8197748	-64.52080038	151.192157
4.86	486	-0.868	-0.017	0.506	3.2658606	-2.7501984	-2.578311	165.8083156	-64.4864229	151.2379937
4.87	487	-0.87	-0.021	0.505	3.4950438	-3.0939732	-2.8074942	165.802586	-64.45204542	151.2895599
4.88	488	-0.867	-0.027	0.504	3.5523396	-3.151269	-2.9793816	165.7911269	-64.41193836	151.3411261
4.89	489	-0.863	-0.029	0.5	3.4950438	-3.2085648	-2.9793816	165.7796677	-64.3718313	151.3926923
4.9	490	-0.86	-0.028	0.5	3.3804522	-3.5523396	-3.0939732	165.9458255	-64.27442844	151.2952895
4.91	491	-0.863	-0.027	0.503	3.4950438	-3.8388186	-2.9793816	165.940096	-64.2285918	151.3468557
4.92	492	-0.868	-0.027	0.507	3.6669312	-3.7815228	-2.9220858	165.9343664	-64.18275516	151.3926923
4.93	493	-0.868	-0.03	0.509	3.7815228	-3.5523396	-2.9220858	165.9286368	-64.1426481	151.438529
4.94	494	-0.864	-0.032	0.513	3.6096354	-3.151269	-2.6929026	165.9229072	-64.10827062	151.4843656
4.95	495	-0.868	-0.032	0.517	3.4950438	-3.2085648	-2.3491278	166.1177129	-63.99367902	151.3640444
4.96	496	-0.872	-0.033	0.52	3.2085648	-3.437748	-2.291832	166.1177129	-63.95930154	151.3984219
4.97	497	-0.872	-0.035	0.521	2.86479	-3.437748	-2.0626488	166.1177129	-63.91919448	151.4327994
4.98	498	-0.87	-0.034	0.519	2.578311	-3.2085648	-1.8907614	166.1234425	-63.884817	151.4557177
4.99	499	-0.871	-0.036	0.52	2.6356068	-3.2085648	-1.5469866	166.1291721	-63.85043952	151.478636
5	500	-0.872	-0.037	0.523	2.5210152	-3.2658606	-1.3178034	166.375544	-63.7129296	151.2952895
5.01	501	-0.872	-0.036	0.526	2.2345362	-3.0939732	-0.859437	166.3984624	-63.6842817	151.3010191
5.02	502	-0.871	-0.035	0.529	2.1199446	-3.2085648	-0.6302538	166.4156511	-63.64990422	151.3010191
5.03	503	-0.867	-0.035	0.529	1.432395	-3.4950438	-0.6875496	166.4328398	-63.61552674	151.3010191
5.04	504	-0.864	-0.034	0.531	0.7448454	-3.2658606	-0.572958	166.444299	-63.58114926	151.3010191
5.05	505	-0.863	-0.033	0.528	0.6875496	-2.8074942	-0.3437748	166.8969358	-63.36342522	150.9343259
5.06	506	-0.86	-0.033	0.523	0.859437	-2.291832	-0.1718874	166.908395	-63.3405069	150.9285964
5.07	507	-0.858	-0.035	0.527	1.0313244	-1.9480572	0	166.9255837	-63.32331816	150.9171372
5.08	508	-0.863	-0.035	0.536	1.145916	-2.2345362	0.0572958	166.948502	-63.30039984	150.905678
5.09	509	-0.869	-0.032	0.545	1.0313244	-2.4637194	0.2291832	166.9771499	-63.27748152	150.8884893
5.1	510	-0.87	-0.034	0.543	0.8021412	-1.6615782	0.3437748	167.5959446	-62.9680842	150.3842863
5.11	511	-0.865	-0.033	0.537	0.7448454	-0.2291832	0.7448454	167.6188629	-62.9680842	150.3670975
5.12	512	-0.864	-0.029	0.53	0.9740286	0.4583664	1.0313244	167.6475108	-62.97381378	150.3441792
5.13	513	-0.864	-0.027	0.531	1.2605076	0.9167328	1.145916	167.6818883	-62.99100252	150.3212609
5.14	514	-0.867	-0.024	0.534	1.432395	1.432395	0.9740286	167.7105362	-63.00246168	150.3098017
5.15	515	-0.865	-0.023	0.535	1.6042824	1.6615782	0.7448454	168.0886885	-62.87641092	150.006134
5.16	516	-0.866	-0.023	0.534	1.4896908	1.8907614	0.6875496	168.1058772	-62.89359966	150.0004044
5.17	517	-0.869	-0.024	0.53	1.5469866	2.3491278	0.5156622	168.1230659	-62.92224756	149.9946748
5.18	518	-0.869	-0.022	0.531	1.8334656	2.7501984	0.4010706	168.1402547	-62.94516588	150.0004044
5.19	519	-0.87	-0.021	0.533	2.3491278	2.9220858	0.2291832	168.163173	-62.97954336	150.006134
5.2	520	-0.869	-0.023	0.533	2.578311	3.437748	0.0572958	168.4038154	-62.9107884	149.8227874
5.21	521	-0.865	-0.023	0.532	2.5210152	3.6096354	-0.0572958	168.4152745	-62.94516588	149.8399762
5.22	522	-0.865	-0.023	0.532	2.578311	3.8388186	-0.2291832	168.4267337	-62.98527294	149.8628945
5.23	523	-0.866	-0.023	0.529	2.5210152	4.2398892	-0.3437748	168.4267337	-63.02538	149.8858128
5.24	524	-0.862	-0.022	0.525	2.4637194	4.6982556	-0.5156622	168.4267337	-63.07121664	149.9201903
5.25	525	-0.863	-0.024	0.523	2.5210152	4.6409598	-0.572958	168.5986211	-63.04256874	149.7998691
5.26	526	-0.864	-0.027	0.523	2.3491278	4.4690724	-0.6302538	168.5928915	-63.0826758	149.8342466
5.27	527	-0.865	-0.026	0.521	2.1772404	4.297185	-0.6875496	168.5871619	-63.12278286	149.8628945
5.28	528	-0.864	-0.026	0.52	2.3491278	4.1252976	-0.6875496	168.5814323	-63.16288992	149.897272
5.29	529	-0.864	-0.028	0.52	2.3491278	4.1252976	-0.572958	168.5814323	-63.20299698	149.9259199
5.3	530	-0.864	-0.028	0.518	2.1199446	3.9534102	-0.5156622	168.7647789	-63.15716034	149.7941395
5.31	531	-0.86	-0.028	0.516	2.0626488	4.1252976	-0.4583664	168.7647789	-63.1972674	149.8227874
5.32	532	-0.862	-0.029	0.511	1.8907614	4.010706	-0.4010706	168.7590493	-63.23737446	149.8457057
5.33	533	-0.865	-0.03	0.507	1.6042824	3.7815228	-0.286479	168.7590493	-63.27175194	149.8686241
5.34	534	-0.865	-0.03	0.508	1.3750992	3.4950438	-0.3437748	168.7533197	-63.30612942	149.8915424
5.35	535	-0.863	-0.029	0.506	1.2032118	3.0366774	-0.2291832	169.02261	-63.2259153	149.6738183
5.36	536	-0.863	-0.029	0.506	1.145916	2.578311	-0.0572958	169.0283396	-63.2545632	149.6852775
5.37	537	-0.864	-0.03	0.509	1.0886202	2.4064236	0	169.0283396	-63.27748152	149.6967367
5.38	538	-0.862	-0.029	0.511	1.0313244	2.4064236	0.2291832	169.0397987	-63.30039984	149.6967367
5.39	539	-0.861	-0.027	0.511	0.8021412	2.1772404	0.286479	169.0455283	-63.32331816	149.7024662
5.4	540	-0.861	-0.029	0.508	0.6302538	1.6042824	0.286479	169.5096243	-63.1399716	149.3128548
5.41	541	-0.861	-0.029	0.505	0.4010706	1.0886202	0.4583664	169.5210835	-63.15143076	149.3071252
5.42	542	-0.862	-0.028	0.507	0.2291832	0.6875496	0.5156622	169.5325426	-63.15716034	149.3013956
5.43	543	-0.864	-0.026	0.508	0.3437748	0.1718874	0.572958	169.5497314	-63.16288992	149.2899365
5.44	544	-0.865	-0.024	0.511	0.4583664	-0.0572958	0.572958	169.5669201	-63.16288992	149.2727477
5.45	545	-0.865	-0.024	0.511	0.572958	-0.1145916	0.572958	170.2831176	-62.85922218	148.6768714
5.46	546	-0.865	-0.023	0.509	0.6302538	-0.3437748	0.5156622	170.3003063	-62.85922218	148.6596827
5.47	547	-0.864	-0.023	0.507	0.6875496	-0.6302538	0.4583664	170.3232247	-62.8534926	148.6482235
5.48	548	-0.865	-0.024	0.509	1.145916	-0.9167328	0.4583664	170.346143	-62.84776302	148.6367644
5.49	549	-0.865	-0.023	0.512	1.3750992	-1.0313244	0.3437748	170.3690613	-62.83630386	148.6253052
5.5	550	-0.865	-0.022	0.516	1.5469866	-1.0886202	0.3437748	170.7128361	-62.68733478	148.3445558
5.51	551	-0.864	-0.022	0.519	1.4896908	-1.2032118	0.1718874	170.7357544	-62.67587562	148.3388262
5.52	552	-0.867	-0.022	0.52	1.3750992	-1.3178034	0.0572958	170.7586727	-62.65868688	148.3330966
5.53	553	-0.866	-0.022	0.521	1.2605076	-1.3750992	-0.1718874	170.7701319	-62.64722772	148.3330966
5.54	554	-0.865	-0.022	0.522	1.2032118	-1.3178034	-0.286479	170.7815911	-62.63003898	148.3388262
5.55	555	-0.866	-0.021	0.523	1.2032118	-1.3750992	-0.4010706	171.0737996	-62.47534032	148.109643
5.56	556	-0.866	-0.022	0.524	1.3178034	-1.145916	-0.5156622	171.0795292	-62.46388116	148.1211022
5.57	557	-0.864	-0.024	0.523	1.3178034	-0.7448454	-0.6875496	171.0795292	-62.452422	148.1325613
5.58	558	-0.862	-0.024	0.524	1.6042824	-0.8021412	-0.6302538	171.0852588	-62.44669242	148.1440205
5.59	559	-0.865	-0.023	0.526	1.718874	-0.6875496	-0.572958	171.0909884	-62.43523326	148.1554796
5.6	560	-0.867	-0.025	0.528	1.7761698	-0.3437748	-0.5156622	171.3717378	-62.26907544	147.9492148
5.61	561	-0.867	-0.026	0.529	1.6615782	-0.286479	-0.572958	171.3774674	-62.26907544	147.9606739
5.62	562	-0.866	-0.026	0.529	1.3178034	-0.286479	-0.6302538	171.3774674	-62.26334586	147.9721331
5.63	563	-0.864	-0.023	0.526	1.3750992	-0.286479	-0.6302538	171.383197	-62.25761628	147.9893218
5.64	564	-0.865	-0.024	0.523	1.4896908	-0.286479	-0.8021412	171.383197	-62.25761628	148.0065106
5.65	565	-0.864	-0.026	0.526	1.5469866	0.0572958	-0.6875496	171.6410281	-62.09718804	147.8174344
5.66	566	-0.864	-0.028	0.53	1.5469866	0.3437748	-0.572958	171.6410281	-62.09718804	147.8288936
5.67	567	-0.865	-0.028	0.531	1.3178034	0.286479	-0.5156622	171.6467576	-62.10291762	147.8403527
5.68	568	-0.865	-0.028	0.529	0.859437	0.0572958	-0.5156622	171.6410281	-62.10291762	147.8518119
5.69	569	-0.867	-0.026	0.53	0.8021412	0.5156622	-0.572958	171.6410281	-62.1086472	147.8690006
5.7	570	-0.865	-0.026	0.527	0.859437	0.9740286	-0.572958	171.8874	-61.95967812	147.6799245
5.71	571	-0.861	-0.029	0.521	0.9167328	0.9167328	-0.5156622	171.8874	-61.9654077	147.6913837
5.72	572	-0.862	-0.029	0.519	0.9740286	0.859437	-0.4010706	171.8874	-61.97686686	147.7028428
5.73	573	-0.863	-0.029	0.524	1.0313244	1.145916	-0.286479	171.8874	-61.98832602	147.714302
5.74	574	-0.865	-0.029	0.528	1.0313244	1.145916	-0.0572958	171.8931296	-61.99978518	147.7200316
5.75	575	-0.867	-0.03	0.529	0.9740286	0.8021412	-0.0572958	172.1967973	-61.79924988	147.4851188
5.76	576	-0.865	-0.03	0.529	0.6875496	1.0886202	0.0572958	172.2082565	-61.81070904	147.4851188
5.77	577	-0.861	-0.028	0.524	0.4583664	1.7761698	0.2291832	172.2139861	-61.82789778	147.4851188
5.78	578	-0.86	-0.026	0.519	0.572958	1.7761698	0.4010706	172.2197156	-61.84508652	147.4793892
5.79	579	-0.861	-0.024	0.52	0.6875496	1.4896908	0.5156622	172.2369044	-61.86227526	147.4736596
5.8	580	-0.863	-0.023	0.524	0.8021412	1.432395	0.5156622	172.4546284	-61.75914282	147.2960426
5.81	581	-0.864	-0.026	0.523	0.859437	1.432395	0.5156622	172.4718172	-61.77633156	147.2903131
5.82	582	-0.865	-0.025	0.521	0.6302538	1.3178034	0.4010706	172.4832763	-61.78779072	147.2845835
5.83	583	-0.863	-0.023	0.518	0.572958	1.145916	0.3437748	172.4947355	-61.79924988	147.2788539
5.84	584	-0.863	-0.022	0.521	0.8021412	1.0886202	0.286479	172.5061946	-61.81070904	147.2731243
5.85	585	-0.863	-0.022	0.523	1.0313244	1.145916	0.1718874	172.7296483	-61.70184702	147.1012369
5.86	586	-0.863	-0.023	0.523	1.145916	1.432395	0.1718874	172.746837	-61.71903576	147.0955073
5.87	587	-0.863	-0.023	0.523	1.0313244	1.432395	0.0572958	172.7525666	-61.73049492	147.1012369
5.88	588	-0.862	-0.023	0.523	0.9167328	1.3178034	-0.0572958	172.7582962	-61.74768366	147.1012369
5.89	589	-0.863	-0.022	0.523	0.9167328	1.2032118	-0.1718874	172.7640257	-61.75914282	147.1126961
5.9	590	-0.865	-0.024	0.521	1.0313244	1.145916	-0.286479	172.9531019	-61.6502808	146.9694566
5.91	591	-0.862	-0.026	0.52	1.0313244	1.2032118	-0.2291832	172.9531019	-61.66173996	146.9809157
5.92	592	-0.862	-0.025	0.52	1.145916	1.0886202	-0.286479	172.9588315	-61.67319912	146.9866453
5.93	593	-0.863	-0.024	0.521	1.2605076	0.9167328	-0.286479	172.964561	-61.6789287	146.9981045
5.94	594	-0.863	-0.024	0.521	1.3178034	0.7448454	-0.286479	172.9702906	-61.69038786	147.0038341
5.95	595	-0.861	-0.026	0.52	1.3178034	0.7448454	-0.286479	173.1593668	-61.57579626	146.8663241
5.96	596	-0.863	-0.025	0.52	1.2032118	0.8021412	-0.2291832	173.1650963	-61.58152584	146.8720537
5.97	597	-0.864	-0.024	0.52	1.145916	0.9740286	-0.1718874	173.1765555	-61.592985	146.8777833
5.98	598	-0.862	-0.024	0.519	1.145916	1.0886202	-0.1718874	173.1822851	-61.59871458	146.8835129
5.99	599	-0.862	-0.025	0.517	1.145916	0.7448454	-0.286479	173.1880147	-61.61017374	146.8892425
6	600	-0.862	-0.025	0.518	1.0313244	0.4583664	-0.3437748	173.4229274	-61.46693424	146.7116255
6.01	601	-0.863	-0.026	0.519	0.9740286	0	-0.4010706	173.4229274	-61.46693424	146.7230846
6.02	602	-0.863	-0.028	0.518	0.859437	-0.1145916	-0.4010706	173.4229274	-61.46693424	146.7288142
6.03	603	-0.863	-0.028	0.52	0.859437	-0.1718874	-0.3437748	173.428657	-61.46120466	146.7402734
6.04	604	-0.861	-0.026	0.523	0.8021412	0.0572958	-0.2291832	173.428657	-61.46120466	146.746003
6.05	605	-0.86	-0.027	0.523	0.9167328	0.1718874	-0.1718874	173.6635698	-61.29504684	146.568386
6.06	606	-0.86	-0.027	0.523	0.9167328	0.3437748	0	173.6692994	-61.30077642	146.5741156
6.07	607	-0.86	-0.029	0.523	0.6875496	0.0572958	-0.0572958	173.675029	-61.30077642	146.5741156
6.08	608	-0.863	-0.027	0.525	0.5156622	-0.1145916	0	173.6807585	-61.29504684	146.5741156
6.09	609	-0.864	-0.027	0.525	0.572958	-0.0572958	0	173.6864881	-61.29504684	146.5741156
6.1	610	-0.863	-0.025	0.524	0.859437	0.1145916	0.0572958	173.9786967	-61.1059707	146.3506619
6.11	611	-0.862	-0.026	0.522	1.145916	0.2291832	0.1718874	173.9958854	-61.1059707	146.3449324
6.12	612	-0.861	-0.026	0.524	1.3178034	0.1145916	0.1718874	174.0130742	-61.1059707	146.3392028
6.13	613	-0.862	-0.025	0.523	1.432395	0	0.1718874	174.0302629	-61.1059707	146.3392028
6.14	614	-0.866	-0.027	0.524	1.432395	-0.0572958	0.1718874	174.0474517	-61.1059707	146.3334732
6.15	615	-0.863	-0.024	0.526	1.3750992	-0.0572958	0.2291832	174.2307982	-60.97991994	146.2016929
6.16	616	-0.862	-0.023	0.527	1.3750992	0	0.1145916	174.247987	-60.97991994	146.1959633
6.17	617	-0.862	-0.024	0.526	1.3750992	0.0572958	0.0572958	174.2651757	-60.97991994	146.1959633
6.18	618	-0.863	-0.024	0.526	1.2605076	0.1145916	0	174.2766349	-60.97991994	146.1959633
6.19	619	-0.864	-0.025	0.529	1.145916	0.0572958	0	174.288094	-60.98564952	146.1959633
6.2	620	-0.861	-0.025	0.53	1.0313244	0.0572958	0	174.4828997	-60.80230296	146.0527238
6.21	621	-0.86	-0.025	0.526	0.9167328	0.1145916	-0.0572958	174.4943589	-60.80803254	146.0527238
6.22	622	-0.859	-0.024	0.524	0.9740286	0.0572958	-0.1145916	174.5000885	-60.80803254	146.0584534
6.23	623	-0.856	-0.025	0.522	1.2032118	0.0572958	-0.0572958	174.5115476	-60.80803254	146.0584534
6.24	624	-0.858	-0.025	0.523	1.5469866	0	0	174.5287364	-60.80803254	146.0584534
6.25	625	-0.859	-0.025	0.523	1.7761698	0	0.0572958	174.6547871	-60.71635926	145.9725097
6.26	626	-0.86	-0.025	0.521	1.8334656	-0.0572958	0.1145916	174.6777055	-60.71635926	145.9725097
6.27	627	-0.86	-0.026	0.521	1.8907614	-0.4583664	0.1145916	174.7006238	-60.71635926	145.9667801
6.28	628	-0.858	-0.025	0.522	1.8334656	-0.572958	0.1145916	174.7178125	-60.71062968	145.9610505
6.29	629	-0.858	-0.025	0.522	1.9480572	-0.5156622	0.1145916	174.7464604	-60.7049001	145.9610505
6.3	630	-0.861	-0.023	0.523	2.1772404	-0.6302538	0.2291832	174.8324041	-60.6476043	145.9037547
6.31	631	-0.861	-0.025	0.532	1.9480572	-0.6302538	0.1718874	174.8553224	-60.64187472	145.8980251
6.32	632	-0.86	-0.023	0.534	1.2032118	-0.2291832	0	174.8725112	-60.63614514	145.8980251
6.33	633	-0.862	-0.021	0.53	-0.2291832	-0.2291832	-0.1718874	174.8667816	-60.63614514	145.9037547
6.34	634	-0.861	-0.023	0.529	-0.8021412	-0.4583664	-0.286479	174.8495929	-60.63041556	145.9094843
6.35	635	-0.858	-0.023	0.533	-1.0313244	-0.1718874	-0.286479	174.9871028	-60.46425774	145.8006223
6.36	636	-0.857	-0.022	0.53	-0.8021412	0.4010706	-0.2291832	174.9756436	-60.46998732	145.8063518
6.37	637	-0.856	-0.024	0.524	-0.572958	0.1718874	-0.3437748	174.9641845	-60.46998732	145.8120814
6.38	638	-0.854	-0.025	0.521	-0.1718874	-0.4010706	-0.1718874	174.9584549	-60.46425774	145.817811
6.39	639	-0.856	-0.027	0.529	-0.0572958	-0.859437	-0.1718874	174.9527253	-60.45852816	145.817811
6.4	640	-0.862	-0.026	0.537	-0.286479	-1.0313244	-0.1145916	175.0558577	-60.3324774	145.7375969
6.41	641	-0.865	-0.025	0.539	-0.5156622	-1.0313244	-0.1145916	175.0501282	-60.32101824	145.7375969
6.42	642	-0.864	-0.027	0.538	-0.7448454	-0.572958	0	175.0443986	-60.31528866	145.7375969
6.43	643	-0.861	-0.024	0.536	-0.859437	0.0572958	0	175.0329394	-60.31528866	145.7375969
6.44	644	-0.859	-0.024	0.532	-0.6302538	0.286479	0.1145916	175.0329394	-60.32101824	145.7375969
