TimeStamp(s)	FrameCounter	AccX	AccY	AccZ	GyrX	GyrY	GyrZ	EulerX	EulerY	EulerZ
0.01	1	0.03	-0.983	-0.049	-1.2605076	2.3491278	-2.0626488	83.6232201	3.67266078	-17.95650372
0.02	2	0.012	-0.975	-0.031	-0.859437	1.718874	-3.3804522	83.61176094	3.70703826	-17.94504456
0.03	3	0.013	-0.975	-0.031	-0.1718874	2.4637194	-4.2398892	83.61176094	3.7528749	-17.92212624
0.04	4	0.022	-0.976	-0.03	0.4583664	3.151269	-4.9847346	83.61749052	3.80444112	-17.89920792
0.05	5	0.027	-0.969	-0.027	1.4896908	3.3231564	-5.0993262	83.65759758	3.8388186	-17.85910086
0.06	6	0.027	-0.967	-0.006	2.7501984	3.437748	-5.0420304	83.68624548	3.89038482	-17.83045296
0.07	7	0.031	-0.974	0.022	2.291832	5.443101	-4.9274388	83.71489338	3.94768062	-17.78461632
0.08	8	0.03	-0.994	0.039	-0.9167328	8.7089616	-5.0420304	83.7091638	4.00497642	-17.7044022
0.09	9	0.033	-1.023	0.021	-6.9900876	13.2353298	-5.0420304	83.64613842	4.06227222	-17.57835144
0.1	10	0.046	-1.037	-0.034	-12.7769634	19.194093	-4.6982556	83.53154682	4.1252976	-17.39500488
0.11	11	0.071	-1.013	-0.087	-15.8136408	24.350715	-3.5523396	83.38257774	4.17686382	-17.1600921
0.12	12	0.106	-0.945	-0.115	-17.0168526	28.7624916	-1.8334656	83.22787908	4.21697088	-16.87934268
0.13	13	0.148	-0.857	-0.106	-16.2720072	31.51269	1.2032118	83.07891	4.23415962	-16.56421578
0.14	14	0.169	-0.785	-0.074	-17.475219	31.2835068	6.1879464	82.91848176	4.19978214	-16.24908888
0.15	15	0.149	-0.756	-0.05	-21.2567418	26.9863218	10.886202	82.72367604	4.1252976	-15.97406904
0.16	16	0.107	-0.781	-0.033	-23.5485738	23.3766864	14.1520626	82.50022242	4.00497642	-15.7276971
0.17	17	0.096	-0.864	-0.028	-22.2307704	23.8923486	14.896908	82.28822796	3.87892566	-15.47559558
0.18	18	0.121	-1.005	-0.024	-17.3606274	23.8350528	12.7196676	82.12207014	3.77579322	-15.22922364
0.19	19	0.155	-1.157	-0.011	-10.599723	19.5951636	8.6516658	82.02466728	3.71276784	-15.02295876
0.2	20	0.162	-1.27	0.029	-2.9793816	12.4904844	4.3544808	82.01320812	3.68984952	-14.896908
0.21	21	0.145	-1.315	0.077	4.8128472	6.9900876	0.2291832	82.06477434	3.6955791	-14.82815304
0.22	22	0.119	-1.294	0.114	10.599723	4.297185	-3.9534102	82.17936594	3.74141574	-14.78804598
0.23	23	0.102	-1.253	0.133	12.318597	3.437748	-7.2765666	82.3054167	3.81590028	-14.76512766
0.24	24	0.087	-1.215	0.137	10.0840608	4.2398892	-9.8548776	82.40854914	3.91903272	-14.73075018
0.25	25	0.063	-1.193	0.128	7.1046792	6.5317212	-11.6310474	82.505952	4.0393539	-14.67918396
0.26	26	0.036	-1.178	0.123	4.6409598	9.2246238	-12.9488508	82.55751822	4.17686382	-14.60469942
0.27	27	0.025	-1.145	0.122	2.578311	11.4018642	-13.9228794	82.58616612	4.3258329	-14.50729656
0.28	28	0.034	-1.096	0.12	-0.1145916	13.3499214	-13.9801752	82.5918957	4.47480198	-14.39270496
0.29	29	0.06	-1.045	0.115	-3.6096354	14.8396122	-13.6364004	82.5632478	4.62377106	-14.2666542
0.3	30	0.097	-1.002	0.101	-7.6776372	15.2979786	-12.8342592	82.51741116	4.77274014	-14.12914428
0.31	31	0.124	-0.962	0.083	-11.5737516	15.183387	-11.9175264	82.40854914	4.90452048	-13.99736394
0.32	32	0.131	-0.927	0.069	-13.5218088	14.4385416	-10.7143146	82.28249838	5.02484166	-13.87131318
0.33	33	0.131	-0.891	0.052	-14.2666542	13.750992	-9.3392154	82.14498846	5.13370368	-13.750992
0.34	34	0.132	-0.86	0.042	-14.0947668	12.6623718	-8.3651868	82.01320812	5.22537696	-13.6364004
0.35	35	0.14	-0.844	0.039	-13.8082878	10.7143146	-7.9641162	81.89288694	5.3285094	-13.54472712
0.36	36	0.148	-0.846	0.034	-14.2093584	8.5370742	-7.448454	81.75537702	5.40872352	-13.47024258
0.37	37	0.156	-0.856	0.033	-14.9542038	5.3858052	-6.4171296	81.60640794	5.47747848	-13.43013552
0.38	38	0.154	-0.872	0.026	-14.7823164	0.9167328	-4.8128472	81.45743886	5.52331512	-13.43013552
0.39	39	0.147	-0.891	0.017	-14.1520626	-3.0939732	-3.2658606	81.30846978	5.55196302	-13.464513
0.4	40	0.141	-0.906	0.019	-12.6623718	-5.0420304	-1.718874	81.20533734	5.57488134	-13.5218088
0.41	41	0.131	-0.919	0.028	-11.1153852	-6.5317212	-0.1718874	81.08501616	5.56915176	-13.59056376
0.42	42	0.12	-0.924	0.045	-10.1413566	-6.9327918	1.0313244	80.97615414	5.54623344	-13.65931872
0.43	43	0.103	-0.923	0.064	-8.9954406	-6.6463128	2.2345362	80.87875128	5.51758554	-13.7223441
0.44	44	0.084	-0.917	0.083	-7.2765666	-6.0733548	3.6669312	80.80426674	5.4717489	-13.77391032
0.45	45	0.069	-0.918	0.088	-6.5317212	-4.6982556	4.7555514	80.787078	5.4144531	-13.8082878
0.46	46	0.074	-0.931	0.079	-5.3285094	-3.437748	5.6722842	80.7297822	5.35142772	-13.8369357
0.47	47	0.081	-0.955	0.073	-4.010706	-3.0366774	6.3598338	80.68967514	5.28840234	-13.85412444
0.48	48	0.098	-0.966	0.086	-1.718874	-2.6929026	7.2765666	80.6724864	5.2139178	-13.87131318
0.49	49	0.117	-0.985	0.108	1.2032118	-2.291832	8.4797784	80.68394556	5.12224452	-13.87704276
0.5	50	0.136	-1.011	0.136	3.4950438	-2.291832	9.9121734	80.79853716	5.04775998	-13.88850192
0.51	51	0.145	-1.049	0.157	5.2139178	-1.6615782	11.2872726	80.85010338	4.93316838	-13.88850192
0.52	52	0.145	-1.086	0.158	5.72958	-0.4010706	12.2613012	80.90739918	4.8128472	-13.87131318
0.53	53	0.134	-1.099	0.162	5.8441716	0.6302538	12.3758928	80.97042456	4.69252602	-13.84266528
0.54	54	0.117	-1.095	0.146	5.443101	1.6042824	11.45916	81.02772036	4.583664	-13.8082878
0.55	55	0.118	-1.091	0.133	4.4117766	1.2605076	9.9694692	81.14231196	4.50344988	-13.78536948
0.56	56	0.139	-1.085	0.152	3.151269	0.6302538	8.1932994	81.17668944	4.42323576	-13.76245116
0.57	57	0.156	-1.087	0.159	1.3178034	-0.4583664	7.1046792	81.19387818	4.3544808	-13.75672158
0.58	58	0.181	-1.096	0.153	-3.2085648	-3.3804522	5.9014674	81.1595007	4.29145542	-13.78536948
0.59	59	0.219	-1.094	0.151	-8.307891	-7.5630456	4.5263682	81.06782742	4.23415962	-13.85412444
0.6	60	0.263	-1.09	0.152	-13.5791046	-12.2613012	3.0366774	80.9589654	4.21697088	-13.97444562
0.61	61	0.291	-1.089	0.149	-18.2200644	-17.6471064	1.8334656	80.7584301	4.17113424	-14.14633302
0.62	62	0.275	-1.092	0.15	-21.199446	-22.4599536	1.3178034	80.53497648	4.1252976	-14.36978664
0.63	63	0.249	-1.107	0.157	-22.5172494	-24.5798982	0.859437	80.28860454	4.08519054	-14.610429
0.64	64	0.22	-1.109	0.151	-22.91832	-25.7258142	1.2605076	80.0422326	4.03362432	-14.86253052
0.65	65	0.187	-1.093	0.138	-19.480572	-25.6685184	1.8907614	79.85888604	3.9820581	-15.11463204
0.66	66	0.138	-1.092	0.136	-12.5477802	-20.9702628	2.7501984	79.72137612	3.9247623	-15.32089692
0.67	67	0.111	-1.08	0.124	-4.9847346	-15.183387	3.3231564	79.66408032	3.8674665	-15.46413642
0.68	68	0.112	-1.064	0.145	1.0886202	-11.6883432	3.3804522	79.6698099	3.81590028	-15.57299844
0.69	69	0.129	-1.018	0.191	4.1825934	-13.464513	3.6096354	79.70418738	3.76433406	-15.6990492
0.7	70	0.164	-0.98	0.2	9.8548776	-20.340009	4.8128472	79.83596772	3.70703826	-15.88812534
0.71	71	0.184	-0.976	0.206	12.7196676	-27.8457588	6.302538	79.9562889	3.60390582	-16.15168602
0.72	72	0.17	-0.995	0.216	12.4904844	-31.1689152	6.9327918	80.06515092	3.48931422	-16.4438946
0.73	73	0.132	-1.027	0.163	12.2613012	-34.7212548	6.1879464	80.17401294	3.3804522	-16.77048066
0.74	74	0.06	-1.082	-0.002	13.178034	-41.1956802	2.7501984	80.29433412	3.30023808	-17.17155126
0.75	75	-0.056	-1.169	-0.144	13.6936962	-42.6280752	-4.583664	80.4146553	3.27731976	-17.5898106
0.76	76	-0.174	-1.286	-0.186	9.2819196	-30.4240698	-13.3499214	80.49486942	3.36326346	-17.91066708
0.77	77	-0.293	-1.35	-0.307	2.8074942	-13.9228794	-18.3919518	80.51205816	3.52942128	-18.0768249
0.78	78	-0.39	-1.377	-0.422	-4.010706	2.1199446	-19.9962342	80.4719511	3.724227	-18.08828406
0.79	79	-0.379	-1.322	-0.408	-6.7609044	19.2513888	-18.5638392	80.40892572	3.93622146	-17.9335854
0.8	80	-0.168	-1.194	-0.372	-2.1772404	27.1009134	-15.4125702	80.3860074	4.10810886	-17.68721346
0.81	81	0.084	-1.095	-0.35	2.1199446	28.3041252	-10.8289062	80.42611446	4.25707794	-17.42365278
0.82	82	0.267	-1.056	-0.349	2.291832	21.485925	-6.016059	80.46049194	4.34302164	-17.22311748
0.83	83	0.38	-1.079	-0.378	-1.0313244	7.9068204	-2.1772404	80.45476236	4.37739912	-17.14863294
0.84	84	0.422	-1.118	-0.409	-5.9014674	-3.5523396	-1.2032118	80.39173698	4.3831287	-17.18874
0.85	85	0.389	-1.13	-0.425	-9.3392154	-10.1413566	-1.3750992	80.2714158	4.40604702	-17.29760202
0.86	86	0.271	-1.157	-0.389	-9.7975818	-13.178034	0.1718874	80.16255378	4.3831287	-17.42938236
0.87	87	0.073	-1.173	-0.33	-9.9694692	-13.4072172	4.1252976	80.05369176	4.32010332	-17.55543312
0.88	88	-0.066	-1.169	-0.278	-8.307891	-10.9434978	7.9068204	79.96774806	4.22843004	-17.65283598
0.89	89	-0.138	-1.163	-0.235	-6.6463128	-6.0733548	10.599723	79.89326352	4.11383844	-17.69294304
0.9	90	-0.144	-1.132	-0.199	-4.297185	-1.0313244	13.2926256	79.85315646	3.93622146	-17.66429514
0.91	91	-0.106	-1.068	-0.158	-2.5210152	3.0939732	16.2147114	79.83023814	3.7815228	-17.60699934
0.92	92	-0.055	-1.008	-0.13	-2.5210152	5.5003968	17.9335854	79.80731982	3.61536498	-17.52105564
0.93	93	-0.02	-0.955	-0.113	-2.86479	6.1306506	18.1054728	79.7844015	3.44920716	-17.42938236
0.94	94	-0.01	-0.915	-0.102	-4.3544808	6.302538	16.7303736	79.74429444	3.28877892	-17.34343866
0.95	95	0.005	-0.874	-0.095	-5.8441716	6.9900876	14.896908	79.6984578	3.151269	-17.2460358
0.96	96	0.009	-0.832	-0.088	-5.9587632	8.4797784	13.8082878	79.641162	3.02521824	-17.13717378
0.97	97	0.011	-0.791	-0.082	-5.0993262	10.7143146	13.178034	79.59532536	2.91062664	-17.01112302
0.98	98	-0.002	-0.767	-0.074	-4.0680018	13.1207382	12.605076	79.56094788	2.8074942	-16.85642436
0.99	99	-0.019	-0.758	-0.064	-3.437748	14.9542038	12.032118	79.5265704	2.71582092	-16.69026654
1	100	-0.027	-0.751	-0.055	-2.9793816	16.5011904	11.2299768	79.50938166	2.61841806	-16.50691998
1.01	101	-0.033	-0.734	-0.054	-2.86479	17.5898106	10.599723	79.48646334	2.54393352	-16.31784384
1.02	102	-0.033	-0.728	-0.054	-2.005353	18.621135	9.453807	79.47500418	2.48090814	-16.11730854
1.03	103	-0.036	-0.713	-0.073	-1.9480572	18.9649098	7.6203414	79.45781544	2.4350715	-15.91677324
1.04	104	-0.048	-0.702	-0.08	-1.4896908	18.1627686	5.3285094	79.45208586	2.4064236	-15.7276971
1.05	105	-0.042	-0.689	-0.074	-1.0313244	18.2773602	2.0626488	79.44635628	2.4064236	-15.54435054
1.06	106	-0.026	-0.678	-0.068	-0.859437	18.6784308	-0.9167328	79.44635628	2.44653066	-15.36100398
1.07	107	-0.018	-0.679	-0.056	-0.2291832	18.7357266	-2.9220858	79.44635628	2.50382646	-15.183387
1.08	108	-0.009	-0.691	-0.054	0.4010706	18.4492476	-4.0680018	79.45781544	2.57258142	-15.0114996
1.09	109	-0.006	-0.704	-0.041	1.3178034	18.8503182	-5.0420304	79.47500418	2.65279554	-14.83388262
1.1	110	-0.012	-0.717	-0.032	3.437748	19.767051	-6.2452422	79.5265704	2.73873924	-14.65053606
1.11	111	-0.022	-0.73	-0.025	6.0733548	20.8556712	-7.1046792	79.59532536	2.8361421	-14.46145992
1.12	112	-0.034	-0.726	-0.01	8.3651868	21.485925	-7.6776372	79.68699864	2.94500412	-14.26092462
1.13	113	-0.055	-0.726	0.014	10.7716104	22.8037284	-8.1932994	79.80159024	3.0653253	-14.04893016
1.14	114	-0.072	-0.737	0.03	11.9175264	24.9809688	-8.6516658	79.93337058	3.18564648	-13.81974696
1.15	115	-0.076	-0.755	0.038	12.4331886	27.6738714	-9.1100322	80.08233966	3.30596766	-13.55618628
1.16	116	-0.075	-0.788	0.041	12.5477802	30.2521824	-9.8548776	80.22557916	3.44347758	-13.27543686
1.17	117	-0.098	-0.833	0.053	13.1207382	32.4867186	-10.313244	80.37454824	3.59244666	-12.97176912
1.18	118	-0.11	-0.874	0.065	13.464513	35.6379876	-10.4278356	80.52351732	3.74714532	-12.63945348
1.19	119	-0.112	-0.916	0.069	13.8082878	39.820581	-10.313244	80.68394556	3.90184398	-12.2613012
1.2	120	-0.102	-0.961	0.103	15.2979786	43.7166954	-10.3705398	80.88448086	4.04508348	-11.84304186
1.21	121	-0.074	-1.003	0.124	15.4125702	47.269035	-9.5683986	81.06782742	4.20551172	-11.39040504
1.22	122	-0.042	-1.036	0.108	14.4385416	49.1597964	-8.880849	81.23971482	4.3544808	-10.92057948
1.23	123	-0.029	-1.067	0.107	13.1207382	48.8160216	-8.307891	81.40587264	4.4977203	-10.45075392
1.24	124	-0.031	-1.096	0.134	10.1986524	49.3889796	-7.9068204	81.53765298	4.63523022	-9.97519878
1.25	125	-0.032	-1.127	0.171	6.0733548	51.4516284	-7.161975	81.65797416	4.7555514	-9.47099574
1.26	126	-0.032	-1.159	0.2	2.578311	51.7954032	-5.6149884	81.72099954	4.870143	-8.97252228
1.27	127	-0.034	-1.201	0.184	-2.1772404	47.4409224	-4.3544808	81.7324587	4.96754586	-8.5084263
1.28	128	-0.039	-1.261	0.162	-4.6982556	43.4302164	-2.2345362	81.71526996	5.0420304	-8.08443738
1.29	129	-0.042	-1.291	0.145	-5.72958	39.534102	-0.8021412	81.68662206	5.09359662	-7.69482594
1.3	130	-0.025	-1.304	0.168	-2.86479	34.3201842	0.9740286	81.69808122	5.11651494	-7.35105114
1.31	131	-0.019	-1.317	0.223	-0.1145916	31.1116194	3.437748	81.72099954	5.12224452	-7.04165382
1.32	132	0.001	-1.314	0.225	2.6356068	26.356068	6.1879464	81.76683618	5.08786704	-6.77236356
1.33	133	0.042	-1.334	0.222	4.2398892	19.3086846	9.5111028	81.82413198	5.01911208	-6.56609868
1.34	134	0.087	-1.394	0.153	0.9740286	10.7716104	12.605076	81.8470503	4.90452048	-6.4457775
1.35	135	0.17	-1.52	0.037	-7.0473834	-2.291832	16.7303736	81.77829534	4.73836266	-6.4457775
1.36	136	0.225	-1.631	-0.052	-9.7975818	-17.475219	21.3140376	81.66943332	4.50917946	-6.589017
1.37	137	0.25	-1.708	-0.187	-2.2345362	-21.2567418	25.1528562	81.63505584	4.23415962	-6.7609044
1.38	138	0.275	-1.638	-0.311	2.4064236	-19.9962342	27.3873924	81.65224458	3.94195104	-6.92133264
1.39	139	0.323	-1.453	-0.4	-0.2291832	-16.5584862	23.1475032	81.646515	3.6955791	-7.0473834
1.4	140	0.358	-1.339	-0.444	-2.2345362	-16.7876694	18.5638392	81.60640794	3.50077338	-7.1906229
1.41	141	0.302	-1.319	-0.522	-4.3544808	-21.8869956	20.4546006	81.55484172	3.27731976	-7.37969904
1.42	142	0.143	-1.208	-0.561	-7.6203414	-21.3140376	19.2513888	81.46889802	3.05959572	-7.5630456
1.43	143	0.011	-1.136	-0.581	-7.0473834	-17.1314442	17.18874	81.39441348	2.87051958	-7.7062851
1.44	144	-0.155	-1.097	-0.491	-5.443101	-12.7769634	17.1314442	81.33711768	2.68717302	-7.80941754
1.45	145	-0.194	-1.088	-0.431	-9.453807	-3.4950438	15.6417534	81.20533734	2.4923673	-7.80941754
1.46	146	-0.165	-1.072	-0.488	-15.8709366	1.2605076	15.469866	81.0449091	2.34339822	-7.77504006
1.47	147	-0.061	-1.07	-0.534	-19.5378678	1.432395	13.6364004	80.85010338	2.2058883	-7.74066258
1.48	148	0.101	-1.097	-0.491	-20.05353	-0.4010706	9.6256944	80.64956808	2.10848544	-7.734933
1.49	149	0.287	-1.127	-0.469	-20.8556712	-3.0366774	3.8961144	80.43757362	2.06837838	-7.75785132
1.5	150	0.38	-1.146	-0.437	-15.5844576	-7.6776372	-1.3178034	80.25995664	2.09702628	-7.84379502
1.51	151	0.371	-1.131	-0.355	-7.9068204	-14.6677248	-6.5317212	80.17401294	2.13713334	-8.00422326
1.52	152	0.285	-1.077	-0.249	-3.8388186	-20.626488	-11.9175264	80.1281763	2.22880662	-8.2219473
1.53	153	0.179	-0.996	-0.177	-3.3804522	-23.3193906	-17.3033316	80.08806924	2.36058696	-8.4797784
1.54	154	0.104	-0.899	-0.133	-3.6669312	-23.5485738	-20.05353	80.0422326	2.52674478	-8.74906866
1.55	155	0.064	-0.81	-0.098	-4.1252976	-23.8923486	-20.5118964	79.99066638	2.6929026	-9.01835892
1.56	156	0.059	-0.744	-0.065	-3.8388186	-25.9549974	-19.5951636	79.94482974	2.84760126	-9.30483792
1.57	157	0.09	-0.694	-0.062	-4.7555514	-29.9084076	-17.9908812	79.88180436	2.9793816	-9.63142398
1.58	158	0.127	-0.674	-0.071	-5.3285094	-35.9817624	-16.2720072	79.8130494	3.08824362	-10.00957626
1.59	159	0.159	-0.663	-0.058	-4.870143	-42.3415962	-15.2406828	79.74429444	3.16845774	-10.45075392
1.6	160	0.169	-0.665	-0.029	-3.7815228	-47.8992888	-14.6677248	79.68699864	3.25440144	-10.94922738
1.61	161	0.173	-0.671	-0.004	-3.6096354	-53.4569814	-13.8655836	79.62397326	3.31169724	-11.49926706
1.62	162	0.155	-0.672	0.008	-2.9793816	-58.5563076	-13.9228794	79.56667746	3.35753388	-12.09514338
1.63	163	0.121	-0.671	0.014	-3.0939732	-62.165943	-13.5791046	79.50938166	3.39764094	-12.73112676
1.64	164	0.075	-0.658	0.017	-1.0886202	-62.3378304	-12.5477802	79.4692746	3.42055926	-13.36138056
1.65	165	0.038	-0.648	0.035	1.3750992	-60.6189564	-11.1153852	79.46354502	3.437748	-13.97444562
1.66	166	0.007	-0.645	0.04	2.3491278	-57.8114622	-9.3392154	79.45781544	3.437748	-14.55886278
1.67	167	-0.013	-0.647	0.034	2.3491278	-53.8007562	-7.6203414	79.45781544	3.43201842	-15.0974433
1.68	168	0.007	-0.647	0.028	2.291832	-49.6754586	-5.6149884	79.45781544	3.4091001	-15.59018718
1.69	169	0.047	-0.666	0.035	4.010706	-47.1544434	-3.3231564	79.47500418	3.36899304	-16.06001274
1.7	170	0.058	-0.693	0.034	5.6149884	-46.5241896	-1.6042824	79.5265704	3.31742682	-16.51837914
1.71	171	0.066	-0.759	0.022	8.6516658	-46.3523022	-1.0886202	79.59532536	3.26013102	-16.97101596
1.72	172	0.07	-0.798	0.006	9.2246238	-47.4409224	-0.3437748	79.6698099	3.19137606	-17.43511194
1.73	173	0.067	-0.829	-0.013	11.2299768	-49.1597964	0.5156622	79.76148318	3.11689152	-17.91639666
1.74	174	0.052	-0.838	-0.032	15.469866	-49.7327544	1.8334656	79.8989931	3.02521824	-18.39768138
1.75	175	0.018	-0.841	-0.012	21.0848544	-51.5089242	3.6096354	80.10525798	2.91062664	-18.89042526
1.76	176	-0.01	-0.832	0.061	27.6165756	-52.712136	4.9274388	80.36881866	2.79603504	-19.40035788
1.77	177	-0.017	-0.85	0.082	30.4240698	-51.6808116	4.3544808	80.66102724	2.68144344	-19.89310176
1.78	178	0.025	-0.888	0.093	29.9084076	-47.269035	2.4637194	80.95323582	2.60122932	-20.35146816
1.79	179	0.068	-0.931	0.034	25.8977016	-42.7999626	-0.1145916	81.19960776	2.5496631	-20.7697275
1.8	180	0.107	-0.987	-0.021	23.1475032	-38.4454818	-1.6042824	81.43452054	2.53247436	-21.14787978
1.81	181	0.119	-1.063	-0.037	21.5432208	-35.809875	-1.7761698	81.64078542	2.50955604	-21.50311374
1.82	182	0.097	-1.131	-0.038	19.2513888	-36.8411994	-1.145916	81.82986156	2.48090814	-21.86407728
1.83	183	0.072	-1.184	-0.04	18.5065434	-38.5027776	0.3437748	82.00174896	2.4350715	-22.24222956
1.84	184	0.043	-1.229	-0.037	18.3919518	-39.0757356	2.0626488	82.17936594	2.37204612	-22.62038184
1.85	185	-0.019	-1.293	-0.076	14.32395	-38.961144	2.86479	82.31687586	2.29756158	-22.99853412
1.86	186	-0.072	-1.378	-0.189	7.9641162	-34.7212548	1.7761698	82.3913604	2.24599536	-23.33657934
1.87	187	-0.171	-1.543	-0.375	-3.8961144	-32.2575354	-2.4637194	82.33979418	2.24026578	-23.65743582
1.88	188	-0.237	-1.685	-0.435	-13.6936962	-22.2307704	-11.0007936	82.19655468	2.3204799	-23.8923486
1.89	189	-0.247	-1.818	-0.562	-9.1100322	9.9121734	-25.5539268	82.1048814	2.58404058	-23.82932322
1.9	190	-0.21	-1.726	-0.524	9.167328	20.912967	-37.1849742	82.19655468	2.96792244	-23.67462456
1.91	191	0.023	-1.428	-0.368	40.393539	-0.6875496	-36.1536498	82.60335486	3.32888598	-23.7204612
1.92	192	0.23	-1.163	-0.18	42.8572584	-34.6066632	-32.1429438	83.0216142	3.61536498	-24.09861348
1.93	193	0.44	-0.975	-0.121	23.3766864	-51.4516284	-28.9916748	83.23360866	3.85600734	-24.637194
1.94	194	0.515	-0.818	-0.236	4.1825934	-66.3485364	-24.5798982	83.23360866	4.04508348	-25.31901402
1.95	195	0.456	-0.808	-0.231	-1.6615782	-79.1254998	-22.7464326	83.1648537	4.22270046	-26.13261438
1.96	196	0.364	-0.854	-0.148	-14.9542038	-78.7244292	-24.0069402	82.95858882	4.38885828	-26.94048516
1.97	197	0.194	-0.974	-0.18	-26.929026	-74.0261736	-26.1841806	82.63773234	4.57220484	-27.70824888
1.98	198	0.015	-1.117	-0.197	-34.3201842	-68.182002	-24.2934192	82.23666174	4.73836266	-28.41298722
1.99	199	-0.132	-1.19	-0.206	-38.4454818	-57.7541664	-18.334656	81.80694324	4.85295426	-29.01459312
2	200	-0.212	-1.189	-0.182	-38.8465524	-43.6593996	-11.2299768	81.37722474	4.88733174	-29.46150036
2.01	201	-0.245	-1.14	-0.168	-36.669312	-28.5333084	-3.5523396	80.98188372	4.88160216	-29.74797936
2.02	202	-0.257	-1.068	-0.135	-31.0543236	-16.1001198	5.3285094	80.66102724	4.80711762	-29.90267802
2.03	203	-0.245	-0.989	-0.107	-28.2468294	-5.72958	13.750992	80.36881866	4.65814854	-29.9370555
2.04	204	-0.162	-0.906	-0.086	-27.1582092	2.0626488	19.4232762	80.0995284	4.4690724	-29.89121886
2.05	205	-0.04	-0.846	-0.07	-27.7311672	7.2192708	22.91832	79.83023814	4.24561878	-29.78235684
2.06	206	0.054	-0.795	-0.063	-27.7311672	7.3338624	24.4080108	79.5552183	4.01643558	-29.66776524
2.07	207	0.141	-0.75	-0.011	-27.501984	6.2452422	23.6058696	79.28019846	3.79298196	-29.5646328
2.08	208	0.193	-0.726	0.001	-28.7624916	4.5263682	22.345362	78.99371946	3.5809875	-29.48441868
2.09	209	0.199	-0.706	-0.003	-32.4294228	1.6042824	21.3713334	78.6671334	3.36899304	-29.43285246
2.1	210	0.15	-0.707	0.013	-38.2735944	-3.0366774	22.4599536	78.28898112	3.151269	-29.4213933
2.11	211	0.039	-0.701	-0.005	-44.6334282	-8.2505952	24.2361234	77.8363443	2.8934379	-29.45577078
2.12	212	-0.071	-0.696	-0.044	-48.8160216	-10.6570188	23.4339822	77.34360042	2.64133638	-29.51306658
2.13	213	-0.147	-0.699	-0.107	-51.3943326	-8.8235532	20.7410796	76.82220864	2.41788276	-29.55890322
2.14	214	-0.179	-0.72	-0.116	-50.5348956	-2.3491278	17.18874	76.30654644	2.24026578	-29.54744406
2.15	215	-0.174	-0.75	-0.075	-47.0398518	7.448454	14.7823164	75.84245046	2.0912967	-29.43858204
2.16	216	-0.14	-0.764	-0.045	-42.685371	16.2720072	13.5218088	75.41273196	1.98816426	-29.25523548
2.17	217	-0.091	-0.778	-0.016	-38.0444112	23.4339822	12.6623718	75.03457968	1.9194093	-28.99740438
2.18	218	-0.054	-0.796	-0.027	-36.4401288	28.4760126	12.1467096	74.66788656	1.8621135	-28.69946622
2.19	219	-0.043	-0.799	-0.045	-35.9817624	31.9710564	11.9175264	74.3126526	1.82200644	-28.361421
2.2	220	-0.037	-0.811	-0.046	-35.8671708	36.4401288	11.4018642	73.9688778	1.78762896	-27.98326872
2.21	221	-0.025	-0.83	-0.066	-37.528749	43.6021038	10.886202	73.5964551	1.79335854	-27.53636148
2.22	222	-0.027	-0.874	-0.109	-45.0917946	50.993262	10.7716104	73.14381828	1.81627686	-27.02642886
2.23	223	0	-0.999	-0.235	-65.1453246	60.733548	13.464513	72.49637574	1.83919518	-26.4133638
2.24	224	-0.102	-1.002	-0.227	-68.3538894	50.5348956	13.6936962	71.81455572	1.83919518	-25.8977016
2.25	225	-0.23	-1.152	0.262	-87.5479824	45.7793442	11.2872726	70.94938914	1.85065434	-25.43360562
2.26	226	-0.004	-1.069	0.141	-125.5923936	94.8818448	6.6463128	69.69461112	2.06837838	-24.52833198
2.27	227	-0.007	-1.037	-0.332	-128.91555	98.3768886	4.9274388	68.4111852	2.32620948	-23.60014002
2.28	228	-0.062	-1.251	-0.4	-129.3739164	77.5212174	6.875496	67.11630012	2.5210152	-22.86675378
2.29	229	0.002	-1.384	-0.345	-134.1294678	69.4425096	9.3965112	65.7755784	2.67571386	-22.2021225
2.3	230	0.06	-1.386	-0.265	-123.6443364	70.0154676	8.2505952	64.54944828	2.85906042	-21.53749122
2.31	231	0.028	-1.332	-0.205	-119.3471514	73.9688778	8.4224826	63.36342522	3.07105488	-20.84421204
2.32	232	0.016	-1.15	-0.33	-126.9674928	77.2920342	6.016059	62.1086472	3.33461556	-20.13374412
2.33	233	-0.089	-0.936	-0.516	-134.8743132	79.641162	-1.2032118	60.76792548	3.68411994	-19.44619452
2.34	234	-0.155	-0.869	-0.693	-148.5680094	81.0162612	-11.5164558	59.29542342	4.14248634	-18.80448156
2.35	235	-0.106	-0.939	-0.713	-175.1532606	77.8649922	-17.7044022	57.54790152	4.65241896	-18.23725314
2.36	236	0.058	-0.995	-0.474	-208.7858952	65.5463952	-18.2200644	55.45660482	5.12224452	-17.79607548
2.37	237	0.315	-0.898	-0.412	-234.6835968	53.4569814	-13.2926256	53.10174744	5.49466722	-17.4465711
2.38	238	0.394	-0.787	-0.591	-231.8761026	55.003968	-6.875496	50.77553796	5.83844202	-17.05695966
2.39	239	0.296	-0.833	-0.505	-217.8386316	37.7006364	-11.2872726	48.5868384	6.1306506	-16.8449652
2.4	240	0.344	-0.805	-0.319	-213.8852214	4.0680018	-19.5951636	46.409598	6.27961968	-16.95382722
2.41	241	0.351	-0.698	-0.437	-194.9776074	6.7609044	-28.8197874	44.40997458	6.5030733	-17.11425546
2.42	242	0.289	-0.741	-0.309	-183.8049264	-7.2192708	-36.8984952	42.50775402	6.68069028	-17.43511194
2.43	243	0.154	-0.757	-0.241	-180.195291	-19.5378678	-42.0551172	40.62845178	6.7895523	-17.88201918
2.44	244	0.009	-0.733	-0.226	-178.8201918	-26.069589	-45.7220484	38.75487912	6.86403684	-18.40914054
2.45	245	-0.061	-0.654	-0.117	-175.9554018	-42.3415962	-43.4875122	36.91568394	6.77809314	-19.01647602
2.46	246	-0.042	-0.594	0.11	-175.7835144	-45.550161	-34.1482968	35.07648876	6.59474658	-19.5665157
2.47	247	-0.019	-0.528	0.24	-177.903459	-34.1482968	-23.8350528	33.22583442	6.42858876	-19.96185672
2.48	248	0.021	-0.457	0.303	-182.3725314	-19.5951636	-13.3499214	31.35799134	6.31399716	-20.18531034
2.49	249	0.055	-0.378	0.358	-182.7163062	-5.6149884	0.286479	29.50160742	6.23951262	-20.20822866
2.5	250	0.082	-0.349	0.351	-179.1066708	5.5576926	18.7357266	27.71970804	6.18221682	-20.01342294
2.51	251	0.157	-0.414	0.302	-175.0959648	11.4018642	38.101707	25.9836453	6.08481396	-19.61808192
2.52	252	0.272	-0.42	0.245	-172.0592874	9.6829902	55.8061092	24.29914878	5.90719698	-19.06231266
2.53	253	0.486	-0.417	0.142	-166.6734822	3.9534102	66.176649	22.67194806	5.66082504	-18.43778844
2.54	254	0.611	-0.374	0.073	-165.3556788	-11.5737516	69.4998054	21.05047692	5.2712136	-17.83618254
2.55	255	0.65	-0.362	0.037	-162.720072	-34.3201842	65.89017	19.45765368	4.7269035	-17.34343866
2.56	256	0.551	-0.415	-0.024	-160.714719	-55.6342218	60.2751816	17.86483044	3.99924684	-16.9595568
2.57	257	0.435	-0.478	-0.001	-157.5061542	-71.8489332	55.576926	16.3006551	3.13980984	-16.65015948
2.58	258	0.257	-0.496	0.023	-156.5321256	-88.1209404	51.6235158	14.73647976	2.1485925	-16.40378754
2.59	259	0.026	-0.456	0.071	-155.3862096	-97.5747474	47.8992888	13.178034	1.08289062	-16.19752266
2.6	260	-0.1	-0.411	0.003	-147.3075018	-100.4968332	43.0864416	11.71126152	0	-16.00844652
2.61	261	-0.048	-0.384	-0.194	-141.9789924	-107.3723292	40.5081306	10.2845961	-1.12299768	-15.83655912
2.62	262	0.021	-0.45	-0.257	-140.088231	-107.3723292	46.9252602	8.86938984	-2.2631841	-15.57299844
2.63	263	-0.093	-0.393	-0.363	-144.4427118	-86.0009958	48.987909	7.39688778	-3.19137606	-15.22922364
2.64	264	-0.497	-0.249	-0.463	-137.1661452	-71.6770458	50.1911208	5.99314068	-3.96486936	-14.82242346
2.65	265	-0.912	-0.114	-0.421	-134.7597216	-64.2858876	54.3164184	4.59512316	-4.6982556	-14.34686832
2.66	266	-1.077	0.059	-0.457	-131.78034	-49.0452048	55.9207008	3.22575354	-5.23683612	-13.82547654
2.67	267	-1.078	0.046	-0.662	-122.4411246	-40.393539	44.2896534	1.9480572	-5.66655462	-13.4072172
2.68	268	-1.114	0.047	-0.774	-127.1393802	-33.1169724	23.204799	0.63598338	-6.016059	-13.178034
2.69	269	-1.082	0.191	-0.87	-127.483155	-16.6730778	8.2505952	-0.6589017	-6.19940556	-13.0920903
2.7	270	-0.94	0.318	-0.902	-112.4143596	7.6203414	6.589017	-1.81627686	-6.1592985	-13.0061466
2.71	271	-0.642	0.407	-0.892	-96.3715356	28.9916748	16.5011904	-2.81895336	-5.87854908	-12.83998878
2.72	272	-0.335	0.424	-0.936	-71.3905668	47.7274014	37.1849742	-3.5809875	-5.39153478	-12.47902524
2.73	273	-0.073	0.27	-0.86	-46.0085274	69.7289886	57.7541664	-4.10810886	-4.67533728	-11.92325598
2.74	274	0.07	0.099	-0.652	-44.2896534	87.1469118	69.4998054	-4.61804148	-3.76433406	-11.27008386
2.75	275	0.205	0.195	-0.535	-38.8465524	84.9123756	69.4425096	-5.06494872	-2.85906042	-10.63410048
2.76	276	0.438	0.31	-0.664	-26.8144344	72.8802576	68.6403684	-5.37434604	-2.08556712	-9.9981171
2.77	277	0.676	0.363	-0.819	-16.2147114	69.5571012	65.9474658	-5.56915176	-1.34072172	-9.39078162
2.78	278	0.663	0.409	-0.798	-3.724227	74.3699484	65.2026204	-5.62071798	-0.5443101	-8.7949053
2.79	279	0.343	0.392	-0.77	8.8235532	91.386801	66.9787902	-5.54623344	0.41825934	-8.19902898
2.8	280	0.059	0.474	-0.848	11.6310474	103.8199896	55.4623344	-5.45456016	1.49542038	-7.71774426
2.81	281	0.129	0.647	-0.774	18.3919518	121.180617	43.2010332	-5.2712136	2.72728008	-7.37396946
2.82	282	0.273	0.862	-0.873	25.7258142	138.7131318	34.37748	-5.0133825	4.13102718	-7.11613836
2.83	283	0.224	1.006	-0.844	29.5646328	149.5993338	25.6112226	-4.72117392	5.63217714	-6.94998054
2.84	284	0.182	1.03	-0.764	25.9549974	169.595568	19.480572	-4.4690724	7.32240324	-6.8468481
2.85	285	0.292	0.837	-0.879	36.5547204	181.7995734	12.0894138	-4.13102718	9.1386801	-6.8182002
2.86	286	0.461	0.691	-0.872	45.7793442	165.5275662	3.7815228	-3.6955791	10.77733998	-6.85257768
2.87	287	0.8	0.693	-0.545	55.003968	157.2196752	-3.6669312	-3.17418732	12.33578574	-6.94425096
2.88	288	1.259	0.761	-0.303	55.3477428	123.8162238	-11.8029348	-2.6642547	13.56191586	-7.09894962
2.89	289	1.617	0.717	-0.508	49.6754586	83.3080932	-17.2460358	-2.22307704	14.3812458	-7.29375534
2.9	290	2.274	0.509	-2.187	37.3568616	49.274388	-19.2513888	-1.90222056	14.8682601	-7.50002022
2.91	291	2.726	1.035	-3.964	-12.5477802	-10.9434978	-61.3638018	-2.18869956	14.73647976	-8.13027402
2.92	292	3.996	1.907	-3.996	-26.2987722	-93.7359288	-86.9177286	-2.65852512	13.77391032	-9.00117018
2.93	293	3.307	2.721	-3.996	-67.4944524	-169.309089	-92.3608296	-3.5236917	12.04930674	-9.88925508
2.94	294	1.173	1.159	-3.996	-65.4890994	-151.8911658	-97.8039306	-4.34875122	10.47367224	-10.81171746
2.95	295	0.569	0.046	-3.654	-69.327918	-127.0247886	-39.8778768	-5.09359662	9.18451674	-11.13830352
2.96	296	0.945	0.02	-2.557	-61.7648724	-138.1974696	50.7640788	-5.6149884	7.86098376	-10.53096804
2.97	297	0.668	0.296	-1.545	-52.0245864	-136.4212998	95.111028	-5.9874111	6.60620574	-9.47672532
2.98	298	0.053	0.264	-0.897	-28.9916748	-127.8842256	90.7565472	-6.1592985	5.43164184	-8.47404882
2.99	299	-0.477	0.047	-0.524	-13.4072172	-110.5235982	63.6556338	-6.2165943	4.4117766	-7.75785132
3	300	-0.942	-0.116	-0.486	10.6570188	-85.657221	33.6899304	-6.06189564	3.53515086	-7.33959198
3.01	301	-0.97	0.166	-0.398	25.496631	-65.6609868	15.183387	-5.78114622	2.90489706	-7.13905668
3.02	302	-0.759	0.732	-0.248	15.5271618	-51.56622	12.7769634	-5.60925882	2.41215318	-6.97862844
3.03	303	-0.32	1.302	-0.21	-12.605076	-39.1903272	19.3659804	-5.72385042	2.03973048	-6.75517482
3.04	304	0.223	1.401	-0.306	-13.750992	-46.5241896	14.610429	-5.85563076	1.59282324	-6.57755784
3.05	305	0.491	1.099	-0.379	-4.0680018	-54.5456016	-3.2085648	-5.96449278	1.10580894	-6.57755784
3.06	306	0.461	0.635	-0.351	1.5469866	-62.9680842	-22.2880662	-5.94730404	0.4583664	-6.74944524
3.07	307	0.293	0.346	-0.364	7.9641162	-68.182002	-30.8824362	-5.85563076	-0.23491278	-7.00727634
3.08	308	0.15	0.322	-0.382	17.7044022	-67.7809314	-30.1948866	-5.66655462	-0.93392154	-7.25937786
3.09	309	0.05	0.374	-0.348	31.8564648	-66.8069028	-24.5798982	-5.3285094	-1.61001198	-7.45991316
3.1	310	0.029	0.392	-0.291	51.1078536	-64.2858876	-14.32395	-4.81857678	-2.25172494	-7.5630456
3.11	311	0.092	0.445	-0.275	59.0719698	-60.2178858	-7.9068204	-4.2112413	-2.84187168	-7.61461182
3.12	312	0.198	0.53	-0.322	60.6189564	-61.9940556	-9.5683986	-3.5809875	-3.45493674	-7.69482594
3.13	313	0.251	0.579	-0.365	55.6342218	-69.2706222	-16.1574156	-2.99657034	-4.14248634	-7.83806544
3.14	314	0.262	0.579	-0.339	48.3576552	-68.8122558	-21.772404	-2.48090814	-4.83003594	-8.04433032
3.15	315	0.203	0.434	-0.328	44.3469492	-57.6395748	-24.4080108	-2.02254174	-5.39153478	-8.28497268
3.16	316	0.053	0.223	-0.524	34.663959	-41.0237928	-22.7464326	-1.64438946	-5.79833496	-8.51415588
3.17	317	-0.261	0.126	-0.922	20.4546006	-40.966497	-16.902261	-1.41520626	-6.20513514	-8.68604328
3.18	318	-0.592	0.096	-1.248	12.2040054	-47.8992888	-11.9748222	-1.27196676	-6.68069028	-8.80636446
3.19	319	-0.639	0.034	-1.515	1.4896908	-44.0031744	-11.0007936	-1.23758928	-7.11613836	-8.92095606
3.2	320	-0.566	0.028	-1.744	-10.2559482	-46.8106686	-7.5057498	-1.32353298	-7.58596392	-8.9954406
3.21	321	-0.431	0.038	-1.852	-13.8655836	-56.8374336	-6.6463128	-1.44958374	-8.15319234	-9.06419556
3.22	322	-0.339	-0.017	-1.757	-10.599723	-63.2545632	-7.9641162	-1.53552744	-8.77771656	-9.14440968
3.23	323	-0.376	-0.063	-1.587	-13.0634424	-63.598338	-8.307891	-1.65011904	-9.41369994	-9.23035338
3.24	324	-0.454	-0.059	-1.421	-16.615782	-66.8641986	-5.9587632	-1.79908812	-10.07833122	-9.28764918
3.25	325	-0.566	-0.026	-1.209	-15.183387	-61.879464	-2.4637194	-1.93659804	-10.70858502	-9.30483792
3.26	326	-0.694	-0.032	-1.058	-15.756345	-37.9298196	-1.0313244	-2.0912967	-11.0867373	-9.3105675
3.27	327	-0.726	-0.103	-0.946	-18.2200644	-17.1314442	-0.4583664	-2.27464326	-11.2586247	-9.3105675
3.28	328	-0.659	-0.124	-0.76	-21.8869956	1.2605076	1.9480572	-2.50382646	-11.24716554	-9.28764918
3.29	329	-0.53	-0.116	-0.676	-19.0222056	13.0061466	3.5523396	-2.70436176	-11.12111478	-9.2532717
3.3	330	-0.445	-0.101	-0.7	-17.8762896	11.9175264	1.145916	-2.86479	-11.07527814	-9.23035338
3.31	331	-0.411	-0.09	-0.77	-16.6730778	12.3758928	-2.8074942	-3.03094782	-10.96068654	-9.25900128
3.32	332	-0.405	-0.105	-0.829	-11.9175264	21.6005166	-6.0733548	-3.13980984	-10.74869208	-9.32775624
3.33	333	-0.471	-0.117	-0.842	-8.7089616	32.0283522	-8.0787078	-3.22002396	-10.43929476	-9.41942952
3.34	334	-0.511	-0.159	-0.878	-1.6042824	44.9199072	-7.3338624	-3.22575354	-9.9981171	-9.50537322
3.35	335	-0.523	-0.2	-0.942	0.5156622	59.4157446	-4.4690724	-3.19137606	-9.453807	-9.56266902
3.36	336	-0.465	-0.234	-1.005	3.3231564	71.2759752	-0.859437	-3.16272816	-8.74906866	-9.59131692
3.37	337	-0.388	-0.275	-1.036	5.8441716	76.8909636	3.437748	-3.11689152	-7.98703452	-9.57985776
3.38	338	-0.322	-0.295	-1.01	4.3544808	78.208767	7.5057498	-3.08824362	-7.20781164	-9.52256196
3.39	339	-0.264	-0.286	-0.936	-1.3178034	82.3340646	9.167328	-3.1226211	-6.3884817	-9.453807
3.4	340	-0.2	-0.237	-0.906	-4.6982556	87.0323202	8.1932994	-3.16845774	-5.53477428	-9.3965112
3.41	341	-0.126	-0.209	-0.921	-3.8961144	86.4593622	6.5317212	-3.22002396	-4.67533728	-9.35640414
3.42	342	-0.076	-0.192	-0.96	-6.6463128	78.2660628	4.8128472	-3.30023808	-3.90184398	-9.32775624
3.43	343	-0.033	-0.201	-0.97	-8.4224826	75.8023434	3.6096354	-3.39764094	-3.151269	-9.31629708
3.44	344	0.044	-0.189	-0.971	-10.0840608	76.8909636	2.6929026	-3.51223254	-2.38923486	-9.3105675
3.45	345	0.106	-0.128	-1.007	-10.1986524	72.8229618	3.2658606	-3.6096354	-1.65584862	-9.30483792
3.46	346	0.168	-0.068	-1.01	-9.5683986	67.0933818	3.8961144	-3.71849742	-0.99121734	-9.29337876
3.47	347	0.228	-0.023	-1.005	-10.7143146	58.441716	4.3544808	-3.83308902	-0.41252976	-9.27046044
3.48	348	0.262	0.012	-1.052	-9.6829902	50.0765292	4.6982556	-3.94195104	0.08021412	-9.24181254
3.49	349	0.258	0.047	-1.051	-9.6829902	46.1804148	5.156622	-4.04508348	0.53858052	-9.20743506
3.5	350	0.236	0.095	-1.034	-10.886202	39.3622146	4.9274388	-4.17113424	0.96256944	-9.18451674
3.51	351	0.205	0.114	-1.025	-10.886202	29.0489706	4.5263682	-4.27999626	1.25477802	-9.15013926
3.52	352	0.183	0.098	-0.961	-12.3758928	20.5691922	4.8128472	-4.4117766	1.45531332	-9.1100322
3.53	353	0.176	0.111	-0.891	-16.2720072	9.740286	4.4117766	-4.57793442	1.55844576	-9.06992514
3.54	354	0.224	0.179	-0.903	-17.8189938	2.6929026	2.86479	-4.7555514	1.58136408	-9.04127724
3.55	355	0.311	0.235	-0.93	-18.2200644	-1.2032118	0.6302538	-5.00765292	1.6902261	-9.05846598
3.56	356	0.368	0.251	-0.961	-18.2200644	-7.9068204	-1.432395	-5.19099948	1.61001198	-9.06419556
3.57	357	0.398	0.218	-1.008	-14.7823164	-13.8082878	-1.8334656	-5.33996856	1.47250206	-9.07565472
3.58	358	0.362	0.15	-0.994	-10.6570188	-18.1627686	-1.432395	-5.443101	1.2891555	-9.07565472
3.59	359	0.273	0.099	-0.985	-9.167328	-19.6524594	-1.6042824	-5.53477428	1.0886202	-9.07565472
3.6	360	0.179	0.087	-0.992	-5.0420304	-15.9282324	-2.6356068	-5.59207008	0.98548776	-9.10430262
3.61	361	0.104	0.117	-0.974	-1.3178034	-8.7662574	-3.3804522	-5.60352924	0.89954406	-9.13295052
3.62	362	0.077	0.162	-0.949	2.4064236	-1.2605076	-4.1825934	-5.58061092	0.88235532	-9.17305758
3.63	363	0.099	0.187	-0.926	5.8441716	7.3911582	-4.5263682	-5.52331512	0.95111028	-9.2246238
3.64	364	0.131	0.191	-0.909	8.1932994	16.042824	-4.3544808	-5.443101	1.10580894	-9.27619002
3.65	365	0.14	0.183	-0.921	8.9381448	21.7151082	-4.1825934	-5.38007562	1.3464513	-9.3392154
3.66	366	0.103	0.166	-0.935	10.4278356	24.1215318	-4.3544808	-5.28267276	1.58136408	-9.40224078
3.67	367	0.085	0.147	-0.951	11.172681	23.8350528	-4.870143	-5.17381074	1.81627686	-9.46526616
3.68	368	0.086	0.122	-0.976	11.0580894	21.8296998	-4.9847346	-5.06494872	2.02827132	-9.52829154
3.69	369	0.091	0.085	-1.003	10.313244	17.9908812	-4.8128472	-4.96754586	2.20015872	-9.59131692
3.7	370	0.096	0.044	-1.037	9.1100322	12.891555	-3.9534102	-4.86441342	2.34339822	-9.64288314
3.71	371	0.099	0	-1.074	8.021412	6.875496	-2.578311	-4.7841993	2.41215318	-9.67153104
3.72	372	0.103	-0.04	-1.1	6.4744254	0	-1.0886202	-4.71544434	2.41215318	-9.6829902
3.73	373	0.101	-0.069	-1.124	4.583664	-5.3858052	0.572958	-4.6696077	2.36058696	-9.67726062
3.74	374	0.093	-0.098	-1.093	1.432395	-11.5164558	2.6929026	-4.65241896	2.24599536	-9.64288314
3.75	375	0.069	-0.116	-1.058	-0.859437	-17.8189938	4.1252976	-4.60085274	2.07983754	-9.59131692
3.76	376	0.033	-0.123	-1.033	-2.1772404	-23.3193906	4.8128472	-4.61804148	1.85065434	-9.52829154
3.77	377	-0.001	-0.119	-1.014	-3.2085648	-26.9863218	4.4117766	-4.64668938	1.58709366	-9.47099574
3.78	378	-0.033	-0.108	-0.996	-4.0680018	-28.7624916	3.0939732	-4.68106686	1.30634424	-9.4251591
3.79	379	-0.05	-0.091	-0.98	-4.8128472	-30.0229992	1.4896908	-4.7269035	1.00840608	-9.3965112
3.8	380	-0.063	-0.068	-0.978	-4.8128472	-30.8824362	0.1145916	-4.74409224	0.68182002	-9.3678633
3.81	381	-0.081	-0.04	-0.976	-3.8961144	-30.9970278	-1.145916	-4.77846972	0.3724227	-9.3678633
3.82	382	-0.098	-0.016	-0.968	-2.4064236	-29.1635622	-2.0626488	-4.80138804	0.0859437	-9.3678633
3.83	383	-0.114	0.007	-0.963	-0.572958	-25.9549974	-2.578311	-4.80138804	-0.16615782	-9.37932246
3.84	384	-0.116	0.029	-0.953	2.2345362	-21.7151082	-3.3231564	-4.77274014	-0.38388186	-9.40224078
3.85	385	-0.101	0.052	-0.946	4.8128472	-16.615782	-3.8961144	-4.7269035	-0.59014674	-9.4251591
3.86	386	-0.072	0.071	-0.938	6.2452422	-10.4851314	-4.4117766	-4.65814854	-0.69327918	-9.46526616
3.87	387	-0.039	0.081	-0.92	5.9014674	-5.2712136	-4.7555514	-4.59512316	-0.75057498	-9.50537322
3.88	388	-0.025	0.082	-0.904	5.443101	-1.3750992	-4.5263682	-4.54355694	-0.76776372	-9.55120986
3.89	389	-0.019	0.073	-0.889	4.870143	1.718874	-4.1825934	-4.49199072	-0.75057498	-9.5970465
3.9	390	-0.014	0.068	-0.888	3.3804522	5.443101	-3.8388186	-4.46334282	-0.70473834	-9.63715356
3.91	391	-0.007	0.066	-0.897	2.3491278	6.9327918	-3.437748	-4.4404245	-0.64171296	-9.67153104
3.92	392	0.003	0.066	-0.919	1.8907614	7.1046792	-2.8074942	-4.42323576	-0.572958	-9.70590852
3.93	393	0.007	0.061	-0.946	1.7761698	6.8182002	-2.3491278	-4.40604702	-0.50420304	-9.73455642
3.94	394	0.01	0.058	-0.973	1.2605076	5.9014674	-1.8907614	-4.39458786	-0.44690724	-9.75174516
3.95	395	0.01	0.053	-0.998	0.4583664	4.8128472	-1.2605076	-4.37739912	-0.38961144	-9.77466348
3.96	396	0.007	0.05	-1.017	-0.572958	3.6669312	-0.5156622	-4.38885828	-0.34950438	-9.78039306
3.97	397	-0.004	0.047	-1.036	-1.432395	2.2345362	0.3437748	-4.40031744	-0.32658606	-9.77466348
3.98	398	-0.022	0.044	-1.046	-0.9167328	0.4010706	0.9740286	-4.4117766	-0.32658606	-9.7689339
3.99	399	-0.042	0.041	-1.05	0	0	1.0886202	-4.4117766	-0.32085648	-9.75747474
4	400	-0.058	0.039	-1.049	0.7448454	-0.0572958	0.8021412	-4.36021038	-0.48128472	-9.71736768
4.01	401	-0.06	0.041	-1.046	1.2032118	0.1145916	0.5156622	-4.34875122	-0.48128472	-9.7116381
4.02	402	-0.049	0.046	-1.04	1.0313244	0.3437748	0.3437748	-4.33729206	-0.47555514	-9.7116381
4.03	403	-0.03	0.051	-1.031	0.8021412	0.3437748	0.2291832	-4.33156248	-0.47555514	-9.70590852
4.04	404	-0.016	0.054	-1.023	0.4010706	0.286479	0.2291832	-4.3258329	-0.46982556	-9.70590852
4.05	405	-0.002	0.053	-1.011	0.1145916	0.0572958	0.3437748	-4.29145542	-0.46409598	-9.70017894
4.06	406	0.007	0.05	-1.001	-0.1145916	0	0.3437748	-4.29145542	-0.46409598	-9.70017894
4.07	407	0.015	0.046	-0.991	-0.1718874	0.0572958	0.5156622	-4.297185	-0.46409598	-9.69444936
4.08	408	0.023	0.042	-0.986	-0.1145916	0.7448454	0.6302538	-4.297185	-0.45263682	-9.68871978
4.09	409	0.033	0.038	-0.982	-0.3437748	1.3750992	0.859437	-4.30291458	-0.44117766	-9.67726062
4.1	410	0.043	0.035	-0.976	-0.572958	1.5469866	1.2605076	-4.26280752	-0.3151269	-9.68871978
4.11	411	0.049	0.03	-0.978	-0.7448454	1.432395	1.3750992	-4.27426668	-0.29793816	-9.67726062
4.12	412	0.053	0.025	-0.98	-0.4010706	1.3178034	1.432395	-4.27426668	-0.286479	-9.66580146
4.13	413	0.049	0.02	-0.981	-0.1145916	1.2032118	1.3750992	-4.27999626	-0.27501984	-9.64861272
4.14	414	0.041	0.013	-0.985	0.1718874	0.7448454	1.2605076	-4.27426668	-0.26356068	-9.63715356
4.15	415	0.033	0.009	-0.986	0.2291832	0.2291832	1.0886202	-4.04508348	-0.10886202	-9.66007188
4.16	416	0.027	0.006	-0.991	0.1718874	0	0.859437	-4.04508348	-0.10886202	-9.6543423
4.17	417	0.027	0.002	-0.993	0	-0.1718874	0.6302538	-4.04508348	-0.1145916	-9.64861272
4.18	418	0.025	0.001	-0.998	-0.286479	-0.5156622	0.4010706	-4.04508348	-0.12032118	-9.64288314
4.19	419	0.021	0.002	-1.003	-0.6302538	-1.2032118	0.2291832	-4.05654264	-0.13178034	-9.63715356
4.2	420	0.016	0.004	-1.001	-0.572958	-1.9480572	0.1145916	-3.93049188	-0.12032118	-9.64861272
4.21	421	0.01	0.006	-0.994	-0.3437748	-2.1772404	-0.0572958	-3.93622146	-0.1432395	-9.64288314
4.22	422	0.008	0.006	-0.984	-0.572958	-2.005353	-0.286479	-3.94195104	-0.16042824	-9.64861272
4.23	423	0.007	0.007	-0.979	-1.4896908	-1.9480572	-0.4010706	-3.95913978	-0.18334656	-9.64861272
4.24	424	0.012	0.012	-0.978	-1.8334656	-2.0626488	-0.5156622	-3.97632852	-0.2005353	-9.6543423
4.25	425	0.016	0.018	-0.975	-1.7761698	-2.1199446	-0.6302538	-3.9534102	-0.2005353	-9.66580146
4.26	426	0.015	0.021	-0.977	-2.0626488	-2.1199446	-0.5156622	-3.97059894	-0.22345362	-9.67153104
4.27	427	0.013	0.025	-0.983	-2.291832	-2.3491278	-0.4010706	-3.99351726	-0.24637194	-9.67153104
4.28	428	0.008	0.029	-0.987	-2.1199446	-2.3491278	-0.4010706	-4.01643558	-0.27501984	-9.67726062
4.29	429	0.004	0.034	-0.989	-1.7761698	-2.0626488	-0.5156622	-4.03362432	-0.29220858	-9.6829902
4.3	430	0.003	0.036	-0.989	-1.2032118	-1.4896908	-0.572958	-4.01643558	-0.30366774	-9.68871978
4.31	431	0.003	0.039	-0.988	-0.9740286	-1.2032118	-0.572958	-4.02789474	-0.32085648	-9.69444936
4.32	432	0.001	0.04	-0.989	-0.8021412	-1.2032118	-0.4583664	-4.03362432	-0.33231564	-9.70017894
4.33	433	-0.002	0.042	-0.992	-0.7448454	-1.3750992	-0.4010706	-4.04508348	-0.3437748	-9.70017894
4.34	434	-0.004	0.041	-0.995	-0.572958	-1.4896908	-0.4010706	-4.05081306	-0.36096354	-9.70590852
4.35	435	-0.006	0.041	-0.998	-0.5156622	-1.4896908	-0.3437748	-4.02216516	-0.4010706	-9.70017894
4.36	436	-0.008	0.041	-0.998	-0.4583664	-1.3750992	-0.2291832	-4.02789474	-0.41825934	-9.70590852
4.37	437	-0.009	0.04	-0.998	-0.4583664	-1.3750992	-0.1718874	-4.03362432	-0.4297185	-9.70590852
4.38	438	-0.012	0.039	-0.997	-0.4583664	-1.2032118	0	-4.0393539	-0.44117766	-9.70590852
4.39	439	-0.015	0.038	-0.994	-0.572958	-0.9167328	0	-4.04508348	-0.45263682	-9.70590852
4.4	440	-0.015	0.035	-0.992	-0.4583664	-0.572958	0.0572958	-3.95913978	-0.56722842	-9.6829902
4.41	441	-0.015	0.033	-0.99	-0.4010706	-0.1145916	0.0572958	-3.96486936	-0.56722842	-9.6829902
4.42	442	-0.014	0.032	-0.989	-0.3437748	0.286479	0.1718874	-3.96486936	-0.56722842	-9.6829902
4.43	443	-0.012	0.029	-0.99	-0.2291832	0.6302538	0.1718874	-3.97059894	-0.56149884	-9.67726062
4.44	444	-0.01	0.025	-0.99	-0.286479	0.6875496	0.286479	-3.97059894	-0.55003968	-9.67726062
4.45	445	-0.009	0.022	-0.992	-0.2291832	0.6875496	0.286479	-3.84454818	-0.58441716	-9.67153104
4.46	446	-0.011	0.022	-0.992	-0.1145916	1.145916	0.286479	-3.85027776	-0.572958	-9.66580146
4.47	447	-0.011	0.023	-0.99	0	1.3750992	0.286479	-3.85027776	-0.55576926	-9.66580146
4.48	448	-0.009	0.023	-0.988	0	1.5469866	0.2291832	-3.85027776	-0.53858052	-9.66007188
4.49	449	-0.004	0.022	-0.988	0	1.4896908	0.2291832	-3.85027776	-0.52712136	-9.66007188
4.5	450	0	0.02	-0.987	-0.286479	1.3750992	0.286479	-3.77006364	-0.50420304	-9.66007188
4.51	451	0.003	0.018	-0.99	-0.5156622	1.0313244	0.4010706	-3.77579322	-0.49274388	-9.66007188
4.52	452	0.006	0.019	-0.988	-0.5156622	0.8021412	0.3437748	-3.7815228	-0.48128472	-9.6543423
4.53	453	0.007	0.02	-0.986	-0.4010706	0.8021412	0.4010706	-3.78725238	-0.47555514	-9.6543423
4.54	454	0.009	0.023	-0.986	-0.3437748	0.9167328	0.4583664	-3.78725238	-0.46409598	-9.64861272
4.55	455	0.009	0.026	-0.989	-0.3437748	0.859437	0.5156622	-3.71849742	-0.41252976	-9.6543423
4.56	456	0.01	0.027	-0.991	-0.286479	0.859437	0.4583664	-3.724227	-0.40680018	-9.64861272
4.57	457	0.009	0.027	-0.991	-0.2291832	0.859437	0.6302538	-3.724227	-0.39534102	-9.64288314
4.58	458	0.009	0.027	-0.99	-0.1145916	0.8021412	0.572958	-3.72995658	-0.38961144	-9.63715356
4.59	459	0.01	0.029	-0.99	0	0.9167328	0.572958	-3.72995658	-0.37815228	-9.63142398
4.6	460	0.011	0.029	-0.99	0.1145916	1.0886202	0.4583664	-3.67266078	-0.32658606	-9.63715356
4.61	461	0.011	0.03	-0.99	0.0572958	1.0886202	0.3437748	-3.67266078	-0.3151269	-9.63142398
4.62	462	0.011	0.032	-0.99	0.2291832	0.7448454	0.286479	-3.6669312	-0.30366774	-9.63142398
4.63	463	0.011	0.032	-0.992	0.2291832	0.6302538	0.1718874	-3.6669312	-0.29793816	-9.6256944
4.64	464	0.014	0.029	-0.992	0.1145916	0.4583664	0.2291832	-3.6669312	-0.29220858	-9.6256944
4.65	465	0.012	0.028	-0.992	0	0.0572958	0.2291832	-3.3231564	-0.06302538	-9.67153104
4.66	466	0.012	0.026	-0.992	-0.1145916	-0.0572958	0.0572958	-3.3231564	-0.06302538	-9.67153104
4.67	467	0.011	0.026	-0.992	-0.0572958	-0.1718874	0	-3.3231564	-0.06875496	-9.67153104
4.68	468	0.009	0.027	-0.99	-0.0572958	-0.4583664	0	-3.32888598	-0.07448454	-9.67153104
4.69	469	0.007	0.029	-0.99	-0.1718874	-0.6302538	0	-3.32888598	-0.08021412	-9.67153104
4.7	470	0.006	0.028	-0.987	-0.3437748	-1.0313244	0	-3.30023808	-0.09740286	-9.67153104
4.71	471	0.002	0.028	-0.987	-0.4010706	-0.9167328	0	-3.30596766	-0.10886202	-9.67153104
4.72	472	0.001	0.027	-0.989	-0.4010706	-0.6302538	0	-3.31169724	-0.1145916	-9.67153104
4.73	473	0.001	0.025	-0.992	-0.2291832	-0.5156622	-0.0572958	-3.31169724	-0.12032118	-9.67153104
4.74	474	0	0.025	-0.994	-0.2291832	-0.4583664	0	-3.31742682	-0.12605076	-9.67153104
4.75	475	-0.001	0.023	-0.994	-0.1718874	-0.4583664	0	-3.2372127	-0.17761698	-9.66580146
4.76	476	-0.002	0.023	-0.993	-0.2291832	-0.572958	-0.0572958	-3.2372127	-0.18334656	-9.66580146
4.77	477	-0.002	0.022	-0.991	-0.1718874	-0.4010706	-0.0572958	-3.24294228	-0.18334656	-9.66580146
4.78	478	-0.002	0.022	-0.993	-0.3437748	-0.1145916	-0.1145916	-3.24294228	-0.18907614	-9.66580146
4.79	479	-0.002	0.022	-0.992	-0.4583664	-0.0572958	-0.0572958	-3.24867186	-0.18907614	-9.66580146
4.8	480	-0.003	0.025	-0.991	-0.3437748	-0.1718874	-0.0572958	-3.19710564	-0.24637194	-9.66007188
4.81	481	-0.004	0.026	-0.99	-0.2291832	-0.3437748	-0.0572958	-3.20283522	-0.25210152	-9.66007188
4.82	482	-0.002	0.025	-0.985	-0.2291832	-0.1718874	0	-3.20283522	-0.25210152	-9.66007188
4.83	483	-0.002	0.02	-0.981	-0.859437	-0.0572958	0.0572958	-3.21429438	-0.25210152	-9.66007188
4.84	484	0	0.02	-0.979	-1.6042824	-0.1145916	0.0572958	-3.23148312	-0.2578311	-9.6543423
4.85	485	0.004	0.026	-0.98	-1.7761698	-0.3437748	0.1145916	-3.23148312	-0.25210152	-9.6543423
4.86	486	0.003	0.024	-0.98	-1.5469866	-0.286479	0.1718874	-3.24867186	-0.2578311	-9.6543423
4.87	487	0.002	0.026	-0.983	-1.8334656	-0.0572958	0.2291832	-3.2658606	-0.2578311	-9.64861272
4.88	488	0	0.029	-0.988	-1.6615782	0	0.286479	-3.28304934	-0.2578311	-9.64861272
4.89	489	-0.002	0.03	-0.994	-1.3178034	0.1718874	0.3437748	-3.2945085	-0.2578311	-9.64288314
4.9	490	-0.001	0.029	-0.995	-1.0886202	0.572958	0.286479	-3.28877892	-0.2578311	-9.64288314
4.91	491	0	0.026	-0.995	-0.9740286	0.8021412	0.2291832	-3.30023808	-0.25210152	-9.63715356
4.92	492	0.002	0.026	-0.993	-0.8021412	0.859437	0.2291832	-3.31169724	-0.24064236	-9.63715356
4.93	493	0.002	0.027	-0.993	-0.7448454	0.6875496	0.1718874	-3.31742682	-0.23491278	-9.63142398
4.94	494	0.002	0.03	-0.993	-0.7448454	0.4583664	0.1145916	-3.3231564	-0.2291832	-9.63142398
4.95	495	0.004	0.03	-0.993	-0.6302538	0.3437748	0.0572958	-3.30023808	-0.22345362	-9.63142398
4.96	496	0.005	0.031	-0.993	-0.572958	0.2291832	0.0572958	-3.30596766	-0.22345362	-9.63142398
4.97	497	0.006	0.031	-0.993	-0.6875496	0.3437748	0.1145916	-3.31169724	-0.21772404	-9.63142398
4.98	498	0.006	0.031	-0.992	-0.6302538	0.286479	0.1718874	-3.31742682	-0.21199446	-9.6256944
4.99	499	0.005	0.029	-0.992	-0.572958	0.2291832	0.1718874	-3.3231564	-0.21199446	-9.6256944
5	500	0.005	0.03	-0.99	-0.5156622	0.2291832	0.1718874	-3.2945085	-0.2005353	-9.6256944
5.01	501	0.006	0.029	-0.99	-0.4010706	0.1718874	0.1145916	-3.30023808	-0.2005353	-9.6256944
5.02	502	0.005	0.028	-0.989	-0.286479	0.286479	0.1718874	-3.30023808	-0.19480572	-9.6256944
5.03	503	0.005	0.027	-0.99	-0.2291832	0.286479	0.1145916	-3.30596766	-0.19480572	-9.61996482
5.04	504	0.005	0.027	-0.989	-0.1145916	0.1718874	0.1718874	-3.30596766	-0.19480572	-9.61996482
5.05	505	0.006	0.026	-0.989	-0.1145916	0	0.1718874	-3.21429438	-0.18334656	-9.61996482
5.06	506	0.003	0.025	-0.991	-0.1145916	0.0572958	0.1718874	-3.21429438	-0.18334656	-9.61996482
5.07	507	0.001	0.026	-0.992	-0.1145916	0.2291832	0.1145916	-3.22002396	-0.18334656	-9.61423524
5.08	508	0	0.026	-0.992	-0.0572958	0.2291832	0.0572958	-3.22002396	-0.17761698	-9.61423524
5.09	509	0	0.024	-0.99	0	0.1145916	0	-3.22002396	-0.17761698	-9.61423524
5.1	510	0.004	0.022	-0.992	-0.0572958	0.1145916	0	-3.03094782	-0.16042824	-9.61996482
5.11	511	0.004	0.022	-0.991	-0.286479	-0.0572958	0	-3.03094782	-0.16042824	-9.61996482
5.12	512	0.004	0.023	-0.992	-0.3437748	-0.2291832	0.1145916	-3.0366774	-0.16615782	-9.61996482
5.13	513	0.004	0.024	-0.991	-0.3437748	-0.2291832	0.0572958	-3.04240698	-0.16615782	-9.61996482
5.14	514	0.002	0.025	-0.989	-0.286479	-0.1145916	0.1145916	-3.04240698	-0.16615782	-9.61996482
5.15	515	0.002	0.027	-0.99	-0.3437748	0.0572958	0.1718874	-3.01948866	-0.18334656	-9.61423524
5.16	516	0.001	0.029	-0.991	-0.1145916	0.1718874	0.286479	-3.01948866	-0.18334656	-9.60850566
5.17	517	0	0.028	-0.991	0	0.1718874	0.2291832	-3.01948866	-0.17761698	-9.60850566
5.18	518	0.001	0.027	-0.99	0	0.1145916	0.286479	-3.01948866	-0.17761698	-9.60277608
5.19	519	0.002	0.027	-0.99	-0.0572958	0	0.286479	-3.01948866	-0.17761698	-9.60277608
5.2	520	0.001	0.027	-0.99	0	0.1718874	0.2291832	-3.00229992	-0.18907614	-9.5970465
5.21	521	0.002	0.028	-0.989	0	0.1718874	0.4010706	-3.00229992	-0.18334656	-9.59131692
5.22	522	0	0.028	-0.989	0	0.1145916	0.4010706	-3.00229992	-0.18334656	-9.59131692
5.23	523	-0.001	0.03	-0.988	0.0572958	0.0572958	0.4010706	-3.00229992	-0.18334656	-9.58558734
5.24	524	-0.001	0.029	-0.99	0.0572958	0.1718874	0.4583664	-2.99657034	-0.17761698	-9.57985776
5.25	525	-0.003	0.027	-0.99	-0.0572958	0.2291832	0.4583664	-2.98511118	-0.21199446	-9.5683986
5.26	526	-0.003	0.026	-0.99	-0.1145916	0.4010706	0.4010706	-2.98511118	-0.20626488	-9.5683986
5.27	527	-0.002	0.026	-0.99	-0.1145916	0.4583664	0.0572958	-2.99084076	-0.2005353	-9.56266902
5.28	528	0.001	0.024	-0.99	0	0.5156622	0	-2.99084076	-0.19480572	-9.56266902
5.29	529	0.004	0.024	-0.989	0	0.2291832	-0.2291832	-2.99084076	-0.19480572	-9.5683986
5.3	530	0.007	0.023	-0.988	0	0	-0.3437748	-2.93927454	-0.16042824	-9.57985776
5.31	531	0.009	0.025	-0.988	0	0	-0.286479	-2.93927454	-0.16042824	-9.57985776
5.32	532	0.01	0.025	-0.992	-0.1145916	-0.1145916	-0.3437748	-2.94500412	-0.16042824	-9.58558734
5.33	533	0.009	0.023	-0.991	-0.1145916	-0.286479	-0.2291832	-2.94500412	-0.16615782	-9.58558734
5.34	534	0.009	0.022	-0.99	0	-0.2291832	-0.2291832	-2.94500412	-0.16615782	-9.59131692
5.35	535	0.008	0.022	-0.988	0	-0.1718874	-0.2291832	-2.89916748	-0.1432395	-9.5970465
5.36	536	0.006	0.025	-0.988	0	-0.0572958	-0.286479	-2.89916748	-0.1432395	-9.60277608
5.37	537	0.003	0.024	-0.991	-0.1145916	-0.2291832	-0.2291832	-2.89916748	-0.14896908	-9.60277608
5.38	538	0.002	0.026	-0.993	-0.0572958	-0.572958	-0.2291832	-2.89916748	-0.15469866	-9.60850566
5.39	539	0.001	0.024	-0.992	-0.0572958	-0.5156622	-0.1718874	-2.90489706	-0.16042824	-9.60850566
5.4	540	0.002	0.023	-0.991	-0.286479	-0.3437748	-0.2291832	-2.88197874	-0.1718874	-9.60850566
5.41	541	0.001	0.025	-0.992	-0.4010706	-0.1718874	-0.2291832	-2.88770832	-0.17761698	-9.60850566
5.42	542	-0.002	0.027	-0.989	-0.4010706	-0.3437748	-0.1718874	-2.88770832	-0.17761698	-9.61423524
5.43	543	-0.002	0.028	-0.988	-0.1718874	-0.5156622	-0.1145916	-2.8934379	-0.18334656	-9.61423524
5.44	544	-0.001	0.027	-0.987	0	-0.5156622	-0.0572958	-2.8934379	-0.18907614	-9.61423524
5.45	545	0	0.021	-0.983	-0.572958	-0.3437748	-0.0572958	-2.87624916	-0.2005353	-9.61423524
5.46	546	0.001	0.019	-0.981	-1.3178034	-0.3437748	0	-2.8934379	-0.20626488	-9.61423524
5.47	547	0.004	0.022	-0.98	-1.6042824	-0.5156622	-0.0572958	-2.91062664	-0.21199446	-9.61423524
5.48	548	0.005	0.023	-0.978	-1.3178034	-0.7448454	0	-2.9220858	-0.21772404	-9.61423524
5.49	549	0.001	0.023	-0.982	-1.432395	-0.6875496	-0.0572958	-2.93927454	-0.22345362	-9.61423524
5.5	550	-0.003	0.026	-0.988	-1.4896908	-0.4010706	0	-2.94500412	-0.24637194	-9.61423524
5.51	551	-0.006	0.03	-0.993	-0.9740286	-0.1718874	-0.0572958	-2.95646328	-0.25210152	-9.61423524
5.52	552	-0.005	0.03	-0.996	-0.6875496	0.1145916	-0.1718874	-2.96219286	-0.24637194	-9.61423524
5.53	553	-0.001	0.026	-0.998	-0.4583664	0.286479	-0.2291832	-2.96792244	-0.24637194	-9.61996482
5.54	554	0.003	0.022	-0.998	-0.4583664	0	-0.286479	-2.97365202	-0.24637194	-9.61996482
5.55	555	0.004	0.022	-0.997	-0.5156622	-0.4010706	-0.1145916	-2.96219286	-0.24637194	-9.6256944
5.56	556	0.002	0.025	-0.994	-0.5156622	-0.5156622	-0.0572958	-2.96792244	-0.25210152	-9.6256944
5.57	557	0	0.027	-0.99	-0.5156622	-0.5156622	-0.1145916	-2.97365202	-0.2578311	-9.6256944
5.58	558	0.001	0.03	-0.988	-0.6302538	-0.286479	-0.1718874	-2.9793816	-0.2578311	-9.63142398
5.59	559	0.001	0.03	-0.988	-0.6302538	0	-0.0572958	-2.98511118	-0.2578311	-9.63142398
5.6	560	0.002	0.031	-0.988	-0.572958	0.1145916	-0.1145916	-2.99084076	-0.2578311	-9.63142398
5.61	561	0.002	0.032	-0.987	-0.5156622	0.1145916	-0.1718874	-2.99657034	-0.2578311	-9.63142398
5.62	562	0.002	0.032	-0.989	-0.4010706	0.0572958	-0.2291832	-3.00229992	-0.2578311	-9.63715356
5.63	563	0.003	0.03	-0.989	-0.286479	0.1718874	-0.2291832	-3.0080295	-0.25210152	-9.63715356
5.64	564	0.004	0.027	-0.99	-0.1145916	0.2291832	-0.1718874	-3.0080295	-0.25210152	-9.64288314
5.65	565	0.005	0.027	-0.992	0.0572958	0.2291832	-0.1718874	-2.98511118	-0.23491278	-9.64288314
5.66	566	0.006	0.025	-0.991	0.1145916	0.2291832	-0.1718874	-2.98511118	-0.23491278	-9.64861272
5.67	567	0.007	0.025	-0.993	0.286479	0	-0.1145916	-2.9793816	-0.23491278	-9.64861272
5.68	568	0.006	0.023	-0.994	0.286479	0	-0.1718874	-2.9793816	-0.23491278	-9.64861272
5.69	569	0.004	0.022	-0.997	0.2291832	0	-0.1145916	-2.97365202	-0.23491278	-9.6543423
5.7	570	0.005	0.022	-0.996	0.4010706	-0.0572958	-0.1145916	-2.92781538	-0.22345362	-9.6543423
5.71	571	0.006	0.019	-0.993	0.3437748	-0.286479	-0.1718874	-2.92781538	-0.2291832	-9.66007188
5.72	572	0.006	0.018	-0.991	0.1145916	-0.5156622	-0.0572958	-2.9220858	-0.23491278	-9.66007188
5.73	573	0.005	0.019	-0.991	0	-0.8021412	0	-2.92781538	-0.24064236	-9.66007188
5.74	574	0.002	0.022	-0.989	-0.286479	-0.859437	-0.0572958	-2.92781538	-0.25210152	-9.66007188
5.75	575	0	0.024	-0.989	-0.2291832	-0.6875496	-0.0572958	-2.91635622	-0.26929026	-9.66007188
5.76	576	0.001	0.025	-0.988	-0.1718874	-0.572958	0.0572958	-2.91635622	-0.27501984	-9.66007188
5.77	577	0	0.027	-0.989	-0.1145916	-0.6875496	0.1718874	-2.9220858	-0.28074942	-9.6543423
5.78	578	-0.002	0.028	-0.988	-0.1145916	-0.6302538	0.1718874	-2.9220858	-0.286479	-9.6543423
5.79	579	-0.004	0.028	-0.987	0	-0.572958	0.2291832	-2.9220858	-0.29220858	-9.64861272
5.8	580	-0.006	0.03	-0.988	0.0572958	-0.4010706	0.1718874	-2.9220858	-0.32658606	-9.64288314
5.81	581	-0.004	0.029	-0.987	0.1718874	-0.2291832	0.1145916	-2.9220858	-0.33231564	-9.64288314
5.82	582	0	0.028	-0.99	0.2291832	-0.1145916	0.1145916	-2.91635622	-0.33231564	-9.64288314
5.83	583	0.001	0.027	-0.989	0.1718874	-0.2291832	0.1145916	-2.91635622	-0.33231564	-9.64288314
5.84	584	0	0.026	-0.989	0.2291832	-0.1718874	0.1145916	-2.91062664	-0.33804522	-9.63715356
5.85	585	-0.002	0.027	-0.989	0.2291832	-0.0572958	0.1145916	-2.88197874	-0.36669312	-9.63142398
5.86	586	-0.005	0.026	-0.988	0.3437748	0.1145916	0.0572958	-2.88197874	-0.36096354	-9.63142398
5.87	587	-0.007	0.026	-0.988	0.286479	0.4010706	0.1145916	-2.87624916	-0.36096354	-9.63142398
5.88	588	-0.008	0.025	-0.99	0.286479	0.572958	0.0572958	-2.87051958	-0.35523396	-9.63142398
5.89	589	-0.007	0.025	-0.992	0.286479	0.5156622	-0.0572958	-2.87051958	-0.34950438	-9.63142398
5.9	590	-0.006	0.026	-0.993	0.2291832	0.4583664	-0.1718874	-2.85906042	-0.36096354	-9.63142398
5.91	591	-0.004	0.024	-0.994	0.1718874	0.3437748	-0.3437748	-2.85906042	-0.36096354	-9.63715356
5.92	592	-0.003	0.024	-0.994	0.1145916	0.4010706	-0.4010706	-2.85333084	-0.35523396	-9.63715356
5.93	593	-0.003	0.026	-0.992	0	0.3437748	-0.4583664	-2.85333084	-0.34950438	-9.64288314
5.94	594	-0.003	0.027	-0.989	-0.4010706	0.6302538	-0.572958	-2.85906042	-0.3437748	-9.64861272
5.95	595	-0.002	0.032	-0.986	-0.859437	1.145916	-0.8021412	-2.87051958	-0.33804522	-9.66007188
5.96	596	-0.001	0.034	-0.989	-1.0886202	1.718874	-0.9167328	-2.88197874	-0.32085648	-9.66580146
5.97	597	0.002	0.031	-0.988	-0.9167328	1.718874	-0.8021412	-2.8934379	-0.30366774	-9.67726062
5.98	598	0.005	0.025	-0.988	-0.5156622	1.3750992	-0.6875496	-2.89916748	-0.29220858	-9.6829902
5.99	599	0.006	0.022	-0.988	-0.286479	1.2032118	-0.6302538	-2.89916748	-0.28074942	-9.68871978
6	600	0.004	0.023	-0.991	-0.0572958	0.859437	-0.5156622	-2.88770832	-0.27501984	-9.69444936
6.01	601	0.001	0.022	-0.993	0.2291832	0.6302538	-0.4010706	-2.88197874	-0.26929026	-9.70017894
6.02	602	0.002	0.022	-0.994	0.572958	0.4583664	-0.2291832	-2.87624916	-0.26356068	-9.70590852
6.03	603	0.003	0.02	-0.993	0.7448454	0.5156622	-0.0572958	-2.87051958	-0.2578311	-9.70590852
6.04	604	0.003	0.02	-0.994	0.7448454	0.9167328	0	-2.85906042	-0.24637194	-9.70590852
6.05	605	0.004	0.024	-0.996	0.6875496	0.8021412	0.0572958	-2.84760126	-0.24064236	-9.70590852
6.06	606	0.003	0.025	-0.996	0.9167328	0.286479	0.1718874	-2.8361421	-0.23491278	-9.70017894
6.07	607	0.001	0.026	-0.999	1.432395	0.0572958	0.286479	-2.81895336	-0.23491278	-9.70017894
6.08	608	0.004	0.024	-0.999	2.3491278	0.4010706	0.286479	-2.79603504	-0.2291832	-9.69444936
6.09	609	0.011	0.021	-0.996	2.6356068	1.2032118	0.2291832	-2.76738714	-0.21772404	-9.69444936
6.1	610	0.019	0.019	-0.994	2.7501984	1.145916	0.2291832	-2.73873924	-0.18907614	-9.69444936
6.11	611	0.027	0.024	-0.989	2.7501984	0.3437748	0.286479	-2.71009134	-0.18334656	-9.69444936
6.12	612	0.03	0.027	-0.985	2.6356068	0.3437748	0.572958	-2.68144344	-0.18334656	-9.68871978
6.13	613	0.024	0.03	-0.985	1.9480572	1.145916	0.572958	-2.6642547	-0.1718874	-9.6829902
6.14	614	0.017	0.035	-0.989	1.3178034	1.6042824	0.6302538	-2.64706596	-0.15469866	-9.67726062
6.15	615	0.017	0.037	-0.995	1.2032118	1.6042824	0.4583664	-2.64706596	-0.12605076	-9.67153104
6.16	616	0.02	0.034	-0.997	1.5469866	1.4896908	0.4010706	-2.62987722	-0.10886202	-9.66580146
6.17	617	0.024	0.03	-0.996	2.005353	1.2605076	0.4010706	-2.61268848	-0.09740286	-9.66580146
6.18	618	0.019	0.03	-0.995	2.291832	0.5156622	0.4583664	-2.58977016	-0.09167328	-9.66007188
6.19	619	0.015	0.027	-0.992	2.4637194	0	0.5156622	-2.56112226	-0.09167328	-9.6543423
6.2	620	0.009	0.025	-0.99	2.8074942	-0.4010706	0.3437748	-2.53247436	-0.09167328	-9.64861272
6.21	621	0.007	0.028	-0.986	3.2085648	-0.1718874	0.2291832	-2.50382646	-0.09167328	-9.64861272
6.22	622	0.01	0.031	-0.982	3.0939732	0.2291832	0.1145916	-2.46944898	-0.09167328	-9.64861272
6.23	623	0.011	0.031	-0.981	2.1772404	-0.5156622	0	-2.44653066	-0.09740286	-9.64861272
