TimeStamp(s)	FrameCounter	AccX	AccY	AccZ	GyrX	GyrY	GyrZ	EulerX	EulerY	EulerZ
0.01	1	0.05	-0.991	-0.116	-1.6615782	1.718874	0.7448454	81.9043461	3.13980984	-19.06231266
0.02	2	0.058	-0.987	-0.115	-2.5210152	1.718874	0.859437	81.8756982	3.12835068	-19.04512392
0.03	3	0.06	-0.985	-0.118	-2.86479	1.3178034	0.9167328	81.8470503	3.1226211	-19.02793518
0.04	4	0.06	-0.983	-0.12	-2.9220858	0.6302538	1.0886202	81.8184024	3.11116194	-19.0222056
0.05	5	0.058	-0.986	-0.119	-2.9220858	0.2291832	1.0886202	81.7897545	3.11116194	-19.0222056
0.06	6	0.055	-0.987	-0.114	-2.8074942	-0.1718874	1.0313244	81.7611066	3.09970278	-19.0222056
0.07	7	0.052	-0.991	-0.112	-2.7501984	-0.572958	0.859437	81.7324587	3.08824362	-19.02793518
0.08	8	0.05	-0.998	-0.108	-2.86479	-0.8021412	0.572958	81.7038108	3.08251404	-19.03366476
0.09	9	0.051	-1.001	-0.11	-3.3231564	-0.8021412	0.3437748	81.66943332	3.07678446	-19.04512392
0.1	10	0.053	-0.999	-0.113	-3.4950438	-1.0886202	0.286479	81.64078542	3.07678446	-19.05658308
0.11	11	0.054	-0.997	-0.115	-3.8388186	-1.145916	0.1718874	81.60067836	3.07105488	-19.06804224
0.12	12	0.057	-0.994	-0.117	-4.0680018	-1.0886202	0.2291832	81.55484172	3.07105488	-19.0795014
0.13	13	0.058	-0.99	-0.118	-4.1252976	-1.3178034	0.286479	81.51473466	3.0653253	-19.09096056
0.14	14	0.061	-0.985	-0.122	-4.1252976	-1.2032118	0.3437748	81.46889802	3.05959572	-19.10241972
0.15	15	0.064	-0.979	-0.127	-4.010706	-1.145916	0.572958	81.42879096	3.05959572	-19.11960846
0.16	16	0.065	-0.976	-0.127	-3.7815228	-1.3750992	0.7448454	81.3886839	3.05386614	-19.13106762
0.17	17	0.065	-0.976	-0.132	-3.0366774	-1.4896908	1.0313244	81.35430642	3.04240698	-19.14825636
0.18	18	0.064	-0.976	-0.137	-2.005353	-1.8907614	1.3750992	81.33711768	3.02521824	-19.1654451
0.19	19	0.062	-0.975	-0.137	-0.7448454	-2.86479	1.6042824	81.32565852	3.00229992	-19.18836342
0.2	20	0.064	-0.974	-0.139	0.4583664	-3.6669312	1.432395	81.31992894	2.99657034	-19.22847048
0.21	21	0.067	-0.968	-0.14	1.6615782	-3.8961144	1.0886202	81.33711768	2.98511118	-19.26857754
0.22	22	0.072	-0.962	-0.139	3.151269	-4.297185	0.7448454	81.36576558	2.96792244	-19.3086846
0.23	23	0.073	-0.954	-0.135	4.0680018	-4.6982556	0.286479	81.40587264	2.96219286	-19.35452124
0.24	24	0.077	-0.946	-0.135	4.010706	-4.5263682	0	81.4459797	2.95646328	-19.3946283
0.25	25	0.076	-0.941	-0.138	3.8388186	-4.297185	-0.2291832	81.4746276	2.96792244	-19.44619452
0.26	26	0.073	-0.937	-0.136	4.2398892	-4.1825934	-0.0572958	81.52046424	2.96219286	-19.48630158
0.27	27	0.075	-0.931	-0.133	4.4690724	-4.8128472	0.572958	81.5605713	2.95646328	-19.53213822
0.28	28	0.08	-0.923	-0.127	4.583664	-6.6463128	1.2605076	81.60640794	2.93354496	-19.5951636
0.29	29	0.08	-0.917	-0.121	4.9274388	-10.3705398	1.2032118	81.65224458	2.91062664	-19.69829604
0.3	30	0.073	-0.91	-0.114	5.3285094	-15.183387	0.572958	81.7038108	2.8934379	-19.84726512
0.31	31	0.055	-0.896	-0.104	5.5003968	-19.9962342	-1.145916	81.74964744	2.88197874	-20.04207084
0.32	32	0.028	-0.887	-0.085	4.9274388	-24.5798982	-4.297185	81.7897545	2.8934379	-20.28844278
0.33	33	0	-0.892	-0.067	3.0366774	-28.1322378	-8.6516658	81.81267282	2.9507337	-20.58065136
0.34	34	-0.009	-0.918	-0.047	-0.2291832	-30.1375908	-14.0947668	81.79548408	3.05386614	-20.89577826
0.35	35	-0.008	-0.963	-0.037	-5.8441716	-29.9657034	-20.1681216	81.72672912	3.21429438	-21.21663474
0.36	36	-0.001	-1.036	-0.035	-13.5218088	-28.4760126	-25.0382646	81.57203046	3.42628884	-21.53749122
0.37	37	0.018	-1.107	-0.042	-19.3659804	-25.7258142	-26.4133638	81.36576558	3.64974246	-21.8296998
0.38	38	0.038	-1.179	-0.07	-23.3766864	-22.631841	-25.78311	81.10793448	3.87319608	-22.09326048
0.39	39	0.055	-1.227	-0.104	-25.7258142	-21.6005166	-23.2620948	80.83291464	4.07373138	-22.345362
0.4	40	0.075	-1.227	-0.126	-24.8090814	-22.345362	-20.1108258	80.56935396	4.2398892	-22.59746352
0.41	41	0.096	-1.179	-0.122	-20.2827132	-24.0069402	-16.9595568	80.34590034	4.37166954	-22.8610242
0.42	42	0.11	-1.119	-0.081	-13.750992	-25.210152	-14.0947668	80.1854721	4.47480198	-23.13604404
0.43	43	0.104	-1.079	-0.039	-7.734933	-25.7258142	-11.3445684	80.08806924	4.54355694	-23.4053343
0.44	44	0.083	-1.072	0.011	-4.5263682	-25.3820394	-8.3651868	80.02504386	4.58939358	-23.66889498
0.45	45	0.067	-1.09	0.041	-5.2139178	-23.6058696	-5.5576926	79.97920722	4.60658232	-23.90953734
0.46	46	0.036	-1.107	0.061	-7.1046792	-21.8296998	-2.5210152	79.88753394	4.60085274	-24.12726138
0.47	47	0.008	-1.118	0.07	-9.6829902	-20.05353	0.3437748	79.77867192	4.56647526	-24.32779668
0.48	48	-0.003	-1.124	0.061	-12.3758928	-17.7044022	2.6929026	79.641162	4.50917946	-24.4939545
0.49	49	0.003	-1.124	0.041	-14.6677248	-15.5271618	4.9274388	79.48073376	4.4404245	-24.64292358
0.5	50	0.013	-1.106	0.011	-16.042824	-12.8342592	7.9068204	79.33176468	4.33156248	-24.7517856
0.51	51	0.011	-1.074	-0.017	-16.1001198	-11.45916	11.5737516	79.15987728	4.19978214	-24.84345888
0.52	52	0.022	-1.032	-0.05	-15.0687954	-12.4331886	14.32395	79.00517862	4.0393539	-24.94086174
0.53	53	0.03	-0.993	-0.065	-13.464513	-13.8655836	14.8396122	78.86193912	3.8674665	-25.04972376
0.54	54	0.036	-0.949	-0.051	-11.0007936	-14.5531332	14.1520626	78.74161794	3.70703826	-25.16431536
0.55	55	0.035	-0.906	-0.038	-8.9954406	-14.610429	13.4072172	78.66140382	3.54661002	-25.27890696
0.56	56	0.028	-0.887	-0.032	-8.7089616	-14.4385416	12.4331886	78.56400096	3.40337052	-25.39922814
0.57	57	0.023	-0.877	-0.034	-9.5111028	-14.4385416	11.3445684	78.46086852	3.2658606	-25.51954932
0.58	58	0.016	-0.873	-0.049	-9.9121734	-15.183387	10.1413566	78.35773608	3.13980984	-25.64560008
0.59	59	0.006	-0.876	-0.046	-7.9641162	-15.9282324	8.9381448	78.27179238	3.02521824	-25.78311
0.6	60	0.001	-0.886	-0.033	-5.2139178	-15.469866	8.307891	78.23168532	2.90489706	-25.91489034
0.61	61	0	-0.889	-0.024	-3.3231564	-13.9228794	7.9068204	78.19157826	2.8074942	-26.03521152
0.62	62	0.003	-0.901	-0.015	-1.6042824	-12.4331886	7.6776372	78.17438952	2.71009134	-26.14407354
0.63	63	0.009	-0.914	-0.004	-0.9740286	-11.2872726	7.5630456	78.15720078	2.61268848	-26.23574682
0.64	64	0.014	-0.92	-0.001	-0.9167328	-9.9694692	7.2192708	78.14574162	2.52674478	-26.32169052
0.65	65	0.022	-0.92	-0.006	-0.4010706	-9.3965112	6.589017	78.17438952	2.44080108	-26.39617506
0.66	66	0.033	-0.915	-0.007	0.8021412	-9.5111028	5.443101	78.1801191	2.37204612	-26.47638918
0.67	67	0.044	-0.909	-0.002	2.9793816	-9.5683986	4.0680018	78.208767	2.31475032	-26.56233288
0.68	68	0.054	-0.903	0.002	6.1306506	-9.7975818	2.578311	78.27179238	2.27464326	-26.65400616
0.69	69	0.061	-0.907	0.017	8.1360036	-11.0007936	2.005353	78.3520065	2.24026578	-26.7571386
0.7	70	0.064	-0.912	0.036	8.5370742	-13.0634424	1.6042824	78.4665981	2.2058883	-26.87745978
0.71	71	0.062	-0.914	0.041	8.2505952	-15.469866	1.0886202	78.54681222	2.17151082	-27.02642886
0.72	72	0.059	-0.914	0.041	7.9641162	-17.5325148	0.6302538	78.62702634	2.13713334	-27.19258668
0.73	73	0.055	-0.918	0.046	8.307891	-18.5065434	0.0572958	78.70724046	2.10275586	-27.37593324
0.74	74	0.045	-0.925	0.049	9.2819196	-18.8503182	0	78.79318416	2.07410796	-27.5592798
0.75	75	0.028	-0.943	0.065	11.0580894	-19.480572	0.3437748	78.93642366	2.0340009	-27.74262636
0.76	76	0.001	-0.977	0.081	11.45916	-18.7930224	0.9167328	79.05101526	1.99962342	-27.92597292
0.77	77	-0.024	-1.007	0.084	11.0580894	-17.4179232	1.2605076	79.15987728	1.95951636	-28.09213074
0.78	78	-0.048	-1.035	0.101	10.313244	-15.8709366	1.432395	79.25728014	1.9194093	-28.24109982
0.79	79	-0.065	-1.058	0.115	8.9381448	-13.9801752	1.7761698	79.34895342	1.88503182	-28.37288016
0.8	80	-0.091	-1.081	0.091	6.589017	-11.2872726	2.005353	79.45781544	1.81627686	-28.46455344
0.81	81	-0.121	-1.1	0.082	6.2452422	-9.3392154	2.6356068	79.52084082	1.7761698	-28.55049714
0.82	82	-0.141	-1.13	0.095	5.72958	-5.7868758	3.3231564	79.57813662	1.73606274	-28.60206336
0.83	83	-0.153	-1.149	0.115	4.870143	-0.7448454	3.0939732	79.62970284	1.70168526	-28.60206336
0.84	84	-0.15	-1.18	0.143	5.0420304	3.4950438	2.578311	79.68126906	1.68449652	-28.5619563
0.85	85	-0.123	-1.216	0.156	4.5263682	6.5317212	1.9480572	79.76148318	1.6615782	-28.48747176
0.86	86	-0.084	-1.22	0.14	4.2398892	9.167328	0.7448454	79.80159024	1.66730778	-28.39579848
0.87	87	-0.054	-1.206	0.131	5.7868758	10.8289062	-0.2291832	79.86461562	1.6902261	-28.29266604
0.88	88	-0.021	-1.196	0.126	6.0733548	11.745639	-0.2291832	79.927641	1.70741484	-28.17807444
0.89	89	0.024	-1.199	0.106	6.7036086	11.0580894	1.4896908	79.99639596	1.70741484	-28.06348284
0.9	90	0.075	-1.257	-0.02	1.718874	8.4797784	5.5003968	80.02504386	1.67303736	-27.97180956
0.91	91	0.095	-1.308	-0.112	4.5263682	1.145916	10.7716104	80.0708805	1.56990492	-27.94316166
0.92	92	0.134	-1.319	-0.146	10.599723	-5.156622	14.610429	80.17974252	1.42093584	-27.96607998
0.93	93	0.157	-1.289	-0.113	16.329303	-9.740286	15.3552744	80.34590034	1.25477802	-28.03483494
0.94	94	0.12	-1.248	-0.037	22.345362	-14.4385416	13.9228794	80.57508354	1.10007936	-28.15515612
0.95	95	0.025	-1.207	0.013	25.0955604	-17.761698	11.0580894	80.83864422	0.96829902	-28.3041252
0.96	96	-0.084	-1.206	0.018	24.4653066	-16.5584862	7.9068204	81.08501616	0.87662574	-28.45309428
0.97	97	-0.173	-1.205	-0.032	19.0222056	-11.0007936	5.2139178	81.27982188	0.80787078	-28.55049714
0.98	98	-0.231	-1.179	-0.107	15.2406828	1.6042824	3.2085648	81.43452054	0.77922288	-28.52757882
0.99	99	-0.239	-1.167	-0.166	10.026765	18.3919518	2.9220858	81.53765298	0.7734933	-28.34423226
1	100	-0.191	-1.155	-0.222	1.6615782	32.6013102	4.6409598	81.54911214	0.75630456	-28.01191662
1.01	101	-0.092	-1.11	-0.29	-6.6463128	41.5967508	6.4171296	81.48035718	0.73911582	-27.59365728
1.02	102	0.033	-1.027	-0.345	-11.2299768	52.3110654	8.1932994	81.36576558	0.72192708	-27.0722655
1.03	103	0.104	-0.962	-0.375	-14.2093584	59.014674	10.313244	81.22252608	0.69327918	-26.47638918
1.04	104	0.092	-0.925	-0.347	-17.3033316	60.6762522	12.5477802	81.0449091	0.64171296	-25.8690537
1.05	105	0.052	-0.92	-0.315	-18.4492476	58.6708992	14.1520626	80.8443738	0.57868758	-25.27317738
1.06	106	0.012	-0.941	-0.278	-18.4492476	55.1758554	14.1520626	80.65529766	0.50993262	-24.71167854
1.07	107	0.008	-0.985	-0.253	-16.615782	51.279741	11.2872726	80.48913984	0.46982556	-24.19028676
1.08	108	0.034	-1.043	-0.229	-12.7769634	45.9512316	5.443101	80.35162992	0.47555514	-23.73192036
1.09	109	0.063	-1.085	-0.212	-8.7662574	40.8519054	-0.6875496	80.25995664	0.53858052	-23.33657934
1.1	110	0.098	-1.105	-0.189	-5.3285094	36.4974246	-7.0473834	80.20839042	0.67036086	-22.99280454
1.11	111	0.138	-1.088	-0.168	-3.3231564	33.5753388	-12.8342592	80.16828336	0.84224826	-22.6891368
1.12	112	0.156	-1.052	-0.138	-2.4064236	30.653253	-17.0168526	80.14536504	1.04851314	-22.41411696
1.13	113	0.144	-1.013	-0.109	-1.9480572	27.4446882	-19.3659804	80.1281763	1.27769634	-22.17920418
1.14	114	0.124	-0.983	-0.077	-1.6615782	24.2361234	-19.9389384	80.11098756	1.51260912	-21.97866888
1.15	115	0.097	-0.965	-0.078	-1.4896908	21.1421502	-19.6524594	80.10525798	1.74179232	-21.80678148
1.16	116	0.075	-0.961	-0.06	-1.3178034	19.194093	-19.0222056	80.09379882	1.95378678	-21.64635324
1.17	117	0.054	-0.936	-0.051	-1.7761698	18.1054728	-18.1054728	80.07661008	2.16005166	-21.50311374
1.18	118	0.028	-0.911	-0.056	-2.005353	16.7303736	-17.0741484	80.05942134	2.3491278	-21.36560382
1.19	119	0.005	-0.878	-0.06	-3.0939732	16.2147114	-16.5584862	80.03077344	2.53247436	-21.23955306
1.2	120	-0.002	-0.855	-0.069	-2.86479	16.1001198	-16.4438946	80.0135847	2.71582092	-21.10777272
1.21	121	0.006	-0.825	-0.072	-2.291832	16.7876694	-17.0168526	79.99066638	2.90489706	-20.9702628
1.22	122	0.024	-0.786	-0.054	-1.0313244	18.2200644	-17.9335854	79.9849368	3.10543236	-20.82129372
1.23	123	0.05	-0.764	-0.033	0.2291832	19.0222056	-18.3919518	79.99639596	3.31742682	-20.66659506
1.24	124	0.076	-0.751	-0.02	-0.0572958	18.4492476	-17.6471064	80.00212554	3.51223254	-20.51762598
1.25	125	0.1	-0.733	-0.036	-1.6615782	18.3919518	-15.5844576	79.99639596	3.70130868	-20.36292732
1.26	126	0.123	-0.725	-0.045	-0.9740286	18.4492476	-13.4072172	79.99639596	3.85600734	-20.20822866
1.27	127	0.147	-0.725	-0.032	-0.6302538	16.615782	-11.1153852	79.99639596	3.99351726	-20.06498916
1.28	128	0.171	-0.732	-0.013	0.4583664	13.5218088	-8.880849	80.00785512	4.0966497	-19.94466798
1.29	129	0.174	-0.745	-0.024	1.0313244	10.599723	-6.9327918	80.02504386	4.1825934	-19.8529947
1.3	130	0.159	-0.768	-0.042	2.8074942	7.6776372	-5.2712136	80.06515092	4.26280752	-19.78996932
1.31	131	0.142	-0.785	-0.033	4.9274388	4.1252976	-3.8388186	80.11671714	4.30291458	-19.75559184
1.32	132	0.127	-0.8	-0.016	7.5057498	0.3437748	-3.151269	80.19693126	4.33729206	-19.75559184
1.33	133	0.124	-0.822	-0.015	9.453807	-1.3178034	-2.7501984	80.28860454	4.36593996	-19.77278058
1.34	134	0.136	-0.858	-0.06	10.0840608	-2.3491278	-1.6615782	80.39173698	4.37739912	-19.7956989
1.35	135	0.148	-0.877	-0.078	10.1413566	-4.7555514	0.3437748	80.500599	4.38885828	-19.84726512
1.36	136	0.139	-0.88	-0.038	13.1207382	-8.1932994	2.5210152	80.63237934	4.3544808	-19.92174966
1.37	137	0.135	-0.909	0.005	16.615782	-10.6570188	3.437748	80.79280758	4.30864416	-20.0248821
1.38	138	0.152	-0.96	-0.007	16.902261	-11.6310474	3.437748	80.9589654	4.26280752	-20.12801454
1.39	139	0.167	-1	0	18.4492476	-12.318597	3.0366774	81.14231196	4.21697088	-20.24260614
1.4	140	0.143	-1.034	0.045	22.7464326	-13.2926256	2.291832	81.3886839	4.18832298	-20.3686569
1.41	141	0.103	-1.049	0.102	26.4706596	-13.9228794	1.718874	81.646515	4.15967508	-20.50043724
1.42	142	0.069	-1.051	0.154	27.9030546	-14.6677248	1.8907614	81.92726442	4.1252976	-20.64367674
1.43	143	0.063	-1.059	0.201	28.4187168	-15.2979786	2.9793816	82.20801384	4.07946096	-20.78691624
1.44	144	0.091	-1.081	0.194	26.929026	-16.7876694	4.6982556	82.47157452	4.02216516	-20.9416149
1.45	145	0.128	-1.093	0.168	29.220858	-20.05353	7.448454	82.77524226	3.93622146	-21.13069104
1.46	146	0.137	-1.113	0.177	32.2575354	-30.2521824	11.2872726	83.09036916	3.79871154	-21.41144046
1.47	147	0.081	-1.192	-0.014	20.626488	-46.7533728	12.4331886	83.27371572	3.63255372	-21.8583477
1.48	148	0.082	-1.223	-0.243	29.3927454	-48.70143	8.7089616	83.55446514	3.50650296	-22.32244368
1.49	149	0.084	-1.524	-0.407	15.8136408	-40.680018	-1.0886202	83.69197506	3.48931422	-22.72351428
1.5	150	0.034	-1.62	-0.525	10.026765	-35.1796212	-12.605076	83.77791876	3.58671708	-23.08447782
1.51	151	-0.099	-1.615	-0.555	13.750992	-33.3461556	-19.480572	83.89823994	3.7528749	-23.4339822
1.52	152	-0.172	-1.358	-0.312	29.793816	-48.8733174	-15.756345	84.17325978	3.87319608	-23.92672608
1.53	153	-0.079	-1.162	-0.247	24.2361234	-56.149884	-11.9175264	84.38525424	3.9534102	-24.4939545
1.54	154	0.09	-0.981	-0.45	10.3705398	-61.020027	-13.2353298	84.45973878	4.04508348	-25.10701956
1.55	155	0.221	-0.961	-0.392	4.010706	-62.3951262	-17.5898106	84.44827962	4.18832298	-25.74873252
1.56	156	0.3	-1.069	-0.297	-2.3491278	-59.6449278	-19.7097552	84.38525424	4.34302164	-26.356068
1.57	157	0.297	-1.142	-0.268	-11.3445684	-57.5249832	-20.1108258	84.23055558	4.4977203	-26.94621474
1.58	158	0.25	-1.245	-0.268	-16.2720072	-57.0666168	-18.048177	84.0242907	4.63523022	-27.5306319
1.59	159	0.195	-1.324	-0.289	-20.6837838	-54.6028974	-12.318597	83.77791876	4.70971476	-28.08067158
1.6	160	0.124	-1.333	-0.255	-18.1627686	-51.279741	-2.1772404	83.55446514	4.68679644	-28.59633378
1.61	161	0.058	-1.293	-0.218	-15.1260912	-47.7274014	7.1046792	83.37111858	4.57793442	-29.06042976
1.62	162	-0.025	-1.194	-0.175	-13.8082878	-45.4928652	14.4958374	83.20496076	4.39458786	-29.49587784
1.63	163	-0.078	-1.05	-0.154	-16.1001198	-42.3415962	17.9908812	83.01588462	4.17686382	-29.89121886
1.64	164	-0.066	-0.933	-0.154	-18.334656	-39.0757356	18.5065434	82.80961974	3.9534102	-30.25791198
1.65	165	-0.055	-0.859	-0.125	-18.048177	-37.1849742	17.6471064	82.60335486	3.72995658	-30.60168678
1.66	166	-0.047	-0.81	-0.085	-17.6471064	-34.1482968	15.6990492	82.40854914	3.54088044	-30.92254326
1.67	167	-0.044	-0.779	-0.052	-17.5325148	-30.1948866	14.2093584	82.219473	3.36899304	-31.20329268
1.68	168	-0.041	-0.745	-0.032	-17.7044022	-25.8977016	13.6936962	82.03039686	3.20283522	-31.44393504
1.69	169	-0.028	-0.713	-0.047	-17.4179232	-21.772404	14.896908	81.8470503	3.03094782	-31.63874076
1.7	170	-0.048	-0.678	-0.059	-16.042824	-17.761698	16.902261	81.68089248	2.8361421	-31.78770984
1.71	171	-0.061	-0.667	-0.034	-13.6936962	-11.6310474	18.3919518	81.53765298	2.64133638	-31.87938312
1.72	172	-0.078	-0.675	-0.007	-12.4331886	-4.297185	19.2513888	81.41160222	2.44080108	-31.89657186
1.73	173	-0.093	-0.674	-0.01	-13.0634424	2.8074942	19.9389384	81.27982188	2.25172494	-31.83927606
1.74	174	-0.115	-0.697	-0.021	-14.1520626	8.6516658	20.7983754	81.13658238	2.05691922	-31.72468446
1.75	175	-0.123	-0.732	-0.035	-15.9282324	14.037471	20.2827132	80.9876133	1.85638392	-31.55279706
1.76	176	-0.149	-0.774	-0.064	-17.9335854	19.2513888	18.5638392	80.80999632	1.69595568	-31.33507302
1.77	177	-0.176	-0.815	-0.073	-19.1367972	24.5798982	16.1001198	80.6151906	1.56990492	-31.07151234
1.78	178	-0.189	-0.869	-0.077	-18.621135	29.7365202	13.3499214	80.43184404	1.47823164	-30.76211502
1.79	179	-0.155	-0.901	-0.082	-16.5584862	35.5806918	9.740286	80.2714158	1.432395	-30.3954219
1.8	180	-0.059	-0.923	-0.072	-11.2299768	40.5654264	6.7036086	80.16828336	1.41520626	-29.98862172
1.81	181	0.033	-0.926	-0.023	-3.437748	42.2270046	4.7555514	80.13963546	1.42666542	-29.5646328
1.82	182	0.119	-0.935	0.027	3.7815228	39.8778768	5.2139178	80.17974252	1.432395	-29.16929178
1.83	183	0.174	-0.953	0.054	9.2819196	33.7472262	7.5057498	80.27714538	1.40947668	-28.82551698
1.84	184	0.198	-0.98	0.086	15.0687954	26.0122932	9.5111028	80.43757362	1.35218088	-28.55049714
1.85	185	0.166	-0.993	0.129	20.2254174	18.5065434	9.9121734	80.67821598	1.30061466	-28.35569142
1.86	186	0.095	-0.997	0.16	24.1215318	13.6936962	8.9954406	80.92458792	1.2318597	-28.20672234
1.87	187	0.014	-0.996	0.193	26.4133638	11.2872726	7.9641162	81.19387818	1.16883432	-28.08067158
1.88	188	-0.064	-1.025	0.227	25.6685184	12.1467096	6.2452422	81.45170928	1.12299768	-27.94889124
1.89	189	-0.124	-1.057	0.226	21.485925	16.9595568	3.8961144	81.6751629	1.10580894	-27.77127426
1.9	190	-0.15	-1.109	0.225	19.0795014	23.204799	1.0313244	81.89861652	1.11153852	-27.53636148
1.91	191	-0.152	-1.164	0.225	15.756345	31.2835068	-2.0626488	82.06477434	1.16883432	-27.22696416
1.92	192	-0.12	-1.204	0.187	10.4851314	38.9038482	-5.0993262	82.17363636	1.2605076	-26.84881188
1.93	193	-0.082	-1.225	0.119	4.6409598	43.4302164	-7.161975	82.22520258	1.3750992	-26.43055254
1.94	194	0.009	-1.244	-0.008	-2.005353	43.7166954	-7.9641162	82.20801384	1.50114996	-26.0122932
1.95	195	0.113	-1.274	-0.141	-6.0733548	41.8832298	-7.8495246	82.15071804	1.62720072	-25.61695218
1.96	196	0.192	-1.34	-0.221	-3.151269	38.5027776	-7.2765666	82.12207014	1.74179232	-25.24452948
1.97	197	0.211	-1.398	-0.252	1.5469866	35.7525792	-6.0733548	82.14498846	1.83919518	-24.90075468
1.98	198	0.16	-1.383	-0.28	3.0366774	32.0283522	-4.870143	82.17936594	1.92513888	-24.59135736
1.99	199	0.067	-1.307	-0.318	1.8907614	29.8511118	-2.9793816	82.20801384	1.98816426	-24.30487836
2	200	-0.044	-1.227	-0.397	0.4010706	34.1482968	-0.0572958	82.20228426	2.01681216	-23.96683314
2.01	201	-0.095	-1.137	-0.446	-4.7555514	46.6387812	4.870143	82.1621772	2.01681216	-23.50273716
2.02	202	-0.047	-1.051	-0.484	-12.318597	62.738901	11.45916	82.05331518	1.97097552	-22.87248336
2.03	203	-0.017	-0.994	-0.51	-20.5691922	70.473834	15.0687954	81.85850946	1.90222056	-22.15628586
2.04	204	-0.035	-0.916	-0.488	-25.2674478	74.2553568	14.32395	81.61213752	1.83919518	-21.41144046
2.05	205	-0.084	-0.885	-0.418	-26.069589	79.2400914	11.2299768	81.34857684	1.81627686	-20.61502884
2.06	206	-0.114	-0.917	-0.345	-26.8144344	80.0995284	7.6203414	81.09074574	1.83919518	-19.8243468
2.07	207	-0.076	-0.997	-0.309	-28.1895336	76.7190762	3.6096354	80.82145548	1.89649098	-19.06804224
2.08	208	-0.009	-1.09	-0.294	-28.3041252	71.333271	-1.2605076	80.54643564	1.99962342	-18.37476306
2.09	209	0.068	-1.182	-0.262	-27.4446882	63.9994086	-7.2765666	80.28287496	2.16005166	-17.761698
2.1	210	0.16	-1.232	-0.225	-27.215505	56.2644756	-13.6364004	80.01931428	2.3777757	-17.23457664
2.11	211	0.225	-1.219	-0.218	-28.4760126	48.9306132	-19.480572	79.73856486	2.6356068	-16.79339898
2.12	212	0.263	-1.164	-0.203	-30.4813656	44.0031744	-23.3766864	79.44635628	2.92781538	-16.40951712
2.13	213	0.262	-1.099	-0.203	-32.7159018	40.5081306	-25.1528562	79.1254998	3.23148312	-16.06001274
2.14	214	0.228	-1.032	-0.194	-34.5493674	37.5860448	-25.6685184	78.78745458	3.54088044	-15.74488584
2.15	215	0.178	-0.989	-0.187	-34.4347758	35.6379876	-25.3820394	78.44940936	3.85027776	-15.45267726
2.16	216	0.146	-0.957	-0.155	-34.8358464	34.6066632	-25.2674478	78.11136414	4.1539455	-15.16619826
2.17	217	0.113	-0.929	-0.139	-35.4661002	33.6899304	-24.6944898	77.76758934	4.45188366	-14.89117842
2.18	218	0.049	-0.895	-0.162	-38.2735944	33.4607472	-23.491278	77.39516664	4.73836266	-14.62188816
2.19	219	0.023	-0.866	-0.172	-39.7059894	31.799169	-22.058883	77.01128478	5.00765292	-14.36405706
2.2	220	0.027	-0.838	-0.172	-40.2789474	28.8197874	-21.6578124	76.61594376	5.2712136	-14.13487386
2.21	221	0.063	-0.822	-0.165	-39.7632852	26.8144344	-22.5745452	76.22633232	5.54050386	-13.92860898
2.22	222	0.103	-0.796	-0.156	-40.7373138	24.5226024	-24.064236	75.8309913	5.8155237	-13.750992
2.23	223	0.151	-0.767	-0.148	-40.2789474	20.8556712	-25.78311	75.4299207	6.10773228	-13.61348208
2.24	224	0.202	-0.755	-0.147	-40.4508348	16.1574156	-26.929026	75.02312052	6.39994086	-13.53326796
2.25	225	0.207	-0.757	-0.145	-41.0237928	11.0580894	-27.4446882	74.61632034	6.69214944	-13.49889048
2.26	226	0.208	-0.765	-0.15	-41.7686382	7.5057498	-27.6165756	74.18660184	6.97289886	-13.50462006
2.27	227	0.205	-0.78	-0.139	-41.5967508	5.9014674	-27.1582092	73.76261292	7.24218912	-13.52753838
2.28	228	0.207	-0.8	-0.119	-41.1956802	3.151269	-26.4706596	73.338624	7.49429064	-13.57337502
2.29	229	0.194	-0.811	-0.097	-40.4508348	1.432395	-25.7258142	72.91463508	7.74066258	-13.6364004
2.3	230	0.19	-0.823	-0.1	-40.8519054	0.0572958	-23.7204612	72.50210532	7.96984578	-13.71088494
2.31	231	0.176	-0.823	-0.126	-40.393539	-2.1199446	-22.2307704	72.0781164	8.17038108	-13.80255822
2.32	232	0.175	-0.81	-0.129	-38.0444112	-4.297185	-20.6837838	71.6770458	8.34799806	-13.91142024
2.33	233	0.173	-0.788	-0.116	-35.6952834	-7.2192708	-18.1627686	71.29889352	8.49696714	-14.04320058
2.34	234	0.158	-0.775	-0.127	-33.518043	-11.4018642	-15.5844576	70.9322004	8.60582916	-14.20362882
2.35	235	0.148	-0.765	-0.126	-31.799169	-15.3552744	-11.5164558	70.59415518	8.66885454	-14.39270496
2.36	236	0.137	-0.783	-0.119	-30.9970278	-19.7097552	-7.3911582	70.25038038	8.67458412	-14.60469942
2.37	237	0.141	-0.803	-0.124	-31.9710564	-24.4653066	-4.0680018	69.88941684	8.62874748	-14.85107136
2.38	238	0.173	-0.798	-0.103	-31.799169	-29.793816	-1.3178034	69.5284533	8.54280378	-15.14327994
2.39	239	0.206	-0.786	-0.099	-30.1375908	-38.4454818	0.7448454	69.17321934	8.41102344	-15.50424348
2.4	240	0.245	-0.763	-0.129	-27.788463	-50.5348956	2.4637194	68.8409037	8.23340646	-15.97979862
2.41	241	0.299	-0.724	-0.096	-21.772404	-66.0047616	4.1252976	68.54296554	7.96984578	-16.5871341
2.42	242	0.35	-0.709	0.018	-13.0061466	-85.370742	4.7555514	68.31378234	7.63753014	-17.37208656
2.43	243	0.382	-0.738	0.024	-9.0527364	-108.2317662	4.583664	68.10751746	7.2192708	-18.36903348
2.44	244	0.364	-0.794	-0.127	-12.6623718	-129.0874374	4.7555514	67.85541594	6.7322565	-19.55505654
2.45	245	0.314	-0.891	-0.253	-16.1001198	-134.931609	2.6356068	67.56893694	6.23951262	-20.80410498
2.46	246	0.252	-1.075	-0.273	-26.2987722	-126.4518306	-1.718874	67.19651424	5.80406454	-21.98439846
2.47	247	0.194	-1.224	-0.26	-45.0344988	-110.007936	-3.3804522	66.65220414	5.43737142	-23.02145244
2.48	248	0.104	-1.275	-0.244	-59.7595194	-99.0644382	0.859437	65.9761137	5.05348956	-23.93245566
2.49	249	-0.044	-1.25	-0.313	-69.614397	-98.1477054	8.4797784	65.20834998	4.58939358	-24.79762224
2.5	250	-0.187	-1.213	-0.446	-75.630456	-94.6526616	15.183387	64.39474962	4.06227222	-25.59976344
2.51	251	-0.267	-1.253	-0.55	-86.516658	-85.5426294	18.9649098	63.4837464	3.52942128	-26.29304262
2.52	252	-0.328	-1.311	-0.618	-102.6167778	-79.5838662	20.7983754	62.41804452	2.99657034	-26.91756684
2.53	253	-0.334	-1.336	-0.613	-115.9666992	-73.5105114	22.0015872	61.22629188	2.4637194	-27.4733361
2.54	254	-0.309	-1.306	-0.631	-125.0194356	-73.7969904	23.0902074	59.94286596	1.90795014	-28.01191662
2.55	255	-0.261	-1.253	-0.633	-123.1286742	-76.1461182	20.7983754	58.68808794	1.34072172	-28.57341546
2.56	256	-0.167	-1.294	-0.553	-121.467096	-71.3905668	16.042824	57.45622824	0.83651868	-29.1062664
2.57	257	-0.005	-1.324	-0.532	-132.7543686	-61.4210976	12.9488508	56.11550652	0.38961144	-29.55890322
2.58	258	0.089	-1.316	-0.573	-140.5465974	-56.8374336	15.8709366	54.69457068	-0.0572958	-29.94851466
2.59	259	0.042	-1.255	-0.52	-149.1409674	-50.8213746	24.064236	53.18769114	-0.55576926	-30.22926408
2.6	260	-0.081	-1.151	-0.478	-152.3495322	-43.7166954	33.6899304	51.65789328	-1.10007936	-30.37823316
2.61	261	-0.223	-1.07	-0.403	-153.3235608	-30.8251404	43.1437374	50.1051771	-1.63865988	-30.36104442
2.62	262	-0.346	-0.972	-0.316	-155.271618	-15.4125702	49.7900502	48.52381302	-2.13140376	-30.16050912
2.63	263	-0.414	-0.877	-0.281	-157.0477878	1.5469866	53.0559108	46.91953062	-2.53247436	-29.79954558
2.64	264	-0.425	-0.772	-0.261	-155.7299844	19.0222056	52.6548402	45.31524822	-2.8074942	-29.30107212
2.65	265	-0.367	-0.698	-0.27	-152.6360112	31.2835068	49.4462754	43.73961372	-2.96792244	-28.7338437
2.66	266	-0.239	-0.665	-0.295	-148.682601	38.101707	45.3782736	42.1983567	-3.02521824	-28.13796738
2.67	267	-0.091	-0.662	-0.308	-143.8697538	41.4248634	40.6227222	40.70293632	-3.01375908	-27.5592798
2.68	268	0.024	-0.652	-0.284	-138.9996108	42.1697088	36.5547204	39.25908216	-2.95646328	-27.00924012
2.69	269	0.071	-0.608	-0.288	-133.9575804	39.0184398	33.3461556	37.86679422	-2.88770832	-26.4993075
2.7	270	0.06	-0.549	-0.261	-127.196676	35.6379876	30.8824362	36.56044998	-2.81322378	-26.03521152
2.71	271	0.019	-0.479	-0.16	-121.6389834	35.1223254	29.3927454	35.29994238	-2.72728008	-25.58830428
2.72	272	-0.018	-0.387	-0.147	-114.5916	33.6899304	28.1895336	34.11391932	-2.6356068	-25.15858578
2.73	273	-0.037	-0.302	-0.137	-107.0285544	33.231564	25.496631	33.0023808	-2.5210152	-24.75751518
2.74	274	0.018	-0.272	-0.099	-101.1843828	32.8877892	22.4599536	31.95386766	-2.38923486	-24.39082206
2.75	275	0.092	-0.278	-0.153	-95.970465	27.6738714	19.7097552	30.97410948	-2.26891368	-24.07569516
2.76	276	0.191	-0.318	-0.196	-91.6159842	23.4339822	17.0168526	30.02872878	-2.17151082	-23.80067532
2.77	277	0.302	-0.353	-0.162	-89.6106312	18.4492476	13.8655836	29.11199598	-2.09702628	-23.58868086
2.78	278	0.379	-0.369	-0.101	-89.5533354	11.6310474	11.172681	28.19526318	-2.0626488	-23.42825262
2.79	279	0.372	-0.344	-0.128	-87.0323202	0.7448454	9.9694692	27.30717828	-2.11421502	-23.33657934
2.8	280	0.327	-0.312	-0.112	-85.5426294	-11.172681	10.3705398	26.44774128	-2.25172494	-23.30220186
2.81	281	0.279	-0.243	-0.089	-84.1102344	-19.8243468	11.5164558	25.59976344	-2.48663772	-23.28501312
2.82	282	0.211	-0.166	0.019	-80.0422326	-26.4706596	11.1153852	24.79189266	-2.7788463	-23.30220186
2.83	283	0.206	-0.08	-0.006	-72.9948492	-35.523396	10.9434978	24.05850642	-3.151269	-23.35376808
2.84	284	0.232	0.053	0.123	-69.614397	-49.6181628	9.740286	23.36522724	-3.64401288	-23.47408926
2.85	285	0.213	0.157	0.165	-68.0101146	-62.165943	2.5210152	22.6891368	-4.2112413	-23.70900204
2.86	286	0.181	0.225	0.188	-71.5624542	-70.1300592	-3.437748	21.99585762	-4.8414951	-24.01839936
2.87	287	0.123	0.278	0.127	-76.7190762	-74.7137232	-5.0993262	21.26247138	-5.51185596	-24.35644458
2.88	288	0.11	0.305	0.02	-78.8963166	-80.0422326	-6.4744254	20.50616682	-6.22805346	-24.71740812
2.89	289	0.09	0.236	-0.083	-81.9902898	-84.8550798	-7.734933	19.72694394	-6.99581718	-25.10128998
2.9	290	-0.053	0.105	-0.249	-90.9284346	-94.7672532	-5.7868758	18.86177736	-7.86671334	-25.49090142
2.91	291	-0.189	0.039	-0.468	-104.851314	-116.7688404	2.0626488	17.87056002	-8.97252228	-25.86332412
2.92	292	-0.219	0.096	-0.622	-113.5602756	-139.228794	12.5477802	16.7876694	-10.32470316	-26.18991018
2.93	293	-0.157	0.123	-0.558	-115.0499664	-152.8651944	17.6471064	15.6990492	-11.8315827	-26.48211876
2.94	294	-0.082	-0.003	-0.283	-114.7634874	-156.131055	16.2147114	14.61615858	-13.36711014	-26.77432734
2.95	295	-0.085	-0.147	-0.128	-116.4250656	-150.2868834	11.45916	13.53326796	-14.84534178	-27.0722655
2.96	296	-0.128	-0.285	-0.096	-126.2226474	-143.5832748	7.734933	12.35297448	-16.24908888	-27.35301492
2.97	297	-0.144	-0.344	-0.069	-148.2242346	-151.7192784	7.6776372	10.9434978	-17.74450926	-27.62803476
2.98	298	-0.112	-0.193	-0.062	-164.6108334	-161.4022686	15.4125702	9.35067456	-19.35452124	-27.79992216
2.99	299	-0.144	-0.114	-0.037	-158.3655912	-154.2402936	27.788463	7.75785132	-20.91869658	-27.78273342
3	300	-0.182	-0.228	0.014	-157.6207458	-142.0362882	41.4821592	6.10773228	-22.38546906	-27.5592798
3.01	301	-0.176	-0.275	-0.078	-181.8568692	-128.6863668	56.8947294	4.0966497	-23.7204612	-27.09518382
3.02	302	-0.277	-0.186	-0.327	-198.3007638	-98.9498466	67.8382272	1.82200644	-24.75751518	-26.43055254
3.03	303	-0.366	-0.115	-0.512	-191.7690426	-64.171296	70.6457214	-0.4297185	-25.42214646	-25.6685184
3.04	304	-0.405	-0.128	-0.588	-180.8828406	-44.5761324	68.182002	-2.58977016	-25.8690537	-24.90075468
3.05	305	-0.582	-0.216	-0.629	-169.7101596	-36.2109456	70.6457214	-4.65241896	-26.2128285	-24.0928839
3.06	306	-1.143	-0.25	-0.555	-172.8614286	-20.5691922	77.34933	-6.79528188	-26.356068	-23.204799
3.07	307	-1.738	0.202	-0.474	-180.5963616	16.7303736	60.9054354	-8.92668564	-26.13261438	-22.54016772
3.08	308	-1.774	1.249	-0.717	-146.5053606	63.2545632	15.3552744	-10.4564835	-25.50236058	-22.45422402
3.09	309	-1.401	2.132	-1.543	-68.2392978	94.0224078	-28.3041252	-10.96641612	-24.64292358	-22.91832
3.1	310	-1.091	2.319	-2.156	0.1718874	103.5335106	-50.0765292	-10.6856667	-23.72619078	-23.6345175
3.11	311	-0.77	1.99	-2.257	59.5303362	101.7573408	-53.7434604	-9.80331138	-22.82091714	-24.3793629
3.12	312	0.615	1.499	-2.239	121.2379128	106.9712586	-39.534102	-8.3651868	-21.82397022	-24.96378006
3.13	313	3.67	1.575	-3.287	169.02261	28.4187168	-4.5263682	-6.6176649	-21.53176164	-25.06118292
3.14	314	-0.192	1.204	-3.996	185.1227298	-56.3790672	79.9849368	-5.05348956	-21.99012804	-24.18455718
3.15	315	-3.67	1.851	-3.996	176.4137682	-27.9603504	99.3509172	-3.66120162	-22.1734746	-23.12458488
3.16	316	-3.999	2.217	-3.968	229.9853412	114.7634874	52.3110654	-1.53552744	-20.99318112	-22.6031931
3.17	317	-3.817	1.406	-3.532	136.8796662	227.0059596	-7.161975	-0.16042824	-18.72999702	-22.65475932
3.18	318	-2.355	0.765	-3.114	-18.2773602	227.750805	-34.7785506	-0.286479	-16.48400166	-22.95269748
3.19	319	-1.354	0.097	-3.066	-62.6243094	311.3453772	-27.3300966	-0.90527364	-13.41294678	-23.1761511
3.2	320	-1.06	0.049	-2.585	-95.111028	337.5868536	10.8289062	-1.94232762	-10.08979038	-23.04437076
3.21	321	-1.371	0.067	-1.52	-125.8788726	265.2222582	14.2093584	-3.27159018	-7.4771019	-22.93550874
3.22	322	-0.736	0.067	-0.677	-82.4486562	245.9708694	5.3285094	-4.13675676	-5.04775998	-22.96988622
3.23	323	-0.375	-0.05	-0.674	-55.1185596	241.3299096	11.0007936	-4.7269035	-2.6642547	-22.9756158
3.24	324	-0.385	0.027	-0.68	-70.187355	218.7553644	14.610429	-5.4717489	-0.50420304	-22.95269748
3.25	325	0.046	0.121	-0.628	-80.1568242	201.4520328	26.069589	-6.31399716	1.50687954	-22.83810588
3.26	326	0.647	0.064	-0.577	-72.0781164	197.1548478	46.3523022	-7.05884256	3.48931422	-22.5458973
3.27	327	1.039	-0.045	-0.55	-52.9413192	176.2418808	63.02538	-7.58023434	5.2998615	-22.09326048
3.28	328	1.292	-0.02	-0.504	-26.5852512	135.3899754	69.4425096	-7.80941754	6.71506776	-21.54895038
3.29	329	1.164	0.187	-0.428	-12.0894138	90.1262934	58.155237	-7.88390208	7.6776372	-21.06766566
3.3	330	0.764	0.461	-0.365	-9.3965112	58.2698286	36.096354	-7.9927641	8.35372764	-20.79264582
3.31	331	0.491	0.625	-0.316	-13.750992	44.0604702	14.9542038	-8.12454444	8.80063488	-20.68951338
3.32	332	0.196	0.683	-0.267	-17.4179232	37.7579322	0.1145916	-8.31362058	9.17305758	-20.72962044
3.33	333	-0.013	0.61	-0.266	-12.2613012	34.7785506	-7.734933	-8.46258966	9.49964364	-20.84994162
3.34	334	-0.151	0.488	-0.26	-5.3858052	32.372127	-9.3965112	-8.54280378	9.80331138	-20.98172196
3.35	335	-0.251	0.347	-0.265	4.297185	29.507337	-4.5263682	-8.54280378	10.0554129	-21.06193608
3.36	336	-0.248	0.262	-0.313	13.2926256	27.9603504	6.1306506	-8.40529386	10.3418919	-21.03328818
3.37	337	-0.171	0.241	-0.357	17.5898106	29.0489706	19.5378678	-8.19902898	10.6570188	-20.87285994
3.38	338	-0.015	0.293	-0.43	18.7357266	31.7418732	28.9916748	-7.9641162	11.01225276	-20.62075842
3.39	339	0.132	0.337	-0.497	23.491278	30.4240698	32.3148312	-7.6776372	11.35602756	-20.33427942
3.4	340	0.265	0.406	-0.596	33.1742682	26.4133638	30.7678446	-7.31667366	11.67115446	-20.06498916
3.41	341	0.377	0.472	-0.685	46.0085274	26.2414764	27.1582092	-6.80101146	11.96909262	-19.81861722
3.42	342	0.467	0.551	-0.731	56.4936588	26.5852512	24.0069402	-6.1879464	12.2613012	-19.60662276
3.43	343	0.522	0.615	-0.732	61.6502808	26.6998428	21.772404	-5.52331512	12.55350978	-19.41181704
3.44	344	0.457	0.671	-0.696	61.879464	23.8350528	19.3659804	-4.85868384	12.81134088	-19.23420006
3.45	345	0.316	0.708	-0.64	64.9734372	18.1627686	16.902261	-4.22270046	13.01760576	-19.09096056
3.46	346	0.137	0.715	-0.599	70.6457214	16.5584862	14.037471	-3.47785506	13.20095232	-18.9649098
3.47	347	0.188	0.684	-0.67	79.068204	21.7151082	14.2666542	-2.64706596	13.43013552	-18.83312946
3.48	348	0.471	0.596	-0.879	78.4379502	24.5226024	19.1367972	-1.81054728	13.68796662	-18.64405332
3.49	349	0.766	0.4	-1.138	67.322565	20.5118964	27.1009134	-1.06570188	13.90569066	-18.37476306
3.5	350	1.076	0.161	-1.448	47.2117392	6.4744254	32.7159018	-0.50420304	13.98590478	-18.04244742
3.51	351	1.338	0.014	-1.559	24.5226024	-18.7930224	30.939732	-0.17761698	13.80255822	-17.7330501
3.52	352	1.27	-0.032	-1.589	3.6669312	-43.831287	19.5378678	-0.09167328	13.36711014	-17.54397396
3.53	353	0.941	-0.074	-1.539	-10.7143146	-48.1857678	8.1360036	-0.17761698	12.891555	-17.46948942
3.54	354	0.628	-0.087	-1.438	-16.2147114	-32.372127	6.7609044	-0.32658606	12.57069852	-17.40646404
3.55	355	0.536	-0.098	-1.35	-20.6837838	-9.740286	12.9488508	-0.50420304	12.47902524	-17.28041328
3.56	356	0.538	-0.092	-1.222	-27.8457588	7.5057498	16.7876694	-0.7448454	12.55350978	-17.1027963
3.57	357	0.575	-0.063	-1.078	-31.6845774	13.178034	15.5844576	-1.03705398	12.68529012	-16.94236806
3.58	358	0.652	-0.037	-0.965	-31.7418732	10.886202	11.4018642	-1.32926256	12.78842256	-16.82204688
3.59	359	0.669	-0.007	-0.885	-31.51269	3.2085648	6.3598338	-1.63865988	12.81707046	-16.75329192
3.6	360	0.618	-0.001	-0.862	-30.3094782	-3.6669312	0.4583664	-1.94232762	12.85717752	-16.76475108
3.61	361	0.491	-0.012	-0.841	-26.4706596	-11.0580894	-5.9014674	-2.22307704	12.74258592	-16.82204688
3.62	362	0.32	-0.029	-0.789	-21.3713334	-17.3606274	-11.1153852	-2.45798982	12.56496894	-16.9309089
3.63	363	0.174	-0.037	-0.754	-16.5584862	-21.3140376	-15.2406828	-2.65852512	12.3472449	-17.07987798
3.64	364	0.066	-0.031	-0.735	-12.2040054	-24.6944898	-17.18874	-2.81322378	12.0894138	-17.2460358
3.65	365	-0.007	-0.022	-0.741	-8.59437	-24.5226024	-16.7876694	-2.92781538	11.81439396	-17.40646404
3.66	366	0.051	-0.04	-0.775	-3.2085648	-21.8296998	-15.9855282	-2.99084076	11.59094034	-17.5611627
3.67	367	0.136	-0.069	-0.816	2.291832	-20.1681216	-15.1260912	-2.99084076	11.38467546	-17.71013178
3.68	368	0.208	-0.104	-0.853	7.734933	-22.5172494	-13.4072172	-2.93354496	11.15549226	-17.84191212
3.69	369	0.215	-0.133	-0.875	11.6883432	-27.9030546	-12.2613012	-2.8361421	10.87474284	-17.9622333
3.7	370	0.181	-0.149	-0.908	14.7823164	-35.809875	-11.8602306	-2.68144344	10.5137793	-18.07109532
3.71	371	0.142	-0.162	-0.94	18.2200644	-45.9512316	-12.605076	-2.50955604	10.0554129	-18.1914165
3.72	372	0.11	-0.184	-0.976	19.8816426	-56.7801378	-12.9488508	-2.3204799	9.49391406	-18.31746726
3.73	373	0.084	-0.207	-1.019	18.7357266	-65.603691	-14.3812458	-2.1485925	8.84074194	-18.45497718
3.74	374	0.041	-0.225	-1.071	16.6730778	-72.0781164	-16.1574156	-1.99389384	8.12454444	-18.60967584
3.75	375	0.003	-0.227	-1.111	15.3552744	-75.1147938	-17.0741484	-1.8334656	7.36823988	-18.77583366
3.76	376	-0.041	-0.21	-1.11	13.4072172	-75.6877518	-16.5011904	-1.70741484	6.6176649	-18.94199148
3.77	377	-0.072	-0.162	-1.073	9.5683986	-73.052145	-15.9282324	-1.61574156	5.89573782	-19.09669014
3.78	378	-0.103	-0.098	-1.03	5.156622	-66.9787902	-15.3552744	-1.56990492	5.22537696	-19.2513888
3.79	379	-0.095	-0.06	-1.016	2.0626488	-57.4103916	-14.4385416	-1.55271618	4.65814854	-19.40035788
3.8	380	-0.069	-0.051	-1.014	-1.2605076	-46.4668938	-13.5791046	-1.56417534	4.17113424	-19.52640864
3.81	381	-0.051	-0.048	-1.006	-6.4171296	-38.4454818	-12.6623718	-1.6329303	3.78725238	-19.6524594
3.82	382	-0.056	-0.019	-1.009	-10.3705398	-32.2575354	-11.9748222	-1.74179232	3.4663959	-19.77278058
3.83	383	-0.075	0.02	-1.01	-10.4278356	-27.501984	-11.8602306	-1.85065434	3.18564648	-19.88737218
3.84	384	-0.102	0.05	-1.01	-8.0787078	-23.777757	-11.8029348	-1.93659804	2.9507337	-20.00196378
3.85	385	-0.124	0.065	-0.994	-6.3598338	-20.3973048	-11.5164558	-2.01681216	2.69863218	-20.10509622
3.86	386	-0.146	0.086	-0.973	-6.4744254	-17.475219	-10.3705398	-2.08556712	2.5210152	-20.20822866
3.87	387	-0.158	0.091	-0.955	-5.5003968	-13.9228794	-9.2246238	-2.14286292	2.3777757	-20.29990194
3.88	388	-0.152	0.099	-0.942	-3.5523396	-9.2246238	-8.9381448	-2.18296998	2.28610242	-20.38584564
3.89	389	-0.135	0.116	-0.937	-1.4896908	-4.8128472	-9.2819196	-2.20015872	2.2345362	-20.47751892
3.9	390	-0.122	0.132	-0.937	-0.7448454	-1.3178034	-9.3392154	-2.30902074	2.07983754	-20.54627388
3.91	391	-0.097	0.139	-0.947	-0.1718874	1.0886202	-8.6516658	-2.31475032	2.08556712	-20.63221758
3.92	392	-0.073	0.139	-0.958	0.1145916	2.9220858	-7.1046792	-2.31475032	2.11421502	-20.70670212
3.93	393	-0.049	0.129	-0.97	0.6302538	4.297185	-5.443101	-2.31475032	2.15432208	-20.75826834
3.94	394	-0.026	0.118	-0.99	1.2032118	4.6409598	-3.8388186	-2.30329116	2.20015872	-20.7983754
3.95	395	-0.019	0.105	-1.01	1.6615782	3.7815228	-2.4064236	-2.36631654	2.16005166	-20.80983456
3.96	396	-0.02	0.089	-1.029	2.2345362	2.9793816	-1.3178034	-2.3491278	2.18869956	-20.8270233
3.97	397	-0.024	0.078	-1.05	2.6929026	3.0366774	-0.3437748	-2.3204799	2.22307704	-20.83275288
3.98	398	-0.031	0.073	-1.069	2.9793816	3.3231564	0.3437748	-2.291832	2.25172494	-20.8270233
3.99	399	-0.037	0.064	-1.075	2.9220858	3.437748	1.0313244	-2.25745452	2.291832	-20.81556414
4	400	-0.042	0.055	-1.07	2.2345362	4.010706	1.6042824	-2.25745452	2.2631841	-20.78691624
4.01	401	-0.043	0.046	-1.057	1.2605076	4.6409598	2.1199446	-2.24599536	2.30902074	-20.7697275
4.02	402	-0.042	0.036	-1.035	0.4010706	5.156622	2.8074942	-2.24026578	2.36058696	-20.7410796
4.03	403	-0.04	0.03	-1.017	0.286479	5.9014674	3.437748	-2.2345362	2.41788276	-20.70670212
4.04	404	-0.031	0.023	-0.996	0.4583664	7.0473834	3.9534102	-2.22880662	2.4923673	-20.66659506
4.05	405	-0.017	0.015	-0.979	0.2291832	8.0787078	4.297185	-2.22307704	2.52674478	-20.61502884
4.06	406	-0.005	0.012	-0.966	-0.3437748	8.8235532	4.583664	-2.22880662	2.61841806	-20.57492178
4.07	407	0.011	0.012	-0.958	-0.8021412	9.6256944	4.6409598	-2.2345362	2.71582092	-20.52908514
4.08	408	0.027	0.015	-0.951	-0.8021412	10.7716104	4.5263682	-2.24026578	2.82468294	-20.4832485
4.09	409	0.046	0.015	-0.945	-0.1145916	11.4018642	4.3544808	-2.24026578	2.93927454	-20.44314144
4.1	410	0.07	0.013	-0.947	0.4010706	11.6310474	4.2398892	-2.2345362	3.0653253	-20.40303438
4.11	411	0.089	0.011	-0.952	0.7448454	11.1153852	4.4117766	-2.22880662	3.1799169	-20.35719774
4.12	412	0.098	0.01	-0.959	0.6302538	10.7143146	4.583664	-2.21734746	3.28877892	-20.3113611
4.13	413	0.102	0.004	-0.965	0.4583664	11.0580894	4.5263682	-2.21161788	3.39764094	-20.27125404
4.14	414	0.103	0	-0.969	0.286479	11.2872726	4.6409598	-2.2058883	3.51223254	-20.2254174
4.15	415	0.104	-0.004	-0.97	0.1145916	11.0580894	4.870143	-2.19442914	3.64401288	-20.17958076
4.16	416	0.106	-0.007	-0.971	0.2291832	10.1986524	5.156622	-2.18869956	3.74714532	-20.12801454
4.17	417	0.103	-0.009	-0.975	0.6302538	9.167328	5.2139178	-2.1772404	3.8388186	-20.07644832
4.18	418	0.099	-0.011	-0.981	1.2032118	8.5370742	5.156622	-2.16578124	3.9247623	-20.03061168
4.19	419	0.088	-0.01	-0.986	1.7761698	7.6776372	5.0993262	-2.14286292	4.00497642	-19.97904546
4.2	420	0.08	-0.01	-0.991	2.1772404	7.161975	4.7555514	-2.10275586	4.07373138	-19.93320882
4.21	421	0.077	-0.005	-0.992	2.4064236	7.5057498	4.5263682	-2.07983754	4.1539455	-19.88737218
4.22	422	0.08	-0.001	-0.995	2.4064236	7.7922288	4.4690724	-2.05118964	4.22843004	-19.84153554
4.23	423	0.091	0.002	-1.001	2.005353	7.6776372	4.2398892	-2.02827132	4.30864416	-19.80142848
4.24	424	0.1	0.005	-1.004	1.5469866	7.1046792	4.0680018	-2.01108258	4.3831287	-19.76132142
4.25	425	0.107	0.006	-1.006	1.2032118	6.302538	3.724227	-1.98816426	4.46334282	-19.72694394
4.26	426	0.113	0.007	-1.002	0.572958	5.7868758	3.3231564	-1.98243468	4.52063862	-19.69256646
4.27	427	0.119	0.011	-0.998	-0.6302538	4.870143	2.9793816	-1.98816426	4.57220484	-19.66391856
4.28	428	0.123	0.019	-0.997	-1.3178034	3.151269	2.4637194	-1.99962342	4.60085274	-19.64100024
4.29	429	0.127	0.027	-0.995	-1.2032118	1.8907614	1.7761698	-2.01108258	4.62377106	-19.6238115
4.3	430	0.124	0.033	-0.991	-1.3750992	1.145916	1.3750992	-2.06837838	4.70398518	-19.6238115
4.31	431	0.114	0.044	-0.992	-1.6042824	0.859437	0.9740286	-2.08556712	4.71544434	-19.61235234
4.32	432	0.109	0.049	-0.995	-1.3750992	0.4583664	0.4583664	-2.10275586	4.72117392	-19.61235234
4.33	433	0.107	0.052	-0.992	-1.0886202	-0.0572958	0	-2.11421502	4.72117392	-19.60662276
4.34	434	0.108	0.047	-0.985	-0.572958	-0.6875496	-0.4010706	-2.1199446	4.70971476	-19.61235234
4.35	435	0.108	0.043	-0.979	-0.3437748	-1.145916	-0.6875496	-2.20015872	4.7555514	-19.63527066
4.36	436	0.107	0.041	-0.975	-0.1718874	-1.5469866	-1.0886202	-2.20015872	4.74409224	-19.64672982
4.37	437	0.107	0.042	-0.975	0	-1.9480572	-1.3178034	-2.20015872	4.72117392	-19.66391856
4.38	438	0.106	0.038	-0.976	0.2291832	-2.7501984	-1.4896908	-2.20015872	4.69252602	-19.67537772
4.39	439	0.103	0.034	-0.978	0.4010706	-3.6096354	-1.5469866	-2.20015872	4.65814854	-19.69256646
4.4	440	0.097	0.032	-0.983	0.4010706	-4.0680018	-1.7761698	-2.21161788	4.62377106	-19.7097552
4.41	441	0.09	0.03	-0.988	0.6875496	-4.297185	-1.8334656	-2.2058883	4.57793442	-19.73267352
4.42	442	0.086	0.028	-0.993	0.8021412	-4.3544808	-1.8334656	-2.19442914	4.53782736	-19.74986226
4.43	443	0.083	0.023	-0.997	1.145916	-4.5263682	-1.718874	-2.18869956	4.49199072	-19.767051
4.44	444	0.079	0.019	-1.001	1.3178034	-4.870143	-1.7761698	-2.17151082	4.4404245	-19.78423974
4.45	445	0.075	0.014	-1.002	1.2032118	-5.2139178	-1.6042824	-2.15432208	4.37739912	-19.7956989
4.46	446	0.069	0.011	-1.003	1.145916	-5.3285094	-1.718874	-2.14286292	4.3258329	-19.81288764
4.47	447	0.063	0.008	-1	1.0313244	-5.2712136	-1.4896908	-2.13713334	4.27426668	-19.83007638
4.48	448	0.059	0.005	-0.998	0.859437	-5.3858052	-1.4896908	-2.12567418	4.21697088	-19.84153554
4.49	449	0.058	0.003	-0.996	0.7448454	-5.5576926	-1.3178034	-2.1199446	4.15967508	-19.8529947
4.5	450	0.055	0.005	-0.995	0.4583664	-5.443101	-1.0886202	-2.10275586	4.07373138	-19.85872428
4.51	451	0.049	0.006	-0.994	0.1145916	-5.0993262	-0.859437	-2.09702628	4.02216516	-19.86445386
4.52	452	0.044	0.007	-0.993	0	-4.4690724	-0.572958	-2.09702628	3.97632852	-19.87018344
4.53	453	0.04	0.007	-0.987	-0.1145916	-3.9534102	-0.572958	-2.09702628	3.93622146	-19.87591302
4.54	454	0.036	0.005	-0.982	-0.1718874	-3.6669312	-0.6875496	-2.10275586	3.90184398	-19.88737218
4.55	455	0.032	0.006	-0.979	0	-3.2085648	-0.6875496	-2.08556712	3.7815228	-19.87591302
4.56	456	0.031	0.007	-0.979	0.0572958	-2.86479	-0.6302538	-2.08556712	3.7528749	-19.8816426
4.57	457	0.027	0.011	-0.979	0	-2.4064236	-0.572958	-2.08556712	3.72995658	-19.88737218
4.58	458	0.024	0.015	-0.983	0.1718874	-1.8907614	-0.4583664	-2.07983754	3.71276784	-19.89310176
4.59	459	0.018	0.018	-0.986	0.1718874	-0.9740286	-0.5156622	-2.07983754	3.70130868	-19.89883134
4.6	460	0.014	0.02	-0.989	0.3437748	-0.1145916	-0.6302538	-2.11421502	3.28304934	-19.83007638
4.61	461	0.011	0.022	-0.989	0.4583664	0.4583664	-0.572958	-2.10848544	3.28877892	-19.83580596
4.62	462	0.012	0.022	-0.988	0.5156622	1.145916	-0.572958	-2.10848544	3.30023808	-19.84153554
4.63	463	0.017	0.022	-0.99	0.6875496	1.6615782	-0.572958	-2.09702628	3.31742682	-19.84726512
4.64	464	0.025	0.025	-0.99	0.6302538	2.1199446	-0.3437748	-2.0912967	3.34034514	-19.8529947
4.65	465	0.036	0.025	-0.993	0.6302538	2.3491278	-0.0572958	-2.10848544	3.30023808	-19.84726512
4.66	466	0.045	0.024	-0.995	0.5156622	2.3491278	0.2291832	-2.10275586	3.3231564	-19.84153554
4.67	467	0.051	0.024	-0.995	0.286479	2.4064236	0.5156622	-2.09702628	3.34607472	-19.83580596
4.68	468	0.056	0.022	-0.992	0.1145916	2.5210152	0.8021412	-2.09702628	3.37472262	-19.83007638
4.69	469	0.058	0.022	-0.992	0.1145916	2.5210152	1.0886202	-2.09702628	3.39764094	-19.81861722
4.7	470	0.061	0.019	-0.99	0.1145916	2.5210152	1.3178034	-2.10275586	3.41482968	-19.80715806
4.71	471	0.062	0.018	-0.991	0.0572958	2.578311	1.3750992	-2.10275586	3.44347758	-19.78996932
4.72	472	0.063	0.018	-0.988	0.0572958	2.578311	1.432395	-2.09702628	3.4663959	-19.77851016
4.73	473	0.064	0.018	-0.986	0.1145916	2.4637194	1.3750992	-2.09702628	3.4950438	-19.76132142
4.74	474	0.068	0.018	-0.985	0	2.291832	1.2605076	-2.09702628	3.51796212	-19.74986226
4.75	475	0.069	0.017	-0.985	0.0572958	2.1772404	1.0886202	-2.09702628	3.54088044	-19.7384031
4.76	476	0.069	0.015	-0.985	0	2.005353	0.859437	-2.09702628	3.55806918	-19.73267352
4.77	477	0.07	0.013	-0.986	-0.0572958	2.1199446	0.6302538	-2.09702628	3.5809875	-19.72694394
4.78	478	0.073	0.012	-0.987	0	2.1199446	0.4583664	-2.09702628	3.60390582	-19.72121436
4.79	479	0.077	0.012	-0.989	0	2.1772404	0.286479	-2.09702628	3.62682414	-19.71548478
4.8	480	0.081	0.012	-0.991	0.1145916	2.1199446	0.1145916	-2.08556712	3.68984952	-19.72121436
4.81	481	0.087	0.012	-0.991	0.1145916	1.6042824	0.0572958	-2.08556712	3.70703826	-19.72121436
4.82	482	0.09	0.011	-0.989	0.0572958	1.0313244	0.0572958	-2.08556712	3.71849742	-19.72121436
4.83	483	0.09	0.012	-0.99	0	0.6302538	-0.0572958	-2.08556712	3.724227	-19.72121436
4.84	484	0.09	0.013	-0.99	0	0.4583664	-0.0572958	-2.08556712	3.72995658	-19.72121436
4.85	485	0.088	0.015	-0.993	0	0.2291832	-0.0572958	-2.09702628	4.0393539	-19.77851016
4.86	486	0.085	0.017	-0.994	0.1145916	-0.2291832	-0.2291832	-2.09702628	4.0393539	-19.77851016
4.87	487	0.082	0.017	-0.994	0.2291832	-0.6875496	-0.286479	-2.0912967	4.02789474	-19.78423974
4.88	488	0.078	0.017	-0.992	0.2291832	-0.9167328	-0.3437748	-2.0912967	4.02216516	-19.78423974
4.89	489	0.078	0.019	-0.99	0.2291832	-1.0313244	-0.3437748	-2.08556712	4.010706	-19.78996932
4.9	490	0.076	0.02	-0.988	0.0572958	-1.2605076	-0.3437748	-2.10275586	3.99351726	-19.7956989
4.91	491	0.073	0.021	-0.987	0	-1.8334656	-0.4010706	-2.10275586	3.97632852	-19.7956989
4.92	492	0.07	0.02	-0.984	0	-2.005353	-0.4583664	-2.10275586	3.9534102	-19.80142848
4.93	493	0.064	0.02	-0.983	-0.1718874	-1.9480572	-0.4010706	-2.10275586	3.93622146	-19.80715806
4.94	494	0.059	0.019	-0.981	-0.3437748	-1.5469866	-0.3437748	-2.10848544	3.91903272	-19.81288764
4.95	495	0.055	0.015	-0.978	-0.6302538	-1.2032118	-0.4010706	-2.11421502	3.86173692	-19.80715806
4.96	496	0.056	0.013	-0.979	-0.9167328	-1.2605076	-0.4010706	-2.1199446	3.84454818	-19.81288764
4.97	497	0.06	0.012	-0.979	-0.7448454	-1.4896908	-0.3437748	-2.13140376	3.83308902	-19.81288764
4.98	498	0.063	0.01	-0.981	-0.572958	-1.5469866	-0.2291832	-2.13713334	3.81590028	-19.81288764
4.99	499	0.06	0.011	-0.988	-0.6302538	-1.3750992	-0.1145916	-2.14286292	3.79871154	-19.81861722
5	500	0.055	0.014	-0.994	-0.5156622	-1.3750992	-0.0572958	-2.14286292	3.72995658	-19.80715806
5.01	501	0.052	0.017	-0.996	-0.3437748	-1.432395	-0.0572958	-2.1485925	3.71276784	-19.80715806
5.02	502	0.052	0.017	-0.997	-0.0572958	-1.2032118	-0.1145916	-2.1485925	3.70130868	-19.80715806
5.03	503	0.052	0.015	-0.994	0	-1.0886202	-0.286479	-2.1485925	3.68984952	-19.81288764
5.04	504	0.052	0.014	-0.992	0.0572958	-0.8021412	-0.2291832	-2.1485925	3.67839036	-19.81288764
5.05	505	0.052	0.014	-0.991	-0.0572958	-0.859437	-0.1718874	-2.14286292	3.58671708	-19.80142848
5.06	506	0.05	0.017	-0.992	-0.1718874	-0.8021412	-0.1145916	-2.14286292	3.5809875	-19.80142848
5.07	507	0.049	0.019	-0.994	-0.286479	-0.572958	-0.1718874	-2.1485925	3.57525792	-19.80715806
5.08	508	0.048	0.02	-0.993	-0.2291832	-0.4010706	-0.1145916	-2.1485925	3.56952834	-19.80715806
5.09	509	0.049	0.019	-0.992	-0.2291832	-0.1145916	0	-2.15432208	3.56952834	-19.80715806
5.1	510	0.052	0.02	-0.991	-0.1718874	0.1145916	0	-2.20015872	3.42055926	-19.78423974
5.11	511	0.054	0.019	-0.988	-0.1145916	0.286479	0.1145916	-2.20015872	3.42055926	-19.78423974
5.12	512	0.056	0.018	-0.988	-0.2291832	0.5156622	0.1145916	-2.2058883	3.42628884	-19.78423974
5.13	513	0.056	0.017	-0.987	-0.286479	0.572958	0.1145916	-2.2058883	3.43201842	-19.77851016
5.14	514	0.055	0.017	-0.986	-0.1718874	0.7448454	0.1145916	-2.2058883	3.44347758	-19.77851016
5.15	515	0.058	0.017	-0.986	0	0.859437	0.1145916	-2.2058883	3.41482968	-19.77278058
5.16	516	0.058	0.017	-0.987	0	0.8021412	0.1145916	-2.21161788	3.42055926	-19.77278058
5.17	517	0.059	0.016	-0.99	0.0572958	0.8021412	0.1145916	-2.2058883	3.43201842	-19.77278058
5.18	518	0.06	0.017	-0.989	0.1145916	0.859437	0.1145916	-2.2058883	3.437748	-19.767051
5.19	519	0.06	0.015	-0.99	0	0.8021412	0.0572958	-2.2058883	3.44920716	-19.767051
5.2	520	0.061	0.015	-0.989	0	0.859437	0.0572958	-2.20015872	3.42628884	-19.76132142
5.21	521	0.063	0.014	-0.987	0	0.859437	0	-2.20015872	3.43201842	-19.76132142
5.22	522	0.065	0.014	-0.989	-0.286479	0.6875496	-0.0572958	-2.20015872	3.44347758	-19.76132142
5.23	523	0.068	0.015	-0.991	-0.1718874	0.4010706	0	-2.2058883	3.44347758	-19.76132142
5.24	524	0.071	0.014	-0.99	-0.1145916	0.4583664	0	-2.2058883	3.44920716	-19.76132142
5.25	525	0.07	0.014	-0.991	-0.0572958	0.4583664	0	-2.20015872	3.4663959	-19.76132142
5.26	526	0.07	0.015	-0.991	-0.1145916	0.4583664	0	-2.20015872	3.4663959	-19.76132142
5.27	527	0.07	0.018	-0.991	-0.0572958	0.3437748	0.1145916	-2.20015872	3.47212548	-19.76132142
5.28	528	0.07	0.019	-0.991	0	0.2291832	0.0572958	-2.20015872	3.47785506	-19.76132142
5.29	529	0.068	0.018	-0.99	0.0572958	0.1718874	0	-2.20015872	3.47785506	-19.76132142
5.3	530	0.067	0.018	-0.989	0.1145916	0.1145916	-0.0572958	-2.2058883	3.45493674	-19.75559184
5.31	531	0.065	0.018	-0.985	0.1718874	0.0572958	-0.1145916	-2.2058883	3.45493674	-19.76132142
5.32	532	0.067	0.019	-0.987	0.1145916	0	-0.0572958	-2.20015872	3.45493674	-19.76132142
5.33	533	0.068	0.018	-0.988	0.1718874	-0.0572958	-0.0572958	-2.20015872	3.45493674	-19.76132142
5.34	534	0.067	0.016	-0.989	0.1145916	-0.1718874	-0.0572958	-2.20015872	3.45493674	-19.76132142
5.35	535	0.067	0.016	-0.989	0.0572958	-0.4010706	-0.1145916	-2.19442914	3.43201842	-19.76132142
5.36	536	0.067	0.015	-0.988	0.1145916	-0.5156622	-0.0572958	-2.19442914	3.42628884	-19.76132142
5.37	537	0.066	0.017	-0.988	0.0572958	-0.5156622	-0.0572958	-2.18869956	3.42055926	-19.76132142
5.38	538	0.066	0.015	-0.989	0.0572958	-0.5156622	0	-2.18869956	3.41482968	-19.76132142
5.39	539	0.064	0.016	-0.99	0.1718874	-0.8021412	0	-2.18869956	3.4091001	-19.76132142
5.4	540	0.061	0.016	-0.989	0.0572958	-0.859437	0	-2.18869956	3.36899304	-19.75559184
5.41	541	0.058	0.017	-0.992	0.2291832	-0.859437	-0.1145916	-2.18296998	3.36326346	-19.76132142
5.42	542	0.053	0.018	-0.996	0.572958	-0.9740286	-0.1145916	-2.1772404	3.3518043	-19.76132142
5.43	543	0.05	0.018	-1	0.9740286	-1.2605076	-0.2291832	-2.17151082	3.34034514	-19.76132142
5.44	544	0.05	0.018	-1	1.0886202	-1.4896908	-0.286479	-2.16005166	3.3231564	-19.767051
5.45	545	0.051	0.017	-0.999	1.2605076	-1.8334656	-0.4583664	-2.14286292	3.28877892	-19.767051
5.46	546	0.053	0.014	-0.995	1.145916	-2.005353	-0.5156622	-2.13140376	3.27159018	-19.77278058
5.47	547	0.053	0.013	-0.994	1.4896908	-2.3491278	-0.5156622	-2.11421502	3.24867186	-19.77851016
5.48	548	0.056	0.012	-0.992	1.5469866	-2.005353	-0.4010706	-2.10275586	3.22575354	-19.78423974
5.49	549	0.061	0.011	-0.989	1.4896908	-1.718874	-0.2291832	-2.08556712	3.2085648	-19.78423974
5.5	550	0.065	0.01	-0.987	1.3178034	-1.432395	-0.1145916	-2.0626488	3.19710564	-19.78996932
5.51	551	0.069	0.011	-0.984	1.2032118	-1.2605076	0	-2.05118964	3.18564648	-19.78996932
5.52	552	0.069	0.009	-0.982	1.145916	-1.2605076	0.1145916	-2.03973048	3.17418732	-19.78423974
5.53	553	0.066	0.01	-0.979	0.859437	-1.2032118	0.2291832	-2.02827132	3.16272816	-19.78423974
5.54	554	0.062	0.01	-0.978	0.572958	-1.0886202	0.286479	-2.02254174	3.151269	-19.77851016
5.55	555	0.056	0.011	-0.983	0.5156622	-0.6875496	0.2291832	-2.01681216	3.11116194	-19.77278058
5.56	556	0.051	0.013	-0.986	0.5156622	-0.2291832	-0.0572958	-2.01108258	3.11116194	-19.77278058
5.57	557	0.046	0.013	-0.989	0.572958	-0.0572958	-0.2291832	-2.005353	3.11116194	-19.77851016
5.58	558	0.046	0.013	-0.988	0.5156622	0.1145916	-0.3437748	-1.99962342	3.11116194	-19.77851016
5.59	559	0.048	0.013	-0.989	0.5156622	0.5156622	-0.4583664	-1.99389384	3.11689152	-19.78423974
5.6	560	0.051	0.011	-0.989	0.286479	0.6875496	-0.4583664	-1.98243468	3.09970278	-19.78996932
5.61	561	0.055	0.012	-0.989	0.1145916	0.859437	-0.4583664	-1.98243468	3.10543236	-19.78996932
5.62	562	0.061	0.012	-0.988	0.0572958	1.0313244	-0.4010706	-1.9767051	3.11689152	-19.7956989
5.63	563	0.064	0.011	-0.987	0.1718874	0.6875496	-0.1145916	-1.9767051	3.1226211	-19.7956989
5.64	564	0.065	0.011	-0.986	0.0572958	0.4583664	-0.0572958	-1.9767051	3.12835068	-19.80142848
5.65	565	0.065	0.011	-0.98	-0.286479	0.5156622	0	-1.97097552	3.14553942	-19.80142848
5.66	566	0.063	0.01	-0.978	-0.859437	0.4583664	0.1145916	-1.98243468	3.151269	-19.80142848
5.67	567	0.064	0.009	-0.98	-0.9740286	0.1145916	0.0572958	-1.99389384	3.151269	-19.7956989
5.68	568	0.069	0.009	-0.979	-0.6302538	-0.0572958	0.2291832	-1.99962342	3.151269	-19.7956989
5.69	569	0.069	0.008	-0.981	-0.4583664	-0.2291832	0.4583664	-2.005353	3.151269	-19.78996932
5.7	570	0.063	0.01	-0.987	-0.4583664	-0.1718874	0.4010706	-1.99962342	3.14553942	-19.78423974
5.71	571	0.06	0.014	-0.991	-0.286479	-0.3437748	0.4583664	-2.005353	3.13980984	-19.77851016
5.72	572	0.058	0.015	-0.992	-0.1718874	-0.286479	0.4010706	-2.005353	3.13980984	-19.77851016
5.73	573	0.061	0.013	-0.992	0	-0.1145916	0.286479	-2.005353	3.13980984	-19.77278058
5.74	574	0.062	0.009	-0.99	0	0	0.1718874	-2.005353	3.13980984	-19.77278058
5.75	575	0.062	0.01	-0.99	0	0	0.1145916	-1.97097552	3.14553942	-19.767051
5.76	576	0.061	0.012	-0.992	-0.0572958	0	0.1145916	-1.97097552	3.14553942	-19.767051
5.77	577	0.059	0.014	-0.993	-0.0572958	-0.1145916	0	-1.97097552	3.13980984	-19.767051
5.78	578	0.059	0.016	-0.994	-0.1145916	0	-0.0572958	-1.97097552	3.13980984	-19.767051
5.79	579	0.058	0.018	-0.996	-0.0572958	0	-0.1718874	-1.9767051	3.13980984	-19.767051
5.8	580	0.057	0.019	-0.996	0	0	-0.1718874	-2.02827132	3.08824362	-19.767051
5.81	581	0.058	0.017	-0.994	0	-0.0572958	-0.1718874	-2.02827132	3.08824362	-19.767051
5.82	582	0.057	0.015	-0.991	0	-0.1145916	-0.1145916	-2.0340009	3.08824362	-19.77278058
5.83	583	0.057	0.015	-0.989	-0.1145916	0	-0.1718874	-2.0340009	3.08824362	-19.77278058
5.84	584	0.057	0.016	-0.989	-0.0572958	0	-0.1718874	-2.0340009	3.08824362	-19.77278058
5.85	585	0.059	0.014	-0.988	0	0	-0.0572958	-2.02254174	3.0653253	-19.77278058
5.86	586	0.058	0.012	-0.987	0	-0.1145916	-0.0572958	-2.02254174	3.0653253	-19.77278058
5.87	587	0.056	0.012	-0.988	0.0572958	-0.1145916	0.0572958	-2.01681216	3.05959572	-19.77278058
5.88	588	0.057	0.011	-0.987	0.1145916	-0.1718874	0	-2.01681216	3.05959572	-19.77278058
5.89	589	0.054	0.01	-0.989	0	-0.0572958	0	-2.01681216	3.05959572	-19.77278058
5.9	590	0.054	0.009	-0.987	0	0	0	-1.9480572	2.99084076	-19.76132142
5.91	591	0.056	0.008	-0.986	0	0.0572958	0	-1.9480572	2.99657034	-19.76132142
5.92	592	0.056	0.007	-0.987	-0.1145916	0.1718874	-0.1145916	-1.95378678	2.99657034	-19.76132142
5.93	593	0.058	0.008	-0.99	-0.1145916	0.2291832	-0.0572958	-1.95378678	2.99657034	-19.76132142
5.94	594	0.059	0.009	-0.99	-0.1145916	0.286479	0	-1.95378678	3.00229992	-19.76132142
5.95	595	0.061	0.007	-0.991	0	0.4010706	0.1145916	-1.93659804	3.0080295	-19.76132142
5.96	596	0.061	0.009	-0.991	0.1145916	0.4010706	0.0572958	-1.93659804	3.0080295	-19.76132142
5.97	597	0.062	0.011	-0.991	0.1145916	0.3437748	0.0572958	-1.93086846	3.01375908	-19.76132142
5.98	598	0.061	0.012	-0.991	0.1145916	0.286479	0	-1.93086846	3.01948866	-19.76132142
5.99	599	0.061	0.012	-0.99	0.2291832	0.1145916	0.0572958	-1.93086846	3.01948866	-19.75559184
6	600	0.059	0.012	-0.989	0.286479	0.1718874	0	-1.93086846	3.01375908	-19.75559184
6.01	601	0.058	0.012	-0.988	0.286479	0.286479	0	-1.92513888	3.01948866	-19.75559184
6.02	602	0.058	0.012	-0.989	0.2291832	0.3437748	0	-1.92513888	3.01948866	-19.75559184
6.03	603	0.058	0.013	-0.988	0.2291832	0.286479	0	-1.9194093	3.02521824	-19.75559184
6.04	604	0.058	0.014	-0.989	0.2291832	0.2291832	-0.0572958	-1.9194093	3.02521824	-19.75559184
6.05	605	0.057	0.014	-0.988	0.1718874	0.286479	-0.0572958	-1.92513888	3.0080295	-19.75559184
6.06	606	0.059	0.012	-0.989	0.0572958	0.2291832	0	-1.9194093	3.01375908	-19.75559184
6.07	607	0.059	0.014	-0.988	0.1145916	0.0572958	0	-1.9194093	3.01375908	-19.75559184
6.08	608	0.062	0.013	-0.989	0.1145916	-0.1145916	0.0572958	-1.9194093	3.01375908	-19.75559184
6.09	609	0.061	0.013	-0.989	0.0572958	-0.1718874	0.0572958	-1.9194093	3.0080295	-19.75559184
6.1	610	0.061	0.013	-0.989	0	-0.0572958	0	-1.92513888	3.01375908	-19.75559184
6.11	611	0.062	0.012	-0.991	0.1145916	-0.0572958	0.1145916	-1.92513888	3.01375908	-19.75559184
6.12	612	0.061	0.011	-0.989	0.0572958	0	0	-1.9194093	3.01375908	-19.75559184
6.13	613	0.061	0.012	-0.989	0.0572958	-0.0572958	-0.0572958	-1.9194093	3.01375908	-19.75559184
6.14	614	0.062	0.011	-0.988	0.1145916	0	-0.0572958	-1.9194093	3.01375908	-19.75559184
6.15	615	0.06	0.011	-0.99	0.2291832	-0.0572958	0	-1.91367972	3.01375908	-19.75559184
6.16	616	0.061	0.011	-0.989	0.1145916	0	0	-1.90795014	3.01375908	-19.75559184
6.17	617	0.061	0.01	-0.988	0	0	-0.1145916	-1.90795014	3.01375908	-19.75559184
6.18	618	0.06	0.009	-0.988	0	-0.1145916	0	-1.90795014	3.01375908	-19.75559184
6.19	619	0.061	0.008	-0.987	0	0.0572958	0.0572958	-1.90795014	3.01375908	-19.75559184
6.2	620	0.063	0.01	-0.988	0.1145916	-0.0572958	0.0572958	-1.8907614	3.01948866	-19.75559184
6.21	621	0.062	0.008	-0.99	0.1718874	-0.0572958	0	-1.8907614	3.01948866	-19.75559184
6.22	622	0.06	0.01	-0.989	0.0572958	-0.2291832	0	-1.88503182	3.01948866	-19.75559184
6.23	623	0.06	0.01	-0.991	0.1145916	-0.2291832	0	-1.88503182	3.01375908	-19.75559184
6.24	624	0.061	0.009	-0.989	0.0572958	-0.1145916	0	-1.88503182	3.01375908	-19.75559184
6.25	625	0.061	0.008	-0.988	0	-0.1145916	0	-1.84492476	3.01375908	-19.75559184
