TimeStamp(s)	FrameCounter	AccX	AccY	AccZ	GyrX	GyrY	GyrZ	EulerX	EulerY	EulerZ
0.01	1	-0.054	-1.023	0.014	-0.0572958	0.4010706	0.1145916	91.2722094	-2.38923486	-46.44397548
0.02	2	-0.054	-1.007	-0.007	0.3437748	-0.3437748	0.4010706	91.27793898	-2.39496444	-46.44970506
0.03	3	-0.054	-1.007	-0.007	0.3437748	-0.3437748	0.4010706	91.27793898	-2.40069402	-46.44970506
0.04	4	-0.055	-1.007	-0.009	0.286479	-0.3437748	0.3437748	91.28366856	-2.40069402	-46.45543464
0.05	5	-0.053	-1.005	-0.008	0.286479	-0.4583664	0.4010706	91.08313326	-2.42361234	-46.50700086
0.06	6	-0.052	-1.003	-0.011	0.2291832	-0.5156622	0.3437748	91.08886284	-2.42361234	-46.51273044
0.07	7	-0.054	-1.002	-0.013	0.286479	-0.7448454	0.3437748	91.08886284	-2.42934192	-46.51846002
0.08	8	-0.055	-1.001	-0.013	0.4010706	-0.8021412	0.4010706	91.09459242	-2.4350715	-46.52991918
0.09	9	-0.057	-1	-0.015	0.6302538	-0.859437	0.4010706	91.100322	-2.4350715	-46.53564876
0.1	10	-0.058	-1	-0.015	0.8021412	-0.9167328	0.286479	91.0143783	-2.45226024	-46.57002624
0.11	11	-0.059	-1	-0.015	0.9740286	-0.9740286	0.2291832	91.02583746	-2.45798982	-46.57575582
0.12	12	-0.06	-1	-0.015	0.9740286	-0.9740286	0.1718874	91.03729662	-2.45798982	-46.58721498
0.13	13	-0.061	-1.001	-0.015	1.0886202	-1.145916	0.1145916	91.04875578	-2.45798982	-46.59867414
0.14	14	-0.061	-1.002	-0.016	1.145916	-1.145916	0	91.06021494	-2.45798982	-46.6101333
0.15	15	-0.061	-1.002	-0.016	1.145916	-1.2032118	-0.1145916	90.99145998	-2.46944898	-46.6387812
0.16	16	-0.062	-1.002	-0.015	1.145916	-1.2032118	-0.1145916	91.00291914	-2.46944898	-46.65024036
0.17	17	-0.062	-1.002	-0.015	1.0886202	-1.2032118	-0.1145916	91.0143783	-2.46944898	-46.66169952
0.18	18	-0.063	-1.003	-0.014	1.0886202	-1.3178034	-0.1718874	91.02583746	-2.4637194	-46.67888826
0.19	19	-0.064	-1.002	-0.014	1.145916	-1.432395	-0.2291832	91.03729662	-2.4637194	-46.69034742
0.2	20	-0.065	-1.002	-0.016	1.0886202	-1.4896908	-0.3437748	90.97427124	-2.47517856	-46.7247249
0.21	21	-0.064	-1.004	-0.016	1.2032118	-1.4896908	-0.4010706	90.9857304	-2.46944898	-46.73618406
0.22	22	-0.064	-1.006	-0.017	1.3178034	-1.718874	-0.4010706	90.99718956	-2.4637194	-46.7533728
0.23	23	-0.066	-1.007	-0.015	1.3750992	-1.718874	-0.4583664	91.0143783	-2.45798982	-46.77056154
0.24	24	-0.067	-1.005	-0.014	1.4896908	-1.6042824	-0.5156622	91.03156704	-2.45226024	-46.78775028
0.25	25	-0.065	-1.005	-0.014	1.6042824	-1.2605076	-0.572958	90.9857304	-2.4637194	-46.8106686
0.26	26	-0.063	-1.003	-0.014	1.6615782	-1.145916	-0.4583664	91.00291914	-2.45798982	-46.82212776
0.27	27	-0.063	-1.004	-0.01	1.6615782	-1.0313244	-0.4010706	91.02010788	-2.45226024	-46.83358692
0.28	28	-0.064	-1.007	-0.01	1.718874	-0.859437	-0.4010706	91.03729662	-2.45226024	-46.84504608
0.29	29	-0.064	-1.009	-0.01	1.4896908	-0.4583664	-0.4010706	91.05448536	-2.44653066	-46.85077566
0.3	30	-0.063	-1.009	-0.01	1.3750992	-0.3437748	-0.4010706	90.96854166	-2.4637194	-46.8679644
0.31	31	-0.062	-1.009	-0.01	1.2605076	-0.2291832	-0.3437748	90.9857304	-2.4637194	-46.87369398
0.32	32	-0.059	-1.008	-0.007	1.145916	-0.4010706	-0.286479	90.99718956	-2.45798982	-46.87942356
0.33	33	-0.061	-1.007	-0.009	0.9740286	-0.6302538	-0.3437748	91.00864872	-2.45226024	-46.88515314
0.34	34	-0.06	-1.005	-0.013	0.9740286	-0.6302538	-0.4583664	91.02010788	-2.44653066	-46.89088272
0.35	35	-0.059	-1.005	-0.013	1.2032118	-0.572958	-0.572958	90.95135292	-2.45798982	-46.90807146
0.36	36	-0.058	-1.006	-0.01	1.4896908	-0.3437748	-0.6302538	90.96854166	-2.45226024	-46.91380104
0.37	37	-0.058	-1.006	-0.008	1.6042824	-0.1718874	-0.4583664	90.9857304	-2.44653066	-46.91380104
0.38	38	-0.057	-1.007	-0.009	1.6042824	-0.0572958	-0.4010706	91.00291914	-2.44080108	-46.91380104
0.39	39	-0.057	-1.006	-0.005	1.4896908	0	-0.3437748	91.0143783	-2.4350715	-46.91380104
0.4	40	-0.057	-1.005	-0.005	1.432395	0	-0.4010706	90.94562334	-2.44653066	-46.93098978
0.41	41	-0.057	-1.004	-0.006	1.432395	0.0572958	-0.4583664	90.96281208	-2.44653066	-46.93098978
0.42	42	-0.056	-1.004	-0.008	1.432395	0.0572958	-0.4583664	90.97427124	-2.44080108	-46.93098978
0.43	43	-0.055	-1.004	-0.006	1.2605076	0.1145916	-0.4583664	90.99145998	-2.4350715	-46.9252602
0.44	44	-0.056	-1.004	-0.007	1.2032118	0.0572958	-0.4583664	91.00291914	-2.42934192	-46.9252602
0.45	45	-0.057	-1.005	-0.01	1.2605076	0.286479	-0.3437748	90.91124586	-2.44080108	-46.94244894
0.46	46	-0.057	-1.003	-0.011	1.432395	0.286479	-0.3437748	90.9284346	-2.44080108	-46.94244894
0.47	47	-0.057	-1.004	-0.011	1.6042824	0.1718874	-0.286479	90.93989376	-2.4350715	-46.93671936
0.48	48	-0.056	-1.004	-0.01	1.6615782	0.0572958	-0.3437748	90.9570825	-2.42934192	-46.93671936
0.49	49	-0.055	-1.004	-0.009	1.7761698	0.0572958	-0.4010706	90.98000082	-2.42934192	-46.93671936
0.5	50	-0.055	-1.005	-0.009	1.7761698	0.0572958	-0.4010706	90.91124586	-2.4350715	-46.94817852
0.51	51	-0.055	-1.007	-0.008	1.6042824	0.2291832	-0.4010706	90.9284346	-2.42934192	-46.94817852
0.52	52	-0.054	-1.007	-0.009	1.4896908	0.2291832	-0.286479	90.94562334	-2.42934192	-46.94244894
0.53	53	-0.054	-1.009	-0.009	1.3178034	0.286479	-0.1145916	90.9570825	-2.42361234	-46.94244894
0.54	54	-0.056	-1.007	-0.009	1.2605076	0	0	90.96854166	-2.42361234	-46.94244894
0.55	55	-0.058	-1.006	-0.012	1.0886202	-0.1718874	0	90.8424909	-2.45226024	-46.97109684
0.56	56	-0.059	-1.006	-0.012	1.145916	-0.2291832	-0.1145916	90.85395006	-2.44653066	-46.97109684
0.57	57	-0.059	-1.007	-0.012	1.145916	-0.1145916	-0.286479	90.86540922	-2.44653066	-46.97109684
0.58	58	-0.058	-1.005	-0.011	1.2032118	0	-0.4010706	90.87686838	-2.44080108	-46.97109684
0.59	59	-0.058	-1.007	-0.011	1.2032118	0	-0.4583664	90.89405712	-2.4350715	-46.97109684
0.6	60	-0.057	-1.005	-0.009	1.0313244	-0.1145916	-0.5156622	90.79665426	-2.44653066	-46.99401516
0.61	61	-0.056	-1.004	-0.01	1.0313244	0	-0.572958	90.80811342	-2.44080108	-46.99401516
0.62	62	-0.057	-1.004	-0.011	1.0313244	0.0572958	-0.572958	90.81957258	-2.4350715	-46.99401516
0.63	63	-0.056	-1.003	-0.011	1.0313244	0.1718874	-0.572958	90.82530216	-2.42934192	-46.98828558
0.64	64	-0.055	-1.005	-0.01	0.9740286	0.286479	-0.3437748	90.83676132	-2.42361234	-46.98828558
0.65	65	-0.054	-1.003	-0.01	0.9167328	0.286479	-0.286479	90.71644014	-2.44080108	-47.00547432
0.66	66	-0.053	-1.003	-0.011	0.9740286	0.4010706	-0.286479	90.72216972	-2.4350715	-46.99974474
0.67	67	-0.053	-1.001	-0.011	0.0572958	0.3437748	0.1718874	90.7278993	-2.4350715	-46.99974474
0.68	68	-0.054	-1.001	-0.01	-0.1145916	0.3437748	0.3437748	90.72216972	-2.44080108	-46.99401516
0.69	69	-0.053	-1.004	-0.008	0	0.286479	0.3437748	90.72216972	-2.44653066	-46.99401516
0.7	70	-0.054	-1.003	-0.009	0	0.286479	0.3437748	90.51017526	-2.48090814	-47.02839264
0.71	71	-0.056	-1.003	-0.009	0.1145916	0.3437748	0.286479	90.51017526	-2.48663772	-47.02266306
0.72	72	-0.056	-1.004	-0.008	0.1145916	0.5156622	0.2291832	90.51590484	-2.48663772	-47.01693348
0.73	73	-0.055	-1.003	-0.008	0.1718874	0.572958	0.286479	90.51590484	-2.4923673	-47.0112039
0.74	74	-0.056	-1.002	-0.009	0.1145916	0.572958	0.286479	90.51590484	-2.4923673	-47.00547432
0.75	75	-0.056	-1.005	-0.01	0.3437748	0.6302538	0.286479	90.4127724	-2.51528562	-47.01693348
0.76	76	-0.057	-1.005	-0.008	0.3437748	0.6875496	0.3437748	90.41850198	-2.5210152	-47.0112039
0.77	77	-0.058	-1.006	-0.009	0.4583664	0.7448454	0.286479	90.42423156	-2.52674478	-46.99974474
0.78	78	-0.057	-1.007	-0.008	0.4583664	0.7448454	0.2291832	90.42996114	-2.52674478	-46.99401516
0.79	79	-0.057	-1.007	-0.009	0.3437748	0.7448454	0.2291832	90.42996114	-2.52674478	-46.98828558
0.8	80	-0.057	-1.007	-0.007	0.3437748	0.859437	0.286479	90.34401744	-2.5496631	-46.99401516
0.81	81	-0.057	-1.006	-0.008	0.286479	0.8021412	0.286479	90.34974702	-2.55539268	-46.982556
0.82	82	-0.057	-1.005	-0.01	0.2291832	0.7448454	0.3437748	90.34974702	-2.55539268	-46.97682642
0.83	83	-0.057	-1.004	-0.01	0.2291832	0.6875496	0.3437748	90.34974702	-2.56112226	-46.97109684
0.84	84	-0.056	-1.005	-0.011	0.286479	0.7448454	0.3437748	90.3554766	-2.56685184	-46.95963768
0.85	85	-0.056	-1.007	-0.012	0.2291832	0.7448454	0.3437748	90.240885	-2.58404058	-46.97109684
0.86	86	-0.056	-1.007	-0.012	0.1718874	0.859437	0.286479	90.24661458	-2.58977016	-46.96536726
0.87	87	-0.055	-1.007	-0.012	0.1145916	0.8021412	0.2291832	90.24661458	-2.58977016	-46.9539081
0.88	88	-0.056	-1.007	-0.014	0.1145916	0.6302538	0.2291832	90.24661458	-2.59549974	-46.94817852
0.89	89	-0.057	-1.005	-0.013	0.1145916	0.6875496	0.1145916	90.24661458	-2.59549974	-46.94244894
0.9	90	-0.058	-1.003	-0.012	0.1718874	0.9167328	0.1718874	90.14921172	-2.61268848	-46.94817852
0.91	91	-0.055	-1.001	-0.012	0.1718874	0.8021412	0.1718874	90.1549413	-2.61841806	-46.93671936
0.92	92	-0.055	-1.001	-0.012	0.1718874	0.6875496	0.3437748	90.1549413	-2.61841806	-46.93098978
0.93	93	-0.056	-1.002	-0.011	0.0572958	0.6875496	0.286479	90.1549413	-2.62414764	-46.9252602
0.94	94	-0.057	-1.005	-0.01	0.0572958	0.7448454	0.2291832	90.1549413	-2.62414764	-46.91953062
0.95	95	-0.059	-1.006	-0.012	0.1145916	0.9740286	0.2291832	90.0403497	-2.65279554	-46.9252602
0.96	96	-0.06	-1.007	-0.013	0.0572958	0.859437	0.1718874	90.0403497	-2.65279554	-46.91380104
0.97	97	-0.057	-1.007	-0.011	0.0572958	0.6302538	0.4010706	90.0403497	-2.65852512	-46.90807146
0.98	98	-0.056	-1.007	-0.008	-0.0572958	0	0.2291832	90.0403497	-2.6642547	-46.90807146
0.99	99	-0.054	-1.005	-0.007	-0.0572958	-0.2291832	0.1145916	90.0403497	-2.6642547	-46.91380104
1	100	-0.054	-1.005	-0.009	-0.0572958	-0.1145916	0.0572958	89.80543692	-2.68717302	-46.94817852
1.01	101	-0.055	-1.004	-0.006	-0.1145916	-0.1718874	0.0572958	89.79970734	-2.6929026	-46.9539081
1.02	102	-0.055	-1.004	-0.007	0	-0.1145916	0.1145916	89.79970734	-2.6929026	-46.9539081
1.03	103	-0.056	-1.003	-0.009	-0.1145916	0	0.1718874	89.79970734	-2.6929026	-46.9539081
1.04	104	-0.055	-1.001	-0.009	-0.0572958	0	0.2291832	89.79970734	-2.6929026	-46.9539081
1.05	105	-0.056	-0.999	-0.01	0.1145916	0	0.1718874	89.667927	-2.7215505	-46.97682642
1.06	106	-0.055	-0.999	-0.007	0.3437748	-0.1145916	0.0572958	89.667927	-2.7215505	-46.97682642
1.07	107	-0.055	-1	-0.008	0.4583664	-0.0572958	0.0572958	89.67365658	-2.7215505	-46.97682642
1.08	108	-0.057	-0.999	-0.008	0.4583664	-0.2291832	0.0572958	89.67938616	-2.7215505	-46.97682642
1.09	109	-0.058	-1	-0.009	0.4010706	-0.3437748	0	89.68511574	-2.7215505	-46.982556
1.1	110	-0.059	-1.001	-0.009	0.5156622	-0.4010706	-0.0572958	89.60490162	-2.73873924	-46.99974474
1.11	111	-0.059	-1.003	-0.01	0.572958	-0.286479	-0.0572958	89.6106312	-2.73873924	-46.99974474
1.12	112	-0.059	-1.005	-0.009	0.6302538	-0.1145916	-0.0572958	89.62209036	-2.73873924	-47.00547432
1.13	113	-0.058	-1.006	-0.008	0.572958	-0.0572958	-0.0572958	89.62781994	-2.73873924	-47.00547432
1.14	114	-0.057	-1.005	-0.008	0.572958	-0.1718874	-0.0572958	89.63354952	-2.73873924	-47.00547432
1.15	115	-0.057	-1.007	-0.008	0.4583664	-0.1145916	-0.0572958	89.5246875	-2.76165756	-47.02266306
1.16	116	-0.057	-1.007	-0.009	0.4010706	-0.1145916	0	89.5246875	-2.76165756	-47.02839264
1.17	117	-0.058	-1.008	-0.009	0.3437748	0	0	89.53041708	-2.76165756	-47.02839264
1.18	118	-0.059	-1.009	-0.01	0.1718874	0	0	89.53041708	-2.76165756	-47.02839264
1.19	119	-0.061	-1.01	-0.009	0	0.0572958	0	89.53614666	-2.76165756	-47.02266306
1.2	120	-0.061	-1.009	-0.009	0	-0.0572958	0	89.12934648	-2.90489706	-47.07995886
1.21	121	-0.061	-1.007	-0.008	-0.0572958	-0.1145916	-0.1145916	89.12934648	-2.90489706	-47.07995886
1.22	122	-0.059	-1.007	-0.01	-0.2291832	-0.0572958	-0.286479	89.1236169	-2.89916748	-47.07995886
1.23	123	-0.057	-1.005	-0.009	-0.2291832	-0.1145916	-0.3437748	89.1236169	-2.8934379	-47.08568844
1.24	124	-0.057	-1.006	-0.008	-0.286479	-0.1145916	-0.3437748	89.11788732	-2.8934379	-47.08568844
1.25	125	-0.057	-1.004	-0.008	-0.286479	-0.286479	-0.4583664	89.07778026	-2.8934379	-47.09141802
1.26	126	-0.056	-1.002	-0.009	-0.4010706	-0.3437748	-0.4010706	89.07205068	-2.88770832	-47.0971476
1.27	127	-0.056	-1.003	-0.009	-0.3437748	-0.3437748	-0.4010706	89.0663211	-2.88197874	-47.10287718
1.28	128	-0.055	-1.003	-0.007	-0.2291832	-0.4010706	-0.3437748	89.0663211	-2.88197874	-47.10287718
1.29	129	-0.054	-1.003	-0.006	-0.1718874	-0.1718874	-0.2291832	89.0663211	-2.87624916	-47.10860676
1.3	130	-0.053	-1.003	-0.006	-0.1145916	-0.1718874	-0.1718874	88.96891824	-2.87051958	-47.12006592
1.31	131	-0.054	-1.004	-0.005	-0.0572958	-0.1718874	-0.0572958	88.96318866	-2.87051958	-47.1257955
1.32	132	-0.054	-1.004	-0.005	-0.1145916	-0.2291832	-0.0572958	88.96318866	-2.87051958	-47.1257955
1.33	133	-0.055	-1.005	-0.005	-0.0572958	-0.3437748	0	88.96318866	-2.87051958	-47.13152508
1.34	134	-0.057	-1.005	-0.007	-0.0572958	-0.4583664	-0.0572958	88.96318866	-2.87051958	-47.13725466
1.35	135	-0.059	-1.005	-0.006	0	-0.572958	-0.0572958	88.92881118	-2.88197874	-47.14298424
1.36	136	-0.058	-1.004	-0.005	0	-0.7448454	-0.1718874	88.92881118	-2.88197874	-47.1544434
1.37	137	-0.058	-1.003	-0.006	0	-0.7448454	-0.2291832	88.92881118	-2.88197874	-47.16017298
1.38	138	-0.059	-1.003	-0.006	0	-0.8021412	-0.286479	88.93454076	-2.87624916	-47.16590256
1.39	139	-0.06	-1.004	-0.007	0	-0.6302538	-0.1718874	88.93454076	-2.87624916	-47.17736172
1.4	140	-0.06	-1.003	-0.007	0	-0.4583664	-0.1145916	88.8944337	-2.89916748	-47.1830913
1.41	141	-0.06	-1.003	-0.006	0.1145916	-0.3437748	-0.1145916	88.90016328	-2.89916748	-47.18882088
1.42	142	-0.06	-1.003	-0.005	0.1718874	-0.3437748	-0.1718874	88.90016328	-2.8934379	-47.18882088
1.43	143	-0.059	-1.005	-0.006	0.1718874	-0.2291832	-0.1145916	88.90016328	-2.8934379	-47.19455046
1.44	144	-0.058	-1.007	-0.008	0.1145916	-0.1145916	-0.1718874	88.90589286	-2.8934379	-47.19455046
1.45	145	-0.058	-1.008	-0.005	0.0572958	-0.0572958	-0.2291832	88.84859706	-2.90489706	-47.20028004
1.46	146	-0.056	-1.009	-0.006	-0.0572958	0	-0.2291832	88.84859706	-2.90489706	-47.20028004
1.47	147	-0.055	-1.008	-0.008	-0.1718874	0	-0.1718874	88.84859706	-2.89916748	-47.20028004
1.48	148	-0.055	-1.007	-0.009	-0.2291832	-0.1145916	-0.1145916	88.84286748	-2.89916748	-47.20600962
1.49	149	-0.054	-1.005	-0.008	-0.2291832	-0.1145916	0	88.84286748	-2.89916748	-47.20600962
1.5	150	-0.055	-1.005	-0.009	-0.1145916	-0.0572958	0	88.64233218	-2.88197874	-47.22892794
1.51	151	-0.055	-1.005	-0.009	0	-0.0572958	0	88.64233218	-2.88197874	-47.22892794
1.52	152	-0.055	-1.006	-0.01	0	-0.0572958	0	88.64233218	-2.88197874	-47.22892794
1.53	153	-0.056	-1.007	-0.009	0	-0.286479	-0.1145916	88.64233218	-2.88197874	-47.23465752
1.54	154	-0.057	-1.006	-0.007	0.0572958	-0.1718874	-0.1718874	88.64806176	-2.88197874	-47.23465752
1.55	155	-0.056	-1.006	-0.006	0.0572958	-0.1718874	-0.0572958	88.6079547	-2.88770832	-47.2403871
1.56	156	-0.055	-1.005	-0.006	0	-0.0572958	0	88.6079547	-2.88770832	-47.2403871
1.57	157	-0.054	-1.004	-0.005	-0.0572958	0.0572958	0	88.6079547	-2.88770832	-47.2403871
1.58	158	-0.056	-1.005	-0.005	-0.1145916	0.0572958	0.0572958	88.6079547	-2.8934379	-47.2403871
1.59	159	-0.056	-1.007	-0.006	-0.1145916	0.1145916	0.0572958	88.60222512	-2.8934379	-47.2403871
1.6	160	-0.057	-1.008	-0.008	-0.2291832	0.2291832	0.1145916	88.5793068	-2.89916748	-47.2403871
1.61	161	-0.057	-1.006	-0.008	-0.1718874	0.1718874	0.1718874	88.5793068	-2.89916748	-47.23465752
1.62	162	-0.058	-1.006	-0.005	-0.0572958	0.1145916	0.1718874	88.5793068	-2.90489706	-47.23465752
1.63	163	-0.059	-1.003	-0.002	-0.0572958	-0.0572958	0.286479	88.57357722	-2.90489706	-47.23465752
1.64	164	-0.06	-1.002	-0.005	-0.1718874	-0.1145916	0.1718874	88.57357722	-2.91062664	-47.23465752
1.65	165	-0.059	-1.002	-0.007	-0.0572958	-0.1718874	0.0572958	88.53347016	-2.93354496	-47.2403871
1.66	166	-0.058	-1.004	-0.006	0.1145916	-0.1718874	0	88.53919974	-2.93354496	-47.24611668
1.67	167	-0.058	-1.005	-0.003	0.4010706	0.0572958	0	88.53919974	-2.93354496	-47.24611668
1.68	168	-0.057	-1.007	-0.002	0.3437748	0.1718874	0	88.54492932	-2.93354496	-47.2403871
1.69	169	-0.057	-1.005	-0.002	0.1145916	0.2291832	0	88.54492932	-2.93354496	-47.2403871
1.7	170	-0.056	-1.005	-0.001	-0.0572958	0.286479	0	88.54492932	-2.93927454	-47.23465752
1.71	171	-0.055	-1.004	-0.004	-0.0572958	0.2291832	0	88.54492932	-2.93927454	-47.23465752
1.72	172	-0.054	-1.004	-0.007	0	0.2291832	0	88.54492932	-2.93927454	-47.22892794
1.73	173	-0.053	-1.004	-0.006	0	0.1718874	0	88.54492932	-2.93927454	-47.22892794
1.74	174	-0.054	-1.005	-0.005	0.0572958	0.0572958	0.0572958	88.54492932	-2.93927454	-47.22892794
1.75	175	-0.056	-1.005	-0.005	0	0	0	88.51628142	-2.96219286	-47.22892794
1.76	176	-0.058	-1.005	-0.004	0	0.1145916	0	88.51628142	-2.96219286	-47.22892794
1.77	177	-0.059	-1.005	-0.004	0	0.286479	0	88.51628142	-2.96219286	-47.22892794
1.78	178	-0.057	-1.006	-0.005	-0.0572958	0.286479	0	88.51628142	-2.96219286	-47.22319836
1.79	179	-0.056	-1.005	-0.006	-0.0572958	0.3437748	0	88.51628142	-2.96219286	-47.21746878
1.8	180	-0.055	-1.007	-0.005	0	0.3437748	0.0572958	88.50482226	-2.96219286	-47.21746878
1.81	181	-0.055	-1.008	-0.007	-0.0572958	0.3437748	0	88.50482226	-2.96219286	-47.2117392
1.82	182	-0.056	-1.007	-0.005	-0.1718874	0.4010706	0.0572958	88.50482226	-2.96219286	-47.20600962
1.83	183	-0.056	-1.007	-0.004	-0.1145916	0.4010706	0.0572958	88.50482226	-2.96219286	-47.20600962
1.84	184	-0.058	-1.007	-0.003	-0.286479	0.286479	0.1718874	88.49909268	-2.96219286	-47.20028004
1.85	185	-0.058	-1.006	-0.004	-0.286479	0.0572958	0.1145916	88.48763352	-2.97365202	-47.20028004
1.86	186	-0.059	-1.006	-0.006	-0.4010706	0	0	88.48190394	-2.97365202	-47.20028004
1.87	187	-0.058	-1.005	-0.006	-0.4583664	0	-0.0572958	88.47617436	-2.97365202	-47.20028004
1.88	188	-0.057	-1.005	-0.008	-0.2291832	0.1145916	-0.1145916	88.47617436	-2.97365202	-47.20028004
1.89	189	-0.056	-1.004	-0.007	-0.0572958	0.2291832	-0.2291832	88.47044478	-2.96792244	-47.20028004
1.9	190	-0.055	-1.003	-0.007	0	0.2291832	-0.1145916	88.45898562	-2.96792244	-47.19455046
1.91	191	-0.056	-1.001	-0.005	0.1145916	0	-0.1145916	88.4647152	-2.96219286	-47.19455046
1.92	192	-0.057	-1.003	-0.005	0.1145916	0	-0.1145916	88.4647152	-2.96219286	-47.19455046
1.93	193	-0.055	-1.004	-0.004	0.1145916	0	0	88.4647152	-2.96219286	-47.20028004
1.94	194	-0.054	-1.005	-0.004	0.1145916	-0.0572958	-0.0572958	88.4647152	-2.96219286	-47.20028004
1.95	195	-0.054	-1.004	-0.003	0.1718874	-0.1145916	0	88.47044478	-2.9507337	-47.20028004
1.96	196	-0.055	-1.005	-0.003	0.1718874	-0.0572958	0	88.47044478	-2.9507337	-47.20028004
1.97	197	-0.055	-1.007	-0.002	0.1145916	0	0	88.47617436	-2.9507337	-47.20028004
1.98	198	-0.056	-1.008	-0.002	0	-0.0572958	0	88.47617436	-2.9507337	-47.20028004
1.99	199	-0.057	-1.008	-0.003	0	0	0	88.47617436	-2.9507337	-47.20028004
2	200	-0.055	-1.007	-0.003	-0.0572958	0	0	88.48763352	-2.92781538	-47.20028004
2.01	201	-0.054	-1.007	-0.004	-0.0572958	0	0	88.48763352	-2.92781538	-47.20028004
2.02	202	-0.055	-1.005	-0.002	0	0	0	88.48763352	-2.92781538	-47.20028004
2.03	203	-0.055	-1.006	-0.002	0	-0.0572958	0	88.48763352	-2.92781538	-47.20028004
2.04	204	-0.056	-1.005	-0.003	0	-0.0572958	0	88.48763352	-2.92781538	-47.20028004
2.05	205	-0.057	-1.005	-0.004	0	0	0	88.47617436	-2.9507337	-47.20028004
2.06	206	-0.057	-1.006	-0.003	0.0572958	0	0	88.47617436	-2.9507337	-47.20028004
2.07	207	-0.058	-1.007	-0.001	0	0.1718874	0	88.47617436	-2.9507337	-47.20028004
2.08	208	-0.057	-1.006	0	-0.1145916	0.1718874	0.0572958	88.47617436	-2.9507337	-47.20028004
2.09	209	-0.057	-1.005	-0.001	-0.1718874	0.2291832	0	88.47044478	-2.9507337	-47.19455046
2.1	210	-0.057	-1.005	-0.003	-0.286479	0.286479	0	88.47044478	-2.95646328	-47.19455046
2.11	211	-0.056	-1.006	-0.005	-0.1718874	0.2291832	0	88.47044478	-2.95646328	-47.18882088
2.12	212	-0.055	-1.006	-0.005	-0.2291832	0.2291832	0	88.4647152	-2.95646328	-47.18882088
2.13	213	-0.054	-1.005	-0.006	-0.0572958	0.1718874	-0.0572958	88.4647152	-2.95646328	-47.18882088
2.14	214	-0.053	-1.007	-0.006	0.0572958	-0.0572958	0	88.4647152	-2.95646328	-47.18882088
2.15	215	-0.052	-1.006	-0.005	0	-0.1718874	0	88.45325604	-2.93927454	-47.18882088
2.16	216	-0.054	-1.006	-0.005	0	-0.5156622	0.0572958	88.45325604	-2.93927454	-47.19455046
2.17	217	-0.057	-1.007	-0.004	-0.0572958	-0.8021412	0.1145916	88.45325604	-2.93927454	-47.20600962
2.18	218	-0.059	-1.006	-0.006	-0.286479	-1.0886202	0.1145916	88.45325604	-2.94500412	-47.2117392
2.19	219	-0.061	-1.005	-0.007	-0.286479	-0.9167328	0	88.45325604	-2.94500412	-47.22319836
2.2	220	-0.058	-1.003	-0.005	-0.286479	-0.2291832	0.1145916	88.44752646	-2.94500412	-47.22892794
2.21	221	-0.055	-1.001	-0.001	-0.2291832	0.4010706	0.286479	88.44752646	-2.9507337	-47.22319836
2.22	222	-0.054	-1.001	0	-0.572958	0.9740286	0.572958	88.44179688	-2.95646328	-47.2117392
2.23	223	-0.055	-1.004	0	-0.8021412	1.3750992	0.7448454	88.43033772	-2.96219286	-47.20028004
2.24	224	-0.054	-1.008	0.001	-1.0886202	1.432395	0.8021412	88.41887856	-2.96792244	-47.1830913
2.25	225	-0.056	-1.014	-0.001	-1.432395	1.432395	0.859437	88.40168982	-2.9793816	-47.16590256
2.26	226	-0.056	-1.015	-0.001	-1.7761698	1.3750992	0.6875496	88.38450108	-2.98511118	-47.1544434
2.27	227	-0.054	-1.016	0	-1.8907614	1.3178034	0.6875496	88.36158276	-2.99657034	-47.14298424
2.28	228	-0.053	-1.016	0	-2.0626488	1.0313244	0.8021412	88.34439402	-3.00229992	-47.13152508
2.29	229	-0.054	-1.013	-0.001	-2.1199446	0.6302538	0.859437	88.3214757	-3.01375908	-47.1257955
2.3	230	-0.054	-1.009	-0.003	-2.2345362	0.4010706	0.8021412	88.29855738	-3.01948866	-47.12006592
2.31	231	-0.054	-1.007	-0.004	-2.005353	0.4010706	0.8021412	88.27563906	-3.02521824	-47.11433634
2.32	232	-0.054	-1.009	0.002	-1.8907614	0.4010706	0.8021412	88.25845032	-3.0366774	-47.11433634
2.33	233	-0.054	-1.009	0.004	-2.0626488	0.5156622	0.6875496	88.235532	-3.04240698	-47.10860676
2.34	234	-0.055	-1.009	0	-2.291832	0.572958	0.572958	88.21261368	-3.04813656	-47.10287718
2.35	235	-0.056	-1.01	-0.002	-2.5210152	0.4583664	0.5156622	88.18969536	-3.05386614	-47.0971476
2.36	236	-0.055	-1.009	-0.001	-2.291832	0.4010706	0.572958	88.16677704	-3.05959572	-47.09141802
2.37	237	-0.054	-1.01	0	-2.4637194	0.2291832	0.6302538	88.13812914	-3.0653253	-47.09141802
2.38	238	-0.055	-1.009	0.001	-2.86479	0.1145916	0.6302538	88.10948124	-3.07105488	-47.08568844
2.39	239	-0.057	-1.006	0	-3.2658606	0.1718874	0.6302538	88.07510376	-3.07678446	-47.08568844
2.4	240	-0.059	-1.004	0	-3.6096354	0.2291832	0.572958	88.04645586	-3.08824362	-47.08568844
2.41	241	-0.058	-1.004	-0.004	-3.7815228	0.5156622	0.4583664	88.0063488	-3.0939732	-47.07995886
2.42	242	-0.058	-1.005	-0.008	-3.9534102	0.8021412	0.572958	87.96624174	-3.09970278	-47.0684997
2.43	243	-0.059	-1.008	-0.01	-4.010706	0.8021412	0.8021412	87.9204051	-3.10543236	-47.06277012
2.44	244	-0.06	-1.009	-0.011	-4.2398892	0.9167328	0.9740286	87.88029804	-3.11689152	-47.05131096
2.45	245	-0.062	-1.009	-0.01	-4.4690724	1.0313244	1.145916	87.8344614	-3.12835068	-47.0398518
2.46	246	-0.064	-1.011	-0.012	-4.6982556	1.3178034	1.2032118	87.78289518	-3.13980984	-47.02839264
2.47	247	-0.066	-1.013	-0.013	-5.0420304	1.8334656	1.2032118	87.73132896	-3.151269	-47.0112039
2.48	248	-0.066	-1.013	-0.015	-5.3858052	2.3491278	1.145916	87.67403316	-3.16272816	-46.98828558
2.49	249	-0.068	-1.014	-0.011	-5.7868758	2.578311	1.0313244	87.61100778	-3.17418732	-46.95963768
2.5	250	-0.069	-1.011	-0.012	-6.4744254	2.578311	0.9167328	87.5479824	-3.18564648	-46.93671936
2.51	251	-0.07	-1.005	-0.019	-6.9327918	2.5210152	0.6875496	87.47349786	-3.19710564	-46.91380104
2.52	252	-0.068	-1.003	-0.026	-6.8182002	2.6356068	0.3437748	87.4047429	-3.19710564	-46.88515314
2.53	253	-0.065	-1.001	-0.032	-6.5317212	2.4637194	0.1145916	87.33598794	-3.19710564	-46.86223482
2.54	254	-0.064	-1.003	-0.034	-5.9587632	2.291832	-0.1718874	87.27296256	-3.19710564	-46.8393165
2.55	255	-0.066	-1.007	-0.022	-5.3858052	2.291832	-0.3437748	87.22139634	-3.19710564	-46.81639818
2.56	256	-0.062	-1.007	-0.002	-5.7868758	3.0939732	-0.4010706	87.15837096	-3.19137606	-46.78775028
2.57	257	-0.055	-1.007	-0.001	-6.5317212	4.3544808	-0.0572958	87.089616	-3.19137606	-46.74764322
2.58	258	-0.05	-1.012	-0.011	-7.2765666	4.6409598	0.4010706	87.00940188	-3.19710564	-46.70180658
2.59	259	-0.05	-1.02	-0.019	-7.9641162	4.2398892	1.0886202	86.92918776	-3.20283522	-46.65596994
2.6	260	-0.053	-1.026	-0.018	-8.59437	3.8388186	1.718874	86.83751448	-3.22002396	-46.62159246
2.61	261	-0.057	-1.026	-0.023	-9.167328	3.6669312	2.0626488	86.7458412	-3.24294228	-46.5814854
2.62	262	-0.062	-1.022	-0.028	-9.5683986	3.724227	2.2345362	86.64270876	-3.2658606	-46.54710792
2.63	263	-0.063	-1.017	-0.029	-9.6256944	3.6096354	2.0626488	86.5453059	-3.28304934	-46.50700086
2.64	264	-0.065	-1.016	-0.027	-9.740286	3.437748	1.718874	86.44217346	-3.30023808	-46.47262338
2.65	265	-0.065	-1.016	-0.019	-10.1986524	2.9793816	1.3178034	86.33904102	-3.31742682	-46.44397548
2.66	266	-0.062	-1.015	-0.016	-10.9434978	2.6356068	0.859437	86.22444942	-3.3231564	-46.42105716
2.67	267	-0.059	-1.014	-0.023	-11.745639	2.4637194	0.6302538	86.10412824	-3.32888598	-46.39813884
2.68	268	-0.057	-1.015	-0.028	-12.4904844	2.1199446	0.572958	85.97807748	-3.33461556	-46.37522052
2.69	269	-0.057	-1.016	-0.03	-13.178034	1.718874	0.7448454	85.84056756	-3.34607472	-46.35803178
2.7	270	-0.059	-1.015	-0.031	-13.9801752	1.432395	0.859437	85.70305764	-3.3518043	-46.34657262
2.71	271	-0.059	-1.013	-0.034	-14.5531332	1.6042824	1.0886202	85.55408856	-3.36326346	-46.32938388
2.72	272	-0.058	-1.011	-0.039	-14.8396122	1.8334656	1.145916	85.3993899	-3.37472262	-46.31219514
2.73	273	-0.061	-1.007	-0.04	-15.2406828	1.8907614	1.2032118	85.24469124	-3.39191136	-46.2950064
2.74	274	-0.061	-1.005	-0.041	-15.6417534	2.005353	1.145916	85.084263	-3.40337052	-46.27781766
2.75	275	-0.063	-1.008	-0.043	-15.9282324	2.005353	1.0313244	84.92383476	-3.41482968	-46.25489934
2.76	276	-0.064	-1.012	-0.043	-16.8449652	2.1199446	1.0313244	84.75194736	-3.42628884	-46.2377106
2.77	277	-0.062	-1.016	-0.036	-17.9335854	2.0626488	1.145916	84.5686008	-3.437748	-46.21479228
2.78	278	-0.065	-1.019	-0.035	-18.907614	1.8334656	1.2032118	84.37379508	-3.44920716	-46.19760354
2.79	279	-0.07	-1.023	-0.032	-20.05353	1.5469866	1.0886202	84.1675302	-3.46066632	-46.18614438
2.8	280	-0.074	-1.023	-0.035	-21.485925	1.8907614	0.859437	83.95553574	-3.47212548	-46.16895564
2.81	281	-0.075	-1.025	-0.043	-22.4599536	2.6356068	0.572958	83.72062296	-3.47785506	-46.14030774
2.82	282	-0.071	-1.027	-0.042	-23.2620948	3.6669312	0.5156622	83.48571018	-3.47785506	-46.10593026
2.83	283	-0.065	-1.025	-0.036	-23.9496444	4.4117766	0.5156622	83.23933824	-3.48358464	-46.0658232
2.84	284	-0.06	-1.026	-0.043	-25.1528562	4.4690724	0.6875496	82.98150714	-3.48931422	-46.01998656
2.85	285	-0.061	-1.027	-0.051	-26.5279554	4.1825934	0.859437	82.71221688	-3.4950438	-45.98560908
2.86	286	-0.062	-1.024	-0.055	-27.7311672	4.010706	0.859437	82.42573788	-3.50650296	-45.94550202
2.87	287	-0.065	-1.021	-0.062	-28.7624916	4.1825934	0.6302538	82.1335293	-3.50650296	-45.90539496
2.88	288	-0.069	-1.02	-0.066	-29.5646328	4.6409598	0.4010706	81.82986156	-3.51223254	-45.85955832
2.89	289	-0.068	-1.023	-0.073	-30.7105488	5.2139178	0.0572958	81.50900508	-3.50650296	-45.81372168
2.9	290	-0.066	-1.025	-0.082	-31.5699858	5.6149884	-0.1145916	81.1881486	-3.50077338	-45.76215546
2.91	291	-0.063	-1.027	-0.091	-32.2575354	5.9587632	-0.2291832	80.85583296	-3.4950438	-45.70485966
2.92	292	-0.062	-1.027	-0.097	-33.231564	5.9014674	-0.2291832	80.51778774	-3.48931422	-45.65329344
2.93	293	-0.058	-1.022	-0.098	-34.4920716	5.72958	0.1145916	80.16255378	-3.48358464	-45.59599764
2.94	294	-0.054	-1.017	-0.101	-35.0077338	5.156622	0.4010706	79.80159024	-3.48358464	-45.550161
2.95	295	-0.057	-1.012	-0.106	-35.9817624	4.7555514	0.4583664	79.43489712	-3.48931422	-45.50432436
2.96	296	-0.06	-1.01	-0.111	-36.7839036	4.6409598	0.0572958	79.06247442	-3.48358464	-45.4642173
2.97	297	-0.066	-1.006	-0.12	-38.101707	5.2139178	-0.3437748	78.67286298	-3.47785506	-45.41838066
2.98	298	-0.073	-1.004	-0.124	-36.2682414	6.1879464	-0.572958	78.30044028	-3.46066632	-45.36108486
2.99	299	-0.075	-1.006	-0.135	-41.9405256	6.8182002	-0.9740286	77.8649922	-3.44347758	-45.30378906
3	300	-0.077	-0.991	-0.138	-40.7373138	7.161975	-1.145916	77.45246244	-3.42628884	-45.2350341
3.01	301	-0.081	-0.988	-0.139	-41.6540466	7.6203414	-1.2032118	77.02274394	-3.40337052	-45.17200872
3.02	302	-0.078	-0.995	-0.144	-42.0551172	8.5370742	-1.3178034	76.59302544	-3.37472262	-45.0917946
3.03	303	-0.074	-1.005	-0.159	-43.0864416	9.1100322	-1.2605076	76.1461182	-3.3518043	-45.01158048
3.04	304	-0.076	-1.015	-0.169	-44.0604702	9.740286	-1.0886202	75.69348138	-3.3231564	-44.92563678
3.05	305	-0.077	-1.013	-0.172	-44.7480198	10.4278356	-0.9740286	75.23511498	-3.2945085	-44.82823392
3.06	306	-0.068	-1.009	-0.181	-45.3782736	10.4851314	-0.5156622	74.771019	-3.27159018	-44.73656064
3.07	307	-0.057	-1	-0.193	-46.0658232	9.5111028	0.286479	74.29546386	-3.26013102	-44.64488736
3.08	308	-0.055	-0.996	-0.205	-47.0971476	7.6203414	1.145916	73.81417914	-3.25440144	-44.5761324
3.09	309	-0.056	-1.001	-0.219	-48.128472	6.2452422	1.4896908	73.32143526	-3.26013102	-44.51310702
3.1	310	-0.063	-1.001	-0.23	-49.5035712	5.7868758	1.2032118	72.81723222	-3.26013102	-44.4615408
3.11	311	-0.064	-0.993	-0.227	-49.6181628	5.72958	0.7448454	72.3072996	-3.26013102	-44.404245
3.12	312	-0.062	-0.986	-0.23	-50.133825	6.016059	0.1145916	71.79736698	-3.24867186	-44.35267878
3.13	313	-0.063	-0.982	-0.24	-50.706783	6.589017	-0.3437748	71.2759752	-3.23148312	-44.29538298
3.14	314	-0.066	-0.975	-0.254	-51.2224452	7.2765666	-0.572958	70.74885384	-3.2085648	-44.2323576
3.15	315	-0.066	-0.975	-0.264	-51.7381074	7.5630456	-0.4583664	70.22173248	-3.19137606	-44.16933222
3.16	316	-0.068	-0.972	-0.275	-52.5402486	7.734933	-0.286479	69.68315196	-3.16845774	-44.10057726
3.17	317	-0.062	-0.966	-0.292	-53.6861646	8.1360036	-0.2291832	69.13311228	-3.14553942	-44.02609272
3.18	318	-0.054	-0.959	-0.3	-53.858052	8.4797784	-0.4010706	68.5830726	-3.11689152	-43.95160818
3.19	319	-0.045	-0.952	-0.315	-53.7434604	8.4797784	-0.5156622	68.03303292	-3.0939732	-43.88285322
3.2	320	-0.042	-0.945	-0.338	-53.9153478	7.8495246	-0.5156622	67.48299324	-3.0653253	-43.81409826
3.21	321	-0.04	-0.942	-0.352	-53.858052	7.2765666	-0.4583664	66.93295356	-3.04240698	-43.75107288
3.22	322	-0.037	-0.941	-0.36	-54.144531	7.2765666	-0.5156622	66.3771843	-3.01375908	-43.69377708
3.23	323	-0.03	-0.937	-0.342	-54.8320806	7.2192708	-0.7448454	65.81568546	-2.99084076	-43.6307517
3.24	324	-0.033	-0.928	-0.33	-55.6915176	6.8182002	-0.859437	65.24845704	-2.96219286	-43.57918548
3.25	325	-0.041	-0.923	-0.336	-55.9207008	6.4171296	-1.0313244	64.68122862	-2.93354496	-43.52761926
3.26	326	-0.059	-0.942	-0.357	-55.7488134	6.7036086	-1.0313244	64.10827062	-2.90489706	-43.47605304
3.27	327	-0.057	-0.961	-0.361	-57.7541664	7.5057498	-1.432395	63.51812388	-2.86479	-43.41875724
3.28	328	-0.054	-0.97	-0.377	-59.5303362	8.5370742	-1.718874	62.9107884	-2.81895336	-43.35000228
3.29	329	-0.05	-0.967	-0.4	-61.879464	8.9954406	-1.8907614	62.27480502	-2.77311672	-43.2869769
3.3	330	-0.048	-0.944	-0.417	-62.3378304	8.5370742	-1.432395	61.64455122	-2.73300966	-43.21822194
3.31	331	-0.036	-0.922	-0.422	-62.0513514	7.734933	-0.5156622	61.00856784	-2.69863218	-43.15519656
3.32	332	-0.037	-0.897	-0.434	-62.6816052	7.2192708	0.286479	60.36685488	-2.67571386	-43.09790076
3.33	333	-0.044	-0.878	-0.445	-61.2492102	6.875496	0.572958	59.74233066	-2.65852512	-43.03487538
3.34	334	-0.057	-0.879	-0.434	-59.9314068	6.7036086	0.4010706	59.1292656	-2.6356068	-42.97757958
3.35	335	-0.069	-0.896	-0.469	-60.447069	6.9900876	-0.286479	58.51620054	-2.6069589	-42.92601336
3.36	336	-0.081	-0.912	-0.489	-60.0459984	6.7609044	-0.9740286	57.90313548	-2.57258142	-42.87444714
3.37	337	-0.073	-0.927	-0.514	-59.9314068	6.7036086	-1.718874	57.29007042	-2.53247436	-42.8286105
3.38	338	-0.051	-0.936	-0.541	-59.1865614	5.443101	-1.718874	56.68846452	-2.49809688	-42.79423302
3.39	339	-0.029	-0.928	-0.555	-59.301153	4.0680018	-1.432395	56.08685862	-2.46944898	-42.7713147
3.4	340	-0.019	-0.926	-0.577	-58.9000824	3.2085648	-1.3178034	55.48525272	-2.44653066	-42.75985554
3.41	341	-0.024	-0.91	-0.587	-58.728195	3.2085648	-1.0886202	54.8893764	-2.42934192	-42.73693722
3.42	342	-0.049	-0.892	-0.609	-58.9000824	4.297185	-0.9167328	54.2877705	-2.4064236	-42.7140189
3.43	343	-0.081	-0.889	-0.631	-56.6082504	5.8441716	-1.432395	53.7148125	-2.36631654	-42.67391184
3.44	344	-0.106	-0.875	-0.655	-56.0925882	6.875496	-2.291832	53.1418545	-2.3204799	-42.63380478
3.45	345	-0.097	-0.861	-0.67	-54.43101	7.5630456	-3.4950438	52.58608524	-2.25745452	-42.5994273
3.46	346	-0.072	-0.863	-0.676	-52.3110654	8.1932994	-4.3544808	52.04750472	-2.18296998	-42.55932024
3.47	347	-0.045	-0.852	-0.691	-52.4829528	9.2246238	-4.2398892	51.51465378	-2.09702628	-42.5134836
3.48	348	-0.023	-0.837	-0.689	-51.0505578	9.9121734	-3.2085648	50.993262	-2.02254174	-42.46191738
3.49	349	-0.011	-0.824	-0.693	-50.3057124	9.5111028	-2.1772404	50.4775998	-1.95378678	-42.398892
3.5	350	-0.014	-0.811	-0.702	-49.6754586	9.2246238	-1.2605076	49.96766718	-1.89649098	-42.33586662
3.51	351	-0.021	-0.801	-0.703	-47.6128098	9.6829902	-0.572958	49.48065288	-1.8334656	-42.26711166
3.52	352	-0.029	-0.791	-0.711	-46.8106686	9.8548776	-0.4583664	49.00509774	-1.7761698	-42.1983567
3.53	353	-0.031	-0.778	-0.718	-45.8939358	9.6256944	-1.3178034	48.53527218	-1.71314442	-42.13533132
3.54	354	-0.026	-0.771	-0.723	-43.4875122	8.7662574	-1.8907614	48.08836494	-1.65011904	-42.0837651
3.55	355	-0.026	-0.751	-0.706	-41.825934	7.9641162	-2.6929026	47.65864644	-1.58136408	-42.04365804
3.56	356	-0.017	-0.729	-0.694	-40.9092012	8.59437	-3.5523396	47.2403871	-1.50687954	-42.00355098
3.57	357	-0.006	-0.717	-0.706	-39.6486936	8.7662574	-3.8961144	46.83358692	-1.42666542	-41.96344392
3.58	358	-0.003	-0.702	-0.701	-38.3308902	8.4797784	-3.5523396	46.44397548	-1.3464513	-41.92906644
3.59	359	-0.004	-0.69	-0.709	-36.096354	8.021412	-2.9220858	46.07728236	-1.27769634	-41.88895938
3.6	360	-0.007	-0.683	-0.707	-34.3201842	7.2765666	-2.291832	45.7220484	-1.21467096	-41.8545819
3.61	361	-0.011	-0.671	-0.703	-32.7159018	6.2452422	-2.005353	45.38973276	-1.16310474	-41.825934
3.62	362	-0.01	-0.662	-0.706	-30.4240698	5.7868758	-2.005353	45.08033544	-1.1172681	-41.7972861
3.63	363	-0.012	-0.651	-0.704	-28.4187168	5.6149884	-2.2345362	44.78812686	-1.06570188	-41.77436778
3.64	364	-0.013	-0.642	-0.711	-25.9549974	5.5576926	-2.6929026	44.52456618	-1.01413566	-41.75144946
3.65	365	-0.015	-0.638	-0.712	-23.4339822	5.5576926	-3.0366774	44.27819424	-0.95683986	-41.73426072
3.66	366	-0.016	-0.637	-0.71	-21.485925	6.4171296	-3.2658606	44.05474062	-0.89381448	-41.7113424
3.67	367	-0.017	-0.638	-0.713	-19.8816426	7.1046792	-3.0939732	43.85420532	-0.82505952	-41.68842408
3.68	368	-0.012	-0.639	-0.715	-18.3919518	7.5057498	-2.6929026	43.66512918	-0.75630456	-41.6540466
3.69	369	-0.013	-0.642	-0.722	-16.9595568	7.7922288	-2.2345362	43.49324178	-0.6875496	-41.61393954
3.7	370	-0.015	-0.641	-0.724	-15.5271618	7.8495246	-1.7761698	43.32135438	-0.62452422	-41.57383248
3.71	371	-0.009	-0.641	-0.723	-14.610429	7.2765666	-1.5469866	43.1723853	-0.56149884	-41.53372542
3.72	372	-0.002	-0.642	-0.721	-13.8655836	6.875496	-1.432395	43.0291458	-0.50420304	-41.49934794
3.73	373	0.006	-0.642	-0.725	-12.5477802	6.1879464	-1.432395	42.90309504	-0.45263682	-41.46497046
3.74	374	0.004	-0.645	-0.734	-11.6310474	5.6722842	-1.2605076	42.78277386	-0.40680018	-41.43632256
3.75	375	-0.001	-0.644	-0.735	-10.3705398	4.870143	-1.0886202	42.66245268	-0.36669312	-41.40767466
3.76	376	-0.008	-0.645	-0.729	-9.2819196	4.4690724	-1.145916	42.5707794	-0.32658606	-41.39048592
3.77	377	-0.014	-0.647	-0.729	-8.7662574	4.8128472	-1.6042824	42.47910612	-0.286479	-41.3675676
3.78	378	-0.016	-0.651	-0.736	-8.307891	4.9274388	-2.1199446	42.39316242	-0.23491278	-41.35037886
3.79	379	-0.019	-0.658	-0.737	-7.7922288	5.0993262	-2.3491278	42.3129483	-0.18334656	-41.33319012
3.8	380	-0.013	-0.663	-0.736	-7.2192708	5.5003968	-2.1772404	42.23273418	-0.13178034	-41.3102718
3.81	381	-0.002	-0.669	-0.745	-6.589017	5.9014674	-1.718874	42.16397922	-0.08021412	-41.2816239
3.82	382	0.001	-0.679	-0.755	-6.4171296	5.7868758	-1.2032118	42.09522426	-0.0286479	-41.252976
3.83	383	0.001	-0.69	-0.751	-6.4171296	4.7555514	-0.9167328	42.03219888	0	-41.2243281
3.84	384	-0.002	-0.694	-0.746	-6.875496	3.4950438	-0.8021412	41.95771434	0.03437748	-41.20713936
3.85	385	-0.004	-0.695	-0.761	-6.9900876	2.578311	-1.0886202	41.8832298	0.0572958	-41.20140978
3.86	386	0	-0.7	-0.761	-6.875496	2.6356068	-1.4896908	41.81447484	0.0859437	-41.18995062
3.87	387	0.002	-0.704	-0.764	-6.5317212	2.9220858	-2.0626488	41.74571988	0.1145916	-41.18995062
3.88	388	0.004	-0.704	-0.758	-6.4744254	2.578311	-2.3491278	41.67696492	0.14896908	-41.18995062
3.89	389	0.002	-0.7	-0.754	-6.4744254	1.8907614	-2.291832	41.61393954	0.17761698	-41.18995062
3.9	390	0	-0.69	-0.751	-6.6463128	1.6615782	-2.2345362	41.539455	0.2005353	-41.1956802
3.91	391	0.003	-0.679	-0.737	-6.302538	1.7761698	-2.1772404	41.47642962	0.2291832	-41.20140978
3.92	392	0.004	-0.674	-0.734	-6.2452422	1.9480572	-2.291832	41.41340424	0.2578311	-41.20713936
3.93	393	0.009	-0.674	-0.75	-6.016059	2.005353	-2.3491278	41.35037886	0.286479	-41.20713936
3.94	394	0.011	-0.678	-0.745	-5.5576926	1.3750992	-2.0626488	41.29308306	0.30939732	-41.21286894
3.95	395	0.009	-0.682	-0.728	-5.156622	0.572958	-1.6042824	41.24724642	0.32658606	-41.2243281
3.96	396	0.006	-0.683	-0.724	-4.8128472	0.4010706	-1.2032118	41.1956802	0.33804522	-41.23005768
3.97	397	0.003	-0.684	-0.722	-4.5263682	1.0313244	-1.2032118	41.14984356	0.34950438	-41.23005768
3.98	398	-0.002	-0.679	-0.715	-4.1825934	1.145916	-1.432395	41.1097365	0.3724227	-41.23578726
3.99	399	-0.005	-0.675	-0.713	-4.010706	1.7761698	-1.6615782	41.06962944	0.39534102	-41.23578726
4	400	0	-0.669	-0.704	-3.3804522	2.291832	-1.7761698	41.04671112	0.41825934	-41.23005768
4.01	401	0.005	-0.665	-0.7	-3.2658606	2.2345362	-1.7761698	41.01233364	0.44690724	-41.23005768
4.02	402	0.014	-0.665	-0.727	-2.7501984	2.4064236	-1.6615782	40.98368574	0.47555514	-41.23005768
4.03	403	0.017	-0.67	-0.71	-1.432395	2.3491278	-1.4896908	40.966497	0.50420304	-41.2243281
4.04	404	0.016	-0.687	-0.723	-0.7448454	2.291832	-1.3750992	40.96076742	0.52712136	-41.21859852
4.05	405	0.021	-0.701	-0.726	-0.3437748	2.5210152	-1.2605076	40.98368574	0.56722842	-41.20713936
4.06	406	0.02	-0.713	-0.733	-0.286479	2.7501984	-1.3178034	40.97795616	0.59587632	-41.20140978
4.07	407	0.015	-0.716	-0.725	-0.2291832	3.151269	-1.2032118	40.97795616	0.62452422	-41.18995062
4.08	408	0.011	-0.72	-0.735	-0.9740286	3.2658606	-0.8021412	40.966497	0.65317212	-41.17276188
4.09	409	0.002	-0.719	-0.736	-1.0313244	3.5523396	-0.4583664	40.95503784	0.68182002	-41.15557314
4.1	410	0	-0.718	-0.732	-0.6302538	3.9534102	-0.286479	40.97222658	0.70473834	-41.12692524
4.11	411	0.006	-0.717	-0.726	-1.2032118	4.4690724	-0.4010706	40.96076742	0.73911582	-41.09827734
4.12	412	0.01	-0.717	-0.724	-1.432395	4.7555514	-1.0313244	40.94930826	0.78495246	-41.07535902
4.13	413	0.02	-0.717	-0.725	-1.0886202	5.443101	-1.432395	40.93211952	0.8307891	-41.0524407
4.14	414	0.027	-0.72	-0.73	-0.6302538	5.8441716	-1.718874	40.92638994	0.8880849	-41.0237928
4.15	415	0.033	-0.715	-0.717	-0.3437748	6.4171296	-2.005353	40.94357868	0.95683986	-40.9951449
4.16	416	0.035	-0.709	-0.716	-0.0572958	6.589017	-2.1772404	40.94357868	1.01986524	-40.966497
4.17	417	0.036	-0.705	-0.709	0	6.1306506	-2.3491278	40.94357868	1.07716104	-40.94357868
4.18	418	0.043	-0.702	-0.696	-0.3437748	5.72958	-2.4064236	40.9378491	1.13445684	-40.92638994
4.19	419	0.043	-0.692	-0.693	-0.4010706	5.156622	-2.291832	40.93211952	1.18602306	-40.9092012
4.2	420	0.047	-0.688	-0.686	-0.4583664	4.9274388	-2.2345362	40.95503784	1.25477802	-40.88628288
4.21	421	0.047	-0.682	-0.683	-0.2291832	4.8128472	-2.3491278	40.94930826	1.30634424	-40.87482372
4.22	422	0.05	-0.674	-0.676	0	4.3544808	-2.6929026	40.94930826	1.35218088	-40.86336456
4.23	423	0.052	-0.669	-0.669	0.1145916	3.6096354	-3.0366774	40.94930826	1.4037471	-40.86336456
4.24	424	0.052	-0.666	-0.674	0	2.8074942	-3.4950438	40.94930826	1.44385416	-40.86909414
4.25	425	0.052	-0.663	-0.679	0.1145916	1.718874	-4.010706	40.97222658	1.50114996	-40.88628288
4.26	426	0.061	-0.665	-0.663	0.1718874	0.9167328	-4.4690724	40.97222658	1.53552744	-40.91493078
4.27	427	0.06	-0.656	-0.652	0.2291832	0.7448454	-4.9274388	40.97222658	1.5756345	-40.94930826
4.28	428	0.053	-0.656	-0.663	0	1.0886202	-5.3858052	40.97222658	1.61574156	-40.98368574
4.29	429	0.046	-0.655	-0.651	0.1718874	1.0313244	-5.9014674	40.97222658	1.66730778	-41.01806322
4.3	430	0.042	-0.659	-0.654	0.0572958	1.145916	-6.2452422	40.98941532	1.718874	-41.05817028
4.31	431	0.044	-0.658	-0.658	-0.2291832	0.6302538	-6.4744254	40.98368574	1.76471064	-41.09827734
4.32	432	0.045	-0.654	-0.659	-0.4583664	-0.286479	-6.8182002	40.97795616	1.81054728	-41.15557314
4.33	433	0.046	-0.652	-0.671	-0.572958	-0.2291832	-7.3338624	40.97222658	1.85638392	-41.21286894
4.34	434	0.047	-0.655	-0.659	-0.572958	-0.4010706	-7.7922288	40.96076742	1.90222056	-41.27016474
4.35	435	0.039	-0.653	-0.652	-0.6875496	-0.2291832	-8.1932994	40.966497	1.95378678	-41.33319012
4.36	436	0.029	-0.65	-0.655	-1.2605076	0.1718874	-8.59437	40.94930826	2.01108258	-41.3962155
4.37	437	0.021	-0.643	-0.658	-1.8334656	0.5156622	-8.880849	40.93211952	2.07410796	-41.45924088
4.38	438	0.022	-0.642	-0.654	-2.005353	1.2032118	-9.2246238	40.9092012	2.14286292	-41.52226626
4.39	439	0.023	-0.645	-0.67	-2.4637194	1.3750992	-9.5683986	40.8805533	2.21734746	-41.58529164
4.4	440	0.029	-0.641	-0.662	-2.4637194	1.3178034	-9.7975818	40.85763498	2.28610242	-41.64831702
4.41	441	0.038	-0.643	-0.661	-2.86479	0.6302538	-9.8548776	40.82898708	2.35485738	-41.71707198
4.42	442	0.044	-0.653	-0.668	-3.8961144	0.1145916	-9.7975818	40.78315044	2.42361234	-41.79155652
4.43	443	0.046	-0.669	-0.668	-5.5003968	0.5156622	-9.2246238	40.72585464	2.48663772	-41.8545819
4.44	444	0.047	-0.682	-0.68	-6.4171296	1.8907614	-8.5370742	40.65709968	2.55539268	-41.90614812
4.45	445	0.042	-0.696	-0.683	-7.6776372	2.291832	-7.6203414	40.58834472	2.61841806	-41.95198476
4.46	446	0.039	-0.7	-0.687	-9.1100322	2.2345362	-6.6463128	40.49667144	2.67571386	-41.98636224
4.47	447	0.043	-0.705	-0.701	-10.2559482	1.145916	-5.9014674	40.38780942	2.7215505	-42.02073972
4.48	448	0.047	-0.707	-0.694	-11.8602306	0.6302538	-5.443101	40.26748824	2.76165756	-42.06084678
4.49	449	0.053	-0.71	-0.683	-13.464513	0.9740286	-5.2139178	40.12997832	2.80176462	-42.09522426
4.5	450	0.053	-0.707	-0.686	-15.0687954	1.145916	-4.9274388	39.98673882	2.8361421	-42.12387216
4.51	451	0.045	-0.701	-0.671	-16.8449652	1.2605076	-4.4117766	39.81485142	2.87624916	-42.14679048
4.52	452	0.039	-0.698	-0.668	-18.907614	1.0313244	-3.8388186	39.62577528	2.90489706	-42.1697088
4.53	453	0.04	-0.692	-0.668	-20.626488	1.2032118	-3.4950438	39.41378082	2.93354496	-42.18689754
4.54	454	0.044	-0.688	-0.674	-21.6005166	1.4896908	-3.3804522	39.1903272	2.96219286	-42.20408628
4.55	455	0.048	-0.69	-0.659	-22.9756158	1.4896908	-3.151269	38.97260316	2.99084076	-42.22127502
4.56	456	0.052	-0.687	-0.653	-24.7517856	1.3178034	-3.0939732	38.72050164	3.01375908	-42.23273418
4.57	457	0.053	-0.683	-0.636	-26.2987722	0.1718874	-3.151269	38.45121138	3.0366774	-42.26138208
4.58	458	0.053	-0.68	-0.637	-28.8197874	-0.1145916	-3.3231564	38.1590028	3.04813656	-42.2843004
4.59	459	0.057	-0.681	-0.638	-30.939732	0.3437748	-3.2085648	37.8438759	3.07105488	-42.30721872
4.6	460	0.056	-0.683	-0.624	-32.7159018	0.4010706	-2.9793816	37.528749	3.08824362	-42.33013704
4.61	461	0.051	-0.679	-0.631	-34.950438	0.286479	-2.7501984	37.17351504	3.09970278	-42.34732578
4.62	462	0.048	-0.664	-0.645	-36.5547204	-0.1145916	-2.578311	36.79536276	3.11116194	-42.3702441
4.63	463	0.048	-0.649	-0.645	-36.955791	-0.0572958	-2.1199446	36.42294006	3.11689152	-42.38743284
4.64	464	0.048	-0.64	-0.647	-37.0130868	0.6302538	-1.7761698	36.04478778	3.12835068	-42.398892
4.65	465	0.044	-0.63	-0.66	-37.4714532	1.0313244	-1.432395	35.67809466	3.13980984	-42.40462158
4.66	466	0.042	-0.615	-0.66	-37.5860448	0.6302538	-1.3178034	35.2942128	3.14553942	-42.41035116
4.67	467	0.039	-0.604	-0.669	-37.5860448	0.9167328	-2.005353	34.91033094	3.15699858	-42.42181032
4.68	468	0.04	-0.603	-0.656	-37.1276784	0	-2.6929026	34.53217866	3.16845774	-42.44472864
4.69	469	0.041	-0.604	-0.645	-38.101707	-0.2291832	-2.7501984	34.14256722	3.1799169	-42.46764696
4.7	470	0.039	-0.604	-0.666	-38.5600734	0.8021412	-2.9220858	33.76441494	3.19710564	-42.4848357
4.71	471	0.033	-0.608	-0.652	-38.388186	0.9740286	-3.437748	33.3748035	3.21429438	-42.50775402
4.72	472	0.034	-0.609	-0.644	-39.0757356	1.3178034	-4.4690724	32.9737329	3.24867186	-42.53640192
4.73	473	0.043	-0.608	-0.645	-39.534102	1.4896908	-5.443101	32.5726623	3.28304934	-42.57650898
4.74	474	0.046	-0.614	-0.655	-39.8778768	0.8021412	-5.7868758	32.16013254	3.31742682	-42.61661604
4.75	475	0.048	-0.618	-0.663	-39.8778768	-1.0886202	-5.5003968	31.7705211	3.32888598	-42.66818226
4.76	476	0.05	-0.617	-0.684	-40.1643558	-1.718874	-5.443101	31.35799134	3.34034514	-42.72547806
4.77	477	0.057	-0.613	-0.687	-39.8778768	-0.7448454	-6.1879464	30.95119116	3.35753388	-42.78277386
4.78	478	0.066	-0.606	-0.675	-39.0757356	-0.3437748	-7.9068204	30.55012056	3.39191136	-42.85152882
4.79	479	0.054	-0.602	-0.69	-39.4768062	0.1718874	-9.7975818	30.14332038	3.437748	-42.93174294
4.8	480	0.039	-0.602	-0.69	-39.4768062	0	-11.0580894	29.75370894	3.48358464	-43.0291458
4.81	481	0.028	-0.613	-0.672	-39.8778768	-0.6302538	-11.2299768	29.34117918	3.52942128	-43.12654866
4.82	482	0.024	-0.629	-0.678	-40.6227222	0.3437748	-10.9434978	28.92291984	3.57525792	-43.21822194
4.83	483	0.026	-0.648	-0.657	-41.7113424	0.859437	-10.026765	28.49320134	3.62682414	-43.30416564
4.84	484	0.043	-0.661	-0.695	-44.3469492	0.1718874	-8.0787078	28.04056452	3.66120162	-43.3729206
4.85	485	0.072	-0.674	-0.708	-44.2323576	0.4583664	-4.9274388	27.61084602	3.68411994	-43.40729808
4.86	486	0.092	-0.69	-0.717	-43.831287	1.9480572	-1.8907614	27.16393878	3.70703826	-43.41875724
4.87	487	0.103	-0.689	-0.715	-43.0291458	3.2085648	-0.1718874	26.7284907	3.72995658	-43.4015685
4.88	488	0.114	-0.682	-0.71	-42.8572584	4.1825934	0.8021412	26.2987722	3.7528749	-43.3729206
4.89	489	0.118	-0.67	-0.708	-43.6593996	4.1252976	1.3178034	25.85186496	3.7815228	-43.3442727
4.9	490	0.112	-0.664	-0.697	-44.5761324	4.297185	1.3750992	25.42787604	3.8101707	-43.30416564
4.91	491	0.106	-0.654	-0.719	-45.6647526	4.4690724	0.286479	24.96950964	3.84454818	-43.28124732
4.92	492	0.111	-0.644	-0.703	-45.3782736	4.297185	-1.718874	24.50541366	3.87892566	-43.27551774
4.93	493	0.119	-0.626	-0.713	-45.4928652	4.1252976	-3.3231564	24.04131768	3.9247623	-43.2869769
4.94	494	0.125	-0.615	-0.7	-44.0604702	4.7555514	-4.0680018	23.59441044	3.97632852	-43.30416564
4.95	495	0.122	-0.606	-0.703	-43.4302164	6.1879464	-4.2398892	23.1761511	4.05081306	-43.3156248
4.96	496	0.112	-0.59	-0.689	-41.7113424	7.2765666	-4.1825934	22.75216218	4.1252976	-43.32135438
4.97	497	0.097	-0.579	-0.638	-40.10706	8.9381448	-3.8961144	22.33963242	4.21697088	-43.32135438
4.98	498	0.11	-0.565	-0.612	-39.9351726	10.9434978	-2.86479	21.93283224	4.32010332	-43.29843606
4.99	499	0.129	-0.562	-0.597	-37.9298196	10.3705398	-0.6875496	21.54895038	4.4117766	-43.26405858
5	500	0.121	-0.566	-0.55	-36.4974246	9.3965112	2.4637194	21.21090516	4.49199072	-43.2010332
5.01	501	0.111	-0.548	-0.531	-35.236917	9.2246238	5.3858052	20.8556712	4.54928652	-43.1150895
5.02	502	0.088	-0.514	-0.529	-33.4034514	8.0787078	7.2192708	20.52335556	4.59512316	-43.01768664
5.03	503	0.037	-0.453	-0.536	-31.6272816	6.2452422	7.7922288	20.21395824	4.61804148	-42.92028378
5.04	504	-0.012	-0.377	-0.56	-27.8457588	5.2139178	7.1046792	19.93320882	4.6409598	-42.83434008
5.05	505	-0.033	-0.315	-0.536	-22.5745452	3.0366774	4.9274388	19.71548478	4.6409598	-42.7713147
5.06	506	-0.028	-0.264	-0.507	-18.048177	0.4010706	1.7761698	19.53213822	4.63523022	-42.75412596
5.07	507	-0.015	-0.208	-0.474	-12.2613012	-0.859437	-2.2345362	19.40608746	4.63523022	-42.77704428
5.08	508	-0.001	-0.163	-0.446	-5.156622	-1.4896908	-6.2452422	19.34879166	4.6409598	-42.84006966
5.09	509	0.007	-0.139	-0.383	2.3491278	-1.432395	-9.3392154	19.3659804	4.65814854	-42.93747252
5.1	510	0.013	-0.131	-0.362	9.3392154	0.3437748	-11.9175264	19.4519241	4.70398518	-43.04633454
5.11	511	-0.011	-0.141	-0.336	16.7303736	1.8907614	-13.5791046	19.61235234	4.76701056	-43.16665572
5.12	512	-0.042	-0.139	-0.298	26.642547	3.0939732	-15.183387	19.87018344	4.85295426	-43.29843606
5.13	513	-0.08	-0.135	-0.26	36.8984952	2.5210152	-16.2147114	20.23114698	4.93889796	-43.44167556
5.14	514	-0.123	-0.124	-0.217	43.4875122	1.145916	-15.8709366	20.66086548	5.00765292	-43.59064464
5.15	515	-0.136	-0.073	-0.156	47.841993	-1.432395	-14.896908	21.13069104	5.04775998	-43.73388414
5.16	516	-0.1	-0.023	-0.119	50.5921914	-5.9014674	-13.5218088	21.63489408	5.04775998	-43.88285322
5.17	517	-0.066	-0.012	-0.088	50.133825	-9.9121734	-10.0840608	22.13336754	5.00192334	-44.02036314
5.18	518	-0.005	-0.044	-0.06	49.9046418	-13.8655836	-4.7555514	22.631841	4.90452048	-44.12349558
5.19	519	0.06	-0.096	-0.048	49.1025006	-15.6417534	2.4637194	23.13031446	4.76128098	-44.16360264
5.2	520	0.095	-0.119	-0.081	49.0452048	-15.469866	10.026765	23.6345175	4.59512316	-44.14068432
5.21	521	0.154	-0.133	-0.103	50.420304	-13.5218088	17.5325148	24.15590928	4.40604702	-44.03755188
5.22	522	0.207	-0.162	-0.128	54.8320806	-10.8289062	24.2934192	24.72886728	4.21697088	-43.86566448
5.23	523	0.338	-0.383	-0.093	60.9054354	-13.6364004	27.5592798	25.35912108	3.98778768	-43.68231792
5.24	524	0.482	-0.634	-0.633	21.4286292	-20.1681216	27.3300966	25.59403386	3.6955791	-43.52761926
5.25	525	0.539	-0.937	-1.289	2.9220858	-42.97185	23.2620948	25.63414092	3.22002396	-43.51043052
5.26	526	0.601	-1.434	-1.54	-43.2010332	-74.4272442	14.4958374	25.19296326	2.49809688	-43.7166954
5.27	527	0.681	-1.985	-1.759	-110.3517108	-91.3295052	11.8602306	24.07569516	1.62147114	-44.00890398
5.28	528	0.902	-2.533	-1.849	-165.3556788	-90.7565472	16.2147114	22.4026578	0.72192708	-44.2323576
5.29	529	0.762	-2.558	-1.6	-208.270233	-102.1011156	16.329303	20.30563152	-0.29220858	-44.46727038
5.3	530	0.094	-2.101	-1.606	-259.2061992	-114.018642	-4.2398892	17.69867262	-1.36936962	-44.89698888
5.31	531	-0.583	-1.753	-1.519	-280.3483494	-103.6481022	-28.8770832	14.88544884	-2.29756158	-45.46994688
5.32	532	-0.992	-1.655	-1.118	-284.4163512	-87.7198698	-39.0184398	12.03784758	-3.08251404	-46.06009362
5.33	533	-1.159	-1.297	-0.773	-286.192521	-74.9429064	-36.0390582	9.17305758	-3.77579322	-46.5528375
5.34	534	-0.986	-0.708	-0.602	-281.4942654	-58.8427866	-23.6631654	6.34264506	-4.34875122	-46.86223482
5.35	535	-0.901	-0.038	-0.485	-265.6233288	-38.961144	-0.9167328	3.64974246	-4.77846972	-46.90234188
5.36	536	-0.893	0.581	-0.188	-257.7165084	-13.2926256	25.0955604	1.01413566	-4.95035712	-46.6387812
5.37	537	-0.843	1.009	-0.083	-265.0503708	13.178034	39.7059894	-1.70741484	-4.84722468	-46.22052186
5.38	538	-0.389	1.266	-0.457	-239.2672608	28.6479	31.51269	-4.16540466	-4.57793442	-45.8939358
5.39	539	0.252	1.58	-0.893	-180.3098826	24.9809688	3.7815228	-5.99887026	-4.34875122	-45.85382874
5.4	540	0.688	1.832	-1.219	-105.0804972	8.1360036	-17.6471064	-7.05884256	-4.297185	-46.02571614
5.41	541	0.727	1.93	-1.379	-51.7381074	3.3231564	-11.8602306	-7.57450476	-4.28572584	-46.14030774
5.42	542	0.394	1.714	-1.684	-24.4080108	15.3552744	4.4117766	-7.82660628	-4.13102718	-46.11165984
5.43	543	-0.019	1.416	-1.629	1.5469866	33.0023808	12.7769634	-7.8208767	-3.78725238	-46.01998656
5.44	544	-0.505	1.407	-1.265	33.4607472	57.868758	9.167328	-7.49429064	-3.20283522	-45.99706824
5.45	545	-0.856	1.219	-1.067	35.4661002	77.635809	-3.8961144	-7.14478626	-2.44653066	-46.11165984
5.46	546	-0.886	0.91	-1.054	17.3606274	85.7718126	-13.9228794	-6.97289886	-1.61574156	-46.33511346
5.47	547	-0.587	0.9	-1.076	16.8449652	82.3913604	-14.5531332	-6.80674104	-0.81932994	-46.5528375
5.48	548	-0.227	0.824	-0.984	40.5654264	59.9314068	-12.2040054	-6.39994086	-0.24064236	-46.73045448
5.49	549	0.041	0.715	-0.922	53.3996856	37.0703826	-8.59437	-5.86136034	0.1145916	-46.85077566
5.5	550	0.194	0.594	-0.953	60.3324774	31.6845774	-8.4224826	-5.27694318	0.43544808	-46.95963768
5.51	551	0.282	0.409	-0.841	62.452422	35.6952834	-10.9434978	-4.64668938	0.79068204	-47.0971476
5.52	552	0.346	0.212	-0.666	50.706783	44.4615408	-15.2406828	-4.14248634	1.22040054	-47.27476458
5.53	553	0.332	0.108	-0.545	37.6433406	42.9145542	-19.6524594	-3.77006364	1.63865988	-47.49248862
5.54	554	0.393	0.132	-0.495	32.372127	33.3461556	-24.1215318	-3.45493674	1.95378678	-47.74459014
5.55	555	0.403	0.206	-0.465	33.0023808	23.6058696	-28.1895336	-3.151269	2.20015872	-48.03679872
5.56	556	0.536	0.308	-0.517	33.0596766	10.0840608	-30.1375908	-2.83041252	2.28610242	-48.34046646
5.57	557	0.459	0.355	-0.72	36.096354	4.8128472	-34.6066632	-2.47517856	2.32620948	-48.68424126
5.58	558	0.423	0.37	-1.016	36.2109456	26.2414764	-37.815228	-2.13140376	2.57258142	-49.06812312
5.59	559	0.177	0.475	-1.5	19.3659804	41.7113424	-34.4347758	-1.95378678	2.9793816	-49.4176275
5.6	560	-0.284	0.768	-2.815	28.6479	12.7196676	-25.8977016	-1.68449652	3.09970278	-49.6754586
5.61	561	-0.564	1.062	-3.062	43.258329	-19.2513888	-23.1475032	-1.25477802	2.91062664	-49.91037138
5.62	562	-0.237	0.517	-2.832	21.6005166	-18.2200644	-12.2613012	-1.03705398	2.72728008	-50.03642214
5.63	563	-0.162	0.296	-2.811	7.3338624	-14.3812458	5.8441716	-0.95683986	2.58977016	-49.97912634
5.64	564	0.023	0.578	-2.749	6.5317212	-18.2773602	1.9480572	-0.8880849	2.4064236	-49.9619376
5.65	565	0.239	0.854	-2.663	-21.485925	-22.91832	-9.5683986	-1.11153852	2.1772404	-50.05934046
5.66	566	0.231	0.941	-2.384	-39.8778768	-26.7571386	-17.8189938	-1.5183387	1.90795014	-50.23695744
5.67	567	0.102	0.902	-1.876	-51.1078536	-28.5333084	-24.8663772	-2.03973048	1.61001198	-50.4775998
5.68	568	-0.037	0.782	-1.398	-53.2277982	-22.1734746	-29.0489706	-2.58404058	1.3750992	-50.75834922
5.69	569	-0.1	0.607	-1.026	-48.8160216	-10.6570188	-31.1689152	-3.08824362	1.24904844	-51.06201696
5.7	570	-0.157	0.389	-0.802	-40.8519054	0.7448454	-33.6326346	-3.52942128	1.21467096	-51.3943326
5.71	571	-0.202	0.21	-0.614	-28.6479	10.6570188	-32.5440144	-3.83308902	1.30061466	-51.71518908
5.72	572	-0.209	0.138	-0.498	-15.0114996	21.7151082	-30.2521824	-3.99351726	1.4896908	-52.0245864
5.73	573	-0.163	0.087	-0.408	-2.0626488	32.658606	-25.4393352	-4.02789474	1.79908812	-52.29387666
5.74	574	-0.124	0.092	-0.383	1.8907614	37.9298196	-18.4492476	-4.02216516	2.16005166	-52.48868238
5.75	575	-0.058	0.161	-0.421	3.6096354	38.8465524	-11.6310474	-4.00497642	2.53247436	-52.6261923
5.76	576	0.013	0.237	-0.459	6.2452422	34.091001	-4.8128472	-3.94768062	2.86479	-52.6834881
5.77	577	0.068	0.272	-0.47	8.6516658	25.0382646	0.8021412	-3.86173692	3.11689152	-52.68921768
5.78	578	0.108	0.248	-0.513	9.1100322	15.2406828	2.7501984	-3.77006364	3.27159018	-52.66629936
5.79	579	0.115	0.161	-0.603	10.3705398	7.2192708	1.0313244	-3.6669312	3.34034514	-52.66056978
5.8	580	0.1	0.055	-0.698	11.745639	0.3437748	-1.3178034	-3.54661002	3.3518043	-52.67775852
5.81	581	0.078	-0.03	-0.849	12.891555	-4.1252976	-1.3750992	-3.41482968	3.31169724	-52.68921768
5.82	582	0.074	-0.082	-0.981	15.469866	-7.2192708	0.5156622	-3.25440144	3.24294228	-52.6834881
5.83	583	0.071	-0.098	-1.078	17.3606274	-9.167328	3.9534102	-3.07678446	3.15699858	-52.64338104
5.84	584	0.09	-0.077	-1.175	21.6005166	-10.0840608	9.2246238	-2.85333084	3.0653253	-52.55170776
5.85	585	0.083	-0.041	-1.217	27.8457588	-9.1100322	14.8396122	-2.55539268	2.98511118	-52.40273868
5.86	586	0.087	-0.024	-1.234	30.5959572	-6.589017	19.4232762	-2.2345362	2.92781538	-52.21366254
5.87	587	0.096	-0.018	-1.251	28.4187168	-4.583664	22.91832	-1.93086846	2.8934379	-51.98447934
5.88	588	0.094	-0.032	-1.252	24.2361234	-2.2345362	25.4393352	-1.67303736	2.88197874	-51.73237782
5.89	589	0.093	-0.055	-1.237	18.3919518	0.4010706	26.356068	-1.47250206	2.8934379	-51.47454672
5.9	590	0.093	-0.077	-1.223	12.5477802	2.1199446	25.78311	-1.32353298	2.9220858	-51.21671562
5.91	591	0.109	-0.085	-1.198	8.3651868	3.724227	23.491278	-1.22613012	2.96792244	-50.98180284
5.92	592	0.132	-0.103	-1.186	4.583664	6.2452422	20.4546006	-1.16883432	3.03094782	-50.78126754
5.93	593	0.145	-0.1	-1.111	2.86479	6.2452422	17.5325148	-1.13445684	3.09970278	-50.60365056
5.94	594	0.163	-0.1	-1.004	3.8388186	6.0733548	14.7823164	-1.08289062	3.16272816	-50.46041106
5.95	595	0.156	-0.147	-0.887	-1.2032118	1.2605076	12.6623718	-1.05424272	3.19137606	-50.32863072
5.96	596	0.112	-0.154	-0.876	-6.9900876	-2.1772404	9.1100322	-1.1172681	3.16845774	-50.23695744
5.97	597	0.099	-0.193	-0.884	-8.307891	-1.8334656	5.72958	-1.19748222	3.151269	-50.17966164
5.98	598	0.059	-0.213	-0.861	-8.3651868	-3.437748	2.6356068	-1.28342592	3.11689152	-50.15101374
5.99	599	0.035	-0.22	-0.87	-7.6776372	-4.0680018	-0.4583664	-1.35791046	3.07678446	-50.15674332
6	600	0.036	-0.207	-0.871	-5.7868758	-2.8074942	-3.4950438	-1.34072172	3.04240698	-50.18539122
6.01	601	0.039	-0.172	-0.875	-4.6982556	-1.3178034	-5.3285094	-1.39228794	3.02521824	-50.23695744
6.02	602	0.045	-0.119	-0.889	-4.4117766	0	-5.9587632	-1.44385416	3.02521824	-50.29998282
6.03	603	0.061	-0.058	-0.93	-4.6982556	1.3178034	-6.1306506	-1.4896908	3.0366774	-50.35727862
6.04	604	0.078	-0.009	-0.97	-4.2398892	1.6615782	-5.6149884	-1.54125702	3.05386614	-50.41457442
6.05	605	0.086	0.024	-1.014	-3.3231564	1.2032118	-4.7555514	-1.59282324	3.07678446	-50.46041106
6.06	606	0.086	0.045	-1.039	-2.0626488	0.6875496	-4.297185	-1.61574156	3.08251404	-50.5062477
6.07	607	0.079	0.052	-1.058	-1.2032118	0.2291832	-4.4690724	-1.6329303	3.08251404	-50.55208434
6.08	608	0.072	0.053	-1.077	-0.9167328	-0.2291832	-4.8128472	-1.64438946	3.07678446	-50.59792098
6.09	609	0.064	0.057	-1.056	-0.572958	-1.8907614	-4.9847346	-1.65011904	3.05959572	-50.6494872
6.1	610	0.06	0.058	-1.036	-0.572958	-3.2658606	-4.9274388	-1.6902261	3.02521824	-50.70105342
6.11	611	0.06	0.053	-1.027	-1.2605076	-3.9534102	-4.5263682	-1.70741484	2.9793816	-50.74689006
6.12	612	0.062	0.053	-1.013	-3.151269	-4.870143	-3.6669312	-1.74179232	2.93354496	-50.78126754
6.13	613	0.067	0.053	-0.992	-5.5003968	-5.7868758	-2.8074942	-1.79335854	2.87051958	-50.80991544
6.14	614	0.071	0.053	-0.987	-7.0473834	-6.1879464	-2.0626488	-1.86784308	2.8074942	-50.82710418
6.15	615	0.072	0.053	-0.981	-7.3911582	-5.7868758	-1.2605076	-1.96524594	2.76165756	-50.83856334
6.16	616	0.071	0.057	-0.975	-6.9327918	-4.7555514	-0.572958	-2.0340009	2.71009134	-50.84429292
6.17	617	0.068	0.065	-0.969	-6.016059	-3.6096354	-0.0572958	-2.0912967	2.67571386	-50.84429292
6.18	618	0.064	0.076	-0.961	-4.9847346	-2.4637194	0.4583664	-2.14286292	2.64706596	-50.83856334
6.19	619	0.059	0.088	-0.954	-4.2398892	-1.6615782	1.0886202	-2.18869956	2.6356068	-50.82710418
6.2	620	0.053	0.094	-0.955	-3.437748	-0.9740286	1.8907614	-2.29756158	2.62414764	-50.81564502
6.21	621	0.044	0.093	-0.959	-2.6356068	-0.2291832	2.6356068	-2.3204799	2.61841806	-50.78699712
6.22	622	0.036	0.086	-0.962	-2.0626488	0.0572958	3.0939732	-2.34339822	2.62414764	-50.75834922
6.23	623	0.026	0.073	-0.97	-1.2605076	0.0572958	3.151269	-2.35485738	2.62414764	-50.72397174
6.24	624	0.018	0.054	-0.978	-0.8021412	-0.4583664	2.9220858	-2.36058696	2.61841806	-50.69532384
6.25	625	0.011	0.036	-0.988	-0.7448454	-1.0886202	2.5210152	-2.3777757	2.5496631	-50.67240552
6.26	626	0.005	0.02	-0.998	-0.6302538	-1.6042824	2.005353	-2.38350528	2.53247436	-50.6494872
6.27	627	0.003	0.009	-1	-0.1145916	-1.718874	1.432395	-2.38350528	2.51528562	-50.63802804
6.28	628	0.005	0	-0.995	-0.1718874	-1.3178034	1.0886202	-2.38350528	2.50382646	-50.62656888
6.29	629	0.009	-0.004	-0.998	-0.8021412	-0.7448454	0.9740286	-2.39496444	2.49809688	-50.61510972
6.3	630	0.013	-0.004	-1.003	-1.2032118	0.4583664	0.859437	-2.36058696	2.42934192	-50.60365056
6.31	631	0.019	-0.006	-0.998	-1.2605076	2.005353	0.9740286	-2.37204612	2.45226024	-50.5921914
6.32	632	0.024	-0.009	-0.996	-1.718874	2.9793816	0.9740286	-2.38923486	2.48090814	-50.58073224
6.33	633	0.028	-0.012	-0.995	-2.1772404	3.6669312	0.6875496	-2.41215318	2.51528562	-50.57500266
6.34	634	0.033	-0.012	-0.992	-2.1772404	4.3544808	0.2291832	-2.4350715	2.56112226	-50.57500266
6.35	635	0.043	-0.012	-0.988	-1.9480572	4.7555514	-0.286479	-2.42361234	2.60122932	-50.57500266
6.36	636	0.052	-0.01	-0.989	-1.9480572	4.8128472	-0.9167328	-2.44653066	2.65279554	-50.58646182
6.37	637	0.06	-0.006	-0.99	-2.005353	4.3544808	-1.3178034	-2.46944898	2.6929026	-50.59792098
6.38	638	0.067	0	-0.99	-2.0626488	3.9534102	-1.6615782	-2.4923673	2.73300966	-50.61510972
6.39	639	0.071	0.008	-0.987	-1.718874	3.5523396	-1.8334656	-2.50955604	2.76738714	-50.63802804
6.4	640	0.071	0.014	-0.985	-1.432395	3.3231564	-1.8334656	-2.5210152	2.81895336	-50.65521678
6.41	641	0.074	0.02	-0.98	-1.4896908	3.437748	-1.718874	-2.53820394	2.84760126	-50.67240552
6.42	642	0.076	0.027	-0.975	-1.3750992	3.0939732	-1.3178034	-2.5496631	2.88197874	-50.68386468
6.43	643	0.078	0.028	-0.98	-1.145916	2.8074942	-0.9167328	-2.56685184	2.90489706	-50.69532384
6.44	644	0.077	0.029	-0.985	-1.5469866	2.291832	-0.7448454	-2.58404058	2.92781538	-50.706783
6.45	645	0.078	0.031	-0.988	-1.7761698	1.718874	-0.6875496	-2.61268848	2.97365202	-50.71251258
6.46	646	0.074	0.033	-0.992	-1.9480572	1.432395	-0.8021412	-2.62987722	2.98511118	-50.71824216
6.47	647	0.071	0.036	-0.996	-2.0626488	0.8021412	-0.9167328	-2.65279554	2.99084076	-50.72970132
6.48	648	0.068	0.039	-0.997	-2.005353	0.5156622	-1.2032118	-2.67571386	2.99657034	-50.74116048
6.49	649	0.066	0.044	-0.996	-1.7761698	0.4583664	-1.2605076	-2.6929026	3.00229992	-50.75261964
6.5	650	0.065	0.047	-0.997	-1.6615782	0.4583664	-1.2032118	-2.7501984	3.01375908	-50.76980838
6.51	651	0.064	0.049	-0.997	-1.4896908	0.8021412	-0.9740286	-2.76738714	3.01948866	-50.78126754
6.52	652	0.063	0.048	-0.993	-1.2032118	1.2605076	-0.6302538	-2.7788463	3.03094782	-50.78699712
6.53	653	0.062	0.047	-0.985	-1.2032118	1.718874	-0.1718874	-2.79030546	3.04813656	-50.78699712
6.54	654	0.062	0.044	-0.983	-1.145916	1.8334656	0.2291832	-2.80176462	3.07105488	-50.78699712
6.55	655	0.059	0.041	-0.985	-1.145916	1.9480572	0.4583664	-2.8361421	3.08251404	-50.78126754
6.56	656	0.058	0.038	-0.979	-1.0886202	2.1772404	0.6302538	-2.84760126	3.10543236	-50.77553796
6.57	657	0.058	0.033	-0.98	-0.9167328	2.005353	0.6875496	-2.85333084	3.12835068	-50.76980838
6.58	658	0.057	0.03	-0.984	-1.0886202	1.5469866	0.6875496	-2.86479	3.13980984	-50.7640788
6.59	659	0.055	0.028	-0.991	-1.2032118	1.145916	0.6875496	-2.87624916	3.15699858	-50.75834922
6.6	660	0.051	0.026	-0.994	-0.9740286	0.7448454	0.6302538	-2.88197874	3.12835068	-50.75261964
6.61	661	0.05	0.026	-0.995	-1.0313244	0.1145916	0.5156622	-2.8934379	3.13408026	-50.74689006
6.62	662	0.049	0.024	-0.993	-1.0886202	-0.6302538	0.286479	-2.90489706	3.12835068	-50.74116048
6.63	663	0.048	0.023	-0.995	-1.145916	-1.0313244	0.1145916	-2.91635622	3.11689152	-50.74116048
6.64	664	0.049	0.021	-0.999	-0.9740286	-1.2032118	0	-2.9220858	3.10543236	-50.74116048
6.65	665	0.05	0.02	-0.995	-0.7448454	-1.2032118	-0.1145916	-2.90489706	3.05959572	-50.74116048
6.66	666	0.052	0.019	-0.989	-0.9740286	-0.9740286	-0.286479	-2.91062664	3.04813656	-50.74116048
6.67	667	0.055	0.02	-0.985	-1.145916	-0.5156622	-0.286479	-2.92781538	3.04240698	-50.74689006
6.68	668	0.055	0.021	-0.983	-0.9167328	0.1145916	-0.4010706	-2.93354496	3.04813656	-50.74689006
6.69	669	0.059	0.024	-0.982	-0.8021412	0.859437	-0.4583664	-2.94500412	3.05386614	-50.75261964
6.7	670	0.061	0.027	-0.983	-0.8021412	1.0886202	-0.4010706	-2.94500412	3.0653253	-50.75834922
6.71	671	0.063	0.029	-0.987	-0.9740286	1.0886202	-0.4010706	-2.95646328	3.07678446	-50.7640788
6.72	672	0.065	0.032	-0.99	-1.0313244	1.0313244	-0.4583664	-2.96792244	3.08824362	-50.76980838
6.73	673	0.067	0.033	-0.985	-0.9740286	0.6302538	-0.3437748	-2.9793816	3.0939732	-50.76980838
6.74	674	0.064	0.034	-0.986	-1.0886202	0.1145916	-0.2291832	-2.99084076	3.0939732	-50.77553796
6.75	675	0.062	0.034	-0.986	-1.2032118	0.0572958	-0.1718874	-3.01948866	3.08824362	-50.77553796
6.76	676	0.059	0.034	-0.985	-1.3750992	0.3437748	0	-3.03094782	3.0939732	-50.77553796
6.77	677	0.058	0.033	-0.985	-1.3178034	0.6875496	0	-3.04813656	3.09970278	-50.77553796
6.78	678	0.059	0.034	-0.986	-1.0313244	0.9740286	0	-3.05959572	3.11116194	-50.77553796
6.79	679	0.057	0.032	-0.987	-0.8021412	0.9740286	0	-3.0653253	3.11689152	-50.77553796
6.8	680	0.058	0.034	-0.989	-0.859437	1.145916	0	-3.08251404	3.11689152	-50.77553796
6.81	681	0.058	0.036	-0.992	-0.8021412	1.5469866	0.0572958	-3.08824362	3.13408026	-50.77553796
6.82	682	0.057	0.037	-0.996	-0.7448454	1.718874	0.1145916	-3.09970278	3.151269	-50.77553796
6.83	683	0.057	0.038	-0.994	-0.5156622	1.8334656	0.0572958	-3.10543236	3.16845774	-50.77553796
6.84	684	0.057	0.037	-0.994	-0.3437748	1.6615782	0	-3.10543236	3.18564648	-50.77553796
6.85	685	0.057	0.035	-0.995	-0.3437748	1.6042824	0	-3.11689152	3.1799169	-50.77553796
6.86	686	0.058	0.035	-0.99	-0.3437748	1.6042824	-0.0572958	-3.1226211	3.19710564	-50.77553796
6.87	687	0.061	0.035	-0.986	-0.3437748	1.2605076	0	-3.1226211	3.2085648	-50.77553796
6.88	688	0.062	0.038	-0.985	-0.5156622	0.9167328	0	-3.12835068	3.22002396	-50.77553796
6.89	689	0.064	0.038	-0.983	-0.5156622	0.9167328	0	-3.13408026	3.23148312	-50.77553796
6.9	690	0.066	0.036	-0.984	-0.6302538	0.859437	0.0572958	-3.151269	3.24294228	-50.77553796
6.91	691	0.067	0.036	-0.989	-0.7448454	0.9740286	0.1145916	-3.15699858	3.25440144	-50.77553796
6.92	692	0.067	0.035	-0.989	-0.8021412	0.8021412	0.0572958	-3.16845774	3.26013102	-50.77553796
6.93	693	0.067	0.033	-0.988	-0.859437	0.6875496	0.1145916	-3.17418732	3.27159018	-50.77553796
6.94	694	0.066	0.032	-0.991	-0.8021412	0.5156622	0	-3.18564648	3.27731976	-50.77553796
6.95	695	0.067	0.033	-0.988	-0.6875496	0.4583664	0	-3.18564648	3.28877892	-50.77553796
6.96	696	0.066	0.032	-0.987	-0.5156622	0.6875496	0.0572958	-3.19137606	3.2945085	-50.77553796
6.97	697	0.064	0.032	-0.986	-0.5156622	0.8021412	0.1145916	-3.19710564	3.30596766	-50.76980838
6.98	698	0.065	0.03	-0.987	-0.7448454	0.7448454	0.0572958	-3.20283522	3.31169724	-50.76980838
6.99	699	0.065	0.029	-0.988	-0.8021412	0.859437	0.1145916	-3.21429438	3.3231564	-50.76980838
7	700	0.065	0.029	-0.989	-0.8021412	0.8021412	0.0572958	-3.20283522	3.3231564	-50.76980838
7.01	701	0.064	0.029	-0.989	-0.7448454	0.6875496	0	-3.2085648	3.33461556	-50.76980838
7.02	702	0.064	0.029	-0.989	-0.6302538	0.8021412	-0.0572958	-3.21429438	3.34034514	-50.76980838
7.03	703	0.064	0.031	-0.988	-0.6875496	0.859437	-0.1718874	-3.22575354	3.34607472	-50.76980838
7.04	704	0.063	0.032	-0.987	-0.4583664	0.859437	-0.1718874	-3.23148312	3.35753388	-50.77553796
7.05	705	0.064	0.033	-0.989	-0.3437748	0.9740286	-0.1718874	-3.22575354	3.35753388	-50.77553796
7.06	706	0.063	0.034	-0.988	-0.4583664	1.2032118	-0.1145916	-3.23148312	3.36899304	-50.77553796
7.07	707	0.064	0.035	-0.988	-0.4583664	1.2032118	-0.1145916	-3.2372127	3.3804522	-50.77553796
7.08	708	0.063	0.037	-0.987	-0.4010706	1.2605076	-0.1145916	-3.24294228	3.39764094	-50.78126754
7.09	709	0.062	0.038	-0.987	-0.3437748	1.2605076	-0.0572958	-3.24867186	3.4091001	-50.78126754
7.1	710	0.065	0.038	-0.988	0	0.6875496	-0.1145916	-3.28304934	3.39191136	-50.78699712
7.11	711	0.065	0.039	-0.989	0.286479	0.2291832	0	-3.28304934	3.39764094	-50.78699712
7.12	712	0.065	0.039	-0.988	0.2291832	0.1718874	0	-3.27731976	3.39764094	-50.78699712
7.13	713	0.064	0.039	-0.986	0	0	0.0572958	-3.27731976	3.39764094	-50.78699712
7.14	714	0.063	0.037	-0.988	-0.1145916	-0.2291832	0.0572958	-3.28304934	3.39764094	-50.78126754
7.15	715	0.063	0.035	-0.99	-0.1718874	-0.4010706	0	-3.27159018	3.36899304	-50.78126754
7.16	716	0.064	0.035	-0.99	-0.0572958	-0.5156622	0	-3.27159018	3.36326346	-50.78126754
7.17	717	0.065	0.037	-0.992	0.1145916	-0.6875496	-0.0572958	-3.27159018	3.3518043	-50.78126754
7.18	718	0.066	0.037	-0.988	0.2291832	-0.859437	-0.1718874	-3.27159018	3.34607472	-50.78699712
7.19	719	0.066	0.036	-0.988	0.2291832	-0.8021412	-0.1145916	-3.2658606	3.33461556	-50.78699712
7.2	720	0.067	0.035	-0.989	0.1718874	-0.572958	-0.0572958	-3.25440144	3.33461556	-50.78699712
7.21	721	0.067	0.036	-0.99	0.286479	-0.0572958	-0.0572958	-3.25440144	3.33461556	-50.78699712
7.22	722	0.067	0.035	-0.989	0.4583664	0	-0.0572958	-3.24867186	3.33461556	-50.78699712
7.23	723	0.068	0.033	-0.987	0.286479	-0.1145916	-0.1145916	-3.24294228	3.33461556	-50.78699712
7.24	724	0.069	0.032	-0.987	0.2291832	-0.4010706	-0.1718874	-3.24294228	3.32888598	-50.7927267
7.25	725	0.069	0.031	-0.988	0.1718874	-0.4010706	-0.1145916	-3.21429438	3.34607472	-50.78699712
7.26	726	0.069	0.032	-0.987	0.1145916	-0.286479	-0.1145916	-3.21429438	3.34034514	-50.7927267
7.27	727	0.069	0.033	-0.987	0.2291832	-0.4010706	-0.0572958	-3.2085648	3.33461556	-50.7927267
7.28	728	0.07	0.033	-0.987	0.2291832	-0.4010706	-0.0572958	-3.2085648	3.33461556	-50.7927267
7.29	729	0.069	0.035	-0.99	0.1145916	-0.4583664	0	-3.20283522	3.32888598	-50.7927267
7.3	730	0.069	0.035	-0.99	0.2291832	-0.4583664	0	-3.2085648	3.33461556	-50.7927267
7.31	731	0.07	0.037	-0.99	0.0572958	-0.4010706	0.0572958	-3.2085648	3.32888598	-50.7927267
7.32	732	0.068	0.038	-0.989	0.4010706	-0.4010706	0	-3.20283522	3.3231564	-50.7927267
7.33	733	0.067	0.038	-0.986	0.5156622	-0.1145916	0.0572958	-3.19710564	3.3231564	-50.7927267
7.34	734	0.067	0.037	-0.986	0.286479	0	0.0572958	-3.19137606	3.3231564	-50.78699712
7.35	735	0.066	0.037	-0.985	0.1145916	-0.1145916	0.0572958	-3.22002396	3.34034514	-50.7927267
7.36	736	0.067	0.04	-0.984	-0.0572958	-0.1145916	0.1145916	-3.22575354	3.34034514	-50.78699712
7.37	737	0.067	0.04	-0.986	-0.0572958	-0.1145916	0.1718874	-3.22575354	3.34034514	-50.78699712
7.38	738	0.068	0.038	-0.986	-0.1718874	-0.1718874	0.2291832	-3.22575354	3.33461556	-50.78699712
7.39	739	0.068	0.039	-0.987	-0.286479	-0.1145916	0.286479	-3.22575354	3.33461556	-50.78126754
7.4	740	0.067	0.036	-0.987	-0.286479	-0.1145916	0.286479	-3.23148312	3.33461556	-50.77553796
7.41	741	0.067	0.033	-0.986	-0.4583664	0.286479	0.2291832	-3.2372127	3.34034514	-50.77553796
7.42	742	0.067	0.032	-0.987	-0.4583664	0.3437748	0.1718874	-3.24294228	3.34034514	-50.76980838
7.43	743	0.067	0.029	-0.986	-0.2291832	0	0.1145916	-3.24294228	3.34034514	-50.76980838
7.44	744	0.067	0.03	-0.987	0	-0.2291832	0	-3.24294228	3.34034514	-50.76980838
7.45	745	0.067	0.031	-0.988	-0.1145916	-0.2291832	0.0572958	-3.22002396	3.34607472	-50.76980838
7.46	746	0.068	0.033	-0.99	-0.1718874	-0.1718874	0.1718874	-3.22002396	3.34607472	-50.7640788
7.47	747	0.068	0.036	-0.989	-0.3437748	-0.1718874	0.1718874	-3.22575354	3.34034514	-50.7640788
7.48	748	0.067	0.038	-0.99	-0.1718874	-0.286479	0.1718874	-3.22575354	3.34034514	-50.7640788
7.49	749	0.065	0.037	-0.99	0	-0.286479	0.1145916	-3.22575354	3.33461556	-50.75834922
7.5	750	0.064	0.038	-0.988	0.1145916	-0.1718874	0	-3.26013102	3.31169724	-50.7640788
7.51	751	0.065	0.039	-0.986	0.2291832	-0.0572958	-0.1145916	-3.25440144	3.31169724	-50.7640788
7.52	752	0.065	0.04	-0.985	0.286479	0	-0.2291832	-3.25440144	3.31169724	-50.76980838
7.53	753	0.065	0.041	-0.983	0.1718874	0.0572958	-0.1718874	-3.24867186	3.31169724	-50.76980838
7.54	754	0.067	0.041	-0.987	0.1145916	0	-0.1718874	-3.24867186	3.31169724	-50.76980838
7.55	755	0.069	0.041	-0.988	0.2291832	0	-0.1145916	-3.28877892	3.32888598	-50.77553796
7.56	756	0.069	0.042	-0.986	0.3437748	0.1145916	-0.1145916	-3.28304934	3.32888598	-50.77553796
7.57	757	0.071	0.041	-0.985	0.3437748	0.3437748	0	-3.28304934	3.33461556	-50.77553796
7.58	758	0.073	0.04	-0.985	0.286479	0.4583664	0	-3.27731976	3.33461556	-50.77553796
7.59	759	0.073	0.039	-0.987	0.4010706	0.6302538	0.1145916	-3.27159018	3.34607472	-50.77553796
7.6	760	0.071	0.038	-0.985	0.286479	0.8021412	0.1718874	-3.27159018	3.36326346	-50.77553796
7.61	761	0.072	0.038	-0.985	0.4010706	1.0313244	0.1718874	-3.27159018	3.37472262	-50.77553796
7.62	762	0.072	0.037	-0.986	0.572958	1.145916	0.1718874	-3.2658606	3.38618178	-50.76980838
7.63	763	0.071	0.036	-0.987	0.572958	1.432395	0.2291832	-3.26013102	3.40337052	-50.76980838
7.64	764	0.071	0.036	-0.987	0.6875496	1.6615782	0.2291832	-3.24867186	3.42055926	-50.7640788
7.65	765	0.071	0.033	-0.987	0.6302538	1.718874	0.1718874	-3.2372127	3.437748	-50.7640788
7.66	766	0.072	0.032	-0.99	0.5156622	1.4896908	0.0572958	-3.23148312	3.45493674	-50.7640788
7.67	767	0.071	0.03	-0.99	0.5156622	1.0886202	0	-3.23148312	3.4663959	-50.7640788
7.68	768	0.072	0.03	-0.99	0.3437748	0.9167328	-0.1145916	-3.22575354	3.47212548	-50.7640788
7.69	769	0.073	0.03	-0.991	0.3437748	0.572958	-0.2291832	-3.22002396	3.48358464	-50.76980838
7.7	770	0.073	0.032	-0.991	0.286479	0.4010706	-0.286479	-3.2085648	3.4950438	-50.76980838
7.71	771	0.073	0.035	-0.992	0.1718874	0.1718874	-0.286479	-3.2085648	3.50077338	-50.77553796
7.72	772	0.073	0.035	-0.99	-0.0572958	-0.0572958	-0.286479	-3.2085648	3.50077338	-50.77553796
7.73	773	0.073	0.037	-0.987	-0.286479	-0.2291832	-0.286479	-3.21429438	3.4950438	-50.78126754
7.74	774	0.074	0.039	-0.987	-0.1718874	-0.4010706	-0.1718874	-3.21429438	3.48931422	-50.78126754
7.75	775	0.073	0.039	-0.988	-0.1145916	-0.286479	-0.1145916	-3.22575354	3.51796212	-50.78699712
7.76	776	0.075	0.039	-0.986	0	-0.3437748	-0.0572958	-3.23148312	3.51796212	-50.78699712
7.77	777	0.075	0.039	-0.985	0.0572958	-0.5156622	0	-3.22575354	3.51223254	-50.78699712
7.78	778	0.076	0.037	-0.986	-0.0572958	-0.5156622	0.0572958	-3.23148312	3.50650296	-50.78126754
7.79	779	0.074	0.039	-0.986	0	-0.5156622	0.1718874	-3.23148312	3.50077338	-50.78126754
7.8	780	0.072	0.038	-0.989	0.0572958	-0.572958	0.1718874	-3.2372127	3.51223254	-50.78126754
7.81	781	0.072	0.038	-0.989	0.0572958	-0.5156622	0.1718874	-3.2372127	3.50650296	-50.78126754
7.82	782	0.072	0.039	-0.987	0.0572958	-0.4583664	0.1145916	-3.2372127	3.50077338	-50.77553796
7.83	783	0.072	0.039	-0.987	0.2291832	-0.4583664	0.0572958	-3.2372127	3.4950438	-50.77553796
7.84	784	0.072	0.039	-0.986	0.286479	-0.1145916	0	-3.23148312	3.4950438	-50.77553796
7.85	785	0.072	0.04	-0.988	0.4583664	0.1145916	0	-3.24294228	3.50650296	-50.77553796
7.86	786	0.072	0.04	-0.986	0.7448454	0.6302538	0.0572958	-3.23148312	3.51223254	-50.77553796
7.87	787	0.073	0.04	-0.982	0.9740286	0.9167328	0.1145916	-3.22575354	3.5236917	-50.77553796
7.88	788	0.073	0.04	-0.981	1.718874	1.432395	0.2291832	-3.2085648	3.54088044	-50.77553796
7.89	789	0.072	0.037	-0.981	2.0626488	1.8907614	0.5156622	-3.18564648	3.55806918	-50.76980838
7.9	790	0.073	0.034	-0.982	1.8334656	2.1199446	0.572958	-3.16845774	3.5809875	-50.7640788
7.91	791	0.074	0.032	-0.987	1.4896908	2.2345362	0.4583664	-3.151269	3.60390582	-50.75834922
7.92	792	0.075	0.032	-0.99	1.4896908	2.1772404	0.3437748	-3.13408026	3.62682414	-50.75834922
7.93	793	0.075	0.032	-0.992	1.6615782	1.9480572	0.1718874	-3.11689152	3.64401288	-50.75261964
7.94	794	0.076	0.031	-0.993	1.718874	1.718874	0.1718874	-3.09970278	3.66120162	-50.75261964
7.95	795	0.077	0.031	-0.992	1.5469866	1.3178034	0	-3.08824362	3.68411994	-50.75261964
7.96	796	0.077	0.033	-0.992	1.145916	0.859437	-0.0572958	-3.07678446	3.68984952	-50.75261964
7.97	797	0.078	0.034	-0.991	0.9167328	0.286479	-0.1145916	-3.0653253	3.6955791	-50.75834922
7.98	798	0.078	0.035	-0.99	0.9167328	0.2291832	-0.1718874	-3.05959572	3.6955791	-50.75834922
7.99	799	0.079	0.035	-0.988	0.6302538	0.1145916	-0.1718874	-3.05386614	3.6955791	-50.7640788
8	800	0.08	0.036	-0.988	0.3437748	-0.1718874	-0.1145916	-3.0653253	3.71849742	-50.7640788
8.01	801	0.081	0.036	-0.987	0.2291832	-0.286479	-0.1718874	-3.05959572	3.71849742	-50.7640788
8.02	802	0.083	0.037	-0.987	0.1718874	-0.286479	-0.0572958	-3.05959572	3.71276784	-50.7640788
8.03	803	0.082	0.034	-0.982	0.0572958	-0.4010706	0	-3.05959572	3.70703826	-50.7640788
8.04	804	0.079	0.032	-0.981	-0.2291832	-0.6302538	0.0572958	-3.05959572	3.70130868	-50.7640788
8.05	805	0.078	0.03	-0.983	-0.5156622	-0.5156622	0.0572958	-3.05959572	3.71276784	-50.7640788
8.06	806	0.078	0.028	-0.986	-0.6302538	-0.1718874	0	-3.07105488	3.71276784	-50.7640788
8.07	807	0.079	0.027	-0.986	-0.5156622	-0.1145916	0	-3.07678446	3.70703826	-50.7640788
8.08	808	0.079	0.028	-0.988	-0.1718874	-0.4583664	-0.0572958	-3.07678446	3.70703826	-50.7640788
8.09	809	0.079	0.028	-0.988	0	-0.6302538	-0.1145916	-3.07678446	3.70130868	-50.7640788
8.1	810	0.079	0.031	-0.988	-0.0572958	-0.572958	0	-3.07678446	3.724227	-50.7640788
8.11	811	0.078	0.033	-0.989	0	-0.286479	0.1145916	-3.07678446	3.724227	-50.7640788
8.12	812	0.077	0.035	-0.99	0	-0.1145916	0.1718874	-3.07678446	3.71849742	-50.7640788
8.13	813	0.075	0.038	-0.991	0.1145916	-0.0572958	0.0572958	-3.07105488	3.71849742	-50.75834922
8.14	814	0.073	0.037	-0.986	0.4583664	-0.2291832	0.0572958	-3.0653253	3.71849742	-50.75834922
8.15	815	0.073	0.039	-0.984	0.7448454	-0.3437748	0	-3.07678446	3.71276784	-50.75834922
8.16	816	0.075	0.041	-0.982	1.0313244	-0.1718874	0	-3.0653253	3.71276784	-50.75834922
8.17	817	0.074	0.045	-0.981	1.432395	0.1145916	0.0572958	-3.05386614	3.71276784	-50.75834922
8.18	818	0.075	0.043	-0.982	1.7761698	0.8021412	0.286479	-3.03094782	3.724227	-50.75834922
8.19	819	0.076	0.04	-0.985	1.718874	1.432395	0.4583664	-3.01375908	3.73568616	-50.75261964
8.2	820	0.079	0.036	-0.99	1.718874	1.8907614	0.4010706	-3.00229992	3.76433406	-50.75261964
8.21	821	0.081	0.034	-0.993	1.718874	1.9480572	0.3437748	-2.98511118	3.7815228	-50.74689006
8.22	822	0.083	0.032	-0.992	1.718874	1.5469866	0.286479	-2.96792244	3.79871154	-50.74689006
8.23	823	0.085	0.03	-0.99	1.5469866	1.2605076	0.286479	-2.9507337	3.8101707	-50.74116048
8.24	824	0.086	0.03	-0.988	1.3750992	0.9167328	0.4010706	-2.93927454	3.82162986	-50.7354309
8.25	825	0.087	0.03	-0.985	1.0886202	0.8021412	0.3437748	-2.92781538	3.84454818	-50.7354309
8.26	826	0.087	0.03	-0.987	0.9740286	0.6875496	0.3437748	-2.91635622	3.85600734	-50.72970132
8.27	827	0.086	0.029	-0.985	0.859437	0.6302538	0.3437748	-2.91062664	3.86173692	-50.72970132
8.28	828	0.084	0.028	-0.983	0.5156622	0.1145916	0.3437748	-2.90489706	3.86173692	-50.72397174
8.29	829	0.085	0.028	-0.986	0.4010706	-0.1718874	0.1718874	-2.89916748	3.86173692	-50.72397174
8.3	830	0.085	0.027	-0.987	0.0572958	-0.4010706	0.0572958	-2.8934379	3.90184398	-50.71824216
8.31	831	0.084	0.028	-0.989	-0.0572958	-0.6302538	-0.0572958	-2.8934379	3.8961144	-50.72397174
