TimeStamp(s)	FrameCounter	AccX	AccY	AccZ	GyrX	GyrY	GyrZ	EulerX	EulerY	EulerZ
0.01	1	0	-1.005	0.018	0.4010706	-0.0572958	-0.0572958	91.00864872	-0.64744254	-20.04207084
0.02	2	0.003	-1.007	0.019	0.4583664	0.0572958	-0.0572958	91.0143783	-0.64171296	-20.04207084
0.03	3	0.004	-1.008	0.018	0.4583664	0.1718874	-0.1145916	91.0143783	-0.64171296	-20.04207084
0.04	4	0.006	-1.01	0.019	0.4583664	0.1145916	-0.1718874	91.02010788	-0.64171296	-20.03634126
0.05	5	0.006	-1.011	0.021	0.286479	0	-0.1145916	90.85967964	-0.30939732	-20.20822866
0.06	6	0.004	-1.013	0.018	0	-0.1145916	-0.1718874	90.85967964	-0.30939732	-20.20822866
0.07	7	0.002	-1.012	0.017	-0.1145916	0	-0.0572958	90.85395006	-0.30939732	-20.20822866
0.08	8	0.001	-1.01	0.016	-0.3437748	0.2291832	-0.1718874	90.85395006	-0.30366774	-20.20249908
0.09	9	0	-1.008	0.016	-0.5156622	0.1718874	-0.1145916	90.84822048	-0.30366774	-20.20249908
0.1	10	-0.001	-1.008	0.016	-0.6875496	0.286479	-0.1718874	90.77373594	-0.25210152	-20.2254174
0.11	11	0	-1.008	0.014	-0.859437	0.3437748	-0.286479	90.76800636	-0.25210152	-20.21968782
0.12	12	0.002	-1.009	0.013	-0.9167328	0.286479	-0.3437748	90.7565472	-0.24637194	-20.21968782
0.13	13	0.005	-1.01	0.013	-0.9167328	0.5156622	-0.4010706	90.74508804	-0.24064236	-20.21395824
0.14	14	0.007	-1.013	0.016	-0.9167328	0.572958	-0.286479	90.73935846	-0.24064236	-20.20822866
0.15	15	0.006	-1.012	0.019	-1.3178034	0.5156622	-0.3437748	90.6992514	-0.19480572	-20.21968782
0.16	16	0.007	-1.01	0.018	-1.7761698	0.5156622	-0.3437748	90.67633308	-0.19480572	-20.21395824
0.17	17	0.006	-1.008	0.019	-2.0626488	0.1718874	-0.4010706	90.65914434	-0.18907614	-20.21395824
0.18	18	0.006	-1.007	0.019	-2.291832	0	-0.5156622	90.63622602	-0.18334656	-20.21395824
0.19	19	0.006	-1.007	0.018	-2.578311	-0.1145916	-0.572958	90.60757812	-0.17761698	-20.21395824
0.2	20	0.006	-1.007	0.018	-2.6929026	-0.1718874	-0.6875496	90.56174148	-0.1432395	-20.23114698
0.21	21	0.006	-1.006	0.021	-2.6929026	-0.1145916	-0.859437	90.53882316	-0.13750992	-20.23114698
0.22	22	0.006	-1.01	0.022	-2.6356068	-0.1145916	-0.9167328	90.51017526	-0.12605076	-20.23687656
0.23	23	0.007	-1.01	0.022	-2.8074942	-0.1718874	-1.2032118	90.48152736	-0.1145916	-20.23687656
0.24	24	0.009	-1.012	0.021	-2.86479	-0.3437748	-1.2605076	90.45287946	-0.10313244	-20.24260614
0.25	25	0.011	-1.012	0.02	-2.9793816	-0.6302538	-1.3750992	90.4127724	-0.06302538	-20.25979488
0.26	26	0.014	-1.012	0.019	-2.9793816	-0.6875496	-1.432395	90.37839492	-0.05156622	-20.26552446
0.27	27	0.019	-1.011	0.016	-2.9793816	-0.572958	-1.2605076	90.34974702	-0.03437748	-20.27125404
0.28	28	0.023	-1.008	0.014	-2.9793816	-0.1718874	-1.145916	90.32109912	-0.02291832	-20.27698362
0.29	29	0.024	-1.006	0.013	-3.0939732	0.1145916	-1.0313244	90.28672164	-0.01718874	-20.27125404
0.3	30	0.022	-1.003	0.013	-3.3804522	0.4583664	-1.2032118	90.240885	0.02291832	-20.2827132
0.31	31	0.019	-1.003	0.01	-3.724227	0.6302538	-1.4896908	90.20650752	0.04010706	-20.27698362
0.32	32	0.018	-1.003	0.008	-3.8961144	0.3437748	-1.7761698	90.16640046	0.0572958	-20.27698362
0.33	33	0.018	-1.006	0.005	-4.2398892	-0.0572958	-2.1199446	90.12056382	0.07448454	-20.27698362
0.34	34	0.02	-1.005	0.002	-4.4690724	-0.1718874	-2.3491278	90.07472718	0.09740286	-20.27698362
0.35	35	0.023	-1.005	0.004	-4.5263682	0	-2.4637194	90.01743138	0.14896908	-20.29417236
0.36	36	0.028	-1.006	0.007	-4.583664	0.5156622	-2.5210152	89.97159474	0.17761698	-20.28844278
0.37	37	0.032	-1.012	0.009	-4.7555514	0.9740286	-2.3491278	89.9257581	0.2005353	-20.27698362
0.38	38	0.035	-1.015	0.008	-5.5003968	1.6042824	-2.3491278	89.8684623	0.22345362	-20.26552446
0.39	39	0.036	-1.017	0.006	-6.1306506	1.8334656	-2.2345362	89.80543692	0.24064236	-20.24260614
0.4	40	0.035	-1.014	0.001	-6.7609044	1.8907614	-2.2345362	89.73095238	0.286479	-20.23687656
0.41	41	0.034	-1.009	-0.001	-7.161975	2.0626488	-2.291832	89.65646784	0.30939732	-20.21968782
0.42	42	0.035	-1.008	-0.004	-7.161975	2.3491278	-2.2345362	89.5819833	0.33231564	-20.1967695
0.43	43	0.038	-1.008	-0.001	-7.2765666	2.2345362	-2.4064236	89.50749876	0.35523396	-20.17385118
0.44	44	0.041	-1.011	0	-7.5630456	1.8334656	-2.6356068	89.43301422	0.37815228	-20.15666244
0.45	45	0.046	-1.012	0	-7.9641162	1.2605076	-2.86479	89.34707052	0.4297185	-20.15666244
0.46	46	0.05	-1.016	0.001	-8.7662574	0.572958	-2.9220858	89.25539724	0.4583664	-20.15666244
0.47	47	0.046	-1.016	0.001	-9.5111028	0.4010706	-2.9220858	89.15799438	0.4870143	-20.15093286
0.48	48	0.041	-1.017	0.002	-10.1986524	0.7448454	-2.9220858	89.05486194	0.5156622	-20.14520328
0.49	49	0.036	-1.018	0.004	-10.8289062	1.0886202	-3.0366774	88.94599992	0.55003968	-20.13374412
0.5	50	0.033	-1.017	0.007	-11.8029348	1.3750992	-3.151269	88.82567874	0.59014674	-20.12801454
0.51	51	0.03	-1.018	0.006	-12.5477802	1.6615782	-3.3231564	88.69962798	0.62452422	-20.11655538
0.52	52	0.029	-1.016	0.004	-13.1207382	2.0626488	-3.437748	88.56211806	0.65317212	-20.09363706
0.53	53	0.031	-1.013	0.005	-13.464513	2.6929026	-3.3231564	88.42460814	0.6875496	-20.07071874
0.54	54	0.037	-1.014	0.001	-13.6936962	3.2658606	-3.0939732	88.28709822	0.7161975	-20.04207084
0.55	55	0.042	-1.01	0.001	-13.8082878	3.5523396	-2.7501984	88.1495883	0.75630456	-20.01342294
0.56	56	0.042	-1.009	0.004	-14.037471	3.9534102	-2.5210152	88.0063488	0.77922288	-19.97904546
0.57	57	0.039	-1.009	0.001	-14.32395	4.5263682	-2.3491278	87.85737972	0.8021412	-19.93320882
0.58	58	0.034	-1.01	-0.004	-14.3812458	5.156622	-2.2345362	87.71414022	0.82505952	-19.88737218
0.59	59	0.036	-1.015	-0.006	-14.2093584	5.8441716	-2.291832	87.57090072	0.84797784	-19.83007638
0.6	60	0.036	-1.018	-0.002	-14.3812458	6.3598338	-2.3491278	87.42766122	0.87662574	-19.77278058
0.61	61	0.037	-1.014	-0.001	-14.6677248	6.7036086	-2.291832	87.27869214	0.89954406	-19.7097552
0.62	62	0.041	-1.009	-0.005	-14.8396122	7.6776372	-2.2345362	87.12972306	0.92246238	-19.63527066
0.63	63	0.045	-1.01	-0.006	-15.1260912	8.021412	-1.9480572	86.9750244	0.9453807	-19.56078612
0.64	64	0.047	-1.009	-0.009	-15.2406828	8.307891	-1.6042824	86.82032574	0.96256944	-19.480572
0.65	65	0.051	-1.009	-0.011	-15.1260912	8.7089616	-1.0886202	86.67135666	0.98548776	-19.40035788
0.66	66	0.054	-1.008	-0.012	-14.4385416	8.880849	-0.5156622	86.52238758	0.99121734	-19.31441418
0.67	67	0.063	-1.006	-0.009	-13.8082878	9.2246238	-0.0572958	86.38487766	0.99694692	-19.2227409
0.68	68	0.066	-1	-0.009	-13.6364004	9.3392154	0	86.24163816	0.99694692	-19.13106762
0.69	69	0.063	-0.993	-0.008	-13.4072172	9.740286	-0.0572958	86.10985782	1.0026765	-19.03939434
0.7	70	0.062	-0.988	-0.016	-12.4331886	11.4018642	-0.0572958	85.98953664	1.01986524	-18.93053232
0.71	71	0.061	-0.987	-0.022	-10.3705398	13.8082878	0.1718874	85.88067462	1.01986524	-18.79875198
0.72	72	0.057	-0.989	-0.01	-8.9954406	15.8709366	0.3437748	85.78900134	1.02559482	-18.63832374
0.73	73	0.052	-0.992	0	-8.3651868	16.902261	0.286479	85.70878722	1.0313244	-18.47216592
0.74	74	0.051	-0.994	0.009	-8.1932994	17.6471064	0	85.62284352	1.03705398	-18.30027852
0.75	75	0.05	-0.995	0.013	-8.2505952	18.7930224	-0.286479	85.55408856	1.0599723	-18.12266154
0.76	76	0.048	-0.999	0.024	-9.453807	19.5378678	-0.5156622	85.4566857	1.07143146	-17.92785582
0.77	77	0.048	-0.996	0.025	-10.3705398	19.3086846	-0.572958	85.35355326	1.0886202	-17.73877968
0.78	78	0.051	-0.986	0.015	-10.313244	18.621135	-0.7448454	85.25042082	1.10580894	-17.55543312
0.79	79	0.057	-0.98	0.018	-9.9121734	18.048177	-0.9167328	85.15301796	1.12299768	-17.37781614
0.8	80	0.065	-0.984	0.024	-11.0580894	17.761698	-0.9740286	85.0556151	1.15737516	-17.21165832
0.81	81	0.074	-0.98	0.019	-11.5737516	17.7044022	-1.145916	84.93529392	1.1745639	-17.03977092
0.82	82	0.083	-0.982	0.012	-11.2872726	17.3606274	-1.2605076	84.82070232	1.19748222	-16.86788352
0.83	83	0.086	-0.986	0.008	-11.5737516	16.6730778	-1.145916	84.70611072	1.22040054	-16.70745528
0.84	84	0.082	-0.987	0.008	-12.0894138	16.042824	-1.0313244	84.58578954	1.23758928	-16.55275662
0.85	85	0.078	-0.99	0.014	-12.5477802	15.5844576	-1.0886202	84.47692752	1.27769634	-16.40951712
0.86	86	0.076	-0.994	0.008	-13.1207382	15.2406828	-0.9740286	84.34514718	1.29488508	-16.26054804
0.87	87	0.073	-1	-0.004	-13.6364004	14.32395	-0.8021412	84.20190768	1.31207382	-16.11730854
0.88	88	0.073	-1.01	-0.015	-15.3552744	12.0894138	-0.4583664	84.04720902	1.32353298	-16.00271694
0.89	89	0.069	-1.015	-0.013	-16.9595568	9.0527364	0.0572958	83.87532162	1.32926256	-15.91677324
0.9	90	0.067	-1.017	-0.027	-17.3033316	7.5630456	0.572958	83.71489338	1.34072172	-15.84801828
0.91	91	0.067	-1.013	-0.046	-16.9595568	5.9587632	0.9740286	83.54300598	1.33499214	-15.79072248
0.92	92	0.055	-1.009	-0.054	-16.615782	3.2658606	1.0886202	83.37111858	1.32353298	-15.756345
0.93	93	0.042	-1.004	-0.065	-17.4179232	0.2291832	1.3750992	83.1935016	1.31207382	-15.756345
0.94	94	0.021	-0.998	-0.071	-19.0795014	-4.9847346	1.0886202	83.00442546	1.2891555	-15.80791122
0.95	95	-0.002	-0.99	-0.079	-19.4232762	-9.167328	-0.0572958	82.80961974	1.27769634	-15.89385492
0.96	96	-0.027	-0.981	-0.077	-19.7097552	-12.318597	-2.005353	82.60335486	1.28342592	-16.01990568
0.97	97	-0.046	-0.97	-0.088	-20.5118964	-13.2353298	-4.297185	82.39708998	1.30634424	-16.1574156
0.98	98	-0.064	-0.963	-0.097	-21.3140376	-11.5737516	-6.6463128	82.17936594	1.35791046	-16.28346636
0.99	99	-0.068	-0.969	-0.1	-21.7151082	-8.1932994	-8.307891	81.95591232	1.432395	-16.38086922
1	100	-0.062	-0.992	-0.125	-22.5172494	-5.2712136	-8.9381448	81.72099954	1.49542038	-16.43816502
1.01	101	-0.043	-1.025	-0.165	-22.8610242	-4.4690724	-7.7922288	81.49181634	1.56417534	-16.49546082
1.02	102	-0.031	-1.044	-0.168	-21.0275586	-7.0473834	-4.4690724	81.2740923	1.59855282	-16.57567494
1.03	103	-0.035	-1.049	-0.151	-17.8189938	-8.59437	-1.3750992	81.09074574	1.59855282	-16.66161864
1.04	104	-0.054	-1.042	-0.118	-14.2093584	-8.3651868	0.9740286	80.94750624	1.5756345	-16.74756234
1.05	105	-0.073	-1.033	-0.081	-11.6310474	-6.875496	2.3491278	80.8443738	1.50687954	-16.79339898
1.06	106	-0.083	-1.034	-0.072	-11.6883432	-4.9274388	2.578311	80.72405262	1.47250206	-16.83923562
1.07	107	-0.087	-1.049	-0.067	-12.3758928	-3.8961144	3.0366774	80.59800186	1.43812458	-16.8736131
1.08	108	-0.085	-1.07	-0.055	-12.891555	-3.437748	3.6096354	80.46622152	1.39228794	-16.902261
1.09	109	-0.083	-1.103	-0.039	-13.2926256	-2.6929026	4.4117766	80.33444118	1.3464513	-16.92517932
1.1	110	-0.076	-1.124	-0.046	-14.1520626	-1.0313244	5.72958	80.20839042	1.26623718	-16.91944974
1.11	111	-0.055	-1.129	-0.057	-13.6936962	-0.9740286	6.875496	80.06515092	1.19748222	-16.91944974
1.12	112	-0.037	-1.136	-0.047	-12.5477802	-1.0886202	8.5370742	79.93910016	1.11153852	-16.91372016
1.13	113	-0.027	-1.143	-0.037	-11.2299768	-2.0626488	10.4278356	79.82450856	1.0026765	-16.91944974
1.14	114	-0.029	-1.146	-0.024	-10.026765	-3.5523396	12.4904844	79.72137612	0.87662574	-16.9309089
1.15	115	-0.04	-1.141	-0.012	-9.0527364	-4.6982556	13.8655836	79.65262116	0.72192708	-16.95382722
1.16	116	-0.033	-1.13	-0.008	-8.7089616	-6.016059	14.2666542	79.56667746	0.572958	-16.9882047
1.17	117	-0.028	-1.121	-0.002	-8.8235532	-7.5630456	13.750992	79.47500418	0.42398892	-17.03977092
1.18	118	-0.024	-1.116	0.001	-9.8548776	-9.5111028	13.5791046	79.37760132	0.27501984	-17.10852588
1.19	119	-0.011	-1.109	0	-11.5737516	-11.6310474	13.6364004	79.26300972	0.12605076	-17.20019916
1.2	120	-0.004	-1.102	0	-13.1207382	-13.8655836	14.037471	79.14841812	-0.0286479	-17.30906118
1.21	121	0.002	-1.091	-0.003	-13.6364004	-17.1314442	14.8396122	79.0109082	-0.2005353	-17.45230068
1.22	122	-0.002	-1.081	-0.007	-13.8655836	-21.772404	15.3552744	78.87912786	-0.38961144	-17.63564724
1.23	123	-0.022	-1.072	-0.002	-13.8655836	-25.8404058	15.2406828	78.74161794	-0.58441716	-17.85910086
1.24	124	-0.04	-1.061	-0.002	-13.2926256	-28.9916748	14.32395	78.61556718	-0.7734933	-18.11693196
1.25	125	-0.047	-1.045	-0.004	-12.7196676	-30.8824362	13.0061466	78.50670516	-0.95683986	-18.3919518
1.26	126	-0.055	-1.015	-0.026	-11.745639	-33.4607472	11.4018642	78.39784314	-1.12299768	-18.69561954
1.27	127	-0.069	-0.975	-0.04	-10.313244	-35.1223254	10.1413566	78.30616986	-1.28342592	-19.0222056
1.28	128	-0.087	-0.934	-0.05	-8.307891	-35.3515086	8.880849	78.2374149	-1.43812458	-19.34879166
1.29	129	-0.106	-0.894	-0.054	-6.4171296	-34.6066632	7.5057498	78.1801191	-1.56990492	-19.66964814
1.3	130	-0.12	-0.858	-0.067	-4.9274388	-32.6013102	6.0733548	78.15720078	-1.70168526	-19.9675863
1.31	131	-0.129	-0.818	-0.081	-2.9793816	-30.0229992	4.583664	78.14001204	-1.79908812	-20.2540653
1.32	132	-0.133	-0.78	-0.095	-0.4010706	-26.6998428	3.151269	78.14574162	-1.87930224	-20.50616682
1.33	133	-0.13	-0.733	-0.11	2.578311	-23.1475032	1.9480572	78.1801191	-1.93659804	-20.72962044
1.34	134	-0.133	-0.688	-0.121	6.4171296	-18.1627686	0.859437	78.25460364	-1.9767051	-20.90150784
1.35	135	-0.15	-0.651	-0.115	7.3338624	-13.464513	-0.1145916	78.33481776	-2.01681216	-21.0275586
1.36	136	-0.165	-0.621	-0.091	5.9014674	-8.2505952	-1.4896908	78.40357272	-2.01681216	-21.10777272
1.37	137	-0.176	-0.599	-0.085	2.291832	0.6875496	-3.437748	78.42649104	-1.98243468	-21.10777272
1.38	138	-0.18	-0.594	-0.089	-5.3285094	15.4125702	-6.302538	78.36346566	-1.89649098	-20.9702628
1.39	139	-0.176	-0.58	-0.125	-11.9175264	27.215505	-10.1986524	78.23168532	-1.7475219	-20.72962044
1.4	140	-0.168	-0.553	-0.169	-11.5737516	41.4821592	-14.610429	78.08844582	-1.5469866	-20.35146816
1.41	141	-0.127	-0.503	-0.276	-12.0894138	63.7129296	-16.4438946	77.94520632	-1.27196676	-19.767051
1.42	142	-0.035	-0.472	-0.375	-11.2872726	87.6052782	-10.1413566	77.80196682	-1.01986524	-18.9362619
1.43	143	0.098	-0.576	-0.306	-4.2398892	83.8237554	2.7501984	77.73321186	-0.89381448	-18.11693196
1.44	144	0.167	-0.901	-0.362	-3.2658606	58.9573782	21.0275586	77.68164564	-0.99121734	-17.49813732
1.45	145	0.229	-1.195	-0.411	-12.2613012	32.945085	38.2735944	77.54413572	-1.2891555	-17.1027963
1.46	146	0.352	-1.216	-0.197	-10.1413566	23.5485738	39.0757356	77.42954412	-1.62147114	-16.79339898
1.47	147	0.322	-1.136	-0.009	-2.8074942	18.7930224	23.8350528	77.38943706	-1.82200644	-16.5584862
1.48	148	0.131	-1.113	-0.052	1.2605076	4.7555514	5.3858052	77.40089622	-1.8621135	-16.5011904
1.49	149	-0.006	-1.121	-0.053	9.6829902	-9.2819196	-7.5057498	77.50402866	-1.8048177	-16.61005242
1.5	150	-0.107	-1.24	-0.041	23.3193906	-17.2460358	-12.1467096	77.75613018	-1.72460358	-16.79912856
1.51	151	-0.153	-1.35	-0.04	23.8923486	-18.1054728	-12.7196676	78.0082317	-1.62720072	-16.99966386
1.52	152	-0.153	-1.433	-0.058	18.2773602	-15.2979786	-11.6883432	78.20303742	-1.54125702	-17.17155126
1.53	153	-0.077	-1.528	-0.047	15.5844576	-11.8029348	-6.1879464	78.36346566	-1.50114996	-17.29760202
1.54	154	0.047	-1.601	-0.014	9.0527364	-5.6149884	0.1718874	78.46086852	-1.51260912	-17.34916824
1.55	155	0.106	-1.641	-0.009	1.432395	2.9220858	3.437748	78.47805726	-1.53552744	-17.31479076
1.56	156	0.078	-1.633	-0.057	-5.8441716	9.5111028	4.010706	78.41503188	-1.55844576	-17.21165832
1.57	157	-0.005	-1.578	-0.118	-8.9954406	12.2613012	3.6669312	78.31762902	-1.5756345	-17.08560756
1.58	158	-0.078	-1.516	-0.162	-8.59437	13.750992	3.0366774	78.22595574	-1.58136408	-16.94809764
1.59	159	-0.094	-1.469	-0.193	-8.4797784	16.1001198	2.3491278	78.13428246	-1.5756345	-16.7876694
1.6	160	-0.053	-1.433	-0.209	-8.880849	19.0222056	1.5469866	78.0368796	-1.55844576	-16.59859326
1.61	161	0.011	-1.399	-0.219	-9.453807	21.0848544	0.1145916	77.92801758	-1.52406828	-16.39805796
1.62	162	0.061	-1.362	-0.214	-8.2505952	20.7983754	-1.2032118	77.8363443	-1.47250206	-16.19752266
1.63	163	0.088	-1.337	-0.2	-7.1046792	19.767051	-2.1199446	77.76185976	-1.42093584	-16.00844652
1.64	164	0.096	-1.313	-0.166	-6.7036086	19.0222056	-2.9793816	77.68164564	-1.35791046	-15.83082954
1.65	165	0.07	-1.255	-0.169	-3.724227	21.2567418	-4.6982556	77.64153858	-1.2605076	-15.6417534
1.66	166	0.037	-1.212	-0.159	0.3437748	27.788463	-7.2192708	77.64153858	-1.14018642	-15.3839223
1.67	167	0.034	-1.123	-0.186	2.9220858	32.8877892	-9.2819196	77.65872732	-0.98548776	-15.08598414
1.68	168	0.021	-1.017	-0.196	7.9068204	34.2055926	-10.886202	77.72748228	-0.81932994	-14.77085724
1.69	169	0.005	-0.909	-0.181	16.5011904	30.9970278	-11.9748222	77.88791052	-0.64171296	-14.4958374
1.7	170	0.005	-0.783	-0.169	27.2728008	22.91832	-12.1467096	78.15720078	-0.48128472	-14.2953021
1.71	171	0.013	-0.694	-0.151	36.7266078	7.6776372	-11.172681	78.52962348	-0.35523396	-14.2380063
1.72	172	0.078	-0.605	-0.116	38.7892566	-5.9587632	-9.6829902	78.9249645	-0.26356068	-14.31249084
1.73	173	0.179	-0.443	-0.085	40.0497642	-16.615782	-8.880849	79.33176468	-0.2005353	-14.48437824
1.74	174	0.248	-0.304	0.015	40.966497	-24.1788276	-8.4224826	79.7557536	-0.14896908	-14.73647976
1.75	175	0.282	-0.17	0.031	39.4195104	-21.8869956	-7.0473834	80.16255378	-0.0859437	-14.96566296
1.76	176	0.28	-0.045	0.006	37.1276784	-21.772404	-4.2398892	80.54070606	-0.07448454	-15.183387
1.77	177	0.22	0.058	0.081	34.7785506	-23.491278	1.3750992	80.89594002	-0.1145916	-15.40684062
1.78	178	0.116	0.149	0.181	31.8564648	-24.923673	8.3651868	81.22252608	-0.22345362	-15.63602382
1.79	179	0.011	0.231	0.2	28.3041252	-26.0122932	14.8396122	81.51473466	-0.4010706	-15.86520702
1.8	180	-0.048	0.259	0.192	27.7311672	-26.9863218	19.5378678	81.81267282	-0.62452422	-16.1001198
1.81	181	-0.078	0.179	0.216	25.2674478	-29.3354496	22.6891368	82.0762335	-0.87662574	-16.35222132
1.82	182	-0.087	-0.086	0.056	12.318597	-21.9442914	19.3659804	82.20801384	-1.09434978	-16.54129746
1.83	183	-0.105	-0.443	-0.182	-8.6516658	-15.0687954	8.4797784	82.12779972	-1.19175264	-16.67880738
1.84	184	-0.207	-1.098	-0.399	-50.706783	-4.1825934	-14.3812458	81.61213752	-1.0599723	-16.74756234
1.85	185	-0.322	-2.493	-1.104	-121.753575	40.2216516	-56.6082504	80.36881866	-0.46409598	-16.44962418
1.86	186	-0.786	-3.129	-1.025	-100.840608	24.637194	-66.0620574	79.33749426	0.2005353	-16.33503258
1.87	187	-0.772	-2.527	-0.259	-25.4393352	0.8021412	-35.7525792	79.07966316	0.55003968	-16.39232838
1.88	188	-0.281	-1.875	-0.321	9.0527364	11.1153852	-17.7044022	79.17133644	0.73911582	-16.31784384
1.89	189	0.246	-1.288	-0.249	49.5035712	24.8090814	-4.3544808	79.67553948	0.82505952	-16.07720148
1.9	190	0.695	-1.286	-0.139	74.9429064	26.6998428	6.7609044	80.43757362	0.81932994	-15.80218164
1.91	191	0.938	-1.439	-0.055	64.8588456	14.5531332	9.9121734	81.09647532	0.75057498	-15.6417534
1.92	192	0.818	-1.597	0.005	48.4722468	-2.291832	6.1879464	81.5892192	0.6875496	-15.64748298
1.93	193	0.465	-1.685	0.08	26.642547	-25.6112226	0.1145916	81.85850946	0.6589017	-15.89385492
1.94	194	0.111	-1.768	0.1	1.3178034	-46.982556	-4.9847346	81.86996862	0.6589017	-16.36368048
1.95	195	-0.145	-1.779	0.093	-18.6784308	-59.3584488	-7.8495246	81.68662206	0.66463128	-16.9595568
1.96	196	-0.28	-1.629	0.046	-31.1689152	-65.030733	-6.5317212	81.37149516	0.64744254	-17.61272892
1.97	197	-0.31	-1.38	-0.048	-27.1009134	-65.7182826	-4.010706	81.09647532	0.6016059	-18.26590104
1.98	198	-0.303	-1.18	-0.124	-7.734933	-57.6395748	-2.0626488	81.02199078	0.55003968	-18.83312946
1.99	199	-0.245	-1.041	-0.187	11.45916	-42.7999626	-0.4583664	81.13658238	0.50420304	-19.2513888
2	200	-0.16	-0.963	-0.178	24.0069402	-28.5333084	0.2291832	81.37722474	0.44690724	-19.52067906
2.01	201	-0.068	-0.897	-0.132	33.3461556	-18.4492476	0.0572958	81.71526996	0.42398892	-19.69829604
2.02	202	0.013	-0.798	-0.084	41.0237928	-14.6677248	0.1145916	82.1335293	0.41252976	-19.84153554
2.03	203	0.074	-0.676	-0.042	48.128472	-14.896908	0.6875496	82.62627318	0.39534102	-19.97904546
2.04	204	0.092	-0.566	-0.026	53.285094	-14.037471	1.0886202	83.1648537	0.3724227	-20.1108258
2.05	205	-0.02	-0.476	-0.007	50.8213746	-10.7143146	1.0886202	83.68624548	0.34950438	-20.20822866
2.06	206	-0.203	-0.395	-0.019	38.3308902	-7.734933	-0.2291832	84.07585692	0.34950438	-20.2827132
2.07	207	-0.37	-0.303	-0.063	28.5906042	-3.2085648	-1.9480572	84.3680655	0.3724227	-20.3113611
2.08	208	-0.4	-0.254	-0.066	22.631841	2.578311	-2.0626488	84.5972487	0.39534102	-20.28844278
2.09	209	-0.382	-0.18	-0.076	10.7716104	10.4278356	-0.572958	84.70611072	0.41252976	-20.18531034
2.1	210	-0.36	-0.1	-0.136	1.6042824	22.2880662	-1.145916	84.70611072	0.4010706	-19.95039756
2.11	211	-0.313	-0.036	-0.2	2.2345362	38.2735944	-3.2658606	84.72902904	0.4583664	-19.57797486
2.12	212	-0.236	-0.005	-0.143	5.6722842	52.4829528	-4.5263682	84.78059526	0.53858052	-19.06231266
2.13	213	-0.154	0.05	0.004	6.7609044	58.4990118	-4.3544808	84.84935022	0.61879464	-18.48935466
2.14	214	-0.076	0.065	0.115	5.9014674	62.3378304	-4.6982556	84.90664602	0.70473834	-17.8762896
2.15	215	0.103	-0.032	0.197	-0.9740286	75.4585686	-5.9014674	84.90664602	0.82505952	-17.14290336
2.16	216	0.335	-0.345	-0.016	-15.9855282	84.224826	0.4583664	84.74621778	0.87089616	-16.31211426
2.17	217	0.256	-0.915	-0.47	-37.0130868	53.3423898	25.5539268	84.37379508	0.64744254	-15.76207458
2.18	218	0.571	-2.296	-1.22	-83.8237554	-3.437748	82.219473	83.52581724	-0.1718874	-15.72196752
2.19	219	1.458	-2.947	-1.023	-90.0689976	-24.9809688	133.9575804	82.61481402	-1.52406828	-15.81937038
2.2	220	1.007	-2.017	-0.334	-13.6936962	-7.3338624	101.2416786	82.4773041	-2.5210152	-15.76780416
2.21	221	-0.093	-1.409	-0.193	2.2345362	-20.1108258	58.3844202	82.51168158	-3.11689152	-15.89385492
2.22	222	-0.583	-1.17	0.04	10.026765	-42.97185	19.6524594	82.64346192	-3.3518043	-16.28919594
2.23	223	-0.857	-1.18	0.019	27.7311672	-40.7946096	-6.7609044	82.95285924	-3.3231564	-16.69599612
2.24	224	-0.936	-1.483	0.001	34.3201842	-30.2521824	-19.6524594	83.32528194	-3.151269	-17.0168526
2.25	225	-0.712	-1.744	0.034	31.3980984	-20.626488	-20.05353	83.65759758	-2.97365202	-17.23457664
2.26	226	-0.286	-1.809	0.137	27.215505	-5.8441716	-13.750992	83.938347	-2.84187168	-17.3033316
2.27	227	0.105	-1.848	0.204	14.9542038	13.0061466	-7.161975	84.0815865	-2.76165756	-17.18301042
2.28	228	0.293	-1.816	0.227	-5.5003968	28.0176462	-3.8961144	84.00710196	-2.69863218	-16.90799058
2.29	229	0.344	-1.714	0.211	-17.6471064	33.3461556	-3.0939732	83.81229624	-2.64706596	-16.5871341
2.3	230	0.258	-1.566	0.149	-29.9657034	29.6792244	-4.8128472	83.49716934	-2.56685184	-16.30638468
2.31	231	0.108	-1.381	0.076	-28.934379	26.356068	-7.9068204	83.18777202	-2.46944898	-16.06001274
2.32	232	-0.014	-1.288	0.029	-19.0222056	25.8404058	-11.2299768	82.98150714	-2.33766864	-15.81937038
2.33	233	-0.058	-1.266	0.002	-15.5271618	24.350715	-13.464513	82.80961974	-2.1772404	-15.59591676
2.34	234	-0.027	-1.209	-0.056	-13.0634424	20.1681216	-15.1260912	82.66638024	-2.01108258	-15.41829978
2.35	235	0.042	-1.126	-0.126	-10.3705398	10.8289062	-16.7876694	82.55178864	-1.81054728	-15.33808566
2.36	236	0.121	-1.018	-0.162	-6.9900876	-0.0572958	-17.475219	82.48303368	-1.63865988	-15.36673356
2.37	237	0.214	-0.895	-0.198	-3.2658606	-8.59437	-15.8136408	82.45438578	-1.49542038	-15.469866
2.38	238	0.251	-0.806	-0.217	2.4064236	-18.2200644	-11.45916	82.48303368	-1.39801752	-15.66467172
2.39	239	0.268	-0.699	-0.207	6.3598338	-27.215505	-7.5057498	82.55751822	-1.35218088	-15.93969156
2.4	240	0.267	-0.581	-0.145	15.4125702	-33.1742682	-4.4690724	82.72367604	-1.31207382	-16.27773678
2.41	241	0.256	-0.502	0.007	22.9756158	-35.9244666	-2.6356068	82.97004798	-1.3178034	-16.63297074
2.42	242	0.221	-0.447	0.105	19.2513888	-37.1276784	-1.2032118	83.18204244	-1.34072172	-16.99966386
2.43	243	0.139	-0.394	0.176	15.6417534	-36.669312	0.572958	83.35392984	-1.3750992	-17.3606274
2.44	244	0.043	-0.396	0.236	16.329303	-31.2835068	3.5523396	83.53154682	-1.43812458	-17.66429514
2.45	245	-0.039	-0.451	0.169	12.891555	-22.345362	7.5057498	83.6805159	-1.53552744	-17.87056002
2.46	246	-0.085	-0.506	0.052	5.443101	-13.750992	10.2559482	83.74354128	-1.64438946	-17.99661078
2.47	247	-0.092	-0.496	0.008	5.2139178	-10.2559482	10.6570188	83.80083708	-1.75898106	-18.08255448
2.48	248	-0.038	-0.463	-0.019	8.59437	-7.3338624	8.59437	83.89251036	-1.85065434	-18.14557986
2.49	249	0.013	-0.412	-0.047	12.4331886	-5.3285094	6.4171296	84.01856112	-1.91367972	-18.1914165
2.5	250	0.016	-0.358	-0.069	15.4125702	-5.9014674	5.0420304	84.17325978	-1.96524594	-18.24298272
2.51	251	0.028	-0.3	-0.052	16.5584862	-8.9381448	5.3285094	84.35087676	-2.02254174	-18.32892642
2.52	252	0.046	-0.28	0.018	14.9542038	-14.6677248	6.4171296	84.50557542	-2.09702628	-18.46643634
2.53	253	-0.1	-0.493	-0.032	-6.0733548	-37.8725238	4.4117766	84.46546836	-2.16578124	-18.83312946
2.54	254	-0.183	-0.813	-0.498	-58.728195	-48.3003594	-16.8449652	83.89251036	-2.03973048	-19.3373325
2.55	255	-0.206	-1.501	-1.036	-94.1369994	0.5156622	-62.5097178	82.9356705	-1.432395	-19.40608746
2.56	256	-0.821	-2.247	-0.872	-76.6044846	31.0543236	-101.4708618	82.15071804	-0.40680018	-19.23992964
2.57	257	-0.933	-2.294	-0.439	-15.2406828	18.3919518	-86.4020664	81.9902898	0.45263682	-19.17690426
2.58	258	-0.157	-1.789	-0.257	18.1627686	16.3865988	-61.0773228	82.17363636	1.07716104	-19.09669014
2.59	259	0.337	-1.218	-0.111	36.8984952	27.6738714	-38.6173692	82.55178864	1.4896908	-18.86750694
2.6	260	0.545	-0.956	-0.12	34.1482968	38.0444112	-22.8610242	82.89556344	1.8048177	-18.5351913
2.61	261	0.644	-1.051	-0.135	16.6730778	33.4607472	-13.1207382	83.06745084	1.97097552	-18.2200644
2.62	262	0.586	-1.302	-0.064	9.8548776	24.8663772	-7.2192708	83.17631286	2.0626488	-17.98515162
2.63	263	0.415	-1.586	-0.078	5.156622	11.8602306	-5.2712136	83.22787908	2.12567418	-17.87056002
2.64	264	0.153	-1.626	0.003	-12.8342592	-2.86479	-4.870143	83.09609874	2.17151082	-17.91066708
2.65	265	0.013	-1.562	0.021	-33.7472262	-11.5164558	-4.6409598	82.75805352	2.2058883	-18.03098826
2.66	266	-0.049	-1.445	0.017	-47.3263308	-14.610429	-1.6615782	82.27103922	2.20015872	-18.17995734
2.67	267	-0.082	-1.306	-0.008	-51.1078536	-10.9434978	2.9793816	81.74964744	2.15432208	-18.28881936
2.68	268	-0.094	-1.17	-0.119	-48.9306132	-3.7815228	6.302538	81.25117398	2.08556712	-18.32319684
2.69	269	-0.111	-1.029	-0.178	-41.8832298	3.8961144	8.1360036	80.82718506	2.005353	-18.2773602
2.7	270	-0.15	-0.977	-0.139	-32.8877892	16.3865988	8.4224826	80.500599	1.90795014	-18.09401364
2.71	271	-0.189	-0.979	-0.101	-32.2002396	27.6738714	6.9327918	80.17974252	1.87930224	-17.81326422
2.72	272	-0.202	-0.979	-0.073	-34.8931422	39.247623	6.1306506	79.83023814	1.86784308	-17.42365278
2.73	273	-0.172	-0.965	-0.047	-38.1590028	49.274388	6.1306506	79.45208586	1.87930224	-16.93663848
2.74	274	-0.102	-0.956	-0.029	-39.3049188	57.1239126	6.9900876	79.068204	1.89649098	-16.36941006
2.75	275	-0.033	-0.934	-0.055	-41.252976	59.7595194	8.5370742	78.6671334	1.90795014	-15.77353374
2.76	276	0.071	-0.96	-0.013	-41.9978214	54.2591226	10.0840608	78.24887406	1.89649098	-15.22922364
2.77	277	0.169	-0.917	-0.089	-48.70143	37.3568616	11.5164558	77.76185976	1.84492476	-14.84534178
2.78	278	0.19	-0.918	-0.135	-47.8992888	9.1100322	14.0947668	77.28057504	1.718874	-14.73075018
2.79	279	0.185	-0.882	-0.183	-41.539455	-13.6364004	14.6677248	76.85658612	1.5469866	-14.83388262
2.8	280	0.177	-0.822	-0.205	-20.8556712	-29.507337	12.9488508	76.64459166	1.38655836	-15.10317288
2.81	281	0.217	-0.763	-0.034	-2.291832	-32.6013102	7.3338624	76.61594376	1.24904844	-15.40111104
2.82	282	0.226	-0.651	0.141	2.4637194	-32.372127	-0.7448454	76.63886208	1.19175264	-15.71623794
2.83	283	0.133	-0.539	0.167	6.589017	-33.1169724	-9.740286	76.70188746	1.22040054	-16.06001274
2.84	284	-0.019	-0.527	0.16	9.9121734	-31.9710564	-18.9649098	76.79929032	1.34072172	-16.40951712
2.85	285	-0.199	-0.548	0.129	8.7089616	-29.220858	-27.0436176	76.90242276	1.5183387	-16.74756234
2.86	286	-0.301	-0.525	0.162	3.724227	-26.8144344	-30.9970278	76.93107066	1.76471064	-17.0741484
2.87	287	-0.375	-0.474	0.243	7.734933	-20.1108258	-31.2835068	77.0055552	2.02827132	-17.33770908
2.88	288	-0.408	-0.441	0.258	15.2979786	-5.2712136	-31.1116194	77.15452428	2.3204799	-17.45803026
2.89	289	-0.359	-0.414	0.162	17.5325148	10.6570188	-30.5959572	77.33787084	2.64133638	-17.4179232
2.9	290	-0.258	-0.379	0.032	18.1627686	17.0741484	-28.5906042	77.52694698	2.93354496	-17.3033316
2.91	291	-0.117	-0.37	-0.007	19.2513888	18.334656	-24.5798982	77.72748228	3.2085648	-17.17728084
2.92	292	-0.002	-0.387	0	19.0222056	17.9908812	-16.9595568	77.92801758	3.4091001	-17.03404134
2.93	293	0.023	-0.475	-0.037	13.5218088	14.7823164	-3.6096354	78.07125708	3.47212548	-16.89653142
2.94	294	0.136	-0.783	-0.227	-17.3606274	12.7769634	16.9595568	77.89936968	3.32888598	-16.73610318
2.95	295	0.235	-1.469	-0.598	-58.7854908	-15.8136408	57.4103916	77.30349336	2.73300966	-16.77621024
2.96	296	0.65	-2.343	-0.595	-98.6060718	-47.269035	110.7527814	76.30081686	1.55844576	-16.99393428
2.97	297	1.392	-2.075	-0.716	-137.6245116	-18.048177	119.6909262	74.9142585	0.35523396	-16.89080184
2.98	298	0.899	-0.899	-0.921	-125.3632104	-15.6990492	87.089616	73.64229174	-0.52712136	-16.82204688
2.99	299	0.233	-0.506	-0.426	-50.0765292	-12.7769634	48.8733174	73.1380887	-1.0313244	-16.81058772
3	300	-0.124	-0.651	-0.313	-26.0122932	-30.7105488	16.5011904	72.87452802	-1.31207382	-17.0455005
3.01	301	-0.649	-1.079	-0.224	-30.2521824	-51.6808116	1.6615782	72.58231944	-1.46677248	-17.5325148
3.02	302	-0.874	-1.298	-0.075	-30.4240698	-58.9000824	10.9434978	72.30157002	-1.73606274	-18.06536574
3.03	303	-0.777	-1.428	0.064	-28.934379	-50.9359662	20.1681216	72.02655018	-2.06837838	-18.48935466
3.04	304	-0.462	-1.394	0.143	-24.350715	-28.6479	20.3973048	71.7916374	-2.3491278	-18.70134912
3.05	305	-0.173	-1.367	0.182	-13.750992	-14.8396122	19.2513888	71.68277538	-2.57258142	-18.78729282
3.06	306	0.174	-1.359	0.207	-11.5164558	-11.45916	15.6417534	71.57391336	-2.75592798	-18.84458862
3.07	307	0.425	-1.203	0.284	-25.8404058	-15.469866	8.4797784	71.31608226	-2.88197874	-18.97063938
3.08	308	0.573	-1.01	0.308	-37.528749	-25.5539268	-0.8021412	70.94938914	-2.95646328	-19.21701132
3.09	309	0.638	-0.815	0.301	-38.8465524	-39.7059894	-10.4278356	70.58269602	-2.9793816	-19.62954108
3.1	310	0.491	-0.693	0.226	-30.366774	-52.425657	-18.3919518	70.34205366	-2.92781538	-20.20249908
3.11	311	0.242	-0.649	0.118	-16.2720072	-54.6601932	-24.0069402	70.21027332	-2.87051958	-20.7983754
3.12	312	-0.081	-0.606	0.021	3.6669312	-60.447069	-32.2002396	70.29048744	-2.75592798	-21.46873626
3.13	313	-0.267	-0.504	0.023	38.5027776	-71.61975	-39.0184398	70.72593552	-2.6069589	-22.27087746
3.14	314	-0.302	-0.509	0.309	63.9994086	-88.1209404	-34.8358464	71.43067386	-2.52674478	-23.21052858
3.15	315	-0.186	-0.535	0.348	61.306506	-98.6633676	-27.3873924	72.12968262	-2.5496631	-24.22466424
3.16	316	0.016	-0.596	0.201	53.6861646	-102.7313694	-20.2254174	72.7370181	-2.62987722	-25.25598864
3.17	317	0.201	-0.603	0.006	53.1132066	-101.413566	-13.5791046	73.338624	-2.76165756	-26.25866514
3.18	318	0.18	-0.508	-0.141	53.858052	-95.7412818	-11.9175264	73.94595948	-2.88197874	-27.20404584
3.19	319	-0.002	-0.348	-0.224	52.8267276	-92.3608296	-17.5325148	74.53610622	-2.93354496	-28.1322378
3.2	320	-0.23	-0.178	-0.361	49.9619376	-92.1889422	-27.788463	75.0861459	-2.8934379	-29.08334808
3.21	321	-0.323	-0.013	-0.507	52.6548402	-95.0537322	-37.4714532	75.68202222	-2.73873924	-30.08602458
3.22	322	-0.373	0.059	-0.501	57.6968706	-99.1790298	-44.1750618	76.32946476	-2.51528562	-31.14599688
3.23	323	-0.305	0.127	-0.519	55.9779966	-96.8871978	-49.0452048	76.95398898	-2.22880662	-32.18878044
3.24	324	-0.302	0.112	-0.355	51.5089242	-88.0636446	-51.6808116	77.5212174	-1.8907614	-33.15134988
3.25	325	-0.281	-0.003	-0.199	39.247623	-63.884817	-48.4722468	77.93947674	-1.55271618	-33.86754738
3.26	326	-0.087	-0.14	-0.196	11.5737516	-33.7472262	-39.1903272	78.07125708	-1.2318597	-34.27434756
3.27	327	-0.001	-0.199	-0.212	-6.1879464	-11.0007936	-24.7517856	78.0082317	-1.00840608	-34.42904622
3.28	328	-0.068	-0.22	-0.329	-12.7769634	9.9694692	-11.6310474	77.87645136	-0.87662574	-34.36029126
3.29	329	-0.199	-0.219	-0.395	-22.345362	27.1009134	-4.2398892	77.64153858	-0.79068204	-34.10818974
3.3	330	-0.186	-0.217	-0.333	-31.8564648	42.112413	0.286479	77.2920342	-0.72765666	-33.69565998
3.31	331	-0.069	-0.231	-0.359	-49.4462754	57.6968706	4.1252976	76.776372	-0.66463128	-33.13416114
3.32	332	0.075	-0.191	-0.405	-56.8947294	65.603691	7.9068204	76.18049568	-0.61306506	-32.4867186
3.33	333	0.25	-0.221	-0.38	-63.02538	61.592985	12.318597	75.52732356	-0.60733548	-31.86792396
3.34	334	0.359	-0.433	-0.314	-76.776372	52.9413192	16.2147114	74.73664152	-0.64744254	-31.32361386
3.35	335	0.507	-0.756	-0.19	-90.9284346	53.285094	24.2934192	73.7969904	-0.73338624	-30.76211502
3.36	336	0.642	-1.247	-0.367	-107.716104	38.5600734	36.2682414	72.69691104	-0.99121734	-30.30374862
3.37	337	0.735	-1.838	-0.388	-134.5305384	20.05353	44.690724	71.32181184	-1.3750992	-29.98862172
3.38	338	0.751	-2.309	-0.228	-151.3182078	3.0366774	38.6173692	69.78055482	-1.74179232	-29.84538222
3.39	339	0.613	-2.519	-0.108	-166.2724116	-15.9282324	21.9442914	68.0960583	-2.01681216	-29.92559634
3.4	340	0.467	-2.672	-0.351	-173.4916824	-35.4088044	17.0741484	66.35426598	-2.3204799	-30.20061618
3.41	341	0.602	-2.515	-0.462	-169.02261	-54.43101	24.6944898	64.66403988	-2.7788463	-30.60741636
3.42	342	0.87	-2.181	-0.682	-208.0983456	-74.1407652	19.2513888	62.5956615	-3.28304934	-31.20329268
3.43	343	0.84	-1.876	-0.98	-261.3834396	-100.3249458	-0.8021412	60.01162092	-3.75860448	-32.10856632
3.44	344	0.704	-1.632	-1.148	-293.1253128	-128.6863668	-17.7044022	57.14110134	-4.27999626	-33.32323728
3.45	345	0.54	-1.312	-1.132	-297.9954558	-155.558097	-17.0741484	54.24766344	-5.00765292	-34.73271396
3.46	346	0.459	-1.053	-1.031	-302.1780492	-181.7422776	-1.9480572	51.34849596	-6.07908438	-36.22240476
3.47	347	0.364	-0.896	-0.865	-320.7418884	-215.0884332	18.2200644	48.31181856	-7.58596392	-37.79230968
3.48	348	0.176	-0.764	-0.753	-338.5608822	-249.6378006	33.1742682	45.1490904	-9.5111028	-39.43669914
3.49	349	-0.128	-0.53	-0.704	-297.078723	-282.5828856	47.4409224	42.4848357	-11.84304186	-41.11546608
3.5	350	-0.283	-0.515	-0.026	-231.4177362	-303.381261	69.2133264	40.54823766	-14.53021488	-42.69683016
3.51	351	-0.362	-0.401	0.21	-248.950251	-309.9129822	88.7511942	38.4454818	-17.43511194	-44.0891181
3.52	352	-0.564	-0.433	0.138	-205.8065136	-320.1116346	99.408213	36.82401066	-20.52335556	-45.37254402
3.53	353	-0.575	-0.687	0.585	-170.6268924	-320.4554094	113.6748672	35.5520439	-23.7204612	-46.48981212
3.54	354	-0.432	-0.832	0.888	-201.4520328	-289.4583816	126.2799432	33.8618178	-26.76859776	-47.22892794
3.55	355	-0.333	-0.787	0.903	-219.2137308	-258.3467622	138.8850192	31.84500564	-29.66203566	-47.555514
3.56	356	-0.326	-0.509	1.045	-228.037284	-237.0900204	148.2815304	29.55317364	-32.4294228	-47.53832526
3.57	357	-0.586	-0.111	1.27	-224.313057	-198.816426	163.865988	27.00351054	-34.93897884	-46.99401516
3.58	358	-1.027	0.431	0.951	-214.6300668	-132.7543686	173.7208656	24.1501797	-36.88703604	-45.81372168
3.59	359	-1.028	0.929	0.299	-159.568803	-42.5134836	181.1693196	21.39425172	-37.9871154	-43.94014902
3.6	360	-1.295	1.23	-0.244	-104.278356	44.117766	182.0860524	18.86750694	-38.22775776	-41.5681029
3.61	361	-2.053	1.422	-0.832	-68.0674104	88.235532	169.0799058	16.68453696	-37.9298196	-39.16740888
3.62	362	-2.137	1.695	-1.224	-37.5860448	99.2363256	156.3029424	14.91409674	-37.42561656	-36.90995436
3.63	363	-1.209	1.591	-1.394	-51.3943326	78.8963166	169.595568	12.98322828	-37.09330092	-34.59520404
3.64	364	-0.046	1.581	-1.354	-77.6931048	59.1292656	216.005166	10.50232014	-36.97870932	-31.78770984
3.65	365	-0.023	0.853	-1.632	-60.2178858	54.9466722	223.167141	8.15892192	-36.80682192	-28.92291984
3.66	366	-1.287	0.583	-2.368	-78.495246	74.5991316	171.0852588	6.016059	-36.30834846	-26.67692448
3.67	367	-3.711	0.121	-3.944	-82.792431	194.3473536	133.8429888	4.04508348	-34.52644908	-24.7804335
3.68	368	-3.835	0.48	-3.598	9.2819196	231.2458488	83.938347	3.42055926	-32.30337204	-23.53138506
3.69	369	-2.136	1.104	-3.081	-2.7501984	207.1816128	33.231564	3.05959572	-30.28655988	-22.94123832
3.7	370	-0.814	1.711	-2.614	-55.863405	149.542038	30.0229992	2.24026578	-28.83124656	-22.46568318
3.71	371	-0.445	1.69	-2.684	-35.4088044	124.5610692	36.4401288	1.62720072	-27.6165756	-21.96720972
3.72	372	-0.993	1.193	-2.212	-42.9145542	131.4365652	35.6952834	0.95683986	-26.33314968	-21.49165458
3.73	373	-1.599	0.501	-1.313	-49.3316838	114.7634874	26.4133638	0.29220858	-25.210152	-21.14787978
3.74	374	-1.561	0.227	-0.941	-50.6494872	99.2363256	19.7097552	-0.33231564	-24.2361234	-20.89577826
3.75	375	-1.215	0.296	-0.811	-37.815228	96.0850566	24.6944898	-0.85370742	-23.30793144	-20.5978401
3.76	376	-0.875	0.376	-0.754	-24.5798982	84.511305	31.3408026	-1.24904844	-22.47141276	-20.24833572
3.77	377	-0.435	0.41	-0.667	-18.621135	66.6350154	34.6066632	-1.59282324	-21.80678148	-19.87591302
3.78	378	-0.267	0.428	-0.618	-12.032118	50.6494872	36.5547204	-1.8621135	-21.29684886	-19.48630158
3.79	379	-0.266	0.504	-0.598	-4.6409598	33.6326346	37.7006364	-2.05691922	-20.95307406	-19.08523098
3.8	380	-0.33	0.657	-0.591	0.5156622	19.1367972	35.523396	-2.31475032	-20.78118666	-18.65551248
3.81	381	-0.309	0.777	-0.502	7.3911582	10.3705398	29.6792244	-2.35485738	-20.66659506	-18.34038558
3.82	382	-0.287	0.761	-0.523	12.5477802	7.2192708	23.4339822	-2.31475032	-20.58065136	-18.09401364
3.83	383	-0.281	0.714	-0.516	13.8082878	8.6516658	18.621135	-2.24026578	-20.48897808	-17.89920792
3.84	384	-0.26	0.648	-0.5	14.610429	10.7143146	13.6364004	-2.14286292	-20.37438648	-17.75596842
3.85	385	-0.268	0.559	-0.534	14.3812458	15.8709366	7.6203414	-2.13140376	-20.23114698	-17.63564724
3.86	386	-0.288	0.47	-0.614	14.8396122	23.1475032	1.2605076	-1.98816426	-20.00196378	-17.62418808
3.87	387	-0.29	0.4	-0.722	15.4125702	31.9710564	-4.7555514	-1.81627686	-19.68683688	-17.68148388
3.88	388	-0.253	0.307	-0.85	16.7303736	42.2843004	-9.5683986	-1.61574156	-19.26857754	-17.78461632
3.89	389	-0.207	0.181	-0.955	14.4958374	48.7587258	-9.1100322	-1.44385416	-18.78729282	-17.88201918
3.9	390	-0.172	0.081	-1.01	13.464513	56.6082504	-4.5263682	-1.30634424	-18.20287566	-17.9335854
3.91	391	-0.151	0.004	-1.028	8.1932994	61.2492102	0.572958	-1.2318597	-17.59554018	-17.92212624
3.92	392	-0.146	0.005	-1.047	4.1825934	65.2599162	3.9534102	-1.21467096	-16.94809764	-17.8762896
3.93	393	-0.134	0.036	-1.036	4.0680018	67.4371566	4.4690724	-1.19748222	-16.27773678	-17.82472338
3.94	394	-0.131	0.055	-1.027	2.5210152	65.9474658	3.2658606	-1.18602306	-15.62456466	-17.78461632
3.95	395	-0.155	0.097	-1.053	-0.2291832	62.5097178	2.005353	-1.22040054	-14.98858128	-17.761698
3.96	396	-0.136	0.092	-1.059	-0.4583664	58.7854908	1.2605076	-1.23758928	-14.4098937	-17.74450926
3.97	397	-0.139	0.077	-1.1	-0.3437748	57.2958	1.145916	-1.24904844	-13.84266528	-17.7330501
3.98	398	-0.111	0.045	-1.074	1.2032118	59.5303362	0.9167328	-1.24904844	-13.25251854	-17.71586136
3.99	399	-0.138	0.001	-1.03	0.572958	60.2178858	0.5156622	-1.25477802	-12.65664222	-17.71013178
4	400	-0.182	-0.022	-1.027	-1.718874	63.1399716	-0.859437	-1.27769634	-12.02638842	-17.71586136
4.01	401	-0.19	-0.009	-0.999	-2.0626488	67.6663398	-2.2345362	-1.30061466	-11.36175714	-17.7330501
4.02	402	-0.187	0.024	-0.973	0.572958	66.5204238	-2.9793816	-1.30061466	-10.70285544	-17.761698
4.03	403	-0.178	0.029	-0.935	2.7501984	59.7595194	-4.2398892	-1.27196676	-10.1127087	-17.80180506
4.04	404	-0.197	0.007	-0.937	2.9793816	54.2018268	-7.161975	-1.23758928	-9.57985776	-17.87056002
4.05	405	-0.172	-0.039	-0.944	2.9793816	50.1911208	-10.9434978	-1.18602306	-9.08711388	-17.97942204
4.06	406	-0.17	-0.083	-0.968	3.0366774	43.831287	-13.9228794	-1.14018642	-8.65739538	-18.11693196
4.07	407	-0.152	-0.113	-0.979	4.8128472	38.674665	-15.183387	-1.07716104	-8.2792431	-18.26590104
4.08	408	-0.113	-0.132	-0.987	6.2452422	34.1482968	-14.1520626	-0.99694692	-7.94119788	-18.40341096
4.09	409	-0.078	-0.139	-0.995	6.1306506	29.6219286	-11.3445684	-0.92246238	-7.6489893	-18.51800256
4.1	410	-0.043	-0.128	-1	6.2452422	24.2361234	-8.4224826	-0.82505952	-7.37969904	-18.60967584
4.11	411	-0.021	-0.123	-1.013	6.875496	19.194093	-6.016059	-0.75057498	-7.1906229	-18.67270122
4.12	412	-0.01	-0.119	-1.011	6.7036086	14.4385416	-3.3804522	-0.67609044	-7.0473834	-18.70134912
4.13	413	0.003	-0.115	-0.995	5.3285094	9.7975818	-0.4583664	-0.62452422	-6.94998054	-18.7070787
4.14	414	0.002	-0.117	-0.978	3.7815228	5.0993262	1.7761698	-0.59014674	-6.89841432	-18.68988996
4.15	415	0.001	-0.12	-0.973	2.8074942	2.1772404	3.7815228	-0.44117766	-6.72652692	-18.7070787
4.16	416	-0.001	-0.12	-0.97	1.5469866	0.1718874	5.3285094	-0.43544808	-6.72079734	-18.6497829
4.17	417	-0.009	-0.11	-0.967	0.286479	0.0572958	6.1879464	-0.43544808	-6.72079734	-18.5924871
4.18	418	-0.013	-0.095	-0.967	-0.6302538	0.7448454	6.6463128	-0.45263682	-6.71506776	-18.52373214
4.19	419	-0.014	-0.074	-0.965	-1.3178034	2.1199446	7.2765666	-0.47555514	-6.69214944	-18.4492476
4.2	420	-0.015	-0.049	-0.967	-1.9480572	4.297185	7.9068204	-0.4870143	-6.58328742	-18.3919518
4.21	421	-0.017	-0.02	-0.977	-2.8074942	6.875496	8.4224826	-0.52712136	-6.51453246	-18.30027852
4.22	422	-0.019	0.012	-0.987	-3.2085648	10.1986524	8.880849	-0.572958	-6.41140002	-18.21433482
4.23	423	-0.025	0.039	-0.997	-3.2085648	11.8602306	9.1100322	-0.61879464	-6.29680842	-18.11693196
4.24	424	-0.028	0.063	-1.007	-2.7501984	13.0634424	9.3392154	-0.6589017	-6.16502808	-18.02525868
4.25	425	-0.033	0.074	-1.015	-2.005353	13.3499214	9.5683986	-0.72192708	-6.00459984	-17.92785582
4.26	426	-0.038	0.081	-1.021	-1.0313244	12.6623718	9.7975818	-0.7448454	-5.87854908	-17.83045296
4.27	427	-0.043	0.084	-1.022	-0.0572958	11.45916	9.9121734	-0.75630456	-5.76395748	-17.72732052
4.28	428	-0.059	0.087	-1.02	0.6302538	9.6256944	9.8548776	-0.76203414	-5.66655462	-17.62991766
4.29	429	-0.073	0.091	-1.01	1.432395	7.3911582	9.5683986	-0.75630456	-5.59207008	-17.5325148
4.3	430	-0.076	0.092	-0.986	1.7761698	5.5003968	8.880849	-0.80787078	-5.5290447	-17.43511194
4.31	431	-0.077	0.092	-0.971	1.7761698	3.5523396	8.2505952	-0.79641162	-5.49466722	-17.35489782
4.32	432	-0.073	0.095	-0.964	1.0313244	0.8021412	7.2765666	-0.79068204	-5.48320806	-17.28041328
4.33	433	-0.071	0.093	-0.96	0.9167328	-2.4637194	6.302538	-0.78495246	-5.50612638	-17.2173879
4.34	434	-0.074	0.09	-0.957	0.5156622	-5.7868758	4.9847346	-0.78495246	-5.56342218	-17.17155126
4.35	435	-0.08	0.076	-0.957	0.4010706	-7.9641162	3.4950438	-0.84224826	-5.63790672	-17.1314442
4.36	436	-0.082	0.058	-0.961	0.2291832	-8.8235532	2.0626488	-0.83651868	-5.72958	-17.10852588
4.37	437	-0.083	0.044	-0.963	-0.9167328	-9.3392154	0.8021412	-0.84797784	-5.82125328	-17.1027963
4.38	438	-0.085	0.038	-0.968	-2.291832	-9.3965112	-0.859437	-0.87089616	-5.91292656	-17.11425546
4.39	439	-0.087	0.037	-0.974	-2.4637194	-9.0527364	-1.8334656	-0.89381448	-6.00459984	-17.1314442
4.4	440	-0.088	0.042	-0.979	-2.3491278	-8.2505952	-2.291832	-0.95111028	-6.07908438	-17.15436252
4.41	441	-0.093	0.049	-0.987	-2.3491278	-6.9900876	-2.3491278	-0.96829902	-6.15356892	-17.17728084
4.42	442	-0.099	0.046	-0.995	-1.9480572	-5.72958	-2.578311	-0.98548776	-6.21086472	-17.20592874
4.43	443	-0.107	0.043	-1.001	-1.432395	-4.4690724	-2.9220858	-0.99694692	-6.25670136	-17.23457664
4.44	444	-0.117	0.038	-1.001	-0.9167328	-3.2658606	-3.0366774	-1.0026765	-6.28534926	-17.26322454
4.45	445	-0.123	0.033	-0.998	-0.2291832	-2.2345362	-3.0939732	-1.0599723	-6.3598338	-17.2746837
4.46	446	-0.127	0.027	-0.993	0.1718874	-1.5469866	-3.0366774	-1.05424272	-6.37129296	-17.30906118
4.47	447	-0.127	0.023	-0.983	0.0572958	-1.6042824	-2.86479	-1.04851314	-6.3884817	-17.33770908
4.48	448	-0.124	0.017	-0.976	0.0572958	-1.432395	-2.8074942	-1.04851314	-6.40567044	-17.36635698
4.49	449	-0.119	0.01	-0.974	0.2291832	-1.432395	-2.6356068	-1.04278356	-6.4171296	-17.3892753
4.5	450	-0.116	0.003	-0.972	0.4010706	-1.2032118	-2.2345362	-1.03705398	-6.46869582	-17.40073446
4.51	451	-0.108	0	-0.973	0.5156622	-0.859437	-1.7761698	-1.0313244	-6.4744254	-17.42365278
4.52	452	-0.104	-0.001	-0.979	0.4583664	-0.4583664	-1.4896908	-1.02559482	-6.48015498	-17.43511194
4.53	453	-0.1	0	-0.984	0.5156622	-0.4010706	-1.2032118	-1.01986524	-6.48588456	-17.45230068
4.54	454	-0.096	0.004	-0.987	0.6875496	-0.286479	-0.8021412	-1.00840608	-6.49161414	-17.45803026
4.55	455	-0.095	0.009	-0.988	0.6875496	0	-0.4583664	-1.0886202	-6.40567044	-17.475219
4.56	456	-0.096	0.012	-0.989	0.6875496	0.1145916	-0.1718874	-1.08289062	-6.40567044	-17.475219
4.57	457	-0.094	0.016	-0.987	0.572958	0.1718874	-0.0572958	-1.07716104	-6.40567044	-17.475219
4.58	458	-0.092	0.022	-0.985	0.4583664	0.0572958	0	-1.07143146	-6.40567044	-17.475219
4.59	459	-0.093	0.026	-0.989	0.4010706	0	0	-1.06570188	-6.40567044	-17.475219
4.6	460	-0.091	0.03	-0.986	0.2291832	-0.2291832	-0.1145916	-1.38082878	-6.28534926	-17.46948942
4.61	461	-0.09	0.033	-0.987	0.0572958	-0.4583664	-0.0572958	-1.38082878	-6.29107884	-17.46948942
4.62	462	-0.091	0.035	-0.986	0.0572958	-0.859437	0	-1.38082878	-6.29680842	-17.46948942
4.63	463	-0.091	0.037	-0.985	-0.0572958	-0.9167328	0.1145916	-1.38082878	-6.30826758	-17.46948942
4.64	464	-0.091	0.04	-0.985	-0.1145916	-0.9167328	0.0572958	-1.38082878	-6.31399716	-17.46948942
4.65	465	-0.091	0.041	-0.985	0.1145916	-0.6875496	0.0572958	-1.65011904	-6.2452422	-17.45803026
4.66	466	-0.091	0.041	-0.988	0.4583664	-0.6875496	0.2291832	-1.64438946	-6.25097178	-17.45230068
4.67	467	-0.091	0.041	-0.987	0.5156622	-0.6302538	0.1145916	-1.63865988	-6.25670136	-17.45230068
4.68	468	-0.09	0.042	-0.987	0.6875496	-0.4583664	0	-1.6329303	-6.26243094	-17.45230068
4.69	469	-0.088	0.042	-0.986	0.859437	-0.286479	-0.1145916	-1.62147114	-6.26816052	-17.45230068
4.7	470	-0.087	0.039	-0.986	1.0886202	-0.286479	0	-1.74179232	-6.20513514	-17.45230068
4.71	471	-0.088	0.036	-0.983	1.145916	-0.4010706	0	-1.73033316	-6.21086472	-17.45803026
4.72	472	-0.091	0.031	-0.98	0.9167328	-0.4583664	-0.0572958	-1.718874	-6.2165943	-17.45803026
4.73	473	-0.094	0.031	-0.978	0.6302538	-0.6302538	-0.1718874	-1.71314442	-6.22232388	-17.45803026
4.74	474	-0.098	0.03	-0.98	0.572958	-0.859437	-0.1718874	-1.70741484	-6.22805346	-17.45803026
4.75	475	-0.101	0.028	-0.983	0.4010706	-1.145916	-0.1718874	-1.77044022	-6.2452422	-17.45230068
4.76	476	-0.105	0.028	-0.987	0.1145916	-1.145916	-0.1718874	-1.77044022	-6.26243094	-17.45230068
4.77	477	-0.106	0.026	-0.988	0.1718874	-1.2605076	-0.0572958	-1.76471064	-6.2738901	-17.45803026
4.78	478	-0.106	0.024	-0.989	0.1145916	-1.145916	-0.0572958	-1.76471064	-6.28534926	-17.45803026
4.79	479	-0.108	0.025	-0.987	0	-1.432395	0	-1.76471064	-6.29680842	-17.45803026
4.8	480	-0.109	0.025	-0.984	0	-1.0886202	0.0572958	-1.8334656	-6.3598338	-17.43511194
4.81	481	-0.106	0.024	-0.983	0.0572958	-0.6302538	0.0572958	-1.8334656	-6.36556338	-17.43511194
4.82	482	-0.105	0.024	-0.981	0	-0.4010706	0.1145916	-1.8334656	-6.37129296	-17.43511194
4.83	483	-0.104	0.024	-0.98	-0.0572958	-0.4583664	0.1718874	-1.8334656	-6.37129296	-17.42938236
4.84	484	-0.106	0.024	-0.981	-0.1145916	-0.286479	0.2291832	-1.83919518	-6.37702254	-17.42938236
4.85	485	-0.11	0.022	-0.983	0.0572958	0.0572958	0.2291832	-1.93086846	-6.4457775	-17.39500488
4.86	486	-0.109	0.018	-0.983	0.2291832	0.572958	0	-1.92513888	-6.44004792	-17.39500488
4.87	487	-0.108	0.016	-0.981	0.0572958	0.6875496	-0.2291832	-1.92513888	-6.43431834	-17.40073446
4.88	488	-0.105	0.018	-0.979	-0.2291832	0.4010706	-0.4010706	-1.92513888	-6.42858876	-17.40073446
4.89	489	-0.103	0.021	-0.98	-0.4583664	-0.0572958	-0.5156622	-1.93086846	-6.43431834	-17.40646404
4.9	490	-0.099	0.026	-0.978	-0.4583664	-0.2291832	-0.4010706	-1.99389384	-6.41140002	-17.41219362
4.91	491	-0.097	0.027	-0.98	-0.6302538	-0.4010706	-0.1718874	-1.99962342	-6.4171296	-17.41219362
4.92	492	-0.095	0.027	-0.983	-0.6875496	-0.4010706	-0.0572958	-2.01108258	-6.42285918	-17.41219362
4.93	493	-0.096	0.027	-0.988	-0.6302538	-0.1145916	0	-2.01681216	-6.42285918	-17.41219362
4.94	494	-0.099	0.031	-0.991	0	0.1145916	0.1145916	-2.01681216	-6.42285918	-17.41219362
4.95	495	-0.099	0.033	-0.99	0.1145916	0.0572958	0	-2.48663772	-6.30826758	-17.37781614
4.96	496	-0.1	0.036	-0.989	0.1718874	-0.0572958	0	-2.48663772	-6.30826758	-17.37781614
4.97	497	-0.099	0.036	-0.988	0.1718874	-0.1145916	-0.1145916	-2.48090814	-6.31399716	-17.38354572
4.98	498	-0.097	0.036	-0.987	0.4010706	-0.0572958	-0.1145916	-2.48090814	-6.31399716	-17.38354572
4.99	499	-0.096	0.034	-0.988	0.572958	-0.0572958	-0.1718874	-2.46944898	-6.31399716	-17.38354572
5	500	-0.096	0.034	-0.986	0.5156622	0.1145916	-0.286479	-2.5210152	-6.28534926	-17.3892753
5.01	501	-0.095	0.033	-0.983	0.3437748	0.1145916	-0.1718874	-2.51528562	-6.28534926	-17.3892753
5.02	502	-0.091	0.035	-0.984	0.2291832	0.286479	-0.1145916	-2.51528562	-6.27961968	-17.39500488
5.03	503	-0.09	0.033	-0.985	0.286479	0.4010706	-0.1718874	-2.50955604	-6.2738901	-17.39500488
5.04	504	-0.088	0.032	-0.985	0.3437748	0.286479	-0.0572958	-2.50382646	-6.2738901	-17.39500488
5.05	505	-0.088	0.029	-0.987	0.5156622	0.1718874	0	-2.52674478	-6.19367598	-17.41219362
5.06	506	-0.091	0.028	-0.986	0.5156622	0.1718874	0	-2.5210152	-6.19367598	-17.40646404
5.07	507	-0.094	0.027	-0.987	0.572958	0	0.0572958	-2.51528562	-6.19367598	-17.40646404
5.08	508	-0.096	0.027	-0.987	0.6875496	-0.0572958	0.1145916	-2.50955604	-6.19367598	-17.40646404
5.09	509	-0.096	0.025	-0.987	0.6302538	0	0.1145916	-2.50382646	-6.19367598	-17.40646404
5.1	510	-0.096	0.026	-0.984	0.6875496	0	0.1145916	-2.50382646	-6.17075766	-17.40646404
5.11	511	-0.097	0.025	-0.983	0.572958	0	0	-2.49809688	-6.17075766	-17.40646404
5.12	512	-0.097	0.024	-0.981	0.4010706	-0.2291832	0	-2.4923673	-6.17075766	-17.40646404
5.13	513	-0.097	0.023	-0.98	0.3437748	-0.3437748	0	-2.48663772	-6.17648724	-17.40646404
5.14	514	-0.097	0.024	-0.982	0.286479	-0.4583664	0.0572958	-2.48663772	-6.18221682	-17.40646404
5.15	515	-0.098	0.023	-0.986	0.2291832	-0.572958	0	-2.48090814	-6.18221682	-17.40646404
5.16	516	-0.1	0.025	-0.989	0.3437748	-0.4583664	0	-2.48090814	-6.1879464	-17.40646404
5.17	517	-0.103	0.024	-0.991	0.3437748	-0.3437748	-0.0572958	-2.47517856	-6.19367598	-17.40646404
5.18	518	-0.104	0.024	-0.989	0.572958	-0.1718874	-0.1718874	-2.46944898	-6.19367598	-17.41219362
5.19	519	-0.106	0.024	-0.986	0.5156622	-0.0572958	-0.1718874	-2.4637194	-6.19367598	-17.41219362
5.2	520	-0.105	0.026	-0.983	0.4010706	-0.0572958	-0.2291832	-2.47517856	-6.22232388	-17.40646404
5.21	521	-0.104	0.027	-0.98	0	-0.0572958	-0.2291832	-2.47517856	-6.22232388	-17.41219362
5.22	522	-0.102	0.028	-0.979	0	-0.2291832	-0.1718874	-2.47517856	-6.22232388	-17.41219362
5.23	523	-0.101	0.028	-0.979	-0.0572958	-0.5156622	-0.1718874	-2.47517856	-6.22805346	-17.41219362
5.24	524	-0.101	0.027	-0.979	-0.1145916	-0.6875496	-0.0572958	-2.47517856	-6.23951262	-17.41219362
5.25	525	-0.101	0.026	-0.983	-0.1718874	-0.7448454	-0.1718874	-2.4923673	-6.2452422	-17.41219362
5.26	526	-0.102	0.026	-0.984	-0.2291832	-0.572958	-0.1718874	-2.4923673	-6.25097178	-17.4179232
5.27	527	-0.102	0.028	-0.984	-0.1718874	-0.4010706	-0.1145916	-2.4923673	-6.25670136	-17.4179232
5.28	528	-0.101	0.03	-0.985	-0.0572958	-0.286479	-0.1145916	-2.4923673	-6.26243094	-17.4179232
5.29	529	-0.099	0.03	-0.986	0.0572958	-0.1718874	-0.0572958	-2.4923673	-6.26243094	-17.4179232
5.3	530	-0.097	0.03	-0.988	0.0572958	-0.2291832	0	-2.53820394	-6.23951262	-17.4179232
5.31	531	-0.096	0.03	-0.987	-0.0572958	-0.1145916	0.1145916	-2.53820394	-6.2452422	-17.4179232
5.32	532	-0.097	0.029	-0.987	-0.1145916	-0.0572958	0.1718874	-2.54393352	-6.2452422	-17.4179232
5.33	533	-0.098	0.027	-0.986	0	0.2291832	0.1718874	-2.54393352	-6.23951262	-17.41219362
5.34	534	-0.099	0.027	-0.985	0	0.4583664	0.1145916	-2.54393352	-6.23378304	-17.41219362
5.35	535	-0.097	0.026	-0.987	-0.1145916	0.286479	0.1145916	-2.57258142	-6.19367598	-17.4179232
5.36	536	-0.095	0.026	-0.985	-0.1718874	0	0.0572958	-2.57258142	-6.19367598	-17.41219362
5.37	537	-0.096	0.025	-0.981	-0.4010706	0.1145916	0.1145916	-2.578311	-6.19367598	-17.41219362
5.38	538	-0.098	0.026	-0.982	-0.286479	0.3437748	0.0572958	-2.578311	-6.1879464	-17.41219362
5.39	539	-0.098	0.024	-0.981	-0.0572958	0.4583664	0.0572958	-2.58404058	-6.1879464	-17.41219362
5.4	540	-0.098	0.022	-0.978	-0.3437748	0.4010706	0.0572958	-2.57258142	-6.17648724	-17.41219362
5.41	541	-0.1	0.022	-0.978	-0.6302538	0.1145916	-0.1718874	-2.578311	-6.17648724	-17.4179232
5.42	542	-0.101	0.024	-0.979	-0.4583664	0	-0.2291832	-2.58404058	-6.17648724	-17.4179232
5.43	543	-0.101	0.025	-0.979	-0.3437748	-0.1145916	-0.1718874	-2.58404058	-6.17648724	-17.4179232
5.44	544	-0.099	0.023	-0.984	-0.4583664	-0.1718874	-0.1145916	-2.58977016	-6.18221682	-17.42365278
5.45	545	-0.098	0.023	-0.987	-0.4010706	0	-0.1145916	-2.578311	-6.17075766	-17.42365278
5.46	546	-0.1	0.023	-0.989	-0.1145916	0.286479	-0.0572958	-2.58404058	-6.16502808	-17.42938236
5.47	547	-0.1	0.024	-0.99	0	0.4010706	0	-2.58404058	-6.16502808	-17.42938236
5.48	548	-0.102	0.027	-0.988	-0.0572958	0.286479	0	-2.58404058	-6.1592985	-17.42938236
5.49	549	-0.1	0.03	-0.985	-0.1718874	0.1145916	0	-2.58404058	-6.1592985	-17.42938236
5.5	550	-0.099	0.029	-0.985	-0.2291832	0.0572958	0	-2.61841806	-6.16502808	-17.42365278
5.51	551	-0.099	0.028	-0.984	-0.0572958	0	0	-2.61841806	-6.16502808	-17.42365278
5.52	552	-0.098	0.029	-0.984	0	0	0.0572958	-2.61841806	-6.16502808	-17.42365278
5.53	553	-0.098	0.03	-0.983	-0.0572958	-0.0572958	0.0572958	-2.61841806	-6.16502808	-17.42365278
5.54	554	-0.098	0.03	-0.982	-0.0572958	0	0.1145916	-2.61841806	-6.16502808	-17.4179232
5.55	555	-0.097	0.031	-0.982	-0.0572958	0	0.1718874	-2.65852512	-6.15356892	-17.4179232
5.56	556	-0.097	0.032	-0.982	0	0.0572958	0.1718874	-2.65852512	-6.15356892	-17.4179232
5.57	557	-0.097	0.032	-0.984	0.1145916	0.1145916	0.1718874	-2.65852512	-6.14783934	-17.41219362
5.58	558	-0.097	0.031	-0.985	0.1145916	0.1718874	0.1718874	-2.65852512	-6.14783934	-17.41219362
5.59	559	-0.096	0.028	-0.985	0.1718874	0.0572958	0.2291832	-2.65279554	-6.14783934	-17.40646404
5.6	560	-0.098	0.026	-0.986	0.0572958	0	0.1718874	-2.64133638	-6.1306506	-17.41219362
5.61	561	-0.098	0.025	-0.987	0.0572958	0.2291832	0.1718874	-2.64133638	-6.1306506	-17.40646404
5.62	562	-0.098	0.025	-0.988	0.2291832	0.1145916	0.1145916	-2.6356068	-6.12492102	-17.40646404
5.63	563	-0.098	0.024	-0.989	0.286479	0.2291832	0.1145916	-2.6356068	-6.12492102	-17.40646404
5.64	564	-0.097	0.023	-0.987	0.2291832	0.3437748	0	-2.62987722	-6.11919144	-17.40646404
5.65	565	-0.097	0.022	-0.985	0.1718874	0.2291832	0	-2.61841806	-6.11346186	-17.40646404
5.66	566	-0.098	0.023	-0.982	0.0572958	0.0572958	0	-2.61841806	-6.11346186	-17.40646404
5.67	567	-0.097	0.024	-0.98	0.1145916	0.0572958	0	-2.61841806	-6.11346186	-17.40646404
5.68	568	-0.098	0.024	-0.98	0.0572958	-0.0572958	0.0572958	-2.61268848	-6.11346186	-17.40646404
5.69	569	-0.099	0.025	-0.984	0.0572958	-0.1718874	0.1145916	-2.61268848	-6.11346186	-17.40646404
5.7	570	-0.1	0.025	-0.985	0.1145916	-0.2291832	0.0572958	-2.61268848	-6.1306506	-17.40073446
5.71	571	-0.102	0.026	-0.985	0.1718874	-0.286479	0.0572958	-2.6069589	-6.13638018	-17.40073446
5.72	572	-0.103	0.024	-0.984	0.2291832	-0.1718874	0	-2.6069589	-6.13638018	-17.40073446
5.73	573	-0.104	0.026	-0.985	0.1718874	-0.0572958	-0.0572958	-2.6069589	-6.13638018	-17.40073446
5.74	574	-0.101	0.027	-0.985	0.2291832	0	0	-2.60122932	-6.13638018	-17.40073446
5.75	575	-0.1	0.027	-0.984	0.286479	0	0	-2.6069589	-6.14783934	-17.40073446
5.76	576	-0.101	0.027	-0.984	0.3437748	0.0572958	0.0572958	-2.60122932	-6.14783934	-17.40073446
5.77	577	-0.099	0.026	-0.985	0.3437748	0.1718874	0.0572958	-2.59549974	-6.14783934	-17.40073446
5.78	578	-0.099	0.027	-0.985	0.286479	0.1145916	0	-2.59549974	-6.14783934	-17.40073446
5.79	579	-0.099	0.026	-0.985	0.2291832	0.2291832	0	-2.58977016	-6.14210976	-17.40073446
5.8	580	-0.097	0.028	-0.986	0.1718874	0.2291832	-0.0572958	-2.6069589	-6.13638018	-17.40073446
5.81	581	-0.097	0.028	-0.984	0.286479	0.4010706	-0.0572958	-2.60122932	-6.1306506	-17.40073446
5.82	582	-0.096	0.028	-0.983	0.4010706	0.5156622	-0.0572958	-2.60122932	-6.12492102	-17.40073446
5.83	583	-0.095	0.027	-0.982	0.286479	0.4583664	-0.0572958	-2.59549974	-6.11919144	-17.40073446
5.84	584	-0.095	0.028	-0.983	0.2291832	0.286479	-0.1145916	-2.59549974	-6.11919144	-17.40073446
5.85	585	-0.096	0.027	-0.983	0.1718874	0	0	-2.6069589	-6.11919144	-17.40073446
5.86	586	-0.099	0.026	-0.984	0	-0.3437748	-0.1145916	-2.60122932	-6.11919144	-17.40073446
5.87	587	-0.1	0.024	-0.985	0	-0.4010706	-0.2291832	-2.60122932	-6.12492102	-17.40646404
5.88	588	-0.101	0.024	-0.985	0	-0.5156622	-0.3437748	-2.60122932	-6.1306506	-17.41219362
5.89	589	-0.101	0.023	-0.987	0	-0.6302538	-0.286479	-2.60122932	-6.13638018	-17.41219362
5.9	590	-0.101	0.023	-0.986	0	-0.6302538	-0.3437748	-2.59549974	-6.14783934	-17.4179232
5.91	591	-0.101	0.023	-0.983	0	-0.3437748	-0.2291832	-2.59549974	-6.15356892	-17.4179232
5.92	592	-0.096	0.024	-0.983	-0.1718874	-0.1145916	-0.1145916	-2.59549974	-6.15356892	-17.4179232
5.93	593	-0.093	0.024	-0.982	-0.286479	-0.3437748	0	-2.60122932	-6.1592985	-17.4179232
5.94	594	-0.094	0.024	-0.982	-0.4583664	-0.4583664	0.1145916	-2.60122932	-6.16502808	-17.4179232
5.95	595	-0.096	0.025	-0.983	-0.4583664	-0.572958	0.1718874	-2.6069589	-6.16502808	-17.4179232
5.96	596	-0.098	0.024	-0.984	-0.4010706	-0.5156622	0.0572958	-2.61268848	-6.17075766	-17.41219362
5.97	597	-0.098	0.021	-0.983	-0.3437748	-0.5156622	0	-2.61841806	-6.17648724	-17.41219362
5.98	598	-0.097	0.018	-0.982	-0.6875496	-0.6302538	-0.0572958	-2.62414764	-6.18221682	-17.4179232
5.99	599	-0.1	0.02	-0.981	-0.859437	-0.859437	-0.1718874	-2.62987722	-6.19367598	-17.4179232
6	600	-0.101	0.024	-0.978	-0.7448454	-0.859437	-0.2291832	-2.64133638	-6.20513514	-17.4179232
6.01	601	-0.101	0.026	-0.978	-0.7448454	-0.9167328	-0.0572958	-2.64706596	-6.21086472	-17.4179232
6.02	602	-0.099	0.025	-0.983	-0.6302538	-0.859437	0	-2.65279554	-6.22232388	-17.4179232
6.03	603	-0.1	0.023	-0.987	-0.286479	-0.286479	0	-2.65852512	-6.22805346	-17.4179232
6.04	604	-0.102	0.024	-0.99	0	0	0	-2.65852512	-6.22805346	-17.4179232
6.05	605	-0.103	0.027	-0.99	0.1145916	0	-0.1145916	-2.6642547	-6.25097178	-17.4179232
6.06	606	-0.104	0.028	-0.987	0.1145916	0.1145916	-0.1145916	-2.6642547	-6.25097178	-17.4179232
6.07	607	-0.104	0.028	-0.987	0.1718874	0.1718874	-0.1718874	-2.65852512	-6.2452422	-17.4179232
6.08	608	-0.102	0.029	-0.987	0.286479	0.2291832	-0.1145916	-2.65852512	-6.2452422	-17.42365278
6.09	609	-0.101	0.029	-0.986	0.4010706	0.4010706	-0.1718874	-2.65279554	-6.23951262	-17.42365278
6.1	610	-0.101	0.028	-0.985	0.286479	0.4010706	-0.1145916	-2.65852512	-6.23378304	-17.42365278
6.11	611	-0.1	0.029	-0.985	0.1145916	0.3437748	0	-2.65852512	-6.23378304	-17.42365278
6.12	612	-0.1	0.03	-0.984	0.0572958	0.3437748	0.0572958	-2.65852512	-6.22805346	-17.42365278
6.13	613	-0.1	0.03	-0.985	0.1718874	0.2291832	0.1145916	-2.65279554	-6.22805346	-17.42365278
6.14	614	-0.099	0.028	-0.986	0.1145916	0.1718874	0.1718874	-2.65279554	-6.22232388	-17.4179232
6.15	615	-0.099	0.026	-0.984	0.1718874	0.1718874	0.2291832	-2.64706596	-6.21086472	-17.4179232
6.16	616	-0.099	0.025	-0.984	0.2291832	0.2291832	0.286479	-2.64133638	-6.21086472	-17.4179232
6.17	617	-0.1	0.023	-0.984	0.286479	0.6302538	0.3437748	-2.64133638	-6.20513514	-17.41219362
6.18	618	-0.101	0.022	-0.984	0.2291832	0.9167328	0.3437748	-2.64133638	-6.19367598	-17.41219362
6.19	619	-0.101	0.022	-0.984	0.286479	0.9740286	0.4010706	-2.6356068	-6.18221682	-17.40646404
6.2	620	-0.1	0.024	-0.984	0.4010706	0.9740286	0.3437748	-2.62987722	-6.17075766	-17.40073446
6.21	621	-0.099	0.022	-0.986	0.4583664	0.6875496	0.286479	-2.62414764	-6.16502808	-17.40073446
6.22	622	-0.099	0.021	-0.985	0.286479	0.4583664	0.1718874	-2.62414764	-6.1592985	-17.39500488
6.23	623	-0.099	0.021	-0.984	0.2291832	0.2291832	0.1718874	-2.62414764	-6.1592985	-17.39500488
6.24	624	-0.101	0.021	-0.983	0.2291832	0.1145916	0	-2.61841806	-6.1592985	-17.39500488
6.25	625	-0.102	0.02	-0.984	0.2291832	0.2291832	0	-2.59549974	-6.17075766	-17.39500488
6.26	626	-0.102	0.019	-0.984	0.3437748	0.4583664	0.0572958	-2.58977016	-6.16502808	-17.39500488
6.27	627	-0.102	0.02	-0.983	0.286479	0.8021412	0.0572958	-2.58977016	-6.1592985	-17.39500488
6.28	628	-0.102	0.022	-0.982	0.3437748	1.145916	0.1145916	-2.58404058	-6.14783934	-17.39500488
6.29	629	-0.103	0.024	-0.981	0.4010706	1.432395	0.1718874	-2.58404058	-6.1306506	-17.3892753
6.3	630	-0.101	0.025	-0.981	0.3437748	1.6615782	0.1718874	-2.578311	-6.11919144	-17.3892753
6.31	631	-0.098	0.026	-0.983	0.4583664	1.5469866	0.2291832	-2.57258142	-6.1020027	-17.3892753
6.32	632	-0.097	0.025	-0.987	0.5156622	1.3178034	0.1718874	-2.56685184	-6.08481396	-17.38354572
6.33	633	-0.097	0.026	-0.986	0.572958	1.0313244	0.2291832	-2.56112226	-6.07908438	-17.38354572
6.34	634	-0.097	0.025	-0.987	0.5156622	0.6875496	0.2291832	-2.55539268	-6.06762522	-17.37781614
6.35	635	-0.096	0.024	-0.986	0.4010706	0.286479	0.2291832	-2.55539268	-6.06189564	-17.37781614
6.36	636	-0.097	0.024	-0.984	0.3437748	0.2291832	0.2291832	-2.5496631	-6.06189564	-17.37781614
6.37	637	-0.096	0.025	-0.981	0.4010706	0.286479	0.286479	-2.5496631	-6.05616606	-17.37208656
6.38	638	-0.096	0.026	-0.983	0.4010706	0.5156622	0.2291832	-2.54393352	-6.05043648	-17.37208656
6.39	639	-0.096	0.026	-0.985	0.4583664	0.5156622	0.2291832	-2.53820394	-6.0447069	-17.36635698
6.4	640	-0.095	0.025	-0.987	0.4583664	0.6875496	0.2291832	-2.53820394	-6.03324774	-17.36635698
6.41	641	-0.095	0.024	-0.987	0.3437748	0.6875496	0.286479	-2.53820394	-6.02751816	-17.3606274
6.42	642	-0.094	0.022	-0.986	0.2291832	0.5156622	0.2291832	-2.53247436	-6.02178858	-17.3606274
6.43	643	-0.094	0.02	-0.984	0.1718874	0.5156622	0.1718874	-2.53247436	-6.016059	-17.35489782
6.44	644	-0.095	0.021	-0.982	0.0572958	0.5156622	0.1145916	-2.53247436	-6.01032942	-17.35489782
6.45	645	-0.095	0.021	-0.983	0.1718874	0.4010706	0.1145916	-2.51528562	-6.00459984	-17.35489782
