TimeStamp(s)	FrameCounter	AccX	AccY	AccZ	GyrX	GyrY	GyrZ	EulerX	EulerY	EulerZ
0.01	1	-0.023	-0.991	0.184	-0.1145916	0.2291832	0.286479	98.67482676	-0.67609044	-33.19145694
0.02	2	-0.024	-0.992	0.185	-0.3437748	0.1718874	0.4583664	98.66909718	-0.68182002	-33.19145694
0.03	3	-0.025	-0.994	0.185	-0.3437748	0.2291832	0.4010706	98.6633676	-0.6875496	-33.19145694
0.04	4	-0.025	-0.997	0.185	-0.1718874	0.1718874	0.4583664	98.6633676	-0.69327918	-33.19145694
0.05	5	-0.023	-0.995	0.184	-0.1145916	0.1718874	0.4010706	98.70347466	-0.7161975	-33.18572736
0.06	6	-0.022	-0.996	0.185	0	0.0572958	0.4583664	98.70347466	-0.72192708	-33.18572736
0.07	7	-0.022	-0.995	0.185	-0.0572958	0	0.3437748	98.70347466	-0.72765666	-33.18572736
0.08	8	-0.022	-0.993	0.186	-0.286479	0	0.286479	98.69774508	-0.72765666	-33.18572736
0.09	9	-0.023	-0.992	0.185	-0.4010706	0.0572958	0.1718874	98.69774508	-0.73338624	-33.18572736
0.1	10	-0.022	-0.992	0.186	-0.572958	0.1145916	0.1145916	98.72639298	-0.73911582	-33.17999778
0.11	11	-0.022	-0.992	0.187	-0.6302538	0.286479	0.0572958	98.7206634	-0.7448454	-33.1742682
0.12	12	-0.022	-0.994	0.188	-0.8021412	0.5156622	0	98.71493382	-0.7448454	-33.1742682
0.13	13	-0.02	-0.996	0.185	-0.9740286	0.6302538	0	98.70347466	-0.7448454	-33.16853862
0.14	14	-0.02	-0.997	0.185	-1.145916	0.5156622	0.0572958	98.6920155	-0.75057498	-33.16280904
0.15	15	-0.019	-0.998	0.183	-1.2032118	0.4583664	0.1718874	98.6920155	-0.75057498	-33.15707946
0.16	16	-0.019	-0.997	0.182	-1.2032118	0.3437748	0.2291832	98.68055634	-0.75630456	-33.15134988
0.17	17	-0.019	-0.994	0.182	-1.3178034	0.286479	0.1718874	98.6633676	-0.75630456	-33.15134988
0.18	18	-0.018	-0.992	0.181	-1.2605076	0.0572958	0.2291832	98.65190844	-0.75630456	-33.15134988
0.19	19	-0.018	-0.991	0.182	-1.3178034	-0.1718874	0.1718874	98.64044928	-0.76203414	-33.15134988
0.2	20	-0.018	-0.99	0.183	-1.4896908	-0.3437748	0.2291832	98.64044928	-0.76203414	-33.15134988
0.21	21	-0.018	-0.992	0.183	-1.6042824	-0.6302538	0.0572958	98.62326054	-0.76203414	-33.16280904
0.22	22	-0.018	-0.993	0.182	-1.7761698	-0.8021412	0	98.6060718	-0.76203414	-33.16853862
0.23	23	-0.017	-0.994	0.184	-1.8334656	-0.8021412	0.0572958	98.58315348	-0.76203414	-33.17999778
0.24	24	-0.018	-0.993	0.183	-1.8907614	-0.8021412	0	98.56596474	-0.75630456	-33.18572736
0.25	25	-0.018	-0.992	0.184	-2.005353	-0.8021412	0	98.56023516	-0.75630456	-33.19145694
0.26	26	-0.019	-0.992	0.185	-2.005353	-0.9167328	0	98.53731684	-0.75630456	-33.2029161
0.27	27	-0.021	-0.993	0.186	-2.1772404	-1.0313244	0.0572958	98.51439852	-0.75630456	-33.21437526
0.28	28	-0.02	-0.993	0.185	-2.2345362	-0.9167328	0.1718874	98.4914802	-0.75630456	-33.22583442
0.29	29	-0.019	-0.994	0.187	-2.005353	-0.6875496	0.2291832	98.47429146	-0.75630456	-33.231564
0.3	30	-0.017	-0.993	0.185	-1.9480572	-0.572958	0.286479	98.46856188	-0.75630456	-33.23729358
0.31	31	-0.015	-0.991	0.184	-2.005353	-0.4583664	0.3437748	98.45137314	-0.76203414	-33.24302316
0.32	32	-0.014	-0.991	0.183	-1.8907614	-0.6875496	0.4010706	98.42845482	-0.76203414	-33.24875274
0.33	33	-0.015	-0.993	0.179	-1.7761698	-0.9167328	0.4010706	98.41126608	-0.76776372	-33.2602119
0.34	34	-0.016	-0.993	0.178	-1.9480572	-0.9740286	0.3437748	98.39407734	-0.76776372	-33.27167106
0.35	35	-0.018	-0.993	0.178	-1.9480572	-0.9740286	0.286479	98.38261818	-0.7734933	-33.27740064
0.36	36	-0.022	-0.993	0.181	-1.9480572	-0.9167328	0.1718874	98.36542944	-0.7734933	-33.2888598
0.37	37	-0.021	-0.992	0.183	-1.9480572	-0.6875496	0	98.34251112	-0.76776372	-33.29458938
0.38	38	-0.017	-0.993	0.185	-2.0626488	-0.4583664	0	98.32532238	-0.76776372	-33.30031896
0.39	39	-0.013	-0.993	0.189	-2.1199446	-0.3437748	0	98.30240406	-0.76776372	-33.30604854
0.4	40	-0.012	-0.991	0.188	-2.3491278	-0.3437748	0	98.30240406	-0.76203414	-33.30604854
0.41	41	-0.009	-0.991	0.185	-2.4637194	-0.5156622	0.0572958	98.27375616	-0.76203414	-33.31177812
0.42	42	-0.008	-0.99	0.186	-2.5210152	-0.9740286	0.1718874	98.25083784	-0.76203414	-33.32323728
0.43	43	-0.007	-0.991	0.185	-2.5210152	-1.3750992	0.1718874	98.22218994	-0.76203414	-33.33469644
0.44	44	-0.008	-0.992	0.189	-2.291832	-1.6042824	0.1718874	98.19927162	-0.76203414	-33.35188518
0.45	45	-0.011	-0.996	0.195	-1.9480572	-1.6042824	-0.1145916	98.21073078	-0.75057498	-33.36907392
0.46	46	-0.012	-0.997	0.196	-1.9480572	-1.3750992	-0.4010706	98.18781246	-0.7448454	-33.38053308
0.47	47	-0.014	-0.998	0.195	-1.8907614	-1.0886202	-0.8021412	98.17062372	-0.73338624	-33.39199224
0.48	48	-0.014	-0.997	0.193	-1.8907614	-1.0313244	-1.0886202	98.1477054	-0.72192708	-33.39772182
0.49	49	-0.015	-0.997	0.191	-2.005353	-1.145916	-1.2605076	98.13051666	-0.70473834	-33.40918098
0.5	50	-0.014	-0.994	0.188	-1.9480572	-1.0313244	-1.3178034	98.13051666	-0.6875496	-33.41491056
0.51	51	-0.011	-0.994	0.186	-2.005353	-0.6302538	-1.3750992	98.10759834	-0.67609044	-33.42064014
0.52	52	-0.01	-0.992	0.185	-2.0626488	-0.1145916	-1.432395	98.08468002	-0.6589017	-33.42064014
0.53	53	-0.008	-0.993	0.185	-2.1772404	0.4583664	-1.5469866	98.0617617	-0.64744254	-33.41491056
0.54	54	-0.006	-0.992	0.185	-2.578311	0.859437	-1.6042824	98.03884338	-0.6302538	-33.4034514
0.55	55	-0.003	-0.992	0.184	-2.9220858	1.0313244	-1.5469866	98.02165464	-0.60733548	-33.38626266
0.56	56	0	-0.991	0.184	-3.3231564	0.859437	-1.4896908	97.98727716	-0.59587632	-33.3748035
0.57	57	0	-0.992	0.185	-3.6096354	0.2291832	-1.3750992	97.9471701	-0.58441716	-33.3748035
0.58	58	0.003	-0.995	0.184	-4.0680018	0	-1.3178034	97.90706304	-0.56722842	-33.3748035
0.59	59	0.008	-0.996	0.182	-4.583664	0	-1.2605076	97.8612264	-0.55576926	-33.36907392
0.6	60	0.009	-0.994	0.18	-4.870143	0.1145916	-1.3750992	97.82111934	-0.53285094	-33.36907392
0.61	61	0.01	-0.992	0.178	-4.8128472	0.286479	-1.3178034	97.7752827	-0.52139178	-33.36334434
0.62	62	0.011	-0.988	0.177	-4.8128472	0.2291832	-1.2605076	97.72371648	-0.50993262	-33.35761476
0.63	63	0.013	-0.989	0.177	-4.9274388	0	-1.145916	97.67215026	-0.49847346	-33.35761476
0.64	64	0.014	-0.99	0.181	-5.156622	-0.6302538	-1.0313244	97.62058404	-0.4870143	-33.36334434
0.65	65	0.013	-0.99	0.184	-5.3285094	-1.5469866	-0.8021412	97.58047698	-0.46409598	-33.3748035
0.66	66	0.013	-0.99	0.186	-5.443101	-2.4064236	-0.5156622	97.52318118	-0.45263682	-33.4034514
0.67	67	0.011	-0.992	0.189	-5.2712136	-3.2085648	-0.2291832	97.47161496	-0.44690724	-33.4320993
0.68	68	0.01	-0.992	0.191	-5.2139178	-3.6669312	0	97.42004874	-0.44117766	-33.46647678
0.69	69	0.009	-0.992	0.196	-5.0993262	-4.1252976	-0.0572958	97.36848252	-0.43544808	-33.51231342
0.7	70	0.008	-0.994	0.197	-4.9274388	-4.4117766	-0.1145916	97.33410504	-0.41825934	-33.55242048
0.71	71	0.005	-0.996	0.195	-5.0420304	-4.3544808	-0.1718874	97.2882684	-0.41252976	-33.59825712
0.72	72	0.002	-0.997	0.193	-5.156622	-4.3544808	-0.2291832	97.2309726	-0.4010706	-33.63836418
0.73	73	0	-0.997	0.193	-5.2712136	-4.1252976	-0.1145916	97.17940638	-0.39534102	-33.67847124
0.74	74	-0.001	-1	0.194	-5.2139178	-3.7815228	0	97.12784016	-0.38961144	-33.7185783
0.75	75	-0.001	-1	0.194	-5.156622	-3.7815228	0.286479	97.09346268	-0.38388186	-33.75295578
0.76	76	-0.001	-1.001	0.194	-5.2712136	-3.6669312	0.4010706	97.04189646	-0.38388186	-33.79306284
0.77	77	0	-0.997	0.192	-5.3285094	-3.6669312	0.6302538	96.99033024	-0.38388186	-33.82744032
0.78	78	0	-0.994	0.191	-5.3858052	-3.5523396	0.6302538	96.93303444	-0.38388186	-33.86754738
0.79	79	0	-0.993	0.188	-5.6149884	-3.4950438	0.7448454	96.87573864	-0.38961144	-33.90192486
0.8	80	0	-0.991	0.185	-5.7868758	-3.6669312	0.8021412	96.83563158	-0.38388186	-33.93630234
0.81	81	0	-0.99	0.185	-5.8441716	-3.7815228	0.859437	96.77833578	-0.38961144	-33.9764094
0.82	82	0.001	-0.992	0.182	-5.9587632	-4.0680018	0.9740286	96.7153104	-0.39534102	-34.02224604
0.83	83	0.001	-0.993	0.181	-6.302538	-4.4117766	1.2032118	96.65228502	-0.4010706	-34.06808268
0.84	84	0.001	-0.994	0.178	-6.589017	-5.156622	1.4896908	96.58353006	-0.40680018	-34.1196489
0.85	85	-0.001	-0.995	0.178	-6.6463128	-5.8441716	1.6042824	96.53196384	-0.41252976	-34.1769447
0.86	86	-0.003	-0.995	0.178	-6.8182002	-6.302538	1.7761698	96.46320888	-0.42398892	-34.23997008
0.87	87	-0.003	-0.992	0.177	-7.0473834	-6.7036086	1.9480572	96.39445392	-0.43544808	-34.30872504
0.88	88	-0.002	-0.988	0.174	-7.0473834	-7.161975	2.1199446	96.31996938	-0.44690724	-34.38320958
0.89	89	-0.003	-0.985	0.174	-7.2192708	-7.8495246	2.291832	96.25121442	-0.4583664	-34.4634237
0.9	90	-0.004	-0.983	0.172	-7.5057498	-8.1932994	2.4064236	96.18245946	-0.46982556	-34.5493674
0.91	91	-0.005	-0.978	0.169	-7.2192708	-8.7662574	2.5210152	96.1137045	-0.4870143	-34.64104068
0.92	92	-0.011	-0.979	0.171	-6.9900876	-9.5111028	2.7501984	96.04494954	-0.49847346	-34.73844354
0.93	93	-0.018	-0.981	0.174	-6.8182002	-9.9694692	2.9220858	95.97619458	-0.5156622	-34.8358464
0.94	94	-0.02	-0.985	0.179	-6.8182002	-10.026765	3.151269	95.90743962	-0.53285094	-34.93897884
0.95	95	-0.022	-0.989	0.183	-6.9900876	-10.026765	3.6096354	95.85014382	-0.56149884	-35.04211128
0.96	96	-0.025	-0.991	0.188	-7.0473834	-10.0840608	4.010706	95.78138886	-0.59014674	-35.14524372
0.97	97	-0.025	-0.99	0.189	-7.161975	-9.9694692	4.3544808	95.7126339	-0.61879464	-35.24837616
0.98	98	-0.024	-0.992	0.188	-7.2765666	-9.8548776	4.4117766	95.64387894	-0.65317212	-35.3515086
0.99	99	-0.026	-0.997	0.178	-7.5630456	-10.4278356	4.4690724	95.5693944	-0.68182002	-35.46037062
1	100	-0.03	-1.004	0.173	-8.1360036	-12.2040054	4.6982556	95.49490986	-0.7161975	-35.58642138
1.01	101	-0.034	-1.009	0.171	-9.6256944	-14.1520626	4.9847346	95.40323658	-0.75057498	-35.72966088
1.02	102	-0.03	-1.011	0.164	-10.7716104	-15.3552744	4.9847346	95.29437456	-0.77922288	-35.89008912
1.03	103	-0.026	-1.015	0.153	-11.45916	-17.0741484	4.6982556	95.18551254	-0.80787078	-36.06197652
1.04	104	-0.029	-1.015	0.155	-11.8029348	-19.6524594	4.5263682	95.07092094	-0.8307891	-36.26251182
1.05	105	-0.032	-1.012	0.168	-12.4904844	-21.7151082	4.0680018	94.95632934	-0.84797784	-36.48023586
1.06	106	-0.034	-1.015	0.171	-13.750992	-22.9756158	3.724227	94.824549	-0.86516658	-36.70941906
1.07	107	-0.032	-1.021	0.157	-15.6417534	-25.0955604	3.8388186	94.66985034	-0.87662574	-36.96152058
1.08	108	-0.028	-1.023	0.145	-17.9908812	-28.1895336	4.3544808	94.49796294	-0.8880849	-37.24227
1.09	109	-0.024	-1.026	0.136	-20.2254174	-30.7105488	4.9274388	94.29742764	-0.90527364	-37.55166732
1.1	110	-0.028	-1.035	0.133	-20.912967	-31.9710564	5.3858052	94.09689234	-0.93392154	-37.8725238
1.11	111	-0.041	-1.046	0.131	-21.4286292	-33.231564	5.9587632	93.89062746	-0.96256944	-38.21056902
1.12	112	-0.061	-1.052	0.131	-21.7151082	-34.8358464	6.5317212	93.68436258	-0.99694692	-38.5600734
1.13	113	-0.084	-1.048	0.135	-21.485925	-35.9817624	6.8182002	93.47236812	-1.0313244	-38.92103694
1.14	114	-0.106	-1.039	0.148	-20.9702628	-35.523396	6.6463128	93.27183282	-1.07143146	-39.2762709
1.15	115	-0.133	-1.027	0.171	-21.0275586	-33.7472262	6.4744254	93.0770271	-1.1172681	-39.61431612
1.16	116	-0.162	-1.02	0.191	-21.6005166	-31.6272816	6.1879464	92.87076222	-1.15164558	-39.9351726
1.17	117	-0.185	-1.017	0.201	-22.7464326	-29.1635622	5.8441716	92.6473086	-1.19175264	-40.22738118
1.18	118	-0.194	-1.019	0.195	-23.5485738	-27.3873924	5.9014674	92.4181254	-1.2318597	-40.50240102
1.19	119	-0.19	-1.021	0.179	-23.7204612	-26.4706596	6.7036086	92.1889422	-1.28342592	-40.77169128
1.2	120	-0.178	-1.024	0.169	-23.1475032	-26.0122932	7.9068204	91.97121816	-1.35791046	-41.03525196
1.21	121	-0.164	-1.03	0.166	-22.2880662	-25.3247436	9.1100322	91.75349412	-1.432395	-41.28735348
1.22	122	-0.155	-1.035	0.165	-22.0015872	-24.1215318	9.7975818	91.53577008	-1.5183387	-41.53372542
1.23	123	-0.153	-1.034	0.163	-21.9442914	-22.5745452	9.6829902	91.32377562	-1.6042824	-41.76290862
1.24	124	-0.156	-1.026	0.163	-21.4286292	-21.1421502	9.1100322	91.11751074	-1.6902261	-41.97490308
1.25	125	-0.161	-1.019	0.163	-20.2827132	-20.05353	8.7089616	90.9284346	-1.7761698	-42.17543838
1.26	126	-0.165	-1.016	0.167	-18.9649098	-19.480572	8.8235532	90.74508804	-1.8621135	-42.37597368
1.27	127	-0.169	-1.012	0.168	-18.4492476	-18.7357266	8.9954406	90.56747106	-1.94232762	-42.56504982
1.28	128	-0.174	-1.005	0.164	-18.3919518	-17.761698	8.9954406	90.38985408	-2.02827132	-42.7426668
1.29	129	-0.178	-0.995	0.161	-18.5065434	-16.7303736	8.5370742	90.20650752	-2.10848544	-42.90882462
1.3	130	-0.179	-0.981	0.154	-18.6784308	-15.5844576	7.734933	90.0403497	-2.19442914	-43.06925286
1.31	131	-0.18	-0.966	0.144	-18.2773602	-14.610429	6.8182002	89.86273272	-2.2631841	-43.21249236
1.32	132	-0.181	-0.95	0.141	-17.761698	-13.2353298	5.5576926	89.69084532	-2.31475032	-43.35000228
1.33	133	-0.183	-0.938	0.145	-17.3606274	-11.1153852	4.5263682	89.51895792	-2.36058696	-43.4588643
1.34	134	-0.186	-0.929	0.15	-17.2460358	-8.9954406	3.5523396	89.34707052	-2.39496444	-43.55053758
1.35	135	-0.189	-0.922	0.153	-17.3033316	-6.5317212	2.5210152	89.19810144	-2.44653066	-43.61929254
1.36	136	-0.194	-0.915	0.153	-17.2460358	-3.9534102	1.3750992	89.02621404	-2.45798982	-43.6593996
1.37	137	-0.197	-0.908	0.152	-16.7876694	-1.432395	0.0572958	88.85432664	-2.4637194	-43.67658834
1.38	138	-0.197	-0.901	0.151	-15.8136408	0.9167328	-1.0886202	88.6938984	-2.45226024	-43.67085876
1.39	139	-0.199	-0.896	0.158	-14.32395	3.5523396	-2.2345362	88.54492932	-2.42934192	-43.63648128
1.4	140	-0.206	-0.892	0.17	-12.4904844	6.5317212	-3.6096354	88.44752646	-2.42361234	-43.5734559
1.41	141	-0.215	-0.895	0.184	-10.7143146	10.599723	-5.0993262	88.33293486	-2.37204612	-43.47032346
1.42	142	-0.224	-0.899	0.196	-9.6256944	14.5531332	-6.5317212	88.22407284	-2.30902074	-43.33281354
1.43	143	-0.226	-0.908	0.205	-8.9381448	18.7357266	-8.1932994	88.12666998	-2.22880662	-43.14946698
1.44	144	-0.222	-0.915	0.205	-8.7089616	22.2307704	-9.6829902	88.02353754	-2.13140376	-42.93174294
1.45	145	-0.213	-0.918	0.201	-8.307891	24.923673	-10.7143146	87.949053	-2.03973048	-42.69110058
1.46	146	-0.199	-0.921	0.194	-7.2192708	26.8717302	-11.4018642	87.8631093	-1.92513888	-42.4275399
1.47	147	-0.184	-0.917	0.175	-5.6149884	28.5333084	-11.6883432	87.79435434	-1.8048177	-42.15252006
1.48	148	-0.17	-0.909	0.154	-3.6669312	30.3094782	-12.0894138	87.74278812	-1.68449652	-41.8545819
1.49	149	-0.162	-0.901	0.151	-1.2032118	32.6013102	-12.4904844	87.71414022	-1.55271618	-41.539455
1.5	150	-0.158	-0.899	0.168	0.6302538	34.8931422	-12.6623718	87.72559938	-1.43812458	-41.1956802
1.51	151	-0.152	-0.906	0.189	2.7501984	36.5547204	-12.3758928	87.74278812	-1.30634424	-40.84044624
1.52	152	-0.148	-0.921	0.208	4.9274388	36.382833	-11.2872726	87.7771656	-1.19175264	-40.48521228
1.53	153	-0.15	-0.941	0.224	6.9900876	34.8358464	-9.7975818	87.8344614	-1.0886202	-40.14143748
1.54	154	-0.163	-0.957	0.235	8.1932994	32.2002396	-8.4797784	87.90894594	-1.0026765	-39.82631058
1.55	155	-0.181	-0.961	0.245	9.453807	29.507337	-7.6203414	88.02353754	-0.93965112	-39.534102
1.56	156	-0.193	-0.956	0.265	11.0580894	27.501984	-7.161975	88.12666998	-0.86516658	-39.26481174
1.57	157	-0.2	-0.949	0.29	12.9488508	25.8404058	-7.2192708	88.25272074	-0.79068204	-39.00698064
1.58	158	-0.161	-1.034	0.252	8.880849	33.9764094	-6.589017	88.33293486	-0.72765666	-38.66893542
1.59	159	-0.048	-1.203	0.031	-3.2658606	45.6647526	-0.859437	88.28709822	-0.7161975	-38.22202818
1.6	160	-0.041	-1.393	0.041	0	31.9710564	10.6570188	88.28136864	-0.81932994	-37.9011717
1.61	161	0.041	-1.656	0.058	9.1100322	20.912967	23.9496444	88.36731234	-1.0599723	-37.68917724
1.62	162	0.202	-1.828	0.039	14.2666542	16.042824	41.1383844	88.51055184	-1.46677248	-37.51728984
1.63	163	0.263	-1.708	0.001	19.9389384	7.5057498	50.6494872	88.71108714	-1.96524594	-37.42561656
1.64	164	0.117	-1.318	-0.028	26.8717302	2.2345362	40.7946096	88.9803774	-2.37204612	-37.39696866
1.65	165	-0.1	-1.019	0.011	33.9764094	6.4171296	23.8923486	89.3241522	-2.61268848	-37.32248412
1.66	166	-0.221	-0.914	0.059	33.518043	13.5791046	8.1932994	89.65646784	-2.69863218	-37.1849742
1.67	167	-0.265	-0.846	0.075	28.1322378	19.5951636	-5.9014674	89.93148768	-2.64133638	-36.99016848
1.68	168	-0.254	-0.795	0.077	25.0955604	30.0229992	-17.0168526	90.16640046	-2.47517856	-36.68650074
1.69	169	-0.194	-0.779	0.029	22.5745452	45.0917946	-23.777757	90.37266534	-2.25172494	-36.2395935
1.7	170	-0.124	-0.78	-0.018	18.907614	58.6708992	-25.6112226	90.53309358	-2.02254174	-35.65517634
1.71	171	-0.068	-0.792	-0.03	13.9228794	64.9734372	-22.9756158	90.6419556	-1.81627686	-35.0077338
1.72	172	-0.007	-0.815	-0.047	7.8495246	64.6869582	-15.3552744	90.69352182	-1.6902261	-34.36602084
1.73	173	0.068	-0.844	-0.065	2.2345362	57.5249832	-6.9327918	90.69352182	-1.64438946	-33.79306284
1.74	174	0.127	-0.873	-0.078	-3.6669312	46.2377106	-0.6875496	90.63622602	-1.65011904	-33.33469644
1.75	175	0.189	-0.905	-0.087	-9.3392154	33.518043	3.2658606	90.51590484	-1.67303736	-33.00811038
1.76	176	0.242	-0.941	-0.085	-12.2613012	22.8037284	5.0420304	90.37839492	-1.73606274	-32.78465676
1.77	177	0.273	-0.98	-0.074	-11.745639	13.9801752	4.870143	90.25234416	-1.78762896	-32.64714684
1.78	178	0.274	-1.013	-0.04	-9.453807	6.5317212	2.6929026	90.1549413	-1.81627686	-32.58412146
1.79	179	0.253	-1.034	0.017	-6.8182002	-0.5156622	-1.6615782	90.08618634	-1.79908812	-32.58985104
1.8	180	0.22	-1.039	0.065	-2.2345362	-6.302538	-8.7089616	90.07472718	-1.6615782	-32.65287642
1.81	181	0.195	-1.048	0.081	1.6042824	-10.599723	-14.3812458	90.0976455	-1.5183387	-32.75600886
1.82	182	0.169	-1.06	0.083	4.4117766	-12.318597	-18.7930224	90.14348214	-1.32353298	-32.87633004
1.83	183	0.139	-1.077	0.086	6.9327918	-13.0634424	-22.2307704	90.21796668	-1.10007936	-33.0023808
1.84	184	0.103	-1.086	0.094	9.0527364	-14.4958374	-24.2934192	90.31536954	-0.85370742	-33.1456203
1.85	185	0.069	-1.081	0.1	10.0840608	-16.615782	-24.637194	90.42996114	-0.59587632	-33.30604854
1.86	186	0.039	-1.058	0.103	10.0840608	-18.048177	-23.204799	90.53309358	-0.35523396	-33.47793594
1.87	187	0.017	-1.025	0.105	8.8235532	-18.334656	-20.626488	90.62476686	-0.1432395	-33.65555292
1.88	188	0.001	-0.995	0.109	6.016059	-16.9595568	-17.475219	90.68779224	0.0286479	-33.82171074
1.89	189	-0.004	-0.974	0.102	2.8074942	-13.5791046	-15.3552744	90.72216972	0.18907614	-33.95349108
1.9	190	-0.01	-0.96	0.087	0.286479	-9.6256944	-13.750992	90.73362888	0.32658606	-34.04516436
1.91	191	-0.012	-0.953	0.077	-2.3491278	-5.6722842	-12.8342592	90.71071056	0.4583664	-34.10246016
1.92	192	-0.005	-0.944	0.082	-4.9274388	-2.4064236	-12.2613012	90.65914434	0.57868758	-34.12537848
1.93	193	0.009	-0.93	0.084	-7.0473834	-0.4010706	-12.032118	90.59038938	0.69900876	-34.12537848
1.94	194	0.032	-0.921	0.08	-8.3651868	1.0313244	-12.0894138	90.50444568	0.81932994	-34.11391932
1.95	195	0.058	-0.913	0.083	-9.167328	1.6615782	-12.318597	90.41850198	0.95111028	-34.09673058
1.96	196	0.078	-0.904	0.086	-9.5683986	0.1145916	-11.9175264	90.32109912	1.06570188	-34.09673058
1.97	197	0.09	-0.897	0.093	-9.6829902	-3.6669312	-10.886202	90.22369626	1.1745639	-34.13110806
1.98	198	0.099	-0.891	0.104	-9.740286	-7.734933	-9.0527364	90.1262934	1.26623718	-34.21132218
1.99	199	0.103	-0.891	0.117	-9.6256944	-11.6883432	-6.9327918	90.02316096	1.34072172	-34.32591378
2	200	0.101	-0.9	0.134	-9.3965112	-14.896908	-4.6409598	89.94867642	1.4037471	-34.47488286
2.01	201	0.101	-0.919	0.146	-8.7662574	-17.2460358	-2.3491278	89.85700314	1.432395	-34.64677026
2.02	202	0.102	-0.94	0.152	-7.7922288	-19.0222056	-0.4010706	89.77678902	1.43812458	-34.8358464
2.03	203	0.107	-0.961	0.15	-6.4744254	-20.2827132	1.145916	89.70803406	1.432395	-35.0363817
2.04	204	0.113	-0.977	0.141	-4.4690724	-21.199446	2.6356068	89.65646784	1.40947668	-35.24837616
2.05	205	0.117	-0.981	0.126	-3.0366774	-22.2307704	3.5523396	89.64500868	1.39801752	-35.4661002
2.06	206	0.121	-0.974	0.106	-1.6042824	-24.064236	4.583664	89.62781994	1.35791046	-35.70101298
2.07	207	0.13	-0.959	0.095	-0.1145916	-27.2728008	5.8441716	89.62209036	1.30061466	-35.97030324
2.08	208	0.142	-0.944	0.1	0.6302538	-31.8564648	7.6776372	89.62781994	1.2318597	-36.28543014
2.09	209	0.149	-0.93	0.13	1.2032118	-38.4454818	9.8548776	89.63354952	1.145916	-36.669312
2.1	210	0.153	-0.929	0.169	1.718874	-45.550161	12.2040054	89.66219742	1.04278356	-37.11621924
2.11	211	0.156	-0.944	0.205	2.8074942	-52.5402486	14.4958374	89.69084532	0.91100322	-37.63188144
2.12	212	0.157	-0.976	0.23	4.4690724	-58.2698286	16.2147114	89.73668196	0.76203414	-38.21056902
2.13	213	0.143	-1.025	0.243	5.9587632	-62.3951262	16.5011904	89.79970734	0.61306506	-38.82363408
2.14	214	0.107	-1.078	0.258	7.6776372	-63.6556338	15.5271618	89.87992146	0.47555514	-39.45388788
2.15	215	0.041	-1.122	0.291	10.1413566	-63.6556338	13.9801752	90.00024264	0.35523396	-40.08414168
2.16	216	-0.02	-1.139	0.336	12.2613012	-62.1086472	11.6310474	90.13202298	0.2578311	-40.69720674
2.17	217	-0.053	-1.129	0.375	13.0061466	-58.728195	8.59437	90.2695329	0.19480572	-41.27589432
2.18	218	-0.061	-1.097	0.385	12.1467096	-54.3164184	6.5317212	90.40131324	0.14896908	-41.80874526
2.19	219	-0.071	-1.078	0.325	11.2872726	-52.4829528	5.6149884	90.52163442	0.10886202	-42.33013704
2.2	220	-0.1	-1.142	0.212	13.178034	-53.3423898	4.1252976	90.66487392	0.0859437	-42.8572584
2.21	221	-0.139	-1.302	0.119	20.1108258	-48.7587258	-0.7448454	90.87686838	0.1145916	-43.33281354
2.22	222	-0.177	-1.487	0.07	27.2728008	-42.5707794	-9.2819196	91.1576178	0.2291832	-43.75107288
2.23	223	-0.21	-1.581	0.079	25.78311	-39.820581	-18.334656	91.42117848	0.4297185	-44.13495474
2.24	224	-0.169	-1.534	0.083	24.7517856	-36.096354	-24.8090814	91.67328	0.69900876	-44.47872954
2.25	225	-0.048	-1.445	0.03	24.923673	-25.2674478	-25.7258142	91.92538152	0.96829902	-44.7193719
2.26	226	0.074	-1.261	-0.02	20.912967	-15.1260912	-19.480572	92.13737598	1.1745639	-44.85688182
2.27	227	0.13	-1.012	0.02	17.475219	-14.037471	-9.3392154	92.31499296	1.27769634	-44.99439174
2.28	228	0.114	-0.879	0.008	15.469866	-24.5798982	-0.5156622	92.46969162	1.30061466	-45.2350341
2.29	229	0.06	-0.836	-0.065	9.3965112	-40.680018	5.5003968	92.5613649	1.27769634	-45.6361047
2.3	230	0.032	-0.838	-0.119	2.6356068	-51.4516284	6.589017	92.56709448	1.24904844	-46.14603732
2.31	231	0.026	-0.887	-0.104	-0.6302538	-56.2644756	4.2398892	92.55563532	1.24904844	-46.70180658
2.32	232	0.039	-0.973	-0.078	-2.7501984	-55.0612638	-1.3750992	92.52125784	1.30061466	-47.24611668
2.33	233	0.072	-1.056	-0.072	-3.151269	-50.2484166	-8.8235532	92.48688036	1.42093584	-47.73886056
2.34	234	0.111	-1.104	-0.061	-3.8961144	-43.3156248	-14.7823164	92.44104372	1.59855282	-48.16284948
2.35	235	0.126	-1.096	-0.045	-6.7609044	-36.955791	-16.5584862	92.35510002	1.79908812	-48.51808344
2.36	236	0.106	-1.051	-0.036	-9.5683986	-32.6013102	-12.605076	92.25196758	1.94232762	-48.83893992
2.37	237	0.048	-0.995	-0.025	-11.172681	-29.0489706	-3.8961144	92.1316464	1.99962342	-49.12541892
2.38	238	-0.027	-0.966	-0.006	-10.313244	-25.496631	3.5523396	92.02278438	1.98243468	-49.37752044
2.39	239	-0.104	-0.95	0.027	-7.7922288	-20.9702628	8.59437	91.94257026	1.90795014	-49.5895149
2.4	240	-0.182	-0.938	0.066	-4.6982556	-16.5584862	11.0580894	91.89673362	1.76471064	-49.7614023
2.41	241	-0.242	-0.915	0.097	-2.8074942	-11.8029348	12.5477802	91.86235614	1.64438946	-49.88172348
2.42	242	-0.268	-0.895	0.106	-1.718874	-6.7036086	14.4958374	91.8451674	1.50687954	-49.95047844
2.43	243	-0.264	-0.884	0.092	-0.859437	-2.0626488	16.7876694	91.83370824	1.34072172	-49.97912634
2.44	244	-0.239	-0.89	0.079	0.2291832	0.859437	19.3086846	91.83943782	1.145916	-49.97912634
2.45	245	-0.206	-0.901	0.08	1.6615782	1.9480572	21.1421502	91.86235614	0.89381448	-49.96766718
2.46	246	-0.172	-0.9	0.086	2.6929026	1.9480572	21.5432208	91.89100404	0.67609044	-49.95620802
2.47	247	-0.131	-0.889	0.095	3.2658606	1.8334656	20.6837838	91.92538152	0.46982556	-49.94474886
2.48	248	-0.102	-0.865	0.105	2.7501984	2.9220858	18.5638392	91.95402942	0.286479	-49.92183054
2.49	249	-0.089	-0.838	0.102	2.291832	4.1825934	15.469866	91.97694774	0.13178034	-49.88745306
2.5	250	-0.074	-0.822	0.097	1.6042824	5.5576926	12.318597	91.99986606	0	-49.83588684
2.51	251	-0.069	-0.817	0.094	0.6302538	6.3598338	9.2819196	92.00559564	-0.09740286	-49.77286146
2.52	252	-0.074	-0.814	0.091	-0.5156622	6.4171296	6.3598338	91.99986606	-0.16615782	-49.71556566
2.53	253	-0.083	-0.825	0.102	-1.432395	5.8441716	3.437748	91.98267732	-0.20626488	-49.65826986
2.54	254	-0.101	-0.827	0.11	-2.578311	4.870143	1.6615782	91.95402942	-0.22345362	-49.61243322
2.55	255	-0.124	-0.832	0.121	-2.86479	4.4117766	0.4010706	91.94829984	-0.26929026	-49.56659658
2.56	256	-0.143	-0.845	0.133	-2.9793816	4.4690724	-0.4010706	91.91965194	-0.26929026	-49.52075994
2.57	257	-0.154	-0.858	0.142	-2.9220858	5.3858052	-0.859437	91.88527446	-0.26356068	-49.46919372
2.58	258	-0.16	-0.872	0.154	-2.005353	6.7609044	-1.432395	91.86235614	-0.25210152	-49.40043876
2.59	259	-0.155	-0.893	0.169	-1.2032118	8.7089616	-2.578311	91.85089698	-0.2291832	-49.31449506
2.6	260	-0.148	-0.911	0.177	-0.8021412	11.2872726	-4.6409598	91.87954488	-0.2291832	-49.20563304
2.61	261	-0.148	-0.925	0.184	-0.7448454	14.4958374	-7.6203414	91.86808572	-0.16615782	-49.05666396
2.62	262	-0.157	-0.932	0.188	-0.859437	17.3606274	-10.1986524	91.85662656	-0.07448454	-48.88477656
2.63	263	-0.166	-0.933	0.186	-1.2032118	19.767051	-12.7196676	91.83943782	0.03437748	-48.68424126
2.64	264	-0.174	-0.924	0.179	-0.2291832	23.0329116	-14.8396122	91.83370824	0.1718874	-48.44932848
2.65	265	-0.178	-0.913	0.175	1.2032118	27.4446882	-17.0168526	91.85662656	0.30366774	-48.17430864
2.66	266	-0.16	-0.883	0.161	2.4637194	32.085648	-19.0795014	91.87954488	0.47555514	-47.84772258
2.67	267	-0.151	-0.848	0.159	4.0680018	35.9244666	-21.1421502	91.91965194	0.66463128	-47.48675904
2.68	268	-0.142	-0.827	0.181	7.0473834	38.5600734	-22.345362	91.99413648	0.859437	-47.0971476
2.69	269	-0.131	-0.84	0.22	10.1986524	40.2789474	-22.345362	92.09726892	1.0599723	-46.69034742
2.7	270	-0.122	-0.887	0.248	11.5164558	41.7686382	-21.0848544	92.23477884	1.2318597	-46.2663585
2.71	271	-0.11	-0.964	0.25	10.5424272	43.9458786	-19.3086846	92.34364086	1.39228794	-45.82518084
2.72	272	-0.091	-1.046	0.219	6.9327918	44.4615408	-16.6730778	92.4181254	1.52979786	-45.3782736
2.73	273	-0.062	-1.132	0.177	3.3804522	40.4508348	-12.891555	92.45823246	1.62720072	-44.97147342
2.74	274	-0.016	-1.203	0.154	3.5523396	32.4294228	-7.9068204	92.5040691	1.68449652	-44.64488736
2.75	275	0.062	-1.227	0.21	8.8235532	24.5226024	-3.151269	92.60720154	1.70741484	-44.39851542
2.76	276	0.111	-1.186	0.302	15.756345	22.2880662	-0.1718874	92.77335936	1.6902261	-44.18079138
2.77	277	0.054	-1.05	0.398	22.2880662	20.8556712	2.578311	93.00254256	1.65011904	-43.9745265
2.78	278	-0.111	-0.972	0.433	28.5333084	25.3820394	2.8074942	93.29475114	1.6042824	-43.72242498
2.79	279	-0.225	-1.019	0.345	24.2361234	53.5142772	0	93.54685266	1.55844576	-43.18957404
2.8	280	-0.247	-1.091	0.28	16.7303736	76.0315266	-0.9740286	93.7359288	1.4896908	-42.43899906
2.81	281	-0.238	-1.386	0.24	7.3911582	77.8076964	0.572958	93.8218725	1.41520626	-41.67123534
2.82	282	-0.115	-1.84	0.128	-15.183387	69.4998054	15.0687954	93.67290342	1.19748222	-41.00087448
2.83	283	0.091	-2.246	0.049	-19.8816426	45.550161	47.6701056	93.47236812	0.68182002	-40.58261514
2.84	284	0.418	-2.121	-0.091	22.8037284	54.717489	65.2599162	93.70155132	-0.00572958	-40.08414168
2.85	285	0.48	-1.564	-0.276	39.7632852	59.1865614	57.9260538	94.09116276	-0.62452422	-39.534102
2.86	286	0.212	-1.037	-0.113	35.0077338	40.8519054	41.9978214	94.43493756	-1.07716104	-39.1616793
2.87	287	-0.02	-0.737	-0.01	31.1689152	30.7105488	23.6631654	94.74433488	-1.34072172	-38.8752003
2.88	288	-0.08	-0.613	-0.025	22.2307704	36.1536498	6.016059	94.95632934	-1.44385416	-38.52569592
2.89	289	-0.061	-0.585	-0.073	9.453807	44.8626114	-5.6149884	95.03081388	-1.43812458	-38.07878868
2.9	290	-0.059	-0.616	-0.06	1.2605076	50.1911208	-11.6883432	95.01935472	-1.38082878	-37.57458564
2.91	291	-0.103	-0.704	-0.016	-0.6302538	48.5868384	-12.7196676	94.9964364	-1.31207382	-37.08184176
2.92	292	-0.133	-0.8	0.006	-2.9220858	42.7426668	-9.2819196	94.95059976	-1.26623718	-36.65785284
2.93	293	-0.091	-0.911	0.002	-9.167328	35.809875	-2.9793816	94.84173774	-1.27769634	-36.30261888
2.94	294	-0.005	-0.979	-0.018	-15.2979786	30.080295	1.6042824	94.67557992	-1.32926256	-36.0104103
2.95	295	0.084	-1.017	-0.037	-17.9335854	22.1161788	3.7815228	94.46358546	-1.36936962	-35.79841584
2.96	296	0.162	-1.021	-0.043	-16.3865988	13.4072172	2.5210152	94.29169806	-1.40947668	-35.6666355
2.97	297	0.23	-0.986	-0.028	-11.5164558	5.9587632	-1.2032118	94.17137688	-1.4037471	-35.6093397
2.98	298	0.286	-0.934	0	-4.6982556	0.1145916	-5.3285094	94.12554024	-1.35218088	-35.60361012
2.99	299	0.332	-0.895	0.032	1.0313244	-4.8128472	-8.307891	94.1369994	-1.26623718	-35.64944676
3	300	0.342	-0.882	0.053	3.2658606	-8.6516658	-10.2559482	94.1656473	-1.06570188	-35.7239313
3.01	301	0.315	-0.892	0.064	2.9220858	-12.1467096	-10.6570188	94.20002478	-0.95111028	-35.83279332
3.02	302	0.26	-0.915	0.075	1.2605076	-14.610429	-9.5683986	94.21721352	-0.84224826	-35.97030324
3.03	303	0.192	-0.94	0.091	0.3437748	-17.1314442	-7.7922288	94.22867268	-0.7448454	-36.13646106
3.04	304	0.118	-0.965	0.118	2.2345362	-19.767051	-6.0733548	94.251591	-0.66463128	-36.3255372
3.05	305	0.056	-0.987	0.151	3.8388186	-22.4026578	-4.9274388	94.3088868	-0.58441716	-36.53753166
3.06	306	0.002	-0.996	0.167	4.870143	-23.4339822	-5.0993262	94.3661826	-0.50993262	-36.76671486
3.07	307	-0.045	-0.986	0.183	5.9587632	-22.7464326	-5.8441716	94.42920798	-0.42398892	-36.9844389
3.08	308	-0.076	-0.976	0.192	5.2712136	-20.1681216	-6.8182002	94.48650378	-0.33804522	-37.17924462
3.09	309	-0.087	-0.971	0.2	3.7815228	-15.2979786	-7.3338624	94.53234042	-0.24637194	-37.32248412
3.1	310	-0.086	-0.968	0.2	1.9480572	-11.0580894	-6.8182002	94.58963622	-0.19480572	-37.42561656
3.11	311	-0.078	-0.973	0.192	-0.3437748	-8.1360036	-5.2139178	94.58390664	-0.13178034	-37.5001011
3.12	312	-0.061	-0.98	0.187	-2.4637194	-6.589017	-2.6356068	94.56098832	-0.10313244	-37.56312648
3.13	313	-0.036	-0.99	0.189	-3.8961144	-5.443101	-0.0572958	94.52088126	-0.09740286	-37.6146927
3.14	314	-0.004	-0.997	0.198	-4.8128472	-4.6409598	2.005353	94.47504462	-0.10886202	-37.66625892
3.15	315	0.031	-0.994	0.209	-5.2712136	-3.5523396	3.6096354	94.4807742	-0.1145916	-37.7006364
3.16	316	0.06	-0.978	0.215	-5.2139178	-2.6356068	4.6982556	94.4234784	-0.16042824	-37.7292843
3.17	317	0.081	-0.954	0.217	-4.6409598	-2.5210152	5.5003968	94.37764176	-0.21199446	-37.76366178
3.18	318	0.092	-0.93	0.218	-3.2658606	-2.8074942	6.589017	94.34899386	-0.27501984	-37.79230968
3.19	319	0.094	-0.907	0.22	-1.6615782	-4.1252976	8.1360036	94.33180512	-0.34950438	-37.8438759
3.2	320	0.091	-0.881	0.217	0.0572958	-6.3598338	10.0840608	94.3661826	-0.41825934	-37.91263086
3.21	321	0.091	-0.849	0.206	1.8334656	-9.0527364	12.2613012	94.38910092	-0.52712136	-38.01003372
3.22	322	0.096	-0.812	0.198	3.8388186	-12.8342592	14.3812458	94.43493756	-0.6589017	-38.14754364
3.23	323	0.105	-0.785	0.197	5.443101	-19.2513888	16.1001198	94.49223336	-0.79641162	-38.34807894
3.24	324	0.118	-0.764	0.205	7.3911582	-27.9603504	16.8449652	94.57817706	-0.93392154	-38.64028752
3.25	325	0.133	-0.766	0.223	10.4851314	-35.9244666	16.9595568	94.7099574	-1.04851314	-39.00125106
3.26	326	0.136	-0.797	0.23	11.9748222	-41.4248634	16.8449652	94.84173774	-1.16883432	-39.42523998
3.27	327	0.106	-0.84	0.245	11.3445684	-44.8053156	16.9595568	94.97351808	-1.28342592	-39.8778768
3.28	328	0.06	-0.89	0.275	10.9434978	-44.404245	16.4438946	95.10529842	-1.39801752	-40.33051362
3.29	329	-0.016	-0.938	0.294	11.2872726	-39.7059894	14.6677248	95.23707876	-1.49542038	-40.73158422
3.3	330	-0.104	-0.988	0.272	13.5218088	-32.8304934	10.4278356	95.40323658	-1.56990492	-41.06389986
3.31	331	-0.181	-1.068	0.227	13.178034	-29.6792244	5.443101	95.55220566	-1.58709366	-41.35610844
3.32	332	-0.245	-1.136	0.16	5.6149884	-35.6952834	0.1145916	95.62096062	-1.5469866	-41.70561282
3.33	333	-0.275	-1.277	0.139	7.5057498	-36.6120162	-9.0527364	95.7126339	-1.40947668	-42.0551172
3.34	334	-0.291	-1.469	0.072	12.9488508	-38.0444112	-20.1681216	95.8558734	-1.15737516	-42.40462158
3.35	335	-0.329	-1.59	0.117	12.2040054	-41.539455	-32.0283522	95.99338332	-0.79068204	-42.77704428
3.36	336	-0.258	-1.737	0.239	17.1314442	-26.5279554	-47.0971476	96.1710003	-0.29220858	-42.98903874
3.37	337	-0.105	-1.794	0.076	18.6784308	-1.5469866	-56.4936588	96.36007644	0.26356068	-42.93747252
3.38	338	0.034	-1.505	-0.099	17.8762896	9.9694692	-50.8786704	96.53769342	0.75057498	-42.77704428
3.39	339	0.171	-1.184	-0.043	23.6058696	6.589017	-37.528749	96.77833578	1.1172681	-42.66818226
3.4	340	0.234	-1.068	0.013	26.0122932	-7.161975	-24.064236	97.0304373	1.38655836	-42.70828932
3.41	341	0.222	-0.982	-0.021	18.5638392	-26.642547	-10.5424272	97.21378386	1.53552744	-42.94893168
3.42	342	0.187	-0.933	-0.046	10.8289062	-42.4561878	0.3437748	97.3169163	1.59282324	-43.36719102
3.43	343	0.149	-0.929	-0.028	3.151269	-49.9619376	7.3911582	97.3455642	1.59855282	-43.86566448
3.44	344	0.116	-0.932	0.005	-5.156622	-49.2170922	8.4797784	97.28253882	1.59282324	-44.35840836
3.45	345	0.08	-0.938	0.024	-10.7143146	-42.8572584	2.9220858	97.15648806	1.6329303	-44.78239728
3.46	346	0.029	-0.976	0.031	-12.4904844	-33.4034514	-5.9014674	97.02470772	1.73606274	-45.10325376
3.47	347	-0.027	-1.022	0.015	-14.5531332	-23.1475032	-13.5791046	96.87000906	1.90795014	-45.31524822
3.48	348	-0.088	-1.066	0.014	-15.8136408	-12.6623718	-15.6417534	96.70958082	2.07983754	-45.41838066
3.49	349	-0.139	-1.049	0.031	-16.4438946	-4.1252976	-10.0840608	96.543423	2.18296998	-45.45275814
3.5	350	-0.176	-0.994	0.059	-12.891555	0.6875496	-1.6042824	96.38299476	2.09702628	-45.44702856
3.51	351	-0.216	-0.933	0.089	-8.021412	3.8388186	5.9014674	96.30278064	2.0340009	-45.41838066
3.52	352	-0.251	-0.878	0.103	-4.3544808	6.4171296	10.4851314	96.256944	1.9194093	-45.36681444
3.53	353	-0.278	-0.855	0.113	-1.2032118	9.3392154	12.7196676	96.24548484	1.78189938	-45.2923299
3.54	354	-0.294	-0.866	0.127	1.8907614	12.7196676	13.6936962	96.26840316	1.62720072	-45.1777383
3.55	355	-0.296	-0.901	0.136	3.5523396	16.7303736	14.037471	96.30851022	1.40947668	-45.0344988
3.56	356	-0.285	-0.932	0.151	5.2712136	22.7464326	13.2353298	96.36580602	1.24904844	-44.82250434
3.57	357	-0.261	-0.946	0.158	6.1306506	29.793816	11.0580894	96.4288314	1.09434978	-44.54175492
3.58	358	-0.229	-0.945	0.157	6.589017	36.0390582	8.1360036	96.49758636	0.96829902	-44.19798012
3.59	359	-0.197	-0.937	0.152	6.6463128	41.252976	4.8128472	96.56634132	0.859437	-43.8026391
3.6	360	-0.159	-0.928	0.147	6.302538	45.7220484	1.2605076	96.63509628	0.76203414	-43.35573186
3.61	361	-0.118	-0.914	0.145	4.6409598	49.2170922	-2.1199446	96.68093292	0.7161975	-42.86871756
3.62	362	-0.073	-0.884	0.135	2.8074942	51.1078536	-4.8128472	96.70958082	0.69327918	-42.36451452
3.63	363	-0.034	-0.856	0.143	1.9480572	50.9359662	-6.4744254	96.73249914	0.68182002	-41.8545819
3.64	364	-0.009	-0.851	0.15	-0.9740286	48.0138804	-7.7922288	96.72103998	0.69327918	-41.37902676
3.65	365	0	-0.858	0.152	-3.437748	43.9458786	-8.021412	96.6866625	0.70473834	-40.9378491
3.66	366	-0.002	-0.878	0.16	-4.6409598	39.534102	-7.9641162	96.64082586	0.72765666	-40.54250808
3.67	367	0	-0.891	0.167	-5.8441716	34.950438	-7.7922288	96.57780048	0.75630456	-40.1930037
3.68	368	-0.001	-0.902	0.178	-6.1879464	30.8824362	-8.021412	96.5147751	0.79068204	-39.8778768
3.69	369	-0.009	-0.905	0.191	-5.3858052	27.3300966	-8.7089616	96.46320888	0.84224826	-39.60285696
3.7	370	-0.028	-0.902	0.207	-3.437748	24.923673	-10.026765	96.44602014	0.89381448	-39.34502586
3.71	371	-0.057	-0.893	0.224	-1.718874	24.0069402	-12.3758928	96.4288314	0.98548776	-39.09865392
3.72	372	-0.087	-0.883	0.244	-0.7448454	24.2934192	-15.756345	96.42310182	1.10580894	-38.84082282
3.73	373	-0.113	-0.87	0.259	-0.286479	25.2674478	-19.0795014	96.41737224	1.2605076	-38.57153256
3.74	374	-0.13	-0.853	0.254	0.9740286	26.2987722	-21.485925	96.43456098	1.43812458	-38.29078314
3.75	375	-0.138	-0.839	0.245	2.9793816	27.3873924	-23.3766864	96.48039762	1.61001198	-37.99284498
3.76	376	-0.145	-0.821	0.25	5.0420304	28.7624916	-24.5226024	96.53769342	1.81054728	-37.68344766
3.77	377	-0.153	-0.808	0.264	7.2765666	30.4240698	-24.8663772	96.61790754	2.01681216	-37.3568616
3.78	378	-0.161	-0.812	0.276	8.3651868	32.6013102	-24.5798982	96.7153104	2.21161788	-37.00735722
3.79	379	-0.164	-0.832	0.286	9.1100322	35.523396	-24.1788276	96.81271326	2.40069402	-36.62920494
3.8	380	-0.162	-0.861	0.283	9.5683986	40.4508348	-23.8923486	96.93876402	2.56112226	-36.19948644
3.81	381	-0.151	-0.899	0.263	9.6829902	46.2950064	-23.8350528	97.05335562	2.72728008	-35.71820172
3.82	382	-0.131	-0.939	0.24	10.0840608	51.3943326	-23.6631654	97.1736768	2.88197874	-35.18535078
3.83	383	-0.101	-0.982	0.216	9.5683986	54.4883058	-22.8037284	97.29399798	3.02521824	-34.61812236
3.84	384	-0.068	-1.013	0.214	10.886202	53.858052	-20.5691922	97.42577832	3.14553942	-34.0623531
3.85	385	-0.033	-1.045	0.219	13.0061466	50.7640788	-17.2460358	97.58620656	3.23148312	-33.54096132
3.86	386	-0.005	-1.061	0.245	13.6364004	46.6387812	-13.5218088	97.7466348	3.28877892	-33.06540618
3.87	387	0.024	-1.128	0.266	10.5424272	51.1651494	-10.3705398	97.87841514	3.31169724	-32.54974398
3.88	388	0.145	-1.309	0.065	-10.1413566	76.8909636	-2.578311	97.8039306	3.21429438	-31.799169
3.89	389	0.266	-1.597	-0.036	-29.2781538	68.0101146	18.2200644	97.53464034	2.9220858	-31.16318562
3.9	390	0.34	-1.942	0.091	-11.1153852	40.7373138	39.0757356	97.4315079	2.47517856	-30.81368124
3.91	391	0.503	-2.039	0.068	11.745639	45.550161	49.9046418	97.56328824	1.91367972	-30.43552896
3.92	392	0.445	-1.713	0.026	18.7357266	48.4722468	49.4462754	97.75809396	1.35218088	-30.0229992
3.93	393	0.108	-1.289	0.029	20.2254174	41.9978214	38.2162986	97.96435884	0.90527364	-29.66776524
3.94	394	-0.222	-0.983	0.101	15.6990492	32.5440144	22.2307704	98.12478708	0.63598338	-29.37555666
3.95	395	-0.356	-0.845	0.082	5.9014674	28.2468294	9.0527364	98.17062372	0.4297185	-29.11772556
3.96	396	-0.354	-0.812	0.084	1.5469866	30.8824362	4.1825934	98.18208288	0.33231564	-28.8197874
3.97	397	-0.271	-0.843	0.115	3.2085648	42.8572584	1.3750992	98.21646036	0.24637194	-28.40725764
3.98	398	-0.162	-0.872	0.135	0.3437748	57.3530958	-2.005353	98.21073078	0.1718874	-27.8457588
3.99	399	-0.067	-0.878	0.116	-7.5630456	66.3485364	-5.0420304	98.12478708	0.10886202	-27.19258668
4	400	0.011	-0.878	0.075	-17.0168526	66.2339448	-5.3858052	97.94144052	0.0572958	-26.53941456
4.01	401	0.104	-0.901	0.039	-22.4599536	58.2698286	-2.0626488	97.70079816	-0.01145916	-25.97218614
4.02	402	0.2	-0.947	0.011	-24.1215318	46.7533728	2.7501984	97.44869664	-0.1145916	-25.51954932
4.03	403	0.296	-1.012	-0.001	-22.4599536	34.5493674	5.8441716	97.21951344	-0.2291832	-25.19296326
4.04	404	0.37	-1.074	-0.022	-19.767051	21.3713334	4.9847346	97.01324856	-0.30939732	-24.99242796
4.05	405	0.368	-1.099	-0.053	-19.8243468	8.021412	0.572958	96.7726062	-0.26356068	-24.91794342
4.06	406	0.322	-1.069	-0.044	-19.3086846	-2.2345362	-5.9014674	96.57780048	-0.20626488	-24.93513216
4.07	407	0.292	-1.038	-0.014	-17.3033316	-9.2246238	-13.2926256	96.4001835	-0.06302538	-25.01534628
4.08	408	0.285	-1.025	0.024	-16.6730778	-13.8082878	-19.3086846	96.23402568	0.1432395	-25.12993788
4.09	409	0.278	-1.029	0.053	-18.1054728	-16.9595568	-22.631841	96.05067912	0.38388186	-25.27317738
4.1	410	0.265	-1.048	0.081	-19.767051	-19.9389384	-22.9756158	95.85014382	0.66463128	-25.45079436
4.11	411	0.24	-1.085	0.131	-21.3140376	-24.2934192	-21.6005166	95.63241978	0.90527364	-25.6685184
4.12	412	0.222	-1.103	0.155	-22.8037284	-31.6845774	-19.2513888	95.397507	1.13445684	-25.96072698
4.13	413	0.211	-1.094	0.141	-24.1788276	-37.1276784	-17.2460358	95.15113506	1.3464513	-26.31596094
4.14	414	0.205	-1.07	0.112	-24.4080108	-39.4195104	-16.2720072	94.89903354	1.55271618	-26.68838364
4.15	415	0.203	-1.051	0.087	-24.064236	-41.1956802	-16.1574156	94.64693202	1.77044022	-27.08372466
4.16	416	0.199	-1.043	0.07	-23.5485738	-43.3156248	-17.2460358	94.3948305	1.98243468	-27.49625442
4.17	417	0.19	-1.036	0.059	-24.2934192	-45.550161	-18.6784308	94.14272898	2.21161788	-27.93743208
4.18	418	0.183	-1.016	0.049	-27.3300966	-47.6128098	-19.767051	93.8505204	2.45226024	-28.39579848
4.19	419	0.179	-0.98	0.039	-31.7418732	-50.1911208	-19.5951636	93.51247518	2.68717302	-28.8770832
4.2	420	0.182	-0.947	0.034	-35.6952834	-53.8007562	-18.1054728	93.12859332	2.9220858	-29.40420456
4.21	421	0.189	-0.932	0.037	-37.9298196	-57.1239126	-16.1001198	92.72179314	3.1226211	-29.9657034
4.22	422	0.196	-0.94	0.065	-39.9351726	-61.4783934	-13.5791046	92.28634506	3.30023808	-30.57303888
4.23	423	0.204	-0.96	0.102	-42.112413	-67.895523	-10.886202	91.83370824	3.44920716	-31.24339974
4.24	424	0.216	-0.979	0.113	-42.2843004	-71.4478626	-8.6516658	91.36961226	3.56952834	-31.95386766
4.25	425	0.234	-0.992	0.098	-39.7059894	-72.3072996	-6.7036086	90.93416418	3.67839036	-32.67006516
4.26	426	0.238	-0.991	0.072	-34.37748	-74.3699484	-5.156622	90.54455274	3.75860448	-33.40918098
4.27	427	0.225	-0.984	0.065	-28.4187168	-78.208767	-4.4117766	90.2122371	3.82735944	-34.18840386
4.28	428	0.22	-0.975	0.074	-23.777757	-83.7091638	-3.724227	89.9257581	3.88465524	-35.01919296
4.29	429	0.224	-0.958	0.082	-22.4026578	-89.2095606	-3.0366774	89.65073826	3.93622146	-35.90727786
4.3	430	0.24	-0.941	0.086	-22.91832	-92.5900128	-2.4064236	89.37571842	3.98778768	-36.82401066
4.31	431	0.259	-0.914	0.099	-23.3766864	-94.251591	-1.9480572	89.08350984	4.01643558	-37.76366178
4.32	432	0.273	-0.9	0.111	-21.9442914	-96.7153104	-1.3178034	88.80276042	4.0393539	-38.72050164
4.33	433	0.272	-0.921	0.116	-20.5691922	-98.6060718	-0.8021412	88.53919974	4.05081306	-39.70025982
4.34	434	0.269	-0.968	0.113	-20.9702628	-99.9238752	-0.6302538	88.26990948	4.05654264	-40.69720674
4.35	435	0.249	-1.034	0.105	-22.058883	-100.7833122	-0.6302538	87.99488964	4.06227222	-41.69415366
4.36	436	0.219	-1.105	0.096	-23.204799	-103.4762148	-1.0313244	87.70268106	4.06227222	-42.72547806
4.37	437	0.195	-1.161	0.099	-24.5798982	-106.9139628	-1.9480572	87.38755416	4.06227222	-43.78545036
4.38	438	0.177	-1.172	0.088	-26.4706596	-110.867373	-2.578311	87.05523852	4.06227222	-44.8912593
4.39	439	0.161	-1.148	0.088	-26.8717302	-116.9407278	-2.2345362	86.7171933	4.05654264	-46.05436404
4.4	440	0.153	-1.101	0.116	-27.501984	-122.1546456	-1.8334656	86.37914808	4.03362432	-47.269035
4.41	441	0.152	-1.034	0.119	-28.1322378	-125.191323	-1.2032118	86.01818454	3.99924684	-48.51235386
4.42	442	0.149	-0.977	0.118	-27.7311672	-126.9674928	-0.7448454	85.66868016	3.94768062	-49.77286146
4.43	443	0.149	-0.947	0.103	-28.1322378	-127.9415214	-1.145916	85.3134462	3.89038482	-51.03909864
4.44	444	0.155	-0.944	0.086	-28.934379	-128.91555	-1.6042824	84.95248266	3.83308902	-52.32252456
4.45	445	0.156	-0.962	0.055	-29.9657034	-130.9781988	-1.6042824	84.58578954	3.76433406	-53.61740964
4.46	446	0.148	-0.981	0.026	-31.51269	-133.785693	-1.3178034	84.1961781	3.68411994	-54.9466722
4.47	447	0.129	-0.99	0.005	-32.658606	-135.6764544	-1.3178034	83.7951075	3.59244666	-56.2931235
4.48	448	0.1	-0.983	-0.018	-33.2888598	-136.2494124	-1.9480572	83.3940369	3.4950438	-57.6395748
4.49	449	0.052	-0.961	-0.039	-33.5753388	-135.6764544	-3.151269	82.98723672	3.40337052	-58.9860261
4.5	450	-0.001	-0.958	-0.062	-32.945085	-133.6711014	-5.2712136	82.59762528	3.31742682	-60.31528866
4.51	451	-0.047	-0.985	-0.08	-31.7418732	-130.1760576	-8.1360036	82.21374342	3.26013102	-61.61017374
4.52	452	-0.065	-1.02	-0.099	-30.653253	-124.331886	-11.0580894	81.85277988	3.23148312	-62.8534926
4.53	453	-0.061	-1.045	-0.115	-29.7365202	-118.029348	-12.9488508	81.49754592	3.22002396	-64.03378608
4.54	454	-0.041	-1.045	-0.121	-28.8197874	-112.7581344	-13.6364004	81.1595007	3.2085648	-65.16824292
4.55	455	-0.019	-1.022	-0.116	-27.215505	-108.0598788	-12.8342592	80.83291464	3.19137606	-66.25113354
4.56	456	0.004	-0.993	-0.128	-25.1528562	-104.5075392	-10.9434978	80.53497648	3.15699858	-67.2939171
4.57	457	0.028	-0.958	-0.139	-23.777757	-102.273003	-8.7089616	80.25422706	3.09970278	-68.31378234
4.58	458	0.052	-0.924	-0.142	-22.6891368	-100.4968332	-6.9327918	79.97920722	3.02521824	-69.31072926
4.59	459	0.072	-0.905	-0.155	-21.3140376	-99.4655088	-5.9587632	79.7271057	2.93354496	-70.29621702
4.6	460	0.079	-0.898	-0.162	-20.5118964	-99.121734	-5.72958	79.48073376	2.84187168	-71.28170478
4.61	461	0.078	-0.901	-0.165	-20.05353	-98.8925508	-6.0733548	79.2400914	2.74446882	-72.26146296
4.62	462	0.064	-0.911	-0.171	-19.6524594	-98.6060718	-6.4171296	79.0109082	2.64706596	-73.23549156
4.63	463	0.037	-0.927	-0.175	-19.1367972	-97.8612264	-7.0473834	78.781725	2.55539268	-74.20952016
4.64	464	0.008	-0.939	-0.176	-18.8503182	-95.7412818	-7.9641162	78.56400096	2.46944898	-75.15490086
4.65	465	-0.02	-0.952	-0.184	-17.9908812	-92.819196	-8.880849	78.3520065	2.39496444	-76.08309282
4.66	466	-0.048	-0.954	-0.188	-17.3606274	-88.7511942	-9.3965112	78.1514712	2.32620948	-76.96544814
4.67	467	-0.067	-0.946	-0.189	-16.7876694	-83.938347	-9.6829902	77.95666548	2.27464326	-77.8076964
4.68	468	-0.066	-0.936	-0.184	-16.5011904	-77.7504006	-9.6256944	77.76758934	2.22307704	-78.5811897
4.69	469	-0.051	-0.924	-0.185	-16.1574156	-71.6770458	-9.2246238	77.58424278	2.1772404	-79.30311678
4.7	470	-0.03	-0.915	-0.186	-15.469866	-67.3798608	-8.6516658	77.41235538	2.13140376	-79.97347764
4.71	471	-0.006	-0.908	-0.191	-15.0114996	-64.3431834	-7.9068204	77.24619756	2.08556712	-80.62092018
4.72	472	0.015	-0.901	-0.198	-14.896908	-62.165943	-7.1046792	77.08003974	2.0340009	-81.23971482
4.73	473	0.036	-0.899	-0.21	-14.5531332	-61.2492102	-6.2452422	76.9196115	1.97097552	-81.8470503
4.74	474	0.05	-0.897	-0.219	-13.9801752	-61.8221682	-5.3285094	76.76491284	1.89649098	-82.46011536
4.75	475	0.064	-0.902	-0.225	-13.2926256	-62.8534926	-4.7555514	76.61021418	1.82200644	-83.08463958
4.76	476	0.073	-0.912	-0.235	-13.0061466	-64.4004792	-4.5263682	76.46697468	1.73606274	-83.71489338
4.77	477	0.077	-0.926	-0.243	-13.2926256	-65.9474658	-4.5263682	76.32373518	1.63865988	-84.3680655
4.78	478	0.079	-0.943	-0.247	-14.1520626	-66.5777196	-4.9847346	76.16903652	1.5469866	-85.02123762
4.79	479	0.077	-0.955	-0.247	-14.9542038	-66.463128	-5.3858052	76.00860828	1.4610429	-85.68013932
4.8	480	0.075	-0.96	-0.248	-15.0687954	-66.0047616	-6.016059	75.84818004	1.38082878	-86.33331144
4.81	481	0.074	-0.951	-0.248	-14.9542038	-65.2026204	-6.589017	75.6877518	1.30061466	-86.98075398
4.82	482	0.073	-0.937	-0.257	-15.1260912	-64.8015498	-7.161975	75.52732356	1.22613012	-87.62246694
4.83	483	0.066	-0.914	-0.26	-15.183387	-65.030733	-7.6203414	75.36689532	1.15164558	-88.26990948
4.84	484	0.063	-0.895	-0.259	-14.9542038	-65.8328742	-8.0787078	75.21219666	1.08289062	-88.92881118
4.85	485	0.067	-0.883	-0.26	-14.610429	-66.4058322	-8.59437	75.057498	1.01986524	-89.58771288
4.86	486	0.074	-0.879	-0.258	-14.5531332	-66.5204238	-9.2819196	74.90279934	0.95111028	-90.25234416
4.87	487	0.07	-0.878	-0.261	-14.7823164	-66.3485364	-10.1986524	74.75383026	0.89381448	-90.91697544
4.88	488	0.083	-0.883	-0.274	-14.2093584	-65.8328742	-11.45916	74.60486118	0.84797784	-91.58160672
4.89	489	0.077	-0.887	-0.282	-13.5218088	-65.4890994	-12.2613012	74.46735126	0.81360036	-92.246238
4.9	490	0.071	-0.888	-0.283	-12.7196676	-65.030733	-13.2926256	74.32984134	0.78495246	-92.9051397
4.91	491	0.074	-0.888	-0.288	-12.2040054	-64.1140002	-14.2093584	74.20952016	0.76776372	-93.55831182
4.92	492	0.078	-0.889	-0.291	-12.1467096	-63.1972674	-15.0114996	74.0834694	0.75630456	-94.20575436
4.93	493	0.085	-0.888	-0.29	-12.4331886	-62.9107884	-16.042824	73.95741864	0.75630456	-94.8531969
4.94	494	0.096	-0.886	-0.291	-13.0634424	-62.8534926	-16.9595568	73.8256383	0.75630456	-95.50063944
4.95	495	0.111	-0.88	-0.289	-14.4958374	-64.5723666	-17.5898106	73.67093964	0.7734933	-96.1710003
4.96	496	0.12	-0.867	-0.277	-16.2720072	-67.3798608	-17.6471064	73.50478182	0.76776372	-96.86427948
4.97	497	0.131	-0.849	-0.266	-18.1054728	-70.3592424	-17.761698	73.32143526	0.75630456	-97.58620656
4.98	498	0.137	-0.831	-0.262	-20.4546006	-73.1667366	-18.048177	73.1094408	0.73911582	-98.33678154
4.99	499	0.139	-0.807	-0.271	-22.345362	-76.203414	-18.2200644	72.88598718	0.70473834	-99.121734
5	500	0.148	-0.792	-0.286	-24.350715	-79.2400914	-18.907614	72.63388566	0.68182002	-99.92960478
5.01	501	0.149	-0.788	-0.281	-26.642547	-80.500599	-19.5951636	72.3645954	0.64744254	-100.7546643
5.02	502	0.158	-0.753	-0.282	-28.6479	-82.1048814	-20.340009	72.07238682	0.61306506	-101.6026421
5.03	503	0.119	-0.749	-0.24	-29.8511118	-86.0009958	-21.2567418	71.77444866	0.56722842	-102.4849975
5.04	504	0.128	-0.73	-0.236	-33.1169724	-88.80849	-22.631841	71.43640344	0.52139178	-103.3960007
5.05	505	0.136	-0.732	-0.274	-36.5547204	-90.5846598	-24.5798982	71.06971032	0.49274388	-104.3356518
5.06	506	0.105	-0.745	-0.32	-37.9298196	-92.4754212	-26.4133638	70.68582846	0.46409598	-105.2924917
5.07	507	0.102	-0.736	-0.335	-39.4195104	-92.7046044	-28.5906042	70.29048744	0.44690724	-106.2607907
5.08	508	0.115	-0.722	-0.289	-41.9978214	-93.2775624	-30.7105488	69.86649852	0.43544808	-107.2462784
5.09	509	0.112	-0.665	-0.256	-41.9405256	-92.9910834	-33.1169724	69.44823918	0.44690724	-108.2317662
5.1	510	0.079	-0.613	-0.249	-40.966497	-89.4387438	-36.4401288	69.02997984	0.49274388	-109.2000652
5.11	511	0.036	-0.596	-0.226	-39.8778768	-84.6831924	-39.820581	68.62890924	0.57868758	-110.1339868
5.12	512	0.004	-0.593	-0.227	-40.680018	-82.5632478	-42.5707794	68.21637948	0.6875496	-111.0564491
5.13	513	-0.019	-0.583	-0.295	-38.961144	-81.3027402	-43.258329	67.81530888	0.8021412	-111.9731819
5.14	514	-0.027	-0.585	-0.378	-35.9244666	-76.1461182	-42.7999626	67.44861576	0.92246238	-112.8440781
5.15	515	-0.02	-0.582	-0.377	-34.8358464	-70.2446508	-41.7113424	67.08192264	1.04851314	-113.6519489
5.16	516	-0.021	-0.572	-0.358	-31.5699858	-62.5670136	-39.1330314	66.75533658	1.1745639	-114.3796055
5.17	517	-0.029	-0.557	-0.351	-27.501984	-57.6395748	-36.4974246	66.46885758	1.29488508	-115.055696
5.18	518	-0.03	-0.548	-0.323	-24.4653066	-54.43101	-34.8358464	66.21102648	1.40947668	-115.6916794
5.19	519	-0.023	-0.544	-0.314	-22.6891368	-50.8786704	-33.231564	65.97038412	1.5183387	-116.2932853
5.2	520	-0.016	-0.555	-0.335	-20.626488	-47.3263308	-32.1429438	65.74120092	1.62147114	-116.8605137
5.21	521	-0.011	-0.565	-0.344	-18.2773602	-46.409598	-30.8824362	65.5463952	1.72460358	-117.4105534
5.22	522	0.004	-0.58	-0.363	-16.8449652	-49.0452048	-30.2521824	65.36304864	1.8048177	-117.9835114
5.23	523	0.039	-0.589	-0.392	-16.3865988	-52.139178	-28.934379	65.18543166	1.8621135	-118.5736581
5.24	524	0.072	-0.587	-0.429	-16.329303	-58.3844202	-26.6998428	65.0020851	1.87357266	-119.2211006
5.25	525	0.093	-0.544	-0.389	-14.32395	-65.603691	-24.2361234	64.83592728	1.83919518	-119.9143798
5.26	526	0.097	-0.476	-0.259	-9.1100322	-68.3538894	-22.7464326	64.72706526	1.77044022	-120.6305773
5.27	527	0.116	-0.407	-0.23	-8.021412	-67.036086	-22.91832	64.63539198	1.70741484	-121.3353157
5.28	528	0.153	-0.344	-0.233	-5.3858052	-64.6296624	-24.0069402	64.56663702	1.66730778	-122.0228653
5.29	529	0.178	-0.321	-0.283	-0.2291832	-59.3584488	-25.0382646	64.55517786	1.65584862	-122.6645782
5.3	530	0.185	-0.296	-0.307	4.6409598	-55.7488134	-25.6685184	64.57809618	1.67303736	-123.2776433
5.31	531	0.173	-0.285	-0.268	9.9694692	-55.9207008	-25.3247436	64.66976946	1.67876694	-123.8907083
5.32	532	0.168	-0.274	-0.25	12.5477802	-59.4730404	-22.8037284	64.78436106	1.65011904	-124.5266917
5.33	533	0.134	-0.291	-0.291	16.6730778	-60.8481396	-17.8189938	64.9447893	1.5756345	-125.1512159
5.34	534	0.083	-0.321	-0.313	20.8556712	-63.9994086	-10.6570188	65.1453246	1.42093584	-125.7757402
5.35	535	0.039	-0.34	-0.288	26.356068	-66.749607	-3.3231564	65.4031557	1.19748222	-126.3945348
5.36	536	0.032	-0.313	-0.254	29.8511118	-67.9528188	2.6356068	65.70109386	0.9167328	-127.0018703
5.37	537	0.043	-0.269	-0.256	36.4974246	-68.3538894	6.1879464	66.07351656	0.60733548	-127.5977466
5.38	538	0.084	-0.264	-0.278	43.8885828	-63.884817	8.7662574	66.52615338	0.29220858	-128.1477863
5.39	539	0.154	-0.256	-0.345	47.4982182	-61.1346186	10.9434978	67.01316768	-0.01718874	-128.6634485
5.4	540	0.163	-0.241	-0.347	54.6028974	-56.436363	11.745639	67.55747778	-0.30939732	-129.133274
5.41	541	0.176	-0.259	-0.393	61.020027	-52.6548402	13.9228794	68.18773158	-0.61306506	-129.5629925
5.42	542	0.135	-0.264	-0.379	66.0047616	-52.6548402	17.9908812	68.87528118	-0.95111028	-129.9812519
5.43	543	0.087	-0.266	-0.37	69.6716928	-53.858052	23.0329116	69.59720826	-1.32926256	-130.3995112
5.44	544	0.062	-0.288	-0.38	75.343977	-58.6136034	30.4240698	70.38216072	-1.78762896	-130.8406889
5.45	545	0.112	-0.241	-0.366	82.792431	-67.2079734	38.2735944	71.23586814	-2.33193906	-131.3448919
5.46	546	0.219	-0.175	-0.317	92.246238	-75.1720896	44.8626114	72.20989674	-2.95646328	-131.9121203
5.47	547	0.318	-0.103	-0.231	99.981171	-79.0109082	48.8733174	73.26986904	-3.62109456	-132.5137262
5.48	548	0.312	-0.044	-0.132	112.3570638	-82.2767688	50.420304	74.46735126	-4.297185	-133.1554392
5.49	549	0.232	-0.009	-0.083	122.9567868	-82.1048814	49.6181628	75.77942508	-4.94462754	-133.8086113
5.5	550	0.165	0.093	-0.268	131.3219736	-83.8810512	50.3630082	77.16598344	-5.5863405	-134.4961609
5.51	551	0.065	0.196	-0.3	138.369357	-74.198061	53.1132066	78.64421508	-6.22232388	-135.0977668
5.52	552	-0.161	0.037	-0.3	153.6673356	-72.765666	50.420304	80.28287496	-6.81247062	-135.7051023
5.53	553	-0.264	-0.575	0.037	180.3098826	-79.641162	40.680018	82.21374342	-7.29375534	-136.4155702
5.54	554	-0.283	-0.966	0.233	198.1288764	-89.8971102	48.0138804	84.34514718	-7.82660628	-137.2291706
5.55	555	-0.344	-1.462	0.566	226.8340722	-98.262297	56.2644756	86.79167784	-8.41102344	-138.1459034
5.56	556	-0.923	-2.863	0.704	299.8862172	-102.1584114	55.9207008	90.00024264	-8.94387438	-139.1142024
5.57	557	-1.133	-3.999	1.753	479.9096208	-146.1615858	-24.7517856	95.09956884	-8.55999252	-140.5007608
5.58	558	-0.282	-3.923	2.177	148.5107136	-67.9528188	27.1582092	96.72103998	-8.72615034	-141.1883104
5.59	559	-0.652	-2.157	0.884	177.7315716	-80.2714158	58.8427866	98.66909718	-9.167328	-142.0420178
5.6	560	-0.669	-2.998	2.517	383.5380852	-75.057498	59.3584488	102.7027215	-9.5683986	-142.8384294
5.61	561	-0.672	-2.994	2.227	291.1772556	-50.3057124	58.728195	105.7623172	-9.98092836	-143.4343057
5.62	562	-0.566	-2.019	1.77	223.0525494	-26.5279554	47.9565846	108.0942563	-10.34762148	-143.7952693
5.63	563	-0.52	-1.369	1.193	228.4383546	-12.7196676	57.009321	110.4663024	-10.8289062	-144.0760187
5.64	564	-0.466	-1.1	0.839	205.2335556	-3.7815228	73.5105114	112.6091653	-11.48207832	-144.3624977
5.65	565	-0.284	-0.829	0.61	202.5979488	-6.9327918	76.8336678	114.7462987	-12.1467096	-144.7120021
5.66	566	-0.082	-0.634	0.517	200.9363706	-9.453807	67.8382272	116.8662433	-12.70247886	-145.0729656
5.67	567	0.015	-0.469	0.462	201.5093286	-10.6570188	51.1651494	118.9804583	-13.09781988	-145.3823629
5.68	568	0.042	-0.506	0.614	199.8477504	-14.0947668	34.8931422	121.071755	-13.3212735	-145.6516532
5.69	569	0.083	-0.414	0.724	184.4351802	-17.8189938	24.1215318	123.008353	-13.42440594	-145.9094843
5.7	570	0.119	-0.3	0.827	180.3098826	-18.4492476	17.8189938	124.9220327	-13.45305384	-146.1443971
5.71	571	0.123	-0.236	0.868	176.6429514	-14.1520626	16.2720072	126.7612279	-13.49889048	-146.3334732
5.72	572	0.103	-0.245	0.654	178.189938	-7.1046792	22.631841	128.6118823	-13.63067082	-146.5053606
5.73	573	0.105	-0.205	0.515	179.7942204	-5.7868758	28.361421	130.4854549	-13.81401738	-146.7058959
5.74	574	0.023	-0.161	0.508	187.5864492	-9.6829902	29.793816	132.4507009	-13.96871604	-146.9522678
5.75	575	-0.035	-0.085	0.657	240.8715432	-24.8663772	27.8457588	134.9946344	-13.99736394	-147.3017722
5.76	576	-0.163	-0.323	0.717	220.0731678	-19.480572	41.4248634	137.332303	-14.14633302	-147.7085724
5.77	577	-0.247	-0.226	1.006	267.6286818	-11.4018642	59.7595194	140.1741747	-14.45573034	-148.2070459
5.78	578	-0.521	0.101	1.655	508.5575208	-49.1025006	73.1667366	145.5485207	-14.5244853	-149.0263758
5.79	579	-0.562	-0.455	1.551	442.6673508	-60.1032942	61.9940556	150.2467763	-14.35832748	-149.8170578
5.8	580	-0.146	0.075	1.483	212.280939	18.3919518	51.7954032	152.4985013	-14.77658682	-150.1780214
5.81	581	-0.29	-0.216	0.966	82.505952	17.9335854	32.7159018	153.3865862	-15.09171372	-150.3842863
5.82	582	-0.345	-0.193	0.832	86.6885454	6.016059	30.1375908	154.3319669	-15.28078986	-150.6306582
5.83	583	-0.26	-0.217	0.981	85.5999252	2.4637194	22.9756158	155.2486997	-15.40684062	-150.8197343
5.84	584	-0.193	-0.252	0.931	91.0430262	7.6776372	21.8869956	156.2169987	-15.57299844	-150.9858922
5.85	585	-0.3	-0.149	1.17	110.8100772	9.5111028	19.7097552	157.3972922	-15.74488584	-151.1291317
5.86	586	-0.307	-0.143	1.342	130.634424	8.7089616	19.3659804	158.7552026	-15.90531408	-151.2666416
5.87	587	-0.374	-0.268	1.656	148.9117842	11.6310474	21.0848544	160.3079188	-16.1001198	-151.4156107
5.88	588	-0.393	-0.213	1.531	153.1516734	14.3812458	20.3973048	161.9007421	-16.31211426	-151.5531206
5.89	589	-0.342	-0.219	1.465	153.7246314	10.7143146	17.9908812	163.4935653	-16.48400166	-151.6849009
5.9	590	-0.282	-0.19	1.395	149.1409674	5.9587632	16.9595568	165.0520111	-16.59286368	-151.8224108
5.91	591	-0.358	-0.122	1.415	140.7184848	2.291832	16.8449652	166.5245131	-16.6730778	-151.9713799
5.92	592	-0.385	-0.111	1.574	131.8949316	2.4637194	17.0168526	167.9053419	-16.74756234	-152.1260786
5.93	593	-0.375	-0.127	1.744	120.7795464	0.8021412	18.621135	169.1830382	-16.79912856	-152.297966
5.94	594	-0.454	-0.069	1.899	106.6274838	-2.1199446	18.2773602	170.3174951	-16.82204688	-152.475583
5.95	595	-0.443	-0.074	1.901	90.5846598	-3.4950438	17.3606274	171.2915237	-16.82204688	-152.6531999
5.96	596	-0.42	-0.183	1.626	71.4478626	0.8021412	14.037471	172.0535578	-16.85642436	-152.7907099
5.97	597	-0.301	-0.078	1.218	61.4783934	3.6669312	12.3758928	172.7124595	-16.91944974	-152.9053015
5.98	598	-0.23	-0.072	0.984	60.9627312	3.437748	12.3758928	173.3656316	-16.97101596	-153.0256226
5.99	599	-0.266	-0.046	1.069	66.0047616	-1.4896908	12.0894138	174.07037	-16.97674554	-153.1459438
6	600	-0.218	-0.06	1.257	63.2545632	-9.3392154	10.8289062	174.75219	-16.89653142	-153.2605354
6.01	601	-0.285	-0.023	1.382	51.7381074	-15.183387	8.3651868	175.3079593	-16.7590215	-153.3464791
6.02	602	-0.307	-0.022	1.366	38.6173692	-15.9282324	5.2712136	175.720489	-16.61005242	-153.4095045
6.03	603	-0.278	-0.049	1.277	28.6479	-15.6417534	1.8334656	176.0184272	-16.45535376	-153.4324228
6.04	604	-0.257	-0.047	1.171	19.7097552	-14.037471	-0.3437748	176.2189625	-16.31784384	-153.4324228
6.05	605	-0.247	0.014	1.092	11.0007936	-13.1207382	-1.6042824	176.3507428	-16.16887476	-153.4266932
6.06	606	-0.217	-0.048	0.923	4.6409598	-10.313244	-1.5469866	176.3965795	-16.06574232	-153.4152341
6.07	607	-0.17	-0.052	0.768	1.0886202	-6.4171296	-0.9740286	176.4080386	-16.00271694	-153.4037749
6.08	608	-0.155	-0.065	0.601	2.0626488	-2.1772404	2.1772404	176.4366865	-15.97979862	-153.4266932
6.09	609	-0.185	0.014	0.586	5.9587632	-3.2085648	0.5156622	176.4997119	-15.95115072	-153.4324228
6.1	610	-0.176	-0.008	0.64	5.443101	-8.0787078	-0.2291832	176.5684669	-15.87666618	-153.4381524
6.11	611	-0.183	-0.005	0.746	3.8388186	-11.0580894	0	176.6085739	-15.76780416	-153.4381524
6.12	612	-0.198	0.007	0.828	-2.005353	-12.8342592	-0.1718874	176.5913852	-15.6417534	-153.443882
6.13	613	-0.23	-0.01	0.901	-10.0840608	-11.8602306	-0.4010706	176.4882527	-15.52143222	-153.443882
6.14	614	-0.222	0	0.965	-18.8503182	-9.3965112	-0.8021412	176.2991766	-15.42402936	-153.4381524
6.15	615	-0.234	0	0.985	-25.8977016	-6.4171296	-0.9740286	176.0528047	-15.34954482	-153.4381524
6.16	616	-0.225	0.014	0.963	-30.653253	-4.870143	-1.0886202	175.7376778	-15.2979786	-153.4324228
6.17	617	-0.222	0.001	0.903	-31.1116194	-3.0366774	-1.2032118	175.4225509	-15.25787154	-153.4266932
6.18	618	-0.225	-0.014	0.914	-27.1582092	-3.437748	-1.2605076	175.1418014	-15.22349406	-153.4152341
6.19	619	-0.197	-0.031	0.947	-23.4339822	-3.437748	-2.1772404	174.9011591	-15.183387	-153.3980453
6.2	620	-0.189	-0.067	0.966	-17.1314442	-3.7815228	-1.718874	174.7292717	-15.10890246	-153.3865862
6.21	621	-0.194	-0.048	0.988	-12.3758928	-4.9847346	-1.145916	174.6032209	-15.05733624	-153.375127
6.22	622	-0.207	-0.049	1.041	-9.453807	-3.6096354	-1.7761698	174.5000885	-15.01722918	-153.3636679
6.23	623	-0.219	-0.049	1.079	-7.1046792	-1.2605076	-2.578311	174.4256039	-15.00004044	-153.33502
6.24	624	-0.234	-0.056	1.09	-4.3544808	0	-3.2085648	174.3683081	-15.00004044	-153.3063721
6.25	625	-0.224	-0.057	1.064	-1.2605076	0.4010706	-3.5523396	174.3740377	-14.87398968	-153.2719946
6.26	626	-0.211	-0.072	0.93	1.4896908	-1.8907614	-3.0939732	174.3854969	-14.85107136	-153.2433467
6.27	627	-0.216	-0.061	0.818	5.9587632	-2.9793816	-2.8074942	174.4370631	-14.82242346	-153.2146988
6.28	628	-0.193	-0.081	0.886	11.3445684	-7.161975	-2.005353	174.5516547	-14.74793892	-153.19751
6.29	629	-0.206	-0.053	1.018	11.45916	-9.3392154	-1.6042824	174.6662463	-14.65626564	-153.1860509
6.3	630	-0.226	-0.043	1.132	7.7922288	-9.2819196	-1.6042824	174.75219	-14.54167404	-153.1803213
6.31	631	-0.219	-0.043	1.187	3.3804522	-8.1932994	-1.6615782	174.7865675	-14.46145992	-153.1631326
6.32	632	-0.234	-0.046	1.23	2.1772404	-8.307891	-2.1199446	174.8037562	-14.37551622	-153.1459438
6.33	633	-0.215	-0.037	1.229	2.86479	-11.5164558	-2.2345362	174.8324041	-14.26092462	-153.1344847
6.34	634	-0.247	-0.012	1.213	4.7555514	-16.1001198	-2.005353	174.8782408	-14.10049638	-153.1230255
6.35	635	-0.214	-0.042	1.155	5.6149884	-19.767051	-1.3750992	174.9469957	-13.88850192	-153.1230255
6.36	636	-0.211	-0.014	1.087	9.0527364	-20.9702628	-1.4896908	175.0443986	-13.68223704	-153.1172959
6.37	637	-0.19	-0.018	1.022	10.599723	-18.7357266	-0.859437	175.1532606	-13.49889048	-153.1172959
6.38	638	-0.184	-0.015	0.981	10.599723	-16.8449652	-0.6875496	175.2621226	-13.33273266	-153.1172959
6.39	639	-0.209	0.032	0.957	8.2505952	-15.3552744	0.1718874	175.3537959	-13.178034	-153.1287551
6.4	640	-0.186	0.057	0.956	5.72958	-12.3758928	0.4010706	175.4397396	-13.01760576	-153.1459438
6.41	641	-0.239	-0.099	0.93	-1.718874	-8.9381448	1.0313244	175.4282804	-12.93166206	-153.1631326
6.42	642	-0.214	-0.008	0.956	-7.1046792	-5.2139178	0.7448454	175.3537959	-12.88009584	-153.1688621
6.43	643	-0.104	-0.052	0.848	-10.599723	0.4583664	-4.3544808	175.2392043	-12.88009584	-153.1287551
6.44	644	-0.152	-0.14	0.837	-1.2605076	-9.9121734	-22.5745452	175.1761789	-12.76550424	-152.9053015
6.45	645	-0.28	-0.111	0.898	6.589017	-2.9220858	-7.6776372	175.1418014	-12.7483155	-152.8078986
6.46	646	-0.131	-0.153	0.883	8.59437	-5.443101	-7.734933	175.2105564	-12.68529012	-152.7334141
6.47	647	-0.15	-0.167	0.864	7.8495246	-5.9014674	-2.4064236	175.2907705	-12.62799432	-152.7104957
6.48	648	-0.164	-0.082	0.888	5.443101	-6.2452422	0.2291832	175.3480663	-12.56496894	-152.7162253
6.49	649	-0.155	-0.087	0.944	3.5523396	-4.8128472	0.7448454	175.3881734	-12.5191323	-152.7276845
6.5	650	-0.157	-0.073	0.992	0.6302538	-2.86479	0.859437	175.3366072	-12.2899491	-152.7162253
6.51	651	-0.17	-0.095	1.038	2.5210152	-0.3437748	0.9167328	175.3652551	-12.2899491	-152.7276845
6.52	652	-0.167	-0.084	1.036	7.5630456	3.4950438	0.4010706	175.4397396	-12.32432658	-152.7276845
6.53	653	-0.168	-0.064	1.036	10.6570188	5.156622	0.1145916	175.5486016	-12.3758928	-152.7276845
6.54	654	-0.16	-0.055	1.031	12.2040054	5.5003968	-0.3437748	175.6689228	-12.4331886	-152.7219549
6.55	655	-0.167	-0.049	1.018	12.2613012	4.7555514	-0.7448454	175.8064327	-12.45610692	-152.7104957
6.56	656	-0.168	-0.034	1.013	12.2613012	3.151269	-0.9167328	175.9267539	-12.48475482	-152.6990366
6.57	657	-0.165	-0.025	0.994	10.7143146	1.0313244	-1.145916	176.0298863	-12.49621398	-152.6875774
6.58	658	-0.168	-0.016	0.984	8.7662574	-0.9167328	-1.2032118	176.1215596	-12.48475482	-152.6703887
6.59	659	-0.17	-0.012	0.973	7.1046792	-2.291832	-1.0886202	176.1903146	-12.4618365	-152.6589295
6.6	660	-0.165	-0.017	0.962	4.7555514	-2.86479	-1.0886202	176.2819879	-12.39308154	-152.6589295
6.61	661	-0.169	-0.015	0.96	3.3804522	-2.7501984	-0.9740286	176.3163653	-12.36443364	-152.6531999
6.62	662	-0.172	-0.02	0.96	1.7761698	-2.5210152	-1.0313244	176.3278245	-12.34151532	-152.6417408
6.63	663	-0.166	-0.018	0.964	0.8021412	-1.6615782	-0.8021412	176.3392837	-12.32432658	-152.6302816
6.64	664	-0.171	-0.02	0.967	-0.286479	-1.0313244	-0.7448454	176.3335541	-12.31286742	-152.624552
6.65	665	-0.172	-0.02	0.976	-0.4583664	-0.2291832	-0.6302538	176.6085739	-12.0034701	-152.6761183
6.66	666	-0.174	-0.019	0.988	-0.1145916	0.9740286	-0.6302538	176.6085739	-12.00919968	-152.6703887
6.67	667	-0.177	-0.019	1	0.6302538	2.291832	-0.5156622	176.6143035	-12.032118	-152.6646591
6.68	668	-0.178	-0.016	1.012	1.9480572	3.8388186	-0.4583664	176.6314922	-12.07222506	-152.6589295
6.69	669	-0.18	-0.012	1.019	2.86479	4.870143	-0.3437748	176.6601401	-12.1180617	-152.6531999
6.7	670	-0.179	-0.013	1.025	3.7815228	5.0993262	-0.2291832	176.7288951	-12.13525044	-152.6589295
6.71	671	-0.179	-0.011	1.026	4.3544808	4.7555514	-0.2291832	176.7747317	-12.18108708	-152.6531999
6.72	672	-0.18	-0.008	1.024	4.5263682	4.1252976	-0.1145916	176.8205684	-12.22692372	-152.6474704
6.73	673	-0.18	-0.01	1.019	4.6982556	3.151269	-0.0572958	176.866405	-12.25557162	-152.6474704
6.74	674	-0.18	-0.008	1.011	4.583664	2.0626488	0	176.9122417	-12.27848994	-152.6474704
6.75	675	-0.179	-0.005	1.001	4.2398892	1.0886202	0	177.0268333	-12.2326533	-152.6589295
6.76	676	-0.175	-0.003	0.992	3.7815228	0	0	177.0669403	-12.2326533	-152.6589295
6.77	677	-0.175	-0.005	0.983	3.3231564	-0.6875496	0	177.1013178	-12.22692372	-152.6589295
6.78	678	-0.173	-0.006	0.978	2.86479	-1.2605076	0	177.1299657	-12.20973498	-152.6589295
6.79	679	-0.173	-0.007	0.974	2.8074942	-1.718874	0	177.1586136	-12.19827582	-152.6646591
6.8	680	-0.174	-0.009	0.97	2.7501984	-1.9480572	0.0572958	177.2388277	-12.1180617	-152.6761183
6.81	681	-0.173	-0.011	0.97	2.7501984	-2.1772404	0.0572958	177.2674756	-12.09514338	-152.6761183
6.82	682	-0.172	-0.011	0.972	2.9220858	-2.1772404	0.1145916	177.3018531	-12.07222506	-152.6761183
6.83	683	-0.172	-0.011	0.977	3.151269	-2.1772404	0.1145916	177.330501	-12.04930674	-152.6761183
6.84	684	-0.171	-0.012	0.983	3.3804522	-2.1199446	0.1718874	177.3706081	-12.032118	-152.6818478
6.85	685	-0.171	-0.01	0.987	3.3804522	-1.9480572	0.1145916	177.4450926	-11.95190388	-152.693307
6.86	686	-0.171	-0.009	0.995	3.3231564	-1.8907614	0.1145916	177.4794701	-11.93471514	-152.693307
6.87	687	-0.171	-0.009	1.002	2.9793816	-1.718874	0.0572958	177.5138476	-11.9175264	-152.693307
6.88	688	-0.172	-0.006	1.007	2.578311	-1.4896908	0.1145916	177.5367659	-11.90033766	-152.693307
6.89	689	-0.172	-0.006	1.013	2.1199446	-1.0886202	0	177.5596842	-11.89460808	-152.693307
6.9	690	-0.174	-0.007	1.018	1.718874	-0.4583664	0	177.7086533	-11.7169911	-152.7219549
6.91	691	-0.168	-0.007	1.021	1.0886202	0	0	177.7201124	-11.7169911	-152.7219549
6.92	692	-0.17	-0.006	1.022	0.1718874	0.7448454	-0.0572958	177.7201124	-11.72845026	-152.7219549
6.93	693	-0.172	-0.008	1.019	-0.1718874	1.145916	-0.1718874	177.7201124	-11.73990942	-152.7162253
6.94	694	-0.17	-0.012	1.015	-0.5156622	1.5469866	-0.1718874	177.7143829	-11.75136858	-152.7162253
6.95	695	-0.169	-0.012	1.012	-0.9167328	1.9480572	-0.286479	177.7487603	-11.67688404	-152.7219549
6.96	696	-0.169	-0.013	1.014	-1.145916	2.4637194	-0.3437748	177.7373012	-11.69980236	-152.7162253
6.97	697	-0.17	-0.015	1.017	-1.3750992	2.9220858	-0.4583664	177.7201124	-11.72845026	-152.7162253
6.98	698	-0.17	-0.015	1.018	-1.6615782	3.3804522	-0.5156622	177.7029237	-11.76282774	-152.7104957
6.99	699	-0.171	-0.014	1.013	-1.6615782	3.6669312	-0.5156622	177.685735	-11.79720522	-152.7047662
7	700	-0.17	-0.012	1.004	-1.2032118	4.0680018	-0.572958	177.6971941	-11.78574606	-152.6990366
7.01	701	-0.171	-0.012	0.999	-0.8021412	4.4690724	-0.6875496	177.685735	-11.8315827	-152.693307
7.02	702	-0.176	-0.011	1.003	-0.6875496	4.583664	-0.6875496	177.6800054	-11.87741934	-152.6875774
7.03	703	-0.177	-0.008	1.004	-0.8021412	4.4690724	-0.572958	177.6685462	-11.9175264	-152.6818478
7.04	704	-0.179	-0.007	1.004	-1.0886202	3.9534102	-0.6875496	177.6513575	-11.95763346	-152.6703887
7.05	705	-0.18	-0.008	0.999	-1.3750992	3.3231564	-0.6302538	177.6742758	-11.9461743	-152.6703887
7.06	706	-0.18	-0.007	0.996	-1.432395	2.7501984	-0.5156622	177.6570871	-11.9748222	-152.6646591
7.07	707	-0.18	-0.008	0.991	-1.432395	2.291832	-0.4583664	177.6456279	-11.99774052	-152.6589295
7.08	708	-0.179	-0.008	0.999	-1.3750992	2.1772404	-0.4583664	177.6284392	-12.01492926	-152.6589295
7.09	709	-0.179	-0.006	1.004	-1.3178034	2.3491278	-0.4010706	177.6112504	-12.03784758	-152.6531999
7.1	710	-0.181	-0.007	0.998	-1.2032118	2.4064236	-0.4010706	177.6513575	-11.99774052	-152.6589295
7.11	711	-0.181	-0.007	0.996	-1.0313244	1.9480572	-0.3437748	177.6398983	-12.02065884	-152.6531999
7.12	712	-0.182	-0.007	0.995	-0.9740286	1.6042824	-0.286479	177.6284392	-12.03784758	-152.6531999
7.13	713	-0.182	-0.008	0.994	-0.7448454	1.3178034	-0.2291832	177.6227096	-12.04930674	-152.6474704
7.14	714	-0.182	-0.007	0.997	-0.5156622	1.2032118	-0.286479	177.61698	-12.0607659	-152.6417408
7.15	715	-0.183	-0.006	0.998	-0.2291832	1.0313244	-0.2291832	177.7716787	-11.90606724	-152.6761183
7.16	716	-0.183	-0.006	0.997	0	0.6875496	-0.1718874	177.7716787	-11.91179682	-152.6703887
7.17	717	-0.182	-0.006	0.998	0.0572958	0.3437748	-0.1718874	177.7716787	-11.9175264	-152.6703887
7.18	718	-0.182	-0.005	1	0.2291832	0.1718874	-0.1718874	177.7716787	-11.9175264	-152.6703887
7.19	719	-0.181	-0.005	1	0.4010706	0	-0.1718874	177.7774082	-11.9175264	-152.6646591
7.2	720	-0.18	-0.004	1.001	0.572958	-0.1718874	-0.2291832	177.9206477	-11.76282774	-152.693307
7.21	721	-0.181	-0.005	1.001	0.8021412	-0.4010706	-0.1718874	177.9321069	-11.75709816	-152.693307
7.22	722	-0.178	-0.005	1	0.8021412	-0.5156622	-0.1718874	177.9378365	-11.75136858	-152.6875774
7.23	723	-0.178	-0.005	0.998	1.0313244	-0.7448454	-0.1718874	177.9492956	-11.745639	-152.6875774
7.24	724	-0.177	-0.005	0.998	1.2605076	-0.6875496	-0.1145916	177.9607548	-11.73990942	-152.6875774
7.25	725	-0.178	-0.006	0.996	1.3178034	-0.6875496	-0.1718874	178.0409689	-11.64250656	-152.6990366
7.26	726	-0.177	-0.006	0.996	1.3750992	-0.8021412	-0.0572958	178.0524281	-11.63677698	-152.693307
7.27	727	-0.177	-0.006	0.997	1.3750992	-0.8021412	-0.1718874	178.0696168	-11.6310474	-152.693307
7.28	728	-0.176	-0.006	1	1.3178034	-0.6302538	-0.1145916	178.081076	-11.62531782	-152.693307
7.29	729	-0.176	-0.006	1.004	0.859437	-0.286479	-0.1718874	178.0925351	-11.61958824	-152.6875774
7.3	730	-0.177	-0.006	1.006	0.286479	0	-0.1718874	178.2930704	-11.3445684	-152.7276845
7.31	731	-0.178	-0.006	1.007	0	0.0572958	-0.1718874	178.2873409	-11.3445684	-152.7219549
7.32	732	-0.176	-0.006	1.007	-0.3437748	0.286479	-0.1718874	178.2873409	-11.35029798	-152.7219549
7.33	733	-0.176	-0.006	1.008	-0.572958	0.4010706	-0.2291832	178.2816113	-11.35602756	-152.7219549
7.34	734	-0.177	-0.005	1.009	-0.572958	0.5156622	-0.2291832	178.2701521	-11.35602756	-152.7162253
7.35	735	-0.177	-0.007	1.01	-0.572958	0.572958	-0.1718874	178.3331775	-11.26435428	-152.7276845
7.36	736	-0.177	-0.006	1.007	-0.7448454	0.6875496	-0.1718874	178.3274479	-11.27008386	-152.7276845
7.37	737	-0.177	-0.007	1.005	-0.572958	0.8021412	-0.2291832	178.3217183	-11.28154302	-152.7219549
7.38	738	-0.177	-0.007	1.003	-0.5156622	0.9167328	-0.2291832	178.3102592	-11.2872726	-152.7219549
7.39	739	-0.178	-0.007	1.001	-0.4583664	0.9167328	-0.2291832	178.3045296	-11.29873176	-152.7162253
7.4	740	-0.177	-0.007	1	-0.5156622	0.9740286	-0.2291832	178.3560958	-11.2299768	-152.7276845
7.41	741	-0.178	-0.006	1	-0.4583664	0.9740286	-0.2291832	178.3503662	-11.23570638	-152.7219549
7.42	742	-0.178	-0.006	1.001	-0.5156622	1.0313244	-0.286479	178.3446367	-11.24716554	-152.7219549
7.43	743	-0.177	-0.005	1.002	-0.572958	0.9167328	-0.2291832	178.3331775	-11.2586247	-152.7162253
7.44	744	-0.178	-0.005	1.001	-0.572958	0.9167328	-0.2291832	178.3274479	-11.26435428	-152.7162253
7.45	745	-0.178	-0.005	1.001	-0.6302538	0.9167328	-0.3437748	178.3732846	-11.21278806	-152.7219549
7.46	746	-0.178	-0.005	0.999	-0.5156622	0.9740286	-0.286479	178.367555	-11.22424722	-152.7162253
7.47	747	-0.179	-0.005	0.997	-0.4010706	0.9740286	-0.286479	178.3618254	-11.23570638	-152.7162253
7.48	748	-0.179	-0.005	0.998	-0.286479	0.9740286	-0.286479	178.3618254	-11.24143596	-152.7104957
7.49	749	-0.18	-0.004	1	-0.3437748	0.9740286	-0.286479	178.3560958	-11.25289512	-152.7104957
7.5	750	-0.18	-0.004	1.003	-0.5156622	0.9740286	-0.3437748	178.4019325	-11.2013289	-152.7162253
7.51	751	-0.179	-0.005	1	-0.5156622	0.7448454	-0.286479	178.3962029	-11.21278806	-152.7104957
7.52	752	-0.18	-0.005	1.001	-0.5156622	0.6302538	-0.286479	178.3904733	-11.21851764	-152.7104957
7.53	753	-0.181	-0.005	1.002	-0.4583664	0.6302538	-0.286479	178.3847437	-11.22424722	-152.7047662
7.54	754	-0.18	-0.004	1.003	-0.3437748	0.5156622	-0.286479	178.3790141	-11.2299768	-152.7047662
7.55	755	-0.18	-0.004	1.003	-0.286479	0.4010706	-0.286479	178.4592283	-11.1440331	-152.7162253
7.56	756	-0.179	-0.004	1.004	-0.286479	0.286479	-0.286479	178.4592283	-11.14976268	-152.7104957
7.57	757	-0.179	-0.004	1.003	-0.2291832	0.1145916	-0.2291832	178.4534987	-11.14976268	-152.7104957
7.58	758	-0.179	-0.005	1.003	-0.1718874	0.1145916	-0.2291832	178.4477691	-11.14976268	-152.7047662
7.59	759	-0.179	-0.003	1.002	-0.0572958	0.0572958	-0.2291832	178.4477691	-11.15549226	-152.7047662
7.6	760	-0.178	-0.004	0.999	0.1145916	0	-0.286479	178.6081973	-10.98360486	-152.7334141
7.61	761	-0.179	-0.004	0.997	0.286479	-0.0572958	-0.2291832	178.6139269	-10.98360486	-152.7276845
7.62	762	-0.178	-0.005	0.997	0.2291832	-0.286479	-0.1718874	178.6139269	-10.97787528	-152.7276845
7.63	763	-0.18	-0.004	1.001	0.0572958	-0.5156622	-0.2291832	178.6139269	-10.9721457	-152.7219549
7.64	764	-0.179	-0.004	1.002	-0.286479	-0.6875496	-0.2291832	178.6139269	-10.96641612	-152.7219549
7.65	765	-0.178	-0.004	1.001	-0.4010706	-0.859437	-0.2291832	178.6425748	-10.90912032	-152.7276845
7.66	766	-0.176	-0.005	1.001	-0.4583664	-0.8021412	-0.2291832	178.6368452	-10.90339074	-152.7219549
7.67	767	-0.176	-0.006	1	-0.4010706	-0.859437	-0.2291832	178.6311157	-10.89193158	-152.7219549
7.68	768	-0.176	-0.005	1.013	-0.6302538	-0.6302538	-0.1718874	178.6253861	-10.886202	-152.7162253
7.69	769	-0.176	-0.004	1.013	-0.8021412	-0.3437748	-0.2291832	178.6196565	-10.88047242	-152.7162253
7.7	770	-0.177	-0.005	1.009	-0.6875496	-0.3437748	-0.2291832	178.6597636	-10.81171746	-152.7219549
7.71	771	-0.176	-0.005	1.003	-0.4583664	-0.3437748	-0.2291832	178.654034	-10.80598788	-152.7162253
7.72	772	-0.176	-0.005	1.001	-0.3437748	-0.286479	-0.286479	178.6483044	-10.80598788	-152.7162253
7.73	773	-0.176	-0.005	1.001	-0.3437748	-0.0572958	-0.2291832	178.6425748	-10.80598788	-152.7104957
7.74	774	-0.176	-0.004	1.001	-0.3437748	0	-0.286479	178.6368452	-10.80598788	-152.7104957
7.75	775	-0.177	-0.004	1.002	-0.3437748	0	-0.2291832	178.694141	-10.73150334	-152.7162253
7.76	776	-0.177	-0.004	1.001	-0.5156622	0.1718874	-0.2291832	178.6884115	-10.73723292	-152.7162253
7.77	777	-0.176	-0.003	1.001	-0.4010706	0.1145916	-0.2291832	178.6826819	-10.73723292	-152.7104957
7.78	778	-0.176	-0.004	1	-0.4010706	0.1718874	-0.2291832	178.6769523	-10.73723292	-152.7104957
7.79	779	-0.175	-0.004	0.999	-0.4010706	0.1718874	-0.3437748	178.6712227	-10.73723292	-152.7047662
7.8	780	-0.175	-0.003	1	-0.3437748	0	-0.286479	178.7457073	-10.66847796	-152.7162253
7.81	781	-0.177	-0.004	0.998	-0.2291832	-0.0572958	-0.2291832	178.7399777	-10.66847796	-152.7162253
7.82	782	-0.176	-0.003	0.997	0	-0.1718874	-0.2291832	178.7399777	-10.66274838	-152.7104957
7.83	783	-0.174	-0.003	0.997	0.0572958	-0.286479	-0.286479	178.7399777	-10.66274838	-152.7104957
7.84	784	-0.175	-0.004	0.998	0	-0.286479	-0.286479	178.7399777	-10.6570188	-152.7047662
7.85	785	-0.175	-0.004	0.999	0.0572958	-0.1718874	-0.286479	178.8144622	-10.57680468	-152.7162253
7.86	786	-0.174	-0.003	1.001	0.0572958	0	-0.286479	178.8144622	-10.57680468	-152.7104957
7.87	787	-0.175	-0.004	1.002	0	0	-0.286479	178.8144622	-10.57680468	-152.7104957
7.88	788	-0.175	-0.003	1.001	0	0.3437748	-0.3437748	178.8144622	-10.57680468	-152.7047662
7.89	789	-0.175	-0.004	1.002	-0.1145916	0.6302538	-0.3437748	178.8144622	-10.58253426	-152.7047662
7.9	790	-0.175	-0.005	1.002	-0.1145916	0.7448454	-0.3437748	178.8373805	-10.55388636	-152.7047662
7.91	791	-0.175	-0.003	1.002	-0.1718874	0.859437	-0.4010706	178.831651	-10.55961594	-152.6990366
7.92	792	-0.175	-0.003	1.005	-0.286479	0.8021412	-0.3437748	178.831651	-10.5710751	-152.693307
7.93	793	-0.175	-0.003	1.007	-0.4583664	0.8021412	-0.3437748	178.8259214	-10.57680468	-152.693307
7.94	794	-0.176	-0.003	1.007	-0.572958	0.7448454	-0.3437748	178.8144622	-10.58253426	-152.6875774
7.95	795	-0.175	-0.002	1.005	-0.4583664	0.6875496	-0.286479	178.8488397	-10.55388636	-152.693307
7.96	796	-0.175	-0.003	1.004	-0.3437748	0.7448454	-0.3437748	178.8431101	-10.55961594	-152.6875774
7.97	797	-0.175	-0.003	1.003	-0.2291832	0.7448454	-0.286479	178.8431101	-10.5710751	-152.6875774
7.98	798	-0.175	-0.002	1.004	-0.1718874	0.6302538	-0.286479	178.8373805	-10.57680468	-152.6818478
7.99	799	-0.176	-0.003	1.004	-0.2291832	0.6875496	-0.286479	178.8373805	-10.58253426	-152.6761183
8	800	-0.176	-0.003	1.004	-0.1718874	0.5156622	-0.286479	178.8889468	-10.53096804	-152.6875774
8.01	801	-0.175	-0.003	1.002	-0.286479	0.4583664	-0.286479	178.8832172	-10.53096804	-152.6818478
8.02	802	-0.175	-0.003	1.001	-0.286479	0.4010706	-0.286479	178.8832172	-10.53669762	-152.6818478
8.03	803	-0.175	-0.003	1.002	-0.4010706	0.5156622	-0.286479	178.8774876	-10.5424272	-152.6761183
8.04	804	-0.176	-0.002	1.002	-0.4010706	0.5156622	-0.286479	178.871758	-10.54815678	-152.6761183
8.05	805	-0.175	-0.003	1.001	-0.4010706	0.572958	-0.286479	178.9004059	-10.51950888	-152.6761183
8.06	806	-0.176	-0.002	1	-0.4583664	0.6302538	-0.3437748	178.8946763	-10.52523846	-152.6703887
8.07	807	-0.175	-0.003	1	-0.3437748	0.6302538	-0.3437748	178.8889468	-10.53096804	-152.6703887
8.08	808	-0.176	-0.003	1.001	-0.286479	0.572958	-0.286479	178.8832172	-10.53669762	-152.6646591
8.09	809	-0.175	-0.003	1.001	-0.4010706	0.572958	-0.3437748	178.8774876	-10.5424272	-152.6646591
8.1	810	-0.175	-0.003	1.003	-0.4010706	0.4010706	-0.2291832	178.940513	-10.45075392	-152.6703887
8.11	811	-0.176	-0.003	1.003	-0.1718874	-0.0572958	0.0572958	178.940513	-10.45075392	-152.6703887
8.12	812	-0.175	-0.002	1.004	-0.286479	0	0	178.9347834	-10.45075392	-152.6761183
8.13	813	-0.176	-0.002	1.003	-0.3437748	0.1145916	0	178.9347834	-10.45075392	-152.6761183
8.14	814	-0.176	-0.003	1.003	-0.3437748	0.0572958	0	178.9290538	-10.4564835	-152.6703887
8.15	815	-0.176	-0.003	1.003	-0.4010706	0.0572958	0	178.9748905	-10.40491728	-152.6818478
8.16	816	-0.176	-0.003	1.004	-0.3437748	0	0	178.9691609	-10.40491728	-152.6818478
8.17	817	-0.176	-0.003	1.004	-0.6302538	0	0	178.9634313	-10.40491728	-152.6818478
8.18	818	-0.175	-0.004	1.003	-0.572958	0.1145916	0	178.9577017	-10.40491728	-152.6818478
8.19	819	-0.175	-0.003	1	-0.4010706	0.1718874	0	178.9519721	-10.41064686	-152.6818478
8.2	820	-0.174	-0.003	0.999	-0.2291832	0.1718874	0	179.0035384	-10.34762148	-152.693307
8.21	821	-0.176	-0.002	1.002	-0.0572958	0	0	179.0035384	-10.34762148	-152.693307
8.22	822	-0.177	-0.002	1.004	-0.1145916	-0.1145916	0	179.0035384	-10.34762148	-152.693307
8.23	823	-0.176	-0.002	1.004	-0.1718874	-0.1145916	0	178.9978088	-10.34762148	-152.693307
8.24	824	-0.176	-0.002	1.002	-0.1718874	-0.1718874	0	178.9978088	-10.3418919	-152.693307
8.25	825	-0.175	-0.004	1	-0.0572958	-0.2291832	0	179.0321863	-10.29605526	-152.6990366
8.26	826	-0.174	-0.003	1.002	-0.1145916	-0.1718874	0.0572958	179.0321863	-10.29605526	-152.6990366
8.27	827	-0.175	-0.003	1.01	-0.2291832	-0.0572958	0	179.0264567	-10.29605526	-152.6990366
8.28	828	-0.176	-0.003	1.009	-0.1718874	-0.286479	0.0572958	179.0264567	-10.29032568	-152.7047662
8.29	829	-0.176	-0.003	1.006	-0.1718874	-0.286479	0.0572958	179.0264567	-10.29032568	-152.7047662
8.3	830	-0.175	-0.004	1.007	-0.1145916	-0.2291832	0.0572958	179.049375	-10.25021862	-152.7104957
8.31	831	-0.175	-0.005	1.003	-0.0572958	-0.1145916	0	179.049375	-10.25021862	-152.7104957
8.32	832	-0.175	-0.004	1	0.1145916	0	0.0572958	179.049375	-10.25021862	-152.7104957
8.33	833	-0.175	-0.003	0.998	0.1145916	0.1145916	0	179.049375	-10.25021862	-152.7104957
8.34	834	-0.175	-0.003	1	0.2291832	0	0	179.0551046	-10.25021862	-152.7104957
8.35	835	-0.176	-0.004	1	0.2291832	0.1145916	0	179.0894821	-10.21011156	-152.7162253
8.36	836	-0.175	-0.004	0.999	0.1718874	0.1145916	0	179.0894821	-10.21011156	-152.7162253
8.37	837	-0.175	-0.003	0.998	0.1718874	0.1145916	0	179.0894821	-10.21584114	-152.7162253
8.38	838	-0.175	-0.003	0.999	0.1718874	0.1718874	0	179.0952116	-10.21584114	-152.7162253
8.39	839	-0.177	-0.003	1	0.1718874	0.1718874	0	179.0952116	-10.21584114	-152.7162253
8.4	840	-0.176	-0.003	1.001	0.1718874	0.1145916	0	179.11813	-10.19292282	-152.7162253
8.41	841	-0.175	-0.002	1.002	0.1145916	0.0572958	0	179.11813	-10.19292282	-152.7162253
8.42	842	-0.176	-0.003	1.003	0.1718874	0.1718874	0	179.1238595	-10.19292282	-152.7162253
8.43	843	-0.175	-0.003	1.005	0.1145916	0.1718874	-0.0572958	179.1238595	-10.1986524	-152.7162253
8.44	844	-0.176	-0.004	1.004	0.1718874	0.1145916	0	179.1238595	-10.1986524	-152.7162253
8.45	845	-0.175	-0.003	1.003	0.1718874	0.0572958	-0.0572958	179.1525074	-10.16427492	-152.7219549
8.46	846	-0.177	-0.002	1.002	0.2291832	0	-0.0572958	179.158237	-10.16427492	-152.7219549
8.47	847	-0.176	-0.002	1.002	0.286479	0.0572958	0	179.158237	-10.1700045	-152.7219549
8.48	848	-0.175	-0.003	1.001	0.3437748	0.1718874	0	179.1639666	-10.1700045	-152.7219549
8.49	849	-0.176	-0.001	1	0.3437748	0.2291832	-0.0572958	179.1696962	-10.1700045	-152.7219549
8.5	850	-0.175	-0.003	1.002	0.4583664	0	0	179.1926145	-10.1413566	-152.7219549
8.51	851	-0.176	-0.003	1.003	0.4010706	0	0	179.1926145	-10.1413566	-152.7219549
8.52	852	-0.175	-0.003	1.003	0.2291832	0	0	179.1983441	-10.1413566	-152.7219549
8.53	853	-0.176	-0.003	1.002	0.1718874	0	0	179.1983441	-10.14708618	-152.7219549
8.54	854	-0.176	-0.003	1.002	0.1145916	0	0	179.2040737	-10.14708618	-152.7219549
8.55	855	-0.176	-0.003	1.003	0.2291832	-0.0572958	-0.0572958	179.2212624	-10.12989744	-152.7276845
8.56	856	-0.176	-0.003	1.003	0.2291832	-0.1145916	0	179.2212624	-10.12989744	-152.7276845
8.57	857	-0.176	-0.003	1.004	0.1145916	0.0572958	0	179.2212624	-10.12989744	-152.7276845
8.58	858	-0.176	-0.003	1.005	0	0.1145916	0	179.2212624	-10.12989744	-152.7276845
8.59	859	-0.176	-0.002	1.006	0.0572958	0.1145916	0	179.226992	-10.12989744	-152.7276845
8.6	860	-0.176	-0.001	1.003	0	0.1145916	0	179.2613695	-10.12416786	-152.7334141
8.61	861	-0.175	-0.001	0.999	0.0572958	0	-0.1145916	179.2613695	-10.12416786	-152.7276845
8.62	862	-0.176	-0.002	0.999	0	-0.1145916	-0.0572958	179.2613695	-10.12416786	-152.7276845
8.63	863	-0.176	-0.002	1	0	-0.1145916	0	179.2613695	-10.12416786	-152.7276845
8.64	864	-0.176	-0.002	1.002	0	-0.1145916	-0.0572958	179.2613695	-10.11843828	-152.7276845
8.65	865	-0.176	-0.002	1.004	0.0572958	-0.1145916	0	179.2842878	-10.09551996	-152.7334141
8.66	866	-0.175	-0.001	1.004	0	0	-0.0572958	179.2842878	-10.09551996	-152.7276845
8.67	867	-0.176	-0.002	1.003	0	0	0	179.2842878	-10.09551996	-152.7276845
8.68	868	-0.176	-0.001	1.002	0	0.0572958	-0.0572958	179.2842878	-10.10124954	-152.7276845
8.69	869	-0.176	-0.001	1.002	0	0	0	179.2842878	-10.10124954	-152.7276845
8.7	870	-0.176	-0.001	1.001	0	0	0	179.3243948	-10.06687206	-152.7334141
8.71	871	-0.176	-0.002	1.003	0	0	0	179.3243948	-10.06687206	-152.7334141
8.72	872	-0.176	-0.001	1.003	0	0	0	179.3243948	-10.06687206	-152.7334141
8.73	873	-0.176	-0.001	1.004	0	0.0572958	0	179.3243948	-10.06687206	-152.7334141
8.74	874	-0.176	-0.002	1.002	-0.0572958	0.0572958	0	179.3243948	-10.06687206	-152.7334141
8.75	875	-0.177	-0.001	1	-0.0572958	0	0	179.3473132	-10.06114248	-152.7391436
8.76	876	-0.177	-0.002	1.001	0	0	0	179.3473132	-10.06114248	-152.7391436
8.77	877	-0.176	-0.002	1	0	0	0	179.3473132	-10.06114248	-152.7391436
8.78	878	-0.175	-0.002	0.999	0	0	-0.0572958	179.3473132	-10.06114248	-152.7391436
8.79	879	-0.176	-0.002	0.999	0.1718874	0	0	179.3530427	-10.06114248	-152.7391436
8.8	880	-0.176	-0.002	1.001	0.1718874	0.1145916	-0.0572958	179.3530427	-10.06114248	-152.7391436
8.81	881	-0.178	-0.002	1.002	0.1718874	0.1145916	-0.0572958	179.3530427	-10.06687206	-152.7391436
8.82	882	-0.176	-0.001	1.004	0	-0.0572958	-0.0572958	179.3530427	-10.06114248	-152.7334141
8.83	883	-0.177	0	1.002	-0.0572958	-0.1718874	-0.0572958	179.3530427	-10.06114248	-152.7334141
8.84	884	-0.176	-0.002	0.999	-0.1718874	-0.1145916	0	179.3530427	-10.06114248	-152.7334141
8.85	885	-0.175	-0.002	1.002	-0.1718874	-0.0572958	0.0572958	179.3530427	-10.04968332	-152.7391436
8.86	886	-0.175	-0.002	1.01	-0.4010706	0	0	179.3473132	-10.04968332	-152.7391436
8.87	887	-0.177	-0.001	1.013	-0.4583664	0	0	179.3473132	-10.04968332	-152.7391436
