TimeStamp(s)	FrameCounter	AccX	AccY	AccZ	GyrX	GyrY	GyrZ	EulerX	EulerY	EulerZ
0.01	1	-0.003	-0.999	0.125	0.572958	0.572958	0	96.99605982	0.57868758	-23.05010034
0.02	2	0	-1	0.123	1.432395	0.286479	-0.1145916	97.01324856	0.57868758	-23.04437076
0.03	3	0.002	-1	0.121	1.8334656	-0.1145916	-0.1145916	97.0304373	0.57868758	-23.05010034
0.04	4	0	-0.995	0.125	2.1772404	-0.6875496	-0.1145916	97.05335562	0.58441716	-23.05582992
0.05	5	-0.004	-0.993	0.13	3.0366774	-1.0313244	-0.2291832	97.07627394	0.57868758	-23.0615595
0.06	6	-0.007	-0.995	0.135	3.3804522	-1.145916	-0.286479	97.11065142	0.58441716	-23.07301866
0.07	7	-0.008	-0.999	0.138	3.3804522	-1.0886202	-0.2291832	97.1450289	0.58441716	-23.07874824
0.08	8	-0.009	-1.001	0.141	2.6929026	-0.859437	-0.2291832	97.1736768	0.59014674	-23.0902074
0.09	9	-0.008	-1.004	0.139	2.005353	-0.7448454	-0.2291832	97.19086554	0.59587632	-23.09593698
0.1	10	-0.007	-1.005	0.137	1.3750992	-0.6875496	-0.1718874	97.17940638	0.56722842	-23.0902074
0.11	11	-0.003	-1.007	0.136	0.859437	-0.859437	-0.1718874	97.18513596	0.572958	-23.10166656
0.12	12	-0.003	-1.007	0.13	0.572958	-1.145916	-0.1145916	97.19659512	0.57868758	-23.11312572
0.13	13	-0.001	-1.004	0.126	0.5156622	-1.3750992	-0.0572958	97.2023247	0.57868758	-23.12458488
0.14	14	-0.001	-1.001	0.125	0.572958	-1.145916	0	97.20805428	0.57868758	-23.13604404
0.15	15	-0.004	-0.996	0.127	1.2032118	-1.0313244	0.0572958	97.19086554	0.56149884	-23.13604404
0.16	16	-0.008	-0.997	0.13	1.8334656	-0.9167328	0	97.20805428	0.56149884	-23.1475032
0.17	17	-0.01	-0.998	0.136	2.0626488	-0.9167328	0	97.2309726	0.56149884	-23.15323278
0.18	18	-0.01	-0.999	0.14	1.8907614	-1.145916	0	97.24816134	0.56722842	-23.16469194
0.19	19	-0.007	-0.998	0.143	1.4896908	-1.3178034	0.0572958	97.26535008	0.56722842	-23.18188068
0.2	20	-0.006	-0.999	0.145	1.145916	-1.3750992	0	97.26535008	0.55003968	-23.18761026
0.21	21	-0.006	-1	0.141	0.8021412	-1.2605076	0.0572958	97.27680924	0.55003968	-23.19906942
0.22	22	-0.009	-0.999	0.135	0.7448454	-1.2605076	0	97.28253882	0.55003968	-23.21052858
0.23	23	-0.01	-1	0.132	0.8021412	-1.3750992	-0.0572958	97.29399798	0.55576926	-23.22198774
0.24	24	-0.012	-1	0.128	0.6875496	-1.5469866	-0.1145916	97.29972756	0.56149884	-23.23917648
0.25	25	-0.011	-0.998	0.125	0.6875496	-1.4896908	-0.1718874	97.26535008	0.53285094	-23.24490606
0.26	26	-0.008	-0.996	0.125	1.145916	-1.432395	-0.286479	97.27680924	0.53858052	-23.25636522
0.27	27	-0.005	-0.999	0.128	1.718874	-1.2032118	-0.1718874	97.29399798	0.5443101	-23.26782438
0.28	28	-0.004	-1.003	0.133	2.3491278	-1.2032118	-0.0572958	97.3169163	0.5443101	-23.27928354
0.29	29	-0.008	-1.005	0.142	2.4064236	-1.0886202	0	97.3455642	0.5443101	-23.2907427
0.3	30	-0.012	-1.008	0.151	2.1199446	-0.9740286	0	97.36848252	0.5156622	-23.28501312
0.31	31	-0.016	-1.006	0.155	1.6042824	-1.2032118	0	97.38567126	0.52139178	-23.29647228
0.32	32	-0.013	-1.004	0.154	1.3750992	-2.0626488	-0.1145916	97.39713042	0.52139178	-23.3193906
0.33	33	-0.007	-1.002	0.151	0.6302538	-2.4637194	0	97.40858958	0.52712136	-23.34230892
0.34	34	0	-0.997	0.146	0.0572958	-2.4637194	-0.0572958	97.40858958	0.53285094	-23.36522724
0.35	35	0.002	-0.996	0.142	-0.4010706	-2.1772404	-0.0572958	97.38567126	0.53285094	-23.38814556
0.36	36	0	-0.995	0.137	-0.5156622	-1.9480572	-0.1145916	97.37994168	0.53858052	-23.4053343
0.37	37	-0.002	-0.993	0.134	-0.1718874	-1.718874	-0.2291832	97.37994168	0.5443101	-23.42252304
0.38	38	-0.008	-0.994	0.134	0.286479	-1.6615782	-0.2291832	97.38567126	0.55003968	-23.43971178
0.39	39	-0.012	-0.994	0.137	0.9167328	-1.5469866	-0.0572958	97.39140084	0.55003968	-23.45690052
0.4	40	-0.012	-0.996	0.142	1.2605076	-1.3750992	0	97.39140084	0.52139178	-23.45690052
0.41	41	-0.012	-0.999	0.145	1.2605076	-1.0313244	0.1145916	97.40286	0.52139178	-23.46835968
0.42	42	-0.01	-1	0.146	1.0313244	-0.572958	0.0572958	97.41431916	0.52139178	-23.47408926
0.43	43	-0.008	-1.003	0.146	0.8021412	-0.1718874	0.0572958	97.42577832	0.52139178	-23.47408926
0.44	44	-0.008	-1.006	0.144	0.3437748	0	0.0572958	97.42577832	0.52139178	-23.47408926
0.45	45	-0.009	-1.007	0.138	-0.0572958	-0.0572958	0.1145916	97.25389092	0.3724227	-23.42252304
0.46	46	-0.009	-1.006	0.136	-0.2291832	-0.1145916	0	97.25389092	0.3724227	-23.42252304
0.47	47	-0.01	-1.003	0.136	-0.1145916	-0.4583664	-0.0572958	97.25389092	0.3724227	-23.42825262
0.48	48	-0.012	-1	0.137	0.9167328	-0.6875496	-0.1145916	97.2596205	0.37815228	-23.4339822
0.49	49	-0.012	-0.998	0.141	1.3750992	-0.9167328	-0.0572958	97.27680924	0.37815228	-23.44544136
0.5	50	-0.009	-0.996	0.144	1.3750992	-1.0886202	0	97.28253882	0.36096354	-23.45117094
0.51	51	-0.007	-0.995	0.145	1.0313244	-1.0886202	0	97.29399798	0.36096354	-23.45690052
0.52	52	-0.003	-0.994	0.143	0.6302538	-0.7448454	0	97.29972756	0.36669312	-23.46835968
0.53	53	-0.002	-0.995	0.144	0.4583664	-0.5156622	0.0572958	97.30545714	0.36669312	-23.47408926
0.54	54	-0.001	-1	0.141	0.3437748	-0.4583664	0.2291832	97.31118672	0.36096354	-23.47981884
0.55	55	-0.002	-1	0.14	0.3437748	-0.3437748	0.286479	97.28253882	0.34950438	-23.47981884
0.56	56	-0.004	-0.999	0.141	0.3437748	-0.286479	0.1718874	97.28253882	0.34950438	-23.47981884
0.57	57	-0.007	-0.999	0.141	0.286479	0	0.0572958	97.2882684	0.3437748	-23.47981884
0.58	58	-0.01	-1	0.141	0.1145916	0.2291832	0	97.2882684	0.3437748	-23.47981884
0.59	59	-0.011	-1.003	0.142	-0.1718874	0.6302538	-0.1145916	97.2882684	0.3437748	-23.47408926
0.6	60	-0.011	-1.003	0.142	-0.286479	0.7448454	-0.1145916	97.25389092	0.30366774	-23.45117094
0.61	61	-0.009	-1.005	0.14	-0.1718874	0.6875496	-0.1145916	97.24816134	0.30366774	-23.44544136
0.62	62	-0.006	-1.005	0.141	-0.286479	0.2291832	-0.1145916	97.24816134	0.30939732	-23.43971178
0.63	63	-0.005	-1.002	0.139	-0.2291832	-0.286479	-0.0572958	97.24243176	0.30939732	-23.44544136
0.64	64	-0.003	-1	0.14	-0.1145916	-1.3750992	-0.0572958	97.24243176	0.30939732	-23.45690052
0.65	65	-0.001	-0.996	0.144	-0.0572958	-2.005353	-0.1145916	97.23670218	0.30939732	-23.47408926
0.66	66	-0.001	-0.996	0.147	-0.1145916	-2.4064236	-0.1718874	97.23670218	0.3151269	-23.49700758
0.67	67	-0.002	-0.996	0.148	-0.4010706	-2.5210152	-0.1718874	97.2309726	0.32085648	-23.5199259
0.68	68	-0.005	-0.997	0.147	-0.572958	-2.3491278	-0.2291832	97.22524302	0.32658606	-23.5485738
0.69	69	-0.006	-1	0.147	-0.6875496	-2.4064236	-0.1145916	97.21951344	0.33231564	-23.57149212
0.7	70	-0.006	-1.001	0.146	-0.8021412	-2.4064236	-0.1718874	97.20805428	0.33231564	-23.58868086
0.71	71	-0.005	-1.003	0.144	-0.7448454	-2.578311	-0.0572958	97.2023247	0.33804522	-23.61732876
0.72	72	-0.005	-1.002	0.143	-0.8021412	-2.7501984	0	97.19086554	0.33804522	-23.64024708
0.73	73	-0.005	-0.998	0.143	-0.572958	-2.9220858	-0.0572958	97.18513596	0.3437748	-23.66889498
0.74	74	-0.005	-0.996	0.144	-0.2291832	-3.0939732	-0.1145916	97.18513596	0.34950438	-23.70327246
0.75	75	-0.005	-0.996	0.145	-0.286479	-3.0366774	-0.0572958	97.17940638	0.34950438	-23.73192036
0.76	76	-0.005	-0.997	0.145	-0.4010706	-2.86479	0	97.1736768	0.35523396	-23.76056826
0.77	77	-0.005	-0.996	0.144	-0.5156622	-2.4637194	0	97.1736768	0.36096354	-23.78348658
0.78	78	-0.004	-0.998	0.146	-0.6302538	-1.9480572	0	97.16221764	0.36096354	-23.80067532
0.79	79	-0.004	-1	0.147	-0.8021412	-1.4896908	0.1145916	97.15648806	0.36096354	-23.81786406
0.8	80	-0.009	-1	0.145	-1.145916	-1.3750992	0.0572958	97.13929932	0.3437748	-23.82359364
0.81	81	-0.011	-0.999	0.141	-1.0313244	-1.3750992	-0.0572958	97.13356974	0.3437748	-23.8350528
0.82	82	-0.011	-1	0.141	-0.8021412	-1.5469866	-0.286479	97.12211058	0.34950438	-23.85224154
0.83	83	-0.009	-1.003	0.144	-0.5156622	-1.8907614	-0.3437748	97.116381	0.35523396	-23.86943028
0.84	84	-0.002	-1.003	0.149	-0.2291832	-2.5210152	-0.2291832	97.116381	0.36096354	-23.89807818
0.85	85	0.005	-1.003	0.151	-0.1718874	-3.0939732	-0.0572958	97.116381	0.37815228	-23.92672608
0.86	86	0.007	-0.998	0.149	-0.6875496	-3.0939732	0.1718874	97.11065142	0.37815228	-23.96110356
0.87	87	0.005	-0.993	0.145	-1.0886202	-2.7501984	0.4010706	97.09919226	0.37815228	-23.98975146
0.88	88	-0.001	-0.989	0.141	-1.2605076	-2.1199446	0.6302538	97.0877331	0.3724227	-24.0069402
0.89	89	-0.006	-0.991	0.142	-1.0313244	-1.2605076	0.572958	97.07627394	0.3724227	-24.02412894
0.9	90	-0.012	-0.994	0.141	-0.9167328	-0.1145916	0.2291832	97.0590852	0.32658606	-24.01266978
0.91	91	-0.013	-0.998	0.141	-1.0313244	0.9740286	-0.286479	97.04762604	0.32658606	-24.00121062
0.92	92	-0.014	-1.002	0.138	-1.0886202	1.718874	-0.6302538	97.03616688	0.33231564	-23.98402188
0.93	93	-0.012	-1.002	0.138	-1.2032118	2.1199446	-0.9167328	97.02470772	0.33804522	-23.96110356
0.94	94	-0.007	-0.998	0.139	-1.2032118	2.3491278	-0.9740286	97.01324856	0.3437748	-23.93818524
0.95	95	0.001	-1	0.142	-1.2032118	2.4064236	-0.9167328	96.99605982	0.35523396	-23.91526692
0.96	96	0.013	-1.001	0.144	-1.6042824	2.3491278	-0.6875496	96.98460066	0.36096354	-23.88661902
0.97	97	0.022	-1.006	0.148	-2.1772404	1.0886202	-0.5156622	96.96168234	0.36096354	-23.87515986
0.98	98	0.029	-1.011	0.153	-2.4064236	-0.6302538	-0.6302538	96.93303444	0.3724227	-23.88088944
0.99	99	0.032	-1.017	0.159	-2.6929026	-1.9480572	-1.0886202	96.91011612	0.38388186	-23.90380776
1	100	0.029	-1.024	0.162	-3.8961144	-2.578311	-2.005353	96.87573864	0.41825934	-23.92672608
1.01	101	0.021	-1.029	0.165	-5.6722842	-3.151269	-3.0939732	96.81844284	0.45263682	-23.95537398
1.02	102	0.02	-1.032	0.169	-7.6776372	-3.2658606	-4.5263682	96.73822872	0.50420304	-23.98402188
1.03	103	0.013	-1.041	0.165	-9.7975818	-2.6356068	-6.9900876	96.64082586	0.572958	-24.00121062
1.04	104	0.004	-1.046	0.155	-11.8029348	0.4010706	-9.5111028	96.52050468	0.66463128	-23.98975146
1.05	105	-0.001	-1.032	0.141	-12.318597	6.7609044	-11.8029348	96.39445392	0.7734933	-23.90953734
1.06	106	0.012	-0.997	0.13	-12.318597	14.7250206	-12.4331886	96.26840316	0.87662574	-23.75483868
1.07	107	0.032	-0.962	0.121	-11.8602306	22.1161788	-11.0580894	96.14808198	0.95111028	-23.52565548
1.08	108	0.063	-0.925	0.12	-10.7716104	27.4446882	-8.7662574	96.03921996	1.0026765	-23.25063564
1.09	109	0.091	-0.905	0.121	-9.3965112	30.1375908	-6.1306506	95.94754668	1.02559482	-22.9469679
1.1	110	0.11	-0.901	0.131	-8.1360036	30.7678446	-3.4950438	95.86733256	1.0313244	-22.64902974
1.11	111	0.123	-0.911	0.15	-7.2765666	29.507337	-0.9740286	95.79284802	1.0026765	-22.35682116
1.12	112	0.127	-0.936	0.173	-6.5317212	27.3300966	0	95.72982264	0.96829902	-22.0875309
1.13	113	0.128	-0.963	0.19	-5.443101	25.3820394	-0.286479	95.67252684	0.93965112	-21.84115896
1.14	114	0.118	-0.985	0.207	-4.0680018	23.9496444	-1.9480572	95.63241978	0.92819196	-21.60624618
1.15	115	0.1	-1.001	0.222	-2.6356068	23.9496444	-4.1825934	95.62096062	0.95111028	-21.3713334
1.16	116	0.079	-1.012	0.226	-1.432395	24.9809688	-6.1879464	95.60377188	0.97975818	-21.11923188
1.17	117	0.062	-1.014	0.221	-0.9740286	25.78311	-7.2765666	95.5980423	1.01986524	-20.8556712
1.18	118	0.053	-1.007	0.216	-1.145916	26.642547	-6.875496	95.58658314	1.05424272	-20.59211052
1.19	119	0.056	-1.003	0.211	-2.0626488	27.6165756	-4.583664	95.56366482	1.06570188	-20.31709068
1.2	120	0.063	-1.007	0.203	-3.6669312	28.7624916	-1.8334656	95.5407465	1.0599723	-20.03061168
1.21	121	0.066	-1.015	0.195	-5.3858052	29.507337	0.3437748	95.4834507	1.01986524	-19.74413268
1.22	122	0.067	-1.021	0.187	-6.6463128	30.1948866	1.6615782	95.42042532	0.96256944	-19.4519241
1.23	123	0.07	-1.029	0.189	-7.3911582	30.4813656	2.1772404	95.34594078	0.90527364	-19.15398594
1.24	124	0.073	-1.03	0.185	-7.7922288	30.7678446	1.9480572	95.26572666	0.84797784	-18.85604778
1.25	125	0.076	-1.026	0.18	-7.734933	31.226211	1.3750992	95.19124212	0.8021412	-18.55238004
1.26	126	0.078	-1.018	0.171	-6.875496	31.799169	0.8021412	95.12248716	0.75630456	-18.24298272
1.27	127	0.076	-1.01	0.161	-6.2452422	32.2002396	0.7448454	95.05946178	0.7161975	-17.92785582
1.28	128	0.071	-1	0.154	-6.3598338	33.0596766	1.0313244	94.9964364	0.66463128	-17.60126976
1.29	129	0.065	-0.996	0.153	-6.5317212	34.3201842	1.718874	94.92768144	0.60733548	-17.26895412
1.3	130	0.058	-0.999	0.142	-6.2452422	34.1482968	2.8074942	94.86465606	0.55003968	-16.93663848
1.31	131	0.048	-1.008	0.118	-5.2712136	30.7678446	4.5263682	94.80736026	0.46982556	-16.63870032
1.32	132	0.034	-1.021	0.101	-5.0993262	23.8923486	6.9900876	94.75579404	0.3724227	-16.40951712
1.33	133	0.011	-1.022	0.086	-4.6409598	15.469866	10.1413566	94.70422782	0.25210152	-16.26627762
1.34	134	-0.023	-1.003	0.028	-4.9847346	3.5523396	13.2353298	94.65839118	0.12032118	-16.2433593
1.35	135	-0.069	-0.951	-0.05	-6.7036086	-15.183387	14.2666542	94.57244748	-0.01145916	-16.40378754
1.36	136	-0.112	-0.894	-0.074	-12.4904844	-38.8465524	12.4904844	94.4521263	-0.09167328	-16.79912856
1.37	137	-0.113	-0.852	-0.01	-20.5118964	-50.0765292	7.8495246	94.251591	-0.12032118	-17.29760202
1.38	138	-0.085	-0.859	0.071	-31.7418732	-44.5761324	-0.5156622	93.9364641	-0.07448454	-17.73877968
1.39	139	-0.023	-0.917	0.095	-41.4821592	-27.6738714	-10.3705398	93.51820476	0.04583664	-18.01379952
1.4	140	0.019	-1.008	0.098	-44.9199072	-12.8342592	-17.5898106	93.06556794	0.2291832	-18.1341207
1.41	141	0.02	-1.085	0.114	-38.6173692	-6.589017	-18.9649098	92.67022692	0.41825934	-18.1914165
1.42	142	0.012	-1.124	0.194	-25.78311	-5.156622	-14.896908	92.41239582	0.56722842	-18.24298272
1.43	143	0.015	-1.133	0.279	-13.3499214	-1.3178034	-5.7868758	92.2748859	0.62452422	-18.25444188
1.44	144	-0.018	-1.133	0.307	-2.578311	2.578311	2.6356068	92.246238	0.59587632	-18.22579398
1.45	145	-0.077	-1.135	0.319	2.3491278	3.3804522	9.5111028	92.3035338	0.4870143	-18.19714608
1.46	146	-0.145	-1.11	0.334	3.2658606	3.4950438	14.4385416	92.3321817	0.3437748	-18.16849818
1.47	147	-0.186	-1.071	0.333	1.4896908	3.2085648	17.1314442	92.34937044	0.1718874	-18.13985028
1.48	148	-0.182	-1.04	0.318	-1.718874	1.718874	17.8189938	92.3321817	0	-18.1341207
1.49	149	-0.141	-1.025	0.291	-4.010706	0.0572958	17.6471064	92.29207464	-0.17761698	-18.13985028
1.5	150	-0.08	-1.017	0.259	-4.583664	-2.1199446	17.1314442	92.28061548	-0.35523396	-18.16849818
1.51	151	-0.016	-1.007	0.226	-4.6409598	-5.3858052	16.5011904	92.23477884	-0.5156622	-18.22579398
1.52	152	0.026	-0.987	0.196	-4.4690724	-9.5111028	16.042824	92.1889422	-0.67036086	-18.32892642
1.53	153	0.038	-0.957	0.17	-4.9847346	-13.3499214	15.9855282	92.14310556	-0.81932994	-18.46643634
1.54	154	0.027	-0.917	0.147	-6.4744254	-16.329303	15.6990492	92.08008018	-0.96256944	-18.63832374
1.55	155	-0.002	-0.881	0.13	-8.4224826	-17.9908812	15.2979786	92.01132522	-1.10580894	-18.8216703
1.56	156	-0.043	-0.856	0.119	-10.3705398	-18.334656	14.9542038	91.90819278	-1.24331886	-19.01074644
1.57	157	-0.088	-0.844	0.12	-11.8029348	-17.7044022	14.3812458	91.79933076	-1.3750992	-19.18836342
1.58	158	-0.131	-0.845	0.142	-12.318597	-15.8136408	13.464513	91.67900958	-1.50114996	-19.35452124
1.59	159	-0.165	-0.864	0.166	-12.0894138	-11.4018642	11.745639	91.5586884	-1.61574156	-19.46911284
1.6	160	-0.19	-0.889	0.177	-11.9748222	-5.8441716	9.7975818	91.46701512	-1.74179232	-19.52640864
1.61	161	-0.199	-0.914	0.182	-12.1467096	-1.3178034	7.7922288	91.34096436	-1.82200644	-19.54359738
1.62	162	-0.193	-0.936	0.186	-12.4331886	3.0939732	5.7868758	91.2149136	-1.87930224	-19.51494948
1.63	163	-0.179	-0.948	0.18	-12.032118	6.9900876	4.0680018	91.08886284	-1.92513888	-19.44619452
1.64	164	-0.166	-0.95	0.183	-10.9434978	9.9694692	2.9793816	90.97427124	-1.95951636	-19.34879166
1.65	165	-0.142	-0.948	0.191	-10.0840608	12.7769634	2.6356068	90.89405712	-2.01108258	-19.2227409
1.66	166	-0.116	-0.941	0.197	-8.0787078	15.2979786	2.9793816	90.80238384	-2.05118964	-19.06804224
1.67	167	-0.089	-0.938	0.217	-6.5317212	17.3033316	4.010706	90.7278993	-2.09702628	-18.90188442
1.68	168	-0.061	-0.933	0.23	-6.4744254	18.7357266	4.9274388	90.65341476	-2.15432208	-18.71853786
1.69	169	-0.042	-0.929	0.235	-6.4171296	19.1367972	5.6149884	90.57893022	-2.21734746	-18.52946172
1.7	170	-0.026	-0.932	0.237	-6.4744254	18.1627686	6.1306506	90.53309358	-2.28037284	-18.35184474
1.71	171	-0.016	-0.932	0.24	-6.4744254	15.8136408	6.2452422	90.45860904	-2.3491278	-18.19714608
1.72	172	-0.022	-0.936	0.241	-5.5003968	12.6623718	5.9587632	90.39558366	-2.41215318	-18.0768249
1.73	173	-0.043	-0.934	0.257	-4.7555514	8.8235532	5.5576926	90.34401744	-2.47517856	-17.98515162
1.74	174	-0.072	-0.935	0.275	-4.297185	5.9587632	4.9274388	90.2981808	-2.52674478	-17.92785582
1.75	175	-0.102	-0.934	0.287	-3.724227	3.6669312	3.9534102	90.3841245	-2.60122932	-17.89347834
1.76	176	-0.129	-0.935	0.297	-3.4950438	1.3750992	3.3231564	90.34974702	-2.6356068	-17.8762896
1.77	177	-0.15	-0.948	0.3	-4.010706	0.4583664	3.0366774	90.30391038	-2.6642547	-17.8762896
1.78	178	-0.159	-0.972	0.288	-5.156622	0.2291832	3.0939732	90.25234416	-2.69863218	-17.87056002
1.79	179	-0.17	-0.985	0.276	-6.7609044	0.7448454	3.5523396	90.1835892	-2.73300966	-17.86483044
1.8	180	-0.18	-1.005	0.273	-8.4224826	1.432395	4.3544808	90.16640046	-2.81322378	-17.8476417
1.81	181	-0.186	-1.028	0.277	-10.2559482	2.6356068	5.3285094	90.05753844	-2.87051958	-17.82472338
1.82	182	-0.188	-1.036	0.273	-12.8342592	3.8388186	5.9587632	89.9257581	-2.93354496	-17.78461632
1.83	183	-0.192	-1.038	0.256	-15.2406828	4.0680018	6.302538	89.77105944	-2.99657034	-17.74450926
1.84	184	-0.201	-1.05	0.248	-17.2460358	3.437748	6.6463128	89.59344246	-3.0653253	-17.71586136
1.85	185	-0.213	-1.061	0.255	-18.3919518	3.2085648	6.589017	89.43301422	-3.151269	-17.68148388
1.86	186	-0.23	-1.061	0.238	-17.3606274	1.6042824	5.8441716	89.25539724	-3.21429438	-17.66429514
1.87	187	-0.242	-1.06	0.232	-12.2613012	-0.8021412	4.297185	89.13507606	-3.26013102	-17.6757543
1.88	188	-0.231	-1.106	0.228	-12.1467096	-1.6042824	3.0366774	89.0090253	-3.28877892	-17.69294304
1.89	189	-0.217	-1.146	0.199	-15.1260912	-2.1772404	2.9793816	88.86005622	-3.3231564	-17.71586136
1.9	190	-0.16	-1.221	0.157	-14.7250206	-3.0939732	4.1252976	88.7225463	-3.36326346	-17.74450926
1.91	191	-0.069	-1.299	0.09	-15.8709366	-5.443101	7.3911582	88.56211806	-3.437748	-17.80180506
1.92	192	0.039	-1.334	0	-4.6982556	-17.0168526	15.0687954	88.52774058	-3.59244666	-17.96796288
1.93	193	0.111	-1.306	-0.002	12.5477802	-32.3148312	22.5745452	88.68243924	-3.8101707	-18.28308978
1.94	194	0.176	-1.285	0.085	20.340009	-38.388186	25.9549974	88.91735202	-4.0680018	-18.65551248
1.95	195	0.159	-1.228	0.17	14.610429	-45.4928652	26.642547	89.11215774	-4.31437374	-19.10241972
1.96	196	0.127	-1.187	0.224	10.313244	-58.3844202	25.3820394	89.27258598	-4.56074568	-19.6811073
1.97	197	0.01	-1.149	0.25	11.3445684	-67.4944524	19.6524594	89.45020296	-4.74409224	-20.34573858
1.98	198	-0.18	-1.085	0.089	8.9954406	-55.7488134	9.5111028	89.59344246	-4.82430636	-20.89577826
1.99	199	-0.274	-1.004	0.067	6.7609044	-25.0382646	1.3750992	89.69084532	-4.83003594	-21.14787978
2	200	-0.329	-0.99	0.095	0.572958	-8.2505952	-3.8388186	89.71949322	-4.88160216	-21.20517558
2.01	201	-0.332	-1.027	-0.05	-7.3911582	1.6042824	-7.5630456	89.6392791	-4.80711762	-21.18798684
2.02	202	-0.296	-1.102	-0.184	-8.1360036	13.6364004	-9.453807	89.54760582	-4.71544434	-21.0562065
2.03	203	-0.256	-1.144	-0.23	-4.4690724	14.9542038	-6.589017	89.48458044	-4.65241896	-20.90723742
2.04	204	-0.214	-1.156	-0.264	-1.8334656	10.5424272	-0.2291832	89.45593254	-4.65241896	-20.80410498
2.05	205	-0.164	-1.155	-0.253	-1.3178034	8.2505952	4.297185	89.39863674	-4.70398518	-20.71816128
2.06	206	-0.097	-1.108	-0.211	-2.2345362	7.2192708	5.0993262	89.36998884	-4.7555514	-20.64367674
2.07	207	-0.041	-1.058	-0.197	-3.3804522	6.6463128	2.2345362	89.32988178	-4.77846972	-20.58065136
2.08	208	0.002	-1.006	-0.153	-5.9014674	6.1306506	-2.86479	89.26112682	-4.74982182	-20.51762598
2.09	209	0.025	-0.983	-0.105	-6.2452422	6.7036086	-7.0473834	89.19237186	-4.68106686	-20.4546006
2.1	210	0.018	-1.013	-0.065	-4.297185	6.2452422	-9.6829902	89.1236169	-4.56074568	-20.3973048
2.11	211	-0.02	-1.057	-0.052	-3.5523396	5.5003968	-11.45916	89.08350984	-4.44615408	-20.34573858
2.12	212	-0.057	-1.078	-0.024	-3.7815228	7.9068204	-13.6936962	89.0376732	-4.31437374	-20.27125404
2.13	213	-0.082	-1.078	0.006	-3.2658606	10.4851314	-15.756345	88.99756614	-4.15967508	-20.1681216
2.14	214	-0.1	-1.056	0.002	-2.7501984	12.0894138	-17.4179232	88.95745908	-3.98778768	-20.05353
2.15	215	-0.099	-1.021	-0.003	-1.6615782	15.2406828	-19.5951636	88.92881118	-3.79871154	-19.90456092
2.16	216	-0.096	-0.992	0.025	-0.5156622	20.5691922	-22.8037284	88.90589286	-3.56952834	-19.70402562
2.17	217	-0.087	-0.967	0.041	-1.5469866	25.210152	-25.0955604	88.87151538	-3.3231564	-19.45765368
2.18	218	-0.074	-0.927	0.058	-2.3491278	28.5906042	-26.069589	88.82567874	-3.0653253	-19.17690426
2.19	219	-0.056	-0.883	0.063	-2.9793816	30.939732	-25.9549974	88.77411252	-2.81322378	-18.8789661
2.2	220	-0.032	-0.846	0.048	-3.8388186	33.1169724	-25.0955604	88.7225463	-2.56112226	-18.55238004
2.21	221	-0.009	-0.815	0.037	-4.8128472	34.6066632	-24.2361234	88.65379134	-2.32620948	-18.2200644
2.22	222	0.016	-0.791	0.048	-5.3858052	35.0650296	-23.5485738	88.5793068	-2.0912967	-17.8762896
2.23	223	0.046	-0.779	0.059	-6.0733548	34.1482968	-22.8610242	88.49909268	-1.86784308	-17.54397396
2.24	224	0.067	-0.782	0.066	-6.4171296	31.5699858	-22.4599536	88.41887856	-1.64438946	-17.24030622
2.25	225	0.084	-0.784	0.071	-6.4744254	28.7051958	-22.345362	88.3501236	-1.41520626	-16.96528638
2.26	226	0.092	-0.78	0.065	-6.589017	26.0122932	-22.2880662	88.26990948	-1.19175264	-16.71318486
2.27	227	0.094	-0.77	0.053	-5.9587632	23.8923486	-21.9442914	88.20115452	-0.9740286	-16.48400166
2.28	228	0.098	-0.761	0.052	-4.8128472	21.485925	-21.0848544	88.1495883	-0.76203414	-16.27773678
2.29	229	0.102	-0.763	0.053	-3.5523396	18.048177	-19.5951636	88.10948124	-0.56722842	-16.10584938
2.3	230	0.107	-0.768	0.071	-2.6356068	13.9801752	-17.8762896	88.08656292	-0.3724227	-15.97406904
2.31	231	0.117	-0.77	0.08	-1.0886202	8.4224826	-15.6417534	88.07510376	-0.21772404	-15.8995845
2.32	232	0.128	-0.784	0.091	0	2.291832	-13.5218088	88.06937418	-0.08021412	-15.87666618
2.33	233	0.128	-0.794	0.093	0.4583664	-3.3231564	-12.2040054	88.07510376	0.03437748	-15.91677324
2.34	234	0.126	-0.806	0.086	2.1772404	-9.3965112	-11.2872726	88.09802208	0.1432395	-16.0141761
2.35	235	0.133	-0.831	0.08	3.4950438	-14.896908	-10.599723	88.1495883	0.26929026	-16.16887476
2.36	236	0.138	-0.86	0.065	2.6929026	-17.8762896	-10.1413566	88.1782362	0.3724227	-16.34649174
2.37	237	0.124	-0.874	0.037	1.4896908	-17.9335854	-9.5683986	88.19542494	0.46982556	-16.5298383
2.38	238	0.103	-0.856	0.027	2.578311	-17.475219	-7.6203414	88.22407284	0.5443101	-16.7017257
2.39	239	0.074	-0.833	0.057	7.2765666	-18.2200644	-4.6409598	88.29855738	0.59014674	-16.88507226
2.4	240	0.049	-0.815	0.112	10.7716104	-18.5065434	-1.8334656	88.42460814	0.61306506	-17.06841882
2.41	241	0.029	-0.804	0.181	12.7196676	-19.5951636	0.6875496	88.55638848	0.60733548	-17.25749496
2.42	242	0.021	-0.809	0.282	14.4958374	-23.8350528	3.151269	88.70535756	0.57868758	-17.49240774
2.43	243	0.048	-0.86	0.369	16.5011904	-30.4813656	5.0420304	88.87151538	0.53285094	-17.7903459
2.44	244	0.097	-0.964	0.368	14.610429	-37.4714532	6.0733548	89.02048446	0.47555514	-18.15703902
2.45	245	0.143	-1.072	0.303	11.172681	-43.6021038	7.0473834	89.15799438	0.42398892	-18.5924871
2.46	246	0.168	-1.171	0.238	10.6570188	-46.982556	7.7922288	89.27258598	0.34950438	-19.05658308
2.47	247	0.156	-1.209	0.202	12.9488508	-45.4355694	6.8182002	89.40436632	0.29220858	-19.50349032
2.48	248	0.122	-1.187	0.188	17.761698	-41.1383844	3.6669312	89.58771288	0.26356068	-19.90456092
2.49	249	0.074	-1.154	0.215	23.777757	-36.8411994	0.286479	89.83408482	0.27501984	-20.26552446
2.5	250	0.002	-1.14	0.259	27.0436176	-33.7472262	-2.1199446	90.1262934	0.30366774	-20.5978401
2.51	251	-0.08	-1.14	0.311	25.3820394	-32.1429438	-3.8388186	90.38985408	0.35523396	-20.912967
2.52	252	-0.17	-1.175	0.312	21.9442914	-32.8304934	-6.6463128	90.6133077	0.43544808	-21.23382348
2.53	253	-0.235	-1.305	0.185	23.8350528	-31.0543236	-14.2093584	90.85967964	0.59014674	-21.53749122
2.54	254	-0.23	-1.517	-0.029	35.9817624	-25.3820394	-25.8404058	91.22064318	0.859437	-21.77813358
2.55	255	-0.266	-1.743	-0.171	43.0864416	-44.2896534	-33.804522	91.65609126	1.22040054	-22.2021225
2.56	256	-0.429	-1.878	-0.016	32.3148312	-58.9573782	-46.5814854	91.97694774	1.718874	-22.76362134
2.57	257	-0.55	-1.957	-0.037	9.2246238	-51.852699	-59.874111	92.05716186	2.3491278	-23.25063564
2.58	258	-0.402	-1.649	-0.392	3.0939732	-44.2896534	-56.9520252	92.0743506	2.93927454	-23.6631654
2.59	259	-0.102	-1.29	-0.392	15.6417534	-23.0329116	-40.966497	92.22904926	3.36326346	-23.87515986
2.6	260	0.231	-1.034	-0.451	20.5691922	2.1772404	-19.3659804	92.38374792	3.58671708	-23.85224154
2.61	261	0.469	-1.001	-0.347	29.2781538	8.7089616	2.578311	92.68741566	3.55806918	-23.76629784
2.62	262	0.694	-1.135	-0.305	28.7051958	0.9167328	18.2773602	92.97962424	3.37472262	-23.76056826
2.63	263	0.871	-1.188	-0.251	13.9801752	-5.5003968	25.1528562	93.11713416	3.13408026	-23.82932322
2.64	264	0.824	-1.037	-0.181	2.6929026	-10.8289062	19.8816426	93.14005248	2.94500412	-23.9496444
2.65	265	0.636	-0.936	-0.096	4.870143	-19.9962342	9.2246238	93.1629708	2.9507337	-24.17309802
2.66	266	0.418	-0.982	-0.07	7.5057498	-29.2781538	-0.3437748	93.22599618	2.9793816	-24.45957702
2.67	267	0.228	-1.102	-0.048	6.3598338	-34.4347758	-3.5523396	93.2775624	3.04240698	-24.79762224
2.68	268	0.055	-1.16	0.008	8.021412	-39.0757356	1.145916	93.34631736	3.0653253	-25.1815041
2.69	269	-0.091	-1.111	0.047	14.8396122	-43.2010332	10.1413566	93.4780977	3.00229992	-25.6112226
2.7	270	-0.214	-1.003	0.065	17.9335854	-46.0658232	19.8243468	93.64425552	2.82468294	-26.069589
2.71	271	-0.294	-0.896	0.086	18.8503182	-45.8939358	27.7311672	93.81614292	2.58977016	-26.53941456
2.72	272	-0.341	-0.817	0.096	20.626488	-44.117766	32.8304934	94.01667822	2.30902074	-26.99778096
2.73	273	-0.353	-0.764	0.099	21.4286292	-41.5967508	34.6066632	94.2229431	2.01108258	-27.42749946
2.74	274	-0.327	-0.723	0.095	20.5118964	-36.096354	33.4607472	94.4234784	1.718874	-27.80565174
2.75	275	-0.279	-0.701	0.092	19.5951636	-27.8457588	30.366774	94.6240137	1.42666542	-28.09786032
2.76	276	-0.23	-0.704	0.098	19.5951636	-18.2200644	27.215505	94.81881942	1.1745639	-28.29839562
2.77	277	-0.196	-0.724	0.128	19.4232762	-8.1360036	24.923673	95.01935472	0.93965112	-28.40152806
2.78	278	-0.172	-0.747	0.144	18.334656	2.1199446	23.7204612	95.20270128	0.70473834	-28.39579848
2.79	279	-0.155	-0.752	0.144	16.2720072	11.3445684	22.8037284	95.3688591	0.46409598	-28.3041252
2.8	280	-0.143	-0.753	0.141	13.750992	17.6471064	22.345362	95.5120986	0.21199446	-28.14942654
2.81	281	-0.132	-0.762	0.141	11.6310474	21.3713334	22.4599536	95.6266902	-0.0286479	-27.9603504
2.82	282	-0.123	-0.773	0.156	11.172681	24.6944898	22.4026578	95.7412818	-0.28074942	-27.73689678
2.83	283	-0.12	-0.796	0.188	9.6829902	28.7624916	22.1161788	95.83295508	-0.53858052	-27.47906568
2.84	284	-0.122	-0.81	0.209	5.0993262	34.5493674	20.2827132	95.87306214	-0.77922288	-27.1582092
2.85	285	-0.11	-0.808	0.166	1.0886202	37.4714532	17.18874	95.8845213	-1.00840608	-26.80870482
2.86	286	-0.093	-0.806	0.172	2.7501984	36.382833	13.750992	95.90171004	-1.19175264	-26.46493002
2.87	287	-0.046	-0.813	0.145	0.286479	36.4974246	9.6829902	95.89025088	-1.33499214	-26.11542564
2.88	288	0	-0.827	0.127	-2.4637194	32.2575354	7.1046792	95.8558734	-1.44958374	-25.80602832
2.89	289	0.027	-0.857	0.133	-2.8074942	26.5852512	5.9587632	95.81576634	-1.54125702	-25.5539268
2.9	290	0.046	-0.877	0.185	-1.9480572	23.6631654	5.5003968	95.80430718	-1.61001198	-25.33047318
2.91	291	0.036	-0.893	0.245	-3.724227	22.8037284	4.870143	95.75274096	-1.6902261	-25.11274914
2.92	292	0.006	-0.908	0.286	-7.1046792	26.1841806	3.151269	95.67252684	-1.75325148	-24.86064762
2.93	293	-0.039	-0.938	0.257	-9.6829902	29.6219286	1.3178034	95.55793524	-1.8048177	-24.57416862
2.94	294	-0.101	-0.971	0.184	-8.307891	27.3873924	1.2032118	95.46626196	-1.85065434	-24.30487836
2.95	295	-0.144	-1.003	0.138	-4.6409598	19.3659804	3.4950438	95.40896616	-1.94232762	-24.11007264
2.96	296	-0.172	-1.008	0.126	-2.578311	11.6310474	6.2452422	95.38031826	-2.01681216	-24.00121062
2.97	297	-0.182	-0.988	0.162	-3.3231564	10.4851314	7.5630456	95.3402112	-2.10275586	-23.90953734
2.98	298	-0.196	-0.954	0.208	-5.3858052	13.8082878	7.161975	95.27718582	-2.19442914	-23.777757
2.99	299	-0.208	-0.927	0.278	-7.5057498	19.480572	5.6149884	95.19124212	-2.27464326	-23.59441044
3	300	-0.208	-0.912	0.318	-10.5424272	25.8977016	3.7815228	95.10529842	-2.36631654	-23.34230892
3.01	301	-0.193	-0.914	0.318	-12.318597	30.1948866	1.6615782	94.96205892	-2.41788276	-23.04437076
3.02	302	-0.15	-0.92	0.307	-13.0634424	32.4867186	-1.9480572	94.81308984	-2.4350715	-22.72924386
3.03	303	-0.092	-0.967	0.326	-16.2147114	42.0551172	-8.4797784	94.6240137	-2.40069402	-22.30525494
3.04	304	-0.065	-1.073	0.319	-27.7311672	57.6395748	-15.1260912	94.3088868	-2.30902074	-21.73229694
3.05	305	-0.078	-1.171	0.327	-36.8411994	62.2232388	-16.902261	93.91354578	-2.2058883	-21.1135023
3.06	306	-0.118	-1.17	0.321	-31.5699858	56.0352924	-13.9228794	93.5640414	-2.12567418	-20.55200346
3.07	307	-0.164	-1.11	0.228	-13.464513	43.6593996	-8.4797784	93.40361316	-2.07983754	-20.11655538
3.08	308	-0.155	-1.078	0.092	-3.8388186	27.2728008	-1.3178034	93.35204694	-2.0912967	-19.84726512
3.09	309	-0.086	-1.053	0.045	-12.8342592	15.6990492	3.9534102	93.21453702	-2.14286292	-19.69829604
3.1	310	0.003	-0.966	0	-30.3094782	12.7769634	3.2658606	92.88222138	-2.1772404	-19.57797486
3.11	311	0.002	-0.915	-0.123	-45.83664	6.1306506	-5.6149884	92.41239582	-2.13140376	-19.52067906
3.12	312	-0.02	-0.861	-0.128	-51.4516284	-2.1772404	-13.9228794	91.89100404	-1.99389384	-19.54359738
3.13	313	-0.016	-0.856	0.029	-44.0031744	-5.7868758	-16.4438946	91.4440968	-1.8334656	-19.60089318
3.14	314	-0.036	-0.897	0.35	-31.5699858	11.0007936	-12.4331886	91.12324032	-1.718874	-19.49203116
3.15	315	-0.116	-0.893	0.661	-30.939732	45.7793442	-9.0527364	90.82530216	-1.65584862	-19.04512392
3.16	316	-0.199	-0.884	0.57	-42.1697088	63.4837464	-11.5737516	90.36693576	-1.56417534	-18.4205997
3.17	317	-0.204	-0.883	0.343	-42.7426668	56.2644756	-15.3552744	89.91429894	-1.432395	-17.86483044
3.18	318	-0.133	-0.932	0.34	-38.8465524	51.2224452	-15.8709366	89.50176918	-1.2891555	-17.36635698
3.19	319	-0.068	-1.012	0.259	-49.3889796	46.8679644	-12.2040054	88.9803774	-1.18029348	-16.90799058
3.2	320	-0.057	-1.019	0.207	-64.2285918	33.1169724	-7.8495246	88.33293486	-1.11153852	-16.5871341
3.21	321	-0.032	-0.977	0.269	-67.3798608	23.204799	-5.72958	87.63965568	-1.0599723	-16.36941006
3.22	322	0.035	-0.936	0.298	-67.2652692	19.5951636	-7.8495246	86.95210608	-0.98548776	-16.1860635
3.23	323	0.137	-0.837	0.204	-59.5303362	30.8251404	-11.9175264	86.33904102	-0.859437	-15.89385492
3.24	324	0.21	-0.788	0.237	-47.3263308	45.550161	-17.1314442	85.84629714	-0.67609044	-15.45840684
3.25	325	0.148	-0.736	0.246	-50.1911208	53.7434604	-21.5432208	85.33636452	-0.43544808	-14.9542038
3.26	326	0.014	-0.653	0.199	-55.8061092	58.0406454	-27.2728008	84.76340652	-0.13750992	-14.4098937
3.27	327	-0.095	-0.617	0.126	-54.9466722	58.0979412	-34.4347758	84.1961781	0.23491278	-13.87131318
3.28	328	-0.134	-0.617	0.051	-52.6548402	61.2492102	-37.9298196	83.65759758	0.65317212	-13.31554392
3.29	329	-0.106	-0.662	0.012	-54.5456016	70.8749046	-40.2789474	83.10182832	1.10580894	-12.66810138
3.3	330	-0.077	-0.691	0.073	-58.9000824	75.2293854	-41.8832298	82.51741116	1.58136408	-11.98055178
3.31	331	-0.037	-0.658	0.08	-70.8749046	72.479187	-45.3782736	81.80694324	2.09702628	-11.33883882
3.32	332	-0.042	-0.619	0.005	-74.3126526	70.3019466	-47.3836266	81.06782742	2.64133638	-10.72004418
3.33	333	-0.086	-0.599	0.037	-73.625103	71.7916374	-50.0192334	80.34017076	3.22002396	-10.10697912
3.34	334	-0.127	-0.574	0.099	-73.7969904	70.8176088	-51.1078536	79.61824368	3.81590028	-9.50537322
3.35	335	-0.147	-0.558	0.097	-76.5471888	72.0781164	-50.133825	78.88485744	4.40031744	-8.89803774
3.36	336	-0.15	-0.519	0.078	-77.635809	76.8336678	-48.8160216	78.14001204	5.00192334	-8.2505952
3.37	337	-0.191	-0.468	0.151	-74.6564274	78.8963166	-48.3576552	77.42954412	5.60352924	-7.58596392
3.38	338	-0.218	-0.42	0.19	-74.1407652	76.203414	-47.9565846	76.73053536	6.21086472	-6.95571012
3.39	339	-0.245	-0.367	0.18	-72.1354122	71.2759752	-48.0711762	76.05444492	6.81247062	-6.38275212
3.4	340	-0.235	-0.336	0.163	-67.895523	69.327918	-49.6181628	75.4299207	7.42553568	-5.83271244
3.41	341	-0.209	-0.32	0.183	-63.4264506	63.4837464	-51.2224452	74.84550354	8.05578948	-5.35142772
3.42	342	-0.097	-0.31	0.187	-58.728195	60.3897732	-52.4829528	74.30119344	8.69177286	-4.91025006
3.43	343	0.017	-0.305	0.196	-51.0505578	54.144531	-51.5089242	73.83709746	9.3105675	-4.53209778
3.44	344	0.117	-0.301	0.196	-47.0398518	44.117766	-49.2170922	73.40164938	9.88925508	-4.24561878
3.45	345	0.18	-0.314	0.164	-49.2170922	35.7525792	-46.0658232	72.94328298	10.42210602	-4.0393539
3.46	346	0.208	-0.303	0.152	-57.1812084	33.3461556	-43.8885828	72.3932433	10.92057948	-3.85027776
3.47	347	0.199	-0.277	0.11	-66.3485364	36.2109456	-44.2323576	71.75153034	11.43624168	-3.64401288
3.48	348	0.163	-0.242	0.004	-72.479187	45.2063862	-47.2117392	71.06971032	12.0034701	-3.36326346
3.49	349	0.144	-0.211	-0.081	-73.911582	66.9214944	-53.3996856	70.40507904	12.69674928	-2.89916748
3.5	350	0.204	-0.273	-0.059	-73.2240324	96.256944	-61.9940556	69.80920272	13.57337502	-2.19442914
3.51	351	0.295	-0.449	-0.083	-78.9536124	107.3150334	-73.3959198	69.17894892	14.59324026	-1.42666542
3.52	352	0.463	-0.736	-0.34	-103.8199896	108.86202	-80.9589654	68.30232318	15.69331962	-0.6875496
3.53	353	0.611	-0.956	-0.754	-139.4579772	111.2684436	-82.0475856	67.08192264	16.8163173	0.05156622
3.54	354	0.834	-1.197	-1.085	-166.5588906	101.127087	-81.1881486	65.55785436	17.91066708	0.67036086
3.55	355	1.181	-1.534	-1.477	-196.9829604	40.5081306	-75.8023434	63.56396052	18.72999702	0.70473834
3.56	356	1.584	-2.058	-1.222	-219.0991392	-32.4867186	-63.8275212	61.14034818	19.12533804	0.08021412
3.57	357	2.297	-3.077	-1.438	-264.0763422	1.8334656	-42.7999626	58.3844202	19.46911284	-0.13750992
3.58	358	3.738	-3.999	-3.818	-355.2912558	-92.819196	57.9833496	54.6315453	18.4492476	-0.63598338
3.59	359	3.935	-3.393	-0.659	-361.1354274	-439.4014902	135.3326796	50.2197687	14.7823164	-3.47785506
3.6	360	2.22	-0.674	0.541	-312.3767016	-342.342405	-59.301153	46.36949094	13.00041702	-6.5603691
3.61	361	0.426	-0.686	0.072	-235.0846674	-308.9389536	-173.033316	43.258329	12.07222506	-10.07833122
3.62	362	-0.231	-0.491	0.199	-213.426855	-324.6952986	-221.7920418	40.34197278	11.17841058	-14.00309352
3.63	363	-0.782	-1.081	0.709	-177.044022	-306.4179384	-216.291645	37.89544212	10.21584114	-17.7044022
3.64	364	-1.363	-1.617	0.612	-223.6828032	-256.3414092	-186.3259416	35.12805498	9.29910834	-20.7983754
3.65	365	-1.205	-1.375	0.893	-258.404058	-247.0021938	-119.0606724	32.17732128	7.92973872	-23.21625816
3.66	366	-0.859	-0.491	1.108	-281.0931948	-224.3703528	-37.3568616	29.1635622	6.20513514	-24.7231377
3.67	367	-0.657	-0.25	1.096	-246.085461	-179.9661078	43.258329	26.64827658	4.42323576	-25.22161116
3.68	368	-0.599	-0.433	0.721	-220.1877594	-151.260912	100.554129	24.44811786	2.62987722	-24.99242796
3.69	369	-0.777	-0.306	0.614	-218.4115896	-127.196676	137.0515536	22.27087746	0.9167328	-24.27050088
3.7	370	-0.932	0.059	0.388	-235.0273716	-112.0705848	124.331886	19.90456092	-0.59014674	-23.53711464
3.71	371	-0.833	0.458	0.508	-230.329116	-102.7313694	84.3967134	17.57262186	-1.85065434	-23.0902074
3.72	372	-0.642	0.819	0.486	-204.4314144	-84.6258966	41.4821592	15.50424348	-2.79030546	-22.9469679
3.73	373	-0.453	1.172	0.151	-155.2143222	-64.2285918	2.8074942	13.94579772	-3.42628884	-23.0902074
3.74	374	-0.181	1.092	-0.274	-116.4250656	-42.1697088	-22.058883	12.78842256	-3.79298196	-23.4053343
3.75	375	-0.161	0.759	-0.416	-81.932994	-25.78311	-7.1046792	11.9175264	-4.05081306	-23.53138506
3.76	376	-0.083	0.634	-0.311	-88.4074194	-18.7930224	14.2666542	11.01225276	-4.2685371	-23.42825262
3.77	377	0.033	0.503	-0.311	-78.6671334	-7.2765666	30.2521824	10.19292282	-4.40604702	-23.14177362
3.78	378	0.085	0.292	-0.559	-56.3217714	2.578311	38.5027776	9.59131692	-4.45761324	-22.75789176
3.79	379	-0.063	0.174	-0.752	-36.2682414	-2.4637194	39.6486936	9.1959759	-4.54928652	-22.36828032
3.8	380	-0.345	0.225	-0.959	-21.2567418	-0.859437	36.2109456	8.91522648	-4.64668938	-22.0015872
3.81	381	-0.419	0.438	-1.193	-24.4653066	20.1108258	29.6792244	8.64020664	-4.50344988	-21.67500114
3.82	382	-0.29	1.051	-1.101	-28.361421	49.5035712	6.875496	8.33080932	-4.03362432	-21.52030248
3.83	383	-0.203	1.496	-0.858	2.9793816	109.2630906	-22.6891368	8.35372764	-2.93927454	-21.55467996
3.84	384	0.099	1.597	-0.86	54.2591226	152.5787154	-32.8304934	8.880849	-1.39801752	-21.61770534
3.85	385	0.528	1.203	-1.008	62.8534926	127.9415214	-33.6899304	9.49391406	-0.0859437	-21.7151082
3.86	386	1.05	1.007	-1.668	62.9107884	-18.7930224	-40.7373138	10.13562702	-0.18907614	-22.15628586
3.87	387	0.732	1.052	-3.132	113.2165008	-176.6429514	-21.9442914	11.3159205	-1.83919518	-22.7464326
3.88	388	0.896	0.754	-3.996	206.7232464	-173.7208656	17.0741484	13.44732426	-3.51796212	-23.0042637
3.89	389	3.542	-0.127	-3.996	309.9129822	-27.4446882	49.5035712	16.56994536	-3.87319608	-22.61465226
3.9	390	0.204	-1.313	-3.996	133.8429888	-29.793816	128.8582542	17.85910086	-4.51490904	-21.49738416
3.91	391	-1.841	-0.634	-3.996	57.6968706	-127.4258592	85.0269672	18.42632928	-5.9587632	-21.11923188
3.92	392	-2.266	-0.049	-3.803	-43.0291458	-130.2906492	27.1009134	18.03098826	-7.26510744	-21.30257844
3.93	393	-0.878	-0.008	-2.797	-103.0751442	-124.1027028	17.0741484	17.03404134	-8.48550798	-21.5432208
3.94	394	-0.043	-0.264	-1.934	-178.4191212	-115.6802202	50.4775998	15.21776448	-9.740286	-21.3999813
3.95	395	-0.364	-0.051	-1.728	-194.80572	-105.5388636	57.868758	13.20095232	-10.9148499	-21.1135023
3.96	396	-0.645	-0.094	-0.935	-124.331886	-95.9131692	52.9413192	11.89460808	-11.96336304	-20.81556414
3.97	397	-0.633	-0.085	-0.851	-68.5257768	-100.4968332	50.706783	11.14976268	-13.04052408	-20.5405443
3.98	398	-0.541	0.073	-0.17	-43.1437374	-115.6802202	53.858052	10.66274838	-14.2666542	-20.24833572
3.99	399	-0.262	0.299	-0.351	-70.760313	-65.317212	51.6235158	9.8548776	-15.00004044	-19.86445386
4	400	-0.059	0.5	-0.631	-74.0834694	-44.4615408	45.1490904	8.97252228	-15.50997306	-19.480572
4.01	401	0.053	0.63	-0.784	-51.1078536	-30.9970278	37.9298196	8.3651868	-15.87666618	-19.14252678
4.02	402	0.204	0.62	-0.607	-34.950438	-11.6883432	33.8618178	7.92400914	-16.042824	-18.81594072
4.03	403	0.174	0.673	-0.385	-35.4661002	-3.0366774	29.0489706	7.48283148	-16.11730854	-18.52373214
4.04	404	0.095	0.789	-0.339	-21.3713334	-2.291832	20.340009	7.20781164	-16.16887476	-18.31746726
4.05	405	0.034	0.839	-0.364	5.3285094	-1.2605076	10.1986524	6.92133264	-16.16314518	-18.1341207
4.06	406	-0.017	0.821	-0.399	24.1788276	-0.7448454	-0.8021412	7.16770458	-16.16887476	-18.14557986
4.07	407	-0.021	0.739	-0.473	42.0551172	-5.5003968	-10.1413566	7.63180056	-16.20325224	-18.26017146
4.08	408	0	0.574	-0.425	48.6441342	-18.5638392	-12.8342592	8.17038108	-16.3579509	-18.43205886
4.09	409	0.036	0.373	-0.396	51.1651494	-28.4187168	-9.740286	8.7376095	-16.615782	-18.58675752
4.1	410	0.105	0.187	-0.319	53.6861646	-40.1643558	-1.6042824	9.30483792	-16.98247512	-18.6784308
4.11	411	0.049	0.047	-0.345	51.6808116	-49.274388	5.5003968	9.84914802	-17.46375984	-18.72426744
4.12	412	-0.187	-0.009	-0.464	50.3057124	-59.587632	7.8495246	10.38199896	-18.048177	-18.77583366
4.13	413	-0.501	-0.03	-0.51	43.544808	-63.02538	3.9534102	10.86328368	-18.66124206	-18.87323652
4.14	414	-0.76	0.071	-0.632	32.8304934	-54.6601932	-1.7761698	11.25289512	-19.17690426	-19.0222056
4.15	415	-0.966	0.203	-0.756	24.1215318	-28.7624916	-6.1879464	11.52218538	-19.480572	-19.1367972
4.16	416	-1.18	0.2	-0.821	20.8556712	-6.2452422	-10.3705398	11.78001648	-19.52067906	-19.26284796
4.17	417	-1.355	0.081	-0.93	16.4438946	17.7044022	-16.3865988	11.98628136	-19.31441418	-19.38889872
4.18	418	-1.324	-0.057	-1.035	5.443101	39.534102	-20.6837838	12.07222506	-18.89042526	-19.50349032
4.19	419	-1.145	-0.123	-1.115	-6.875496	55.003968	-20.3973048	12.02065884	-18.31746726	-19.57797486
4.2	420	-0.863	-0.164	-1.18	-15.756345	60.9627312	-18.4492476	11.8602306	-17.7044022	-19.61235234
4.21	421	-0.675	-0.209	-1.205	-19.9389384	56.2644756	-17.4179232	11.6596953	-17.1314442	-19.65818898
4.22	422	-0.51	-0.273	-1.199	-22.4599536	47.7846972	-17.6471064	11.44197126	-16.63870032	-19.72121436
4.23	423	-0.395	-0.308	-1.158	-23.6631654	30.3094782	-19.4232762	11.23570638	-16.31211426	-19.84726512
4.24	424	-0.35	-0.331	-1.091	-23.8350528	18.048177	-20.626488	11.03517108	-16.1001198	-20.01342294
4.25	425	-0.338	-0.348	-1.013	-22.6891368	9.1100322	-19.9962342	10.87474284	-15.97979862	-20.20249908
4.26	426	-0.343	-0.339	-0.947	-22.9756158	4.6982556	-17.9335854	10.6856667	-15.90531408	-20.3686569
4.27	427	-0.359	-0.301	-0.901	-22.4026578	3.0939732	-15.2406828	10.49659056	-15.84801828	-20.51762598
4.28	428	-0.372	-0.267	-0.874	-18.907614	1.3178034	-13.1207382	10.3418919	-15.8136408	-20.64940632
4.29	429	-0.382	-0.247	-0.851	-13.9801752	0.2291832	-10.7716104	10.2273003	-15.79645206	-20.75253876
4.3	430	-0.385	-0.236	-0.821	-9.7975818	2.005353	-8.0787078	10.17573408	-15.81937038	-20.8270233
4.31	431	-0.354	-0.236	-0.787	-4.9847346	6.6463128	-5.3285094	10.13562702	-15.74488584	-20.87285994
4.32	432	-0.327	-0.239	-0.752	-1.5469866	11.0007936	-3.8961144	10.12416786	-15.63029424	-20.89004868
4.33	433	-0.293	-0.242	-0.734	1.432395	15.3552744	-2.9220858	10.13562702	-15.48132516	-20.8843191
4.34	434	-0.259	-0.248	-0.733	4.6409598	19.0795014	-1.8907614	10.17573408	-15.29224902	-20.86713036
4.35	435	-0.231	-0.267	-0.743	7.6776372	21.6578124	-0.572958	10.26167778	-15.08025456	-20.83275288
4.36	436	-0.217	-0.288	-0.775	10.026765	22.1161788	0.8021412	10.34762148	-14.86253052	-20.77545708
4.37	437	-0.216	-0.32	-0.835	11.5737516	21.0848544	1.8907614	10.44502434	-14.66199522	-20.7124317
4.38	438	-0.213	-0.355	-0.906	11.45916	20.9702628	2.86479	10.5424272	-14.46145992	-20.64367674
4.39	439	-0.209	-0.367	-0.952	8.8235532	21.3140376	4.2398892	10.60545258	-14.2666542	-20.55200346
4.4	440	-0.212	-0.356	-0.989	6.9327918	21.5432208	5.6722842	10.67993712	-14.05465974	-20.4546006
4.41	441	-0.22	-0.334	-1.019	6.1879464	21.9442914	6.875496	10.70858502	-13.85412444	-20.340009
4.42	442	-0.215	-0.306	-1.045	5.9587632	22.9756158	8.021412	10.73723292	-13.64785956	-20.20822866
4.43	443	-0.212	-0.28	-1.072	6.4744254	24.6944898	8.8235532	10.76588082	-13.42440594	-20.06498916
4.44	444	-0.2	-0.261	-1.09	7.0473834	25.9549974	9.453807	10.8002583	-13.18949316	-19.91602008
4.45	445	-0.171	-0.25	-1.089	6.9327918	26.5852512	9.9121734	10.83463578	-12.93739164	-19.76132142
4.46	446	-0.134	-0.238	-1.066	6.1306506	26.2987722	10.599723	10.8575541	-12.70247886	-19.60089318
4.47	447	-0.1	-0.225	-1.039	5.3858052	24.5226024	11.2299768	10.87474284	-12.4904844	-19.43473536
4.48	448	-0.08	-0.209	-1.02	5.0993262	21.772404	11.5737516	10.886202	-12.30140826	-19.26857754
4.49	449	-0.068	-0.188	-1.003	5.3285094	18.1054728	11.8029348	10.90912032	-12.1467096	-19.11387888
4.5	450	-0.07	-0.165	-0.981	5.72958	13.8082878	11.9748222	10.92057948	-11.99774052	-18.9649098
4.51	451	-0.067	-0.147	-0.961	5.6149884	9.8548776	12.032118	10.9434978	-11.92325598	-18.82739988
4.52	452	-0.069	-0.134	-0.941	4.8128472	7.0473834	11.6310474	10.96641612	-11.87741934	-18.69561954
4.53	453	-0.069	-0.124	-0.928	3.9534102	4.7555514	11.0007936	10.98360486	-11.85450102	-18.57529836
4.54	454	-0.075	-0.115	-0.914	3.2085648	2.5210152	9.7975818	10.99506402	-11.84877144	-18.47216592
4.55	455	-0.092	-0.116	-0.909	2.6929026	0	7.7922288	10.94922738	-11.8029348	-18.3919518
4.56	456	-0.118	-0.111	-0.915	2.3491278	-0.9740286	5.6149884	10.96068654	-11.82585312	-18.334656
4.57	457	-0.148	-0.104	-0.924	1.4896908	-0.859437	3.5523396	10.9721457	-11.83731228	-18.3060081
4.58	458	-0.172	-0.1	-0.933	0.5156622	0.0572958	1.6615782	10.9721457	-11.84304186	-18.28881936
4.59	459	-0.2	-0.102	-0.934	-0.4010706	1.0313244	0	10.96641612	-11.8315827	-18.28308978
4.6	460	-0.227	-0.109	-0.929	-1.8334656	2.0626488	-1.4896908	10.85182452	-11.8602306	-18.26590104
4.61	461	-0.248	-0.12	-0.936	-3.5523396	2.7501984	-2.578311	10.81744704	-11.8315827	-18.28308978
4.62	462	-0.269	-0.134	-0.941	-5.2139178	3.2085648	-3.437748	10.7716104	-11.79147564	-18.31173768
4.63	463	-0.275	-0.14	-0.96	-6.016059	3.7815228	-4.1252976	10.7143146	-11.75136858	-18.34611516
4.64	464	-0.275	-0.145	-0.972	-5.156622	3.3804522	-4.8128472	10.66847796	-11.71126152	-18.38622222
4.65	465	-0.272	-0.148	-0.985	-4.1825934	2.6356068	-5.3858052	10.599723	-11.7169911	-18.4205997
4.66	466	-0.267	-0.154	-0.989	-3.2658606	1.4896908	-6.1306506	10.57680468	-11.69407278	-18.4778955
4.67	467	-0.261	-0.165	-0.985	-2.8074942	0.4583664	-6.875496	10.55961594	-11.67688404	-18.54665046
4.68	468	-0.248	-0.176	-0.976	-2.578311	-0.1145916	-7.448454	10.54815678	-11.66542488	-18.621135
4.69	469	-0.237	-0.188	-0.968	-2.3491278	-0.7448454	-7.7922288	10.5424272	-11.65396572	-18.70134912
4.7	470	-0.232	-0.199	-0.955	-2.291832	-1.8334656	-7.6776372	10.53669762	-11.68261362	-18.77583366
4.71	471	-0.23	-0.201	-0.945	-2.2345362	-3.724227	-6.9900876	10.53096804	-11.70553194	-18.85604778
4.72	472	-0.232	-0.197	-0.941	-2.291832	-5.443101	-6.0733548	10.52523846	-11.75136858	-18.92480274
4.73	473	-0.239	-0.194	-0.934	-2.2345362	-6.589017	-5.2139178	10.5137793	-11.8029348	-18.9935577
4.74	474	-0.244	-0.195	-0.932	-1.7761698	-6.9327918	-4.4690724	10.50804972	-11.86596018	-19.0508535
4.75	475	-0.243	-0.197	-0.932	-0.6302538	-6.5317212	-3.9534102	10.51950888	-11.95763346	-19.10241972
4.76	476	-0.239	-0.204	-0.935	0.5156622	-5.6722842	-3.2658606	10.53669762	-12.00919968	-19.14252678
4.77	477	-0.234	-0.211	-0.937	1.718874	-4.9847346	-2.4637194	10.55961594	-12.04930674	-19.18263384
4.78	478	-0.231	-0.217	-0.933	2.3491278	-4.1252976	-1.3750992	10.59399342	-12.0894138	-19.20555216
4.79	479	-0.235	-0.22	-0.937	2.8074942	-3.151269	-0.3437748	10.62264132	-12.1180617	-19.21701132
4.8	480	-0.244	-0.219	-0.939	2.9220858	-2.5210152	0.286479	10.6856667	-12.20973498	-19.21128174
4.81	481	-0.26	-0.212	-0.94	3.2085648	-2.0626488	0.6875496	10.72004418	-12.2326533	-19.21128174
4.82	482	-0.273	-0.206	-0.94	3.9534102	-1.5469866	0.9740286	10.75442166	-12.24984204	-19.20555216
4.83	483	-0.277	-0.197	-0.94	4.3544808	-0.5156622	0.9740286	10.8002583	-12.25557162	-19.194093
4.84	484	-0.277	-0.19	-0.937	4.4690724	0.3437748	1.2605076	10.84036536	-12.25557162	-19.18263384
4.85	485	-0.277	-0.193	-0.942	4.010706	1.0886202	1.4896908	10.86901326	-12.33005616	-19.14825636
4.86	486	-0.272	-0.199	-0.951	3.151269	1.3750992	1.6042824	10.89766116	-12.318597	-19.13106762
4.87	487	-0.265	-0.201	-0.954	2.2345362	1.6042824	1.6042824	10.9148499	-12.30713784	-19.1081493
4.88	488	-0.255	-0.2	-0.943	1.2032118	1.8334656	1.4896908	10.92630906	-12.2899491	-19.09096056
4.89	489	-0.248	-0.196	-0.931	0	2.7501984	1.432395	10.92057948	-12.26703078	-19.06804224
4.9	490	-0.242	-0.187	-0.929	-0.4010706	2.6929026	1.3178034	10.88047242	-12.318597	-19.03366476
4.91	491	-0.231	-0.178	-0.924	-0.5156622	2.1199446	1.3178034	10.87474284	-12.30140826	-19.01647602
4.92	492	-0.222	-0.168	-0.926	-0.1145916	2.1772404	1.3178034	10.86901326	-12.27848994	-18.99928728
4.93	493	-0.219	-0.161	-0.936	0.4010706	2.7501984	1.3178034	10.86901326	-12.25557162	-18.97636896
4.94	494	-0.218	-0.156	-0.945	0.9167328	2.9220858	1.2032118	10.86901326	-12.22692372	-18.95918022
4.95	495	-0.216	-0.155	-0.953	1.145916	2.9220858	0.859437	10.8002583	-12.21546456	-18.92480274
4.96	496	-0.211	-0.158	-0.958	1.3178034	2.6356068	0.572958	10.81171746	-12.19254624	-18.91334358
4.97	497	-0.205	-0.165	-0.958	1.6042824	2.291832	0.3437748	10.82317662	-12.16962792	-18.90188442
4.98	498	-0.2	-0.171	-0.953	1.7761698	2.1199446	0.286479	10.84036536	-12.15243918	-18.89615484
4.99	499	-0.195	-0.176	-0.95	1.8334656	1.9480572	0.1145916	10.8575541	-12.12952086	-18.89042526
5	500	-0.194	-0.177	-0.948	1.7761698	1.6042824	0.0572958	10.81171746	-12.09514338	-18.87323652
5.01	501	-0.193	-0.175	-0.946	1.6042824	1.2032118	0.0572958	10.8289062	-12.08368422	-18.87323652
5.02	502	-0.197	-0.174	-0.946	1.5469866	1.2032118	0	10.84609494	-12.07222506	-18.86750694
5.03	503	-0.202	-0.174	-0.945	1.5469866	1.3750992	-0.1145916	10.8575541	-12.05503632	-18.86750694
5.04	504	-0.206	-0.178	-0.946	1.4896908	1.4896908	-0.4010706	10.87474284	-12.04357716	-18.86750694
5.05	505	-0.207	-0.181	-0.949	1.432395	1.5469866	-0.6875496	10.85182452	-12.03784758	-18.86177736
5.06	506	-0.207	-0.188	-0.951	1.432395	1.5469866	-0.7448454	10.86901326	-12.02065884	-18.86750694
5.07	507	-0.209	-0.195	-0.953	1.4896908	1.6615782	-0.7448454	10.886202	-12.0034701	-18.87323652
5.08	508	-0.21	-0.202	-0.955	1.3750992	1.7761698	-0.6875496	10.89766116	-11.98628136	-18.87323652
5.09	509	-0.209	-0.206	-0.954	1.3178034	1.8334656	-0.6875496	10.9148499	-11.96336304	-18.8789661
5.1	510	-0.211	-0.205	-0.95	0.9740286	1.6042824	-0.7448454	10.92630906	-11.9748222	-18.8789661
5.11	511	-0.214	-0.203	-0.947	0.5156622	1.2032118	-0.6302538	10.93203864	-11.96336304	-18.88469568
5.12	512	-0.217	-0.202	-0.946	0	0.7448454	-0.572958	10.93203864	-11.95190388	-18.88469568
5.13	513	-0.218	-0.201	-0.946	-0.1718874	0.2291832	-0.5156622	10.93203864	-11.95190388	-18.89042526
5.14	514	-0.216	-0.201	-0.949	0	-0.2291832	-0.286479	10.93203864	-11.95190388	-18.89615484
5.15	515	-0.216	-0.201	-0.951	0.0572958	-0.7448454	-0.1718874	10.9148499	-12.03784758	-18.88469568
5.16	516	-0.215	-0.202	-0.953	0.0572958	-1.0313244	-0.0572958	10.92057948	-12.04930674	-18.88469568
5.17	517	-0.218	-0.2	-0.952	0.286479	-1.0313244	0	10.92057948	-12.0607659	-18.89042526
5.18	518	-0.221	-0.199	-0.951	0.4583664	-0.859437	0	10.92630906	-12.06649548	-18.89042526
5.19	519	-0.224	-0.196	-0.948	0.3437748	-0.6875496	0.0572958	10.93203864	-12.07222506	-18.89042526
5.2	520	-0.224	-0.192	-0.946	0.286479	-0.5156622	0.1145916	10.8289062	-12.23838288	-18.84458862
5.21	521	-0.225	-0.187	-0.944	0.1718874	-0.2291832	0.1718874	10.83463578	-12.23838288	-18.84458862
5.22	522	-0.226	-0.183	-0.943	0	0	0.1718874	10.83463578	-12.23838288	-18.84458862
5.23	523	-0.227	-0.179	-0.94	-0.0572958	0	0.0572958	10.8289062	-12.23838288	-18.84458862
5.24	524	-0.229	-0.178	-0.94	-0.0572958	0	0	10.8289062	-12.23838288	-18.84458862
5.25	525	-0.229	-0.18	-0.94	0	0.0572958	-0.0572958	10.37626938	-12.82852962	-18.65551248
5.26	526	-0.229	-0.183	-0.941	0.1145916	0.1718874	-0.1145916	10.37626938	-12.82852962	-18.65551248
5.27	527	-0.229	-0.186	-0.942	0	0.286479	-0.0572958	10.37626938	-12.82280004	-18.65551248
5.28	528	-0.229	-0.187	-0.94	-0.0572958	0.286479	0	10.37626938	-12.81707046	-18.65551248
5.29	529	-0.228	-0.188	-0.943	0	0.286479	0.0572958	10.37626938	-12.81707046	-18.65551248
5.3	530	-0.226	-0.185	-0.945	0.0572958	0.3437748	0.0572958	10.29605526	-12.90874374	-18.621135
5.31	531	-0.224	-0.185	-0.949	0.2291832	0.4583664	0.1145916	10.29605526	-12.90301416	-18.621135
5.32	532	-0.222	-0.186	-0.954	0.4583664	0.4010706	0.1718874	10.30178484	-12.89728458	-18.61540542
5.33	533	-0.215	-0.185	-0.958	0.6875496	0.4583664	0.1718874	10.30751442	-12.891555	-18.61540542
5.34	534	-0.212	-0.187	-0.954	0.6875496	0.8021412	0.1718874	10.313244	-12.88582542	-18.60967584
5.35	535	-0.215	-0.194	-0.952	0	0.6875496	0.1718874	10.33043274	-12.87436626	-18.60967584
5.36	536	-0.218	-0.199	-0.952	-0.4010706	0.0572958	0.1145916	10.32470316	-12.86863668	-18.60967584
5.37	537	-0.223	-0.2	-0.951	-0.5156622	-0.2291832	0	10.31897358	-12.87436626	-18.60967584
5.38	538	-0.225	-0.2	-0.947	-0.5156622	-0.0572958	-0.1145916	10.313244	-12.87436626	-18.60967584
5.39	539	-0.225	-0.198	-0.934	-1.2032118	0.6302538	-0.2291832	10.30178484	-12.86863668	-18.61540542
5.4	540	-0.222	-0.194	-0.936	-1.4896908	1.2605076	-0.2291832	10.29032568	-12.86863668	-18.60967584
5.41	541	-0.217	-0.189	-0.939	-1.5469866	0.6302538	0	10.27886652	-12.8629071	-18.60967584
5.42	542	-0.209	-0.189	-0.94	-1.3750992	0.1718874	0.286479	10.26167778	-12.8629071	-18.60967584
5.43	543	-0.209	-0.19	-0.945	-0.8021412	0.3437748	0.4010706	10.25021862	-12.85717752	-18.60394626
5.44	544	-0.214	-0.192	-0.951	-0.6875496	0.5156622	0.3437748	10.24448904	-12.85144794	-18.59821668
5.45	545	-0.217	-0.192	-0.954	-0.6875496	0.5156622	0.2291832	10.2273003	-12.84571836	-18.5924871
5.46	546	-0.218	-0.189	-0.953	-0.6302538	0.859437	0.0572958	10.22157072	-12.83998878	-18.58675752
5.47	547	-0.218	-0.188	-0.951	-0.6875496	1.3750992	-0.0572958	10.21584114	-12.82852962	-18.58675752
5.48	548	-0.219	-0.185	-0.949	-0.7448454	1.3750992	-0.1718874	10.20438198	-12.81134088	-18.58675752
5.49	549	-0.218	-0.183	-0.946	-0.7448454	1.3178034	-0.1145916	10.1986524	-12.79988172	-18.58675752
5.5	550	-0.215	-0.18	-0.947	-0.6302538	0.9167328	-0.1145916	10.15281576	-12.78842256	-18.57529836
5.51	551	-0.213	-0.18	-0.949	-0.6302538	0.5156622	0	10.14708618	-12.78842256	-18.57529836
5.52	552	-0.212	-0.182	-0.948	-0.4010706	0.286479	0.0572958	10.1413566	-12.78269298	-18.57529836
5.53	553	-0.21	-0.184	-0.95	-0.2291832	0.1145916	0.0572958	10.1413566	-12.78269298	-18.56956878
5.54	554	-0.211	-0.187	-0.948	-0.1145916	0	0.2291832	10.13562702	-12.78269298	-18.56956878
5.55	555	-0.212	-0.188	-0.947	-0.1718874	0	0.286479	10.11843828	-12.77123382	-18.5638392
5.56	556	-0.213	-0.186	-0.949	0	-0.2291832	0.4583664	10.11843828	-12.77123382	-18.55810962
5.57	557	-0.216	-0.183	-0.949	0.2291832	-0.4583664	0.6302538	10.11843828	-12.7769634	-18.55238004
5.58	558	-0.22	-0.182	-0.95	0.5156622	-0.4583664	0.572958	10.12416786	-12.78269298	-18.54665046
5.59	559	-0.221	-0.185	-0.951	0.4010706	-0.0572958	0.286479	10.12416786	-12.78269298	-18.54665046
5.6	560	-0.217	-0.188	-0.951	0.1718874	0.1145916	0	10.10697912	-12.79415214	-18.54092088
5.61	561	-0.214	-0.19	-0.948	0.0572958	0.3437748	0	10.10697912	-12.78842256	-18.54092088
5.62	562	-0.215	-0.193	-0.946	0	0.1718874	-0.0572958	10.10697912	-12.78842256	-18.54092088
5.63	563	-0.216	-0.194	-0.945	-0.286479	0.0572958	0	10.10697912	-12.78842256	-18.54092088
5.64	564	-0.214	-0.193	-0.945	-0.4010706	0.1145916	0	10.10124954	-12.78269298	-18.54092088
5.65	565	-0.214	-0.191	-0.948	-0.3437748	0.2291832	0.1145916	10.10124954	-12.7769634	-18.54092088
5.66	566	-0.215	-0.19	-0.949	-0.286479	0.286479	0.1145916	10.09551996	-12.77123382	-18.5351913
5.67	567	-0.22	-0.188	-0.949	-0.1145916	0.4010706	0	10.09551996	-12.77123382	-18.5351913
5.68	568	-0.221	-0.187	-0.948	-0.1718874	0.6302538	-0.1145916	10.09551996	-12.76550424	-18.5351913
5.69	569	-0.22	-0.186	-0.949	-0.2291832	0.8021412	-0.1718874	10.08979038	-12.75404508	-18.5351913
5.7	570	-0.217	-0.185	-0.947	0	0.7448454	-0.0572958	10.07260164	-12.75977466	-18.52946172
5.71	571	-0.215	-0.185	-0.948	0.0572958	0.5156622	0	10.07260164	-12.75404508	-18.52946172
5.72	572	-0.213	-0.186	-0.948	0.0572958	0.1718874	0	10.07833122	-12.7483155	-18.52946172
5.73	573	-0.212	-0.186	-0.944	0	-0.1145916	0.0572958	10.07833122	-12.7483155	-18.52946172
5.74	574	-0.214	-0.185	-0.942	-0.0572958	-0.1718874	0	10.07260164	-12.75404508	-18.52946172
5.75	575	-0.216	-0.186	-0.943	0.0572958	-0.2291832	-0.0572958	10.06114248	-12.77123382	-18.52373214
5.76	576	-0.216	-0.184	-0.945	0.286479	-0.286479	0.0572958	10.06687206	-12.77123382	-18.52373214
5.77	577	-0.218	-0.184	-0.948	0.4583664	-0.3437748	0.1718874	10.07260164	-12.7769634	-18.52373214
5.78	578	-0.219	-0.187	-0.95	0.572958	-0.1718874	0.4010706	10.07833122	-12.7769634	-18.52373214
5.79	579	-0.222	-0.19	-0.952	0.6875496	0.0572958	0.572958	10.0840608	-12.7769634	-18.51227298
5.8	580	-0.224	-0.194	-0.952	0.572958	0.4583664	0.4583664	10.10124954	-12.79415214	-18.51227298
5.81	581	-0.225	-0.196	-0.95	0.286479	0.6302538	0.286479	10.10697912	-12.78842256	-18.5065434
5.82	582	-0.228	-0.193	-0.95	0.6302538	0.572958	0.1145916	10.1127087	-12.78269298	-18.50081382
5.83	583	-0.226	-0.189	-0.949	1.3178034	1.0886202	0	10.12416786	-12.77123382	-18.50081382
5.84	584	-0.222	-0.188	-0.946	1.2605076	1.8907614	0.0572958	10.13562702	-12.75404508	-18.49508424
5.85	585	-0.22	-0.191	-0.947	0.6302538	2.291832	0.2291832	10.1413566	-12.73685634	-18.48935466
5.86	586	-0.216	-0.191	-0.947	0.1145916	2.1772404	0.3437748	10.1413566	-12.71393802	-18.4778955
5.87	587	-0.215	-0.191	-0.948	0.3437748	2.005353	0.5156622	10.1413566	-12.69674928	-18.47216592
5.88	588	-0.215	-0.195	-0.936	0.286479	2.005353	0.5156622	10.1413566	-12.67956054	-18.46070676
5.89	589	-0.216	-0.192	-0.928	-0.0572958	2.6356068	0.3437748	10.1413566	-12.65091264	-18.4492476
5.9	590	-0.209	-0.187	-0.93	0.1718874	2.3491278	0.4010706	10.13562702	-12.62799432	-18.44351802
5.91	591	-0.201	-0.183	-0.933	0.6302538	1.2032118	0.7448454	10.1413566	-12.61653516	-18.43205886
5.92	592	-0.2	-0.179	-0.937	1.2032118	1.0886202	0.9740286	10.15281576	-12.605076	-18.4205997
5.93	593	-0.208	-0.18	-0.947	1.432395	1.2032118	1.0313244	10.16427492	-12.59934642	-18.40341096
5.94	594	-0.215	-0.185	-0.954	1.718874	1.0313244	0.9167328	10.17573408	-12.58788726	-18.3919518
5.95	595	-0.219	-0.189	-0.957	1.7761698	1.0886202	0.7448454	10.19292282	-12.58215768	-18.38049264
5.96	596	-0.22	-0.19	-0.958	1.7761698	1.3750992	0.6875496	10.20438198	-12.57069852	-18.37476306
5.97	597	-0.22	-0.191	-0.956	1.718874	2.005353	0.6875496	10.22157072	-12.55350978	-18.3633039
5.98	598	-0.22	-0.189	-0.956	1.3750992	2.1199446	0.6302538	10.23302988	-12.53059146	-18.35184474
5.99	599	-0.218	-0.185	-0.956	0.9740286	1.718874	0.5156622	10.23875946	-12.51340272	-18.34038558
6	600	-0.215	-0.184	-0.956	0.6875496	1.2032118	0.4583664	10.2273003	-12.50767314	-18.32892642
6.01	601	-0.213	-0.185	-0.955	0.6302538	0.6302538	0.4583664	10.23302988	-12.50194356	-18.32319684
6.02	602	-0.212	-0.188	-0.952	0.5156622	0.4010706	0.3437748	10.23875946	-12.50194356	-18.31746726
6.03	603	-0.211	-0.189	-0.951	0.4010706	0.5156622	0.2291832	10.24448904	-12.49621398	-18.31746726
6.04	604	-0.211	-0.19	-0.949	0.286479	0.859437	0.1145916	10.24448904	-12.48475482	-18.31173768
6.05	605	-0.208	-0.19	-0.949	0.2291832	1.0886202	0.0572958	10.23875946	-12.47329566	-18.3060081
6.06	606	-0.205	-0.189	-0.949	0.2291832	1.2032118	0	10.23875946	-12.4618365	-18.3060081
6.07	607	-0.201	-0.188	-0.95	0.5156622	1.3750992	0	10.24448904	-12.44464776	-18.30027852
6.08	608	-0.201	-0.19	-0.95	0.572958	1.6042824	0	10.25021862	-12.4331886	-18.30027852
6.09	609	-0.199	-0.193	-0.951	0.572958	1.8334656	-0.0572958	10.2559482	-12.41027028	-18.29454894
6.1	610	-0.196	-0.194	-0.951	0.4010706	1.718874	-0.1145916	10.26167778	-12.3758928	-18.29454894
6.11	611	-0.197	-0.195	-0.946	0.2291832	1.6615782	-0.1145916	10.26167778	-12.35870406	-18.29454894
6.12	612	-0.201	-0.198	-0.946	-0.0572958	1.6615782	-0.0572958	10.26167778	-12.34151532	-18.28881936
6.13	613	-0.202	-0.198	-0.947	-0.4583664	1.3178034	0	10.2559482	-12.33005616	-18.28881936
6.14	614	-0.201	-0.198	-0.948	-0.3437748	0.8021412	0.0572958	10.25021862	-12.318597	-18.28308978
6.15	615	-0.201	-0.197	-0.95	0.1145916	0	0.4010706	10.27313694	-12.29567868	-18.28881936
6.16	616	-0.204	-0.196	-0.952	0.2291832	-0.1145916	0.4583664	10.27313694	-12.29567868	-18.28308978
6.17	617	-0.209	-0.196	-0.952	0.1718874	-0.1718874	0.4010706	10.27886652	-12.30140826	-18.2773602
6.18	618	-0.213	-0.194	-0.953	0	-0.1145916	0.3437748	10.27313694	-12.30140826	-18.2773602
6.19	619	-0.214	-0.192	-0.953	0.0572958	-0.286479	0.2291832	10.27886652	-12.30713784	-18.27163062
6.2	620	-0.211	-0.19	-0.953	0.1718874	-0.3437748	0.286479	10.26167778	-12.32432658	-18.26590104
6.21	621	-0.209	-0.189	-0.953	0.1718874	-0.4010706	0.3437748	10.26167778	-12.32432658	-18.26590104
6.22	622	-0.206	-0.189	-0.95	0.1145916	-0.4010706	0.3437748	10.26167778	-12.33005616	-18.26017146
6.23	623	-0.209	-0.188	-0.947	0	-0.3437748	0.2291832	10.26167778	-12.33578574	-18.26017146
6.24	624	-0.213	-0.188	-0.942	-0.1145916	-0.3437748	0.0572958	10.26167778	-12.34151532	-18.26017146
6.25	625	-0.212	-0.189	-0.941	-0.1718874	0	-0.0572958	10.25021862	-12.3758928	-18.25444188
6.26	626	-0.21	-0.188	-0.941	0	0.2291832	-0.1718874	10.25021862	-12.3758928	-18.25444188
6.27	627	-0.207	-0.186	-0.941	0.2291832	0.4010706	-0.1145916	10.25021862	-12.37016322	-18.25444188
6.28	628	-0.206	-0.184	-0.943	0.286479	0.4010706	-0.0572958	10.2559482	-12.36443364	-18.25444188
6.29	629	-0.207	-0.184	-0.948	0.1718874	0.4583664	-0.1718874	10.2559482	-12.35870406	-18.26017146
6.3	630	-0.207	-0.188	-0.949	0.0572958	0.4583664	-0.2291832	10.24448904	-12.35297448	-18.25444188
6.31	631	-0.209	-0.192	-0.953	0.1718874	0.286479	-0.3437748	10.24448904	-12.35297448	-18.26017146
6.32	632	-0.213	-0.193	-0.955	0.6875496	0.286479	-0.3437748	10.2559482	-12.3472449	-18.26017146
6.33	633	-0.213	-0.191	-0.954	0.9740286	0.572958	-0.286479	10.26740736	-12.34151532	-18.26590104
6.34	634	-0.215	-0.193	-0.952	0.859437	0.9740286	-0.2291832	10.27313694	-12.33005616	-18.26590104
6.35	635	-0.214	-0.194	-0.952	0.2291832	1.2032118	-0.2291832	10.27886652	-12.33578574	-18.26590104
6.36	636	-0.212	-0.195	-0.953	-0.1718874	0.859437	-0.1718874	10.27313694	-12.32432658	-18.26590104
6.37	637	-0.209	-0.195	-0.953	0	0.1145916	-0.1145916	10.27313694	-12.32432658	-18.26590104
6.38	638	-0.211	-0.199	-0.942	-0.1145916	-0.0572958	-0.1145916	10.27313694	-12.32432658	-18.26590104
6.39	639	-0.211	-0.199	-0.938	-0.6302538	0.6302538	-0.1145916	10.26740736	-12.318597	-18.26590104
6.4	640	-0.208	-0.2	-0.938	-0.5156622	0.1145916	0	10.29605526	-12.318597	-18.27163062
6.41	641	-0.2	-0.197	-0.939	-0.286479	-0.3437748	0.286479	10.29032568	-12.32432658	-18.27163062
6.42	642	-0.197	-0.194	-0.943	0	-0.0572958	0.5156622	10.29032568	-12.32432658	-18.26590104
6.43	643	-0.201	-0.192	-0.949	0.1145916	0.4010706	0.6302538	10.29032568	-12.318597	-18.26017146
6.44	644	-0.205	-0.192	-0.954	0	0.6875496	0.5156622	10.29032568	-12.31286742	-18.25444188
6.45	645	-0.209	-0.192	-0.955	-0.1145916	0.859437	0.4010706	10.27886652	-12.31286742	-18.24298272
6.46	646	-0.211	-0.19	-0.954	0	1.2032118	0.2291832	10.27886652	-12.30140826	-18.23725314
6.47	647	-0.212	-0.188	-0.951	-0.0572958	1.718874	0.1718874	10.27886652	-12.28421952	-18.23152356
6.48	648	-0.213	-0.186	-0.949	0	1.6042824	0.1145916	10.27313694	-12.27276036	-18.23152356
6.49	649	-0.212	-0.185	-0.948	-0.1718874	1.2605076	0.0572958	10.27313694	-12.25557162	-18.22579398
6.5	650	-0.208	-0.184	-0.95	-0.286479	0.6875496	0.0572958	10.24448904	-12.25557162	-18.21433482
6.51	651	-0.206	-0.184	-0.95	-0.2291832	0.286479	0.1718874	10.23875946	-12.25557162	-18.21433482
6.52	652	-0.207	-0.182	-0.951	0	0.1718874	0.2291832	10.23875946	-12.25557162	-18.20860524
6.53	653	-0.206	-0.185	-0.95	0.1145916	0.1718874	0.1145916	10.23875946	-12.24984204	-18.20860524
6.54	654	-0.205	-0.188	-0.952	0.286479	0.1145916	0	10.24448904	-12.24984204	-18.20860524
6.55	655	-0.201	-0.187	-0.954	0.5156622	0.1145916	0.0572958	10.22157072	-12.2326533	-18.20287566
6.56	656	-0.199	-0.188	-0.954	0.7448454	0.1145916	0.0572958	10.23302988	-12.22692372	-18.20287566
6.57	657	-0.201	-0.189	-0.955	0.859437	0.2291832	-0.0572958	10.23875946	-12.22692372	-18.20287566
6.58	658	-0.203	-0.195	-0.951	0.7448454	0.7448454	-0.1718874	10.25021862	-12.22119414	-18.20287566
6.59	659	-0.204	-0.198	-0.95	0.572958	1.0313244	-0.3437748	10.2559482	-12.20973498	-18.20287566
6.6	660	-0.203	-0.199	-0.945	0.1718874	1.0886202	-0.4010706	10.27313694	-12.19254624	-18.20860524
6.61	661	-0.205	-0.199	-0.941	0.0572958	1.0313244	-0.3437748	10.27313694	-12.18681666	-18.20860524
6.62	662	-0.207	-0.198	-0.941	-0.1145916	0.9740286	-0.286479	10.27313694	-12.1753575	-18.21433482
6.63	663	-0.206	-0.197	-0.943	-0.286479	0.8021412	-0.2291832	10.26740736	-12.16389834	-18.21433482
6.64	664	-0.202	-0.193	-0.947	-0.1145916	0.859437	0	10.26740736	-12.15816876	-18.20860524
6.65	665	-0.199	-0.193	-0.953	0.0572958	0.7448454	0.1145916	10.26167778	-12.12952086	-18.20860524
6.66	666	-0.198	-0.193	-0.956	0.3437748	0.5156622	0.1718874	10.26740736	-12.12379128	-18.20287566
6.67	667	-0.2	-0.196	-0.956	0.5156622	0.5156622	0.1145916	10.27313694	-12.12379128	-18.20287566
6.68	668	-0.202	-0.199	-0.956	0.4583664	0.6302538	0.0572958	10.27313694	-12.1180617	-18.20287566
6.69	669	-0.205	-0.198	-0.954	0.5156622	0.8021412	0.1145916	10.27886652	-12.10660254	-18.19714608
6.7	670	-0.203	-0.195	-0.955	0.572958	0.8021412	0.1718874	10.2845961	-12.10087296	-18.1914165
6.71	671	-0.203	-0.19	-0.954	0.4583664	0.6302538	0.286479	10.2845961	-12.0894138	-18.1914165
6.72	672	-0.204	-0.187	-0.953	0.286479	0.3437748	0.3437748	10.29032568	-12.0894138	-18.18568692
6.73	673	-0.203	-0.185	-0.949	0.0572958	0.0572958	0.3437748	10.29032568	-12.0894138	-18.17995734
6.74	674	-0.205	-0.185	-0.947	-0.0572958	-0.2291832	0.2291832	10.29032568	-12.0894138	-18.17995734
6.75	675	-0.206	-0.186	-0.945	0	-0.3437748	0.1718874	10.26740736	-12.11233212	-18.17422776
6.76	676	-0.205	-0.187	-0.944	0.1145916	-0.4010706	0.0572958	10.27313694	-12.1180617	-18.17422776
6.77	677	-0.203	-0.187	-0.947	0.4010706	-0.6302538	0.1718874	10.27886652	-12.12379128	-18.17422776
6.78	678	-0.202	-0.187	-0.948	0.5156622	-0.4010706	0.1718874	10.27886652	-12.12952086	-18.16849818
6.79	679	-0.204	-0.188	-0.948	0.5156622	-0.0572958	0.1145916	10.2845961	-12.12952086	-18.16849818
6.8	680	-0.204	-0.189	-0.949	0.5156622	0	0.0572958	10.27313694	-12.13525044	-18.1627686
6.81	681	-0.204	-0.19	-0.95	0.4010706	0.1718874	-0.1145916	10.27886652	-12.13525044	-18.1627686
6.82	682	-0.203	-0.192	-0.95	0.1718874	0.4010706	-0.1145916	10.27886652	-12.12952086	-18.1627686
6.83	683	-0.204	-0.195	-0.953	0.0572958	0.2291832	-0.1718874	10.27886652	-12.12952086	-18.16849818
6.84	684	-0.202	-0.195	-0.96	0.3437748	-0.1718874	0	10.2845961	-12.12952086	-18.16849818
6.85	685	-0.197	-0.188	-0.967	0.8021412	-0.6302538	0.1145916	10.27313694	-12.1180617	-18.1627686
6.86	686	-0.198	-0.187	-0.97	0.572958	-1.0886202	0.3437748	10.27886652	-12.12952086	-18.1627686
6.87	687	-0.197	-0.193	-0.97	0.1718874	-1.8907614	0.5156622	10.27886652	-12.15243918	-18.1627686
6.88	688	-0.197	-0.199	-0.964	-0.1145916	-2.3491278	0.4583664	10.27886652	-12.1753575	-18.1627686
