TimeStamp(s)	FrameCounter	AccX	AccY	AccZ	GyrX	GyrY	GyrZ	EulerX	EulerY	EulerZ
0.01	1	-0.019	-1.003	-0.018	0.9740286	0.1145916	0.6302538	89.1809127	-2.578311	-1.49542038
0.02	2	-0.008	-1.004	-0.025	1.0313244	0.1145916	0.5156622	89.19237186	-2.578311	-1.49542038
0.03	3	-0.008	-1.005	-0.023	0.9740286	0.2291832	0.572958	89.20383102	-2.58404058	-1.49542038
0.04	4	-0.006	-1.005	-0.021	1.0313244	0.286479	0.6302538	89.21529018	-2.59549974	-1.4896908
0.05	5	-0.005	-1.006	-0.021	1.0886202	0.1718874	0.572958	89.15799438	-2.50955604	-1.48396122
0.06	6	-0.008	-1.006	-0.021	1.145916	0.4010706	0.5156622	89.17518312	-2.51528562	-1.47823164
0.07	7	-0.01	-1.008	-0.021	1.145916	0.572958	0.286479	89.18664228	-2.51528562	-1.47250206
0.08	8	-0.012	-1.009	-0.022	0.6875496	0.7448454	0.1145916	89.19237186	-2.5210152	-1.4610429
0.09	9	-0.014	-1.011	-0.024	0.572958	0.7448454	0	89.19810144	-2.5210152	-1.45531332
0.1	10	-0.012	-1.011	-0.023	0.6302538	0.859437	0.0572958	89.1236169	-2.4350715	-1.432395
0.11	11	-0.009	-1.012	-0.023	0.6875496	0.7448454	0.0572958	89.13507606	-2.4350715	-1.42666542
0.12	12	-0.006	-1.01	-0.021	0.859437	0.4010706	0.2291832	89.14080564	-2.44080108	-1.42093584
0.13	13	-0.004	-1.01	-0.018	1.0313244	-0.1718874	0.5156622	89.1522648	-2.44653066	-1.42666542
0.14	14	-0.003	-1.011	-0.019	0.9740286	-0.6302538	0.6302538	89.16372396	-2.45226024	-1.432395
0.15	15	-0.004	-1.009	-0.02	0.9167328	-0.5156622	0.5156622	89.11215774	-2.37204612	-1.432395
0.16	16	-0.006	-1.007	-0.022	1.145916	-0.1145916	0.4010706	89.12934648	-2.3777757	-1.432395
0.17	17	-0.006	-1.005	-0.023	1.2032118	0	0.2291832	89.14080564	-2.3777757	-1.432395
0.18	18	-0.005	-1.004	-0.025	1.432395	-0.1718874	0.286479	89.1522648	-2.38350528	-1.432395
0.19	19	-0.003	-1.005	-0.025	1.3750992	-0.1718874	0.286479	89.16945354	-2.38350528	-1.43812458
0.2	20	-0.003	-1.004	-0.022	1.3750992	-0.286479	0.3437748	89.11215774	-2.291832	-1.432395
0.21	21	-0.003	-1.005	-0.017	1.0886202	-0.286479	0.3437748	89.1236169	-2.291832	-1.432395
0.22	22	-0.004	-1.004	-0.017	0.859437	-0.5156622	0.4010706	89.12934648	-2.29756158	-1.43812458
0.23	23	-0.005	-1.003	-0.019	1.0313244	-0.7448454	0.6875496	89.14080564	-2.30329116	-1.44385416
0.24	24	-0.007	-1.001	-0.019	0.9740286	-0.7448454	0.8021412	89.1522648	-2.31475032	-1.45531332
0.25	25	-0.009	-1.004	-0.016	0.6302538	-0.6302538	0.6302538	89.094969	-2.22880662	-1.45531332
0.26	26	-0.008	-1.002	-0.02	0.572958	-0.286479	0.5156622	89.10069858	-2.22880662	-1.45531332
0.27	27	-0.007	-1.003	-0.024	1.0886202	-0.2291832	0.4010706	89.11215774	-2.2345362	-1.4610429
0.28	28	-0.007	-1.006	-0.023	1.2032118	-0.286479	0.2291832	89.1236169	-2.24026578	-1.4610429
0.29	29	-0.01	-1.009	-0.021	1.0886202	-0.286479	0.1718874	89.13507606	-2.24026578	-1.46677248
0.3	30	-0.01	-1.009	-0.021	1.0886202	-0.4010706	0.2291832	89.08350984	-2.17151082	-1.4610429
0.31	31	-0.01	-1.008	-0.018	1.145916	-0.5156622	0.286479	89.10069858	-2.1772404	-1.46677248
0.32	32	-0.009	-1.006	-0.015	0.9167328	-0.4010706	0.3437748	89.10642816	-2.18296998	-1.46677248
0.33	33	-0.008	-1.006	-0.014	0.7448454	-0.2291832	0.4010706	89.11788732	-2.18296998	-1.47250206
0.34	34	-0.008	-1.006	-0.017	0.6302538	-0.1145916	0.3437748	89.1236169	-2.18869956	-1.47250206
0.35	35	-0.009	-1.005	-0.021	0.5156622	-0.0572958	0.286479	88.96891824	-2.02254174	-1.44958374
0.36	36	-0.008	-1.006	-0.024	0.4583664	0	0.1145916	88.97464782	-2.02254174	-1.44958374
0.37	37	-0.007	-1.01	-0.022	0.286479	-0.0572958	0	88.97464782	-2.02254174	-1.45531332
0.38	38	-0.007	-1.01	-0.022	0.2291832	-0.286479	0	88.9803774	-2.02254174	-1.45531332
0.39	39	-0.006	-1.008	-0.022	0.3437748	-0.4010706	0.1718874	88.98610698	-2.02254174	-1.4610429
0.4	40	-0.007	-1.006	-0.021	0.3437748	-0.286479	0.286479	88.8657858	-1.88503182	-1.44958374
0.41	41	-0.005	-1.008	-0.021	0.286479	0	0.4583664	88.87151538	-1.88503182	-1.44958374
0.42	42	-0.002	-1.009	-0.02	0.0572958	0.1145916	0.572958	88.87151538	-1.89649098	-1.44385416
0.43	43	-0.005	-1.007	-0.019	-0.1718874	0	0.5156622	88.87151538	-1.89649098	-1.44385416
0.44	44	-0.007	-1.003	-0.023	-0.1718874	-0.1718874	0.3437748	88.8657858	-1.90222056	-1.44958374
0.45	45	-0.008	-1.001	-0.023	0.0572958	-0.0572958	0.286479	88.72827588	-1.77044022	-1.42666542
0.46	46	-0.007	-1.002	-0.024	0.3437748	-0.0572958	0.4010706	88.73400546	-1.77044022	-1.432395
0.47	47	-0.006	-1.004	-0.025	0.0572958	-0.0572958	0.572958	88.73400546	-1.7761698	-1.432395
0.48	48	-0.009	-1.002	-0.024	-0.1145916	-0.1718874	0.4583664	88.73400546	-1.78189938	-1.432395
0.49	49	-0.011	-1.003	-0.021	-0.286479	0	0.2291832	88.73400546	-1.78762896	-1.432395
0.5	50	-0.008	-1.004	-0.022	-0.1718874	0	0.2291832	88.54492932	-1.5756345	-1.40947668
0.51	51	-0.003	-1.008	-0.024	0.1145916	-0.0572958	0.3437748	88.5506589	-1.58136408	-1.40947668
0.52	52	0.001	-1.012	-0.019	-0.0572958	-0.1145916	0.4583664	88.54492932	-1.58136408	-1.41520626
0.53	53	0.001	-1.012	-0.014	-0.4010706	-0.1718874	0.572958	88.54492932	-1.58709366	-1.41520626
0.54	54	0.001	-1.008	-0.017	-0.286479	-0.0572958	0.6875496	88.53919974	-1.59855282	-1.41520626
0.55	55	-0.001	-1.007	-0.019	0.2291832	-0.286479	0.7448454	88.49909268	-1.51260912	-1.42093584
0.56	56	-0.005	-1.008	-0.019	0.1718874	-0.4010706	0.572958	88.49909268	-1.5183387	-1.42093584
0.57	57	-0.007	-1.008	-0.019	0.1145916	-0.6302538	0.3437748	88.49909268	-1.52406828	-1.42666542
0.58	58	-0.007	-1.006	-0.02	0.1718874	-0.3437748	0.1718874	88.50482226	-1.52406828	-1.432395
0.59	59	-0.006	-1.002	-0.023	0.3437748	-0.2291832	0.0572958	88.50482226	-1.52979786	-1.43812458
0.6	60	-0.004	-1.002	-0.024	0.4010706	-0.1718874	0	88.41887856	-1.40947668	-1.42666542
0.61	61	-0.003	-1.005	-0.023	0.2291832	0.1718874	-0.1718874	88.42460814	-1.40947668	-1.42666542
0.62	62	-0.003	-1.007	-0.024	-0.1145916	0.5156622	-0.1718874	88.41887856	-1.4037471	-1.42093584
0.63	63	-0.003	-1.004	-0.025	-0.2291832	0.5156622	-0.1145916	88.41887856	-1.4037471	-1.41520626
0.64	64	-0.004	-1.003	-0.026	-0.1145916	0.286479	0	88.41887856	-1.4037471	-1.41520626
0.65	65	-0.004	-1.003	-0.025	-0.1718874	0.4010706	-0.0572958	88.34439402	-1.3178034	-1.39801752
0.66	66	-0.004	-1.006	-0.026	-0.1718874	0.5156622	-0.1145916	88.34439402	-1.3178034	-1.39801752
0.67	67	-0.004	-1.006	-0.024	-0.1145916	0.4583664	-0.1718874	88.33866444	-1.3178034	-1.39228794
0.68	68	-0.006	-1.007	-0.023	-0.286479	0.3437748	-0.1718874	88.33866444	-1.3178034	-1.38655836
0.69	69	-0.006	-1.007	-0.027	-0.4010706	0.4583664	-0.2291832	88.33293486	-1.31207382	-1.38082878
0.7	70	-0.007	-1.007	-0.027	-0.2291832	0.5156622	-0.3437748	88.27563906	-1.2605076	-1.36936962
0.71	71	-0.008	-1.009	-0.026	-0.4583664	0.8021412	-0.4583664	88.26990948	-1.25477802	-1.36364004
0.72	72	-0.004	-1.009	-0.024	-0.4010706	1.0886202	-0.3437748	88.26990948	-1.25477802	-1.35218088
0.73	73	-0.002	-1.009	-0.024	-0.4010706	0.6875496	0	88.2641799	-1.25477802	-1.3464513
0.74	74	-0.004	-1.009	-0.02	-0.5156622	0.0572958	0.1718874	88.25845032	-1.25477802	-1.34072172
0.75	75	-0.004	-1.009	-0.023	-0.572958	0.1145916	0.1145916	88.20115452	-1.1745639	-1.34072172
0.76	76	-0.004	-1.009	-0.023	-0.6302538	0.4583664	0.1145916	88.19542494	-1.18029348	-1.33499214
0.77	77	-0.002	-1.007	-0.024	-0.4583664	0.572958	0	88.18969536	-1.18029348	-1.32926256
0.78	78	-0.001	-1.005	-0.027	-0.4583664	0.5156622	0	88.18396578	-1.18029348	-1.32353298
0.79	79	-0.001	-1.007	-0.028	-0.286479	0.286479	0.0572958	88.1782362	-1.18029348	-1.32353298
0.8	80	-0.001	-1.007	-0.027	-0.3437748	0.1145916	0.1145916	88.04645586	-1.01986524	-1.30634424
0.81	81	-0.001	-1.008	-0.026	-0.2291832	0.0572958	0.2291832	88.04072628	-1.02559482	-1.30634424
0.82	82	0	-1.006	-0.027	-0.2291832	0	0.1718874	88.04072628	-1.02559482	-1.30634424
0.83	83	0	-1.007	-0.025	-0.2291832	0.1718874	0.2291832	88.0349967	-1.0313244	-1.30061466
0.84	84	-0.001	-1.007	-0.024	-0.4583664	0.3437748	0.1145916	88.02926712	-1.0313244	-1.30061466
0.85	85	0	-1.006	-0.026	-0.5156622	0.3437748	0.0572958	87.97197132	-0.95111028	-1.29488508
0.86	86	0.001	-1.004	-0.026	-0.6875496	0.4010706	0.1718874	87.96624174	-0.95111028	-1.2891555
0.87	87	0.001	-1.004	-0.026	-0.7448454	0.286479	0.1145916	87.96051216	-0.95683986	-1.28342592
0.88	88	0.001	-1.004	-0.026	-0.572958	0	0.2291832	87.95478258	-0.95683986	-1.28342592
0.89	89	0.001	-1.005	-0.027	-0.4583664	-0.0572958	0.286479	87.949053	-0.96256944	-1.2891555
0.9	90	0	-1.007	-0.026	-0.4583664	0	0.286479	87.89748678	-0.88235532	-1.28342592
0.91	91	0	-1.007	-0.027	-0.3437748	-0.1145916	0.1718874	87.8917572	-0.8880849	-1.28342592
0.92	92	0.001	-1.007	-0.032	-0.2291832	-0.1718874	0.1145916	87.8917572	-0.8880849	-1.2891555
0.93	93	0	-1.008	-0.031	-0.2291832	-0.2291832	0.1145916	87.88602762	-0.8880849	-1.2891555
0.94	94	-0.003	-1.009	-0.029	-0.6302538	-0.3437748	0.0572958	87.88029804	-0.8880849	-1.29488508
0.95	95	-0.005	-1.009	-0.029	-0.6875496	-0.286479	0.0572958	87.82300224	-0.84224826	-1.2891555
0.96	96	-0.003	-1.009	-0.027	-0.6875496	0.0572958	0.1145916	87.81154308	-0.84797784	-1.2891555
0.97	97	0	-1.008	-0.025	-0.6875496	0.286479	0.2291832	87.8058135	-0.84797784	-1.2891555
0.98	98	0	-1.01	-0.027	-0.6875496	0.2291832	0.4010706	87.80008392	-0.85370742	-1.28342592
0.99	99	0.003	-1.008	-0.027	-0.859437	0.0572958	0.4583664	87.78862476	-0.859437	-1.28342592
1	100	0.002	-1.006	-0.029	-0.8021412	-0.1718874	0.4010706	87.75424728	-0.81932994	-1.28342592
1.01	101	-0.001	-1.006	-0.032	-0.4583664	-0.1718874	0.0572958	87.7485177	-0.81932994	-1.28342592
1.02	102	-0.002	-1.006	-0.034	-0.2291832	-0.0572958	-0.1718874	87.74278812	-0.81932994	-1.2891555
1.03	103	-0.006	-1.007	-0.031	-0.1718874	-0.1145916	-0.2291832	87.74278812	-0.81360036	-1.2891555
1.04	104	-0.005	-1.006	-0.032	-0.1718874	0	-0.4010706	87.73705854	-0.80787078	-1.2891555
1.05	105	-0.005	-1.004	-0.033	-0.2291832	0.0572958	-0.4010706	87.68549232	-0.76203414	-1.28342592
1.06	106	-0.002	-1.004	-0.034	-0.0572958	0.2291832	-0.286479	87.68549232	-0.76203414	-1.27769634
1.07	107	0	-1.006	-0.031	-0.1145916	0.1145916	0	87.67976274	-0.76203414	-1.27769634
1.08	108	0	-1.007	-0.029	-0.5156622	0	0	87.67403316	-0.76203414	-1.27769634
1.09	109	0.001	-1.004	-0.033	-0.3437748	-0.1718874	0	87.67403316	-0.76203414	-1.27769634
1.1	110	0.001	-1.004	-0.04	0	-0.2291832	0	87.5479824	-0.63598338	-1.27196676
1.11	111	0.002	-1.007	-0.034	0.1145916	-0.0572958	0.0572958	87.5479824	-0.63598338	-1.27196676
1.12	112	0	-1.007	-0.035	-0.0572958	-0.1718874	0.1145916	87.5479824	-0.63598338	-1.27196676
1.13	113	-0.003	-1.006	-0.036	-0.1718874	-0.1718874	0	87.5479824	-0.63598338	-1.27196676
1.14	114	-0.006	-1.008	-0.034	-0.286479	-0.0572958	0	87.54225282	-0.63598338	-1.27769634
1.15	115	-0.006	-1.007	-0.036	-0.2291832	0.286479	-0.0572958	87.46776828	-0.58441716	-1.26623718
1.16	116	0	-1.008	-0.034	0	0.286479	0	87.46776828	-0.58441716	-1.2605076
1.17	117	0	-1.007	-0.035	0.1718874	-0.1145916	0.1145916	87.47349786	-0.58441716	-1.2605076
1.18	118	0.003	-1.005	-0.037	0.4010706	-0.4583664	0.286479	87.47349786	-0.58441716	-1.26623718
1.19	119	0.003	-1.006	-0.037	0.572958	-0.4583664	0.1718874	87.47922744	-0.59014674	-1.27196676
1.2	120	0.003	-1.008	-0.036	0.4583664	-0.1145916	-0.1145916	87.4333908	-0.52139178	-1.26623718
1.21	121	0.001	-1.007	-0.036	0.4010706	0	-0.3437748	87.43912038	-0.52139178	-1.26623718
1.22	122	0	-1.005	-0.034	0.6302538	0.286479	-0.4583664	87.44484996	-0.5156622	-1.26623718
1.23	123	0.001	-1.005	-0.032	0.9167328	0.286479	-0.4010706	87.45630912	-0.50993262	-1.2605076
1.24	124	0.002	-1.004	-0.032	0.6875496	0.1145916	-0.3437748	87.4620387	-0.50420304	-1.2605076
1.25	125	0.002	-1.002	-0.039	0.572958	0.1145916	-0.4010706	87.42193164	-0.46409598	-1.25477802
1.26	126	0.002	-1.001	-0.043	0.8021412	0.286479	-0.4583664	87.42766122	-0.4583664	-1.25477802
1.27	127	0.004	-1.002	-0.045	0.7448454	0.4010706	-0.5156622	87.4333908	-0.45263682	-1.24904844
1.28	128	0.004	-1.002	-0.044	0.7448454	0.4010706	-0.5156622	87.44484996	-0.44690724	-1.24331886
1.29	129	0.004	-1.003	-0.045	0.8021412	0.1718874	-0.4010706	87.45057954	-0.44117766	-1.24331886
1.3	130	0.003	-1.005	-0.042	0.7448454	0	-0.3437748	87.41047248	-0.4010706	-1.23758928
1.31	131	0.001	-1.006	-0.043	0.7448454	0	-0.4010706	87.41620206	-0.4010706	-1.23758928
1.32	132	0	-1.007	-0.044	0.3437748	0.1718874	-0.4010706	87.42193164	-0.39534102	-1.2318597
1.33	133	0.003	-1.007	-0.04	0.2291832	0.3437748	-0.3437748	87.42193164	-0.38961144	-1.2318597
1.34	134	0.003	-1.007	-0.039	0	0.3437748	-0.2291832	87.42193164	-0.38961144	-1.22613012
1.35	135	0.002	-1.007	-0.042	0	0.4010706	-0.2291832	87.34171752	-0.33231564	-1.21467096
1.36	136	0.002	-1.008	-0.044	0.1718874	0.572958	-0.1718874	87.3474471	-0.33231564	-1.20894138
1.37	137	0.003	-1.009	-0.043	0.1145916	0.859437	0	87.3474471	-0.33231564	-1.19748222
1.38	138	0.004	-1.007	-0.039	0.0572958	0.8021412	0.1718874	87.3474471	-0.33231564	-1.19175264
1.39	139	0.005	-1.005	-0.043	0.0572958	0.572958	0.286479	87.3474471	-0.33804522	-1.18602306
1.4	140	0.005	-1.006	-0.043	0.1718874	0.1145916	0.4010706	87.27869214	-0.286479	-1.1745639
1.41	141	0.005	-1.007	-0.043	0.2291832	0	0.4010706	87.28442172	-0.29220858	-1.1745639
1.42	142	0.004	-1.005	-0.044	0.286479	0.1145916	0.3437748	87.28442172	-0.29220858	-1.1745639
1.43	143	0.005	-1.006	-0.042	0.286479	0.1718874	0.4010706	87.2901513	-0.29793816	-1.1745639
1.44	144	0.004	-1.005	-0.041	0	0.3437748	0.286479	87.2901513	-0.29793816	-1.16883432
1.45	145	0.005	-1.003	-0.042	-0.1145916	0.5156622	0.2291832	87.22712592	-0.2578311	-1.15737516
1.46	146	0.005	-1.002	-0.044	0	0.286479	0.1145916	87.22712592	-0.26356068	-1.15164558
1.47	147	0.005	-1.002	-0.045	0.286479	0.1145916	0	87.2328555	-0.2578311	-1.15164558
1.48	148	0.006	-1.003	-0.045	0.3437748	0.1145916	-0.0572958	87.2328555	-0.2578311	-1.15164558
1.49	149	0.007	-1.005	-0.046	0.2291832	0.1145916	-0.1145916	87.23858508	-0.2578311	-1.145916
1.5	150	0.008	-1.005	-0.043	0.1718874	0.1718874	0	87.15264138	-0.14896908	-1.14018642
1.51	151	0.01	-1.005	-0.041	0.0572958	0.286479	0.0572958	87.15264138	-0.14896908	-1.14018642
1.52	152	0.012	-1.006	-0.042	0	0.286479	0.1718874	87.15264138	-0.14896908	-1.13445684
1.53	153	0.011	-1.006	-0.047	0	-0.0572958	0.286479	87.15264138	-0.15469866	-1.13445684
1.54	154	0.01	-1.005	-0.046	0.1145916	-0.3437748	0.286479	87.15264138	-0.15469866	-1.14018642
1.55	155	0.01	-1.007	-0.046	0.1145916	-0.572958	0.2291832	87.10107516	-0.10886202	-1.14018642
1.56	156	0.005	-1.007	-0.045	0.1718874	-0.7448454	0.1145916	87.10107516	-0.10886202	-1.145916
1.57	157	0.004	-1.007	-0.043	0.1718874	-0.859437	-0.0572958	87.10107516	-0.10886202	-1.15737516
1.58	158	0.002	-1.009	-0.044	0.3437748	-0.6875496	-0.0572958	87.10680474	-0.10886202	-1.16310474
1.59	159	0.003	-1.006	-0.042	0.4583664	-0.6875496	-0.0572958	87.11253432	-0.10886202	-1.16883432
1.6	160	0.004	-1.005	-0.043	0.3437748	-0.572958	0	87.07242726	-0.08021412	-1.1745639
1.61	161	0.004	-1.004	-0.044	0.1718874	-0.4583664	0.1145916	87.07242726	-0.08021412	-1.1745639
1.62	162	0.004	-1.005	-0.045	0.0572958	-0.286479	0.0572958	87.07242726	-0.08021412	-1.18029348
1.63	163	0.004	-1.003	-0.048	0	-0.1145916	0.1145916	87.07242726	-0.08021412	-1.18029348
1.64	164	0.005	-1.001	-0.048	0.1145916	-0.1145916	0.1145916	87.07815684	-0.0859437	-1.18029348
1.65	165	0.006	-1.004	-0.047	0.3437748	-0.2291832	0.2291832	87.02086104	-0.05156622	-1.18029348
1.66	166	0.006	-1.005	-0.05	0.3437748	-0.4010706	0.2291832	87.02659062	-0.05156622	-1.18029348
1.67	167	0.005	-1.006	-0.046	0.286479	-0.6302538	0.1145916	87.0323202	-0.05156622	-1.19175264
1.68	168	0.004	-1.005	-0.043	0.0572958	-0.6302538	0	87.0323202	-0.05156622	-1.19748222
1.69	169	0.004	-1.005	-0.043	0	-0.5156622	-0.1145916	87.0323202	-0.05156622	-1.2032118
1.7	170	0.005	-1.005	-0.046	0.0572958	-0.2291832	-0.1718874	86.92345818	0.01145916	-1.19175264
1.71	171	0.007	-1.005	-0.046	0	-0.0572958	-0.1145916	86.92345818	0.01145916	-1.19175264
1.72	172	0.007	-1.006	-0.048	0	-0.2291832	0	86.92345818	0.01718874	-1.19748222
1.73	173	0.009	-1.007	-0.047	-0.286479	-0.0572958	0	86.92345818	0.01718874	-1.19748222
1.74	174	0.011	-1.007	-0.047	-0.1145916	-0.1145916	0.1145916	86.92345818	0.01145916	-1.19748222
1.75	175	0.014	-1.008	-0.049	0.1145916	-0.1718874	0.1718874	86.84897364	0.07448454	-1.19748222
1.76	176	0.014	-1.007	-0.048	0.2291832	-0.3437748	0.1145916	86.84897364	0.07448454	-1.19748222
1.77	177	0.011	-1.007	-0.048	0.286479	-0.4583664	0	86.85470322	0.07448454	-1.2032118
1.78	178	0.008	-1.004	-0.05	0.4010706	-0.6302538	0	86.85470322	0.07448454	-1.20894138
1.79	179	0.005	-1.002	-0.049	0.6875496	-0.572958	-0.0572958	86.86616238	0.07448454	-1.21467096
1.8	180	0.004	-1.005	-0.05	0.7448454	0	-0.0572958	86.8317849	0.09740286	-1.21467096
1.81	181	0.005	-1.007	-0.047	0.6875496	0.4010706	-0.0572958	86.84324406	0.09740286	-1.20894138
1.82	182	0.006	-1.009	-0.045	0.3437748	0.2291832	-0.0572958	86.84324406	0.09740286	-1.2032118
1.83	183	0.009	-1.009	-0.043	0	0	0	86.84324406	0.09740286	-1.2032118
1.84	184	0.009	-1.009	-0.045	0	-0.3437748	0.0572958	86.84324406	0.09740286	-1.20894138
1.85	185	0.01	-1.01	-0.045	0.0572958	-0.6302538	0.0572958	86.81459616	0.13178034	-1.21467096
1.86	186	0.01	-1.009	-0.041	0	-1.145916	0.1145916	86.81459616	0.13178034	-1.22613012
1.87	187	0.01	-1.004	-0.042	0.1145916	-1.8334656	0.1718874	86.82032574	0.12605076	-1.24331886
1.88	188	0.009	-1.002	-0.045	0.4583664	-2.0626488	0.1718874	86.82605532	0.12605076	-1.2605076
1.89	189	0.006	-1.006	-0.041	0.3437748	-1.4896908	0	86.82605532	0.12605076	-1.27769634
1.9	190	0.005	-1.008	-0.044	0.286479	-0.4583664	-0.2291832	86.803137	0.14896908	-1.28342592
1.91	191	0.006	-1.007	-0.043	0.6302538	0.1145916	-0.4583664	86.80886658	0.15469866	-1.27769634
1.92	192	0.008	-1.007	-0.043	0.7448454	0.2291832	-0.4583664	86.81459616	0.16042824	-1.27769634
1.93	193	0.011	-1.006	-0.045	0.6875496	0.3437748	-0.286479	86.82032574	0.16042824	-1.27196676
1.94	194	0.014	-1.005	-0.047	0.7448454	0.0572958	-0.0572958	86.8317849	0.16615782	-1.27196676
1.95	195	0.014	-1.003	-0.047	0.572958	-0.2291832	0.0572958	86.79167784	0.20626488	-1.27196676
1.96	196	0.013	-1.003	-0.052	0.6302538	-0.572958	0.1718874	86.803137	0.20626488	-1.27769634
1.97	197	0.01	-1.002	-0.05	0.7448454	-0.9740286	0.0572958	86.80886658	0.20626488	-1.2891555
1.98	198	0.009	-1.001	-0.049	0.5156622	-0.7448454	-0.1145916	86.81459616	0.20626488	-1.29488508
1.99	199	0.01	-1.003	-0.05	0.3437748	-0.4583664	-0.2291832	86.82032574	0.20626488	-1.30061466
2	200	0.01	-1.006	-0.049	0.286479	-0.4010706	-0.1718874	86.76875952	0.24637194	-1.30061466
2.01	201	0.011	-1.007	-0.047	0.0572958	-0.2291832	-0.1718874	86.7744891	0.24637194	-1.30634424
2.02	202	0.01	-1.007	-0.046	0	0	-0.1145916	86.7744891	0.24637194	-1.30634424
2.03	203	0.009	-1.005	-0.048	0.1145916	0	0	86.7744891	0.25210152	-1.30634424
2.04	204	0.008	-1.005	-0.05	0.2291832	0	0	86.7744891	0.25210152	-1.30061466
2.05	205	0.006	-1.007	-0.05	0.1145916	0.2291832	-0.1145916	86.70000456	0.27501984	-1.29488508
2.06	206	0.006	-1.008	-0.049	0	0.572958	-0.2291832	86.70000456	0.28074942	-1.2891555
2.07	207	0.008	-1.01	-0.048	-0.0572958	0.7448454	-0.2291832	86.70000456	0.28074942	-1.28342592
2.08	208	0.01	-1.012	-0.047	-0.286479	0.4583664	-0.4010706	86.70000456	0.286479	-1.27769634
2.09	209	0.013	-1.01	-0.049	-0.4583664	0.286479	-0.4010706	86.69427498	0.29220858	-1.27196676
2.1	210	0.017	-1.008	-0.049	-0.4010706	0.0572958	-0.5156622	86.64270876	0.3437748	-1.27196676
2.11	211	0.017	-1.01	-0.046	-0.286479	0	-0.5156622	86.64270876	0.34950438	-1.27196676
2.12	212	0.017	-1.008	-0.047	-0.286479	0.1145916	-0.4583664	86.63697918	0.35523396	-1.27196676
2.13	213	0.016	-1.006	-0.05	-0.1718874	0.0572958	-0.3437748	86.63697918	0.35523396	-1.26623718
2.14	214	0.018	-1.006	-0.049	-0.0572958	0	-0.1718874	86.63697918	0.36096354	-1.26623718
2.15	215	0.017	-1.005	-0.05	-0.1145916	-0.1145916	0.0572958	86.56822422	0.41825934	-1.26623718
2.16	216	0.016	-1.003	-0.05	0	-0.3437748	0.286479	86.56822422	0.41825934	-1.27196676
2.17	217	0.016	-1.004	-0.048	-0.1145916	-0.5156622	0.1718874	86.56822422	0.41252976	-1.27769634
2.18	218	0.014	-1.005	-0.048	-0.286479	-0.572958	0.1145916	86.56249464	0.41252976	-1.28342592
2.19	219	0.012	-1.004	-0.045	-0.286479	-0.3437748	0	86.56249464	0.41252976	-1.28342592
2.2	220	0.012	-1.003	-0.05	-0.286479	0.0572958	-0.1718874	86.51092842	0.44690724	-1.27769634
2.21	221	0.014	-1.004	-0.051	-0.1718874	0.286479	-0.2291832	86.50519884	0.45263682	-1.27769634
2.22	222	0.015	-1.007	-0.049	-0.4583664	0.286479	-0.2291832	86.50519884	0.45263682	-1.27769634
2.23	223	0.015	-1.008	-0.048	-0.6875496	0.5156622	-0.286479	86.49373968	0.4583664	-1.27196676
2.24	224	0.015	-1.008	-0.047	-0.8021412	0.6302538	-0.4010706	86.4880101	0.46409598	-1.26623718
2.25	225	0.017	-1.007	-0.046	-0.859437	0.859437	-0.3437748	86.47082136	0.48128472	-1.25477802
2.26	226	0.019	-1.008	-0.047	-0.8021412	0.9167328	-0.286479	86.4593622	0.4870143	-1.24331886
2.27	227	0.016	-1.008	-0.048	-0.8021412	0.572958	-0.2291832	86.45363262	0.4870143	-1.23758928
2.28	228	0.015	-1.008	-0.051	-1.0313244	0.1145916	-0.2291832	86.44217346	0.49274388	-1.23758928
2.29	229	0.016	-1.008	-0.052	-0.7448454	-0.2291832	-0.1718874	86.4307143	0.49274388	-1.24331886
2.3	230	0.015	-1.009	-0.05	-0.6875496	-0.4010706	-0.4010706	86.41352556	0.50993262	-1.24331886
2.31	231	0.013	-1.009	-0.047	-1.0313244	-0.1145916	-0.859437	86.4020664	0.52139178	-1.24904844
2.32	232	0.011	-1.008	-0.05	-1.2605076	0.4583664	-0.9167328	86.39060724	0.52712136	-1.24331886
2.33	233	0.011	-1.006	-0.05	-1.3750992	0.7448454	-0.9740286	86.3734185	0.53858052	-1.23758928
2.34	234	0.012	-1.006	-0.051	-1.6042824	1.145916	-1.0886202	86.35622976	0.55003968	-1.22613012
2.35	235	0.014	-1.007	-0.053	-1.5469866	1.4896908	-1.145916	86.33331144	0.56722842	-1.21467096
2.36	236	0.015	-1.009	-0.052	-1.5469866	1.5469866	-1.0313244	86.32185228	0.57868758	-1.19748222
2.37	237	0.015	-1.005	-0.051	-1.6042824	1.432395	-0.859437	86.30466354	0.59014674	-1.18602306
2.38	238	0.015	-1.005	-0.05	-1.7761698	1.5469866	-1.0313244	86.28174522	0.59587632	-1.16883432
2.39	239	0.016	-1.005	-0.053	-2.0626488	1.9480572	-1.3750992	86.26455648	0.61306506	-1.15164558
2.4	240	0.014	-1.007	-0.053	-2.3491278	2.1772404	-1.6042824	86.23590858	0.6302538	-1.12872726
2.41	241	0.011	-1.01	-0.05	-2.8074942	2.4064236	-2.005353	86.20726068	0.65317212	-1.10580894
2.42	242	0.012	-1.013	-0.049	-3.5523396	2.9793816	-2.2345362	86.16715362	0.67609044	-1.07716104
2.43	243	0.014	-1.013	-0.053	-3.6096354	3.0366774	-2.1772404	86.13277614	0.69900876	-1.04851314
2.44	244	0.015	-1.013	-0.058	-3.437748	2.6929026	-1.9480572	86.09839866	0.72192708	-1.02559482
2.45	245	0.017	-1.011	-0.059	-3.4950438	2.5210152	-1.7761698	86.0582916	0.73911582	-1.0026765
2.46	246	0.019	-1.008	-0.056	-3.4950438	2.4637194	-1.8334656	86.01818454	0.76203414	-0.97975818
2.47	247	0.02	-1.01	-0.055	-3.8961144	2.8074942	-2.0626488	85.97807748	0.78495246	-0.95111028
2.48	248	0.02	-1.009	-0.053	-4.4117766	2.8074942	-2.4064236	85.93797042	0.80787078	-0.92819196
2.49	249	0.019	-1.005	-0.045	-4.6982556	3.151269	-2.9793816	85.8864042	0.83651868	-0.89954406
2.5	250	0.018	-1.007	-0.042	-4.9847346	4.297185	-3.5523396	85.83483798	0.87662574	-0.859437
2.51	251	0.021	-1.013	-0.045	-5.3858052	5.156622	-3.7815228	85.78327176	0.9167328	-0.80787078
2.52	252	0.023	-1.017	-0.048	-6.0733548	5.2139178	-3.8388186	85.72024638	0.95683986	-0.76203414
2.53	253	0.019	-1.02	-0.054	-6.4171296	4.4117766	-4.010706	85.657221	0.99694692	-0.72192708
2.54	254	0.012	-1.025	-0.058	-6.875496	4.1252976	-4.4690724	85.58273646	1.04278356	-0.68182002
2.55	255	0.011	-1.024	-0.063	-7.1046792	4.0680018	-4.9274388	85.5139815	1.09434978	-0.64744254
2.56	256	0.014	-1.027	-0.051	-7.2192708	4.010706	-5.3858052	85.43949696	1.145916	-0.61306506
2.57	257	0.02	-1.03	-0.042	-8.307891	4.8128472	-6.016059	85.35355326	1.20894138	-0.572958
2.58	258	0.025	-1.025	-0.037	-8.6516658	5.443101	-6.302538	85.26760956	1.27196676	-0.52139178
2.59	259	0.029	-1.024	-0.038	-8.3651868	6.2452422	-6.7036086	85.18166586	1.3464513	-0.46982556
2.6	260	0.03	-1.024	-0.044	-7.9068204	6.7036086	-7.0473834	85.10145174	1.42093584	-0.40680018
2.61	261	0.028	-1.023	-0.055	-7.8495246	6.8182002	-7.448454	85.02123762	1.49542038	-0.34950438
2.62	262	0.027	-1.019	-0.06	-7.7922288	6.016059	-7.734933	84.94675308	1.5756345	-0.29220858
2.63	263	0.031	-1.013	-0.066	-6.7036086	4.9847346	-7.6776372	84.87799812	1.65584862	-0.25210152
2.64	264	0.03	-1.012	-0.073	-5.2712136	4.6409598	-7.6203414	84.8264319	1.73033316	-0.21199446
2.65	265	0.029	-1.014	-0.066	-4.4690724	4.6409598	-7.5057498	84.78059526	1.81054728	-0.17761698
2.66	266	0.024	-1.014	-0.053	-4.9847346	4.8128472	-7.448454	84.72902904	1.88503182	-0.13178034
2.67	267	0.023	-1.012	-0.046	-5.72958	5.0420304	-7.3338624	84.67173324	1.95951636	-0.09167328
2.68	268	0.021	-1.003	-0.04	-6.6463128	5.5576926	-7.3338624	84.60297828	2.03973048	-0.04583664
2.69	269	0.024	-0.988	-0.046	-6.589017	6.0733548	-7.2765666	84.5399529	2.11421502	0.00572958
2.7	270	0.022	-0.982	-0.046	-4.1252976	5.5576926	-7.3338624	84.50557542	2.18869956	0.05156622
2.71	271	0.02	-0.99	-0.041	-2.4637194	4.2398892	-7.448454	84.47692752	2.2631841	0.0859437
2.72	272	0.018	-0.998	-0.044	-2.578311	2.7501984	-7.5057498	84.4540092	2.33766864	0.10313244
2.73	273	0.019	-1.011	-0.05	-2.9220858	2.3491278	-7.448454	84.41963172	2.41215318	0.12032118
2.74	274	0.021	-1.019	-0.057	-3.724227	3.3804522	-7.2192708	84.38525424	2.48663772	0.14896908
2.75	275	0.021	-1.026	-0.065	-4.4690724	5.156622	-6.9327918	84.3394176	2.55539268	0.19480572
2.76	276	0.021	-1.028	-0.068	-5.3285094	6.5317212	-6.7609044	84.28785138	2.62987722	0.25210152
2.77	277	0.023	-1.024	-0.069	-6.5317212	6.5317212	-6.9327918	84.224826	2.69863218	0.30939732
2.78	278	0.029	-1.01	-0.079	-6.875496	4.583664	-7.3338624	84.15607104	2.7788463	0.3437748
2.79	279	0.038	-1.001	-0.076	-4.870143	1.432395	-7.8495246	84.10450482	2.85333084	0.34950438
2.8	280	0.053	-1	-0.059	-3.724227	-0.6302538	-8.1932994	84.07585692	2.93927454	0.33804522
2.81	281	0.067	-1.008	-0.055	-2.6356068	-2.0626488	-7.9641162	84.04720902	3.01375908	0.30939732
2.82	282	0.071	-1.013	-0.052	-4.010706	-2.8074942	-7.6203414	84.00137238	3.08824362	0.26929026
2.83	283	0.074	-1.016	-0.065	-5.156622	-2.4637194	-7.6776372	83.94980616	3.16272816	0.23491278
2.84	284	0.074	-1.017	-0.078	-5.3858052	-1.8334656	-7.8495246	83.89251036	3.2372127	0.21199446
2.85	285	0.07	-1.015	-0.082	-5.7868758	-1.432395	-8.4797784	83.82948498	3.3231564	0.18907614
2.86	286	0.067	-1.012	-0.088	-7.3911582	-1.432395	-9.5111028	83.75500044	3.41482968	0.16042824
2.87	287	0.061	-0.998	-0.105	-7.6203414	-0.0572958	-10.5424272	83.67478632	3.51796212	0.14896908
2.88	288	0.044	-0.986	-0.111	-7.1046792	2.5210152	-11.5737516	83.60603136	3.63255372	0.16042824
2.89	289	0.03	-0.978	-0.101	-8.021412	3.437748	-12.6623718	83.52581724	3.76433406	0.17761698
2.9	290	0.04	-0.982	-0.093	-8.021412	5.0420304	-13.3499214	83.44560312	3.8961144	0.21199446
2.91	291	0.057	-0.993	-0.09	-8.3651868	6.8182002	-13.5791046	83.35965942	4.03362432	0.26356068
2.92	292	0.08	-0.999	-0.097	-9.5111028	7.448454	-13.2353298	83.26798614	4.17113424	0.32658606
2.93	293	0.093	-0.998	-0.111	-10.1986524	6.6463128	-12.5477802	83.1648537	4.30291458	0.3724227
2.94	294	0.107	-0.998	-0.122	-10.599723	6.5317212	-12.2613012	83.06172126	4.42896534	0.42398892
2.95	295	0.109	-0.995	-0.117	-11.0580894	7.3911582	-12.032118	82.94712966	4.5550161	0.48128472
2.96	296	0.105	-0.99	-0.115	-11.9748222	8.021412	-12.032118	82.83253806	4.68106686	0.5443101
2.97	297	0.105	-0.988	-0.123	-12.4904844	8.3651868	-12.1467096	82.7064873	4.80711762	0.61306506
2.98	298	0.104	-0.991	-0.114	-13.464513	8.5370742	-12.032118	82.57470696	4.93316838	0.68182002
2.99	299	0.104	-0.982	-0.113	-15.0114996	7.9641162	-12.0894138	82.42573788	5.05921914	0.73911582
3	300	0.104	-0.978	-0.123	-14.7250206	7.1046792	-12.318597	82.28249838	5.19099948	0.79641162
3.01	301	0.102	-0.98	-0.13	-15.183387	6.3598338	-12.6623718	82.12779972	5.31705024	0.83651868
3.02	302	0.109	-0.986	-0.14	-15.5844576	6.6463128	-13.0061466	81.97310106	5.45456016	0.8880849
3.03	303	0.119	-0.995	-0.154	-16.5584862	7.6776372	-13.0634424	81.80694324	5.59207008	0.93965112
3.04	304	0.124	-1.004	-0.158	-18.2773602	8.3651868	-12.6623718	81.62932626	5.72385042	1.0026765
3.05	305	0.13	-1.008	-0.155	-19.2513888	7.6203414	-11.9748222	81.43452054	5.84990118	1.0599723
3.06	306	0.126	-1.009	-0.161	-19.3659804	6.0733548	-10.886202	81.23971482	5.96449278	1.10580894
3.07	307	0.124	-1.004	-0.166	-19.2513888	4.4117766	-10.1986524	81.0449091	6.06762522	1.12872726
3.08	308	0.13	-1.003	-0.157	-18.907614	3.0366774	-9.453807	80.85583296	6.16502808	1.145916
3.09	309	0.13	-1.001	-0.151	-19.4232762	1.0313244	-9.0527364	80.65529766	6.25097178	1.14018642
3.1	310	0.127	-0.991	-0.153	-20.4546006	-0.9167328	-9.167328	80.4433032	6.34264506	1.11153852
3.11	311	0.118	-0.987	-0.154	-21.0848544	-2.2345362	-9.7975818	80.22557916	6.42858876	1.07143146
3.12	312	0.113	-0.985	-0.152	-22.0015872	-3.151269	-10.7716104	79.99639596	6.5317212	1.01986524
3.13	313	0.115	-0.982	-0.161	-22.8610242	-4.010706	-11.8602306	79.7557536	6.64058322	0.95683986
3.14	314	0.12	-0.984	-0.169	-23.3193906	-4.870143	-12.7196676	79.51511124	6.75517482	0.88235532
3.15	315	0.126	-0.984	-0.171	-24.1788276	-5.3858052	-13.464513	79.25728014	6.875496	0.8021412
3.16	316	0.132	-0.985	-0.169	-24.8663772	-6.1306506	-13.8655836	78.99371946	7.00154676	0.7161975
3.17	317	0.134	-0.985	-0.169	-26.0122932	-8.4797784	-13.9801752	78.71869962	7.12186794	0.6016059
3.18	318	0.135	-0.987	-0.176	-27.3300966	-11.8029348	-14.1520626	78.42076146	7.23645954	0.45263682
3.19	319	0.14	-0.988	-0.176	-28.9916748	-13.5218088	-14.32395	78.11136414	7.34532156	0.29220858
3.2	320	0.14	-0.978	-0.169	-30.3094782	-13.5791046	-15.0114996	77.78477808	7.46564274	0.12605076
3.21	321	0.149	-0.982	-0.179	-30.7678446	-13.0061466	-15.8136408	77.44673286	7.5916935	-0.03437748
3.22	322	0.158	-0.984	-0.19	-32.7159018	-12.318597	-16.902261	77.09722848	7.72920342	-0.19480572
3.23	323	0.168	-0.988	-0.202	-33.9191136	-10.599723	-17.6471064	76.73626494	7.8781725	-0.3437748
3.24	324	0.16	-0.994	-0.209	-34.6066632	-10.599723	-18.2773602	76.36384224	8.02714158	-0.49274388
3.25	325	0.147	-0.996	-0.234	-35.0077338	-10.7716104	-18.9649098	75.98568996	8.18756982	-0.64744254
3.26	326	0.136	-0.998	-0.24	-35.0077338	-13.5791046	-19.194093	75.60753768	8.3365389	-0.82505952
3.27	327	0.122	-0.994	-0.227	-35.0650296	-18.2200644	-19.1367972	75.21792624	8.4797784	-1.05424272
3.28	328	0.121	-0.994	-0.205	-35.0077338	-19.6524594	-19.2513888	74.8283148	8.61155874	-1.30061466
3.29	329	0.127	-0.986	-0.19	-36.2109456	-19.7097552	-19.3659804	74.4272442	8.74906866	-1.5469866
3.3	330	0.133	-0.976	-0.185	-37.0130868	-19.4232762	-19.194093	74.02044402	8.880849	-1.79335854
3.31	331	0.132	-0.967	-0.202	-37.5860448	-18.1627686	-19.0795014	73.60218468	9.01262934	-2.02254174
3.32	332	0.133	-0.962	-0.222	-38.4454818	-16.2720072	-19.480572	73.17819576	9.15586884	-2.24026578
3.33	333	0.128	-0.962	-0.242	-38.7892566	-14.32395	-19.8243468	72.75420684	9.29910834	-2.44080108
3.34	334	0.12	-0.97	-0.255	-39.247623	-11.5737516	-20.2254174	72.33021792	9.45953658	-2.61841806
3.35	335	0.116	-0.976	-0.253	-40.5654264	-9.167328	-20.7983754	71.89476984	9.61996482	-2.77311672
3.36	336	0.112	-0.963	-0.265	-41.4821592	-7.7922288	-21.3140376	71.4478626	9.7975818	-2.91635622
3.37	337	0.114	-0.956	-0.285	-40.680018	-6.016059	-21.3713334	71.01241452	9.97519878	-3.04813656
3.38	338	0.116	-0.949	-0.288	-39.9351726	-5.3285094	-21.3713334	70.5884256	10.15281576	-3.17418732
3.39	339	0.132	-0.936	-0.288	-39.0757356	-5.156622	-20.912967	70.16443668	10.33043274	-3.2945085
3.4	340	0.149	-0.929	-0.294	-38.2162986	-3.8388186	-20.05353	69.76336608	10.50232014	-3.40337052
3.41	341	0.157	-0.922	-0.298	-38.674665	-3.151269	-19.3659804	69.35083632	10.66847796	-3.50650296
3.42	342	0.157	-0.916	-0.303	-40.4508348	-2.2345362	-19.0222056	68.92111782	10.8289062	-3.59817624
3.43	343	0.157	-0.909	-0.312	-41.3102718	-1.718874	-19.0795014	68.48566974	11.0007936	-3.68984952
3.44	344	0.16	-0.903	-0.328	-41.7113424	-0.6875496	-19.5378678	68.04449208	11.172681	-3.77006364
3.45	345	0.163	-0.896	-0.321	-41.9978214	0	-20.1108258	67.60331442	11.35029798	-3.85027776
3.46	346	0.16	-0.889	-0.298	-42.5134836	1.3750992	-19.8243468	67.15640718	11.53364454	-3.91903272
3.47	347	0.162	-0.877	-0.3	-43.1437374	2.291832	-19.3086846	66.70949994	11.71126152	-3.97632852
3.48	348	0.174	-0.881	-0.319	-42.1697088	3.151269	-17.8762896	66.26832228	11.88314892	-4.02216516
3.49	349	0.204	-0.901	-0.345	-42.6280752	4.0680018	-15.2406828	65.8328742	12.032118	-4.04508348
3.5	350	0.229	-0.917	-0.35	-44.3469492	4.6409598	-11.8029348	65.38023738	12.15243918	-4.05654264
3.51	351	0.224	-0.926	-0.361	-46.3523022	3.7815228	-8.1932994	64.91041182	12.2326533	-4.05654264
3.52	352	0.197	-0.928	-0.383	-48.4722468	2.3491278	-5.72958	64.41193836	12.2899491	-4.06227222
3.53	353	0.149	-0.906	-0.377	-48.414951	2.0626488	-5.3285094	63.91919448	12.34151532	-4.07373138
3.54	354	0.104	-0.889	-0.379	-45.8939358	4.297185	-6.9327918	63.4550985	12.41599986	-4.0680018
3.55	355	0.069	-0.87	-0.393	-43.3729206	2.1772404	-9.167328	63.00819126	12.4904844	-4.09092012
3.56	356	0.076	-0.854	-0.386	-40.680018	-1.6042824	-11.1153852	62.58420234	12.5764281	-4.15967508
3.57	357	0.128	-0.845	-0.335	-39.5913978	-2.6356068	-12.3758928	62.16021342	12.66810138	-4.24561878
3.58	358	0.189	-0.859	-0.333	-38.7892566	-2.1772404	-12.5477802	61.74768366	12.76550424	-4.3258329
3.59	359	0.22	-0.869	-0.322	-38.5600734	-3.2085648	-11.3445684	61.3351539	12.84571836	-4.4117766
3.6	360	0.239	-0.865	-0.33	-38.7319608	-5.6149884	-10.1413566	60.92835372	12.90301416	-4.51490904
3.61	361	0.235	-0.863	-0.342	-38.3308902	-7.8495246	-9.9121734	60.51582396	12.9488508	-4.6409598
3.62	362	0.204	-0.854	-0.355	-38.4454818	-7.5630456	-10.9434978	60.09756462	13.0061466	-4.76701056
3.63	363	0.161	-0.844	-0.37	-37.6433406	-5.5003968	-12.0894138	59.69076444	13.08063114	-4.87587258
3.64	364	0.126	-0.84	-0.398	-35.9817624	-4.0680018	-13.5791046	59.301153	13.17230442	-4.9847346
3.65	365	0.102	-0.841	-0.401	-35.236917	-3.4950438	-14.8396122	58.92300072	13.2639777	-5.09359662
3.66	366	0.094	-0.837	-0.365	-35.523396	-2.86479	-15.9855282	58.53338928	13.38429888	-5.20818822
3.67	367	0.098	-0.83	-0.356	-35.1796212	-1.8334656	-16.1574156	58.155237	13.50462006	-5.31132066
3.68	368	0.107	-0.836	-0.344	-33.804522	-0.1145916	-15.8136408	57.78854388	13.6364004	-5.40299394
3.69	369	0.109	-0.85	-0.344	-33.1169724	4.4117766	-15.2406828	57.4390395	13.7796399	-5.44883058
3.7	370	0.094	-0.858	-0.368	-33.4607472	7.7922288	-14.9542038	57.10672386	13.93433856	-5.46028974
3.71	371	0.072	-0.862	-0.367	-34.3201842	9.0527364	-14.7250206	56.75721948	14.0947668	-5.46601932
3.72	372	0.041	-0.853	-0.397	-35.5806918	8.4224826	-14.4385416	56.39052636	14.25519504	-5.47747848
3.73	373	0.033	-0.841	-0.432	-35.0650296	5.7868758	-14.037471	56.02383324	14.39843454	-5.51185596
3.74	374	0.044	-0.838	-0.415	-35.236917	-1.2605076	-12.7769634	55.64568096	14.4958374	-5.59779966
3.75	375	0.077	-0.839	-0.404	-35.7525792	-5.7868758	-11.0580894	55.26752868	14.53594446	-5.70666168
3.76	376	0.118	-0.849	-0.379	-35.6952834	-5.2712136	-8.7662574	54.87791724	14.57605152	-5.80406454
3.77	377	0.145	-0.853	-0.359	-36.382833	2.1772404	-7.6203414	54.50549454	14.64480648	-5.83271244
3.78	378	0.124	-0.841	-0.347	-34.950438	13.3499214	-8.2505952	54.16171974	14.7823164	-5.77541664
3.79	379	0.087	-0.83	-0.357	-32.7159018	23.6058696	-9.6256944	53.86378158	14.9828517	-5.63217714
3.8	380	0.025	-0.809	-0.336	-32.0283522	31.799169	-10.4851314	53.59449132	15.22922364	-5.42591226
3.81	381	-0.069	-0.79	-0.315	-30.4813656	38.1590028	-10.8289062	53.34811938	15.5271618	-5.17381074
3.82	382	-0.113	-0.779	-0.313	-28.8770832	44.977203	-9.453807	53.13612492	15.85947744	-4.85868384
3.83	383	-0.13	-0.761	-0.311	-28.7624916	50.3057124	-7.0473834	52.9413192	16.19752266	-4.48053156
3.84	384	-0.146	-0.745	-0.307	-29.5646328	55.9779966	-5.0993262	52.75797264	16.5584862	-4.04508348
3.85	385	-0.156	-0.726	-0.267	-28.5906042	64.5723666	-3.9534102	52.61473314	16.94236806	-3.5236917
3.86	386	-0.15	-0.719	-0.273	-30.4240698	72.3645954	-4.1825934	52.46576406	17.3892753	-2.94500412
3.87	387	-0.124	-0.727	-0.278	-31.4553942	75.057498	-4.7555514	52.31679498	17.85910086	-2.3491278
3.88	388	-0.103	-0.717	-0.258	-28.0176462	76.3753014	-4.583664	52.21366254	18.34038558	-1.73606274
3.89	389	-0.07	-0.713	-0.246	-30.5959572	77.062851	-3.8961144	52.08761178	18.81594072	-1.1172681
3.9	390	-0.052	-0.692	-0.254	-32.2002396	76.6044846	-2.9220858	51.9672906	19.27430712	-0.4870143
3.91	391	-0.018	-0.658	-0.26	-26.8144344	76.5471888	-3.2085648	51.89280606	19.74413268	0.12605076
3.92	392	-0.018	-0.642	-0.213	-24.5798982	76.2607098	-4.583664	51.84123984	20.2254174	0.7448454
3.93	393	-0.011	-0.676	-0.218	-23.6631654	77.1774426	-6.3598338	51.80113278	20.72962044	1.35218088
3.94	394	0	-0.673	-0.166	-22.5172494	75.4012728	-9.1100322	51.77248488	21.23955306	1.93659804
3.95	395	0.045	-0.614	-0.175	-25.9549974	74.1407652	-11.6883432	51.7094595	21.76094484	2.4923673
3.96	396	0.101	-0.59	-0.224	-23.0902074	75.2866812	-11.6883432	51.67508202	22.29379578	3.05386614
3.97	397	0.119	-0.574	-0.178	-22.1161788	78.1514712	-11.1153852	51.66935244	22.83810588	3.64974246
3.98	398	0.104	-0.554	-0.22	-17.4179232	75.916935	-11.0580894	51.7094595	23.37095682	4.22843004
3.99	399	0.073	-0.529	-0.323	-16.6730778	69.900876	-11.45916	51.7381074	23.87515986	4.7555514
4	400	0.062	-0.506	-0.305	-12.2040054	66.2912406	-13.178034	51.80686236	24.35644458	5.24829528
4.01	401	0.081	-0.491	-0.291	-8.880849	67.609044	-14.1520626	51.91572438	24.8663772	5.74103916
4.02	402	0.128	-0.456	-0.27	-10.7143146	64.4004792	-15.1260912	51.9959385	25.35912108	6.20513514
4.03	403	0.185	-0.491	-0.273	-15.5844576	63.9994086	-17.5325148	52.01885682	25.87478328	6.65204238
4.04	404	0.169	-0.449	-0.399	-19.194093	64.6296624	-18.6784308	52.01312724	26.39617506	7.09894962
4.05	405	0.097	-0.43	-0.326	-20.7983754	56.4936588	-18.907614	51.95583144	26.86600062	7.47137232
4.06	406	-0.025	-0.466	-0.455	-31.9137606	52.5975444	-21.3140376	51.77248488	27.33582618	7.7922288
4.07	407	-0.086	-0.452	-0.463	-35.9244666	52.6548402	-23.777757	51.54330168	27.82857006	8.09589654
4.08	408	-0.198	-0.393	-0.317	-35.8671708	48.5868384	-26.5852512	51.28547058	28.32131394	8.34226848
4.09	409	-0.304	-0.407	-0.349	-38.961144	44.5188366	-32.3148312	50.9646141	28.83697614	8.5084263
4.1	410	-0.423	-0.365	-0.268	-38.1590028	34.4347758	-36.6120162	50.59792098	29.29534254	8.55999252
4.11	411	-0.59	-0.318	-0.189	-38.9038482	32.7159018	-43.8885828	50.18539122	29.8224639	8.53134462
4.12	412	-0.703	-0.231	-0.195	-37.9871154	37.9298196	-52.425657	49.77286146	30.4527177	8.48550798
4.13	413	-0.71	-0.216	-0.166	-36.7839036	48.3003594	-66.0047616	49.35460212	31.24912932	8.4224826
4.14	414	-0.677	-0.238	-0.318	-33.1169724	83.3080932	-86.9177286	49.05666396	32.41796364	8.5084263
4.15	415	-0.719	-0.193	-0.677	-32.7159018	124.8475482	-112.6435428	48.83893992	34.0337052	8.7662574
4.16	416	-0.807	-0.247	-0.746	-6.9900876	198.1861722	-152.2922364	49.10823018	36.41721048	9.40797036
4.17	417	-0.438	-0.557	-0.396	11.6310474	261.3261438	-190.9669014	49.79577978	39.48826536	10.39345812
4.18	418	0.398	-0.523	-0.215	24.637194	302.4645282	-225.4016772	50.81564502	43.06352328	11.6310474
4.19	419	1.275	-0.192	0.04	43.8885828	307.2773754	-255.539268	52.06469346	46.88515314	12.8342592
4.2	420	1.986	-0.116	-0.021	56.4936588	292.3231716	-262.414764	53.4856293	50.65521678	14.02028226
4.21	421	2.493	0.227	0.336	33.6899304	275.0771358	-255.8830428	54.78624396	54.25339302	15.28078986
4.22	422	3.421	0.466	-0.23	-11.3445684	220.4169426	-268.0297524	55.07272296	57.6395748	15.80791122
4.23	423	3.899	0.547	-0.495	-3.724227	153.4954482	-268.717302	54.55706076	60.66479304	15.28078986
4.24	424	3.758	0.403	-0.497	20.5118964	110.9246688	-255.4246764	53.66324628	63.3405069	14.05465974
4.25	425	3.648	0.199	-0.881	1.6042824	48.3576552	-249.7523922	51.32557764	65.59796142	11.46488958
4.26	426	2.632	0.405	-0.38	-46.8106686	-12.6623718	-252.674478	46.85650524	67.41423828	7.11040878
4.27	427	1.858	0.586	0.18	-52.5975444	26.069589	-269.4621474	41.95198476	69.45969834	2.42361234
4.28	428	2.089	0.481	-0.511	-10.7143146	49.1597964	-262.0136934	37.08184176	71.48796966	-2.61268848
4.29	429	2.743	0.651	-0.36	-10.886202	1.6615782	-237.5483868	30.92827284	72.82869138	-8.94960396
4.3	430	2.886	1.26	-0.078	-43.4302164	-34.5493674	-257.3154378	22.36255074	73.67666922	-17.42938236
4.31	431	2.918	1.217	-0.313	-17.0168526	-53.4569814	-268.9464852	12.81134088	73.98606654	-27.19831626
4.32	432	2.914	0.969	-0.436	-10.4278356	-54.144531	-243.793629	4.07946096	73.81990872	-36.17656812
4.33	433	2.66	0.649	-0.81	13.5791046	-31.5699858	-186.8416038	-2.16578124	73.54488888	-42.83434008
4.34	434	2.275	0.615	-0.662	23.7204612	-27.6165756	-118.0866438	-5.80979412	73.1953845	-46.8966123
4.35	435	1.984	1.144	-0.824	0.1718874	-31.3980984	-80.1568242	-8.30216142	72.78858432	-49.5035712
4.36	436	1.779	1.084	-0.646	1.145916	-33.1742682	-58.9573782	-9.99238752	72.37605456	-51.29120016
4.37	437	1.339	0.405	-0.257	18.2200644	-30.7105488	-39.1330314	-10.8575541	72.00363186	-52.3970091
4.38	438	1.043	-0.201	-0.2	25.5539268	-21.485925	-17.9908812	-11.03517108	71.7629895	-52.8553755
4.39	439	0.861	-0.314	-0.23	11.5164558	-19.5951636	-5.2139178	-10.97787528	71.56818378	-52.92413046
4.4	440	0.822	-0.105	-0.258	-2.5210152	-28.8770832	-3.3804522	-10.9434978	71.2759752	-52.86683466
4.41	441	0.792	0.097	-0.331	-12.0894138	-33.5753388	-8.5370742	-11.1440331	70.9322004	-52.95277836
4.42	442	0.651	0.247	-0.304	-19.194093	-29.507337	-10.1413566	-11.47061916	70.62280308	-53.09601786
4.43	443	0.548	0.42	-0.271	-28.9916748	-13.6936962	-9.3392154	-11.9461743	70.46810442	-53.29082358
4.44	444	0.54	0.53	-0.244	-29.3927454	2.7501984	-6.875496	-12.43891818	70.47956358	-53.49708846
4.45	445	0.546	0.568	-0.246	-25.6112226	6.302538	-0.4583664	-12.93166206	70.51394106	-53.72054208
4.46	446	0.523	0.565	-0.226	-19.9962342	3.7815228	9.453807	-12.891555	70.57123686	-53.46271098
4.47	447	0.547	0.527	-0.171	-14.610429	-0.6875496	18.8503182	-12.51340272	70.59988476	-52.90121214
4.48	448	0.55	0.478	-0.101	-10.0840608	-5.3858052	26.5852512	-11.84877144	70.60561434	-52.08761178
4.49	449	0.527	0.448	0.037	-9.167328	-3.6669312	29.3354496	-11.10965562	70.62280308	-51.20525646
4.5	450	0.575	0.458	0.115	-7.1046792	3.437748	28.0176462	-10.55961594	70.7316651	-50.5348956
4.51	451	0.658	0.412	0.103	-2.1772404	6.1879464	25.6112226	-9.88925508	70.83479754	-49.79577978
4.52	452	0.732	0.308	0.057	2.9793816	3.724227	27.0436176	-9.1100322	70.91501166	-49.00509774
4.53	453	0.764	0.199	0.025	6.589017	-1.0313244	32.7159018	-8.1073557	70.95511872	-48.01960998
4.54	454	0.858	0.195	0.026	8.880849	-11.2299768	39.9924684	-6.8468481	70.89782292	-46.7820207
4.55	455	0.91	0.189	0.019	9.6256944	-21.5432208	46.0085274	-5.43737142	70.75458342	-45.38973276
4.56	456	0.975	0.235	-0.001	10.1413566	-35.523396	50.993262	-3.84454818	70.43945652	-43.81409826
4.57	457	0.984	0.231	-0.042	8.4224826	-48.6441342	50.420304	-2.32620948	69.9868197	-42.30148914
4.58	458	0.93	0.184	-0.094	5.0993262	-50.4775998	45.4928652	-1.04278356	69.4998054	-40.9951449
4.59	459	0.919	0.054	-0.175	2.4064236	-40.7946096	40.2789474	0.02291832	69.0987348	-39.88933596
4.6	460	0.948	-0.079	-0.237	-5.6722842	-28.934379	35.6952834	0.8880849	68.81798538	-38.9038482
4.61	461	1.043	-0.191	-0.323	-11.6310474	-22.7464326	30.5959572	1.52979786	68.5830726	-38.09597742
4.62	462	1.199	-0.222	-0.36	-17.0741484	-32.085648	22.058883	1.87357266	68.25648654	-37.54593774
4.63	463	1.311	-0.213	-0.374	-15.2979786	-47.841993	14.6677248	2.01681216	67.77520182	-37.23081084
4.64	464	1.376	-0.177	-0.415	-15.1260912	-58.155237	8.5370742	1.98816426	67.19651424	-37.0990305
4.65	465	1.367	-0.097	-0.433	-17.5898106	-68.0101146	2.86479	1.79908812	66.52615338	-37.12194882
4.66	466	1.248	-0.041	-0.487	-20.912967	-75.2293854	-0.4583664	1.4896908	65.78130798	-37.23654042
4.67	467	1.101	0.024	-0.557	-26.6998428	-74.0834694	-0.8021412	1.13445684	65.04792174	-37.33967286
4.68	468	0.975	0.075	-0.596	-30.4813656	-68.75496	0.572958	0.79068204	64.36610172	-37.39123908
4.69	469	0.907	0.065	-0.515	-29.4500412	-66.6923112	3.0939732	0.5156622	63.70147044	-37.37405034
4.7	470	0.883	0.026	-0.459	-33.804522	-62.2232388	5.8441716	0.25210152	63.0826758	-37.28810664
4.71	471	0.885	0.016	-0.422	-37.7579322	-57.009321	7.161975	-0.00572958	62.51544738	-37.16205588
4.72	472	0.911	-0.01	-0.418	-38.4454818	-52.6548402	7.1046792	-0.26929026	61.98832602	-37.03600512
4.73	473	0.918	-0.033	-0.441	-36.955791	-49.9619376	5.0420304	-0.56149884	61.48985256	-36.94433184
4.74	474	0.902	-0.05	-0.471	-35.4661002	-46.8679644	2.7501984	-0.87089616	61.020027	-36.89276562
4.75	475	0.87	-0.037	-0.502	-35.3515086	-44.4615408	2.6356068	-1.1745639	60.57884934	-36.8411994
4.76	476	0.845	-0.009	-0.512	-35.809875	-44.6334282	4.583664	-1.44958374	60.1319421	-36.74379654
4.77	477	0.807	0.014	-0.499	-34.2628884	-45.3209778	6.875496	-1.67303736	59.67930528	-36.60628662
4.78	478	0.772	0.015	-0.469	-29.6792244	-46.8679644	8.59437	-1.81627686	59.2152093	-36.42866964
4.79	479	0.728	0.025	-0.414	-28.8197874	-48.3003594	8.307891	-1.95378678	58.73965416	-36.25678224
4.8	480	0.693	0.034	-0.41	-27.0436176	-46.7533728	6.016059	-2.1199446	58.27555818	-36.13646106
4.81	481	0.716	0.039	-0.412	-24.9809688	-43.7166954	2.1199446	-2.32620948	57.8401101	-36.08489484
4.82	482	0.762	0.041	-0.431	-24.2361234	-42.3415962	-1.8334656	-2.578311	57.41612118	-36.10208358
4.83	483	0.812	0.044	-0.492	-22.5745452	-39.4195104	-5.3858052	-2.87051958	57.02078016	-36.1822977
4.84	484	0.846	0.038	-0.54	-20.5118964	-36.382833	-7.161975	-3.16845774	56.65981662	-36.29115972
4.85	485	0.886	0.056	-0.6	-19.1367972	-34.8358464	-7.9641162	-3.4663959	56.30458266	-36.42294006
4.86	486	0.878	0.093	-0.648	-18.2200644	-31.4553942	-9.167328	-3.76433406	55.98372618	-36.56044998
4.87	487	0.839	0.071	-0.683	-16.1574156	-30.8824362	-8.6516658	-4.03362432	55.67432886	-36.69223032
4.88	488	0.813	0.094	-0.697	-17.8189938	-31.5699858	-7.0473834	-4.28572584	55.35347238	-36.7839036
4.89	489	0.796	0.095	-0.691	-16.7876694	-30.8251404	-6.5317212	-4.5263682	55.04407506	-36.8698473
4.9	490	0.783	0.098	-0.678	-16.8449652	-30.7678446	-6.0733548	-4.76128098	54.72321858	-36.955791
4.91	491	0.753	0.097	-0.657	-14.8396122	-31.0543236	-5.6722842	-4.96181628	54.40809168	-37.01881638
4.92	492	0.716	0.103	-0.641	-13.2353298	-29.7365202	-5.5576926	-5.14516284	54.11015352	-37.08184176
4.93	493	0.717	0.119	-0.612	-11.3445684	-27.4446882	-5.72958	-5.31132066	53.8294041	-37.15059672
4.94	494	0.699	0.13	-0.599	-8.5370742	-25.7258142	-6.1879464	-5.45456016	53.571573	-37.22508126
4.95	495	0.691	0.152	-0.578	-7.448454	-24.0069402	-6.1306506	-5.62071798	53.3137419	-37.32248412
4.96	496	0.692	0.179	-0.561	-6.016059	-23.3766864	-5.2139178	-5.72385042	53.07882912	-37.37977992
4.97	497	0.686	0.195	-0.557	-4.0680018	-21.0275586	-4.1825934	-5.79833496	52.86683466	-37.42561656
4.98	498	0.697	0.202	-0.562	-2.9220858	-16.4438946	-3.5523396	-5.85563076	52.70067684	-37.45999404
4.99	499	0.704	0.203	-0.571	-1.4896908	-13.750992	-2.5210152	-5.89000824	52.56316692	-37.48864194
5	500	0.702	0.197	-0.59	-0.3437748	-12.5477802	-1.4896908	-5.99887026	52.40846826	-37.57458564
5.01	501	0.716	0.182	-0.599	0.1718874	-10.1986524	-0.572958	-5.99314068	52.30533582	-37.56885606
5.02	502	0.741	0.171	-0.605	1.8907614	-8.5370742	-0.2291832	-5.97022236	52.21939212	-37.56312648
5.03	503	0.738	0.152	-0.63	2.4064236	-6.302538	-0.4010706	-5.94157446	52.15636674	-37.56312648
5.04	504	0.732	0.147	-0.646	2.1772404	-4.0680018	-0.2291832	-5.91865614	52.11625968	-37.56312648
5.05	505	0.727	0.14	-0.649	2.7501984	-2.5210152	0.6302538	-6.01032942	52.01312724	-37.64907018
5.06	506	0.736	0.136	-0.649	3.6669312	-1.8334656	2.005353	-5.94730404	51.9959385	-37.6146927
5.07	507	0.748	0.14	-0.639	4.2398892	-1.718874	3.2085648	-5.86136034	51.98447934	-37.56312648
5.08	508	0.759	0.141	-0.627	4.6409598	-0.859437	3.6096354	-5.76968706	51.97874976	-37.50583068
5.09	509	0.786	0.137	-0.611	5.443101	0.6302538	3.8388186	-5.66655462	51.99020892	-37.4428053
5.1	510	0.788	0.133	-0.606	6.1306506	0	4.0680018	-5.63790672	51.98447934	-37.44853488
5.11	511	0.784	0.132	-0.611	5.8441716	0.3437748	4.5263682	-5.52331512	51.9959385	-37.37405034
5.12	512	0.78	0.125	-0.61	5.8441716	1.145916	5.443101	-5.39726436	52.01312724	-37.28810664
5.13	513	0.781	0.116	-0.598	5.6149884	1.6042824	6.1306506	-5.26548402	52.03604556	-37.19643336
5.14	514	0.788	0.108	-0.588	4.8128472	1.8907614	6.2452422	-5.13943326	52.05896388	-37.0990305
5.15	515	0.792	0.099	-0.575	4.1825934	2.578311	6.302538	-5.06494872	52.09907094	-37.03600512
5.16	516	0.789	0.097	-0.563	3.437748	3.724227	6.0733548	-4.9560867	52.139178	-36.94433184
5.17	517	0.797	0.095	-0.564	3.0366774	4.9847346	5.6149884	-4.85868384	52.1964738	-36.85838814
5.18	518	0.802	0.09	-0.568	3.2085648	5.443101	5.3285094	-4.76128098	52.2537696	-36.77817402
5.19	519	0.806	0.09	-0.574	2.578311	5.3858052	5.156622	-4.67533728	52.3110654	-36.6979599
5.2	520	0.816	0.09	-0.582	2.1199446	5.6149884	4.9847346	-4.6409598	52.38554994	-36.65785284
5.21	521	0.829	0.09	-0.577	1.8907614	5.0993262	4.9274388	-4.56074568	52.43711616	-36.5833683
5.22	522	0.827	0.088	-0.572	1.3750992	4.1825934	4.583664	-4.49199072	52.4829528	-36.50888376
5.23	523	0.828	0.09	-0.574	1.0886202	4.583664	3.8961144	-4.43469492	52.53451902	-36.45158796
5.24	524	0.833	0.087	-0.576	1.5469866	5.0993262	3.3231564	-4.37739912	52.58608524	-36.40002174
5.25	525	0.837	0.084	-0.568	1.6615782	4.6982556	2.6929026	-4.40031744	52.66056978	-36.4114809
5.26	526	0.839	0.084	-0.57	1.2032118	5.6722842	1.8334656	-4.36593996	52.71786558	-36.38856258
5.27	527	0.84	0.089	-0.571	1.5469866	5.443101	1.4896908	-4.33729206	52.77516138	-36.36564426
5.28	528	0.843	0.093	-0.57	1.5469866	3.8961144	1.5469866	-4.30291458	52.81526844	-36.34845552
5.29	529	0.844	0.094	-0.572	1.718874	2.291832	1.5469866	-4.2685371	52.83818676	-36.31980762
5.3	530	0.837	0.092	-0.57	1.9480572	1.2032118	1.432395	-4.38885828	52.89548256	-36.42294006
5.31	531	0.832	0.093	-0.56	2.1772404	0	1.4896908	-4.34302164	52.90121214	-36.40002174
5.32	532	0.827	0.092	-0.56	2.1199446	-0.4583664	1.3750992	-4.30291458	52.89548256	-36.37710342
5.33	533	0.827	0.087	-0.559	1.8334656	-0.5156622	1.0313244	-4.27426668	52.88975298	-36.35991468
5.34	534	0.827	0.08	-0.561	1.7761698	-1.4896908	0.572958	-4.24561878	52.87829382	-36.34845552
5.35	535	0.82	0.081	-0.567	1.0886202	-2.1772404	0.286479	-4.40604702	52.90121214	-36.48023586
5.36	536	0.818	0.088	-0.565	0.859437	-2.86479	0.1718874	-4.38885828	52.87256424	-36.47450628
5.37	537	0.816	0.089	-0.57	0.859437	-3.724227	0	-4.37739912	52.83245718	-36.47450628
5.38	538	0.814	0.088	-0.574	0.6875496	-4.1252976	-0.1718874	-4.37166954	52.79235012	-36.47450628
5.39	539	0.815	0.086	-0.575	0.3437748	-4.1825934	-0.286479	-4.36593996	52.75224306	-36.47450628
5.4	540	0.816	0.088	-0.573	-0.3437748	-4.5263682	-0.3437748	-4.48626114	52.72932474	-36.56617956
5.41	541	0.818	0.094	-0.576	-0.9740286	-4.6409598	-0.5156622	-4.50344988	52.6834881	-36.57190914
5.42	542	0.819	0.098	-0.574	-1.0313244	-4.5263682	-0.4583664	-4.51490904	52.63765146	-36.57763872
5.43	543	0.821	0.102	-0.574	-1.2605076	-4.5263682	-0.4583664	-4.53209778	52.59181482	-36.57763872
5.44	544	0.821	0.104	-0.578	-1.0886202	-4.5263682	-0.3437748	-4.54355694	52.54597818	-36.5833683
5.45	545	0.815	0.101	-0.577	-0.9167328	-4.5263682	-0.286479	-4.68106686	52.52305986	-36.68077116
5.46	546	0.808	0.102	-0.578	-0.9740286	-4.2398892	-0.4583664	-4.69252602	52.47722322	-36.68650074
5.47	547	0.798	0.103	-0.586	-0.9167328	-3.6096354	-0.5156622	-4.70398518	52.44284574	-36.69223032
5.48	548	0.795	0.106	-0.591	-0.859437	-2.9220858	-0.5156622	-4.71544434	52.41419784	-36.6979599
5.49	549	0.797	0.105	-0.595	-0.9740286	-2.578311	-0.3437748	-4.73263308	52.38554994	-36.70368948
5.5	550	0.799	0.106	-0.594	-0.9740286	-2.7501984	0	-4.9274388	52.36263162	-36.84692898
5.51	551	0.8	0.108	-0.59	-0.9167328	-3.3804522	0.286479	-4.9274388	52.32825414	-36.83546982
5.52	552	0.792	0.11	-0.593	-0.572958	-3.437748	0.4583664	-4.9274388	52.29387666	-36.82401066
5.53	553	0.786	0.109	-0.594	-0.0572958	-2.8074942	0.5156622	-4.91597964	52.26522876	-36.8125515
5.54	554	0.787	0.109	-0.592	0	-2.1199446	0.6875496	-4.90452048	52.24231044	-36.80109234
5.55	555	0.786	0.108	-0.594	0.1718874	-2.005353	0.9167328	-5.1279741	52.20793296	-36.96725016
5.56	556	0.786	0.109	-0.595	0.1718874	-2.005353	1.145916	-5.11078536	52.19074422	-36.95006142
5.57	557	0.788	0.112	-0.586	0.1145916	-1.718874	1.3178034	-5.08786704	52.17355548	-36.92141352
5.58	558	0.79	0.11	-0.584	0.2291832	-1.4896908	1.3178034	-5.06494872	52.16209632	-36.8984952
5.59	559	0.796	0.105	-0.588	0.1145916	-0.8021412	1.2032118	-5.04775998	52.15063716	-36.88130646
5.6	560	0.794	0.102	-0.592	0.1718874	-0.4583664	1.0886202	-5.40299394	52.14490758	-37.15059672
5.61	561	0.792	0.103	-0.595	0.2291832	-0.5156622	1.145916	-5.3858052	52.139178	-37.1276784
5.62	562	0.791	0.103	-0.594	0.4010706	-0.6302538	1.3750992	-5.36288688	52.13344842	-37.10476008
5.63	563	0.789	0.104	-0.593	0.6302538	-0.4010706	1.4896908	-5.33423898	52.13344842	-37.08184176
5.64	564	0.793	0.103	-0.591	0.3437748	0	1.4896908	-5.31132066	52.13344842	-37.05892344
5.65	565	0.8	0.1	-0.591	0.3437748	0.1145916	1.5469866	-5.59207008	52.16209632	-37.2709179
5.66	566	0.802	0.101	-0.588	0.4583664	0.0572958	1.4896908	-5.56915176	52.16209632	-37.24799958
5.67	567	0.8	0.099	-0.589	0.6875496	0.4583664	1.2032118	-5.54623344	52.1678259	-37.22508126
5.68	568	0.803	0.097	-0.587	0.6875496	0.6302538	0.9740286	-5.5290447	52.17355548	-37.2136221
5.69	569	0.806	0.098	-0.591	0.9167328	0.3437748	0.9167328	-5.50612638	52.17928506	-37.19643336
5.7	570	0.802	0.103	-0.59	0.9167328	0.1145916	0.859437	-5.84990118	52.21366254	-37.46572362
5.71	571	0.808	0.102	-0.583	0.6302538	-0.286479	0.7448454	-5.83271244	52.21366254	-37.45426446
5.72	572	0.812	0.099	-0.578	0.2291832	-0.6302538	0.859437	-5.8155237	52.20793296	-37.43707572
5.73	573	0.808	0.097	-0.574	0.1145916	-1.2605076	0.7448454	-5.80406454	52.1964738	-37.42561656
5.74	574	0.809	0.096	-0.573	0.286479	-1.6042824	0.5156622	-5.79260538	52.17928506	-37.4141574
5.75	575	0.805	0.096	-0.573	0.1718874	-1.432395	0.4010706	-6.07908438	52.2251217	-37.63188144
5.76	576	0.805	0.096	-0.577	0.0572958	-0.7448454	0.2291832	-6.0733548	52.21939212	-37.62615186
5.77	577	0.809	0.095	-0.583	0.0572958	-0.1145916	0.0572958	-6.0733548	52.21939212	-37.62615186
5.78	578	0.809	0.094	-0.587	0	-0.286479	-0.1145916	-6.0733548	52.21366254	-37.63188144
5.79	579	0.81	0.093	-0.588	-0.1145916	-0.572958	-0.286479	-6.07908438	52.20793296	-37.63188144
5.8	580	0.807	0.099	-0.591	-0.2291832	-1.145916	-0.286479	-6.37702254	52.21939212	-37.86679422
5.81	581	0.807	0.106	-0.588	-0.0572958	-1.5469866	-0.1718874	-6.38275212	52.20220338	-37.86679422
5.82	582	0.809	0.109	-0.588	0.3437748	-1.7761698	0	-6.37129296	52.18501464	-37.86679422
5.83	583	0.804	0.111	-0.589	0.4010706	-2.0626488	0.1145916	-6.36556338	52.16209632	-37.86106464
5.84	584	0.797	0.111	-0.593	0.5156622	-1.8907614	0.2291832	-6.35410422	52.14490758	-37.85533506
5.85	585	0.795	0.107	-0.592	0.6875496	-1.718874	0.4010706	-6.51453246	52.12771884	-37.98138582
5.86	586	0.794	0.104	-0.593	0.8021412	-1.6615782	0.5156622	-6.49734372	52.1105301	-37.96992666
5.87	587	0.796	0.102	-0.59	0.5156622	-1.6042824	0.5156622	-6.48588456	52.09907094	-37.9584675
5.88	588	0.795	0.101	-0.588	0.4010706	-1.8907614	0.4583664	-6.46869582	52.07615262	-37.94700834
5.89	589	0.792	0.103	-0.591	0.4583664	-1.6042824	0.4010706	-6.45723666	52.06469346	-37.94127876
5.9	590	0.795	0.109	-0.591	0.3437748	-1.3750992	0.572958	-6.65777196	52.05896388	-38.09024784
5.91	591	0.798	0.111	-0.591	0.1718874	-1.7761698	0.9167328	-6.64058322	52.04177514	-38.0730591
5.92	592	0.798	0.11	-0.597	0.4583664	-1.8334656	1.0886202	-6.6176649	52.0245864	-38.05587036
5.93	593	0.796	0.107	-0.59	0.572958	-1.8907614	1.3178034	-6.59474658	52.00739766	-38.03295204
5.94	594	0.794	0.103	-0.582	0.3437748	-1.8907614	1.3750992	-6.57182826	51.99020892	-38.00430414
5.95	595	0.799	0.102	-0.582	0.0572958	-1.432395	1.2032118	-6.72652692	52.00166808	-38.11889574
5.96	596	0.799	0.102	-0.584	0.1145916	-1.3750992	0.9167328	-6.71506776	51.99020892	-38.101707
5.97	597	0.798	0.101	-0.588	0	-1.8907614	0.859437	-6.69787902	51.97302018	-38.08451826
5.98	598	0.796	0.105	-0.586	0	-2.4064236	0.9740286	-6.68641986	51.95010186	-38.06732952
5.99	599	0.794	0.107	-0.59	0.1718874	-1.7761698	0.8021412	-6.66923112	51.93291312	-38.05014078
6	600	0.798	0.107	-0.592	0.4583664	-1.2605076	0.7448454	-6.86403684	51.93291312	-38.19910986
6.01	601	0.803	0.109	-0.597	0.5156622	-1.0886202	0.7448454	-6.8468481	51.92145396	-38.1876507
6.02	602	0.804	0.106	-0.599	0.6302538	-1.0313244	0.7448454	-6.82965936	51.9099948	-38.17046196
6.03	603	0.805	0.104	-0.595	0.6302538	-1.432395	0.859437	-6.80674104	51.89853564	-38.15327322
6.04	604	0.804	0.102	-0.591	0.572958	-1.6042824	0.859437	-6.7895523	51.88707648	-38.14181406
6.05	605	0.797	0.101	-0.592	0.6302538	-1.6615782	0.6302538	-6.92133264	51.87561732	-38.2449465
6.06	606	0.796	0.101	-0.594	0.7448454	-1.3750992	0.8021412	-6.9041439	51.86415816	-38.22775776
6.07	607	0.798	0.1	-0.592	0.7448454	-1.2605076	0.8021412	-6.88122558	51.84696942	-38.21056902
6.08	608	0.798	0.1	-0.586	0.859437	-1.5469866	0.6875496	-6.86403684	51.83551026	-38.19910986
6.09	609	0.795	0.1	-0.588	1.0886202	-1.4896908	0.4010706	-6.84111852	51.81832152	-38.1876507
6.1	610	0.8	0.102	-0.591	1.0313244	-0.9167328	0.286479	-7.01300592	51.83551026	-38.32516062
6.11	611	0.804	0.103	-0.593	0.859437	-0.9740286	0.4583664	-6.99581718	51.8240511	-38.31943104
6.12	612	0.803	0.103	-0.597	0.7448454	-1.4896908	0.5156622	-6.97862844	51.81259194	-38.30797188
6.13	613	0.8	0.102	-0.595	0.859437	-1.6042824	0.6875496	-6.9614397	51.7954032	-38.29078314
6.14	614	0.793	0.103	-0.593	1.145916	-1.432395	0.572958	-6.93852138	51.78394404	-38.27932398
6.15	615	0.789	0.101	-0.595	1.3178034	-0.859437	0.4010706	-7.08176088	51.77821446	-38.39964516
6.16	616	0.788	0.1	-0.595	1.3750992	-0.572958	0.3437748	-7.06457214	51.77248488	-38.39391558
6.17	617	0.788	0.103	-0.6	1.3178034	-0.1145916	0.1718874	-7.0473834	51.77248488	-38.388186
6.18	618	0.792	0.105	-0.601	1.3178034	0.1718874	0.286479	-7.03019466	51.77248488	-38.388186
6.19	619	0.797	0.106	-0.594	1.2032118	0	0.4010706	-7.01300592	51.77248488	-38.38245642
6.2	620	0.795	0.108	-0.589	0.9740286	0	0.4583664	-7.31667366	51.81259194	-38.6173692
6.21	621	0.796	0.105	-0.588	0.8021412	0.0572958	0.572958	-7.29948492	51.81259194	-38.61163962
6.22	622	0.795	0.103	-0.591	0.859437	-0.1718874	0.572958	-7.28229618	51.81259194	-38.60018046
6.23	623	0.793	0.104	-0.594	0.6875496	-0.2291832	0.6875496	-7.26510744	51.81259194	-38.5887213
6.24	624	0.795	0.104	-0.597	0.8021412	0	0.6875496	-7.2479187	51.81259194	-38.57726214
6.25	625	0.795	0.106	-0.594	0.8021412	-0.1145916	0.7448454	-7.4771019	51.81832152	-38.75487912
6.26	626	0.797	0.108	-0.593	0.8021412	-0.0572958	0.859437	-7.45418358	51.81832152	-38.74341996
6.27	627	0.804	0.109	-0.598	1.0886202	-0.2291832	1.0313244	-7.43126526	51.81832152	-38.72623122
6.28	628	0.8	0.107	-0.594	1.3750992	-0.6875496	1.2032118	-7.40261736	51.81259194	-38.7033129
6.29	629	0.801	0.099	-0.586	1.0313244	-1.0886202	1.2032118	-7.37396946	51.80686236	-38.68039458
6.3	630	0.801	0.095	-0.587	0.9740286	-0.9740286	1.2605076	-7.44272442	51.81259194	-38.73769038
6.31	631	0.797	0.102	-0.587	1.0313244	-0.9167328	1.0886202	-7.4198061	51.80686236	-38.72050164
6.32	632	0.799	0.105	-0.587	0.6875496	-1.0886202	0.9740286	-7.39688778	51.7954032	-38.7033129
6.33	633	0.803	0.102	-0.587	0.3437748	-1.0313244	0.9167328	-7.37969904	51.78394404	-38.68612416
6.34	634	0.804	0.098	-0.592	0.4583664	-1.145916	0.9167328	-7.3625103	51.77821446	-38.66893542
6.35	635	0.803	0.097	-0.589	0.4010706	-1.6615782	0.8021412	-7.45991316	51.78394404	-38.74341996
6.36	636	0.799	0.098	-0.589	0.0572958	-1.7761698	0.6875496	-7.448454	51.77248488	-38.72623122
6.37	637	0.798	0.098	-0.594	0.2291832	-1.3750992	0.7448454	-7.43699484	51.75529614	-38.71477206
6.38	638	0.796	0.096	-0.597	0.286479	-1.3178034	0.5156622	-7.42553568	51.74383698	-38.7033129
6.39	639	0.794	0.096	-0.596	0.286479	-1.3750992	0.5156622	-7.41407652	51.73237782	-38.69185374
6.4	640	0.795	0.099	-0.596	0.1718874	-1.432395	0.4583664	-7.5630456	51.73237782	-38.80644534
6.41	641	0.796	0.104	-0.595	0	-1.718874	0.5156622	-7.55158644	51.71518908	-38.79498618
6.42	642	0.797	0.107	-0.597	0.2291832	-1.9480572	0.6302538	-7.54012728	51.69800034	-38.77779744
6.43	643	0.797	0.105	-0.597	0.572958	-1.5469866	0.572958	-7.52293854	51.6808116	-38.76633828
6.44	644	0.795	0.102	-0.593	0.4583664	-1.3750992	0.4010706	-7.51147938	51.66935244	-38.7606087
6.45	645	0.788	0.102	-0.598	0.5156622	-1.2032118	0.3437748	-7.68336678	51.64643412	-38.89811862
6.46	646	0.79	0.105	-0.601	0.6302538	-0.8021412	0.286479	-7.67190762	51.64070454	-38.88665946
6.47	647	0.79	0.107	-0.593	0.6875496	-0.859437	0.286479	-7.66044846	51.63497496	-38.88092988
6.48	648	0.792	0.108	-0.595	0.6875496	-0.6302538	0.1718874	-7.6489893	51.62924538	-38.88092988
6.49	649	0.795	0.109	-0.599	0.859437	-0.286479	0.1718874	-7.63753014	51.6235158	-38.8752003
6.5	650	0.798	0.106	-0.597	0.6875496	-0.3437748	0.286479	-7.85525418	51.64643412	-39.0470877
6.51	651	0.798	0.106	-0.596	0.5156622	-0.8021412	0.4583664	-7.84379502	51.63497496	-39.04135812
6.52	652	0.798	0.107	-0.596	0.859437	-1.2605076	0.6875496	-7.82660628	51.6235158	-39.02416938
6.53	653	0.797	0.109	-0.596	0.9740286	-1.3750992	0.8021412	-7.80368796	51.61205664	-39.01271022
6.54	654	0.79	0.107	-0.595	1.0313244	-1.432395	0.859437	-7.78076964	51.60059748	-38.99552148
6.55	655	0.789	0.106	-0.597	1.0313244	-1.2605076	0.859437	-7.86671334	51.58913832	-39.06427644
6.56	656	0.79	0.107	-0.601	1.0886202	-0.7448454	0.9167328	-7.83806544	51.58340874	-39.0470877
6.57	657	0.79	0.104	-0.6	1.0886202	-0.572958	0.9740286	-7.81514712	51.57767916	-39.02989896
6.58	658	0.792	0.103	-0.6	1.0313244	-0.859437	0.859437	-7.7922288	51.57194958	-39.01271022
6.59	659	0.793	0.101	-0.598	1.0313244	-0.7448454	1.0313244	-7.76931048	51.56622	-38.99552148
6.6	660	0.796	0.102	-0.591	0.9167328	-0.9167328	1.0313244	-7.84379502	51.57767916	-39.05281728
6.61	661	0.796	0.104	-0.593	0.859437	-1.145916	0.9740286	-7.8208767	51.56622	-39.03562854
6.62	662	0.794	0.103	-0.596	0.9167328	-1.145916	0.9740286	-7.7922288	51.55476084	-39.0184398
6.63	663	0.794	0.103	-0.6	0.859437	-0.9740286	1.0313244	-7.76931048	51.54903126	-39.00125106
6.64	664	0.795	0.1	-0.602	0.9167328	-1.0313244	1.0886202	-7.74639216	51.5375721	-38.98406232
6.65	665	0.792	0.098	-0.6	0.9167328	-1.0313244	1.0313244	-7.82660628	51.53184252	-39.04135812
6.66	666	0.792	0.099	-0.596	0.9167328	-0.9740286	0.9167328	-7.80368796	51.52611294	-39.02416938
6.67	667	0.794	0.1	-0.593	1.0313244	-0.6302538	0.859437	-7.78076964	51.52038336	-39.01271022
6.68	668	0.798	0.102	-0.595	0.7448454	-0.2291832	0.6875496	-7.7635809	51.51465378	-39.00125106
6.69	669	0.8	0.104	-0.597	0.0572958	0.286479	0.2291832	-7.7635809	51.52038336	-38.99552148
6.7	670	0.798	0.103	-0.597	0.1145916	0.1145916	0.2291832	-8.25632478	51.58913832	-39.37367376
6.71	671	0.796	0.101	-0.595	0.0572958	0	0.1718874	-8.2505952	51.58913832	-39.37367376
6.72	672	0.792	0.103	-0.599	0	0	0.1718874	-8.2505952	51.58913832	-39.36794418
6.73	673	0.791	0.102	-0.601	0.1145916	0.1145916	0.1718874	-8.24486562	51.58913832	-39.36794418
6.74	674	0.794	0.101	-0.599	0.2291832	0.1718874	0.1718874	-8.23913604	51.5948679	-39.3622146
6.75	675	0.795	0.101	-0.598	0.3437748	0.1718874	0.1718874	-8.51988546	51.63497496	-39.58566822
6.76	676	0.796	0.101	-0.595	0.2291832	-0.1718874	0.1145916	-8.51988546	51.62924538	-39.57993864
6.77	677	0.792	0.101	-0.597	0	-0.3437748	0.1145916	-8.51415588	51.62924538	-39.57993864
6.78	678	0.794	0.102	-0.597	-0.1145916	-0.4583664	0.1718874	-8.51415588	51.6235158	-39.57420906
6.79	679	0.793	0.106	-0.596	-0.286479	-0.9167328	0.1145916	-8.51415588	51.61205664	-39.56847948
6.8	680	0.79	0.108	-0.599	0	-0.9167328	0.2291832	-8.69750244	51.5948679	-39.71171898
6.81	681	0.789	0.104	-0.598	0	-0.572958	0.2291832	-8.69177286	51.58913832	-39.7059894
6.82	682	0.794	0.102	-0.596	-0.2291832	-0.3437748	0.1718874	-8.69177286	51.58340874	-39.7059894
6.83	683	0.793	0.102	-0.595	-0.1718874	-0.4010706	0	-8.69750244	51.57767916	-39.7059894
6.84	684	0.794	0.099	-0.599	-0.1718874	-0.1145916	-0.1145916	-8.69750244	51.57767916	-39.7059894
6.85	685	0.793	0.101	-0.599	-0.4583664	-0.1145916	-0.2291832	-8.88657858	51.57194958	-39.8492289
6.86	686	0.791	0.101	-0.601	-0.3437748	-0.3437748	-0.1718874	-8.89230816	51.56622	-39.85495848
6.87	687	0.791	0.1	-0.601	-0.3437748	-0.3437748	-0.1145916	-8.89803774	51.56622	-39.85495848
6.88	688	0.79	0.101	-0.603	-0.4010706	-0.286479	0	-8.90376732	51.56049042	-39.85495848
6.89	689	0.791	0.104	-0.603	-0.286479	0	0	-8.90376732	51.56049042	-39.85495848
6.9	690	0.795	0.105	-0.603	-0.1145916	0.3437748	0	-9.31629708	51.57767916	-40.17008538
6.91	691	0.794	0.104	-0.604	0.1145916	0.4010706	0	-9.3105675	51.58340874	-40.17008538
6.92	692	0.789	0.1	-0.604	0.1145916	0.4010706	-0.1145916	-9.31629708	51.58913832	-40.17581496
6.93	693	0.789	0.094	-0.602	0	0.5156622	-0.1718874	-9.31629708	51.5948679	-40.18154454
6.94	694	0.783	0.101	-0.603	0	0.286479	-0.2291832	-9.32202666	51.5948679	-40.18727412
6.95	695	0.781	0.104	-0.604	-0.0572958	0.2291832	-0.4583664	-9.45953658	51.56049042	-40.29613614
6.96	696	0.787	0.101	-0.605	-0.286479	0.4010706	-0.3437748	-9.46526616	51.56622	-40.30186572
6.97	697	0.79	0.1	-0.607	-0.2291832	0.286479	-0.1718874	-9.47099574	51.57194958	-40.3075953
6.98	698	0.793	0.099	-0.603	-0.0572958	-0.0572958	-0.2291832	-9.47672532	51.56622	-40.31332488
6.99	699	0.79	0.1	-0.595	-0.2291832	-0.1718874	-0.286479	-9.4824549	51.56622	-40.31332488
7	700	0.792	0.102	-0.592	-0.286479	0.1145916	-0.2291832	-9.60850566	51.5948679	-40.41072774
7.01	701	0.793	0.102	-0.598	-0.2291832	0.4010706	-0.286479	-9.61423524	51.5948679	-40.41645732
7.02	702	0.791	0.102	-0.602	-0.286479	0.572958	-0.286479	-9.6256944	51.60059748	-40.4221869
7.03	703	0.793	0.102	-0.603	-0.2291832	0.4010706	-0.2291832	-9.63142398	51.60632706	-40.42791648
7.04	704	0.79	0.103	-0.602	-0.2291832	0.0572958	-0.1718874	-9.63715356	51.60632706	-40.43364606
7.05	705	0.792	0.105	-0.603	-0.1145916	0.1718874	-0.1145916	-9.84914802	51.5948679	-40.59980388
7.06	706	0.796	0.104	-0.601	0	0.1718874	0	-9.84914802	51.60059748	-40.59980388
7.07	707	0.795	0.102	-0.601	0.1145916	0.1145916	-0.1145916	-9.8548776	51.60059748	-40.60553346
7.08	708	0.792	0.098	-0.601	0.0572958	0.286479	-0.2291832	-9.8548776	51.60059748	-40.61126304
7.09	709	0.791	0.101	-0.602	0	0.1718874	-0.286479	-9.86060718	51.60059748	-40.61699262
7.1	710	0.79	0.103	-0.603	0.1718874	0.2291832	-0.286479	-9.9694692	51.58913832	-40.70293632
7.11	711	0.791	0.105	-0.603	0.3437748	0.572958	-0.2291832	-9.9694692	51.5948679	-40.7086659
7.12	712	0.79	0.107	-0.601	0.286479	0.9167328	-0.1718874	-9.9694692	51.60632706	-40.71439548
7.13	713	0.792	0.104	-0.6	0.1718874	1.0886202	-0.1145916	-9.9694692	51.61778622	-40.72012506
7.14	714	0.792	0.102	-0.6	0	1.0313244	-0.1718874	-9.97519878	51.6235158	-40.72585464
7.15	715	0.793	0.101	-0.598	-0.286479	1.0313244	-0.1718874	-10.026765	51.64070454	-40.7659617
7.16	716	0.795	0.102	-0.599	-0.4010706	0.9167328	-0.1145916	-10.03249458	51.6521637	-40.7659617
7.17	717	0.788	0.102	-0.602	-0.2291832	0.6302538	-0.1718874	-10.03822416	51.65789328	-40.77169128
7.18	718	0.788	0.102	-0.606	-0.2291832	0.572958	-0.1718874	-10.04395374	51.66362286	-40.77742086
7.19	719	0.786	0.102	-0.607	-0.1718874	0.5156622	0	-10.04968332	51.66935244	-40.77742086
7.2	720	0.786	0.104	-0.607	-0.1145916	0.1145916	0	-10.26167778	51.57194958	-40.94930826
7.21	721	0.788	0.105	-0.605	-0.1145916	-0.1145916	0.0572958	-10.26167778	51.57194958	-40.94930826
7.22	722	0.789	0.104	-0.599	-0.0572958	-0.2291832	0.1718874	-10.26167778	51.56622	-40.94357868
7.23	723	0.791	0.103	-0.595	-0.1718874	0	0.0572958	-10.26167778	51.56622	-40.94357868
7.24	724	0.793	0.103	-0.595	-0.1718874	0.1718874	0.0572958	-10.26167778	51.57194958	-40.94357868
7.25	725	0.794	0.103	-0.595	-0.1145916	0	0.0572958	-10.47940182	51.61778622	-41.10400692
7.26	726	0.795	0.104	-0.596	-0.1145916	0.1145916	0.0572958	-10.47940182	51.61778622	-41.10400692
7.27	727	0.795	0.104	-0.593	-0.0572958	0	0.1145916	-10.47940182	51.61778622	-41.10400692
7.28	728	0.796	0.101	-0.598	-0.0572958	0	0	-10.47940182	51.61778622	-41.10400692
7.29	729	0.796	0.101	-0.602	-0.2291832	0.3437748	0	-10.4851314	51.6235158	-41.10400692
7.3	730	0.795	0.1	-0.603	-0.1145916	0.2291832	0	-10.54815678	51.64070454	-41.14984356
7.31	731	0.794	0.098	-0.599	-0.1145916	-0.4010706	-0.1145916	-10.54815678	51.63497496	-41.14984356
7.32	732	0.791	0.097	-0.601	-0.2291832	-0.6875496	-0.286479	-10.55388636	51.62924538	-41.15557314
7.33	733	0.791	0.1	-0.602	-0.3437748	-0.4583664	-0.286479	-10.55961594	51.6235158	-41.16130272
7.34	734	0.793	0.102	-0.601	-0.4583664	-0.4583664	-0.4010706	-10.5710751	51.61778622	-41.1670323
7.35	735	0.793	0.105	-0.605	-0.5156622	-0.3437748	-0.4010706	-10.62264132	51.60059748	-41.20713936
7.36	736	0.791	0.108	-0.606	-0.286479	-0.0572958	-0.3437748	-10.6283709	51.60059748	-41.21286894
7.37	737	0.789	0.106	-0.605	-0.0572958	0.0572958	-0.4010706	-10.63983006	51.60059748	-41.21859852
7.38	738	0.786	0.102	-0.605	0.0572958	0.1145916	-0.4583664	-10.64555964	51.60059748	-41.2243281
7.39	739	0.786	0.103	-0.604	0	0.4010706	-0.4010706	-10.65128922	51.60632706	-41.23578726
7.4	740	0.785	0.105	-0.605	0.286479	0.572958	-0.5156622	-10.66847796	51.58913832	-41.25870558
7.41	741	0.785	0.1	-0.606	0.4010706	0.7448454	-0.5156622	-10.67420754	51.60059748	-41.27016474
7.42	742	0.785	0.109	-0.605	0.1145916	0.6875496	-0.2291832	-10.67420754	51.60632706	-41.27589432
7.43	743	0.787	0.111	-0.603	0.0572958	0.6875496	-0.1145916	-10.67993712	51.61205664	-41.27589432
7.44	744	0.788	0.109	-0.603	0.2291832	0.9740286	0	-10.67993712	51.6235158	-41.2816239
7.45	745	0.788	0.106	-0.599	0.286479	0.9740286	0	-10.72004418	51.6235158	-41.31600138
7.46	746	0.787	0.105	-0.6	0.1145916	1.3178034	0	-10.72577376	51.64070454	-41.32173096
7.47	747	0.791	0.101	-0.603	0.2291832	1.6615782	0.0572958	-10.72577376	51.6521637	-41.32173096
7.48	748	0.793	0.103	-0.603	0.1145916	1.145916	0.2291832	-10.72004418	51.66362286	-41.32173096
7.49	749	0.79	0.106	-0.606	0	0.572958	0.3437748	-10.72004418	51.67508202	-41.32173096
7.5	750	0.785	0.107	-0.608	0.0572958	0.859437	0.4010706	-10.74869208	51.65789328	-41.34464928
7.51	751	0.786	0.107	-0.6	-0.1145916	0.8021412	0.4583664	-10.74869208	51.66935244	-41.3389197
7.52	752	0.787	0.107	-0.589	-0.1718874	0.9740286	0.1718874	-10.74869208	51.6808116	-41.3389197
7.53	753	0.791	0.104	-0.584	-0.1145916	1.9480572	-0.286479	-10.76015124	51.69800034	-41.35037886
7.54	754	0.8	0.1	-0.593	0	2.3491278	-0.4010706	-10.7716104	51.72091866	-41.36183802
7.55	755	0.797	0.1	-0.609	-0.5156622	2.1199446	-0.4583664	-10.78879914	51.72664824	-41.37902676
7.56	756	0.792	0.101	-0.617	-1.145916	2.7501984	-0.3437748	-10.81171746	51.75529614	-41.39048592
7.57	757	0.789	0.096	-0.611	-1.0313244	3.151269	-0.286479	-10.83463578	51.78394404	-41.40767466
7.58	758	0.787	0.099	-0.61	-1.0886202	3.9534102	-0.7448454	-10.86328368	51.8240511	-41.4248634
7.59	759	0.792	0.106	-0.608	-0.6302538	4.9847346	-1.0313244	-10.89193158	51.86988774	-41.45924088
7.6	760	0.792	0.112	-0.597	0	6.016059	-1.145916	-10.93203864	51.92718354	-41.49934794
7.61	761	0.79	0.111	-0.584	0	7.3338624	-1.6042824	-10.9721457	51.9959385	-41.54518458
7.62	762	0.789	0.109	-0.585	-0.572958	8.880849	-2.1199446	-11.02371192	52.07615262	-41.60248038
7.63	763	0.788	0.108	-0.607	-1.0313244	9.6829902	-2.2345362	-11.08100772	52.1678259	-41.66550576
7.64	764	0.779	0.109	-0.606	-1.2032118	8.59437	-1.9480572	-11.13830352	52.24804002	-41.71707198
7.65	765	0.768	0.11	-0.599	-1.8334656	8.021412	-1.8907614	-11.20705848	52.3110654	-41.77436778
7.66	766	0.763	0.105	-0.596	-1.3178034	8.4224826	-2.2345362	-11.26435428	52.39127952	-41.83166358
7.67	767	0.762	0.097	-0.583	-1.6615782	9.6256944	-3.151269	-11.3445684	52.47722322	-41.9118777
7.68	768	0.768	0.094	-0.577	-3.2658606	12.2613012	-4.297185	-11.46488958	52.59181482	-42.01501014
7.69	769	0.782	0.089	-0.588	-3.6096354	15.2979786	-5.7868758	-11.60812908	52.72932474	-42.14679048
7.7	770	0.808	0.086	-0.626	-3.151269	16.3865988	-6.7036086	-11.76282774	52.86683466	-42.30148914
7.71	771	0.829	0.09	-0.65	-2.7501984	13.8655836	-6.589017	-11.91179682	52.99288542	-42.44472864
7.72	772	0.827	0.101	-0.635	-2.8074942	10.4851314	-5.9014674	-12.04357716	53.07882912	-42.5707794
7.73	773	0.814	0.115	-0.616	-2.8074942	8.7662574	-5.2139178	-12.15816876	53.15331366	-42.685371
7.74	774	0.799	0.131	-0.58	-2.6356068	8.4224826	-4.583664	-12.26703078	53.2277982	-42.78277386
7.75	775	0.789	0.142	-0.57	-2.86479	11.172681	-4.7555514	-12.39881112	53.32520106	-42.90309504
