TimeStamp(s)	FrameCounter	AccX	AccY	AccZ	GyrX	GyrY	GyrZ	EulerX	EulerY	EulerZ
0.01	1	-0.01	-0.997	0.098	-8.880849	-0.6302538	-1.6615782	98.17062372	-0.37815228	-22.76362134
0.02	2	-0.006	-1.007	0.089	-9.2246238	2.4637194	-1.3750992	98.07895044	-0.3724227	-22.73497344
0.03	3	0.003	-1.008	0.085	-9.167328	5.3858052	-0.9740286	97.98154758	-0.3724227	-22.68340722
0.04	4	0.017	-1.008	0.089	-8.59437	8.8235532	-0.3437748	97.89560388	-0.38388186	-22.59746352
0.05	5	0.032	-1.002	0.099	-7.7922288	11.3445684	0	97.8039306	-0.39534102	-22.4886015
0.06	6	0.038	-0.994	0.104	-7.0473834	12.6623718	0.286479	97.72944606	-0.41825934	-22.36828032
0.07	7	0.041	-0.982	0.103	-5.443101	13.8082878	0.6302538	97.67215026	-0.44690724	-22.23649998
0.08	8	0.039	-0.981	0.099	-4.1825934	14.6677248	0.859437	97.62631362	-0.48128472	-22.09326048
0.09	9	0.035	-0.982	0.095	-3.7815228	15.0687954	0.9740286	97.58620656	-0.50993262	-21.95002098
0.1	10	0.031	-0.982	0.096	-2.5210152	14.7250206	1.2032118	97.5460995	-0.53858052	-21.80678148
0.11	11	0.032	-0.986	0.094	-1.7761698	13.464513	1.3750992	97.52318118	-0.572958	-21.68073072
0.12	12	0.035	-0.995	0.092	-0.6302538	11.9748222	1.5469866	97.5174516	-0.60733548	-21.56613912
0.13	13	0.036	-1.002	0.093	0	10.7716104	1.432395	97.51172202	-0.64171296	-21.46300668
0.14	14	0.037	-1	0.099	0.1145916	10.1413566	1.2605076	97.51172202	-0.67036086	-21.36560382
0.15	15	0.037	-0.994	0.1	0.3437748	10.0840608	0.9740286	97.50026286	-0.67609044	-21.26820096
0.16	16	0.034	-0.998	0.092	0.7448454	9.9121734	0.9167328	97.50599244	-0.70473834	-21.17652768
0.17	17	0.028	-1.004	0.098	1.0886202	10.1986524	0.9740286	97.51172202	-0.72765666	-21.07339524
0.18	18	0.024	-1.006	0.101	0.5156622	11.172681	0.7448454	97.5174516	-0.75630456	-20.96453322
0.19	19	0.018	-0.998	0.095	0.1145916	11.2872726	0.572958	97.51172202	-0.77922288	-20.8556712
0.2	20	0.017	-1.004	0.094	0.3437748	9.2246238	0.4010706	97.49453328	-0.78495246	-20.7697275
0.21	21	0.018	-1.012	0.092	0.572958	7.8495246	0.572958	97.50026286	-0.8021412	-20.69524296
0.22	22	0.017	-1.019	0.095	0.3437748	6.589017	0.6875496	97.50026286	-0.81932994	-20.63221758
0.23	23	0.015	-1.026	0.098	-1.2605076	5.7868758	0.6302538	97.4888037	-0.83651868	-20.57492178
0.24	24	0.011	-1.027	0.106	-3.7815228	5.72958	0.286479	97.44869664	-0.84797784	-20.51762598
0.25	25	0.009	-1.019	0.106	-6.016059	5.6722842	-0.1145916	97.3742121	-0.84797784	-20.46605976
0.26	26	0.011	-1.016	0.098	-6.9900876	4.6982556	-0.572958	97.29972756	-0.84797784	-20.42022312
0.27	27	0.01	-1.021	0.089	-7.161975	3.0366774	-0.9167328	97.22524302	-0.84224826	-20.39157522
0.28	28	0.009	-1.02	0.088	-7.2192708	0.8021412	-1.2605076	97.15075848	-0.83651868	-20.38011606
0.29	29	0.008	-1.021	0.091	-7.9641162	-0.3437748	-1.432395	97.07054436	-0.81932994	-20.38584564
0.3	30	0.007	-1.011	0.089	-9.3392154	-1.145916	-1.5469866	96.96168234	-0.79641162	-20.3973048
0.31	31	0.007	-1.006	0.093	-9.740286	-1.8334656	-1.432395	96.86427948	-0.77922288	-20.41449354
0.32	32	0.008	-1.004	0.097	-9.8548776	-2.291832	-1.2032118	96.76114704	-0.76203414	-20.43741186
0.33	33	0.009	-1.002	0.101	-9.8548776	-2.8074942	-0.9167328	96.66374418	-0.75057498	-20.46605976
0.34	34	0.005	-1	0.091	-9.9121734	-3.3804522	-0.8021412	96.56634132	-0.73911582	-20.50043724
0.35	35	0.001	-1.002	0.076	-9.7975818	-3.5523396	-0.572958	96.45174972	-0.72192708	-20.53481472
0.36	36	-0.002	-1.003	0.066	-9.7975818	-3.4950438	-0.286479	96.34861728	-0.7161975	-20.5691922
0.37	37	-0.001	-1.005	0.066	-9.2819196	-3.5523396	0.1718874	96.256944	-0.7161975	-20.60929926
0.38	38	0	-1.005	0.066	-8.7662574	-3.5523396	0.7448454	96.1710003	-0.7161975	-20.64367674
0.39	39	0	-1.003	0.059	-8.307891	-3.5523396	1.0886202	96.0850566	-0.72192708	-20.6837838
0.4	40	-0.001	-1.002	0.053	-7.5630456	-3.8961144	1.2032118	95.98765374	-0.72765666	-20.72389086
0.41	41	-0.003	-1.001	0.052	-7.161975	-4.2398892	1.2032118	95.91889878	-0.73338624	-20.7697275
0.42	42	-0.006	-0.996	0.047	-6.016059	-4.5263682	1.145916	95.8558734	-0.73911582	-20.81556414
0.43	43	-0.008	-0.996	0.04	-4.870143	-5.156622	0.9167328	95.81003676	-0.7448454	-20.86713036
0.44	44	-0.001	-0.993	0.045	-2.9220858	-6.1306506	0.859437	95.78138886	-0.7448454	-20.93015574
0.45	45	0.005	-0.994	0.06	-1.6615782	-6.1879464	1.0886202	95.74701138	-0.73911582	-20.99318112
0.46	46	0.007	-0.996	0.066	-1.5469866	-5.8441716	1.3178034	95.72982264	-0.7448454	-21.05047692
0.47	47	0.005	-0.996	0.065	-1.0886202	-5.443101	1.432395	95.71836348	-0.75057498	-21.10777272
0.48	48	0	-0.994	0.072	-0.6875496	-5.0420304	1.5469866	95.7126339	-0.76203414	-21.15933894
0.49	49	-0.006	-0.991	0.073	-0.2291832	-4.5263682	1.5469866	95.7126339	-0.7734933	-21.20517558
0.5	50	-0.013	-0.992	0.074	0.286479	-4.297185	1.3750992	95.68971558	-0.77922288	-21.25101222
0.51	51	-0.016	-0.995	0.074	0.6302538	-3.724227	1.0313244	95.70117474	-0.78495246	-21.2853897
0.52	52	-0.015	-0.999	0.067	1.0886202	-3.0939732	0.7448454	95.7126339	-0.78495246	-21.31976718
0.53	53	-0.013	-1.002	0.06	1.0313244	-2.2345362	0.572958	95.72409306	-0.79068204	-21.3426855
0.54	54	-0.009	-1.006	0.055	0.9740286	-1.5469866	0.5156622	95.73555222	-0.79068204	-21.35414466
0.55	55	-0.002	-1.009	0.055	1.2032118	-0.9740286	0.572958	95.67252684	-0.7734933	-21.3713334
0.56	56	0.003	-1.006	0.063	1.5469866	-0.1718874	0.7448454	95.683986	-0.77922288	-21.3713334
0.57	57	0.003	-1.002	0.063	1.9480572	0.286479	0.8021412	95.70690432	-0.79068204	-21.3713334
0.58	58	0.001	-1	0.061	2.1199446	0.286479	0.6875496	95.72982264	-0.79641162	-21.3713334
0.59	59	0	-1	0.059	2.291832	-0.1145916	0.4010706	95.75274096	-0.8021412	-21.3713334
0.6	60	-0.001	-1.006	0.057	2.6929026	-0.6302538	0	95.71836348	-0.77922288	-21.38279256
0.61	61	-0.001	-1.006	0.056	2.4064236	-0.9167328	-0.1145916	95.7412818	-0.77922288	-21.38852214
0.62	62	-0.001	-1.005	0.059	2.5210152	-0.9740286	-0.1718874	95.7699297	-0.7734933	-21.3999813
0.63	63	0	-1.005	0.059	2.6929026	-0.9167328	-0.1718874	95.7985776	-0.7734933	-21.40571088
0.64	64	-0.001	-1.006	0.057	2.9220858	-0.9167328	-0.1145916	95.8272255	-0.76776372	-21.41717004
0.65	65	-0.001	-1.006	0.056	3.0939732	-0.859437	-0.1718874	95.80430718	-0.75057498	-21.4286292
0.66	66	-0.005	-1.002	0.057	3.3804522	-0.6302538	-0.2291832	95.83868466	-0.7448454	-21.43435878
0.67	67	-0.007	-1.003	0.058	3.4950438	-0.1718874	-0.1718874	95.87306214	-0.7448454	-21.43435878
0.68	68	-0.008	-1.003	0.062	3.3804522	0.286479	-0.2291832	95.90743962	-0.73911582	-21.4286292
0.69	69	-0.008	-1.006	0.062	3.2085648	0.8021412	-0.2291832	95.9418171	-0.73911582	-21.42289962
0.7	70	-0.007	-1.012	0.064	2.86479	0.859437	-0.1718874	95.9131692	-0.72765666	-21.41144046
0.71	71	-0.007	-1.012	0.069	2.3491278	1.3178034	-0.1718874	95.93608752	-0.72765666	-21.3999813
0.72	72	-0.005	-1.011	0.071	2.005353	1.8334656	0	95.95900584	-0.73338624	-21.38279256
0.73	73	-0.004	-1.009	0.07	1.8907614	1.9480572	-0.1145916	95.97619458	-0.73338624	-21.35987424
0.74	74	-0.003	-1.009	0.066	1.6615782	2.005353	-0.2291832	95.99338332	-0.73338624	-21.3426855
0.75	75	-0.003	-1.011	0.067	1.6615782	2.005353	-0.4583664	95.96473542	-0.7161975	-21.32549676
0.76	76	-0.003	-1.011	0.068	0.9740286	2.4637194	-0.6302538	95.970465	-0.7161975	-21.29684886
0.77	77	-0.004	-1.011	0.065	0.1145916	2.9220858	-0.5156622	95.970465	-0.7161975	-21.26820096
0.78	78	-0.003	-1.009	0.066	-0.1718874	3.6669312	-0.286479	95.970465	-0.7161975	-21.23382348
0.79	79	0	-1.009	0.065	-0.1145916	4.4690724	0.0572958	95.96473542	-0.72192708	-21.18798684
0.8	80	0	-1.011	0.067	0.0572958	4.5263682	0.572958	95.92462836	-0.72192708	-21.14787978
0.81	81	0.005	-1.013	0.068	0.4583664	3.9534102	1.0313244	95.93035794	-0.73338624	-21.10777272
0.82	82	0.014	-1.016	0.075	0.8021412	2.8074942	1.0886202	95.93608752	-0.75057498	-21.0848544
0.83	83	0.021	-1.019	0.084	0.7448454	1.8907614	0.3437748	95.94754668	-0.75630456	-21.06193608
0.84	84	0.019	-1.023	0.09	0.0572958	1.718874	-1.145916	95.94754668	-0.7448454	-21.04474734
0.85	85	0.011	-1.027	0.09	-1.5469866	2.1199446	-2.578311	95.9131692	-0.71046792	-21.02182902
0.86	86	0.002	-1.024	0.083	-2.8074942	3.4950438	-3.9534102	95.87879172	-0.67609044	-20.98745154
0.87	87	-0.002	-1.014	0.074	-3.6096354	6.302538	-4.7555514	95.84441424	-0.63598338	-20.91869658
0.88	88	0.006	-1.001	0.076	-3.8388186	8.8235532	-4.9274388	95.7985776	-0.6016059	-20.8270233
0.89	89	0.018	-0.992	0.083	-3.3804522	9.8548776	-4.5263682	95.76420012	-0.56722842	-20.72389086
0.9	90	0.03	-0.99	0.091	-2.291832	9.2246238	-3.7815228	95.72982264	-0.52712136	-20.63794716
0.91	91	0.043	-0.992	0.092	-1.4896908	7.6776372	-2.8074942	95.7126339	-0.50993262	-20.55773304
0.92	92	0.049	-0.996	0.088	-0.9167328	5.9014674	-2.1772404	95.70117474	-0.49274388	-20.49470766
0.93	93	0.054	-1.001	0.092	-1.2605076	5.7868758	-1.9480572	95.68971558	-0.48128472	-20.43741186
0.94	94	0.064	-1.003	0.101	-1.6615782	7.3338624	-2.291832	95.66679726	-0.46982556	-20.36292732
0.95	95	0.073	-1.007	0.108	-2.291832	8.9954406	-3.3804522	95.63814936	-0.42398892	-20.27698362
0.96	96	0.083	-1.009	0.112	-2.9220858	9.5111028	-4.5263682	95.60950146	-0.38961144	-20.17958076
0.97	97	0.086	-1.006	0.116	-3.2085648	8.3651868	-5.443101	95.57512398	-0.34950438	-20.09363706
0.98	98	0.082	-0.998	0.113	-2.6929026	6.4744254	-5.72958	95.54647608	-0.29793816	-20.0248821
0.99	99	0.067	-0.988	0.109	-1.6615782	4.4117766	-5.2712136	95.52928734	-0.25210152	-19.97331588
1	100	0.052	-0.984	0.108	-0.6302538	2.8074942	-4.583664	95.51782818	-0.18334656	-19.95039756
1.01	101	0.04	-0.985	0.114	-0.6302538	3.437748	-4.2398892	95.5120986	-0.1432395	-19.9102905
1.02	102	0.031	-0.987	0.118	-0.4010706	5.3285094	-4.1252976	95.50636902	-0.10886202	-19.8529947
1.03	103	0.028	-0.99	0.124	0.1718874	8.307891	-4.010706	95.50636902	-0.08021412	-19.767051
1.04	104	0.032	-0.991	0.127	0.3437748	11.8602306	-3.9534102	95.50636902	-0.05156622	-19.64672982
1.05	105	0.039	-0.988	0.126	0.3437748	14.8396122	-3.3804522	95.5120986	-0.0286479	-19.49776074
1.06	106	0.046	-0.982	0.124	0.7448454	17.0741484	-2.5210152	95.51782818	-0.02291832	-19.33160292
1.07	107	0.058	-0.982	0.121	1.145916	18.6784308	-1.2605076	95.52355776	-0.03437748	-19.14252678
1.08	108	0.07	-0.984	0.119	1.718874	19.194093	0	95.5407465	-0.0572958	-18.95345064
1.09	109	0.077	-0.99	0.121	2.4064236	18.7930224	0.859437	95.56366482	-0.0859437	-18.77010408
1.1	110	0.08	-1	0.127	2.7501984	17.8762896	1.5469866	95.58658314	-0.10886202	-18.60394626
1.11	111	0.08	-1.008	0.131	2.5210152	16.7303736	2.005353	95.61523104	-0.14896908	-18.43778844
1.12	112	0.076	-1.012	0.132	2.005353	15.8709366	2.5210152	95.63241978	-0.19480572	-18.28308978
1.13	113	0.074	-1.014	0.133	1.718874	15.2979786	3.0366774	95.64387894	-0.24637194	-18.13985028
1.14	114	0.073	-1.019	0.127	1.9480572	15.1260912	3.437748	95.66106768	-0.29793816	-17.9908812
1.15	115	0.071	-1.017	0.117	2.3491278	15.9282324	3.7815228	95.683986	-0.33804522	-17.84191212
1.16	116	0.067	-1.01	0.109	3.0939732	16.6730778	4.2398892	95.7126339	-0.4010706	-17.68148388
1.17	117	0.06	-1.006	0.099	3.9534102	16.902261	4.870143	95.74701138	-0.46982556	-17.52105564
1.18	118	0.048	-1.003	0.094	4.2398892	17.4179232	5.5003968	95.78711844	-0.5443101	-17.35489782
1.19	119	0.036	-0.999	0.088	4.583664	18.1054728	6.1879464	95.83295508	-0.6302538	-17.18301042
1.2	120	0.027	-0.993	0.078	4.6409598	18.8503182	6.7036086	95.86733256	-0.7161975	-17.00539344
1.21	121	0.009	-0.981	0.072	4.8128472	18.2773602	7.0473834	95.9131692	-0.80787078	-16.83350604
1.22	122	-0.018	-0.959	0.062	5.9014674	16.1001198	7.161975	95.970465	-0.89954406	-16.68453696
1.23	123	-0.062	-0.933	0.056	6.589017	12.4331886	6.9900876	96.03349038	-0.98548776	-16.56994536
1.24	124	-0.098	-0.915	0.059	5.0993262	7.2192708	6.302538	96.07932702	-1.0599723	-16.5011904
1.25	125	-0.118	-0.908	0.073	-0.0572958	3.8961144	5.0993262	96.06786786	-1.145916	-16.46108334
1.26	126	-0.124	-0.916	0.099	-7.161975	3.151269	3.2658606	95.99338332	-1.18602306	-16.43816502
1.27	127	-0.109	-0.945	0.102	-15.2406828	4.1252976	0.6875496	95.83868466	-1.19748222	-16.39805796
1.28	128	-0.066	-0.993	0.093	-22.8610242	7.0473834	-3.0939732	95.60377188	-1.1745639	-16.329303
1.29	129	-0.009	-1.068	0.081	-29.220858	11.6310474	-7.161975	95.30583372	-1.12299768	-16.20898182
1.3	130	0.035	-1.147	0.076	-31.4553942	15.183387	-9.2246238	94.97924766	-1.04851314	-16.05428316
1.31	131	0.074	-1.192	0.095	-25.8977016	14.4958374	-6.875496	94.7099574	-0.99694692	-15.91104366
1.32	132	0.087	-1.159	0.136	-11.5164558	8.59437	-0.5156622	94.58963622	-1.0026765	-15.82509996
1.33	133	0.07	-1.106	0.169	-1.2605076	2.6929026	5.5576926	94.57244748	-1.0599723	-15.80791122
1.34	134	0.021	-1.054	0.204	4.7555514	-1.718874	10.4278356	94.6240137	-1.15737516	-15.83082954
1.35	135	-0.045	-1.019	0.247	8.3651868	-3.4950438	13.178034	94.7386053	-1.29488508	-15.87666618
1.36	136	-0.105	-0.996	0.296	8.6516658	-2.1199446	13.2353298	94.824549	-1.42093584	-15.90531408
1.37	137	-0.14	-0.985	0.306	5.0420304	0	11.2299768	94.87611522	-1.52979786	-15.91677324
1.38	138	-0.148	-0.985	0.289	0.1718874	0.859437	8.6516658	94.8818448	-1.62147114	-15.91677324
1.39	139	-0.143	-0.997	0.264	-3.2085648	1.4896908	6.7609044	94.84746732	-1.6902261	-15.90531408
1.4	140	-0.132	-1.015	0.242	-5.443101	3.5523396	6.9327918	94.81881942	-1.78189938	-15.87666618
1.41	141	-0.118	-1.026	0.225	-6.2452422	6.302538	8.59437	94.75006446	-1.87357266	-15.81937038
1.42	142	-0.11	-1.026	0.207	-6.6463128	9.2246238	11.2299768	94.6813095	-1.99962342	-15.73915626
1.43	143	-0.106	-1.014	0.182	-5.72958	11.45916	14.2093584	94.61828412	-2.1485925	-15.6417534
1.44	144	-0.108	-0.995	0.156	-3.9534102	12.2613012	16.7876694	94.57244748	-2.33193906	-15.53289138
1.45	145	-0.106	-0.975	0.145	-2.9793816	12.5477802	18.4492476	94.54379958	-2.53247436	-15.42402936
1.46	146	-0.101	-0.952	0.146	-3.8961144	13.0634424	18.9649098	94.49796294	-2.73873924	-15.30943776
1.47	147	-0.096	-0.922	0.155	-5.5003968	13.2926256	18.1054728	94.42920798	-2.92781538	-15.19484616
1.48	148	-0.097	-0.905	0.166	-7.6776372	13.0634424	16.329303	94.34899386	-3.10543236	-15.08025456
1.49	149	-0.097	-0.903	0.173	-9.8548776	12.891555	14.0947668	94.24013184	-3.26013102	-14.96566296
1.5	150	-0.09	-0.912	0.165	-11.2872726	12.8342592	11.8602306	94.12554024	-3.39191136	-14.85107136
1.51	151	-0.079	-0.934	0.158	-11.6310474	12.5477802	10.0840608	93.99948948	-3.50650296	-14.73647976
1.52	152	-0.067	-0.954	0.162	-11.8029348	12.032118	8.880849	93.86770914	-3.6096354	-14.62188816
1.53	153	-0.06	-0.967	0.175	-11.9175264	12.2040054	8.1360036	93.74165838	-3.70130868	-14.50729656
1.54	154	-0.057	-0.97	0.185	-11.6883432	12.4904844	8.021412	93.60987804	-3.79298196	-14.39270496
1.55	155	-0.062	-0.962	0.188	-11.2299768	11.8602306	8.4797784	93.5067456	-3.88465524	-14.28384294
1.56	156	-0.075	-0.948	0.189	-9.8548776	9.5683986	9.3392154	93.39788358	-3.98778768	-14.19789924
1.57	157	-0.086	-0.942	0.201	-8.1932994	6.589017	10.026765	93.3062103	-4.0966497	-14.14060344
1.58	158	-0.094	-0.937	0.217	-7.734933	3.7815228	10.0840608	93.22599618	-4.19978214	-14.10622596
1.59	159	-0.101	-0.936	0.225	-7.9641162	1.718874	9.2819196	93.14578206	-4.29145542	-14.0947668
1.6	160	-0.111	-0.941	0.226	-8.3651868	0.2291832	7.734933	93.105675	-4.3831287	-14.10049638
1.61	161	-0.123	-0.95	0.217	-8.9954406	-0.3437748	5.9014674	93.01400172	-4.4404245	-14.11195554
1.62	162	-0.137	-0.956	0.2	-10.026765	-0.8021412	4.4117766	92.91086928	-4.48626114	-14.1234147
1.63	163	-0.148	-0.951	0.19	-11.6310474	-1.0886202	2.9793816	92.79627768	-4.51490904	-14.13487386
1.64	164	-0.145	-0.941	0.186	-13.464513	-0.6302538	1.8334656	92.65876776	-4.53209778	-14.14633302
1.65	165	-0.137	-0.932	0.188	-15.2406828	-0.0572958	0.9740286	92.53844658	-4.56074568	-14.14633302
1.66	166	-0.132	-0.924	0.189	-17.0168526	1.0886202	0	92.36655918	-4.56074568	-14.14060344
1.67	167	-0.128	-0.923	0.182	-17.9908812	2.9220858	-0.9740286	92.17748304	-4.5550161	-14.11195554
1.68	168	-0.125	-0.926	0.162	-18.3919518	4.1252976	-1.5469866	91.9884069	-4.54355694	-14.07184848
1.69	169	-0.119	-0.932	0.135	-16.5584862	2.578311	-1.6615782	91.8165195	-4.53209778	-14.04893016
1.7	170	-0.105	-0.948	0.134	-14.6677248	-0.8021412	-1.2605076	91.69619832	-4.52063862	-14.06038932
1.71	171	-0.091	-0.963	0.161	-14.2093584	-3.6096354	-0.4583664	91.55295882	-4.51490904	-14.0947668
1.72	172	-0.106	-0.964	0.203	-15.5844576	-5.3285094	-0.3437748	91.39826016	-4.50917946	-14.1520626
1.73	173	-0.134	-0.957	0.236	-17.475219	-4.6409598	-1.4896908	91.22637276	-4.4977203	-14.19789924
1.74	174	-0.167	-0.961	0.239	-19.3086846	-3.8961144	-2.9793816	91.03729662	-4.46334282	-14.2380063
1.75	175	-0.198	-0.976	0.232	-21.1421502	-3.6669312	-4.0680018	90.85395006	-4.44615408	-14.27811336
1.76	176	-0.215	-1.007	0.214	-21.9442914	-2.3491278	-4.9274388	90.63049644	-4.39458786	-14.30103168
1.77	177	-0.22	-1.039	0.2	-23.204799	-0.5156622	-5.5576926	90.39558366	-4.34302164	-14.31249084
1.78	178	-0.218	-1.062	0.204	-24.1215318	0.7448454	-6.2452422	90.14921172	-4.27999626	-14.30676126
1.79	179	-0.217	-1.087	0.231	-23.3193906	2.3491278	-7.1046792	89.91429894	-4.21697088	-14.28384294
1.8	180	-0.211	-1.094	0.253	-20.8556712	5.2139178	-8.307891	89.71949322	-4.14821592	-14.23227672
1.81	181	-0.207	-1.089	0.274	-19.0222056	7.6776372	-9.6829902	89.51895792	-4.05081306	-14.15779218
1.82	182	-0.199	-1.074	0.288	-15.8136408	10.3705398	-10.7716104	89.3528001	-3.94768062	-14.06038932
1.83	183	-0.193	-1.054	0.278	-10.1986524	10.4851314	-11.3445684	89.2382085	-3.8388186	-13.95725688
1.84	184	-0.182	-1.032	0.265	1.718874	6.3598338	-11.6883432	89.24966766	-3.724227	-13.8942315
1.85	185	-0.168	-1.052	0.266	12.7769634	0.1145916	-11.4018642	89.41582548	-3.62109456	-13.8942315
1.86	186	-0.158	-1.092	0.334	15.8709366	-2.86479	-10.7143146	89.5819833	-3.51223254	-13.9228794
1.87	187	0.05	-1.571	0.062	-14.2666542	17.0741484	-6.302538	89.42155506	-3.45493674	-13.75672158
1.88	188	0.242	-1.766	-0.25	-14.32395	-0.4010706	23.0902074	89.27831556	-3.68411994	-13.75672158
1.89	189	0.296	-1.746	0.084	35.4088044	-49.847346	43.9458786	89.67938616	-4.10810886	-14.24373588
1.9	190	0.375	-1.589	0.129	42.2270046	-75.4012728	43.831287	90.17213004	-4.51490904	-14.98858128
1.91	191	0.214	-1.39	0.211	34.2628884	-73.3959198	36.3255372	90.59038938	-4.85295426	-15.71623794
1.92	192	0.052	-1.057	0.283	9.740286	-60.2751816	18.621135	90.75081762	-5.0133825	-16.31784384
1.93	193	-0.102	-0.912	0.23	2.0626488	-51.1078536	-2.0626488	90.82530216	-4.96754586	-16.82204688
1.94	194	-0.173	-1.087	0.013	-6.875496	-34.2055926	-15.5844576	90.7851951	-4.80138804	-17.1600921
1.95	195	-0.206	-1.339	-0.182	-16.6730778	-17.4179232	-17.9908812	90.62476686	-4.61804148	-17.3319795
1.96	196	-0.308	-1.338	-0.279	-17.475219	-6.016059	-17.0168526	90.45287946	-4.44615408	-17.3892753
1.97	197	-0.386	-1.194	-0.287	-14.2666542	3.6096354	-18.1054728	90.30391038	-4.2685371	-17.35489782
1.98	198	-0.445	-1.063	-0.305	-10.7716104	14.037471	-19.4232762	90.1835892	-4.08519054	-17.2173879
1.99	199	-0.502	-0.988	-0.289	-7.9068204	17.4179232	-19.8816426	90.09191592	-3.89038482	-17.0455005
2	200	-0.541	-0.965	-0.246	-8.1932994	16.042824	-19.767051	89.97159474	-3.74141574	-16.8736131
2.01	201	-0.461	-0.939	-0.218	-11.0580894	16.2147114	-16.9595568	89.84554398	-3.5809875	-16.71318486
2.02	202	-0.258	-0.93	-0.192	-11.8029348	18.907614	-12.3758928	89.70803406	-3.46066632	-16.5298383
2.03	203	-0.081	-0.933	-0.183	-13.2926256	22.2307704	-9.1100322	89.55906498	-3.37472262	-16.31211426
2.04	204	0.064	-0.914	-0.186	-14.1520626	24.6944898	-9.3392154	89.39863674	-3.28877892	-16.06574232
2.05	205	0.151	-0.893	-0.182	-12.7769634	25.78311	-13.0061466	89.23247892	-3.13980984	-15.81937038
2.06	206	0.196	-0.866	-0.165	-11.2299768	26.929026	-17.6471064	89.10069858	-2.97365202	-15.5558097
2.07	207	0.204	-0.851	-0.149	-10.6570188	29.9084076	-22.5745452	88.96891824	-2.7501984	-15.26360112
2.08	208	0.167	-0.847	-0.141	-10.313244	31.9710564	-26.4133638	88.84859706	-2.4923673	-14.9542038
2.09	209	0.114	-0.851	-0.14	-8.5370742	33.6899304	-28.8770832	88.73973504	-2.2058883	-14.62188816
2.1	210	0.054	-0.865	-0.096	-7.2765666	35.4088044	-30.366774	88.64233218	-1.90222056	-14.28384294
2.11	211	0	-0.879	-0.061	-6.9327918	36.6120162	-31.0543236	88.55638848	-1.59855282	-13.92860898
2.12	212	-0.048	-0.875	-0.044	-6.4171296	37.9871154	-30.5386614	88.47617436	-1.29488508	-13.55618628
2.13	213	-0.071	-0.864	-0.046	-6.9327918	39.7632852	-28.1895336	88.39596024	-1.01413566	-13.17230442
2.14	214	-0.062	-0.856	-0.05	-7.2192708	41.825934	-24.8090814	88.31001654	-0.76776372	-12.76550424
2.15	215	-0.047	-0.855	-0.055	-7.734933	43.3729206	-21.6578124	88.21261368	-0.55576926	-12.34151532
2.16	216	-0.021	-0.853	-0.07	-8.0787078	44.4615408	-18.7357266	88.1209404	-0.36669312	-11.91179682
2.17	217	0.005	-0.846	-0.058	-6.875496	43.8885828	-15.8709366	88.04072628	-0.21199446	-11.48207832
2.18	218	0.04	-0.851	-0.028	-5.443101	41.8832298	-13.8655836	87.98343048	-0.06875496	-11.06954856
2.19	219	0.091	-0.858	-0.027	-5.0993262	38.674665	-12.5477802	87.92613468	0.05156622	-10.69139628
2.2	220	0.152	-0.856	-0.039	-4.870143	34.37748	-11.1153852	87.86883888	0.18334656	-10.35908064
2.21	221	0.197	-0.859	-0.007	-3.3804522	29.9657034	-10.313244	87.82873182	0.286479	-10.06687206
2.22	222	0.223	-0.862	-0.004	-2.8074942	23.777757	-10.3705398	87.80008392	0.39534102	-9.83768886
2.23	223	0.245	-0.862	-0.026	-2.2345362	17.2460358	-11.172681	87.7771656	0.50993262	-9.67153104
2.24	224	0.238	-0.871	-0.032	-1.2032118	9.2819196	-12.1467096	87.75997686	0.6302538	-9.58558734
2.25	225	0.214	-0.884	-0.031	-0.6875496	2.2345362	-13.4072172	87.7485177	0.82505952	-9.57412818
2.26	226	0.19	-0.892	-0.017	-0.572958	-3.6096354	-14.2093584	87.74278812	0.96256944	-9.61423524
2.27	227	0.162	-0.907	-0.001	-0.572958	-9.3965112	-14.4958374	87.73705854	1.10580894	-9.71736768
2.28	228	0.142	-0.91	0.024	-1.0886202	-15.756345	-14.32395	87.7198698	1.24904844	-9.87779592
2.29	229	0.131	-0.903	0.048	-2.4064236	-19.0222056	-13.8082878	87.69695148	1.38082878	-10.07260164
2.3	230	0.13	-0.906	0.051	-3.724227	-20.7410796	-13.1207382	87.662574	1.52406828	-10.2845961
2.31	231	0.134	-0.915	0.042	-6.0733548	-21.0848544	-12.318597	87.59954862	1.64438946	-10.49659056
2.32	232	0.139	-0.932	0.044	-8.021412	-20.7410796	-11.5737516	87.51360492	1.75898106	-10.70858502
2.33	233	0.14	-0.948	0.039	-9.2819196	-20.8556712	-11.0007936	87.41620206	1.8621135	-10.92057948
2.34	234	0.153	-0.958	0.025	-10.7143146	-20.6837838	-10.1986524	87.30161046	1.95951636	-11.13257394
2.35	235	0.154	-0.955	0.009	-10.9434978	-21.1421502	-8.307891	87.18701886	2.05118964	-11.35029798
2.36	236	0.135	-0.95	-0.026	-10.026765	-22.91832	-5.9014674	87.08388642	2.10848544	-11.57948118
2.37	237	0.11	-0.929	-0.026	-7.161975	-25.6685184	-4.6409598	87.0036723	2.14286292	-11.83731228
2.38	238	0.103	-0.891	0.038	-2.4637194	-29.3354496	-3.151269	86.96929482	2.17151082	-12.12952086
2.39	239	0.106	-0.837	0.171	0.6302538	-34.2055926	-0.9167328	86.96929482	2.17151082	-12.46756608
2.4	240	0.108	-0.785	0.27	6.2452422	-42.5707794	2.2345362	87.04950894	2.1485925	-12.88582542
2.41	241	0.145	-0.805	0.302	12.4904844	-51.9672906	5.3285094	87.16410054	2.08556712	-13.39575804
2.42	242	0.21	-0.884	0.303	14.7823164	-60.8481396	6.9900876	87.30161046	2.005353	-13.99736394
2.43	243	0.267	-1.001	0.289	15.6990492	-68.0101146	6.7609044	87.45057954	1.92513888	-14.66199522
2.44	244	0.302	-1.116	0.285	14.9542038	-76.7190762	5.3285094	87.58808946	1.8621135	-15.41829978
2.45	245	0.308	-1.165	0.292	13.9228794	-83.8810512	4.6409598	87.72559938	1.81627686	-16.2433593
2.46	246	0.29	-1.158	0.306	14.0947668	-89.8398144	4.010706	87.85165014	1.76471064	-17.1314442
2.47	247	0.26	-1.142	0.335	17.18874	-92.1889422	3.437748	88.01207838	1.72460358	-18.04244742
2.48	248	0.209	-1.11	0.371	18.8503182	-92.1316464	4.297185	88.18969536	1.67876694	-18.94772106
2.49	249	0.157	-1.047	0.404	19.7097552	-90.813843	6.8182002	88.37304192	1.61001198	-19.84153554
2.5	250	0.088	-1.02	0.371	20.5118964	-89.381448	9.8548776	88.58503638	1.5183387	-20.72389086
2.51	251	0.019	-1.036	0.274	21.0848544	-87.2615034	11.1153852	88.79130126	1.41520626	-21.58332786
2.52	252	-0.101	-1.138	0.104	29.0489706	-85.8291084	7.9068204	89.07778026	1.3464513	-22.42557612
2.53	253	-0.219	-1.337	-0.046	30.9970278	-76.2607098	0.8021412	89.381448	1.35218088	-23.1761511
2.54	254	-0.337	-1.529	-0.197	33.4034514	-62.8534926	-10.8289062	89.71376364	1.47250206	-23.79494574
2.55	255	-0.463	-1.736	-0.29	35.3515086	-55.8061092	-22.058883	90.06326802	1.70741484	-24.33925584
2.56	256	-0.556	-1.786	-0.33	18.7930224	-61.2492102	-28.1895336	90.24661458	2.005353	-24.94086174
2.57	257	-0.661	-1.711	-0.202	-9.740286	-61.4783934	-32.945085	90.13202298	2.3491278	-25.54819722
2.58	258	-0.579	-1.594	-0.362	-25.210152	-39.9351726	-33.2888598	89.86273272	2.6929026	-25.94926782
2.59	259	-0.37	-1.396	-0.658	-24.2361234	-13.6936962	-20.1108258	89.6106312	2.8934379	-26.08677774
2.6	260	-0.184	-1.132	-0.661	-16.902261	3.7815228	-2.5210152	89.38717758	2.90489706	-26.05240026
2.61	261	-0.009	-1.015	-0.6	-9.9121734	14.7823164	12.4331886	89.28977472	2.77311672	-25.90343118
2.62	262	0.27	-1.046	-0.53	-7.1046792	25.0955604	21.6005166	89.22674934	2.55539268	-25.65705924
2.63	263	0.528	-1.136	-0.476	-11.0007936	31.2835068	26.6998428	89.1236169	2.28610242	-25.34193234
2.64	264	0.675	-1.164	-0.393	-18.334656	30.8251404	30.2521824	88.94599992	1.98243468	-25.0382646
2.65	265	0.662	-1.098	-0.306	-25.210152	26.2987722	26.642547	88.68243924	1.73606274	-24.7804335
2.66	266	0.528	-1.017	-0.213	-31.4553942	19.7097552	16.902261	88.36731234	1.56417534	-24.58562778
2.67	267	0.347	-1.007	-0.157	-34.950438	10.9434978	6.875496	88.01780796	1.49542038	-24.47676576
2.68	268	0.178	-1.064	-0.123	-34.8358464	1.3178034	4.4690724	87.662574	1.44958374	-24.4653066
2.69	269	0.011	-1.087	-0.074	-34.5493674	-6.016059	7.9068204	87.30734004	1.36364004	-24.52833198
2.7	270	-0.135	-1.04	-0.055	-35.7525792	-13.3499214	14.9542038	86.9463765	1.19175264	-24.65438274
2.71	271	-0.241	-0.954	-0.07	-34.7212548	-19.1367972	22.91832	86.59114254	0.95683986	-24.83199972
2.72	272	-0.298	-0.878	-0.087	-32.1429438	-21.4286292	29.9084076	86.26455648	0.65317212	-25.03253502
2.73	273	-0.326	-0.839	-0.086	-29.8511118	-18.8503182	34.4920716	85.96088874	0.29793816	-25.19869284
2.74	274	-0.318	-0.819	-0.112	-29.3354496	-13.5218088	37.0703826	85.66868016	-0.06875496	-25.30755486
2.75	275	-0.286	-0.809	-0.112	-30.0229992	-8.3651868	37.9871154	85.35928284	-0.47555514	-25.36485066
2.76	276	-0.221	-0.812	-0.1	-30.3094782	-1.3750992	37.5860448	85.0556151	-0.85370742	-25.3533915
2.77	277	-0.161	-0.816	-0.11	-30.939732	2.86479	37.2995658	84.7404882	-1.22040054	-25.2960957
2.78	278	-0.105	-0.813	-0.102	-31.4553942	5.72958	36.7839036	84.41390214	-1.58709366	-25.210152
2.79	279	-0.059	-0.813	-0.09	-30.4240698	7.161975	36.4974246	84.10450482	-1.94232762	-25.10701956
2.8	280	-0.021	-0.819	-0.078	-30.080295	8.1360036	36.1536498	83.7951075	-2.291832	-24.99242796
2.81	281	0.012	-0.848	-0.084	-33.9191136	7.448454	35.6952834	83.44560312	-2.64706596	-24.88356594
2.82	282	0.025	-0.844	-0.081	-32.085648	7.161975	34.8358464	83.11328748	-2.98511118	-24.77470392
2.83	283	0.019	-0.869	-0.083	-32.7731976	5.156622	33.518043	82.77524226	-3.31169724	-24.68876022
2.84	284	0.008	-0.893	-0.105	-35.0650296	0.6875496	31.4553942	82.41427872	-3.62682414	-24.64292358
2.85	285	-0.008	-0.909	-0.106	-36.382833	-3.2658606	29.4500412	82.0475856	-3.91903272	-24.64292358
2.86	286	-0.023	-0.927	-0.103	-37.24227	-6.875496	27.501984	81.6751629	-4.19978214	-24.67730106
2.87	287	-0.035	-0.933	-0.093	-39.3049188	-9.740286	25.3820394	81.27982188	-4.46334282	-24.74032644
2.88	288	-0.05	-0.931	-0.096	-42.398892	-11.6310474	23.0329116	80.86156254	-4.70971476	-24.82627014
2.89	289	-0.062	-0.938	-0.11	-45.4355694	-13.5791046	21.0275586	80.40892572	-4.93889796	-24.92940258
2.9	290	-0.064	-0.945	-0.115	-47.7274014	-14.7823164	20.1681216	79.93910016	-5.16235158	-25.04399418
2.91	291	-0.066	-0.953	-0.112	-48.70143	-17.3033316	20.340009	79.45781544	-5.39153478	-25.18723368
2.92	292	-0.071	-0.948	-0.077	-48.7587258	-19.5951636	20.6837838	78.9822603	-5.62644756	-25.34193234
2.93	293	-0.098	-0.946	-0.068	-51.3943326	-21.9442914	20.7983754	78.48378684	-5.8728195	-25.5252789
2.94	294	-0.128	-0.939	-0.081	-54.144531	-24.4080108	20.05353	77.95666548	-6.11919144	-25.73154378
2.95	295	-0.131	-0.937	-0.079	-55.8061092	-24.8663772	19.480572	77.42381454	-6.3598338	-25.93780866
2.96	296	-0.152	-0.939	-0.067	-56.6082504	-24.637194	19.194093	76.87377486	-6.60047616	-26.13834396
2.97	297	-0.166	-0.934	-0.057	-59.4157446	-24.5798982	17.5898106	76.30081686	-6.82392978	-26.34460884
2.98	298	-0.17	-0.936	-0.067	-65.6609868	-22.5745452	13.6936962	75.6591039	-7.01300592	-26.53941456
2.99	299	-0.173	-0.908	-0.067	-70.3019466	-19.5951636	8.5370742	74.9715543	-7.14478626	-26.71703154
3	300	-0.176	-0.843	-0.038	-65.8328742	-17.7044022	5.0993262	74.3413005	-7.2479187	-26.87745978
3.01	301	-0.193	-0.834	0.046	-59.587632	-14.3812458	4.1825934	73.75688334	-7.3338624	-27.0149697
3.02	302	-0.227	-0.847	0.056	-61.6502808	-7.2765666	4.0680018	73.1380887	-7.39688778	-27.07799508
3.03	303	-0.261	-0.891	0.011	-66.0620574	3.151269	5.2139178	72.46199826	-7.44272442	-27.03788802
3.04	304	-0.262	-0.995	-0.033	-69.614397	14.6677248	8.4797784	71.7343416	-7.49429064	-26.87745978
3.05	305	-0.261	-1.112	-0.104	-75.1720896	18.1054728	13.9228794	70.94938914	-7.58596392	-26.66546532
3.06	306	-0.248	-1.18	-0.119	-79.641162	13.9228794	20.05353	70.11287046	-7.74066258	-26.4706596
3.07	307	-0.176	-1.148	-0.051	-80.8443738	7.448454	23.6631654	69.27635178	-7.94692746	-26.3274201
3.08	308	-0.143	-1.054	-0.014	-81.7611066	2.86479	22.058883	68.42837394	-8.14746276	-26.22428766
3.09	309	-0.104	-0.953	-0.025	-85.1415588	5.9587632	18.6784308	67.54601862	-8.31362058	-26.10969606
3.1	310	-0.109	-0.878	-0.077	-87.662574	14.32395	13.6936962	66.64647456	-8.3938347	-25.93207908
3.11	311	-0.158	-0.813	-0.088	-90.0117018	23.4339822	8.2505952	65.6896347	-8.3938347	-25.68570714
3.12	312	-0.204	-0.762	-0.013	-92.7046044	28.7051958	3.8961144	64.70987652	-8.33080932	-25.4106873
3.13	313	-0.254	-0.729	-0.005	-93.9078162	31.8564648	0.6875496	63.70720002	-8.21621772	-25.1242083
3.14	314	-0.311	-0.7	-0.014	-96.6007188	36.8984952	-2.1772404	62.67587562	-8.05578948	-24.8090814
3.15	315	-0.352	-0.651	-0.044	-100.0384668	42.685371	-5.9587632	61.6216329	-7.84379502	-24.45957702
3.16	316	-0.367	-0.609	-0.074	-101.700045	48.8733174	-10.4851314	60.5330127	-7.54012728	-24.08715432
3.17	317	-0.392	-0.564	-0.1	-101.1843828	52.1964738	-15.0687954	59.45012208	-7.17916374	-23.70900204
3.18	318	-0.405	-0.522	-0.145	-98.0904096	51.3370368	-19.2513888	58.40160894	-6.77809314	-23.36522724
3.19	319	-0.4	-0.516	-0.154	-99.408213	50.9359662	-22.9756158	57.3530958	-6.34264506	-23.05582992
3.2	320	-0.352	-0.536	-0.24	-108.289062	51.852699	-24.9809688	56.21290938	-5.89000824	-22.75789176
3.21	321	-0.233	-0.555	-0.388	-110.007936	49.6754586	-23.2620948	55.0612638	-5.443101	-22.48287192
3.22	322	-0.074	-0.596	-0.456	-102.559482	49.6181628	-19.4232762	53.98983234	-5.02484166	-22.19066334
3.23	323	0.168	-0.662	-0.49	-100.3249458	51.7954032	-11.45916	52.93558962	-4.65241896	-21.84115896
3.24	324	0.362	-0.662	-0.408	-102.1011156	42.5134836	0.1145916	51.86415816	-4.42323576	-21.50311374
3.25	325	0.506	-0.621	-0.371	-101.413566	27.9603504	8.2505952	50.81564502	-4.30291458	-21.23955306
3.26	326	0.574	-0.614	-0.401	-107.716104	16.6730778	11.4018642	49.7041065	-4.30291458	-21.03901776
3.27	327	0.566	-0.634	-0.441	-117.0553194	4.010706	13.2926256	48.50662428	-4.39458786	-20.92442616
3.28	328	0.52	-0.713	-0.372	-110.9819646	-15.469866	18.2773602	47.3836266	-4.6409598	-20.92442616
3.29	329	0.463	-0.795	-0.264	-105.7680468	-32.1429438	20.7983754	46.3236543	-5.01911208	-21.02182902
3.3	330	0.295	-0.726	-0.201	-116.1958824	-45.0917946	17.3033316	45.18346788	-5.44883058	-21.23955306
3.31	331	0.13	-0.645	-0.208	-121.0087296	-57.0666168	8.021412	43.99744482	-5.91292656	-21.59478702
3.32	332	-0.005	-0.648	-0.158	-114.305121	-62.738901	2.6929026	42.89163588	-6.3884817	-22.01877594
3.33	333	-0.119	-0.651	-0.145	-114.8207832	-61.9940556	-2.8074942	41.78582694	-6.82392978	-22.46568318
3.34	334	-0.266	-0.627	-0.065	-113.732163	-63.9421128	-7.0473834	40.69720674	-7.25937786	-22.95269748
3.35	335	-0.409	-0.604	0.013	-109.5495696	-61.1346186	-9.167328	39.6773415	-7.68336678	-23.4339822
3.36	336	-0.475	-0.56	0.071	-106.9139628	-49.9619376	-10.9434978	38.65174668	-8.00422326	-23.84651196
3.37	337	-0.461	-0.563	0.124	-100.0957626	-36.4974246	-11.2299768	37.68917724	-8.22767688	-24.16736844
3.38	338	-0.426	-0.526	0.139	-91.5586884	-20.626488	-8.9381448	36.78963318	-8.34226848	-24.36790374
3.39	339	-0.342	-0.485	0.204	-86.0009958	1.145916	-8.3651868	35.9244666	-8.29643184	-24.43092912
3.4	340	-0.289	-0.408	0.207	-80.5578948	27.5592798	-5.0993262	35.11086624	-8.07297822	-24.31060794
3.41	341	-0.249	-0.338	0.275	-74.771019	50.5348956	0.7448454	34.30299546	-7.68909636	-24.00121062
3.42	342	-0.212	-0.243	0.333	-72.0781164	64.8588456	6.4744254	33.50658384	-7.20781164	-23.57149212
3.43	343	-0.222	-0.122	0.327	-65.9474658	66.5777196	9.740286	32.7731976	-6.7322565	-23.11312572
3.44	344	-0.249	-0.073	0.32	-57.4676874	68.9841432	9.2819196	32.13148464	-6.22232388	-22.64902974
3.45	345	-0.246	-0.073	0.259	-51.6808116	71.2186794	8.59437	31.55852664	-5.7009321	-22.18493376
3.46	346	-0.242	-0.083	0.217	-46.1804148	72.192708	6.4744254	31.03713486	-5.14516284	-21.7437561
3.47	347	-0.176	-0.118	0.241	-43.0291458	80.21412	1.2605076	30.55012056	-4.48626114	-21.30257844
3.48	348	-0.043	-0.16	0.241	-40.4508348	90.7565472	-3.3231564	30.09748374	-3.71276784	-20.8556712
3.49	349	0.047	-0.154	0.19	-34.091001	95.2256196	-6.3598338	29.71360188	-2.88197874	-20.42022312
3.5	350	0.099	-0.114	0.14	-27.0436176	94.9391406	-9.3965112	29.41566372	-2.02827132	-20.01342294
3.51	351	0.112	-0.056	0.079	-25.6112226	90.9284346	-12.4331886	29.1349143	-1.2032118	-19.66391856
3.52	352	0.108	0.005	0.078	-35.5806918	84.9123756	-12.891555	28.75676202	-0.41825934	-19.34879166
3.53	353	0.092	0.072	0.129	-50.7640788	87.4906866	-13.178034	28.22964066	0.37815228	-19.02793518
3.54	354	0.088	0.17	0.126	-66.8069028	96.7153104	-13.6364004	27.54209106	1.26623718	-18.67270122
3.55	355	0.159	0.194	0.081	-86.2874748	107.2004418	-11.6883432	26.65973574	2.24599536	-18.27163062
3.56	356	0.319	0.154	-0.063	-105.6534552	106.3983006	-9.3965112	25.58830428	3.20283522	-17.85910086
3.57	357	0.461	0.096	-0.212	-123.8162238	76.8909636	-7.161975	24.33925584	3.8961144	-17.57835144
3.58	358	0.582	0.014	-0.254	-133.4419182	38.7892566	-1.2032118	22.99280454	4.23415962	-17.42365278
3.59	359	0.58	-0.013	-0.193	-127.0247886	-2.8074942	7.9068204	21.70937862	4.15967508	-17.35489782
3.6	360	0.41	0.036	0.106	-104.6794266	-30.4813656	17.18874	20.6551359	3.82162986	-17.31479076
3.61	361	0.094	0.265	0.15	-81.360036	-16.7303736	18.9649098	19.83580596	3.59244666	-17.19446958
3.62	362	-0.232	0.798	-0.651	-56.2071798	43.6593996	2.8074942	19.27430712	3.97632852	-17.01112302
3.63	363	-0.304	1.365	-2.363	0.9740286	119.1179682	-15.5844576	19.29149586	5.1279741	-16.74183276
3.64	364	-0.802	1.633	-3.985	117.6282774	166.2724116	-35.0077338	20.48897808	6.79528188	-16.4725425
3.65	365	0.485	0.263	-3.996	155.2143222	-64.8015498	-11.3445684	22.0302351	6.26816052	-16.83923562
3.66	366	2.484	-2.087	-3.996	98.8925508	-184.6643634	-68.5257768	22.92977916	4.87587258	-18.21433482
3.67	367	2.777	-2.048	-3.996	98.3768886	-211.135023	68.5830726	23.93818524	2.72728008	-18.4778955
3.68	368	-0.607	-0.714	-3.996	87.376095	-94.251591	75.4585686	24.84918846	1.58709366	-18.20860524
3.69	369	-1.551	-0.682	-3.948	75.4585686	44.8626114	8.880849	25.61695218	1.95378678	-17.92785582
3.7	370	-0.222	0.543	-3.482	-283.8433932	44.5761324	-35.1796212	22.72351428	2.45798982	-18.04244742
3.71	371	0.277	-0.061	-2.523	-184.9508424	46.3523022	-12.8342592	20.84421204	2.90489706	-17.97369246
3.72	372	0.478	-1.455	-1.338	-26.356068	8.6516658	18.048177	20.58638094	2.91635622	-17.77315716
3.73	373	0.633	-2.253	-0.721	-7.2192708	-33.9764094	22.058883	20.51762598	2.52674478	-17.69294304
3.74	374	0.686	-1.939	-0.427	-5.0420304	-36.669312	-1.0313244	20.46605976	2.18869956	-17.84191212
3.75	375	0.459	-1.023	-0.387	-78.6671334	-48.8733174	-21.9442914	19.68683688	1.82200644	-18.22579398
3.76	376	0.277	-0.273	-0.365	-138.2547654	-45.0917946	-17.0741484	18.2773602	1.43812458	-18.5351913
3.77	377	0.199	0.403	-0.561	-118.2585312	-51.9099948	-2.4637194	17.07987798	0.9453807	-18.72426744
3.78	378	-0.012	0.648	-0.484	-79.9849368	-67.2652692	15.2979786	16.27773678	0.26356068	-18.78156324
3.79	379	-0.201	0.772	-0.135	-76.3753014	-20.5691922	25.2674478	15.50424348	-0.00572958	-18.59821668
3.8	380	-0.117	0.866	0.227	-56.149884	18.621135	20.9702628	14.85680094	0.09167328	-18.34611516
3.81	381	-0.07	0.701	0.164	-4.6409598	-4.9274388	21.7151082	14.8109643	-0.00572958	-18.15130944
3.82	382	-0.082	0.29	-0.075	2.9220858	-27.215505	17.5898106	14.84534178	-0.30939732	-18.05390658
3.83	383	0.005	0.156	-0.16	-16.7303736	-31.226211	19.1367972	14.67918396	-0.65317212	-17.95650372
3.84	384	0.09	-0.005	-0.12	-1.5469866	-43.9458786	24.637194	14.6677248	-1.13445684	-17.84191212
3.85	385	0.158	-0.206	-0.124	1.7761698	-51.4516284	28.3041252	14.70210228	-1.68449652	-17.71586136
3.86	386	0.17	-0.274	-0.135	-12.5477802	-56.2644756	29.3354496	14.57605152	-2.291832	-17.5898106
3.87	387	0.12	-0.347	-0.181	-22.0015872	-68.8695516	28.934379	14.35832748	-3.02521824	-17.49813732
3.88	388	0.076	-0.336	-0.204	-29.0489706	-75.057498	23.6631654	14.07184848	-3.79871154	-17.46948942
3.89	389	-0.009	-0.035	-0.174	-14.037471	-74.4272442	13.2353298	13.94579772	-4.54355694	-17.53824438
3.9	390	-0.089	0.223	-0.2	5.9014674	-72.8802576	5.443101	14.0088231	-5.25402486	-17.68148388
3.91	391	-0.118	0.314	-0.235	11.2299768	-69.3852138	-0.4583664	14.14633302	-5.91292656	-17.87056002
3.92	392	-0.162	0.34	-0.21	6.302538	-67.4371566	-1.718874	14.24373588	-6.54890994	-18.07109532
3.93	393	-0.229	0.345	-0.24	2.0626488	-64.9734372	-0.4583664	14.2953021	-7.16770458	-18.25444188
3.94	394	-0.254	0.358	-0.472	-2.3491278	-58.6708992	1.3178034	14.2953021	-7.72920342	-18.39768138
3.95	395	-0.207	0.368	-0.715	-4.870143	-48.8160216	3.6096354	14.1807105	-8.21621772	-18.48362508
3.96	396	-0.228	0.363	-1.133	-7.5630456	-39.0757356	7.7922288	14.11195554	-8.60582916	-18.51227298
3.97	397	-0.416	0.312	-1.681	-12.0894138	-31.226211	8.880849	13.99163436	-8.92668564	-18.51227298
3.98	398	-0.739	0.189	-2.162	-16.1574156	-9.1100322	3.8961144	13.83120612	-9.0240885	-18.49508424
3.99	399	-1.093	-0.088	-2.375	-20.912967	22.0015872	-6.9327918	13.61348208	-8.80063488	-18.5065434
4	400	-1.232	-0.457	-2.51	-28.934379	56.6082504	-19.5378678	13.3212735	-8.2219473	-18.54665046
4.01	401	-0.892	-0.534	-2.253	-37.0130868	71.5624542	-20.05353	12.93739164	-7.49429064	-18.55810962
4.02	402	-0.443	-0.251	-1.742	-50.8213746	63.4837464	-9.1100322	12.4045407	-6.875496	-18.48935466
4.03	403	-0.244	0	-1.534	-64.744254	58.0979412	3.7815228	11.7169911	-6.3311859	-18.31173768
4.04	404	-0.149	0.139	-1.439	-70.0727634	57.0666168	9.3965112	10.9721457	-5.80979412	-18.08828406
4.05	405	-0.084	0.185	-1.307	-67.2652692	53.9153478	10.1986524	10.25021862	-5.31132066	-17.87056002
4.06	406	-0.044	0.216	-1.13	-57.582279	38.3308902	14.4958374	9.63715356	-4.97327544	-17.6471064
4.07	407	-0.071	0.226	-0.964	-44.6334282	14.8396122	22.4026578	9.16159842	-4.87587258	-17.39500488
4.08	408	-0.121	0.177	-0.826	-36.7266078	-1.145916	28.9916748	8.7662574	-4.93316838	-17.10852588
4.09	409	-0.143	0.144	-0.822	-35.2942128	-7.6776372	32.8877892	8.38237554	-5.06494872	-16.79912856
4.1	410	-0.123	0.144	-0.853	-35.9244666	-10.4851314	33.3461556	7.95838662	-5.22537696	-16.47827208
4.11	411	-0.095	0.164	-0.804	-30.0229992	-11.0007936	30.080295	7.63180056	-5.37434604	-16.19752266
4.12	412	-0.061	0.164	-0.712	-19.8816426	-6.6463128	22.2307704	7.41407652	-5.4717489	-15.9855282
4.13	413	-0.029	0.136	-0.659	-11.5164558	-1.2605076	14.4958374	7.28229618	-5.50612638	-15.84801828
4.14	414	-0.019	0.083	-0.638	-2.578311	3.0939732	7.3911582	7.2479187	-5.48320806	-15.76780416
4.15	415	-0.022	0.011	-0.64	6.1879464	7.1046792	1.3750992	7.29375534	-5.40872352	-15.74488584
4.16	416	-0.018	-0.078	-0.671	12.7769634	12.5477802	-1.7761698	7.42553568	-5.28267276	-15.73915626
4.17	417	-0.018	-0.143	-0.73	18.334656	18.334656	-1.6615782	7.60888224	-5.0993262	-15.73342668
4.18	418	-0.018	-0.203	-0.805	21.7151082	22.7464326	0.3437748	7.8208767	-4.87587258	-15.69331962
4.19	419	-0.022	-0.24	-0.864	20.5691922	25.0382646	3.0939732	8.021412	-4.63523022	-15.61883508
4.2	420	-0.028	-0.261	-0.934	17.3033316	25.6685184	4.8128472	8.20475856	-4.37739912	-15.53289138
4.21	421	-0.013	-0.282	-0.992	12.8342592	25.6685184	4.7555514	8.32507974	-4.13675676	-15.44694768
4.22	422	0	-0.302	-1.052	9.3392154	25.5539268	3.4950438	8.41102344	-3.89038482	-15.36673356
4.23	423	0.019	-0.325	-1.115	7.1046792	24.7517856	1.8334656	8.4797784	-3.64974246	-15.30370818
4.24	424	0.04	-0.341	-1.165	5.2712136	22.8610242	0.1145916	8.52561504	-3.42628884	-15.26360112
4.25	425	0.069	-0.353	-1.192	3.2658606	20.2827132	-1.6615782	8.57145168	-3.2085648	-15.24641238
4.26	426	0.102	-0.351	-1.189	0.9167328	17.0741484	-3.4950438	8.57718126	-3.0366774	-15.25214196
4.27	427	0.127	-0.342	-1.167	-1.2032118	14.2666542	-5.2712136	8.5657221	-2.8934379	-15.28078986
4.28	428	0.141	-0.327	-1.122	-4.5263682	13.464513	-7.161975	8.51988546	-2.7501984	-15.3266265
4.29	429	0.138	-0.301	-1.077	-7.3911582	14.1520626	-8.6516658	8.44540092	-2.60122932	-15.38965188
4.3	430	0.127	-0.277	-1.039	-7.5630456	14.610429	-9.6256944	8.38810512	-2.4064236	-15.46413642
4.31	431	0.12	-0.261	-0.99	-7.9068204	13.9228794	-9.5111028	8.307891	-2.25745452	-15.53289138
4.32	432	0.111	-0.228	-0.943	-10.7143146	13.178034	-8.4224826	8.19902898	-2.1199446	-15.59018718
4.33	433	0.101	-0.176	-0.913	-12.0894138	12.318597	-7.161975	8.0787078	-1.98816426	-15.6417534
4.34	434	0.084	-0.13	-0.892	-11.745639	11.2299768	-6.1306506	7.95838662	-1.87357266	-15.68186046
4.35	435	0.069	-0.094	-0.882	-11.9748222	10.0840608	-5.3285094	7.8208767	-1.7475219	-15.72196752
4.36	436	0.057	-0.071	-0.884	-11.2299768	8.3651868	-4.8128472	7.7062851	-1.65584862	-15.75061542
4.37	437	0.049	-0.061	-0.879	-10.7143146	5.7868758	-4.6409598	7.59742308	-1.59855282	-15.79072248
4.38	438	0.045	-0.058	-0.879	-10.8289062	2.005353	-4.870143	7.48856106	-1.56990492	-15.83655912
4.39	439	0.041	-0.058	-0.89	-9.740286	-2.2345362	-5.0993262	7.3911582	-1.58709366	-15.88812534
4.4	440	0.033	-0.067	-0.908	-8.307891	-6.1306506	-5.5003968	7.28229618	-1.62720072	-15.95115072
4.41	441	0.014	-0.069	-0.923	-7.2765666	-9.453807	-5.6722842	7.21354122	-1.71314442	-16.01990568
4.42	442	-0.012	-0.067	-0.946	-6.3598338	-11.45916	-5.443101	7.15051584	-1.81627686	-16.09439022
4.43	443	-0.033	-0.064	-0.971	-5.6149884	-11.5737516	-4.6982556	7.09894962	-1.92513888	-16.1574156
4.44	444	-0.049	-0.052	-0.994	-4.9274388	-11.0007936	-3.8388186	7.05311298	-2.02827132	-16.20898182
4.45	445	-0.056	-0.044	-1.017	-3.9534102	-10.0840608	-3.2658606	6.96716928	-2.13713334	-16.25481846
4.46	446	-0.056	-0.045	-1.033	-3.2085648	-9.6256944	-2.86479	6.93852138	-2.22880662	-16.29492552
4.47	447	-0.054	-0.049	-1.043	-2.291832	-9.6256944	-2.5210152	6.91560306	-2.3204799	-16.33503258
4.48	448	-0.049	-0.059	-1.057	-1.3178034	-9.5111028	-2.291832	6.9041439	-2.41215318	-16.37513964
4.49	449	-0.046	-0.07	-1.06	-1.2032118	-9.5111028	-2.2345362	6.89841432	-2.49809688	-16.40951712
4.5	450	-0.046	-0.08	-1.054	-1.9480572	-9.740286	-2.4637194	6.8468481	-2.59549974	-16.4438946
4.51	451	-0.049	-0.084	-1.044	-2.6929026	-10.1413566	-2.7501984	6.82392978	-2.6929026	-16.48973124
4.52	452	-0.051	-0.088	-1.028	-3.2085648	-10.026765	-2.9793816	6.79528188	-2.78457588	-16.5298383
4.53	453	-0.055	-0.092	-1.019	-3.6096354	-9.7975818	-3.151269	6.7609044	-2.88197874	-16.57567494
4.54	454	-0.065	-0.096	-1.022	-4.1825934	-9.740286	-3.0939732	6.72079734	-2.97365202	-16.62151158
4.55	455	-0.078	-0.096	-1.019	-4.5263682	-10.2559482	-2.7501984	6.65777196	-3.08824362	-16.66161864
4.56	456	-0.088	-0.093	-1.006	-4.6409598	-9.8548776	-2.5210152	6.6176649	-3.1799169	-16.7017257
4.57	457	-0.086	-0.091	-0.991	-4.4117766	-9.5683986	-2.4064236	6.57182826	-3.27159018	-16.73610318
4.58	458	-0.083	-0.092	-0.951	-4.1825934	-9.7975818	-2.291832	6.53745078	-3.36326346	-16.77621024
4.59	459	-0.079	-0.091	-0.94	-4.6982556	-8.880849	-2.1199446	6.49161414	-3.44920716	-16.80485814
4.6	460	-0.074	-0.087	-0.943	-4.6409598	-7.2765666	-1.8334656	6.42285918	-3.53515086	-16.83350604
4.61	461	-0.072	-0.089	-0.951	-4.1252976	-5.5576926	-1.4896908	6.38275212	-3.58671708	-16.85642436
4.62	462	-0.068	-0.092	-0.963	-3.4950438	-4.1825934	-1.2605076	6.34837464	-3.62682414	-16.8736131
4.63	463	-0.066	-0.099	-0.962	-2.6929026	-3.2085648	-0.9167328	6.31972674	-3.65547204	-16.88507226
4.64	464	-0.066	-0.103	-0.967	-2.2345362	-2.578311	-0.5156622	6.29680842	-3.68411994	-16.89653142
4.65	465	-0.069	-0.103	-0.971	-1.3178034	-1.5469866	-0.1718874	6.19940556	-3.74714532	-16.89080184
4.66	466	-0.068	-0.106	-0.976	-0.3437748	-0.9740286	0.2291832	6.19940556	-3.7528749	-16.88507226
4.67	467	-0.069	-0.111	-0.969	0.1718874	-0.6875496	0.6302538	6.19940556	-3.76433406	-16.87934268
4.68	468	-0.068	-0.115	-0.977	-0.3437748	0.9167328	0.9740286	6.19367598	-3.7528749	-16.86788352
4.69	469	-0.068	-0.116	-0.987	-0.8021412	1.8334656	1.0886202	6.18221682	-3.73568616	-16.85642436
4.7	470	-0.068	-0.114	-0.994	-0.859437	2.2345362	0.9740286	6.14210976	-3.73568616	-16.83923562
4.71	471	-0.065	-0.111	-0.995	-0.6875496	2.5210152	0.8021412	6.13638018	-3.71276784	-16.82777646
4.72	472	-0.065	-0.108	-0.995	-0.572958	2.3491278	0.6302538	6.1306506	-3.68984952	-16.8163173
4.73	473	-0.065	-0.107	-0.994	-0.4583664	2.4637194	0.5156622	6.11919144	-3.6669312	-16.81058772
4.74	474	-0.066	-0.107	-0.996	-0.4583664	2.9793816	0.4583664	6.11346186	-3.6382833	-16.79912856
4.75	475	-0.063	-0.109	-0.988	-1.0886202	3.7815228	0.3437748	6.07908438	-3.60390582	-16.7876694
4.76	476	-0.051	-0.108	-0.984	-2.1199446	4.870143	0.286479	6.05616606	-3.55806918	-16.78193982
4.77	477	-0.037	-0.106	-0.983	-2.1772404	5.3285094	0.3437748	6.03324774	-3.50650296	-16.77048066
4.78	478	-0.027	-0.104	-0.985	-1.8907614	5.156622	0.3437748	6.016059	-3.45493674	-16.7590215
4.79	479	-0.022	-0.097	-0.986	-1.9480572	4.5263682	0.286479	5.99314068	-3.4091001	-16.74756234
4.8	480	-0.021	-0.088	-0.983	-2.2345362	3.7815228	0.5156622	5.91865614	-3.34034514	-16.73610318
4.81	481	-0.023	-0.079	-0.986	-2.5210152	3.5523396	0.572958	5.89573782	-3.30596766	-16.7303736
4.82	482	-0.024	-0.073	-0.99	-2.4064236	3.8961144	0.5156622	5.86708992	-3.2658606	-16.71891444
4.83	483	-0.024	-0.07	-0.992	-2.2345362	4.2398892	0.4583664	5.8441716	-3.22575354	-16.70745528
4.84	484	-0.023	-0.071	-0.988	-2.0626488	4.4690724	0.4583664	5.82125328	-3.18564648	-16.69599612
4.85	485	-0.021	-0.075	-0.99	-1.718874	4.3544808	0.4583664	5.74676874	-3.10543236	-16.68453696
4.86	486	-0.02	-0.076	-0.989	-1.4896908	4.2398892	0.572958	5.72958	-3.0653253	-16.6730778
4.87	487	-0.018	-0.076	-0.986	-1.3178034	4.010706	0.6302538	5.71812084	-3.02521824	-16.66161864
4.88	488	-0.017	-0.072	-0.985	-1.2605076	3.8388186	0.5156622	5.7009321	-2.99084076	-16.65015948
4.89	489	-0.016	-0.072	-0.985	-0.9740286	3.3231564	0.286479	5.69520252	-2.95646328	-16.6444299
4.9	490	-0.014	-0.077	-0.986	-0.9167328	3.151269	-0.0572958	5.60925882	-2.87051958	-16.6444299
4.91	491	-0.01	-0.081	-0.987	-0.859437	2.9220858	-0.1145916	5.60352924	-2.84187168	-16.63870032
4.92	492	-0.007	-0.084	-0.992	-0.6875496	2.291832	-0.1718874	5.59207008	-2.81895336	-16.63870032
4.93	493	-0.006	-0.089	-0.989	-0.4583664	1.6615782	-0.0572958	5.5863405	-2.80176462	-16.63870032
4.94	494	-0.007	-0.094	-0.988	-0.5156622	1.145916	-0.0572958	5.58061092	-2.79030546	-16.63870032
4.95	495	-0.009	-0.096	-0.989	-0.6875496	0.6302538	-0.1145916	5.4717489	-2.62414764	-16.6444299
4.96	496	-0.011	-0.097	-0.989	-0.572958	0.1145916	-0.1718874	5.46601932	-2.61841806	-16.65015948
4.97	497	-0.012	-0.097	-0.987	-0.6875496	0.0572958	-0.286479	5.45456016	-2.61841806	-16.65015948
4.98	498	-0.011	-0.098	-0.99	-0.7448454	0.1145916	-0.4583664	5.44883058	-2.61841806	-16.65588906
4.99	499	-0.01	-0.1	-0.991	-0.6875496	-0.2291832	-0.572958	5.443101	-2.61841806	-16.66161864
5	500	-0.01	-0.102	-0.986	-0.9167328	-0.4583664	-0.6875496	5.39726436	-2.5496631	-16.6730778
5.01	501	-0.013	-0.1	-0.985	-1.4896908	-0.6302538	-0.6875496	5.38007562	-2.55539268	-16.68453696
5.02	502	-0.017	-0.096	-0.984	-1.7761698	-0.859437	-0.859437	5.36288688	-2.56685184	-16.69026654
5.03	503	-0.021	-0.092	-0.982	-1.8907614	-0.859437	-1.0313244	5.34569814	-2.57258142	-16.7017257
5.04	504	-0.021	-0.091	-0.983	-2.1199446	-0.6302538	-1.145916	5.32277982	-2.578311	-16.71318486
5.05	505	-0.019	-0.09	-0.985	-1.8334656	-0.4583664	-1.0313244	5.25975444	-2.54393352	-16.7303736
5.06	506	-0.018	-0.089	-0.987	-1.6042824	-0.9740286	-0.9167328	5.2425657	-2.5496631	-16.73610318
5.07	507	-0.018	-0.085	-0.988	-1.3178034	-1.5469866	-0.859437	5.23110654	-2.56685184	-16.74756234
5.08	508	-0.019	-0.081	-0.987	-1.145916	-1.7761698	-0.859437	5.21964738	-2.58404058	-16.7590215
5.09	509	-0.021	-0.077	-0.989	-1.2032118	-2.0626488	-1.0313244	5.20818822	-2.60122932	-16.77048066
5.1	510	-0.027	-0.074	-0.989	-1.2032118	-2.0626488	-1.2032118	5.13370368	-2.6069589	-16.7876694
5.11	511	-0.029	-0.074	-0.99	-1.3178034	-1.8907614	-1.3750992	5.12224452	-2.62414764	-16.79912856
5.12	512	-0.032	-0.077	-0.989	-0.9167328	-2.0626488	-1.4896908	5.11651494	-2.64706596	-16.8163173
5.13	513	-0.033	-0.081	-0.984	-0.7448454	-2.1199446	-1.432395	5.10505578	-2.6642547	-16.83350604
5.14	514	-0.038	-0.08	-0.986	-0.9167328	-2.005353	-1.2605076	5.0993262	-2.68144344	-16.85069478
5.15	515	-0.043	-0.079	-0.985	-1.0886202	-1.5469866	-1.0313244	5.02484166	-2.71009134	-16.85642436
5.16	516	-0.046	-0.08	-0.983	-1.145916	-0.9740286	-0.9740286	5.0133825	-2.71582092	-16.86788352
5.17	517	-0.046	-0.084	-0.987	-1.0313244	-0.6302538	-1.0886202	5.00192334	-2.7215505	-16.87934268
5.18	518	-0.041	-0.092	-0.983	-0.9740286	-0.4010706	-1.0886202	4.99619376	-2.72728008	-16.89080184
5.19	519	-0.038	-0.098	-0.975	-1.3178034	-0.1718874	-1.0886202	4.97900502	-2.72728008	-16.902261
5.2	520	-0.036	-0.098	-0.981	-1.3178034	-0.1145916	-1.0313244	4.93889796	-2.71582092	-16.91372016
5.21	521	-0.035	-0.097	-0.982	-0.9167328	-0.0572958	-0.9740286	4.9274388	-2.71582092	-16.92517932
5.22	522	-0.034	-0.093	-0.984	-0.859437	-0.572958	-0.8021412	4.92170922	-2.7215505	-16.9309089
5.23	523	-0.034	-0.09	-0.984	-0.859437	-0.286479	-0.572958	4.91025006	-2.72728008	-16.93663848
5.24	524	-0.036	-0.09	-0.988	-0.7448454	0.1145916	-0.5156622	4.90452048	-2.7215505	-16.94236806
5.25	525	-0.035	-0.089	-0.988	-0.6875496	0.286479	-0.4583664	4.82430636	-2.6929026	-16.94809764
5.26	526	-0.033	-0.088	-0.989	-0.5156622	0.2291832	-0.4010706	4.81857678	-2.6929026	-16.94809764
5.27	527	-0.032	-0.089	-0.993	-0.1718874	0.0572958	-0.4010706	4.81857678	-2.6929026	-16.95382722
5.28	528	-0.033	-0.089	-0.989	-0.1145916	0.1145916	-0.4583664	4.8128472	-2.68717302	-16.9595568
5.29	529	-0.034	-0.087	-0.987	-0.4010706	0.3437748	-0.3437748	4.8128472	-2.68717302	-16.9595568
5.3	530	-0.035	-0.085	-0.99	-0.572958	0.6875496	-0.2291832	4.7269035	-2.65852512	-16.9595568
5.31	531	-0.035	-0.084	-0.985	-0.7448454	0.6875496	-0.1145916	4.71544434	-2.65279554	-16.9595568
5.32	532	-0.031	-0.083	-0.983	-0.9167328	0.859437	-0.0572958	4.70971476	-2.64706596	-16.9595568
5.33	533	-0.028	-0.085	-0.985	-0.6875496	0.859437	0	4.6982556	-2.6356068	-16.9595568
5.34	534	-0.027	-0.086	-0.987	-0.5156622	0.6875496	-0.0572958	4.69252602	-2.62987722	-16.9595568
5.35	535	-0.026	-0.086	-0.99	-0.5156622	0.572958	-0.1145916	4.60085274	-2.56685184	-16.9595568
5.36	536	-0.025	-0.085	-0.992	-0.3437748	0.5156622	-0.1145916	4.59512316	-2.56112226	-16.96528638
5.37	537	-0.026	-0.084	-0.991	-0.3437748	0.5156622	-0.1718874	4.59512316	-2.55539268	-16.96528638
5.38	538	-0.026	-0.083	-0.99	-0.4583664	0.572958	-0.0572958	4.58939358	-2.5496631	-16.96528638
5.39	539	-0.025	-0.084	-0.988	-0.6302538	0.9167328	-0.1718874	4.583664	-2.53820394	-16.96528638
5.4	540	-0.023	-0.087	-0.986	-1.0313244	1.2605076	-0.2291832	4.54355694	-2.4923673	-16.96528638
5.41	541	-0.021	-0.088	-0.987	-1.0886202	1.2032118	-0.286479	4.53209778	-2.48090814	-16.97101596
5.42	542	-0.018	-0.089	-0.985	-0.9740286	1.0313244	-0.2291832	4.52063862	-2.46944898	-16.97101596
5.43	543	-0.017	-0.09	-0.984	-1.2032118	0.859437	-0.4010706	4.50917946	-2.45798982	-16.97674554
5.44	544	-0.016	-0.087	-0.985	-1.3178034	0.572958	-0.5156622	4.4977203	-2.45226024	-16.98247512
5.45	545	-0.017	-0.085	-0.987	-1.145916	0.3437748	-0.572958	4.43469492	-2.39496444	-16.9882047
5.46	546	-0.019	-0.082	-0.987	-0.9740286	0.1718874	-0.6302538	4.42896534	-2.38923486	-16.99393428
5.47	547	-0.018	-0.083	-0.983	-0.8021412	0.1145916	-0.4583664	4.41750618	-2.38923486	-16.99966386
5.48	548	-0.016	-0.086	-0.981	-0.859437	0	-0.4583664	4.4117766	-2.38923486	-17.00539344
5.49	549	-0.015	-0.087	-0.983	-0.7448454	-0.0572958	-0.286479	4.40031744	-2.38923486	-17.00539344
5.5	550	-0.015	-0.088	-0.986	-0.6302538	-0.2291832	-0.1718874	4.34302164	-2.291832	-17.01112302
5.51	551	-0.018	-0.087	-0.989	-0.6302538	-0.2291832	-0.286479	4.33729206	-2.29756158	-17.0168526
5.52	552	-0.021	-0.086	-0.99	-0.5156622	-0.1145916	-0.286479	4.33156248	-2.29756158	-17.02258218
5.53	553	-0.021	-0.085	-0.99	-0.4583664	-0.0572958	-0.4583664	4.3258329	-2.29756158	-17.02258218
5.54	554	-0.02	-0.084	-0.988	-0.4010706	0	-0.5156622	4.32010332	-2.29756158	-17.02831176
5.55	555	-0.02	-0.083	-0.988	-0.286479	-0.0572958	-0.5156622	4.25134836	-2.2345362	-17.03977092
5.56	556	-0.019	-0.083	-0.991	-0.1145916	-0.4010706	-0.4583664	4.25134836	-2.24026578	-17.0455005
5.57	557	-0.02	-0.083	-0.986	-0.2291832	-0.7448454	-0.4583664	4.24561878	-2.24599536	-17.05123008
5.58	558	-0.021	-0.083	-0.984	-0.4583664	-0.8021412	-0.5156622	4.24561878	-2.25172494	-17.05695966
5.59	559	-0.023	-0.083	-0.984	-0.572958	-0.7448454	-0.6302538	4.2398892	-2.25745452	-17.06268924
5.6	560	-0.026	-0.084	-0.984	-0.8021412	-0.9740286	-0.6875496	4.2112413	-2.25745452	-17.06841882
5.61	561	-0.026	-0.085	-0.982	-1.0313244	-0.9167328	-0.6302538	4.19978214	-2.26891368	-17.07987798
5.62	562	-0.026	-0.086	-0.986	-1.0886202	-0.6875496	-0.5156622	4.19405256	-2.27464326	-17.08560756
5.63	563	-0.024	-0.085	-0.989	-0.7448454	-0.8021412	-0.4010706	4.1825934	-2.28037284	-17.08560756
5.64	564	-0.024	-0.085	-0.993	-0.6875496	-0.4583664	-0.4010706	4.17686382	-2.28610242	-17.09133714
5.65	565	-0.027	-0.084	-0.993	-0.6875496	-0.1718874	-0.4010706	4.13102718	-2.2631841	-17.09706672
5.66	566	-0.026	-0.086	-0.991	-0.8021412	0	-0.5156622	4.1252976	-2.2631841	-17.1027963
5.67	567	-0.025	-0.086	-0.991	-0.6875496	0	-0.6302538	4.11383844	-2.2631841	-17.10852588
5.68	568	-0.023	-0.087	-0.989	-0.572958	0.0572958	-0.5156622	4.10810886	-2.2631841	-17.11425546
5.69	569	-0.026	-0.087	-0.99	-0.6875496	0.1145916	-0.5156622	4.10237928	-2.25745452	-17.11998504
5.7	570	-0.028	-0.089	-0.993	-0.6302538	0	-0.4010706	4.08519054	-2.24599536	-17.12571462
5.71	571	-0.031	-0.092	-0.983	-0.859437	-0.286479	-0.5156622	4.07946096	-2.25172494	-17.1314442
5.72	572	-0.031	-0.091	-0.979	-1.3178034	-0.1145916	-0.6875496	4.06227222	-2.25172494	-17.13717378
5.73	573	-0.029	-0.093	-0.972	-1.6042824	0	-0.8021412	4.05081306	-2.25172494	-17.14290336
5.74	574	-0.031	-0.092	-0.975	-1.8907614	0	-0.8021412	4.02789474	-2.25172494	-17.15436252
5.75	575	-0.031	-0.089	-0.98	-1.8907614	0	-0.6875496	4.00497642	-2.24599536	-17.1600921
5.76	576	-0.028	-0.086	-0.982	-1.6042824	-0.3437748	-0.4583664	3.98778768	-2.25172494	-17.16582168
5.77	577	-0.023	-0.085	-0.985	-1.0313244	-0.2291832	-0.4010706	3.9820581	-2.25172494	-17.17155126
5.78	578	-0.024	-0.083	-0.99	-0.7448454	0	-0.4010706	3.97059894	-2.25172494	-17.17155126
5.79	579	-0.025	-0.079	-0.99	-0.4583664	-0.1145916	-0.4010706	3.96486936	-2.25172494	-17.17728084
5.8	580	-0.023	-0.076	-0.987	-0.286479	-0.2291832	-0.4583664	3.89038482	-2.2058883	-17.18301042
5.81	581	-0.023	-0.077	-0.988	-0.1145916	-0.286479	-0.4583664	3.89038482	-2.2058883	-17.18874
5.82	582	-0.023	-0.079	-0.986	-0.2291832	-0.0572958	-0.4583664	3.88465524	-2.21161788	-17.19446958
5.83	583	-0.024	-0.081	-0.985	-0.4010706	0.0572958	-0.3437748	3.87892566	-2.2058883	-17.20019916
5.84	584	-0.023	-0.082	-0.99	-0.286479	0.0572958	-0.286479	3.87892566	-2.2058883	-17.20019916
5.85	585	-0.024	-0.081	-0.993	-0.2291832	0	-0.2291832	3.8101707	-2.13140376	-17.20592874
5.86	586	-0.024	-0.081	-0.993	-0.1145916	0	-0.1718874	3.8101707	-2.13140376	-17.20592874
5.87	587	-0.023	-0.084	-0.991	-0.1718874	0.1718874	-0.3437748	3.80444112	-2.12567418	-17.21165832
5.88	588	-0.022	-0.087	-0.991	-0.1718874	0.2291832	-0.5156622	3.80444112	-2.12567418	-17.2173879
5.89	589	-0.02	-0.089	-0.992	-0.1145916	0.0572958	-0.6302538	3.80444112	-2.1199446	-17.22311748
5.9	590	-0.018	-0.086	-0.987	-0.1718874	-0.1145916	-0.572958	3.79871154	-2.07410796	-17.23457664
5.91	591	-0.017	-0.084	-0.988	-0.2291832	-0.5156622	-0.4583664	3.79871154	-2.07410796	-17.24030622
5.92	592	-0.017	-0.084	-0.986	-0.4583664	-0.8021412	-0.3437748	3.79298196	-2.08556712	-17.24030622
5.93	593	-0.019	-0.082	-0.985	-1.0886202	-0.859437	-0.4010706	3.7815228	-2.0912967	-17.2460358
5.94	594	-0.02	-0.082	-0.988	-1.4896908	-0.572958	-0.4010706	3.76433406	-2.09702628	-17.25176538
5.95	595	-0.021	-0.087	-0.986	-1.3178034	-0.3437748	-0.3437748	3.76433406	-2.07410796	-17.25749496
5.96	596	-0.021	-0.091	-0.985	-1.3178034	-0.1718874	-0.2291832	3.74714532	-2.07983754	-17.25749496
5.97	597	-0.022	-0.091	-0.983	-1.3178034	-0.1145916	-0.2291832	3.73568616	-2.07983754	-17.26322454
5.98	598	-0.021	-0.088	-0.983	-1.0886202	-0.1718874	-0.2291832	3.724227	-2.07983754	-17.26322454
5.99	599	-0.021	-0.085	-0.985	-0.9167328	-0.4010706	-0.3437748	3.71849742	-2.08556712	-17.26895412
6	600	-0.021	-0.082	-0.986	-0.6875496	-0.572958	-0.4583664	3.6955791	-2.06837838	-17.2746837
6.01	601	-0.021	-0.082	-0.984	-0.6302538	-0.9740286	-0.4583664	3.68984952	-2.07983754	-17.28041328
6.02	602	-0.022	-0.081	-0.987	-0.6875496	-1.0313244	-0.6302538	3.68411994	-2.0912967	-17.28614286
6.03	603	-0.022	-0.083	-0.989	-0.5156622	-0.6302538	-0.4010706	3.67839036	-2.09702628	-17.29187244
6.04	604	-0.024	-0.085	-0.988	-0.1718874	-0.5156622	-0.3437748	3.67839036	-2.10275586	-17.29760202
6.05	605	-0.025	-0.086	-0.986	-0.1718874	-0.2291832	-0.286479	3.68411994	-2.07983754	-17.3033316
6.06	606	-0.025	-0.086	-0.987	-0.1145916	-0.2291832	-0.3437748	3.68411994	-2.07983754	-17.30906118
6.07	607	-0.022	-0.085	-0.99	-0.0572958	-0.286479	-0.4010706	3.67839036	-2.07983754	-17.30906118
6.08	608	-0.021	-0.085	-0.987	-0.0572958	-0.4010706	-0.5156622	3.67839036	-2.08556712	-17.31479076
6.09	609	-0.023	-0.084	-0.986	-0.1718874	-0.3437748	-0.6875496	3.67839036	-2.0912967	-17.32624992
6.1	610	-0.025	-0.083	-0.989	-0.3437748	-0.1718874	-0.7448454	3.67266078	-2.07983754	-17.3319795
6.11	611	-0.026	-0.084	-0.99	-0.4010706	-0.1718874	-0.6302538	3.6669312	-2.07983754	-17.33770908
6.12	612	-0.027	-0.085	-0.987	-0.4010706	-0.2291832	-0.572958	3.66120162	-2.08556712	-17.34343866
6.13	613	-0.025	-0.084	-0.987	-0.4010706	-0.1718874	-0.5156622	3.66120162	-2.08556712	-17.34916824
6.14	614	-0.024	-0.084	-0.99	-0.4010706	-0.2291832	-0.5156622	3.65547204	-2.08556712	-17.35489782
6.15	615	-0.023	-0.083	-0.985	-0.7448454	-0.5156622	-0.4583664	3.64401288	-2.07983754	-17.3606274
6.16	616	-0.023	-0.081	-0.985	-1.2032118	-0.5156622	-0.6875496	3.63255372	-2.08556712	-17.37208656
6.17	617	-0.022	-0.081	-0.987	-1.145916	-0.4583664	-0.6875496	3.62109456	-2.0912967	-17.37781614
6.18	618	-0.022	-0.084	-0.988	-0.9740286	-0.3437748	-0.6302538	3.6096354	-2.09702628	-17.38354572
6.19	619	-0.025	-0.085	-0.987	-0.8021412	-0.1718874	-0.572958	3.60390582	-2.09702628	-17.3892753
6.2	620	-0.026	-0.086	-0.987	-0.6302538	0	-0.572958	3.6096354	-2.08556712	-17.39500488
6.21	621	-0.024	-0.086	-0.991	-0.286479	0	-0.6302538	3.60390582	-2.08556712	-17.40073446
6.22	622	-0.023	-0.084	-0.989	0	-0.2291832	-0.572958	3.60390582	-2.0912967	-17.41219362
6.23	623	-0.022	-0.08	-0.982	-0.2291832	-0.286479	-0.6302538	3.60390582	-2.0912967	-17.4179232
6.24	624	-0.023	-0.08	-0.984	-0.7448454	0	-0.3437748	3.59817624	-2.0912967	-17.4179232
6.25	625	-0.023	-0.084	-0.989	-0.859437	0	-0.1718874	3.59817624	-2.06837838	-17.42365278
6.26	626	-0.024	-0.092	-0.988	-0.859437	-0.4010706	-0.0572958	3.59244666	-2.07410796	-17.42365278
6.27	627	-0.025	-0.094	-0.985	-0.6302538	-0.6302538	-0.286479	3.58671708	-2.07983754	-17.42938236
6.28	628	-0.026	-0.095	-0.98	-0.572958	-0.286479	-0.5156622	3.5809875	-2.07983754	-17.43511194
6.29	629	-0.025	-0.09	-0.982	-0.7448454	-0.0572958	-0.7448454	3.56952834	-2.07983754	-17.44084152
6.3	630	-0.025	-0.084	-0.987	-0.4583664	-0.1718874	-0.7448454	3.56952834	-2.07410796	-17.45230068
6.31	631	-0.022	-0.079	-0.986	-0.3437748	-0.572958	-0.6875496	3.56379876	-2.07983754	-17.45803026
6.32	632	-0.02	-0.079	-0.983	-0.5156622	-0.6875496	-0.572958	3.56379876	-2.08556712	-17.46375984
6.33	633	-0.019	-0.082	-0.987	-0.4583664	-0.3437748	-0.5156622	3.55806918	-2.08556712	-17.46948942
6.34	634	-0.02	-0.084	-0.99	-0.3437748	-0.286479	-0.5156622	3.5523396	-2.0912967	-17.475219
6.35	635	-0.021	-0.082	-0.991	0.572958	-0.1145916	-0.2291832	3.55806918	-2.07410796	-17.48094858
6.36	636	-0.023	-0.081	-0.993	1.0313244	0	-0.1718874	3.56952834	-2.07410796	-17.48094858
6.37	637	-0.027	-0.078	-0.992	1.145916	0.1145916	-0.1718874	3.5809875	-2.07410796	-17.48094858
6.38	638	-0.028	-0.08	-0.985	0.7448454	0.3437748	-0.2291832	3.58671708	-2.06837838	-17.48667816
6.39	639	-0.024	-0.085	-0.987	0.286479	0.6302538	-0.286479	3.59244666	-2.0626488	-17.48667816
6.4	640	-0.019	-0.091	-0.992	0.286479	0.5156622	0	3.62682414	-2.005353	-17.49240774
6.41	641	-0.014	-0.093	-0.996	0	0	0.0572958	3.62682414	-2.005353	-17.49240774
6.42	642	-0.012	-0.093	-0.999	-0.1145916	-0.4583664	0.1145916	3.62682414	-2.005353	-17.49240774
6.43	643	-0.013	-0.089	-0.997	-0.0572958	-0.9740286	0.0572958	3.62682414	-2.01681216	-17.49240774
6.44	644	-0.015	-0.083	-0.996	0.2291832	-1.2605076	0.1145916	3.62682414	-2.02827132	-17.49240774
6.45	645	-0.02	-0.078	-0.986	-0.5156622	-1.145916	0.1145916	3.61536498	-2.02254174	-17.49240774
6.46	646	-0.013	-0.081	-0.976	-2.6356068	-1.145916	0	3.58671708	-2.0340009	-17.49240774
6.47	647	-0.016	-0.077	-0.963	-6.9900876	-5.5576926	-0.286479	3.51796212	-2.0912967	-17.49813732
6.48	648	-0.03	-0.024	-0.915	-4.9847346	-16.3865988	-1.145916	3.47212548	-2.25172494	-17.52678522
6.49	649	-0.04	0.038	-0.835	9.2819196	-27.0436176	-3.9534102	3.56952834	-2.51528562	-17.5898106
6.5	650	-0.031	0.041	-0.776	25.210152	-33.3461556	-8.1360036	3.83308902	-2.8361421	-17.69867262
6.51	651	-0.032	-0.018	-0.79	20.7983754	-35.2942128	-11.2872726	4.05654264	-3.17418732	-17.8476417
6.52	652	-0.064	-0.033	-0.926	8.5370742	-35.523396	-10.7716104	4.1539455	-3.51223254	-17.9908812
6.53	653	-0.059	-0.061	-0.988	4.6982556	-24.5226024	-6.9900876	4.2112413	-3.74714532	-18.08828406
6.54	654	-0.038	-0.097	-1.221	8.9954406	-15.9282324	-0.859437	4.30864416	-3.90757356	-18.11120238
6.55	655	-0.066	-0.137	-1.234	22.9756158	-21.3713334	4.8128472	4.54355694	-4.11383844	-18.08828406
6.56	656	-0.054	-0.186	-1.086	28.074942	-21.9442914	3.8388186	4.83003594	-4.33156248	-18.0768249
6.57	657	-0.032	-0.159	-1.083	32.2575354	-17.1314442	-1.5469866	5.16808116	-4.4977203	-18.11120238
6.58	658	-0.061	-0.111	-1.009	39.1903272	-17.2460358	-10.4278356	5.57488134	-4.65241896	-18.23725314
6.59	659	-0.126	-0.039	-0.998	48.3576552	-15.4125702	-20.2827132	6.08481396	-4.77274014	-18.46070676
6.6	660	-0.126	0.045	-0.974	53.8007562	-6.302538	-26.1268848	6.6463128	-4.80138804	-18.7357266
6.61	661	-0.104	0.122	-0.916	59.874111	-3.724227	-28.5333084	7.2765666	-4.79565846	-19.0222056
6.62	662	-0.112	0.105	-1.005	60.9627312	0.0572958	-28.6479	7.91827956	-4.74982182	-19.31441418
6.63	663	-0.14	0.063	-0.996	59.7595194	4.4117766	-28.2468294	8.54853336	-4.65814854	-19.58943402
6.64	664	-0.163	-0.024	-0.982	60.447069	9.453807	-28.7051958	9.17878716	-4.51490904	-19.85872428
