TimeStamp(s)	FrameCounter	AccX	AccY	AccZ	GyrX	GyrY	GyrZ	EulerX	EulerY	EulerZ
0.01	1	-0.005	-0.997	0.164	0.5156622	-1.0313244	-0.0572958	99.00141282	-0.10313244	-24.0355881
0.02	2	-0.002	-0.996	0.165	0.6302538	-1.6615782	-0.1145916	99.0071424	-0.09740286	-24.05277684
0.03	3	-0.003	-0.996	0.165	0.6875496	-1.432395	-0.1145916	99.01287198	-0.09167328	-24.064236
0.04	4	-0.004	-0.996	0.166	0.4010706	-1.145916	-0.0572958	99.01860156	-0.09167328	-24.07569516
0.05	5	-0.006	-0.994	0.167	0.6302538	-0.7448454	-0.0572958	99.00141282	-0.0859437	-24.08715432
0.06	6	-0.006	-0.997	0.172	0.5156622	-0.4010706	-0.1145916	99.0071424	-0.0859437	-24.0928839
0.07	7	-0.011	-1.001	0.171	-0.1718874	-0.286479	-0.0572958	99.0071424	-0.0859437	-24.0928839
0.08	8	-0.013	-1	0.17	-0.4583664	-0.2291832	-0.2291832	99.00141282	-0.08021412	-24.09861348
0.09	9	-0.013	-1.002	0.169	-0.4583664	-0.0572958	-0.286479	98.99568324	-0.07448454	-24.09861348
0.1	10	-0.008	-1.002	0.168	-0.572958	0	-0.4010706	98.9498466	-0.06302538	-24.09861348
0.11	11	0	-0.999	0.166	-0.286479	-0.286479	-0.3437748	98.94411702	-0.0572958	-24.10434306
0.12	12	0.004	-0.998	0.167	0.286479	-0.3437748	-0.1145916	98.9498466	-0.0572958	-24.10434306
0.13	13	0.004	-0.996	0.169	0.1145916	0	0.0572958	98.9498466	-0.0572958	-24.10434306
0.14	14	0.001	-0.989	0.169	-0.1145916	0.4583664	0.1145916	98.9498466	-0.06302538	-24.10434306
0.15	15	-0.002	-0.989	0.169	-0.1718874	0.8021412	0.2291832	98.92692828	-0.0572958	-24.09861348
0.16	16	-0.005	-0.99	0.169	-0.3437748	1.2032118	0.1145916	98.9211987	-0.06302538	-24.08715432
0.17	17	-0.007	-0.994	0.169	-0.4010706	1.3178034	0	98.9211987	-0.06302538	-24.07569516
0.18	18	-0.007	-0.995	0.168	-0.4010706	1.2032118	0	98.91546912	-0.06875496	-24.05850642
0.19	19	-0.007	-0.995	0.168	-0.4010706	1.0313244	-0.1145916	98.90973954	-0.06875496	-24.05277684
0.2	20	-0.008	-0.995	0.166	-0.4010706	0.8021412	-0.1145916	98.86963248	-0.07448454	-24.04131768
0.21	21	-0.008	-0.993	0.163	-0.1145916	0.5156622	-0.1145916	98.86963248	-0.07448454	-24.0355881
0.22	22	-0.006	-0.991	0.163	0.3437748	0.4010706	-0.1145916	98.86963248	-0.06875496	-24.02985852
0.23	23	-0.003	-0.993	0.164	0.5156622	0.2291832	-0.1145916	98.87536206	-0.06875496	-24.02985852
0.24	24	-0.002	-0.993	0.163	0.7448454	0.3437748	0	98.88109164	-0.06875496	-24.02412894
0.25	25	-0.002	-0.997	0.166	0.7448454	0.3437748	0	98.85244374	-0.05156622	-24.02985852
0.26	26	-0.002	-1.001	0.165	0.572958	0.3437748	0	98.85817332	-0.05156622	-24.02412894
0.27	27	-0.002	-1	0.163	0.6302538	0.5156622	0	98.86963248	-0.05156622	-24.01839936
0.28	28	-0.003	-1	0.162	0.572958	0.4010706	-0.0572958	98.87536206	-0.05156622	-24.01839936
0.29	29	-0.004	-0.997	0.162	0.5156622	0.3437748	0	98.88109164	-0.05156622	-24.01266978
0.3	30	-0.003	-0.999	0.164	0.5156622	0	0.2291832	98.84671416	-0.04583664	-24.01839936
0.31	31	-0.004	-0.997	0.165	0.286479	-0.1718874	0.3437748	98.85244374	-0.05156622	-24.01839936
0.32	32	-0.003	-0.995	0.165	0.286479	-0.0572958	0.4010706	98.85244374	-0.05156622	-24.02412894
0.33	33	-0.004	-0.994	0.164	0.1718874	0	0.572958	98.85244374	-0.0572958	-24.02412894
0.34	34	-0.005	-0.993	0.164	-0.1145916	0.1718874	0.4583664	98.85244374	-0.06302538	-24.02412894
0.35	35	-0.006	-0.994	0.164	-0.1718874	0.4010706	0.4010706	98.82379584	-0.06875496	-24.01839936
0.36	36	-0.006	-0.994	0.162	0	0.3437748	0.3437748	98.81806626	-0.07448454	-24.01839936
0.37	37	-0.005	-0.995	0.164	0.3437748	0.286479	0.3437748	98.82379584	-0.08021412	-24.01266978
0.38	38	-0.006	-0.996	0.168	0.859437	0.1145916	0.286479	98.835255	-0.08021412	-24.01266978
0.39	39	-0.005	-0.996	0.168	0.9740286	0.1718874	0.3437748	98.84098458	-0.0859437	-24.01266978
0.4	40	-0.005	-0.995	0.166	1.0886202	0.0572958	0.5156622	98.82952542	-0.0859437	-24.01266978
0.41	41	-0.004	-0.994	0.165	1.3750992	-0.1718874	0.572958	98.84671416	-0.09167328	-24.01839936
0.42	42	-0.004	-0.996	0.162	1.432395	-0.5156622	0.5156622	98.85817332	-0.09167328	-24.02412894
0.43	43	-0.003	-0.996	0.16	1.3750992	-0.7448454	0.4583664	98.87536206	-0.09740286	-24.02985852
0.44	44	-0.002	-0.996	0.158	1.3750992	-0.9167328	0.286479	98.88682122	-0.09740286	-24.04131768
0.45	45	0	-0.998	0.158	1.4896908	-0.9740286	0.286479	98.87536206	-0.09167328	-24.05850642
0.46	46	0	-0.997	0.158	1.5469866	-0.9167328	0.1145916	98.8925508	-0.09167328	-24.064236
0.47	47	-0.002	-0.998	0.157	1.5469866	-0.8021412	0.1718874	98.90973954	-0.09167328	-24.07569516
0.48	48	-0.004	-0.996	0.16	1.6042824	-0.6302538	0.1145916	98.92692828	-0.09167328	-24.08142474
0.49	49	-0.006	-0.996	0.159	1.4896908	-0.4010706	0.2291832	98.93838744	-0.09167328	-24.08715432
0.5	50	-0.007	-0.996	0.16	1.4896908	-0.3437748	0.2291832	98.92692828	-0.09740286	-24.08715432
0.51	51	-0.006	-0.997	0.163	1.6042824	-0.2291832	0.2291832	98.93838744	-0.09740286	-24.0928839
0.52	52	-0.003	-0.998	0.162	1.6042824	-0.1718874	0.2291832	98.95557618	-0.10313244	-24.0928839
0.53	53	-0.002	-0.997	0.163	1.5469866	-0.286479	0.2291832	98.97276492	-0.10313244	-24.09861348
0.54	54	-0.001	-0.998	0.163	1.3750992	-0.3437748	0.2291832	98.98995366	-0.10313244	-24.09861348
0.55	55	-0.002	-0.998	0.162	1.3178034	-0.572958	0.286479	98.9784945	-0.09740286	-24.11007264
0.56	56	-0.003	-1.001	0.164	1.145916	-0.8021412	0.286479	98.98995366	-0.09740286	-24.11580222
0.57	57	-0.004	-1.001	0.163	0.9740286	-0.9740286	0.3437748	98.99568324	-0.10313244	-24.12726138
0.58	58	-0.004	-0.998	0.163	0.859437	-1.0313244	0.4583664	99.0071424	-0.10313244	-24.13872054
0.59	59	-0.003	-0.997	0.166	0.859437	-0.9167328	0.572958	99.01860156	-0.10886202	-24.1501797
0.6	60	-0.004	-0.997	0.169	0.6875496	-0.859437	0.6302538	99.0071424	-0.10886202	-24.16163886
0.61	61	-0.007	-1.001	0.17	0.6302538	-0.859437	0.7448454	99.01860156	-0.1145916	-24.17309802
0.62	62	-0.011	-1.001	0.169	0.4583664	-0.8021412	0.6302538	99.01860156	-0.12032118	-24.1788276
0.63	63	-0.01	-1.001	0.168	0.286479	-0.6875496	0.4583664	99.02433114	-0.12032118	-24.19028676
0.64	64	-0.011	-1.001	0.167	0.2291832	-0.6875496	0.3437748	99.03006072	-0.12605076	-24.19601634
0.65	65	-0.008	-0.999	0.164	-0.0572958	-1.145916	0.3437748	98.99568324	-0.12605076	-24.2074755
0.66	66	-0.004	-1.001	0.164	-0.2291832	-1.6615782	0.4583664	98.99568324	-0.12605076	-24.22466424
0.67	67	-0.002	-1.002	0.165	-0.7448454	-1.7761698	0.572958	98.98422408	-0.12605076	-24.24185298
0.68	68	-0.001	-1.001	0.165	-1.432395	-1.4896908	0.6302538	98.97276492	-0.13178034	-24.25904172
0.69	69	-0.002	-0.999	0.162	-2.1199446	-0.859437	0.6302538	98.9498466	-0.13750992	-24.27050088
0.7	70	-0.006	-0.999	0.161	-2.6929026	-0.1145916	0.572958	98.90400996	-0.1432395	-24.27623046
0.71	71	-0.007	-0.999	0.158	-2.9220858	0.1718874	0.572958	98.87536206	-0.14896908	-24.27623046
0.72	72	-0.007	-1	0.157	-2.9793816	0.1145916	0.4583664	98.84098458	-0.15469866	-24.27050088
0.73	73	-0.004	-1.001	0.158	-2.86479	0	0.3437748	98.81233668	-0.16042824	-24.27623046
0.74	74	0.001	-0.998	0.159	-2.9793816	-0.572958	0.1145916	98.78368878	-0.16042824	-24.28196004
0.75	75	0.005	-1	0.157	-3.3804522	-1.432395	-0.1718874	98.73785214	-0.1432395	-24.29914878
0.76	76	0.002	-1.003	0.16	-4.1252976	-2.6356068	-0.5156622	98.69774508	-0.13750992	-24.3220671
0.77	77	-0.003	-1.004	0.16	-4.1252976	-3.724227	-1.3178034	98.65190844	-0.1145916	-24.35644458
0.78	78	-0.008	-1.007	0.156	-4.2398892	-4.1825934	-2.3491278	98.61180138	-0.0859437	-24.39655164
0.79	79	-0.008	-1.008	0.152	-4.4117766	-3.4950438	-3.3804522	98.56596474	-0.04583664	-24.42519954
0.8	80	-0.004	-1.007	0.148	-4.6409598	-2.1772404	-4.5263682	98.50866894	0	-24.44238828
0.81	81	0.001	-1.007	0.143	-5.2139178	-0.6875496	-5.6722842	98.45710272	0.05156622	-24.44238828
0.82	82	0.005	-1.008	0.141	-5.9014674	0.2291832	-6.4744254	98.39980692	0.1145916	-24.43092912
0.83	83	0.008	-1.01	0.148	-6.302538	0.9167328	-6.6463128	98.33105196	0.17761698	-24.41374038
0.84	84	0.015	-1.013	0.155	-6.589017	1.5469866	-6.875496	98.26802658	0.24637194	-24.38509248
0.85	85	0.03	-1.01	0.153	-6.1879464	2.8074942	-7.734933	98.19927162	0.32658606	-24.350715
0.86	86	0.047	-1.006	0.146	-5.7868758	5.3858052	-8.3651868	98.13624624	0.39534102	-24.28768962
0.87	87	0.071	-0.994	0.142	-5.5576926	6.875496	-8.4797784	98.07895044	0.46982556	-24.2074755
0.88	88	0.093	-0.982	0.139	-5.443101	7.5057498	-7.6776372	98.02738422	0.53285094	-24.12726138
0.89	89	0.109	-0.973	0.137	-5.5576926	7.6203414	-6.4171296	97.97008842	0.58441716	-24.04131768
0.9	90	0.114	-0.966	0.144	-6.016059	7.161975	-4.7555514	97.90133346	0.64744254	-23.9782923
0.91	91	0.113	-0.963	0.152	-6.7036086	6.6463128	-3.151269	97.8325785	0.66463128	-23.90953734
0.92	92	0.111	-0.964	0.167	-7.161975	5.6149884	-1.718874	97.76382354	0.67609044	-23.85224154
0.93	93	0.098	-0.967	0.183	-7.6776372	3.8961144	-0.4010706	97.68360942	0.67036086	-23.81213448
0.94	94	0.085	-0.969	0.195	-8.2505952	1.3178034	0.5156622	97.59766572	0.66463128	-23.80067532
0.95	95	0.07	-0.973	0.207	-8.307891	-0.4010706	0.8021412	97.54036992	0.68182002	-23.81213448
0.96	96	0.053	-0.977	0.215	-7.448454	-1.2605076	0.572958	97.46588538	0.67609044	-23.82932322
0.97	97	0.04	-0.981	0.221	-5.6149884	-1.2605076	0.2291832	97.40858958	0.67609044	-23.84078238
0.98	98	0.032	-0.984	0.227	-3.3231564	-1.0886202	-0.1718874	97.3742121	0.68182002	-23.85224154
0.99	99	0.031	-0.988	0.229	-1.3178034	-0.572958	-0.286479	97.35702336	0.68182002	-23.85797112
1	100	0.032	-0.993	0.231	0.286479	0.1145916	-0.3437748	97.56328824	0.76203414	-23.86943028
1.01	101	0.039	-0.998	0.228	1.2605076	1.0313244	-0.3437748	97.5747474	0.76203414	-23.85797112
1.02	102	0.04	-1.005	0.224	1.3750992	2.2345362	-0.286479	97.59193614	0.76203414	-23.8350528
1.03	103	0.04	-1.007	0.216	0.9740286	3.3231564	-0.2291832	97.6033953	0.76203414	-23.80067532
1.04	104	0.041	-1.006	0.204	0.4010706	4.6409598	-0.4010706	97.6033953	0.75630456	-23.75483868
1.05	105	0.046	-1.004	0.193	-0.0572958	5.6722842	-0.572958	97.62631362	0.77922288	-23.70327246
1.06	106	0.052	-1.003	0.184	-0.2291832	6.589017	-0.8021412	97.62058404	0.77922288	-23.64024708
1.07	107	0.061	-1	0.174	-0.1718874	7.5057498	-0.9167328	97.62058404	0.7734933	-23.56576254
1.08	108	0.068	-0.996	0.167	0	7.8495246	-0.9740286	97.62058404	0.7734933	-23.48554842
1.09	109	0.074	-0.992	0.16	0.1718874	7.6203414	-0.9740286	97.62058404	0.76776372	-23.41106388
1.1	110	0.077	-0.987	0.154	0.3437748	7.1046792	-0.6875496	97.62631362	0.80787078	-23.35376808
1.11	111	0.074	-0.985	0.151	0.7448454	6.4171296	-0.3437748	97.6320432	0.8021412	-23.28501312
1.12	112	0.07	-0.984	0.149	1.0313244	5.9587632	-0.1718874	97.64350236	0.79641162	-23.22771732
1.13	113	0.065	-0.981	0.149	1.3750992	5.7868758	0	97.6606911	0.78495246	-23.17042152
1.14	114	0.059	-0.98	0.149	1.7761698	5.8441716	0.1718874	97.67787984	0.7734933	-23.11312572
1.15	115	0.052	-0.981	0.151	1.8334656	6.016059	0.6875496	97.69506858	0.77922288	-23.0615595
1.16	116	0.045	-0.98	0.156	2.1199446	6.3598338	1.2605076	97.7179869	0.75630456	-23.0042637
1.17	117	0.04	-0.982	0.165	3.437748	7.3338624	1.9480572	97.75236438	0.72192708	-22.92977916
1.18	118	0.037	-0.987	0.172	5.156622	8.880849	2.86479	97.8039306	0.68182002	-22.84956504
1.19	119	0.031	-0.993	0.177	6.5317212	9.2819196	3.6669312	97.87268556	0.6302538	-22.76362134
1.2	120	0.025	-0.999	0.178	7.3911582	8.880849	4.8128472	97.95289968	0.572958	-22.68340722
1.21	121	0.015	-0.998	0.181	7.2192708	8.2505952	5.72958	98.02165464	0.50420304	-22.60892268
1.22	122	0.002	-0.995	0.186	6.1306506	8.307891	6.589017	98.08468002	0.42398892	-22.53443814
1.23	123	-0.011	-0.995	0.193	5.3858052	8.9381448	7.448454	98.14197582	0.33804522	-22.4599536
1.24	124	-0.022	-0.996	0.191	4.583664	9.7975818	8.4224826	98.18781246	0.24064236	-22.3740099
1.25	125	-0.034	-0.99	0.182	3.2658606	10.0840608	8.9381448	98.22218994	0.12605076	-22.2880662
1.26	126	-0.049	-0.975	0.164	1.145916	8.2505952	8.9381448	98.2336491	0.02291832	-22.21931124
1.27	127	-0.07	-0.964	0.148	-1.2032118	4.8128472	8.307891	98.22218994	-0.06302538	-22.18493376
1.28	128	-0.088	-0.966	0.138	-4.870143	1.2032118	6.9900876	98.17062372	-0.13178034	-22.18493376
1.29	129	-0.102	-0.982	0.129	-10.7716104	-2.005353	5.2712136	98.0617617	-0.18334656	-22.21358166
1.3	130	-0.109	-1.013	0.128	-18.334656	-4.2398892	3.2085648	97.87268556	-0.22345362	-22.25368872
1.31	131	-0.101	-1.049	0.138	-25.6112226	-4.1252976	1.432395	97.60912488	-0.23491278	-22.29952536
1.32	132	-0.075	-1.069	0.144	-27.6165756	-1.3178034	0.6302538	97.32837546	-0.24064236	-22.3167141
1.33	133	-0.027	-1.077	0.138	-23.3193906	1.6042824	1.718874	97.09346268	-0.26356068	-22.31098452
1.34	134	0.004	-1.068	0.146	-15.6990492	2.291832	4.5263682	96.93303444	-0.30939732	-22.29379578
1.35	135	0.008	-1.048	0.167	-7.448454	0.6875496	7.2765666	96.86427948	-0.37815228	-22.29952536
1.36	136	-0.007	-1.028	0.187	-1.7761698	-2.005353	9.740286	96.84709074	-0.46982556	-22.32817326
1.37	137	-0.04	-1.014	0.227	0	-3.724227	11.1153852	96.84709074	-0.572958	-22.37973948
1.38	138	-0.075	-1.005	0.282	-0.1718874	-2.9793816	11.45916	96.84709074	-0.68182002	-22.42557612
1.39	139	-0.104	-1.002	0.309	-1.145916	-1.8334656	11.3445684	96.83563158	-0.79641162	-22.45422402
1.4	140	-0.119	-1.005	0.299	-3.724227	-2.005353	10.9434978	96.83563158	-0.92246238	-22.48287192
1.41	141	-0.119	-1.007	0.271	-7.1046792	-1.5469866	10.7143146	96.76114704	-1.0313244	-22.51151982
1.42	142	-0.111	-1.019	0.242	-9.9694692	-0.1145916	11.0007936	96.66374418	-1.14018642	-22.52870856
1.43	143	-0.098	-1.029	0.219	-11.2872726	1.6042824	12.3758928	96.54915258	-1.26623718	-22.52870856
1.44	144	-0.097	-1.024	0.203	-10.8289062	3.0939732	14.1520626	96.43456098	-1.40947668	-22.51151982
1.45	145	-0.095	-1.005	0.19	-9.9694692	4.1825934	15.756345	96.3428877	-1.58136408	-22.4886015
1.46	146	-0.094	-0.976	0.18	-8.9381448	4.9274388	16.7303736	96.25121442	-1.75325148	-22.4599536
1.47	147	-0.094	-0.94	0.169	-8.307891	5.2139178	16.615782	96.16527072	-1.92513888	-22.42557612
1.48	148	-0.092	-0.913	0.163	-7.3911582	5.156622	15.5844576	96.0850566	-2.08556712	-22.39692822
1.49	149	-0.082	-0.909	0.149	-7.5630456	3.724227	14.7250206	96.01057206	-2.24026578	-22.3740099
1.5	150	-0.076	-0.915	0.128	-9.9121734	-0.286479	13.6936962	95.9131692	-2.3777757	-22.39119864
1.51	151	-0.07	-0.928	0.132	-11.6883432	-3.8961144	13.3499214	95.79284802	-2.50955604	-22.44849444
1.52	152	-0.067	-0.94	0.168	-12.7769634	-4.9274388	13.2926256	95.66679726	-2.6356068	-22.51151982
1.53	153	-0.074	-0.944	0.204	-13.2926256	-3.6669312	13.0634424	95.53501692	-2.76165756	-22.56308604
1.54	154	-0.084	-0.941	0.212	-12.7196676	-1.5469866	12.1467096	95.40896616	-2.87624916	-22.59173394
1.55	155	-0.092	-0.939	0.204	-11.8602306	-0.7448454	11.0007936	95.30583372	-2.99657034	-22.60892268
1.56	156	-0.091	-0.936	0.201	-11.4018642	-1.0313244	10.313244	95.19124212	-3.09970278	-22.631841
1.57	157	-0.089	-0.928	0.203	-9.740286	-1.8334656	9.6829902	95.09383926	-3.19137606	-22.6604889
1.58	158	-0.092	-0.919	0.204	-7.3338624	-3.724227	8.6516658	95.0250843	-3.27159018	-22.70059596
1.59	159	-0.098	-0.924	0.213	-6.6463128	-5.3858052	7.7922288	94.96205892	-3.34607472	-22.76362134
1.6	160	-0.103	-0.925	0.226	-6.9327918	-5.8441716	6.7036086	94.92768144	-3.42055926	-22.82664672
1.61	161	-0.114	-0.929	0.232	-6.9327918	-5.3858052	5.72958	94.85892648	-3.47212548	-22.88394252
1.62	162	-0.129	-0.934	0.233	-7.161975	-4.583664	4.7555514	94.79017152	-3.51223254	-22.93550874
1.63	163	-0.142	-0.937	0.235	-7.3338624	-3.3804522	4.010706	94.72141656	-3.5523396	-22.9756158
1.64	164	-0.149	-0.933	0.235	-7.8495246	-2.1772404	3.4950438	94.64120244	-3.5809875	-22.99853412
1.65	165	-0.148	-0.924	0.236	-8.1932994	-0.9167328	2.9220858	94.61255454	-3.64401288	-23.0042637
1.66	166	-0.139	-0.913	0.228	-8.6516658	0.1718874	2.005353	94.52661084	-3.6669312	-23.0042637
1.67	167	-0.133	-0.9	0.22	-8.9954406	0.6875496	1.0313244	94.43493756	-3.67839036	-23.0042637
1.68	168	-0.125	-0.887	0.212	-9.167328	1.2605076	-0.0572958	94.3375347	-3.67839036	-22.99280454
1.69	169	-0.119	-0.885	0.202	-8.880849	1.0886202	-1.2605076	94.24586142	-3.6669312	-22.98134538
1.7	170	-0.123	-0.889	0.194	-8.1932994	0.6302538	-2.0626488	94.20002478	-3.67266078	-22.96988622
1.71	171	-0.132	-0.899	0.186	-7.6203414	0.6875496	-2.7501984	94.11981066	-3.64401288	-22.95842706
1.72	172	-0.141	-0.908	0.191	-7.448454	1.4896908	-3.6096354	94.04532612	-3.61536498	-22.94123832
1.73	173	-0.147	-0.91	0.215	-7.2765666	3.151269	-4.870143	93.965112	-3.56952834	-22.90686084
1.74	174	-0.144	-0.911	0.241	-6.8182002	5.8441716	-6.7036086	93.89062746	-3.50650296	-22.84383546
1.75	175	-0.145	-0.919	0.251	-7.6203414	6.2452422	-7.8495246	93.8505204	-3.45493674	-22.7750805
1.76	176	-0.138	-0.932	0.261	-8.4797784	4.3544808	-8.307891	93.75884712	-3.3804522	-22.72924386
1.77	177	-0.118	-0.949	0.26	-8.8235532	2.0626488	-7.9641162	93.66717384	-3.30023808	-22.70632554
1.78	178	-0.096	-0.971	0.233	-9.453807	-0.5156622	-6.875496	93.56977098	-3.23148312	-22.70632554
1.79	179	-0.081	-0.99	0.202	-8.9381448	-4.1252976	-5.2712136	93.48382728	-3.1799169	-22.7464326
1.8	180	-0.067	-1.006	0.209	-8.1360036	-7.734933	-3.8961144	93.43799064	-3.13408026	-22.82091714
1.81	181	-0.076	-1.006	0.231	-8.6516658	-9.740286	-3.5523396	93.35204694	-3.08824362	-22.91832
1.82	182	-0.107	-1.014	0.295	-10.0840608	-7.734933	-4.6409598	93.25464408	-3.0366774	-22.99280454
1.83	183	-0.14	-1.021	0.361	-11.6883432	-3.4950438	-6.1306506	93.14005248	-2.97365202	-23.02145244
1.84	184	-0.169	-1.024	0.417	-12.032118	-0.9167328	-7.9641162	93.0197313	-2.8934379	-23.02718202
1.85	185	-0.181	-1.04	0.451	-12.0894138	2.4064236	-9.5111028	92.93951718	-2.81895336	-22.99853412
1.86	186	-0.171	-1.064	0.431	-12.7196676	7.2765666	-9.9694692	92.80200726	-2.72728008	-22.92404958
1.87	187	-0.149	-1.086	0.394	-12.2613012	10.1986524	-8.7089616	92.67022692	-2.64706596	-22.82091714
1.88	188	-0.124	-1.09	0.379	-12.0894138	9.5683986	-6.8182002	92.54417616	-2.58977016	-22.72351428
1.89	189	-0.107	-1.074	0.364	-12.7196676	6.2452422	-5.2712136	92.41239582	-2.54393352	-22.6604889
1.9	190	-0.124	-1.025	0.346	-11.8602306	3.0366774	-4.7555514	92.3608296	-2.5210152	-22.62611142
1.91	191	-0.138	-0.964	0.312	-3.724227	1.2032118	-5.9587632	92.32072254	-2.4637194	-22.60892268
1.92	192	-0.145	-0.975	0.337	1.6615782	-2.005353	-6.6463128	92.33791128	-2.39496444	-22.62611142
1.93	193	-0.148	-0.977	0.326	-2.6929026	-5.7868758	-6.016059	92.31499296	-2.33193906	-22.68340722
1.94	194	-0.135	-0.932	0.387	-5.9587632	-8.0787078	-5.3858052	92.25769716	-2.26891368	-22.76362134
1.95	195	-0.078	-1.077	0.593	-9.9121734	1.2032118	-7.9641162	92.16602388	-2.18869956	-22.7464326
1.96	196	0.327	-1.929	-0.243	-77.5785132	27.9603504	6.4171296	91.36388268	-2.28037284	-22.48287192
1.97	197	0.454	-1.907	-0.209	-10.1413566	-31.1116194	49.5035712	91.27793898	-2.75592798	-22.8037284
1.98	198	0.557	-1.852	0.082	45.7793442	-87.6052782	58.0406454	91.80506034	-3.28304934	-23.68035414
1.99	199	0.206	-1.177	0.325	19.9962342	-90.2981808	48.3576552	92.0743506	-3.70130868	-24.59135736
2	200	-0.061	-0.676	0.375	8.4797784	-69.8435802	23.6058696	92.23477884	-3.8961144	-25.29036612
2.01	201	-0.184	-0.711	0.215	4.870143	-50.993262	-4.6982556	92.32645212	-3.81590028	-25.78883958
2.02	202	-0.171	-0.991	0.047	-4.9847346	-25.2674478	-26.7571386	92.29207464	-3.53515086	-26.02948194
2.03	203	-0.259	-1.326	-0.11	-16.3865988	-0.3437748	-35.0650296	92.12591682	-3.18564648	-26.01802278
2.04	204	-0.394	-1.769	-0.364	-25.3247436	14.610429	-27.6738714	91.85662656	-2.9220858	-25.8690537
2.05	205	-0.527	-1.777	-0.501	-24.350715	0	-7.2765666	91.60452504	-2.85333084	-25.8690537
2.06	206	-0.485	-1.442	-0.395	-7.8495246	-11.9748222	5.2712136	91.53577008	-2.90489706	-25.98937488
2.07	207	-0.418	-1.298	-0.342	0	-9.453807	10.2559482	91.54149966	-2.99657034	-26.08677774
2.08	208	-0.319	-1.179	-0.315	-8.0787078	-3.0366774	8.1932994	91.46128554	-3.08251404	-26.12115522
2.09	209	-0.182	-1.093	-0.299	-10.8289062	0.8021412	4.6982556	91.35242352	-3.12835068	-26.11542564
2.1	210	-0.059	-1.063	-0.268	-11.8602306	3.151269	1.0886202	91.15188822	-3.12835068	-26.08677774
2.11	211	0.02	-1.032	-0.257	-13.0061466	4.870143	-3.6096354	91.0143783	-3.0939732	-26.03521152
2.12	212	0.055	-0.989	-0.23	-14.037471	5.3285094	-9.3965112	90.86540922	-3.0080295	-25.9836453
2.13	213	0.05	-0.934	-0.182	-14.2666542	7.0473834	-15.8709366	90.71644014	-2.85333084	-25.91489034
2.14	214	0.017	-0.908	-0.158	-13.5218088	10.7716104	-19.5951636	90.57320064	-2.6642547	-25.80602832
2.15	215	-0.031	-0.899	-0.143	-11.9748222	14.0947668	-21.0275586	90.42423156	-2.4637194	-25.66278882
2.16	216	-0.093	-0.894	-0.112	-9.7975818	17.2460358	-21.6005166	90.31536954	-2.25172494	-25.49090142
2.17	217	-0.143	-0.88	-0.082	-8.4224826	21.5432208	-22.0015872	90.21796668	-2.03973048	-25.27890696
2.18	218	-0.155	-0.858	-0.072	-6.9327918	28.1322378	-21.7151082	90.13202298	-1.8334656	-24.99815754
2.19	219	-0.138	-0.823	-0.049	-6.1879464	35.0650296	-20.4546006	90.05753844	-1.64438946	-24.65438274
2.2	220	-0.103	-0.786	-0.038	-5.5576926	41.9978214	-18.621135	89.97732432	-1.47250206	-24.2361234
2.21	221	-0.051	-0.766	-0.044	-6.016059	49.5035712	-16.9595568	89.8971102	-1.3178034	-23.7491091
2.22	222	-0.002	-0.771	-0.045	-7.161975	55.9207008	-15.2979786	89.80543692	-1.18029348	-23.19333984
2.23	223	0.026	-0.787	-0.051	-7.9068204	57.0666168	-13.8082878	89.70230448	-1.0599723	-22.631841
2.24	224	0.052	-0.799	-0.063	-8.7662574	56.3790672	-12.5477802	89.59917204	-0.9453807	-22.07607174
2.25	225	0.081	-0.804	-0.053	-8.021412	54.5456016	-10.886202	89.4960396	-0.84224826	-21.5432208
2.26	226	0.105	-0.813	-0.027	-7.161975	51.279741	-9.2819196	89.4100959	-0.75630456	-21.03328818
2.27	227	0.125	-0.818	-0.002	-6.0733548	45.6074568	-8.1932994	89.33561136	-0.68182002	-20.58638094
2.28	228	0.144	-0.821	0.004	-5.2139178	38.7892566	-7.6203414	89.27258598	-0.61306506	-20.20249908
2.29	229	0.149	-0.825	0.001	-3.8961144	31.8564648	-7.8495246	89.22674934	-0.53858052	-19.88737218
2.3	230	0.147	-0.822	0.006	-2.1772404	24.0069402	-8.2505952	89.19810144	-0.44117766	-19.65818898
2.31	231	0.149	-0.821	0.018	-1.145916	17.3606274	-8.8235532	89.1809127	-0.35523396	-19.48630158
2.32	232	0.153	-0.82	0.031	-0.286479	10.7716104	-9.2246238	89.17518312	-0.26356068	-19.38316914
2.33	233	0.158	-0.817	0.051	0.4010706	4.4690724	-9.6256944	89.1809127	-0.16615782	-19.3373325
2.34	234	0.161	-0.821	0.071	1.2605076	-1.6615782	-9.9694692	89.19237186	-0.06875496	-19.35452124
2.35	235	0.145	-0.818	0.073	2.1772404	-6.7609044	-10.026765	89.22674934	0.05156622	-19.42900578
2.36	236	0.126	-0.811	0.083	3.0366774	-9.8548776	-9.5683986	89.26112682	0.14896908	-19.52640864
2.37	237	0.11	-0.809	0.098	4.3544808	-12.8342592	-8.3651868	89.30696346	0.23491278	-19.65818898
2.38	238	0.096	-0.809	0.104	4.8128472	-16.5584862	-6.875496	89.3528001	0.30366774	-19.81861722
2.39	239	0.086	-0.813	0.109	5.0420304	-19.3086846	-5.2139178	89.4100959	0.36096354	-20.01342294
2.4	240	0.074	-0.813	0.115	4.9274388	-22.4599536	-3.9534102	89.47312128	0.41825934	-20.23687656
2.41	241	0.071	-0.813	0.105	4.870143	-24.9809688	-2.6356068	89.5246875	0.44690724	-20.4832485
2.42	242	0.066	-0.82	0.06	4.010706	-25.2674478	-1.432395	89.56479456	0.46982556	-20.72962044
2.43	243	0.056	-0.824	0.013	3.7815228	-25.5539268	0	89.60490162	0.46982556	-20.98172196
2.44	244	0.03	-0.805	0.006	4.4117766	-26.1268848	1.2605076	89.65073826	0.46409598	-21.23955306
2.45	245	0.013	-0.781	0.058	5.5003968	-27.0436176	2.1772404	89.71949322	0.45263682	-21.50884332
2.46	246	0.011	-0.751	0.133	5.6149884	-28.9916748	2.291832	89.77678902	0.43544808	-21.79532232
2.47	247	0.032	-0.734	0.212	5.9587632	-30.1375908	2.9220858	89.8398144	0.41252976	-22.09326048
2.48	248	0.046	-0.735	0.275	7.8495246	-33.4607472	4.2398892	89.92002852	0.37815228	-22.41984654
2.49	249	0.059	-0.778	0.324	13.750992	-39.247623	4.9274388	90.06326802	0.3437748	-22.80945798
2.5	250	0.078	-0.877	0.317	18.5638392	-45.4928652	4.6409598	90.28099206	0.32085648	-23.25636522
2.51	251	0.101	-1.017	0.281	17.8189938	-52.2537696	4.7555514	90.46433862	0.29220858	-23.77202742
2.52	252	0.138	-1.157	0.235	14.7823164	-57.8114622	4.9847346	90.62476686	0.26356068	-24.33925584
2.53	253	0.183	-1.253	0.227	12.032118	-60.3324774	4.1252976	90.75081762	0.24637194	-24.93513216
2.54	254	0.206	-1.271	0.239	11.8029348	-59.7595194	2.7501984	90.87686838	0.24637194	-25.5252789
2.55	255	0.192	-1.216	0.258	14.0947668	-56.2071798	1.6615782	91.03729662	0.26356068	-26.08104816
2.56	256	0.149	-1.153	0.267	23.5485738	-53.4569814	2.2345362	91.27793898	0.26929026	-26.60816952
2.57	257	0.098	-1.141	0.255	28.2468294	-50.3057124	2.6929026	91.57014756	0.26929026	-27.1009134
2.58	258	0.058	-1.162	0.212	25.2674478	-49.1025006	2.1772404	91.83370824	0.28074942	-27.58219812
2.59	259	0.003	-1.201	0.143	26.6998428	-50.420304	0.9740286	92.10872808	0.30366774	-28.08067158
2.6	260	-0.066	-1.312	-0.025	36.5547204	-54.7747848	-3.151269	92.4754212	0.3724227	-28.61352252
2.61	261	-0.177	-1.53	-0.177	45.4928652	-65.7182826	-11.3445684	92.94524676	0.53858052	-29.2495059
2.62	262	-0.327	-1.711	-0.202	41.252976	-80.500599	-22.8037284	93.3635061	0.8307891	-30.0229992
2.63	263	-0.47	-1.871	-0.063	18.3919518	-73.9688778	-37.7006364	93.54685266	1.27196676	-30.72773754
2.64	264	-0.489	-1.924	-0.207	-8.8235532	-47.555514	-48.4722468	93.4494498	1.79335854	-31.1689152
2.65	265	-0.413	-1.765	-0.434	-11.9748222	-16.9595568	-41.539455	93.32339904	2.21734746	-31.3121547
2.66	266	-0.22	-1.508	-0.472	-4.1825934	10.1413566	-21.772404	93.28329198	2.42361234	-31.1975631
2.67	267	0.041	-1.254	-0.564	2.005353	24.5226024	2.8074942	93.3062103	2.37204612	-30.95692074
2.68	268	0.188	-1.1	-0.548	9.9694692	21.3713334	25.496631	93.41507232	2.10275586	-30.76211502
2.69	269	0.3	-1.019	-0.451	14.1520626	10.7716104	44.2896534	93.5640414	1.65584862	-30.6819009
2.7	270	0.436	-1.03	-0.318	6.016059	7.1046792	49.6754586	93.59841888	1.19175264	-30.653253
2.71	271	0.521	-1.024	-0.269	-5.9014674	6.4744254	44.2323576	93.5353935	0.75057498	-30.61314594
2.72	272	0.51	-1.008	-0.231	-12.4904844	0.7448454	31.4553942	93.40934274	0.43544808	-30.63033468
2.73	273	0.392	-1.006	-0.164	-16.615782	-6.9327918	14.4385416	93.24318492	0.29793816	-30.7105488
2.74	274	0.221	-1.032	-0.118	-17.761698	-14.1520626	-0.0572958	93.05983836	0.30939732	-30.84805872
2.75	275	0.058	-1.077	-0.097	-16.2147114	-23.0329116	-6.9327918	92.88222138	0.39534102	-31.07724192
2.76	276	-0.089	-1.117	-0.098	-14.7823164	-32.8877892	-5.6722842	92.7332523	0.47555514	-31.40382798
2.77	277	-0.21	-1.098	-0.119	-15.5271618	-41.0810886	3.8388186	92.57855364	0.46409598	-31.81062816
2.78	278	-0.281	-1.02	-0.12	-14.9542038	-46.0085274	14.8396122	92.42958456	0.34950438	-32.27472414
2.79	279	-0.309	-0.948	-0.098	-12.605076	-44.3469492	23.0329116	92.3035338	0.14896908	-32.72163138
2.8	280	-0.312	-0.905	-0.076	-10.313244	-38.6173692	27.1009134	92.19467178	-0.1145916	-33.11124282
2.81	281	-0.275	-0.896	-0.069	-11.172681	-30.366774	26.8144344	92.08580976	-0.36096354	-33.42064014
2.82	282	-0.222	-0.898	-0.086	-13.6936962	-23.0902074	24.5798982	91.95402942	-0.59587632	-33.6612825
2.83	283	-0.172	-0.91	-0.103	-13.6364004	-18.8503182	22.91832	91.8165195	-0.81360036	-33.85608822
2.84	284	-0.124	-0.933	-0.086	-13.4072172	-16.5011904	22.631841	91.69046874	-1.02559482	-34.02797562
2.85	285	-0.081	-0.941	-0.064	-13.6364004	-14.3812458	23.8350528	91.54149966	-1.2605076	-34.18267428
2.86	286	-0.047	-0.929	-0.045	-14.0947668	-13.5218088	25.2674478	91.40398974	-1.50687954	-34.32591378
2.87	287	-0.018	-0.909	-0.06	-15.6417534	-14.9542038	25.8404058	91.25502066	-1.75898106	-34.48061244
2.88	288	-0.002	-0.899	-0.097	-17.3606274	-18.8503182	25.9549974	91.08313326	-2.005353	-34.67541816
2.89	289	-0.006	-0.916	-0.128	-18.1054728	-25.1528562	26.356068	90.91697544	-2.25745452	-34.93324926
2.9	290	-0.017	-0.937	-0.126	-19.0222056	-32.1429438	26.4706596	90.7278993	-2.50955604	-35.25410574
2.91	291	-0.037	-0.948	-0.113	-20.5118964	-37.3568616	25.6685184	90.53882316	-2.7501984	-35.63225802
2.92	292	-0.071	-0.957	-0.111	-22.5172494	-40.7946096	24.350715	90.33828786	-2.9793816	-36.0390582
2.93	293	-0.123	-0.954	-0.076	-23.6631654	-42.2270046	22.631841	90.1262934	-3.19710564	-36.46304712
2.94	294	-0.166	-0.944	-0.05	-25.3247436	-40.4508348	20.9702628	89.8971102	-3.39191136	-36.8698473
2.95	295	-0.196	-0.935	-0.057	-28.074942	-38.101707	19.480572	89.6392791	-3.59244666	-37.24799958
2.96	296	-0.199	-0.933	-0.055	-29.6219286	-35.0077338	18.8503182	89.36425926	-3.77579322	-37.59177438
2.97	297	-0.202	-0.938	-0.037	-28.8197874	-33.2888598	18.8503182	89.094969	-3.95913978	-37.92409002
2.98	298	-0.195	-0.947	-0.01	-29.220858	-30.4813656	18.9649098	88.82567874	-4.14821592	-38.22775776
2.99	299	-0.191	-0.97	-0.021	-29.9084076	-28.8197874	18.907614	88.5506589	-4.33729206	-38.51423676
3	300	-0.195	-0.974	-0.03	-30.0229992	-28.7051958	18.621135	88.26990948	-4.53782736	-38.79498618
3.01	301	-0.204	-0.972	-0.013	-29.3927454	-26.356068	17.1314442	87.99488964	-4.70971476	-39.05854686
3.02	302	-0.205	-0.948	-0.012	-29.5646328	-22.8037284	14.3812458	87.71414022	-4.85868384	-39.28200048
3.03	303	-0.201	-0.9	0.024	-28.0176462	-17.3033316	10.1986524	87.45057954	-4.96181628	-39.45388788
3.04	304	-0.185	-0.859	0.031	-24.350715	-10.026765	5.7868758	87.20993718	-5.02484166	-39.55129074
3.05	305	-0.184	-0.827	0.082	-17.7044022	-3.2085648	2.005353	87.06669768	-5.07640788	-39.57993864
3.06	306	-0.198	-0.812	0.145	-12.1467096	4.4690724	-0.9740286	86.94064692	-5.06494872	-39.53983158
3.07	307	-0.236	-0.812	0.133	-9.167328	10.5424272	-3.151269	86.83751448	-5.03630082	-39.43669914
3.08	308	-0.272	-0.837	0.069	-6.9327918	14.7823164	-3.151269	86.75157078	-4.99619376	-39.29345964
3.09	309	-0.266	-0.89	0.065	-2.6356068	21.5432208	0	86.70573414	-4.99046418	-39.0757356
3.1	310	-0.237	-0.932	0.108	1.432395	29.6219286	4.1252976	86.71146372	-5.04775998	-38.77779744
3.11	311	-0.216	-0.937	0.121	2.578311	31.8564648	7.1046792	86.70573414	-5.11078536	-38.45694096
3.12	312	-0.199	-0.955	0.083	0	32.6013102	8.0787078	86.67135666	-5.17954032	-38.1303549
3.13	313	-0.171	-1.009	0.02	-3.8388186	33.518043	8.7089616	86.59687212	-5.25975444	-37.79230968
3.14	314	-0.132	-1.075	-0.017	-5.2139178	34.3201842	10.599723	86.51092842	-5.35142772	-37.4428053
3.15	315	-0.111	-1.104	-0.008	-5.156622	32.8304934	12.7769634	86.42498472	-5.4717489	-37.11048966
3.16	316	-0.102	-1.089	-0.042	-7.448454	30.9970278	12.9488508	86.3161227	-5.5863405	-36.79536276
3.17	317	-0.081	-1.065	-0.044	-11.5164558	29.1062664	12.1467096	86.16715362	-5.7009321	-36.50315418
3.18	318	-0.055	-1.018	0	-15.756345	30.8251404	10.7716104	85.9723479	-5.79260538	-36.18802728
3.19	319	-0.047	-0.948	0	-18.1054728	32.0283522	9.5683986	85.74889428	-5.87854908	-35.8671708
3.2	320	-0.065	-0.903	0.003	-17.5898106	32.372127	9.1100322	85.5426294	-5.95303362	-35.54058474
3.21	321	-0.091	-0.876	0.003	-19.1367972	30.8824362	9.2819196	85.30771662	-6.03324774	-35.23118742
3.22	322	-0.122	-0.866	0.02	-20.2827132	28.8197874	9.740286	85.06707426	-6.11346186	-34.93897884
3.23	323	-0.145	-0.877	0.06	-22.345362	29.507337	9.453807	84.80351358	-6.19367598	-34.64104068
3.24	324	-0.166	-0.874	0.056	-26.069589	33.1742682	7.9068204	84.49984584	-6.25097178	-34.30299546
3.25	325	-0.211	-0.859	0.035	-28.9916748	40.8519054	4.6409598	84.1675302	-6.28534926	-33.89619528
3.26	326	-0.259	-0.837	0.071	-31.9137606	52.8840234	-0.0572958	83.77791876	-6.2452422	-33.3748035
3.27	327	-0.293	-0.808	0.1	-28.7624916	61.306506	-3.6669312	83.41122564	-6.1592985	-32.77892718
3.28	328	-0.317	-0.799	0.094	-23.0329116	64.5723666	-6.9327918	83.10182832	-6.03897732	-32.14867338
3.29	329	-0.343	-0.822	0.079	-18.2200644	65.8328742	-9.2246238	82.84399722	-5.88427866	-31.50696042
3.3	330	-0.363	-0.822	0.032	-17.5325148	69.3852138	-11.8029348	82.59762528	-5.72385042	-30.83659956
3.31	331	-0.36	-0.773	0.014	-12.2040054	71.8489332	-14.4958374	82.3913604	-5.50612638	-30.14332038
3.32	332	-0.325	-0.752	0.058	-3.151269	70.2446508	-16.9595568	82.28822796	-5.2712136	-29.47295952
3.33	333	-0.264	-0.759	0.056	0.6875496	69.6716928	-19.4232762	82.22520258	-5.00192334	-28.81405782
3.34	334	-0.189	-0.74	-0.023	0.1718874	63.5410422	-21.8869956	82.16790678	-4.72117392	-28.21245192
3.35	335	-0.148	-0.709	-0.081	2.4064236	53.2277982	-23.5485738	82.14498846	-4.43469492	-27.71970804
3.36	336	-0.095	-0.71	-0.081	4.3544808	44.2896534	-25.9549974	82.15071804	-4.13102718	-27.31863744
3.37	337	-0.027	-0.717	-0.073	-0.3437748	36.0390582	-28.0176462	82.12207014	-3.81590028	-26.99778096
3.38	338	0.053	-0.733	-0.094	-9.3965112	32.4867186	-29.4500412	82.00174896	-3.4950438	-26.71703154
3.39	339	0.123	-0.764	-0.31	-18.334656	25.8977016	-28.7624916	81.80121366	-3.18564648	-26.50503708
3.4	340	0.196	-0.828	-0.372	-18.907614	17.0741484	-25.496631	81.57203046	-2.88197874	-26.37898632
3.41	341	0.259	-0.864	-0.313	-19.480572	17.5898106	-20.1681216	81.36576558	-2.6642547	-26.23574682
3.42	342	0.298	-0.851	-0.166	-15.3552744	13.8655836	-12.2040054	81.19960776	-2.52674478	-26.12115522
3.43	343	0.341	-0.867	-0.036	-17.6471064	11.0007936	-6.1879464	81.0162612	-2.45226024	-26.02375236
3.44	344	0.371	-0.902	-0.037	-25.5539268	5.5003968	-0.7448454	80.75270052	-2.44080108	-25.97218614
3.45	345	0.335	-0.91	-0.073	-27.501984	3.8961144	3.0939732	80.48341026	-2.39496444	-25.94353824
3.46	346	0.254	-0.883	-0.024	-23.491278	3.3231564	1.6042824	80.2427679	-2.4064236	-25.91489034
3.47	347	0.15	-0.826	0.035	-21.8296998	-1.4896908	-1.2605076	80.01931428	-2.39496444	-25.93207908
3.48	348	0.037	-0.79	0.096	-12.3758928	-9.3965112	-5.443101	79.8989931	-2.36058696	-26.03521152
3.49	349	-0.106	-0.771	0.197	5.3285094	-15.183387	-11.5737516	79.96201848	-2.26891368	-26.20136934
3.5	350	-0.244	-0.806	0.312	17.5898106	-15.6990492	-18.9649098	80.20839042	-2.13140376	-26.3847159
3.51	351	-0.332	-0.821	0.262	21.8869956	-7.9068204	-25.6112226	80.43757362	-1.8907614	-26.4993075
3.52	352	-0.37	-0.876	0.294	30.939732	1.6042824	-31.2835068	80.75270052	-1.5756345	-26.53368498
3.53	353	-0.376	-0.865	0.317	27.3300966	10.0840608	-34.4347758	81.02772036	-1.22613012	-26.48211876
3.54	354	-0.382	-0.819	0.313	31.3980984	15.4125702	-33.0596766	81.34284726	-0.87662574	-26.37898632
3.55	355	-0.364	-0.735	0.294	40.4508348	20.1108258	-31.0543236	81.77256576	-0.572958	-26.2128285
3.56	356	-0.252	-0.697	0.311	54.43101	20.912967	-28.074942	82.32260544	-0.26356068	-26.0409411
3.57	357	-0.135	-0.718	0.354	61.1346186	23.1475032	-23.8350528	82.94140008	0	-25.8404058
3.58	358	0.029	-0.756	0.399	60.3324774	25.4393352	-22.0015872	83.54873556	0.24064236	-25.60549302
3.59	359	0.136	-0.746	0.398	55.576926	23.7204612	-22.4599536	84.1102344	0.48128472	-25.38776898
3.6	360	0.207	-0.674	0.308	48.8733174	17.9335854	-22.1734746	84.6258966	0.73911582	-25.22734074
3.61	361	0.224	-0.597	0.148	50.993262	11.4018642	-20.9702628	85.14728838	0.95683986	-25.12993788
3.62	362	0.205	-0.572	0.029	54.717489	6.589017	-17.7044022	85.70305764	1.14018642	-25.07264208
3.63	363	0.16	-0.539	-0.031	48.3003594	5.156622	-14.4958374	86.19007194	1.2891555	-25.02680544
3.64	364	0.133	-0.502	-0.089	38.2735944	4.4690724	-10.6570188	86.57968338	1.4037471	-24.98669838
3.65	365	0.146	-0.486	-0.075	23.2620948	6.9900876	-7.448454	86.81459616	1.49542038	-24.91794342
3.66	366	0.171	-0.47	-0.006	3.8388186	10.8289062	-4.9847346	86.85470322	1.5469866	-24.81481098
3.67	367	0.186	-0.46	0.071	-7.6776372	13.9228794	-5.9014674	86.7744891	1.61001198	-24.67730106
3.68	368	0.127	-0.431	0.145	-16.329303	18.2773602	-8.59437	86.61406086	1.69595568	-24.50541366
3.69	369	0.079	-0.4	0.196	-23.5485738	24.6944898	-11.0007936	86.37914808	1.81054728	-24.27050088
3.7	370	0.037	-0.351	0.237	-33.518043	32.5440144	-13.2353298	86.0582916	1.95378678	-23.96110356
3.71	371	0.004	-0.305	0.242	-45.4355694	39.7632852	-15.3552744	85.60565478	2.1199446	-23.58295128
3.72	372	-0.009	-0.259	0.185	-54.4883058	41.1383844	-15.2406828	85.06134468	2.28610242	-23.19333984
3.73	373	-0.042	-0.233	0.135	-58.728195	38.6173692	-13.8082878	84.47692752	2.44653066	-22.82664672
3.74	374	-0.075	-0.239	0.071	-74.8856106	37.7006364	-11.745639	83.72635254	2.58404058	-22.47714234
3.75	375	-0.088	-0.232	0.062	-92.1316464	36.4974246	-11.172681	82.80389016	2.71009134	-22.13909712
3.76	376	-0.097	-0.221	0.065	-106.0545258	30.366774	-10.8289062	81.73818828	2.8361421	-21.86407728
3.77	377	-0.073	-0.249	0.064	-115.3937412	23.3193906	-12.5477802	80.57508354	2.9793816	-21.66354198
3.78	378	-0.014	-0.262	0.066	-123.8162238	16.5584862	-15.9282324	79.32030552	3.14553942	-21.5432208
3.79	379	0.02	-0.241	0.043	-127.8269298	10.4278356	-18.621135	78.02542044	3.33461556	-21.485925
3.8	380	0.027	-0.258	-0.082	-129.3739164	7.5057498	-20.340009	76.70761704	3.52942128	-21.47446584
3.81	381	-0.002	-0.276	-0.159	-131.9522274	5.3858052	-21.0848544	75.36689532	3.72995658	-21.48019542
3.82	382	-0.053	-0.363	-0.156	-143.5832748	14.4385416	-22.2880662	73.911582	3.96486936	-21.41144046
3.83	383	-0.053	-0.404	-0.165	-173.892753	35.0650296	-23.6058696	72.15833052	4.26280752	-21.15933894
3.84	384	-0.04	-0.36	-0.11	-197.956989	53.5142772	-26.8717302	70.17589584	4.64668938	-20.75826834
3.85	385	-0.036	-0.41	-0.078	-223.5682116	72.9375534	-35.0077338	67.93563006	5.1852699	-20.21395824
3.86	386	-0.092	-0.151	-0.405	-221.6201544	78.8963166	-39.820581	65.72974176	5.80979412	-19.65818898
3.87	387	-0.284	-0.041	-0.09	-173.0906118	78.495246	-38.7892566	64.02232692	6.4457775	-19.11960846
3.88	388	-0.659	0.058	0.812	-146.5053606	82.3340646	-36.669312	62.58993192	7.09894962	-18.55238004
3.89	389	-0.571	0.136	1.222	-148.0523472	61.879464	-46.1804148	61.11742986	7.7635809	-18.22579398
3.9	390	-0.047	0.184	0.666	-168.8507226	44.404245	-57.9260538	59.42147418	8.45686008	-18.12839112
3.91	391	0.534	-0.252	0.094	-183.5757432	13.4072172	-62.2805346	57.5249832	9.0240885	-18.35184474
3.92	392	1.081	-1.422	-1.574	-280.2910536	-39.7632852	-60.9627312	54.5742495	9.2819196	-19.03939434
3.93	393	1.275	-3.246	-3.066	-408.0606876	-83.651868	-41.3102718	50.28852366	9.06992514	-19.98477504
3.94	394	1.947	-3.973	-3.976	-437.166954	-75.916935	-29.220858	45.73923714	8.7376095	-20.77545708
3.95	395	1.736	-1.987	-3.715	-347.0406606	-40.6227222	-38.5027776	42.13533132	8.67458412	-21.34841508
3.96	396	0.689	-1.176	-3.649	-450.2876922	-67.3798608	-26.069589	37.47718278	8.2792431	-22.0015872
3.97	397	1.019	-0.62	-3.841	-519.2718354	-62.8534926	-29.6219286	32.13148464	7.8781725	-22.62038184
3.98	398	1.355	0	-3.996	-407.2012506	-115.737516	-35.7525792	27.89732502	7.0187355	-23.52565548
3.99	399	0.712	0.272	-3.996	-252.3307032	-135.6764544	-29.8511118	25.25025906	5.93584488	-24.41946996
4	400	0.317	0.569	-3.996	-97.5747474	-134.8170174	-32.658606	24.19601634	4.85868384	-25.30182528
4.01	401	0.639	0.797	-3.996	-4.9274388	-99.0644382	-22.058883	24.11007264	4.0680018	-25.93207908
4.02	402	0.608	0.653	-3.684	0.859437	-58.6136034	-27.3873924	24.0928839	3.65547204	-26.43055254
4.03	403	0.447	0.151	-2.806	4.9274388	-22.1734746	-21.3140376	24.12726138	3.54661002	-26.72276112
4.04	404	0.445	-0.671	-1.691	10.313244	13.0061466	-2.7501984	24.23039382	3.67839036	-26.68838364
4.05	405	0.306	-0.567	-1.103	19.2513888	8.1360036	19.767051	24.4366587	3.68984952	-26.47638918
4.06	406	0.133	-0.315	-0.638	42.9145542	-23.0329116	48.3576552	24.90075468	3.28877892	-26.14407354
4.07	407	0.074	-0.218	-0.433	43.6593996	-34.663959	55.2331512	25.36485066	2.75592798	-25.80602832
4.08	408	0.11	-0.283	-0.537	30.5959572	-51.9672906	52.1964738	25.69143672	2.07983754	-25.57111554
4.09	409	0.105	-0.419	-0.588	13.8082878	-73.1667366	46.8679644	25.84613538	1.2318597	-25.48517184
4.1	410	-0.012	-0.438	-0.524	-10.6570188	-89.7252228	38.7892566	25.76019168	0.26929026	-25.54819722
4.11	411	-0.194	-0.439	-0.605	-16.8449652	-88.4074194	25.6112226	25.59976344	-0.61306506	-25.72008462
4.12	412	-0.385	-0.575	-0.75	1.3750992	-70.6457214	9.6256944	25.62841134	-1.27769634	-25.94926782
4.13	413	-0.575	-0.639	-0.687	5.443101	-50.5921914	-5.0420304	25.6971663	-1.69595568	-26.22428766
4.14	414	-0.599	-0.43	-0.545	-18.2773602	-34.2628884	-14.6677248	25.5252789	-1.93659804	-26.51076666
4.15	415	-0.444	-0.127	-0.458	-37.528749	-17.761698	-17.0168526	25.13566746	-2.0626488	-26.73994986
4.16	416	-0.4	0.129	-0.454	-40.2216516	-5.9587632	-10.9434978	24.73459686	-2.07983754	-26.86027104
4.17	417	-0.335	0.282	-0.514	-39.4768062	-1.3178034	-3.2085648	24.33352626	-2.07983754	-26.89464852
4.18	418	-0.301	0.268	-0.516	-38.9038482	-2.7501984	2.6929026	23.93818524	-2.1199446	-26.88318936
4.19	419	-0.245	0.13	-0.506	-41.0237928	-2.1772404	6.0733548	23.5199259	-2.17151082	-26.83735272
4.2	420	-0.149	-0.046	-0.509	-42.2270046	3.2658606	6.016059	23.07874824	-2.18296998	-26.76286818
4.21	421	-0.08	-0.172	-0.525	-42.7999626	9.1100322	3.724227	22.64330016	-2.1199446	-26.68838364
4.22	422	-0.033	-0.258	-0.563	-43.0291458	11.9748222	-0.2291832	22.2021225	-2.01681216	-26.642547
4.23	423	0.022	-0.305	-0.623	-43.6021038	10.4278356	-4.9847346	21.76094484	-1.90795014	-26.64827658
4.24	424	0.041	-0.282	-0.655	-44.0031744	3.2658606	-7.3338624	21.3140376	-1.85638392	-26.6998428
4.25	425	0.04	-0.211	-0.625	-47.2117392	-5.443101	-6.302538	20.83275288	-1.88503182	-26.78005692
4.26	426	0.079	-0.125	-0.636	-53.3423898	-14.9542038	-3.5523396	20.29417236	-2.01681216	-26.86600062
4.27	427	0.139	0.016	-0.728	-56.2071798	-29.507337	-1.0313244	19.73267352	-2.291832	-26.98059222
4.28	428	0.193	0.147	-0.723	-50.8213746	-45.4928652	0.6875496	19.22847048	-2.7215505	-27.13529088
4.29	429	0.214	0.201	-0.744	-42.9145542	-52.998615	2.6356068	18.81021114	-3.22575354	-27.28998954
4.3	430	0.203	0.204	-0.789	-39.3049188	-52.8840234	4.2398892	18.38049264	-3.71849742	-27.43322904
4.31	431	0.154	0.191	-0.837	-41.4248634	-45.7793442	5.5576926	17.97369246	-4.16540466	-27.5306319
4.32	432	0.073	0.138	-0.915	-44.690724	-34.5493674	6.875496	17.5325148	-4.51490904	-27.57646854
4.33	433	-0.003	0.064	-1.074	-45.3782736	-24.9809688	8.4797784	17.0741484	-4.77846972	-27.57646854
4.34	434	-0.062	-0.03	-1.201	-37.9298196	-22.2307704	10.5424272	16.69026654	-5.02484166	-27.54209106
4.35	435	-0.056	-0.128	-1.301	-33.0596766	-24.8663772	11.45916	16.34076216	-5.29413192	-27.50771358
4.36	436	-0.069	-0.176	-1.401	-32.945085	-31.9710564	12.4331886	16.00844652	-5.63217714	-27.48479526
4.37	437	-0.104	-0.138	-1.484	-38.961144	-35.9244666	12.2613012	15.61883508	-6.01032942	-27.4733361
4.38	438	-0.187	-0.064	-1.497	-44.5188366	-53.1132066	12.1467096	15.17765742	-6.55463952	-27.50771358
4.39	439	-0.296	0.017	-1.393	-48.2430636	-55.6915176	12.7196676	14.70210228	-7.12186794	-27.53636148
4.4	440	-0.352	0.02	-1.525	-52.8267276	-52.8267276	13.178034	14.16352176	-7.66617804	-27.55355022
4.41	441	-0.454	0.179	-1.413	-59.0719698	-60.3324774	12.032118	13.5791046	-8.2792431	-27.59365728
4.42	442	-0.411	0.308	-1.144	-50.5921914	-44.0031744	6.8182002	13.07490156	-8.72042076	-27.63376434
4.43	443	-0.258	0.472	-1.101	-44.5188366	-19.4232762	-0.1718874	12.6337239	-8.9094969	-27.68533056
4.44	444	-0.16	0.588	-1.062	-39.9351726	-8.3651868	-3.437748	12.23838288	-8.98971102	-27.73689678
4.45	445	-0.135	0.63	-1.04	-34.37748	-7.3338624	-5.8441716	11.83731228	-9.0527364	-27.79992216
4.46	446	-0.209	0.548	-1.091	-26.642547	-8.4224826	-2.7501984	11.5737516	-9.13295052	-27.8457588
4.47	447	-0.314	0.393	-1.092	-19.5378678	-12.1467096	2.9793816	11.3732163	-9.25900128	-27.8457588
4.48	448	-0.378	0.149	-1.077	-11.9748222	-17.9908812	11.6310474	11.24143596	-9.453807	-27.76554468
4.49	449	-0.374	-0.084	-1.05	-9.1100322	-23.8350528	19.194093	11.13257394	-9.72309726	-27.62803476
4.5	450	-0.342	-0.239	-1.013	-11.6883432	-25.2674478	20.9702628	10.99506402	-10.03249458	-27.4733361
4.51	451	-0.32	-0.274	-0.918	-14.9542038	-24.4080108	16.7303736	10.8289062	-10.30178484	-27.36447408
4.52	452	-0.263	-0.203	-0.901	-13.3499214	-21.6005166	10.1986524	10.6856667	-10.53096804	-27.30717828
4.53	453	-0.201	-0.13	-0.864	-7.0473834	-19.4232762	4.583664	10.61691174	-10.72577376	-27.3014487
4.54	454	-0.154	-0.088	-0.832	-4.1825934	-15.2979786	0.7448454	10.57680468	-10.88047242	-27.32436702
4.55	455	-0.121	-0.062	-0.808	-1.9480572	-14.896908	-1.432395	10.5424272	-11.01225276	-27.37020366
4.56	456	-0.117	-0.059	-0.789	2.9220858	-16.8449652	-4.583664	10.58826384	-11.16695142	-27.45041778
4.57	457	-0.147	-0.092	-0.799	7.2765666	-16.902261	-7.9641162	10.6856667	-11.31019092	-27.56500938
4.58	458	-0.189	-0.123	-0.843	7.734933	-14.037471	-9.5683986	10.79452872	-11.4305121	-27.69106014
4.59	459	-0.241	-0.159	-0.892	8.7089616	-9.3965112	-9.8548776	10.90339074	-11.49926706	-27.81138132
4.6	460	-0.244	-0.172	-0.901	10.886202	-4.5263682	-9.2246238	11.0294415	-11.5451037	-27.90878418
4.61	461	-0.225	-0.168	-0.886	12.3758928	2.0626488	-8.4797784	11.16695142	-11.51072622	-27.9889983
4.62	462	-0.214	-0.171	-0.865	12.9488508	8.8235532	-9.7975818	11.3159205	-11.4018642	-28.06921242
4.63	463	-0.211	-0.173	-0.87	12.3758928	13.8655836	-12.8342592	11.45916	-11.24143596	-28.16661528
4.64	464	-0.209	-0.175	-0.9	13.0061466	17.18874	-15.5844576	11.60812908	-11.04090066	-28.28120688
4.65	465	-0.203	-0.195	-0.943	15.9282324	18.334656	-17.3033316	11.79147564	-10.8289062	-28.41298722
4.66	466	-0.212	-0.25	-0.968	17.2460358	18.048177	-17.0741484	11.99201094	-10.62264132	-28.53903798
4.67	467	-0.235	-0.302	-1.006	14.1520626	16.7876694	-15.9282324	12.15243918	-10.42210602	-28.65935916
4.68	468	-0.269	-0.342	-1.051	9.2819196	13.5791046	-12.8342592	12.2613012	-10.26167778	-28.75103244
4.69	469	-0.298	-0.346	-1.102	2.9793816	6.875496	-8.307891	12.30140826	-10.18146366	-28.8197874
4.7	470	-0.332	-0.344	-1.101	-4.4117766	2.0626488	-4.010706	12.27848994	-10.18146366	-28.8484353
4.71	471	-0.365	-0.311	-1.057	-11.6883432	3.6669312	-0.6875496	12.15816876	-10.14708618	-28.8484353
4.72	472	-0.38	-0.26	-1.004	-15.6417534	7.448454	1.718874	11.99201094	-10.0840608	-28.81405782
4.73	473	-0.369	-0.207	-0.937	-16.902261	10.9434978	3.4950438	11.80866438	-9.98665794	-28.75103244
4.74	474	-0.329	-0.157	-0.868	-15.9855282	13.6364004	4.870143	11.6310474	-9.86633676	-28.67081832
4.75	475	-0.284	-0.126	-0.821	-13.1207382	15.0687954	5.7868758	11.46488958	-9.76320432	-28.57341546
4.76	476	-0.235	-0.112	-0.81	-9.5111028	13.8082878	6.1879464	11.35029798	-9.64288314	-28.4760126
4.77	477	-0.185	-0.12	-0.843	-6.1879464	9.1100322	5.9587632	11.27581344	-9.5683986	-28.39579848
4.78	478	-0.151	-0.129	-0.932	-6.1306506	3.3231564	6.3598338	11.2013289	-9.55120986	-28.32704352
4.79	479	-0.14	-0.138	-0.942	-7.5057498	1.5469866	6.4171296	11.10965562	-9.54548028	-28.25828856
4.8	480	-0.111	-0.135	-0.919	-7.9068204	5.2139178	6.016059	10.99506402	-9.48818448	-28.1895336
4.81	481	-0.081	-0.13	-0.907	-5.7868758	9.7975818	5.8441716	10.92057948	-9.40797036	-28.10931948
4.82	482	-0.07	-0.13	-0.882	-3.4950438	12.4904844	5.443101	10.86901326	-9.29910834	-28.02337578
4.83	483	-0.08	-0.118	-0.87	-3.0366774	15.6417534	4.3544808	10.82317662	-9.15586884	-27.94889124
4.84	484	-0.109	-0.076	-0.887	-1.9480572	19.194093	2.9793816	10.78879914	-8.97825186	-27.88013628
4.85	485	-0.134	-0.051	-0.905	2.1199446	21.5432208	1.6615782	10.76015124	-8.77198698	-27.81138132
4.86	486	-0.141	-0.054	-0.913	6.5317212	24.1788276	1.718874	10.81171746	-8.54280378	-27.74262636
4.87	487	-0.133	-0.074	-0.924	9.5683986	27.1582092	2.6356068	10.89193158	-8.2792431	-27.65668266
4.88	488	-0.107	-0.112	-0.944	11.9175264	29.9657034	3.437748	10.99506402	-7.99849368	-27.5592798
4.89	489	-0.08	-0.132	-0.977	12.7196676	30.4813656	3.4950438	11.10965562	-7.7062851	-27.45614736
4.9	490	-0.046	-0.167	-0.989	13.750992	29.3354496	4.1825934	11.22424722	-7.41407652	-27.35301492
4.91	491	-0.02	-0.179	-0.989	12.4331886	25.8404058	4.6409598	11.33310924	-7.17343416	-27.24988248
4.92	492	-0.004	-0.178	-0.992	10.1986524	21.199446	4.6409598	11.41905294	-6.97862844	-27.1582092
4.93	493	-0.006	-0.162	-1.008	8.0787078	13.2926256	4.6409598	11.49353748	-6.85830726	-27.08372466
4.94	494	-0.022	-0.14	-1.016	7.2192708	6.016059	4.9274388	11.55656286	-6.80674104	-27.02069928
4.95	495	-0.044	-0.119	-1.026	6.9327918	1.2032118	5.156622	11.55083328	-6.76663398	-26.96913306
4.96	496	-0.067	-0.108	-1.031	6.7609044	-0.6875496	4.9847346	11.61385866	-6.78382272	-26.92329642
4.97	497	-0.086	-0.103	-1.035	6.1879464	-0.6302538	4.7555514	11.67115446	-6.79528188	-26.87745978
4.98	498	-0.097	-0.1	-1.032	6.4171296	0.572958	4.2398892	11.72845026	-6.80101146	-26.83162314
4.99	499	-0.094	-0.094	-1.023	6.9327918	2.0626488	3.6669312	11.79720522	-6.78382272	-26.79151608
5	500	-0.088	-0.092	-1.015	7.6203414	2.6929026	2.86479	11.78001648	-6.74944524	-26.75140902
5.01	501	-0.085	-0.097	-1.007	8.2505952	2.6356068	1.432395	11.86596018	-6.72652692	-26.73422028
5.02	502	-0.083	-0.105	-1.006	7.8495246	2.86479	0	11.94044472	-6.69787902	-26.7284907
5.03	503	-0.084	-0.114	-1.011	6.4171296	3.724227	-1.718874	12.00919968	-6.65204238	-26.73422028
5.04	504	-0.084	-0.119	-1.007	4.1825934	4.6409598	-3.2658606	12.05503632	-6.60047616	-26.7571386
5.05	505	-0.085	-0.12	-0.998	1.6615782	5.2712136	-4.4690724	11.98628136	-6.52599162	-26.78005692
5.06	506	-0.092	-0.114	-0.985	-0.0572958	5.2712136	-5.3858052	11.98628136	-6.46296624	-26.82016398
5.07	507	-0.095	-0.103	-0.971	-1.2032118	4.6982556	-5.72958	11.98055178	-6.40567044	-26.86600062
5.08	508	-0.101	-0.088	-0.961	-1.432395	3.4950438	-5.5003968	11.96909262	-6.3598338	-26.91183726
5.09	509	-0.111	-0.083	-0.961	-1.2605076	1.432395	-4.8128472	11.95763346	-6.33691548	-26.9576739
5.1	510	-0.115	-0.085	-0.964	-1.0886202	0.3437748	-4.6409598	11.75709816	-6.34837464	-26.98059222
5.11	511	-0.117	-0.093	-0.979	-0.9740286	-0.1718874	-4.2398892	11.75136858	-6.34264506	-27.02642886
5.12	512	-0.123	-0.104	-0.992	-1.0313244	-1.432395	-3.8388186	11.745639	-6.34837464	-27.06653592
5.13	513	-0.129	-0.112	-0.995	-1.6042824	-2.291832	-3.2658606	11.73417984	-6.3598338	-27.1009134
5.14	514	-0.133	-0.113	-0.988	-1.7761698	-2.5210152	-2.8074942	11.7169911	-6.38275212	-27.13529088
5.15	515	-0.135	-0.114	-0.98	-1.2032118	-1.8334656	-2.7501984	11.52791496	-6.4457775	-27.14675004
5.16	516	-0.128	-0.115	-0.971	-0.1145916	-1.0313244	-2.7501984	11.52791496	-6.45150708	-27.17539794
5.17	517	-0.122	-0.121	-0.97	1.6615782	-0.572958	-2.7501984	11.55083328	-6.45150708	-27.20404584
5.18	518	-0.117	-0.131	-0.97	2.86479	-0.859437	-2.6929026	11.57948118	-6.45150708	-27.23269374
5.19	519	-0.112	-0.144	-0.973	3.3804522	-0.9167328	-2.2345362	11.61958824	-6.45723666	-27.25561206
5.2	520	-0.109	-0.158	-0.975	3.8388186	-0.6302538	-1.6042824	11.57948118	-6.46296624	-27.26707122
5.21	521	-0.109	-0.169	-0.972	4.1825934	-0.3437748	-0.9740286	11.61958824	-6.46296624	-27.27853038
5.22	522	-0.11	-0.179	-0.971	4.2398892	-0.1718874	-0.4010706	11.66542488	-6.46869582	-27.28425996
5.23	523	-0.11	-0.185	-0.968	4.1825934	-0.5156622	0.1145916	11.70553194	-6.46869582	-27.28425996
5.24	524	-0.11	-0.188	-0.966	3.6669312	-0.8021412	0.5156622	11.745639	-6.48015498	-27.27853038
5.25	525	-0.114	-0.186	-0.97	2.9220858	-1.4896908	1.0313244	11.71126152	-6.50880288	-27.26707122
5.26	526	-0.119	-0.176	-0.971	2.4064236	-1.9480572	1.2605076	11.73990942	-6.5317212	-27.25561206
5.27	527	-0.125	-0.165	-0.972	2.1199446	-2.1772404	1.3750992	11.75709816	-6.55463952	-27.24988248
5.28	528	-0.128	-0.155	-0.972	2.1772404	-2.1199446	1.5469866	11.78001648	-6.57755784	-27.23842332
5.29	529	-0.13	-0.148	-0.972	2.4064236	-1.7761698	1.5469866	11.8029348	-6.60047616	-27.22696416
5.3	530	-0.128	-0.144	-0.973	2.3491278	-1.0313244	1.3750992	11.67688404	-6.6463128	-27.19831626
5.31	531	-0.124	-0.141	-0.976	1.9480572	-0.6302538	1.145916	11.69980236	-6.65204238	-27.1868571
5.32	532	-0.118	-0.136	-0.975	1.4896908	-0.5156622	0.6302538	11.71126152	-6.66350154	-27.18112752
5.33	533	-0.109	-0.126	-0.975	1.0886202	-0.572958	0.286479	11.72272068	-6.66923112	-27.18112752
5.34	534	-0.104	-0.115	-0.977	1.2605076	-0.8021412	-0.1145916	11.73990942	-6.6749607	-27.1868571
5.35	535	-0.102	-0.106	-0.977	1.5469866	-0.8021412	-0.5156622	11.46488958	-6.66350154	-27.16393878
5.36	536	-0.103	-0.102	-0.977	2.1199446	-0.6875496	-0.7448454	11.4878079	-6.66923112	-27.17539794
5.37	537	-0.105	-0.103	-0.977	2.86479	-0.6302538	-0.9167328	11.52218538	-6.6749607	-27.1868571
5.38	538	-0.105	-0.106	-0.975	3.151269	-0.3437748	-1.0886202	11.55656286	-6.6749607	-27.19831626
5.39	539	-0.105	-0.111	-0.973	3.2658606	0.1145916	-1.2605076	11.59094034	-6.66923112	-27.20977542
5.4	540	-0.104	-0.119	-0.972	3.151269	0.2291832	-1.2605076	11.45343042	-6.65777196	-27.20977542
5.41	541	-0.104	-0.127	-0.98	2.5210152	0.1145916	-0.9740286	11.47634874	-6.65204238	-27.215505
5.42	542	-0.104	-0.134	-0.986	2.3491278	-0.3437748	-0.9167328	11.50499664	-6.65204238	-27.22696416
5.43	543	-0.102	-0.139	-0.984	2.1772404	-0.5156622	-0.9167328	11.52791496	-6.65777196	-27.23842332
5.44	544	-0.103	-0.143	-0.978	1.4896908	-0.5156622	-0.859437	11.5451037	-6.65777196	-27.24988248
5.45	545	-0.104	-0.143	-0.974	0.7448454	-0.4583664	-0.9167328	11.24716554	-6.6463128	-27.23269374
5.46	546	-0.106	-0.144	-0.976	0.4583664	-0.7448454	-0.859437	11.25289512	-6.65204238	-27.23842332
5.47	547	-0.111	-0.145	-0.983	0.6302538	-2.005353	-0.4010706	11.2586247	-6.66923112	-27.24988248
5.48	548	-0.116	-0.148	-0.985	0.9740286	-2.578311	0	11.27008386	-6.69214944	-27.25561206
5.49	549	-0.12	-0.153	-0.99	0.9740286	-1.6615782	0	11.28154302	-6.70933818	-27.26134164
5.5	550	-0.119	-0.154	-0.994	0.8021412	-1.0886202	0.1145916	11.06381898	-6.73798608	-27.23842332
5.51	551	-0.117	-0.152	-0.996	0.6302538	-0.6302538	0.2291832	11.07527814	-6.74944524	-27.23842332
5.52	552	-0.115	-0.149	-0.996	0.8021412	-0.4583664	0.2291832	11.08100772	-6.74944524	-27.23269374
5.53	553	-0.114	-0.145	-0.994	0.9167328	-0.4010706	0.1718874	11.09246688	-6.75517482	-27.23269374
5.54	554	-0.114	-0.142	-0.992	1.0886202	-0.4583664	0.0572958	11.10392604	-6.7609044	-27.23269374
5.55	555	-0.115	-0.142	-0.991	1.2605076	-0.6302538	-0.0572958	10.88047242	-6.77236356	-27.215505
5.56	556	-0.113	-0.139	-0.985	1.3750992	-0.6302538	-0.1718874	10.89766116	-6.77809314	-27.215505
5.57	557	-0.111	-0.136	-0.98	1.0886202	-0.6302538	-0.286479	10.90912032	-6.78382272	-27.22123458
5.58	558	-0.11	-0.132	-0.978	1.2032118	-0.7448454	-0.2291832	10.92057948	-6.7895523	-27.22696416
5.59	559	-0.11	-0.132	-0.976	1.4896908	-0.6875496	-0.1145916	10.93776822	-6.80101146	-27.22696416
5.6	560	-0.11	-0.134	-0.973	1.7761698	-0.7448454	0	10.7429625	-6.80101146	-27.20977542
5.61	561	-0.112	-0.135	-0.973	1.7761698	-0.859437	0.0572958	10.76015124	-6.80674104	-27.20977542
5.62	562	-0.113	-0.135	-0.973	1.6615782	-1.0313244	0	10.77733998	-6.8182002	-27.215505
5.63	563	-0.116	-0.136	-0.974	1.2032118	-0.8021412	0	10.78879914	-6.82392978	-27.215505
5.64	564	-0.116	-0.137	-0.977	0.9167328	-0.572958	-0.0572958	10.8002583	-6.82965936	-27.215505
5.65	565	-0.114	-0.134	-0.979	0.9740286	-0.3437748	-0.1718874	10.50232014	-6.84111852	-27.1868571
5.66	566	-0.114	-0.136	-0.976	1.2605076	-0.3437748	-0.1145916	10.51950888	-6.8468481	-27.19258668
5.67	567	-0.113	-0.14	-0.976	1.2605076	-0.1718874	-0.1145916	10.53096804	-6.8468481	-27.19258668
5.68	568	-0.113	-0.143	-0.979	1.145916	-0.2291832	-0.1145916	10.5424272	-6.8468481	-27.19831626
5.69	569	-0.116	-0.143	-0.978	0.9740286	-0.4583664	-0.0572958	10.55388636	-6.85257768	-27.19831626
5.7	570	-0.117	-0.144	-0.976	0.859437	-0.572958	-0.0572958	10.29605526	-6.88122558	-27.16966836
5.71	571	-0.118	-0.146	-0.976	0.5156622	-0.3437748	-0.1145916	10.30178484	-6.88695516	-27.17539794
5.72	572	-0.115	-0.146	-0.979	0.4583664	-0.3437748	-0.1145916	10.30751442	-6.88695516	-27.17539794
5.73	573	-0.113	-0.142	-0.98	0.5156622	-0.4583664	-0.0572958	10.313244	-6.89268474	-27.17539794
5.74	574	-0.114	-0.142	-0.979	0.6302538	-0.7448454	0.0572958	10.32470316	-6.89841432	-27.18112752
5.75	575	-0.114	-0.142	-0.977	0.572958	-0.8021412	0.1718874	10.08979038	-6.91560306	-27.15247962
5.76	576	-0.116	-0.144	-0.972	0.3437748	-0.572958	0.3437748	10.09551996	-6.92133264	-27.15247962
5.77	577	-0.117	-0.142	-0.969	-0.0572958	-0.1718874	0.1145916	10.09551996	-6.92133264	-27.15247962
5.78	578	-0.116	-0.14	-0.971	-0.3437748	0.1145916	0	10.08979038	-6.92133264	-27.15247962
5.79	579	-0.113	-0.139	-0.974	-0.1145916	0.2291832	-0.1145916	10.08979038	-6.92133264	-27.15247962
5.8	580	-0.107	-0.14	-0.975	0.2291832	0.1718874	-0.0572958	9.5111028	-6.84111852	-27.1009134
5.81	581	-0.106	-0.139	-0.973	0.4010706	-0.1718874	0	9.51683238	-6.8468481	-27.1009134
5.82	582	-0.107	-0.139	-0.97	0.0572958	-0.286479	0.0572958	9.51683238	-6.8468481	-27.1009134
5.83	583	-0.111	-0.138	-0.97	-0.1145916	-0.1145916	0.0572958	9.51683238	-6.85257768	-27.09518382
5.84	584	-0.115	-0.136	-0.972	-0.0572958	0	0.0572958	9.5111028	-6.85257768	-27.09518382
5.85	585	-0.115	-0.137	-0.971	-0.0572958	0.2291832	0.0572958	9.09857304	-6.875496	-27.05507676
5.86	586	-0.115	-0.139	-0.972	-0.3437748	0.1718874	0	9.09857304	-6.86976642	-27.05507676
5.87	587	-0.113	-0.137	-0.971	-0.3437748	-0.0572958	0.0572958	9.09284346	-6.875496	-27.04934718
5.88	588	-0.113	-0.134	-0.97	-0.4583664	-0.1718874	0	9.08711388	-6.875496	-27.05507676
5.89	589	-0.112	-0.133	-0.975	-0.6875496	-0.1718874	-0.1145916	9.0813843	-6.875496	-27.05507676
5.9	590	-0.114	-0.131	-0.979	-0.3437748	-0.3437748	-0.0572958	8.7949053	-6.89268474	-27.02642886
5.91	591	-0.117	-0.133	-0.98	-0.1145916	-0.286479	-0.286479	8.78917572	-6.89841432	-27.03215844
5.92	592	-0.116	-0.133	-0.976	0.1718874	0	-0.4010706	8.7949053	-6.89268474	-27.03215844
5.93	593	-0.116	-0.135	-0.977	0.3437748	0	-0.2291832	8.80063488	-6.89268474	-27.03788802
5.94	594	-0.12	-0.139	-0.975	0.1145916	-0.1145916	-0.0572958	8.80063488	-6.89841432	-27.03788802
5.95	595	-0.121	-0.143	-0.978	-0.1145916	0.1145916	-0.1718874	8.58864042	-6.94425096	-27.0149697
5.96	596	-0.12	-0.145	-0.982	-0.1718874	0.3437748	-0.286479	8.58864042	-6.93852138	-27.02069928
5.97	597	-0.115	-0.15	-0.969	-0.5156622	0.6302538	-0.4583664	8.58291084	-6.9327918	-27.02069928
5.98	598	-0.111	-0.147	-0.96	-1.2032118	1.3750992	-0.3437748	8.57145168	-6.92133264	-27.02069928
5.99	599	-0.11	-0.138	-0.962	-1.7761698	1.2032118	-0.3437748	8.54853336	-6.90987348	-27.02642886
6	600	-0.108	-0.13	-0.966	-1.8334656	0.1145916	-0.2291832	8.4511305	-6.89841432	-27.02069928
6.01	601	-0.107	-0.127	-0.969	-1.2032118	-0.8021412	0	8.43394176	-6.9041439	-27.02069928
6.02	602	-0.111	-0.129	-0.973	-0.8021412	-0.6302538	0.1145916	8.42821218	-6.90987348	-27.02069928
6.03	603	-0.115	-0.13	-0.977	-0.8021412	-0.3437748	0.1718874	8.41675302	-6.91560306	-27.0149697
6.04	604	-0.118	-0.127	-0.979	-0.859437	-0.1145916	0.1145916	8.41102344	-6.91560306	-27.0149697
6.05	605	-0.12	-0.128	-0.979	-0.5156622	0.1145916	0	8.17611066	-6.94998054	-26.99205138
6.06	606	-0.118	-0.13	-0.978	-0.1718874	0.4010706	0	8.17611066	-6.94998054	-26.99205138
6.07	607	-0.115	-0.131	-0.98	0.1145916	0.572958	0	8.17611066	-6.94425096	-26.9863218
6.08	608	-0.115	-0.132	-0.979	0.2291832	0.5156622	-0.0572958	8.17611066	-6.93852138	-26.9863218
6.09	609	-0.117	-0.135	-0.976	0.0572958	0.572958	-0.0572958	8.17611066	-6.9327918	-26.9863218
6.1	610	-0.115	-0.135	-0.975	-0.0572958	0.4583664	0	8.00422326	-6.92706222	-26.96913306
6.11	611	-0.113	-0.132	-0.973	-0.3437748	0.7448454	-0.1718874	8.00422326	-6.92133264	-26.96913306
6.12	612	-0.11	-0.131	-0.974	-0.4010706	0.859437	-0.2291832	7.99849368	-6.90987348	-26.97486264
6.13	613	-0.109	-0.128	-0.975	-0.4583664	0.6302538	-0.1145916	7.9927641	-6.9041439	-26.97486264
6.14	614	-0.107	-0.126	-0.975	-0.1718874	0.3437748	0	7.9927641	-6.89841432	-26.96913306
6.15	615	-0.107	-0.129	-0.973	0	-0.0572958	0	7.68909636	-6.83538894	-26.94048516
6.16	616	-0.107	-0.131	-0.975	0	-0.3437748	0	7.68909636	-6.83538894	-26.94048516
6.17	617	-0.107	-0.135	-0.977	0.0572958	-0.4583664	0.1145916	7.68909636	-6.84111852	-26.94048516
6.18	618	-0.109	-0.136	-0.978	0	-0.572958	0.0572958	7.68909636	-6.8468481	-26.94048516
6.19	619	-0.11	-0.136	-0.978	0	-0.5156622	0.0572958	7.68909636	-6.85257768	-26.94048516
6.2	620	-0.114	-0.134	-0.976	0	-0.4010706	0	7.51720896	-6.86976642	-26.92329642
6.21	621	-0.117	-0.132	-0.972	-0.286479	-0.1145916	0	7.51720896	-6.86976642	-26.92329642
6.22	622	-0.114	-0.133	-0.969	-0.3437748	0.1718874	0	7.51147938	-6.86976642	-26.92329642
6.23	623	-0.109	-0.131	-0.97	-0.286479	0.4583664	0.0572958	7.5057498	-6.86403684	-26.92329642
6.24	624	-0.106	-0.134	-0.969	-0.3437748	0.572958	0.1718874	7.5057498	-6.85830726	-26.91756684
6.25	625	-0.106	-0.134	-0.972	-0.4010706	0.286479	0.1718874	7.43699484	-6.82965936	-26.91183726
6.26	626	-0.108	-0.133	-0.975	-0.3437748	-0.1718874	0.1718874	7.43126526	-6.82965936	-26.91183726
6.27	627	-0.111	-0.133	-0.974	-0.2291832	-0.2291832	0.0572958	7.42553568	-6.83538894	-26.91183726
6.28	628	-0.113	-0.13	-0.976	-0.2291832	-0.0572958	0.1145916	7.42553568	-6.83538894	-26.90610768
6.29	629	-0.114	-0.128	-0.978	0	0.1718874	0.1718874	7.42553568	-6.83538894	-26.90610768
6.3	630	-0.115	-0.128	-0.979	0.1145916	0.286479	0.1718874	7.3338624	-6.8468481	-26.89464852
6.31	631	-0.113	-0.126	-0.977	0.2291832	0.2291832	0.2291832	7.3338624	-6.8468481	-26.88891894
6.32	632	-0.112	-0.125	-0.976	0	0.3437748	0.1145916	7.3338624	-6.84111852	-26.88891894
6.33	633	-0.11	-0.124	-0.974	-0.0572958	0.4583664	0.0572958	7.3338624	-6.83538894	-26.88891894
6.34	634	-0.109	-0.126	-0.973	-0.0572958	0.4583664	0	7.3338624	-6.82965936	-26.88891894
6.35	635	-0.107	-0.126	-0.974	-0.1718874	0.2291832	0	7.22500038	-6.80674104	-26.87745978
6.36	636	-0.108	-0.124	-0.97	-0.0572958	-0.1145916	0	7.2192708	-6.80674104	-26.87745978
6.37	637	-0.11	-0.122	-0.972	0.1718874	-0.4583664	0	7.22500038	-6.81247062	-26.87745978
6.38	638	-0.11	-0.123	-0.973	0.3437748	-0.3437748	0.0572958	7.22500038	-6.8182002	-26.87745978
6.39	639	-0.11	-0.124	-0.973	0.2291832	-0.1145916	0	7.23072996	-6.8182002	-26.87745978
6.4	640	-0.11	-0.126	-0.973	0.4010706	-0.2291832	0	7.13905668	-6.81247062	-26.86600062
6.41	641	-0.111	-0.126	-0.973	0.4010706	-0.4583664	0	7.14478626	-6.8182002	-26.86600062
6.42	642	-0.111	-0.126	-0.973	0.286479	-0.6302538	0	7.15051584	-6.82392978	-26.8717302
6.43	643	-0.112	-0.125	-0.975	0.1718874	-0.6875496	-0.1718874	7.15051584	-6.82965936	-26.8717302
6.44	644	-0.115	-0.128	-0.977	0.3437748	-0.8021412	-0.1718874	7.15624542	-6.84111852	-26.87745978
6.45	645	-0.118	-0.13	-0.977	0.2291832	-0.6875496	0	7.09894962	-6.875496	-26.8717302
6.46	646	-0.117	-0.13	-0.974	0.1718874	0	0	7.09894962	-6.875496	-26.8717302
6.47	647	-0.112	-0.129	-0.974	0	0.2291832	0	7.09894962	-6.875496	-26.8717302
6.48	648	-0.11	-0.13	-0.972	-0.0572958	-0.0572958	0.0572958	7.09894962	-6.875496	-26.8717302
6.49	649	-0.113	-0.133	-0.97	-0.286479	-0.1718874	0.1145916	7.09322004	-6.875496	-26.8717302
6.5	650	-0.117	-0.134	-0.97	-0.4010706	0	-0.0572958	7.05884256	-6.89841432	-26.86600062
6.51	651	-0.12	-0.135	-0.971	-0.3437748	0.3437748	-0.1718874	7.05884256	-6.89268474	-26.86600062
6.52	652	-0.118	-0.136	-0.956	-0.572958	0.4010706	-0.4010706	7.05311298	-6.89268474	-26.8717302
6.53	653	-0.116	-0.129	-0.958	-1.145916	1.0886202	-0.2291832	7.04165382	-6.88122558	-26.8717302
6.54	654	-0.114	-0.122	-0.964	-0.9740286	0.3437748	0	7.03019466	-6.875496	-26.8717302
6.55	655	-0.107	-0.117	-0.97	-0.4583664	-0.6302538	0.2291832	6.9614397	-6.86403684	-26.86600062
6.56	656	-0.103	-0.117	-0.973	0.2291832	-0.9740286	0.3437748	6.96716928	-6.875496	-26.86600062
6.57	657	-0.101	-0.118	-0.978	0.572958	-0.572958	0.4010706	6.97289886	-6.88122558	-26.86027104
6.58	658	-0.104	-0.121	-0.982	0.859437	-0.286479	0.2291832	6.97862844	-6.88122558	-26.86027104
6.59	659	-0.106	-0.122	-0.981	1.0886202	-0.1145916	0	6.9900876	-6.88122558	-26.86027104
6.6	660	-0.107	-0.121	-0.979	1.432395	0	-0.1145916	6.96716928	-6.86976642	-26.85454146
6.61	661	-0.114	-0.121	-0.979	1.432395	0.0572958	-0.2291832	6.98435802	-6.86976642	-26.86027104
6.62	662	-0.119	-0.121	-0.976	1.3178034	0.1145916	-0.3437748	6.99581718	-6.86976642	-26.86027104
6.63	663	-0.117	-0.119	-0.978	1.145916	0.286479	-0.286479	7.00727634	-6.86403684	-26.86600062
6.64	664	-0.112	-0.118	-0.979	1.145916	0.3437748	-0.1718874	7.0187355	-6.85830726	-26.86600062
6.65	665	-0.11	-0.119	-0.978	1.145916	0.1718874	-0.0572958	6.97289886	-6.85257768	-26.86027104
6.66	666	-0.108	-0.122	-0.979	1.145916	-0.1718874	-0.0572958	6.98435802	-6.85830726	-26.86027104
6.67	667	-0.108	-0.124	-0.978	1.0886202	-0.3437748	-0.1145916	6.99581718	-6.85830726	-26.86600062
6.68	668	-0.113	-0.127	-0.979	1.0313244	-0.2291832	-0.2291832	7.00727634	-6.86403684	-26.86600062
6.69	669	-0.113	-0.128	-0.978	0.9740286	-0.2291832	-0.286479	7.0187355	-6.86403684	-26.8717302
6.7	670	-0.112	-0.127	-0.979	0.9740286	-0.4583664	-0.1718874	6.9900876	-6.86403684	-26.86600062
6.71	671	-0.112	-0.124	-0.977	1.0313244	-0.286479	0	7.00154676	-6.86976642	-26.8717302
6.72	672	-0.111	-0.125	-0.977	1.2032118	-0.0572958	0	7.01300592	-6.86976642	-26.8717302
6.73	673	-0.109	-0.126	-0.977	1.0313244	0	0.0572958	7.02446508	-6.86976642	-26.8717302
6.74	674	-0.107	-0.127	-0.975	1.0313244	-0.1145916	0	7.03592424	-6.86976642	-26.8717302
6.75	675	-0.106	-0.128	-0.971	0.9167328	-0.1145916	-0.0572958	7.01300592	-6.85257768	-26.86600062
6.76	676	-0.108	-0.13	-0.97	0.9167328	0	-0.1718874	7.0187355	-6.85257768	-26.86600062
6.77	677	-0.109	-0.132	-0.971	0.9740286	-0.0572958	-0.1145916	7.03019466	-6.85257768	-26.8717302
6.78	678	-0.11	-0.131	-0.972	1.0313244	0	-0.0572958	7.04165382	-6.85257768	-26.8717302
6.79	679	-0.112	-0.131	-0.975	1.0886202	0	0	7.05311298	-6.85257768	-26.8717302
6.8	680	-0.113	-0.129	-0.977	1.0886202	0.1718874	0.0572958	7.03592424	-6.85257768	-26.86600062
6.81	681	-0.113	-0.131	-0.977	1.2032118	0.1718874	0.1718874	7.0473834	-6.85257768	-26.86600062
6.82	682	-0.111	-0.131	-0.978	1.432395	0.1145916	0.1718874	7.06457214	-6.8468481	-26.86027104
6.83	683	-0.111	-0.132	-0.978	1.4896908	0.1718874	0.2291832	7.0760313	-6.8468481	-26.86027104
6.84	684	-0.108	-0.13	-0.977	1.432395	0.1718874	0.1145916	7.09322004	-6.8468481	-26.86027104
6.85	685	-0.107	-0.126	-0.978	1.3178034	0.1718874	0	7.05884256	-6.82965936	-26.85454146
6.86	686	-0.107	-0.123	-0.976	1.2605076	0.1145916	0	7.07030172	-6.82965936	-26.85454146
6.87	687	-0.106	-0.12	-0.975	1.2605076	0.0572958	0.0572958	7.08749046	-6.82965936	-26.85454146
6.88	688	-0.106	-0.117	-0.974	1.3750992	0	0.1145916	7.09894962	-6.82965936	-26.85454146
6.89	689	-0.107	-0.117	-0.971	1.3750992	0	0.1145916	7.11613836	-6.82965936	-26.84881188
6.9	690	-0.108	-0.121	-0.971	1.4896908	0.1718874	0.1718874	7.09894962	-6.82392978	-26.8430823
6.91	691	-0.11	-0.123	-0.972	1.432395	0.3437748	0.1718874	7.11040878	-6.8182002	-26.8430823
6.92	692	-0.111	-0.124	-0.972	1.432395	0.3437748	0	7.12759752	-6.81247062	-26.8430823
6.93	693	-0.112	-0.124	-0.973	1.3750992	0.1145916	-0.0572958	7.13905668	-6.81247062	-26.8430823
6.94	694	-0.111	-0.124	-0.974	1.2605076	0.0572958	-0.1145916	7.15051584	-6.81247062	-26.8430823
6.95	695	-0.111	-0.123	-0.976	1.2032118	0.1145916	-0.1145916	7.12186794	-6.81247062	-26.83735272
6.96	696	-0.112	-0.124	-0.978	0.6302538	0.1718874	-0.1718874	7.12759752	-6.80674104	-26.8430823
6.97	697	-0.112	-0.127	-0.979	0.1718874	0.0572958	-0.1718874	7.12759752	-6.80674104	-26.8430823
6.98	698	-0.111	-0.13	-0.979	0.1718874	-0.1145916	-0.1718874	7.1333271	-6.80674104	-26.84881188
6.99	699	-0.11	-0.13	-0.981	0.2291832	-0.1145916	0	7.1333271	-6.80674104	-26.84881188
7	700	-0.112	-0.128	-0.978	0.2291832	-0.0572958	0	6.97862844	-6.82965936	-26.83162314
7.01	701	-0.114	-0.129	-0.979	0	0	0	6.97862844	-6.82965936	-26.83162314
7.02	702	-0.113	-0.127	-0.979	-0.0572958	0.286479	-0.1718874	6.97862844	-6.82392978	-26.83162314
7.03	703	-0.11	-0.126	-0.977	-0.1145916	0.6302538	-0.286479	6.97289886	-6.8182002	-26.83162314
7.04	704	-0.106	-0.128	-0.978	-0.2291832	0.4010706	-0.1718874	6.97289886	-6.81247062	-26.83162314
7.05	705	-0.108	-0.131	-0.977	-0.4583664	0.2291832	-0.1145916	6.93852138	-6.79528188	-26.83162314
7.06	706	-0.108	-0.132	-0.982	-0.4010706	0.1718874	-0.1145916	6.9327918	-6.79528188	-26.83162314
7.07	707	-0.109	-0.132	-0.984	-0.1145916	0.0572958	-0.2291832	6.9327918	-6.79528188	-26.83735272
7.08	708	-0.112	-0.134	-0.969	-0.3437748	0.286479	-0.3437748	6.9327918	-6.7895523	-26.83735272
7.09	709	-0.113	-0.132	-0.966	-1.145916	0.9167328	-0.4010706	6.91560306	-6.78382272	-26.8430823
7.1	710	-0.109	-0.131	-0.968	-1.4896908	0.572958	-0.3437748	6.88695516	-6.77236356	-26.8430823
7.11	711	-0.106	-0.125	-0.972	-1.432395	-0.2291832	-0.1718874	6.875496	-6.77809314	-26.8430823
7.12	712	-0.106	-0.122	-0.976	-0.9740286	-0.3437748	0.0572958	6.86403684	-6.77809314	-26.8430823
7.13	713	-0.106	-0.121	-0.984	-0.7448454	0	0.2291832	6.85830726	-6.77809314	-26.8430823
7.14	714	-0.107	-0.119	-0.986	-0.859437	0.1145916	0.2291832	6.8468481	-6.77809314	-26.83735272
7.15	715	-0.108	-0.12	-0.984	-0.8021412	0.4010706	0.0572958	6.79528188	-6.76663398	-26.83162314
7.16	716	-0.108	-0.124	-0.978	-0.3437748	0.6875496	-0.1145916	6.79528188	-6.7609044	-26.83162314
7.17	717	-0.108	-0.124	-0.975	-0.0572958	1.0886202	-0.3437748	6.79528188	-6.74944524	-26.83735272
7.18	718	-0.109	-0.123	-0.974	0	1.2032118	-0.4010706	6.79528188	-6.73798608	-26.83735272
7.19	719	-0.11	-0.122	-0.974	0	1.0313244	-0.4583664	6.79528188	-6.72652692	-26.8430823
7.2	720	-0.106	-0.122	-0.975	-0.0572958	0.859437	-0.286479	6.74944524	-6.7036086	-26.83735272
7.21	721	-0.104	-0.121	-0.975	-0.1718874	0.4583664	-0.1718874	6.74944524	-6.69787902	-26.8430823
7.22	722	-0.103	-0.122	-0.976	-0.3437748	0.0572958	-0.286479	6.74371566	-6.69787902	-26.8430823
7.23	723	-0.102	-0.124	-0.977	-0.3437748	-0.3437748	-0.2291832	6.74371566	-6.69787902	-26.84881188
7.24	724	-0.104	-0.125	-0.977	-0.1145916	-0.572958	-0.1145916	6.74371566	-6.7036086	-26.84881188
7.25	725	-0.106	-0.129	-0.977	0	-0.6302538	-0.0572958	6.72079734	-6.7036086	-26.84881188
7.26	726	-0.106	-0.13	-0.977	0	-0.6875496	-0.1145916	6.72079734	-6.70933818	-26.84881188
