TimeStamp(s)	FrameCounter	AccX	AccY	AccZ	GyrX	GyrY	GyrZ	EulerX	EulerY	EulerZ
0.01	1	-0.02	-1.007	0.087	-0.2291832	-0.1145916	0.2291832	94.37764176	-0.9740286	-22.94123832
0.02	2	-0.019	-1.008	0.077	-0.3437748	0.1145916	0.286479	94.37191218	-0.97975818	-22.94123832
0.03	3	-0.019	-1.006	0.077	-0.4583664	0.4010706	0.3437748	94.3661826	-0.97975818	-22.93550874
0.04	4	-0.018	-1.006	0.078	-0.4010706	0.5156622	0.286479	94.36045302	-0.98548776	-22.92977916
0.05	5	-0.017	-1.003	0.077	-0.2291832	0.3437748	0.2291832	94.29169806	-0.96829902	-22.93550874
0.06	6	-0.017	-1.005	0.077	-0.0572958	0.1145916	0.286479	94.29169806	-0.9740286	-22.92977916
0.07	7	-0.017	-1.005	0.076	0	0	0.2291832	94.29169806	-0.9740286	-22.92977916
0.08	8	-0.017	-1.006	0.077	0	-0.1718874	0.2291832	94.29169806	-0.97975818	-22.93550874
0.09	9	-0.016	-1.006	0.077	0	-0.286479	0.1145916	94.29169806	-0.97975818	-22.93550874
0.1	10	-0.016	-1.007	0.077	0.0572958	-0.1718874	0	94.15991772	-0.93392154	-22.95842706
0.11	11	-0.016	-1.006	0.076	0	-0.0572958	0	94.15991772	-0.93392154	-22.95842706
0.12	12	-0.018	-1.005	0.076	0.0572958	0	0	94.15991772	-0.93392154	-22.95842706
0.13	13	-0.016	-1.006	0.075	0.1145916	0	0	94.15991772	-0.92819196	-22.95842706
0.14	14	-0.016	-1.006	0.075	0.2291832	0.0572958	0	94.15991772	-0.93392154	-22.95842706
0.15	15	-0.016	-1.004	0.073	0.3437748	0.0572958	0	94.09116276	-0.91100322	-22.95842706
0.16	16	-0.017	-1.005	0.075	0.286479	0.0572958	-0.1145916	94.09689234	-0.91100322	-22.95842706
0.17	17	-0.018	-1.005	0.075	0.5156622	0	-0.1145916	94.10262192	-0.91100322	-22.95842706
0.18	18	-0.017	-1.005	0.076	0.5156622	0.1145916	-0.1145916	94.1083515	-0.91100322	-22.95842706
0.19	19	-0.019	-1.005	0.078	0.5156622	0.1145916	-0.1718874	94.11408108	-0.90527364	-22.95842706
0.2	20	-0.02	-1.006	0.078	0.6302538	0.0572958	-0.1145916	94.07397402	-0.89954406	-22.95842706
0.21	21	-0.018	-1.006	0.078	0.8021412	-0.0572958	-0.0572958	94.08543318	-0.89954406	-22.95842706
0.22	22	-0.018	-1.008	0.08	0.859437	-0.1145916	0	94.09116276	-0.89954406	-22.95842706
0.23	23	-0.015	-1.009	0.079	0.7448454	-0.286479	0.1145916	94.10262192	-0.89954406	-22.95842706
0.24	24	-0.014	-1.008	0.08	0.6875496	-0.3437748	0.0572958	94.1083515	-0.89954406	-22.96415664
0.25	25	-0.014	-1.009	0.081	0.6875496	-0.3437748	0.0572958	94.09116276	-0.8880849	-22.9756158
0.26	26	-0.014	-1.008	0.081	0.572958	-0.4583664	0	94.09689234	-0.8880849	-22.98134538
0.27	27	-0.014	-1.007	0.082	0.5156622	-0.5156622	0.0572958	94.10262192	-0.8880849	-22.98134538
0.28	28	-0.013	-1.006	0.08	0.6302538	-0.5156622	0.0572958	94.1083515	-0.8880849	-22.98707496
0.29	29	-0.014	-1.007	0.082	0.5156622	-0.4010706	0	94.11408108	-0.8880849	-22.99280454
0.3	30	-0.015	-1.007	0.082	0.5156622	-0.4583664	0	94.09689234	-0.87662574	-23.0042637
0.31	31	-0.016	-1.007	0.081	0.4583664	-0.4010706	0	94.10262192	-0.87089616	-23.0042637
0.32	32	-0.015	-1.006	0.08	0.4583664	-0.4010706	0.0572958	94.10262192	-0.87662574	-23.00999328
0.33	33	-0.017	-1.005	0.08	0.5156622	-0.5156622	0.1145916	94.1083515	-0.87662574	-23.01572286
0.34	34	-0.018	-1.004	0.079	0.5156622	-0.572958	0.1145916	94.11408108	-0.87662574	-23.02145244
0.35	35	-0.017	-1.003	0.079	0.5156622	-0.5156622	0.1145916	94.09689234	-0.87089616	-23.02718202
0.36	36	-0.016	-1.004	0.079	0.5156622	-0.5156622	0.1145916	94.10262192	-0.87089616	-23.0329116
0.37	37	-0.015	-1.003	0.079	0.4010706	-0.3437748	0.0572958	94.1083515	-0.87662574	-23.03864118
0.38	38	-0.015	-1.004	0.079	0.4010706	-0.4583664	0.0572958	94.11408108	-0.87662574	-23.04437076
0.39	39	-0.017	-1.005	0.079	0.4010706	-0.4583664	0	94.11981066	-0.87089616	-23.04437076
0.4	40	-0.018	-1.007	0.08	0.3437748	-0.4010706	0	94.06251486	-0.87089616	-23.05010034
0.41	41	-0.018	-1.007	0.079	0.2291832	-0.286479	0.0572958	94.06251486	-0.87089616	-23.05582992
0.42	42	-0.019	-1.006	0.079	0.0572958	-0.1145916	0	94.06251486	-0.86516658	-23.05582992
0.43	43	-0.021	-1.007	0.079	0.1145916	-0.0572958	0	94.06251486	-0.86516658	-23.05582992
0.44	44	-0.02	-1.007	0.081	0.0572958	0.1145916	0.0572958	94.06824444	-0.87089616	-23.05582992
0.45	45	-0.019	-1.008	0.081	-0.0572958	0.1718874	0.1145916	94.0224078	-0.86516658	-23.05582992
0.46	46	-0.018	-1.009	0.081	-0.0572958	0.2291832	0.1718874	94.0224078	-0.86516658	-23.05582992
0.47	47	-0.017	-1.009	0.081	-0.3437748	0.572958	0.0572958	94.0224078	-0.86516658	-23.05010034
0.48	48	-0.017	-1.007	0.08	-0.4010706	0.5156622	0.0572958	94.01667822	-0.86516658	-23.04437076
0.49	49	-0.018	-1.007	0.081	-0.4010706	0.4583664	0	94.01094864	-0.87089616	-23.03864118
0.5	50	-0.017	-1.005	0.08	-0.4010706	0.4583664	0	93.97657116	-0.859437	-23.03864118
0.51	51	-0.017	-1.007	0.081	-0.286479	0.4583664	0.0572958	93.97657116	-0.859437	-23.0329116
0.52	52	-0.016	-1.006	0.08	-0.286479	0.4583664	0.1145916	93.97084158	-0.86516658	-23.02718202
0.53	53	-0.016	-1.007	0.081	-0.286479	0.4010706	0.1718874	93.97084158	-0.86516658	-23.02145244
0.54	54	-0.015	-1.007	0.083	-0.4010706	0.6302538	0.1145916	93.965112	-0.87089616	-23.01572286
0.55	55	-0.015	-1.006	0.083	-0.4583664	0.572958	0.1145916	93.9364641	-0.85370742	-23.01572286
0.56	56	-0.018	-1.004	0.08	-0.286479	0.4010706	0.0572958	93.9364641	-0.859437	-23.00999328
0.57	57	-0.02	-1.004	0.081	-0.1718874	0.4583664	-0.2291832	93.93073452	-0.85370742	-23.0042637
0.58	58	-0.017	-1.004	0.082	-0.2291832	0.9167328	-0.2291832	93.93073452	-0.85370742	-22.99853412
0.59	59	-0.017	-1.004	0.081	-0.3437748	0.9167328	-0.1145916	93.92500494	-0.85370742	-22.98707496
0.6	60	-0.015	-1.002	0.081	-0.4010706	0.6875496	0	93.9078162	-0.84224826	-22.98134538
0.61	61	-0.016	-1.005	0.083	-0.4010706	0.6302538	0	93.90208662	-0.84224826	-22.9756158
0.62	62	-0.016	-1.007	0.082	-0.4010706	0.572958	0	93.90208662	-0.84797784	-22.96988622
0.63	63	-0.015	-1.009	0.083	-0.5156622	0.6875496	0.1145916	93.89635704	-0.84797784	-22.96415664
0.64	64	-0.013	-1.008	0.086	-0.5156622	0.572958	0.3437748	93.89062746	-0.85370742	-22.95842706
0.65	65	-0.013	-1.008	0.085	-0.3437748	0.1718874	0.4583664	93.87343872	-0.84224826	-22.96415664
0.66	66	-0.014	-1.007	0.083	-0.3437748	-0.1145916	0.572958	93.86770914	-0.84797784	-22.96415664
0.67	67	-0.014	-1.007	0.082	-0.3437748	-0.1718874	0.3437748	93.86770914	-0.85370742	-22.96415664
0.68	68	-0.014	-1.008	0.083	-0.3437748	0	0.2291832	93.86197956	-0.85370742	-22.96415664
0.69	69	-0.014	-1.007	0.084	-0.572958	0.1145916	0	93.85624998	-0.85370742	-22.96415664
0.7	70	-0.015	-1.007	0.086	-0.572958	0.0572958	0	93.83906124	-0.84224826	-22.96415664
0.71	71	-0.016	-1.006	0.087	-0.4010706	0.0572958	0	93.83333166	-0.84224826	-22.96415664
0.72	72	-0.017	-1.005	0.083	-0.3437748	0.1145916	0	93.83333166	-0.84224826	-22.96415664
0.73	73	-0.018	-1.005	0.083	-0.3437748	0.0572958	0.0572958	93.82760208	-0.84224826	-22.96415664
0.74	74	-0.018	-1.004	0.081	-0.286479	0	0.1145916	93.8218725	-0.84797784	-22.96415664
0.75	75	-0.019	-1.003	0.081	-0.1145916	0	0	93.78176544	-0.83651868	-22.96988622
0.76	76	-0.019	-1.003	0.08	-0.1145916	0.1718874	0	93.77603586	-0.83651868	-22.96415664
0.77	77	-0.019	-1.003	0.079	-0.1145916	0.286479	-0.0572958	93.77603586	-0.8307891	-22.96415664
0.78	78	-0.017	-1.004	0.08	-0.1718874	0.3437748	-0.0572958	93.77603586	-0.8307891	-22.95842706
0.79	79	-0.016	-1.005	0.079	-0.1145916	0.286479	0	93.77030628	-0.8307891	-22.95842706
0.8	80	-0.016	-1.005	0.077	0	0.1145916	0.1145916	93.7072809	-0.81360036	-22.95842706
0.81	81	-0.016	-1.005	0.079	-0.0572958	0	0.1145916	93.70155132	-0.81360036	-22.95842706
0.82	82	-0.015	-1.007	0.081	-0.1145916	0	0.1145916	93.70155132	-0.81932994	-22.95842706
0.83	83	-0.018	-1.008	0.082	-0.4583664	0	-0.1145916	93.69582174	-0.81360036	-22.95842706
0.84	84	-0.02	-1.007	0.08	-0.6302538	0.1718874	-0.1718874	93.69009216	-0.81360036	-22.95842706
0.85	85	-0.021	-1.008	0.081	-0.572958	0.1145916	-0.2291832	93.66717384	-0.81360036	-22.95269748
0.86	86	-0.019	-1.01	0.081	-0.572958	0.1718874	-0.0572958	93.66144426	-0.81360036	-22.95269748
0.87	87	-0.018	-1.009	0.082	-0.6302538	0.2291832	0.0572958	93.65571468	-0.81360036	-22.95269748
0.88	88	-0.016	-1.008	0.083	-0.6302538	0.286479	0.1145916	93.6499851	-0.81360036	-22.9469679
0.89	89	-0.015	-1.009	0.083	-0.6875496	0.286479	0	93.64425552	-0.81360036	-22.9469679
0.9	90	-0.013	-1.009	0.083	-0.8021412	0.3437748	0	93.62706678	-0.80787078	-22.94123832
0.91	91	-0.014	-1.007	0.083	-0.859437	0.286479	-0.1145916	93.6213372	-0.8021412	-22.94123832
0.92	92	-0.013	-1.007	0.083	-0.859437	0.286479	-0.1718874	93.60987804	-0.8021412	-22.93550874
0.93	93	-0.013	-1.006	0.084	-0.859437	0.286479	-0.1145916	93.59841888	-0.8021412	-22.93550874
0.94	94	-0.013	-1.004	0.083	-0.6875496	0.286479	-0.0572958	93.5926893	-0.8021412	-22.92977916
0.95	95	-0.014	-1.004	0.081	-0.4583664	0.1145916	-0.1145916	93.56977098	-0.77922288	-22.93550874
0.96	96	-0.016	-1.002	0.083	-0.3437748	0.0572958	-0.0572958	93.5640414	-0.7734933	-22.93550874
0.97	97	-0.017	-1.003	0.083	-0.286479	-0.0572958	0	93.5640414	-0.7734933	-22.93550874
0.98	98	-0.016	-1.002	0.083	-0.4583664	-0.0572958	0	93.55831182	-0.7734933	-22.93550874
0.99	99	-0.016	-1.003	0.081	-0.286479	-0.0572958	0	93.55831182	-0.7734933	-22.93550874
1	100	-0.014	-1.003	0.08	-0.2291832	0	0	93.52393434	-0.7448454	-22.9469679
1.01	101	-0.014	-1.004	0.08	-0.1718874	-0.1145916	-0.0572958	93.52393434	-0.73911582	-22.9469679
1.02	102	-0.015	-1.004	0.082	-0.2291832	0	-0.1145916	93.51820476	-0.73911582	-22.9469679
1.03	103	-0.017	-1.004	0.081	-0.1718874	-0.1145916	-0.1145916	93.51820476	-0.73911582	-22.9469679
1.04	104	-0.018	-1.006	0.08	-0.0572958	-0.2291832	0	93.51820476	-0.73911582	-22.95269748
1.05	105	-0.018	-1.006	0.081	0	-0.286479	0.0572958	93.51247518	-0.7448454	-22.95269748
1.06	106	-0.018	-1.007	0.079	0.0572958	-0.286479	0.1145916	93.51247518	-0.7448454	-22.95842706
1.07	107	-0.016	-1.009	0.081	-0.0572958	-0.1145916	0.0572958	93.51247518	-0.7448454	-22.95842706
1.08	108	-0.016	-1.007	0.079	-0.2291832	-0.1145916	0.0572958	93.51247518	-0.7448454	-22.95842706
1.09	109	-0.016	-1.006	0.077	-0.1718874	-0.2291832	0.0572958	93.5067456	-0.7448454	-22.96415664
1.1	110	-0.019	-1.006	0.078	-0.2291832	-0.1718874	0	93.48955686	-0.75630456	-22.96415664
1.11	111	-0.02	-1.008	0.078	-0.1718874	-0.1145916	0	93.48382728	-0.75630456	-22.96415664
1.12	112	-0.02	-1.006	0.078	-0.2291832	-0.0572958	0	93.48382728	-0.75630456	-22.96415664
1.13	113	-0.02	-1.007	0.08	-0.3437748	0	0.1145916	93.4780977	-0.75630456	-22.96415664
1.14	114	-0.018	-1.007	0.081	-0.4583664	0.0572958	0.0572958	93.47236812	-0.75630456	-22.96415664
1.15	115	-0.017	-1.007	0.08	-0.572958	0.1145916	0.0572958	93.45517938	-0.76203414	-22.96415664
1.16	116	-0.017	-1.005	0.078	-0.4010706	0	0.0572958	93.4494498	-0.76203414	-22.96415664
1.17	117	-0.016	-1.005	0.077	-0.4010706	0	0.0572958	93.44372022	-0.76203414	-22.96415664
1.18	118	-0.015	-1.005	0.078	-0.5156622	0	-0.0572958	93.43799064	-0.76203414	-22.96415664
1.19	119	-0.017	-1.004	0.076	-0.4010706	-0.1145916	-0.0572958	93.43799064	-0.76203414	-22.96415664
1.2	120	-0.021	-1.003	0.076	-0.286479	-0.2291832	-0.286479	93.41507232	-0.76203414	-22.96415664
1.21	121	-0.019	-1.004	0.077	-0.1718874	0	-0.286479	93.41507232	-0.76203414	-22.96415664
1.22	122	-0.017	-1.002	0.076	-0.286479	0.3437748	-0.286479	93.40934274	-0.75630456	-22.95842706
1.23	123	-0.017	-1.001	0.076	-0.4583664	0.1718874	-0.286479	93.40361316	-0.75630456	-22.95842706
1.24	124	-0.019	-1.003	0.078	-0.4583664	0.0572958	-0.3437748	93.39788358	-0.75057498	-22.95842706
1.25	125	-0.021	-1.005	0.079	-0.6875496	0.2291832	-0.3437748	93.392154	-0.75057498	-22.95269748
1.26	126	-0.019	-1.005	0.078	-0.6302538	0.1718874	-0.1145916	93.38642442	-0.75057498	-22.95269748
1.27	127	-0.014	-1.008	0.077	-0.4583664	0.0572958	0	93.38069484	-0.75057498	-22.95269748
1.28	128	-0.016	-1.009	0.078	-0.6875496	0.1145916	0	93.36923568	-0.75057498	-22.9469679
1.29	129	-0.016	-1.007	0.077	-0.4010706	0	-0.0572958	93.36923568	-0.75057498	-22.9469679
1.3	130	-0.015	-1.01	0.075	-0.5156622	0.286479	-0.1145916	93.35204694	-0.73911582	-22.9469679
1.31	131	-0.014	-1.009	0.075	-0.6302538	0.1718874	-0.1145916	93.34058778	-0.73911582	-22.9469679
1.32	132	-0.016	-1.008	0.075	-0.7448454	0.1718874	-0.1145916	93.3348582	-0.73911582	-22.94123832
1.33	133	-0.017	-1.006	0.074	-0.6875496	0	-0.1718874	93.32912862	-0.73338624	-22.94123832
1.34	134	-0.017	-1.003	0.075	-0.5156622	-0.1145916	-0.1718874	93.32339904	-0.73338624	-22.9469679
1.35	135	-0.018	-1.003	0.073	-0.4583664	0	-0.1718874	93.30048072	-0.73338624	-22.94123832
1.36	136	-0.019	-1.002	0.071	-0.1718874	0	-0.2291832	93.29475114	-0.73338624	-22.94123832
1.37	137	-0.02	-1.002	0.069	-0.0572958	0	-0.2291832	93.29475114	-0.72765666	-22.94123832
1.38	138	-0.017	-1	0.069	0	0.0572958	-0.2291832	93.29475114	-0.72765666	-22.94123832
1.39	139	-0.016	-1.003	0.069	0	0.1718874	-0.286479	93.29475114	-0.72192708	-22.94123832
1.4	140	-0.016	-1.002	0.069	-0.0572958	0.4010706	-0.286479	93.26610324	-0.7161975	-22.93550874
1.41	141	-0.015	-1.004	0.069	-0.0572958	0.572958	-0.286479	93.26610324	-0.7161975	-22.92977916
1.42	142	-0.016	-1.006	0.07	-0.1718874	0.5156622	-0.2291832	93.26610324	-0.71046792	-22.92404958
1.43	143	-0.014	-1.005	0.07	-0.1145916	0.572958	-0.1145916	93.26037366	-0.71046792	-22.91832
1.44	144	-0.015	-1.005	0.069	0	0.4583664	0	93.26610324	-0.71046792	-22.91259042
1.45	145	-0.014	-1.005	0.071	0.0572958	0.3437748	0	93.23172576	-0.69900876	-22.91259042
1.46	146	-0.016	-1.009	0.071	0	0.2291832	-0.0572958	93.23172576	-0.69900876	-22.91259042
1.47	147	-0.018	-1.008	0.071	-0.1145916	0.1718874	-0.1718874	93.23172576	-0.69900876	-22.90686084
1.48	148	-0.016	-1.01	0.072	-0.1145916	0.3437748	-0.3437748	93.23172576	-0.69327918	-22.90686084
1.49	149	-0.015	-1.009	0.072	-0.0572958	0.286479	-0.2291832	93.23172576	-0.69327918	-22.90113126
1.5	150	-0.013	-1.009	0.072	-0.0572958	0.1145916	-0.1718874	93.17442996	-0.64744254	-22.90686084
1.51	151	-0.011	-1.01	0.073	-0.0572958	0	-0.0572958	93.17442996	-0.64744254	-22.90686084
1.52	152	-0.01	-1.009	0.072	0	-0.1718874	0	93.17442996	-0.64744254	-22.90686084
1.53	153	-0.011	-1.01	0.073	-0.0572958	-0.0572958	0	93.17442996	-0.64744254	-22.91259042
1.54	154	-0.012	-1.008	0.072	-0.1718874	-0.3437748	-0.0572958	93.16870038	-0.64171296	-22.91259042
1.55	155	-0.015	-1.008	0.073	-0.0572958	-0.4010706	-0.0572958	93.15151164	-0.64744254	-22.91832
1.56	156	-0.015	-1.007	0.072	0	-0.4010706	-0.0572958	93.15151164	-0.64171296	-22.91832
1.57	157	-0.015	-1.005	0.072	0	-0.286479	-0.0572958	93.15151164	-0.64171296	-22.92404958
1.58	158	-0.014	-1.004	0.072	0.0572958	-0.1718874	-0.0572958	93.15724122	-0.64171296	-22.92404958
1.59	159	-0.013	-1.004	0.072	0.0572958	-0.286479	-0.0572958	93.15724122	-0.64171296	-22.92977916
1.6	160	-0.012	-1.004	0.071	0.1145916	-0.4583664	0	93.14005248	-0.6302538	-22.93550874
1.61	161	-0.013	-1.003	0.069	0.1718874	-0.5156622	-0.0572958	93.14005248	-0.62452422	-22.94123832
1.62	162	-0.013	-1.004	0.07	0.2291832	-0.6302538	0	93.14578206	-0.62452422	-22.9469679
1.63	163	-0.013	-1.005	0.069	0.286479	-0.6302538	0	93.14578206	-0.62452422	-22.95269748
1.64	164	-0.013	-1.005	0.069	0.286479	-0.6302538	0	93.15151164	-0.62452422	-22.95842706
1.65	165	-0.013	-1.005	0.069	0.286479	-0.6302538	-0.0572958	93.14005248	-0.61879464	-22.96415664
1.66	166	-0.014	-1.006	0.069	0.286479	-0.6875496	-0.0572958	93.14578206	-0.61879464	-22.9756158
1.67	167	-0.014	-1.007	0.068	0.1718874	-0.5156622	0	93.14578206	-0.61879464	-22.98134538
1.68	168	-0.014	-1.006	0.068	0.1145916	-0.4010706	0	93.14578206	-0.61879464	-22.98134538
1.69	169	-0.015	-1.008	0.068	0.0572958	-0.4010706	0.0572958	93.14578206	-0.61879464	-22.98707496
1.7	170	-0.014	-1.009	0.068	0	-0.3437748	0	93.105675	-0.61306506	-22.99280454
1.71	171	-0.013	-1.009	0.067	-0.0572958	-0.3437748	0.1145916	93.09994542	-0.61306506	-22.99853412
1.72	172	-0.014	-1.01	0.067	-0.1145916	-0.286479	0.1145916	93.09994542	-0.61879464	-22.99853412
1.73	173	-0.014	-1.009	0.067	-0.1718874	-0.1718874	0.1145916	93.09994542	-0.61879464	-23.0042637
1.74	174	-0.014	-1.009	0.066	-0.3437748	-0.1145916	0.0572958	93.09421584	-0.61879464	-23.0042637
1.75	175	-0.013	-1.008	0.066	-0.3437748	-0.1718874	0	93.06556794	-0.61306506	-23.0042637
1.76	176	-0.013	-1.008	0.066	-0.3437748	-0.1145916	0.0572958	93.06556794	-0.61306506	-23.0042637
1.77	177	-0.014	-1.008	0.067	-0.3437748	0	0.0572958	93.05983836	-0.61306506	-23.0042637
1.78	178	-0.014	-1.008	0.067	-0.4010706	0	0.0572958	93.05410878	-0.61306506	-23.00999328
1.79	179	-0.013	-1.009	0.067	-0.5156622	0	0.1718874	93.0483792	-0.61879464	-23.00999328
1.8	180	-0.013	-1.008	0.066	-0.6875496	0	0.286479	93.0197313	-0.61306506	-23.00999328
1.81	181	-0.012	-1.007	0.066	-0.6875496	0.1145916	0.1145916	93.01400172	-0.61306506	-23.00999328
1.82	182	-0.011	-1.008	0.067	-0.7448454	0.1145916	0.1145916	93.00827214	-0.61879464	-23.0042637
1.83	183	-0.013	-1.006	0.065	-0.8021412	0.0572958	0.0572958	92.99681298	-0.61879464	-23.0042637
1.84	184	-0.017	-1.004	0.063	-0.7448454	-0.0572958	0	92.9910834	-0.61879464	-23.0042637
1.85	185	-0.017	-1.005	0.065	-0.572958	0.2291832	-0.1145916	92.96816508	-0.61879464	-23.0042637
1.86	186	-0.015	-1.006	0.064	-0.572958	0.4010706	0	92.9624355	-0.61879464	-22.99853412
1.87	187	-0.013	-1.004	0.064	-0.572958	0.3437748	0.0572958	92.95670592	-0.61879464	-22.99853412
1.88	188	-0.014	-1.006	0.066	-0.6875496	0.286479	0	92.95097634	-0.61879464	-22.99280454
1.89	189	-0.014	-1.008	0.066	-0.859437	0.3437748	0	92.93951718	-0.61879464	-22.98707496
1.9	190	-0.015	-1.007	0.064	-0.859437	0.4010706	0	92.91086928	-0.61879464	-22.98707496
1.91	191	-0.012	-1.009	0.064	-0.8021412	0.3437748	0.1145916	92.9051397	-0.61879464	-22.98134538
1.92	192	-0.009	-1.008	0.066	-0.8021412	0.286479	0.286479	92.89368054	-0.62452422	-22.98134538
1.93	193	-0.009	-1.008	0.064	-0.5156622	0	0.3437748	92.89368054	-0.6302538	-22.98134538
1.94	194	-0.009	-1.009	0.06	-0.4010706	-0.1718874	0.4010706	92.88795096	-0.6302538	-22.98134538
1.95	195	-0.009	-1.009	0.062	-0.5156622	-0.2291832	0.286479	92.85930306	-0.61879464	-22.98707496
1.96	196	-0.009	-1.007	0.061	-0.6875496	0	0.1718874	92.85357348	-0.62452422	-22.98707496
1.97	197	-0.011	-1.006	0.061	-0.6875496	-0.0572958	0.1718874	92.8478439	-0.62452422	-22.98707496
1.98	198	-0.013	-1.006	0.061	-0.4583664	-0.0572958	0.1718874	92.84211432	-0.62452422	-22.98707496
1.99	199	-0.015	-1.004	0.061	-0.286479	0.0572958	0.1145916	92.83638474	-0.62452422	-22.98707496
2	200	-0.013	-1.004	0.058	-0.1718874	0.0572958	0.1145916	92.7619002	-0.61306506	-22.98707496
2.01	201	-0.014	-1.003	0.058	-0.1145916	0.0572958	0.1718874	92.7619002	-0.61879464	-22.98707496
2.02	202	-0.014	-1.004	0.058	-0.1718874	0	0.1718874	92.7619002	-0.61879464	-22.98707496
2.03	203	-0.014	-1.004	0.057	-0.1718874	0	0.1145916	92.7619002	-0.61879464	-22.98707496
2.04	204	-0.013	-1.004	0.057	0	0.1718874	0.1145916	92.7619002	-0.61879464	-22.98707496
2.05	205	-0.012	-1.003	0.055	0.2291832	0.2291832	0	92.71606356	-0.61306506	-22.98707496
2.06	206	-0.013	-1.003	0.053	0.3437748	0.1718874	0	92.72179314	-0.61306506	-22.98134538
2.07	207	-0.012	-1.003	0.053	0.3437748	0	0.0572958	92.72179314	-0.61306506	-22.98134538
2.08	208	-0.011	-1.005	0.051	0.4583664	0	0.2291832	92.72752272	-0.61306506	-22.98134538
2.09	209	-0.011	-1.005	0.053	0.572958	-0.1718874	0.4010706	92.7332523	-0.61879464	-22.98134538
2.1	210	-0.014	-1.008	0.055	0.3437748	-0.2291832	0.286479	92.69314524	-0.61879464	-22.98707496
2.11	211	-0.016	-1.009	0.058	-0.1145916	0.3437748	0.2291832	92.69314524	-0.62452422	-22.98134538
2.12	212	-0.015	-1.007	0.056	-0.286479	0.9740286	0.1145916	92.68741566	-0.62452422	-22.9756158
2.13	213	-0.015	-1.007	0.054	-0.2291832	1.3178034	0.1145916	92.68168608	-0.6302538	-22.95842706
2.14	214	-0.013	-1.008	0.053	-0.1145916	1.145916	0.286479	92.68168608	-0.6302538	-22.9469679
2.15	215	-0.012	-1.009	0.052	0	0.572958	0.286479	92.6473086	-0.62452422	-22.9469679
2.16	216	-0.012	-1.009	0.053	0.0572958	0.3437748	0.4583664	92.6473086	-0.6302538	-22.94123832
2.17	217	-0.011	-1.01	0.053	0	0.3437748	0.3437748	92.6473086	-0.63598338	-22.93550874
2.18	218	-0.013	-1.01	0.055	-0.1718874	0.4583664	0.1718874	92.6473086	-0.63598338	-22.92977916
2.19	219	-0.013	-1.011	0.055	-0.286479	0.5156622	0.0572958	92.64157902	-0.63598338	-22.92977916
2.2	220	-0.012	-1.008	0.054	-0.4010706	0.572958	0	92.60720154	-0.6302538	-22.92404958
2.21	221	-0.012	-1.008	0.053	-0.5156622	0.5156622	0.1145916	92.60147196	-0.6302538	-22.91832
2.22	222	-0.011	-1.009	0.053	-0.4583664	0.3437748	0.1145916	92.60147196	-0.63598338	-22.91259042
2.23	223	-0.012	-1.008	0.052	-0.4010706	0.286479	0.1145916	92.59574238	-0.63598338	-22.91259042
2.24	224	-0.012	-1.007	0.052	-0.286479	0.3437748	0.1718874	92.5900128	-0.63598338	-22.90686084
2.25	225	-0.011	-1.006	0.052	-0.3437748	0.1718874	0.1718874	92.54417616	-0.6302538	-22.90686084
2.26	226	-0.011	-1.007	0.051	-0.1718874	0.0572958	0.2291832	92.54417616	-0.6302538	-22.90686084
2.27	227	-0.011	-1.007	0.051	-0.286479	0	0.2291832	92.53844658	-0.6302538	-22.90686084
2.28	228	-0.013	-1.006	0.051	-0.286479	0.0572958	0.2291832	92.53844658	-0.63598338	-22.90686084
2.29	229	-0.014	-1.005	0.051	-0.1718874	0.0572958	0.2291832	92.532717	-0.63598338	-22.90686084
2.3	230	-0.013	-1.004	0.05	-0.3437748	0.1145916	0.1718874	92.48115078	-0.63598338	-22.90113126
2.31	231	-0.014	-1.006	0.05	-0.286479	0.1145916	0.286479	92.48115078	-0.64171296	-22.90113126
2.32	232	-0.013	-1.007	0.049	-0.286479	0.2291832	0.1718874	92.4754212	-0.64171296	-22.90113126
2.33	233	-0.013	-1.006	0.048	-0.1718874	0.2291832	0.1145916	92.4754212	-0.64171296	-22.89540168
2.34	234	-0.013	-1.007	0.048	-0.1718874	0.0572958	0.1145916	92.46969162	-0.64744254	-22.89540168
2.35	235	-0.013	-1.009	0.05	-0.3437748	0.0572958	0.1145916	92.42385498	-0.64171296	-22.89540168
2.36	236	-0.015	-1.009	0.05	-0.5156622	0	0	92.4181254	-0.64171296	-22.89540168
2.37	237	-0.015	-1.008	0.051	-0.572958	0	-0.1145916	92.41239582	-0.63598338	-22.89540168
2.38	238	-0.015	-1.009	0.048	-0.572958	0.1718874	0	92.40666624	-0.63598338	-22.89540168
2.39	239	-0.014	-1.01	0.048	-0.7448454	0.286479	0	92.40093666	-0.64171296	-22.8896721
2.4	240	-0.014	-1.01	0.045	-0.7448454	0.4010706	0.0572958	92.3608296	-0.63598338	-22.8896721
2.41	241	-0.013	-1.011	0.044	-0.6302538	0.3437748	0.1718874	92.34937044	-0.64171296	-22.88394252
2.42	242	-0.012	-1.011	0.044	-0.5156622	0.286479	0.1718874	92.34364086	-0.64171296	-22.87821294
2.43	243	-0.012	-1.011	0.046	-0.6875496	0.1718874	0.0572958	92.33791128	-0.64171296	-22.87821294
2.44	244	-0.012	-1.01	0.045	-0.7448454	0.1145916	0.0572958	92.3321817	-0.64171296	-22.87821294
2.45	245	-0.012	-1.008	0.043	-0.7448454	0	0.1145916	92.28061548	-0.63598338	-22.87821294
2.46	246	-0.012	-1.009	0.042	-0.4583664	0	0.1145916	92.2748859	-0.63598338	-22.87821294
2.47	247	-0.013	-1.008	0.043	-0.4010706	-0.0572958	0.0572958	92.2748859	-0.63598338	-22.87821294
2.48	248	-0.012	-1.008	0.042	-0.4583664	0.1145916	0	92.26915632	-0.63598338	-22.87821294
2.49	249	-0.012	-1.009	0.044	-0.5156622	0.286479	-0.0572958	92.26342674	-0.63598338	-22.87248336
2.5	250	-0.013	-1.008	0.041	-0.572958	0	-0.1718874	92.20613094	-0.6302538	-22.87248336
2.51	251	-0.013	-1.007	0.04	-0.4010706	-0.1145916	-0.1718874	92.20613094	-0.6302538	-22.87821294
2.52	252	-0.012	-1.009	0.042	0.0572958	-0.286479	0	92.20613094	-0.6302538	-22.87821294
2.53	253	-0.01	-1.01	0.043	0.0572958	-0.3437748	0	92.20613094	-0.6302538	-22.88394252
2.54	254	-0.011	-1.011	0.042	-0.286479	-0.4583664	0	92.20040136	-0.6302538	-22.8896721
2.55	255	-0.013	-1.012	0.042	-0.4010706	-0.572958	-0.1718874	92.16602388	-0.62452422	-22.89540168
2.56	256	-0.013	-1.012	0.041	-0.5156622	-0.3437748	-0.3437748	92.1602943	-0.61879464	-22.89540168
2.57	257	-0.012	-1.01	0.044	-0.4010706	0	-0.4010706	92.1602943	-0.61879464	-22.89540168
2.58	258	-0.009	-1.008	0.053	-0.4010706	0	-0.286479	92.15456472	-0.61306506	-22.89540168
2.59	259	-0.01	-1.012	0.056	-0.1145916	-0.4583664	0	92.15456472	-0.61306506	-22.90113126
2.6	260	-0.013	-1.016	0.054	-0.1145916	-1.432395	0.286479	92.14310556	-0.61306506	-22.91259042
2.61	261	-0.013	-1.017	0.047	-0.3437748	-1.7761698	0.4583664	92.14310556	-0.61879464	-22.93550874
2.62	262	-0.013	-1.022	0.041	-0.4583664	-1.6615782	0.4010706	92.13737598	-0.61879464	-22.9469679
2.63	263	-0.014	-1.022	0.044	-0.6875496	-1.6615782	0.286479	92.1316464	-0.62452422	-22.96415664
2.64	264	-0.017	-1.019	0.048	-0.859437	-1.6615782	0.1718874	92.12018724	-0.62452422	-22.98134538
2.65	265	-0.017	-1.018	0.048	-1.0313244	-1.3750992	0.0572958	92.09726892	-0.62452422	-22.99853412
2.66	266	-0.014	-1.015	0.053	-1.0313244	-0.859437	0	92.08580976	-0.62452422	-23.0042637
2.67	267	-0.01	-1.012	0.055	-0.9167328	-0.5156622	0	92.08008018	-0.62452422	-23.00999328
2.68	268	-0.009	-1.01	0.058	-1.0313244	-0.7448454	0.1145916	92.06862102	-0.62452422	-23.02145244
2.69	269	-0.011	-1.007	0.059	-1.0886202	-1.0886202	0.2291832	92.05716186	-0.62452422	-23.0329116
2.7	270	-0.012	-1.005	0.06	-1.0313244	-1.2032118	0.4010706	92.05143228	-0.62452422	-23.04437076
2.71	271	-0.013	-1.002	0.057	-0.8021412	-1.2605076	0.4010706	92.03997312	-0.6302538	-23.05582992
2.72	272	-0.018	-1.002	0.056	-0.4583664	-1.5469866	0.2291832	92.03424354	-0.6302538	-23.07301866
2.73	273	-0.019	-1.003	0.054	-0.572958	-1.2032118	0	92.02851396	-0.6302538	-23.08447782
2.74	274	-0.019	-1.003	0.051	-0.5156622	-0.4583664	-0.0572958	92.02851396	-0.6302538	-23.0902074
2.75	275	-0.018	-1.007	0.047	-0.4010706	-0.1718874	0	91.9884069	-0.63598338	-23.0902074
2.76	276	-0.021	-1.011	0.047	-0.572958	-0.4583664	0.1145916	91.98267732	-0.63598338	-23.09593698
2.77	277	-0.021	-1.013	0.046	-0.9167328	-0.6875496	0.286479	91.97694774	-0.64171296	-23.10166656
2.78	278	-0.022	-1.013	0.043	-1.2605076	-0.4010706	0.286479	91.959759	-0.64171296	-23.10739614
2.79	279	-0.021	-1.017	0.04	-1.6042824	0	0.2291832	91.94829984	-0.64744254	-23.10739614
2.8	280	-0.02	-1.02	0.043	-2.1772404	0.3437748	0.2291832	91.91392236	-0.65317212	-23.10166656
2.81	281	-0.02	-1.024	0.044	-2.9220858	0.4583664	0.1718874	91.87954488	-0.65317212	-23.10166656
2.82	282	-0.021	-1.025	0.046	-3.7815228	0.6302538	0.1718874	91.8451674	-0.6589017	-23.09593698
2.83	283	-0.021	-1.028	0.042	-4.2398892	0.6875496	0.1145916	91.79933076	-0.6589017	-23.08447782
2.84	284	-0.021	-1.03	0.041	-5.0420304	0.859437	0.0572958	91.74776454	-0.6589017	-23.07874824
2.85	285	-0.021	-1.029	0.04	-5.9014674	1.145916	0	91.68473916	-0.66463128	-23.06728908
2.86	286	-0.021	-1.029	0.045	-6.7036086	1.6042824	-0.0572958	91.6159842	-0.66463128	-23.05010034
2.87	287	-0.02	-1.026	0.05	-7.6776372	2.2345362	-0.1145916	91.53577008	-0.66463128	-23.0329116
2.88	288	-0.019	-1.025	0.051	-8.2505952	2.3491278	-0.1718874	91.44982638	-0.66463128	-23.00999328
2.89	289	-0.02	-1.025	0.051	-8.8235532	2.4064236	0	91.3581531	-0.66463128	-22.98707496
2.9	290	-0.019	-1.026	0.05	-9.1100322	2.5210152	0.0572958	91.26647982	-0.67036086	-22.96415664
2.91	291	-0.014	-1.03	0.048	-9.6829902	3.0366774	0.3437748	91.16907696	-0.67609044	-22.92977916
2.92	292	-0.006	-1.034	0.042	-10.4851314	2.9220858	0.859437	91.06021494	-0.6875496	-22.90686084
2.93	293	0	-1.034	0.042	-11.4018642	2.2345362	1.432395	90.94562334	-0.69900876	-22.88394252
2.94	294	0	-1.03	0.046	-12.1467096	1.3178034	1.8334656	90.81957258	-0.72192708	-22.87248336
2.95	295	-0.005	-1.031	0.044	-12.4331886	0.1145916	2.1772404	90.69352182	-0.7448454	-22.87248336
2.96	296	-0.01	-1.028	0.039	-12.9488508	-0.6302538	2.1772404	90.56174148	-0.76776372	-22.88394252
2.97	297	-0.011	-1.027	0.036	-13.6364004	-0.9167328	2.0626488	90.42423156	-0.78495246	-22.89540168
2.98	298	-0.014	-1.025	0.035	-13.9801752	-1.0886202	1.9480572	90.28672164	-0.80787078	-22.90686084
2.99	299	-0.015	-1.027	0.033	-14.4385416	-0.9740286	1.8907614	90.13775256	-0.82505952	-22.91832
3	300	-0.01	-1.031	0.034	-15.3552744	-0.7448454	2.1199446	89.9830539	-0.84797784	-22.92404958
3.01	301	-0.009	-1.025	0.035	-16.615782	-1.2032118	2.3491278	89.81689608	-0.87089616	-22.94123832
3.02	302	-0.01	-1.023	0.032	-17.5325148	-2.1772404	2.86479	89.6392791	-0.89954406	-22.96415664
3.03	303	-0.011	-1.019	0.031	-18.3919518	-2.3491278	3.0939732	89.45020296	-0.93392154	-22.99280454
3.04	304	-0.013	-1.016	0.028	-19.3659804	-2.1199446	3.2658606	89.25539724	-0.96829902	-23.01572286
3.05	305	-0.012	-1.017	0.02	-20.626488	-2.1772404	3.0939732	89.04913236	-0.99694692	-23.03864118
3.06	306	-0.018	-1.02	0.009	-21.8869956	-2.4637194	2.8074942	88.82567874	-1.0313244	-23.0615595
3.07	307	-0.026	-1.021	0.011	-23.3766864	-2.4064236	2.578311	88.59076596	-1.05424272	-23.0902074
3.08	308	-0.03	-1.015	0.011	-24.8090814	-1.3750992	2.2345362	88.33866444	-1.08289062	-23.10739614
3.09	309	-0.033	-1.021	-0.001	-25.1528562	-0.4583664	2.1199446	88.08083334	-1.10580894	-23.11312572
3.1	310	-0.035	-1.028	-0.01	-25.78311	0.1145916	2.1199446	87.82300224	-1.12872726	-23.11312572
3.11	311	-0.036	-1.033	-0.011	-27.215505	0.8021412	2.1772404	87.5479824	-1.15164558	-23.10739614
3.12	312	-0.038	-1.037	-0.015	-28.934379	0.9740286	2.2345362	87.25004424	-1.18029348	-23.10166656
3.13	313	-0.036	-1.039	-0.025	-30.7105488	0.8021412	2.1772404	86.94064692	-1.2032118	-23.09593698
3.14	314	-0.035	-1.039	-0.035	-31.51269	0.7448454	2.1772404	86.61979044	-1.22613012	-23.0902074
3.15	315	-0.034	-1.034	-0.044	-32.0283522	0.859437	2.0626488	86.29320438	-1.24904844	-23.08447782
3.16	316	-0.033	-1.032	-0.051	-32.6013102	1.145916	1.8334656	85.96088874	-1.27196676	-23.07301866
3.17	317	-0.032	-1.031	-0.057	-33.518043	1.145916	1.5469866	85.62284352	-1.2891555	-23.06728908
3.18	318	-0.031	-1.03	-0.066	-34.8358464	1.3178034	1.3750992	85.26760956	-1.30634424	-23.05582992
3.19	319	-0.032	-1.028	-0.074	-35.9244666	1.3750992	1.2605076	84.90091644	-1.3178034	-23.04437076
3.2	320	-0.026	-1.038	-0.067	-37.1849742	1.5469866	1.3750992	84.52276416	-1.33499214	-23.0329116
3.21	321	-0.022	-1.037	-0.068	-39.820581	1.6615782	1.9480572	84.12169356	-1.35791046	-23.01572286
3.22	322	-0.023	-1.035	-0.074	-41.4248634	0.859437	2.005353	83.69770464	-1.38082878	-23.00999328
3.23	323	-0.027	-1.036	-0.065	-43.7166954	0.6302538	1.7761698	83.25652698	-1.4037471	-23.0042637
3.24	324	-0.031	-1.02	-0.074	-45.0917946	0.6875496	1.432395	82.79816058	-1.42093584	-23.0042637
3.25	325	-0.036	-1.025	-0.085	-45.4355694	0.2291832	0.9167328	82.3340646	-1.432395	-23.0042637
3.26	326	-0.035	-1.02	-0.093	-46.5241896	0.8021412	0.7448454	81.86423904	-1.44385416	-22.99853412
3.27	327	-0.038	-1.029	-0.103	-46.8679644	0.1718874	0.8021412	81.3886839	-1.4610429	-22.99853412
3.28	328	-0.041	-1.033	-0.072	-49.6181628	-0.3437748	0.7448454	80.88448086	-1.47250206	-23.0042637
3.29	329	-0.038	-1.007	-0.109	-51.9099948	0.3437748	0.5156622	80.3573595	-1.47823164	-23.00999328
3.3	330	-0.053	-1.041	-0.117	-52.9413192	-1.145916	0.4583664	79.82450856	-1.49542038	-23.02145244
3.31	331	-0.057	-1.04	-0.113	-55.863405	-0.1145916	0	79.25728014	-1.50114996	-23.0329116
3.32	332	-0.061	-1.042	-0.09	-57.8114622	2.2345362	-1.0313244	78.6671334	-1.4896908	-23.01572286
3.33	333	-0.058	-1.055	-0.102	-57.9833496	4.9274388	-2.4637194	78.07698666	-1.46677248	-22.9756158
3.34	334	-0.064	-1.069	-0.117	-59.7022236	6.1306506	-3.6669312	77.46965118	-1.42093584	-22.92977916
3.35	335	-0.069	-1.068	-0.145	-62.452422	6.3598338	-4.3544808	76.8336678	-1.3750992	-22.88394252
3.36	336	-0.052	-1.086	-0.167	-65.1453246	7.1046792	-4.6982556	76.16903652	-1.32353298	-22.8323763
3.37	337	-0.026	-1.057	-0.163	-69.4998054	9.2246238	-4.870143	75.46429818	-1.26623718	-22.76362134
3.38	338	-0.001	-1.05	-0.188	-67.7809314	8.9381448	-4.870143	74.771019	-1.2032118	-22.69486638
3.39	339	0.013	-1.056	-0.203	-65.6609868	6.6463128	-4.4690724	74.10065814	-1.15164558	-22.64902974
3.4	340	0.022	-1.062	-0.192	-67.6663398	4.8128472	-3.8388186	73.41883812	-1.11153852	-22.62038184
3.41	341	0.02	-1.045	-0.197	-70.6457214	3.6096354	-4.0680018	72.70264062	-1.06570188	-22.6031931
3.42	342	0.014	-1.033	-0.22	-72.192708	2.9793816	-4.6982556	71.96925438	-1.02559482	-22.59173394
3.43	343	0	-1.008	-0.199	-76.2607098	3.8961144	-5.8441716	71.1900315	-0.96256944	-22.58027478
3.44	344	-0.014	-0.952	-0.228	-77.34933	4.5263682	-7.3338624	70.40507904	-0.89381448	-22.56881562
3.45	345	-0.03	-0.958	-0.237	-77.34933	2.1199446	-8.1932994	69.62585616	-0.81932994	-22.58027478
3.46	346	-0.045	-0.9	-0.249	-78.4379502	0	-8.8235532	68.82944454	-0.7448454	-22.62038184
3.47	347	-0.041	-0.915	-0.29	-74.6564274	-0.5156622	-8.8235532	68.07313998	-0.67609044	-22.6604889
3.48	348	-0.056	-0.895	-0.305	-76.1461182	0.8021412	-8.2505952	67.29964668	-0.6016059	-22.6891368
3.49	349	-0.062	-0.883	-0.308	-76.6617804	4.3544808	-8.1932994	66.5204238	-0.52139178	-22.6891368
3.5	350	-0.048	-0.854	-0.32	-75.1147938	7.0473834	-8.0787078	65.75838966	-0.4297185	-22.6604889
3.51	351	-0.047	-0.866	-0.332	-75.0002022	7.448454	-7.3911582	64.99062594	-0.3437748	-22.62611142
3.52	352	-0.05	-0.839	-0.378	-72.765666	6.4171296	-6.589017	64.25151012	-0.26929026	-22.6031931
3.53	353	-0.043	-0.835	-0.423	-68.8122558	4.9274388	-6.0733548	63.55250136	-0.2005353	-22.59173394
3.54	354	-0.032	-0.861	-0.446	-69.7862844	4.870143	-4.9847346	62.84776302	-0.1432395	-22.5745452
3.55	355	-0.022	-0.836	-0.427	-70.7030172	6.589017	-4.297185	62.12583594	-0.0859437	-22.54016772
3.56	356	-0.005	-0.821	-0.446	-68.9841432	8.6516658	-4.010706	61.42682718	-0.02291832	-22.48287192
3.57	357	0.007	-0.827	-0.472	-67.8382272	10.026765	-3.7815228	60.733548	0.04010706	-22.41984654
3.58	358	0.011	-0.841	-0.485	-66.6923112	10.2559482	-3.6096354	60.05745756	0.1145916	-22.35109158
3.59	359	0.014	-0.862	-0.511	-65.8328742	10.4278356	-3.7815228	59.3870967	0.18334656	-22.28233662
3.6	360	0.005	-0.859	-0.559	-64.6869582	9.9694692	-4.010706	58.72246542	0.2578311	-22.21931124
3.61	361	-0.007	-0.86	-0.59	-62.1086472	9.6829902	-4.870143	58.09221162	0.3437748	-22.16774502
3.62	362	0.002	-0.864	-0.593	-61.9367598	9.8548776	-5.0420304	57.46195782	0.42398892	-22.11044922
3.63	363	0.017	-0.838	-0.596	-61.020027	9.6256944	-5.0993262	56.84316318	0.50993262	-22.06461258
3.64	364	0.025	-0.828	-0.611	-59.1865614	8.7662574	-5.0420304	56.24155728	0.59014674	-22.01877594
3.65	365	0.041	-0.819	-0.607	-59.1292656	9.7975818	-4.870143	55.6342218	0.67609044	-21.96720972
3.66	366	0.059	-0.814	-0.592	-58.0979412	9.5111028	-4.583664	55.04407506	0.75630456	-21.9156435
3.67	367	0.041	-0.802	-0.597	-57.7541664	8.8235532	-5.156622	54.4596579	0.84224826	-21.87553644
3.68	368	0.011	-0.802	-0.592	-56.2071798	8.9954406	-5.6722842	53.8866999	0.92819196	-21.83542938
3.69	369	-0.001	-0.793	-0.597	-54.7747848	7.5057498	-6.016059	53.33093064	1.01413566	-21.81251106
3.7	370	0.003	-0.787	-0.617	-53.571573	6.9327918	-6.1879464	52.78089096	1.09434978	-21.79532232
3.71	371	0.011	-0.776	-0.632	-52.0245864	6.7036086	-5.9587632	52.2537696	1.1745639	-21.78386316
3.72	372	0.017	-0.765	-0.624	-51.1078536	5.6722842	-6.2452422	51.73237782	1.24904844	-21.77813358
3.73	373	0.026	-0.748	-0.604	-50.1911208	5.6722842	-6.4744254	51.2224452	1.32926256	-21.772404
3.74	374	0.031	-0.74	-0.596	-48.987909	4.1825934	-6.3598338	50.72397174	1.39801752	-21.78386316
3.75	375	0.03	-0.729	-0.567	-48.987909	2.8074942	-6.4744254	50.22549828	1.45531332	-21.8010519
3.76	376	0.028	-0.713	-0.597	-47.4982182	3.0939732	-6.4744254	49.74421356	1.5183387	-21.82397022
3.77	377	0.035	-0.705	-0.614	-45.550161	3.2658606	-6.016059	49.28011758	1.58136408	-21.83542938
3.78	378	0.04	-0.71	-0.615	-45.1490904	3.6669312	-5.6722842	48.82175118	1.63865988	-21.84688854
3.79	379	0.036	-0.712	-0.633	-44.2896534	3.7815228	-5.2712136	48.36911436	1.69595568	-21.85261812
3.8	380	0.028	-0.715	-0.648	-43.3729206	2.578311	-4.9274388	47.9279367	1.74179232	-21.86980686
3.81	381	0.023	-0.719	-0.656	-42.4561878	1.9480572	-4.6982556	47.4982182	1.78762896	-21.8869956
3.82	382	0.026	-0.726	-0.644	-42.4561878	1.8907614	-4.6982556	47.06277012	1.82773602	-21.90418434
3.83	383	0.03	-0.716	-0.632	-43.0864416	1.4896908	-4.8128472	46.62732204	1.86784308	-21.92710266
3.84	384	0.029	-0.693	-0.631	-43.258329	1.145916	-5.0420304	46.18614438	1.90222056	-21.95575056
3.85	385	0.026	-0.674	-0.632	-43.3156248	0.6302538	-5.0993262	45.74496672	1.94232762	-21.98439846
3.86	386	0.027	-0.649	-0.63	-42.5134836	0.2291832	-5.0420304	45.30951864	1.97097552	-22.01877594
3.87	387	0.03	-0.632	-0.652	-41.252976	0	-4.870143	44.8912593	1.99962342	-22.058883
3.88	388	0.028	-0.632	-0.673	-40.3362432	-0.8021412	-4.583664	44.47872954	2.02254174	-22.09326048
3.89	389	0.027	-0.645	-0.674	-40.5654264	-0.4010706	-4.4117766	44.06619978	2.04546006	-22.13336754
3.9	390	0.027	-0.645	-0.687	-40.9092012	0.9167328	-4.4117766	43.64221086	2.07410796	-22.15628586
3.91	391	0.03	-0.645	-0.699	-40.393539	1.4896908	-4.3544808	43.23541068	2.10848544	-22.17920418
3.92	392	0.019	-0.645	-0.669	-40.8519054	1.0313244	-4.297185	42.81715134	2.14286292	-22.2021225
3.93	393	0.015	-0.632	-0.659	-41.4821592	0.9740286	-4.2398892	42.39316242	2.17151082	-22.2307704
3.94	394	0.017	-0.618	-0.626	-41.7686382	1.2032118	-4.1825934	41.9691735	2.20015872	-22.25368872
3.95	395	0.022	-0.598	-0.616	-41.0237928	1.8907614	-4.1252976	41.55091416	2.2345362	-22.27087746
3.96	396	0.029	-0.586	-0.639	-39.247623	0.6875496	-3.7815228	41.14984356	2.2631841	-22.29379578
3.97	397	0.04	-0.583	-0.644	-38.388186	-0.572958	-3.8961144	40.76023212	2.27464326	-22.32817326
3.98	398	0.056	-0.591	-0.665	-37.1276784	-1.5469866	-4.4690724	40.38207984	2.291832	-22.3740099
3.99	399	0.062	-0.598	-0.679	-36.382833	-2.9220858	-5.5576926	40.00965714	2.29756158	-22.43703528
4	400	0.057	-0.604	-0.669	-35.9817624	-2.86479	-7.1046792	39.64296402	2.3204799	-22.51151982
4.01	401	0.061	-0.615	-0.668	-35.2942128	-2.005353	-8.9954406	39.28200048	2.35485738	-22.59173394
4.02	402	0.067	-0.617	-0.668	-34.8931422	-1.7761698	-10.026765	38.92676652	2.40069402	-22.68340722
4.03	403	0.078	-0.617	-0.652	-34.950438	-2.3491278	-10.9434978	38.56580298	2.44653066	-22.78081008
4.04	404	0.105	-0.627	-0.655	-33.5753388	-3.4950438	-11.5737516	38.22202818	2.48663772	-22.89540168
4.05	405	0.111	-0.646	-0.641	-32.8877892	-4.9847346	-11.2872726	37.88971254	2.5210152	-23.01572286
4.06	406	0.086	-0.649	-0.64	-32.5440144	-6.0733548	-10.7143146	37.55166732	2.53247436	-23.13604404
4.07	407	0.055	-0.645	-0.658	-32.0283522	-6.016059	-10.7143146	37.22508126	2.5496631	-23.25636522
4.08	408	0.031	-0.648	-0.673	-31.3980984	-5.3285094	-11.0007936	36.8984952	2.56685184	-23.38241598
4.09	409	0.025	-0.659	-0.676	-30.8251404	-3.6669312	-11.5737516	36.5833683	2.60122932	-23.49700758
4.1	410	0.025	-0.665	-0.667	-30.7105488	-3.437748	-11.8029348	36.27397098	2.64133638	-23.61159918
4.11	411	0.025	-0.661	-0.657	-31.1116194	-2.2345362	-12.2040054	35.9531145	2.6929026	-23.7204612
4.12	412	0.046	-0.659	-0.646	-31.226211	-0.6302538	-12.318597	35.63225802	2.75592798	-23.82359364
4.13	413	0.053	-0.653	-0.614	-31.8564648	0.0572958	-11.9748222	35.30567196	2.81895336	-23.9209965
4.14	414	0.051	-0.647	-0.598	-31.9137606	0.286479	-11.2299768	34.97335632	2.88197874	-24.01266978
4.15	415	0.04	-0.651	-0.598	-31.6272816	-0.6875496	-10.4278356	34.663959	2.92781538	-24.09861348
4.16	416	0.026	-0.662	-0.587	-32.0283522	0	-10.2559482	34.33737294	2.98511118	-24.18455718
4.17	417	0.027	-0.663	-0.579	-32.0283522	0.8021412	-9.9121734	34.0050573	3.04240698	-24.25904172
4.18	418	0.016	-0.655	-0.56	-32.0283522	1.5469866	-9.7975818	33.67847124	3.10543236	-24.33352626
4.19	419	0.011	-0.644	-0.542	-31.7418732	5.0993262	-9.9694692	33.35188518	3.19710564	-24.38509248
4.2	420	0.025	-0.643	-0.527	-31.1116194	8.5370742	-9.9121734	33.04821744	3.31169724	-24.41946996
4.21	421	0.035	-0.638	-0.518	-32.6013102	11.0580894	-9.740286	32.7159018	3.44920716	-24.4366587
4.22	422	0.05	-0.63	-0.563	-34.5493674	12.7196676	-9.5111028	32.36639742	3.60390582	-24.44811786
4.23	423	0.108	-0.634	-0.585	-35.523396	13.0634424	-8.6516658	31.9997043	3.7528749	-24.44811786
4.24	424	0.182	-0.643	-0.603	-36.669312	9.2819196	-8.0787078	31.6272816	3.8674665	-24.4653066
4.25	425	0.237	-0.672	-0.644	-41.7686382	5.5003968	-8.6516658	31.21475184	3.96486936	-24.50541366
4.26	426	0.299	-0.694	-0.768	-46.696077	3.724227	-8.307891	30.73346712	4.03362432	-24.55697988
4.27	427	0.317	-0.723	-0.914	-52.1964738	1.0886202	-8.7662574	30.20061618	4.07946096	-24.62573484
4.28	428	0.316	-0.792	-0.971	-60.0459984	-1.6615782	-10.9434978	29.58182154	4.11383844	-24.72886728
4.29	429	0.312	-0.835	-1.038	-69.041439	-7.6776372	-13.6364004	28.87135362	4.10237928	-24.88356594
4.3	430	0.287	-0.901	-1.086	-79.1827956	-14.2666542	-16.9595568	28.05775326	4.05081306	-25.10128998
4.31	431	0.267	-0.903	-1.065	-91.5586884	-17.3033316	-17.8762896	27.11810214	3.97059894	-25.34193234
4.32	432	0.25	-0.879	-1.109	-103.8772854	-18.4492476	-19.5378678	26.04667068	3.88465524	-25.59976344
4.33	433	0.206	-0.832	-1.153	-117.6855732	-19.8243468	-21.2567418	24.83199972	3.7815228	-25.88051286
4.34	434	0.163	-0.798	-1.148	-129.2593248	-20.340009	-21.772404	23.50846674	3.67266078	-26.16126228
4.35	435	0.121	-0.779	-1.13	-139.6871604	-22.5172494	-20.1681216	22.07607174	3.52942128	-26.43628212
4.36	436	-0.015	-0.732	-1.064	-150.7452498	-21.485925	-19.4232762	20.53481472	3.38618178	-26.69411322
4.37	437	-0.079	-0.713	-0.975	-158.6520702	-20.1681216	-18.1054728	18.91334358	3.2372127	-26.929026
4.38	438	-0.131	-0.655	-0.895	-165.584862	-16.7303736	-16.615782	17.22311748	3.11116194	-27.13529088
4.39	439	-0.059	-0.657	-0.777	-172.173879	-14.7250206	-16.615782	15.469866	2.99657034	-27.3300966
4.4	440	0.064	-0.538	-0.766	-176.5283598	-13.8082878	-17.761698	13.67077788	2.88770832	-27.5306319
4.41	441	0.086	-0.385	-0.754	-178.762896	-12.4331886	-18.6784308	11.84877144	2.79030546	-27.7311672
4.42	442	0.038	-0.188	-0.721	-175.4970354	-11.9748222	-16.615782	10.06114248	2.68144344	-27.90878418
4.43	443	-0.046	-0.068	-0.705	-165.1837914	-11.0580894	-14.8396122	8.38237554	2.578311	-28.06921242
4.44	444	-0.12	-0.035	-0.688	-153.266265	-10.886202	-16.5011904	6.8182002	2.47517856	-28.23537024
4.45	445	-0.16	-0.012	-0.753	-144.2135286	-8.4224826	-21.0848544	5.34569814	2.38923486	-28.4473647
4.46	446	-0.278	0.084	-0.807	-134.1867636	-3.5523396	-23.0902074	3.97059894	2.35485738	-28.67081832
4.47	447	-0.417	0.246	-0.763	-127.3685634	6.3598338	-23.8923486	2.66998428	2.41788276	-28.89427194
4.48	448	-0.5	0.38	-0.675	-117.8001648	16.1574156	-21.485925	1.4610429	2.57258142	-29.08907766
4.49	449	-0.409	0.427	-0.568	-108.575541	26.7571386	-16.3865988	0.34950438	2.83041252	-29.23231716
4.5	450	-0.236	0.428	-0.471	-102.9605526	30.0229992	-10.2559482	-0.7161975	3.10543236	-29.31826086
4.51	451	-0.094	0.375	-0.547	-97.5747474	29.0489706	-4.870143	-1.70741484	3.3804522	-29.35836792
4.52	452	-0.023	0.321	-0.55	-94.8818448	25.8404058	0	-2.67571386	3.62682414	-29.35263834
4.53	453	-0.011	0.301	-0.55	-87.7198698	27.7311672	3.2085648	-3.56952834	3.89038482	-29.31826086
4.54	454	0.035	0.304	-0.647	-73.625103	27.6738714	6.1879464	-4.31437374	4.15967508	-29.26096506
4.55	455	0.005	0.286	-0.71	-55.2331512	23.6058696	7.7922288	-4.88733174	4.38885828	-29.1922101
4.56	456	-0.062	0.193	-0.774	-39.4768062	22.4026578	7.448454	-5.28267276	4.6123119	-29.12918472
4.57	457	-0.134	0.152	-0.757	-25.6112226	26.5279554	5.156622	-5.54623344	4.87587258	-29.09480724
4.58	458	-0.198	0.12	-0.707	-10.599723	32.372127	2.6356068	-5.65509546	5.19672906	-29.08907766
4.59	459	-0.232	0.069	-0.673	6.9327918	37.2995658	1.5469866	-5.59207008	5.56915176	-29.10053682
4.6	460	-0.247	0.019	-0.643	20.7983754	37.1849742	1.2605076	-5.3858052	5.91865614	-29.11199598
4.61	461	-0.227	-0.013	-0.583	27.501984	37.24227	1.3178034	-5.11078536	6.29107884	-29.12345514
4.62	462	-0.109	-0.044	-0.531	31.7418732	37.4141574	2.4637194	-4.79565846	6.66923112	-29.12345514
4.63	463	0.049	-0.052	-0.545	38.674665	28.5333084	6.8182002	-4.40031744	6.95571012	-29.0776185
4.64	464	0.229	-0.027	-0.573	44.8626114	15.0687954	15.1260912	-3.9247623	7.12186794	-28.934379
4.65	465	0.343	-0.009	-0.529	48.70143	7.6203414	21.9442914	-3.40337052	7.23072996	-28.72238454
4.66	466	0.376	0.031	-0.481	48.987909	6.0733548	26.2987722	-2.87624916	7.31094408	-28.46455344
4.67	467	0.413	0.085	-0.343	47.555514	3.8388186	27.9603504	-2.36058696	7.36823988	-28.1895336
4.68	468	0.465	0.171	-0.246	48.1857678	-0.5156622	28.7051958	-1.8334656	7.37396946	-27.90878418
4.69	469	0.475	0.27	-0.265	59.2438572	-21.6578124	30.366774	-1.19175264	7.17343416	-27.61084602
4.7	470	0.429	0.342	-0.266	73.4532156	-43.7739912	32.2002396	-0.41252976	6.76663398	-27.3014487
4.71	471	0.28	0.447	-0.357	92.8764918	-50.7640788	33.231564	0.56722842	6.2738901	-26.99205138
4.72	472	0.116	0.497	-0.538	132.5251854	-40.2789474	32.8304934	1.9480572	5.88427866	-26.69411322
4.73	473	0.121	0.555	-0.724	165.9859326	-16.2147114	28.1895336	3.66120162	5.72958	-26.43628212
4.74	474	0.278	0.709	-0.803	174.0073446	-1.6042824	16.6730778	5.443101	5.71812084	-26.28158346
4.75	475	0.427	0.845	-0.822	166.0432284	-2.6929026	6.302538	7.11613836	5.71239126	-26.23574682
4.76	476	0.41	0.784	-0.833	150.0577002	-14.0947668	1.3750992	8.64020664	5.59207008	-26.25866514
4.77	477	0.336	0.653	-0.974	138.1974696	-30.7678446	8.7089616	10.04968332	5.29413192	-26.2414764
4.78	478	0.464	0.819	-1.141	152.4641238	-53.5142772	20.5118964	11.60812908	4.76128098	-26.16126228
4.79	479	0.693	1.023	-1.329	177.4450926	-70.1300592	31.226211	13.43013552	4.04508348	-26.03521152
4.8	480	0.834	1.035	-1.466	207.2962044	-103.6481022	44.977203	15.55008012	2.97365202	-25.8977016
4.81	481	0.866	0.83	-1.399	238.6943028	-134.1294678	52.8267276	17.99661078	1.59282324	-25.82321706
4.82	482	0.663	0.811	-1.37	258.3467622	-146.5626564	60.3897732	20.63794716	0.07448454	-25.78883958
4.83	483	0.142	0.769	-1.505	259.549974	-151.6619826	64.3431834	23.29647228	-1.49542038	-25.80602832
4.84	484	-0.097	0.554	-1.785	238.8661902	-153.6673356	71.046792	25.74300294	-3.1226211	-25.83467622
4.85	485	-0.152	-0.077	-2.233	195.8370444	-134.931609	73.625103	27.74835594	-4.60085274	-25.82321706
4.86	486	-0.571	-0.824	-2.877	104.3929476	-61.3638018	51.4516284	28.80259866	-5.3571573	-25.67424798
4.87	487	-0.29	-2.02	-3.563	46.4668938	12.0894138	11.2299768	29.26096506	-5.2998615	-25.51954932
4.88	488	-0.008	-2.481	-3.953	-37.7006364	-0.859437	10.886202	28.86562404	-5.36861646	-25.42787604
4.89	489	0.114	-1.335	-3.973	-99.121734	-69.4998054	39.9351726	27.86867712	-6.16502808	-25.41641688
4.9	490	-0.197	-0.357	-3.294	-101.7573408	-112.0705848	56.436363	26.86027104	-7.40834694	-25.45652394
4.91	491	-0.548	-0.014	-2.39	-84.7404882	-99.0644382	44.117766	26.02375236	-8.4797784	-25.5252789
4.92	492	-0.682	0.058	-1.892	-78.4379502	-72.9375534	22.7464326	25.25598864	-9.23035338	-25.65132966
4.93	493	-0.626	0.138	-1.606	-84.6831924	-67.0933818	6.0733548	24.44238828	-9.86060718	-25.89197202
4.94	494	-0.503	0.267	-1.369	-89.8398144	-74.3699484	1.0313244	23.60014002	-10.5424272	-26.20136934
4.95	495	-0.366	0.355	-0.983	-94.3088868	-82.1621772	5.2139178	22.6891368	-11.32165008	-26.49357792
4.96	496	-0.226	0.401	-0.59	-91.1576178	-80.6724864	13.750992	21.81251106	-12.11233212	-26.68838364
4.97	497	-0.01	0.371	-0.224	-76.5471888	-72.4218912	18.2200644	21.06766566	-12.85144794	-26.80297524
4.98	498	0.115	0.404	-0.241	-64.171296	-72.6510744	13.8082878	20.46033018	-13.57337502	-26.94621474
4.99	499	0.11	0.32	-0.267	-48.7587258	-62.5097178	4.583664	20.01915252	-14.16925134	-27.14102046
5	500	0.019	0.229	-0.356	-48.70143	-37.5860448	-7.7922288	19.5665157	-14.49010782	-27.34728534
5.01	501	-0.112	0.225	-0.326	-42.7426668	-21.9442914	-18.907614	19.19982258	-14.6390769	-27.61084602
5.02	502	-0.209	0.183	-0.228	-29.5646328	-21.8296998	-26.4706596	18.98782812	-14.75939808	-27.94316166
5.03	503	-0.249	0.171	-0.204	-23.2620948	-26.6998428	-31.0543236	18.85604778	-14.90836716	-28.34423226
5.04	504	-0.247	0.185	-0.221	-10.6570188	-32.0283522	-31.4553942	18.86177736	-15.10317288	-28.7624916
5.05	505	-0.266	0.178	-0.304	2.3491278	-35.0650296	-29.1062664	18.98209854	-15.34381524	-29.16929178
5.06	506	-0.322	0.152	-0.359	8.0787078	-33.804522	-27.0436176	19.17117468	-15.56726886	-29.55317364
5.07	507	-0.329	0.093	-0.426	17.1314442	-30.1948866	-26.4706596	19.44619452	-15.756345	-29.91986676
5.08	508	-0.369	-0.013	-0.504	26.6998428	-29.6219286	-26.929026	19.8243468	-15.93396198	-30.29801904
5.09	509	-0.488	-0.173	-0.562	34.5493674	-30.366774	-28.7051958	20.28844278	-16.11157896	-30.69336006
5.1	510	-0.659	-0.341	-0.646	35.1796212	-25.0382646	-32.4867186	20.7697275	-16.24908888	-31.10588982
5.11	511	-0.803	-0.502	-0.765	32.372127	-11.5164558	-37.0703826	21.21090516	-16.2147114	-31.50696042
5.12	512	-0.852	-0.588	-0.841	27.9030546	4.4117766	-39.3622146	21.59478702	-16.03136484	-31.86792396
5.13	513	-0.885	-0.559	-0.923	24.350715	20.2827132	-37.0130868	21.9156435	-15.70477878	-32.1429438
5.14	514	-0.878	-0.51	-1.007	21.6578124	28.8770832	-31.8564648	22.17920418	-15.32089692	-32.32629036
5.15	515	-0.82	-0.472	-1.096	20.2827132	30.2521824	-26.0122932	22.41411696	-14.9542038	-32.45234112
5.16	516	-0.753	-0.47	-1.204	20.1681216	26.5279554	-20.5691922	22.63757058	-14.63334732	-32.53828482
5.17	517	-0.694	-0.51	-1.265	19.767051	20.626488	-17.5325148	22.85529462	-14.37551622	-32.61849894
5.18	518	-0.618	-0.582	-1.269	17.3033316	17.2460358	-16.7303736	23.05010034	-14.1520626	-32.69871306
5.19	519	-0.539	-0.655	-1.246	14.8396122	16.902261	-15.8136408	23.21625816	-13.93433856	-32.77892718
5.2	520	-0.478	-0.67	-1.21	10.3705398	18.2773602	-12.4331886	23.33084976	-13.7223441	-32.81903424
5.21	521	-0.428	-0.623	-1.142	4.6982556	19.480572	-7.1046792	23.37095682	-13.5218088	-32.8018455
5.22	522	-0.375	-0.558	-1.064	2.4064236	19.2513888	-2.2345362	23.38241598	-13.33846224	-32.73882012
5.23	523	-0.32	-0.505	-0.993	1.9480572	18.7357266	1.9480572	23.3766864	-13.178034	-32.64141726
5.24	524	-0.28	-0.454	-0.914	1.5469866	18.2773602	5.3285094	23.35949766	-13.0347945	-32.5153665
5.25	525	-0.237	-0.406	-0.844	0.8021412	16.7303736	8.307891	23.33657934	-12.9202029	-32.36066784
5.26	526	-0.19	-0.365	-0.803	-0.4010706	15.2406828	10.886202	23.2907427	-12.82852962	-32.19451002
5.27	527	-0.135	-0.312	-0.779	-1.3178034	16.5011904	13.0061466	23.2334469	-12.73112676	-32.00543388
5.28	528	-0.106	-0.261	-0.764	-0.2291832	12.8342592	15.756345	23.18188068	-12.67956054	-31.799169
5.29	529	-0.088	-0.221	-0.759	0.8021412	9.453807	17.9335854	23.1475032	-12.6623718	-31.59290412
5.3	530	-0.049	-0.189	-0.791	2.0626488	13.6364004	18.334656	23.0902074	-12.59361684	-31.35799134
5.31	531	-0.025	-0.172	-0.812	4.9274388	15.8709366	18.621135	23.0902074	-12.52486188	-31.11734898
5.32	532	-0.026	-0.167	-0.83	7.3911582	14.32395	19.1367972	23.11312572	-12.46756608	-30.87670662
5.33	533	-0.041	-0.171	-0.842	9.5683986	12.0894138	20.05353	23.15323278	-12.43891818	-30.64179384
5.34	534	-0.055	-0.191	-0.859	11.9175264	11.45916	20.7410796	23.22198774	-12.41599986	-30.3954219
5.35	535	-0.063	-0.219	-0.894	12.605076	13.3499214	21.0848544	23.27355396	-12.35870406	-30.14332038
5.36	536	-0.071	-0.228	-0.933	11.9748222	16.6730778	20.9702628	23.33657934	-12.2899491	-29.87403012
5.37	537	-0.081	-0.23	-0.966	11.0580894	18.621135	20.5691922	23.38814556	-12.2040054	-29.60473986
5.38	538	-0.085	-0.241	-0.998	9.9121734	21.485925	19.0795014	23.42825262	-12.08368422	-29.3354496
5.39	539	-0.079	-0.256	-1.025	8.021412	23.3766864	17.3033316	23.45690052	-11.9461743	-29.07188892
5.4	540	-0.075	-0.259	-1.032	6.016059	22.1161788	15.183387	23.43971178	-11.79147564	-28.83124656
5.41	541	-0.078	-0.255	-1.024	4.9847346	20.7983754	12.891555	23.44544136	-11.65396572	-28.62498168
5.42	542	-0.082	-0.254	-1.018	3.3231564	19.8816426	10.1986524	23.43971178	-11.5164558	-28.44163512
5.43	543	-0.073	-0.252	-1.019	1.2032118	20.6837838	7.0473834	23.42252304	-11.35602756	-28.28693646
5.44	544	-0.069	-0.239	-1.003	-1.2605076	21.3713334	3.8961144	23.38241598	-11.18414016	-28.1608857
5.45	545	-0.074	-0.226	-0.98	-2.578311	18.1627686	1.4896908	23.27355396	-10.99506402	-28.05775326
5.46	546	-0.082	-0.216	-0.961	-2.4064236	14.32395	0	23.2334469	-10.86328368	-28.00045746
5.47	547	-0.093	-0.208	-0.951	-2.291832	11.0580894	-1.145916	23.204799	-10.76015124	-27.9603504
5.48	548	-0.104	-0.205	-0.935	-1.2605076	7.5057498	-1.8334656	23.18761026	-10.6856667	-27.94889124
5.49	549	-0.111	-0.211	-0.922	-0.286479	3.9534102	-2.3491278	23.18188068	-10.63983006	-27.95462082
5.5	550	-0.116	-0.221	-0.911	0.3437748	0.6875496	-3.151269	22.99853412	-10.56534552	-27.94889124
5.51	551	-0.113	-0.231	-0.91	0.286479	-1.2032118	-4.2398892	23.00999328	-10.55961594	-27.99472788
5.52	552	-0.101	-0.24	-0.919	-0.1718874	-1.5469866	-6.016059	23.01572286	-10.55388636	-28.05202368
5.53	553	-0.095	-0.247	-0.924	-0.6302538	-1.0313244	-7.9068204	23.02718202	-10.53096804	-28.1322378
5.54	554	-0.097	-0.256	-0.927	-0.8021412	-1.2032118	-9.5683986	23.0329116	-10.50232014	-28.22964066
5.55	555	-0.107	-0.266	-0.935	-0.1718874	-2.0626488	-10.8289062	22.98707496	-10.45075392	-28.32704352
5.56	556	-0.125	-0.281	-0.945	0	-1.7761698	-11.6883432	23.00999328	-10.42210602	-28.44163512
5.57	557	-0.145	-0.292	-0.945	-0.6875496	-1.4896908	-12.032118	23.02718202	-10.38772854	-28.5619563
5.58	558	-0.157	-0.295	-0.946	-0.4583664	-1.8334656	-11.6883432	23.03864118	-10.35908064	-28.6765479
5.59	559	-0.165	-0.304	-0.951	-0.3437748	-2.86479	-10.5424272	23.05582992	-10.3418919	-28.78540992
5.6	560	-0.174	-0.31	-0.955	-1.0886202	-4.1825934	-8.880849	23.02145244	-10.34762148	-28.8770832
5.61	561	-0.19	-0.309	-0.956	-1.8334656	-5.9587632	-7.0473834	23.01572286	-10.37626938	-28.96875648
5.62	562	-0.205	-0.306	-0.946	-2.4064236	-7.6203414	-5.72958	23.00999328	-10.42210602	-29.05470018
5.63	563	-0.213	-0.297	-0.943	-2.8074942	-8.5370742	-4.6409598	22.99280454	-10.47940182	-29.1349143
5.64	564	-0.22	-0.286	-0.942	-2.6929026	-9.167328	-3.4950438	22.98134538	-10.54815678	-29.20366926
5.65	565	-0.231	-0.276	-0.938	-2.578311	-9.6256944	-2.578311	22.91259042	-10.65128922	-29.26096506
5.66	566	-0.244	-0.266	-0.929	-2.4637194	-9.6829902	-1.8334656	22.89540168	-10.73150334	-29.31826086
5.67	567	-0.25	-0.258	-0.92	-1.8334656	-10.3705398	-0.859437	22.8896721	-10.82317662	-29.36982708
5.68	568	-0.255	-0.253	-0.918	-0.2291832	-11.172681	0.1145916	22.89540168	-10.92630906	-29.41566372
5.69	569	-0.261	-0.253	-0.925	0.5156622	-10.7143146	0.6875496	22.91259042	-11.02371192	-29.4500412
5.7	570	-0.263	-0.253	-0.925	0.9740286	-9.6256944	0.859437	22.84383546	-11.16122184	-29.46722994
5.71	571	-0.268	-0.255	-0.914	1.4896908	-8.7662574	0.9167328	22.86675378	-11.24143596	-29.49587784
5.72	572	-0.271	-0.257	-0.913	1.8334656	-8.0787078	0.7448454	22.89540168	-11.3159205	-29.52452574
5.73	573	-0.276	-0.255	-0.914	2.1772404	-7.448454	0.6302538	22.92404958	-11.38467546	-29.54744406
5.74	574	-0.277	-0.254	-0.916	1.8907614	-5.9587632	0.6302538	22.9469679	-11.44197126	-29.5646328
5.75	575	-0.264	-0.244	-0.923	1.8334656	-2.8074942	0.5156622	22.75216218	-11.56802202	-29.53025532
5.76	576	-0.258	-0.235	-0.929	2.9793816	-1.8907614	0.7448454	22.78081008	-11.58521076	-29.53025532
5.77	577	-0.254	-0.238	-0.936	4.1825934	-1.0886202	0.9740286	22.82091714	-11.59666992	-29.52452574
5.78	578	-0.251	-0.245	-0.94	4.0680018	0.1718874	1.0313244	22.8610242	-11.6023995	-29.51306658
5.79	579	-0.248	-0.249	-0.931	4.297185	1.8907614	0.8021412	22.90113126	-11.58521076	-29.50160742
5.8	580	-0.239	-0.25	-0.928	4.3544808	3.0366774	0.5156622	22.82664672	-11.59094034	-29.46150036
5.81	581	-0.23	-0.253	-0.931	4.297185	3.8961144	0.3437748	22.86675378	-11.55656286	-29.43858204
5.82	582	-0.222	-0.254	-0.936	4.0680018	4.7555514	0.572958	22.90113126	-11.5164558	-29.41566372
5.83	583	-0.211	-0.255	-0.943	3.8388186	5.6149884	0.859437	22.93550874	-11.47061916	-29.38128624
5.84	584	-0.198	-0.253	-0.943	3.8388186	6.016059	1.2032118	22.96415664	-11.41905294	-29.34690876
5.85	585	-0.191	-0.253	-0.94	3.6096354	6.1306506	1.432395	22.90686084	-11.36748672	-29.28961296
5.86	586	-0.185	-0.253	-0.944	3.437748	6.1306506	1.4896908	22.92977916	-11.32165008	-29.2495059
5.87	587	-0.183	-0.255	-0.949	3.724227	5.8441716	1.6042824	22.96415664	-11.27008386	-29.20939884
5.88	588	-0.182	-0.257	-0.944	3.8388186	5.2139178	1.4896908	22.99280454	-11.2299768	-29.17502136
5.89	589	-0.179	-0.258	-0.944	3.6096354	4.7555514	1.3750992	23.02145244	-11.18986974	-29.14064388
5.9	590	-0.17	-0.26	-0.936	3.724227	4.3544808	1.3178034	22.95269748	-11.14976268	-29.08907766
5.91	591	-0.166	-0.263	-0.933	3.6096354	4.0680018	1.2605076	22.98707496	-11.1153852	-29.06042976
5.92	592	-0.161	-0.263	-0.935	3.437748	3.0366774	1.2605076	23.01572286	-11.09246688	-29.03751144
5.93	593	-0.158	-0.259	-0.936	3.2085648	2.0626488	1.2032118	23.04437076	-11.08100772	-29.0203227
5.94	594	-0.157	-0.256	-0.938	2.9793816	1.9480572	1.0886202	23.07301866	-11.06381898	-28.99740438
5.95	595	-0.155	-0.257	-0.942	2.9793816	2.1772404	0.859437	22.94123832	-11.01798234	-28.95156774
5.96	596	-0.154	-0.261	-0.949	2.8074942	2.3491278	0.6302538	22.96415664	-11.0007936	-28.934379
5.97	597	-0.153	-0.261	-0.95	2.7501984	2.8074942	0.4010706	22.99280454	-10.97787528	-28.92291984
5.98	598	-0.153	-0.263	-0.948	2.7501984	2.6929026	0.1718874	23.01572286	-10.94922738	-28.9057311
5.99	599	-0.15	-0.265	-0.947	2.6929026	2.2345362	0	23.04437076	-10.93203864	-28.90000152
6	600	-0.147	-0.262	-0.943	2.8074942	1.6042824	-0.286479	22.86675378	-10.86901326	-28.85989446
6.01	601	-0.148	-0.26	-0.935	2.4637194	0.859437	-0.6875496	22.89540168	-10.8575541	-28.85989446
6.02	602	-0.148	-0.261	-0.931	2.1199446	0.0572958	-0.9167328	22.91832	-10.8575541	-28.87135362
6.03	603	-0.147	-0.26	-0.93	2.1199446	-0.6302538	-1.0886202	22.94123832	-10.8575541	-28.88281278
6.04	604	-0.152	-0.261	-0.933	2.3491278	-1.5469866	-1.145916	22.96988622	-10.86328368	-28.90000152
6.05	605	-0.161	-0.26	-0.939	2.291832	-2.0626488	-1.145916	22.8323763	-10.86328368	-28.88854236
6.06	606	-0.168	-0.258	-0.942	2.3491278	-2.1772404	-1.145916	22.8610242	-10.88047242	-28.91146068
6.07	607	-0.175	-0.256	-0.945	2.2345362	-2.005353	-1.145916	22.88394252	-10.89193158	-28.92864942
6.08	608	-0.178	-0.256	-0.944	2.4064236	-2.1199446	-1.0886202	22.91832	-10.90339074	-28.95156774
6.09	609	-0.18	-0.262	-0.941	2.3491278	-2.291832	-1.145916	22.94123832	-10.92057948	-28.96875648
6.1	610	-0.181	-0.267	-0.939	2.2345362	-2.291832	-1.0886202	22.82664672	-10.93776822	-28.9630269
6.11	611	-0.187	-0.271	-0.937	1.7761698	-2.6929026	-1.0886202	22.84956504	-10.95495696	-28.98594522
6.12	612	-0.191	-0.27	-0.933	1.4896908	-2.7501984	-0.9740286	22.86675378	-10.97787528	-29.00313396
6.13	613	-0.193	-0.265	-0.933	1.3178034	-2.6929026	-0.859437	22.88394252	-10.99506402	-29.02605228
6.14	614	-0.196	-0.258	-0.929	1.5469866	-2.5210152	-0.7448454	22.90686084	-11.01798234	-29.04324102
6.15	615	-0.202	-0.253	-0.933	1.6615782	-2.291832	-0.7448454	22.72351428	-11.06381898	-29.0203227
6.16	616	-0.205	-0.251	-0.933	1.7761698	-1.9480572	-0.5156622	22.74070302	-11.07527814	-29.03751144
6.17	617	-0.209	-0.25	-0.931	1.7761698	-1.718874	-0.3437748	22.76362134	-11.09246688	-29.0489706
6.18	618	-0.211	-0.256	-0.931	1.9480572	-1.5469866	-0.2291832	22.78653966	-11.10392604	-29.05470018
6.19	619	-0.209	-0.26	-0.93	1.7761698	-1.5469866	-0.2291832	22.8037284	-11.1153852	-29.06615934
6.2	620	-0.205	-0.263	-0.935	1.6615782	-1.6615782	0	22.52870856	-11.16695142	-29.01459312
6.21	621	-0.2	-0.263	-0.933	1.4896908	-1.3178034	0.1718874	22.5458973	-11.18414016	-29.0203227
6.22	622	-0.204	-0.258	-0.93	1.3750992	-0.6875496	0.286479	22.56308604	-11.18986974	-29.0203227
6.23	623	-0.204	-0.258	-0.931	1.8907614	-0.6875496	0.3437748	22.58027478	-11.19559932	-29.0203227
6.24	624	-0.205	-0.258	-0.936	2.4064236	-0.4010706	0.3437748	22.6031931	-11.2013289	-29.0203227
6.25	625	-0.205	-0.258	-0.939	2.5210152	-0.1718874	0.2291832	22.345362	-11.24143596	-28.9630269
6.26	626	-0.205	-0.259	-0.941	2.8074942	-0.1718874	0.1145916	22.3740099	-11.24143596	-28.9630269
6.27	627	-0.203	-0.26	-0.942	2.86479	-0.1718874	0.0572958	22.4026578	-11.24716554	-28.9630269
6.28	628	-0.201	-0.258	-0.942	2.7501984	-0.2291832	0.0572958	22.4313057	-11.24716554	-28.9630269
6.29	629	-0.199	-0.256	-0.942	2.6929026	0	0.1718874	22.4599536	-11.24716554	-28.9630269
6.3	630	-0.196	-0.254	-0.944	2.9793816	0.1145916	0.2291832	22.22504082	-11.2586247	-28.9057311
6.31	631	-0.193	-0.254	-0.943	2.9793816	0.1145916	0.3437748	22.25368872	-11.2586247	-28.9057311
6.32	632	-0.188	-0.253	-0.941	2.4637194	0.5156622	0.4583664	22.27660704	-11.25289512	-28.90000152
6.33	633	-0.185	-0.251	-0.938	2.3491278	0.572958	0.4010706	22.29952536	-11.25289512	-28.88854236
6.34	634	-0.184	-0.254	-0.938	2.4064236	0.6875496	0.3437748	22.32244368	-11.24716554	-28.88281278
6.35	635	-0.185	-0.255	-0.94	2.3491278	1.2032118	0.286479	22.13336754	-11.2299768	-28.83697614
6.36	636	-0.186	-0.255	-0.942	2.1199446	1.2032118	0.2291832	22.15055628	-11.22424722	-28.82551698
6.37	637	-0.183	-0.255	-0.942	2.291832	1.0313244	0.2291832	22.1734746	-11.21278806	-28.8197874
6.38	638	-0.181	-0.254	-0.939	2.578311	0.7448454	0.2291832	22.2021225	-11.20705848	-28.81405782
6.39	639	-0.177	-0.253	-0.941	2.7501984	0.5156622	0.286479	22.22504082	-11.2013289	-28.80832824
6.4	640	-0.178	-0.255	-0.94	2.7501984	0.8021412	0.1145916	22.05315342	-11.18414016	-28.76822118
6.41	641	-0.177	-0.26	-0.935	2.86479	0.859437	-0.0572958	22.08180132	-11.17841058	-28.7624916
6.42	642	-0.175	-0.262	-0.936	2.7501984	0.6875496	-0.1145916	22.11044922	-11.16695142	-28.7624916
6.43	643	-0.173	-0.263	-0.938	2.8074942	0.6875496	-0.1718874	22.13909712	-11.16122184	-28.7624916
6.44	644	-0.174	-0.266	-0.937	2.291832	0.9167328	-0.3437748	22.16201544	-11.14976268	-28.7624916
6.45	645	-0.177	-0.265	-0.934	2.005353	1.0886202	-0.4583664	21.96148014	-11.12684436	-28.72238454
6.46	646	-0.176	-0.265	-0.932	1.9480572	0.8021412	-0.4583664	21.98439846	-11.12111478	-28.72238454
6.47	647	-0.172	-0.268	-0.938	1.8907614	0.6875496	-0.3437748	22.0015872	-11.10965562	-28.72238454
6.48	648	-0.17	-0.266	-0.942	1.8334656	0.6302538	-0.286479	22.01877594	-11.10392604	-28.72238454
6.49	649	-0.176	-0.266	-0.943	1.7761698	0.4583664	-0.4583664	22.04169426	-11.09819646	-28.72811412
6.5	650	-0.181	-0.265	-0.942	1.8334656	0.1718874	-0.4010706	21.76094484	-11.0867373	-28.67081832
6.51	651	-0.184	-0.264	-0.94	1.718874	0.1718874	-0.4583664	21.78386316	-11.08100772	-28.6765479
6.52	652	-0.187	-0.263	-0.943	1.3178034	1.2032118	-0.6875496	21.79532232	-11.06381898	-28.6765479
6.53	653	-0.188	-0.262	-0.943	1.0313244	2.291832	-0.9167328	21.80678148	-11.04090066	-28.6765479
6.54	654	-0.187	-0.259	-0.946	0.8021412	2.6929026	-1.0313244	21.81251106	-11.01225276	-28.6765479
6.55	655	-0.188	-0.256	-0.947	0.6875496	2.578311	-0.9167328	21.61197576	-10.99506402	-28.63644084
6.56	656	-0.188	-0.255	-0.945	0.9167328	1.8334656	-0.572958	21.62343492	-10.9721457	-28.63644084
6.57	657	-0.186	-0.253	-0.939	1.2605076	1.0313244	-0.3437748	21.63489408	-10.96068654	-28.63644084
6.58	658	-0.186	-0.252	-0.934	1.718874	0	-0.0572958	21.65208282	-10.96068654	-28.63644084
6.59	659	-0.187	-0.251	-0.932	2.0626488	-0.6302538	0	21.67500114	-10.96641612	-28.63644084
6.6	660	-0.188	-0.253	-0.932	2.1772404	-0.572958	0	21.43435878	-10.98360486	-28.5906042
6.61	661	-0.186	-0.253	-0.933	1.8334656	-0.2291832	-0.0572958	21.45154752	-10.98360486	-28.59633378
6.62	662	-0.185	-0.252	-0.932	2.005353	-0.286479	-0.1145916	21.47446584	-10.98360486	-28.59633378
6.63	663	-0.187	-0.251	-0.933	2.2345362	-0.2291832	-0.1718874	21.49738416	-10.98933444	-28.60206336
6.64	664	-0.185	-0.252	-0.93	2.5210152	0	-0.1718874	21.52603206	-10.98933444	-28.60206336
6.65	665	-0.187	-0.251	-0.929	2.8074942	-0.1718874	-0.2291832	21.3426855	-10.99506402	-28.56768588
6.66	666	-0.187	-0.254	-0.931	3.0939732	-0.0572958	-0.2291832	21.3713334	-10.99506402	-28.56768588
6.67	667	-0.186	-0.256	-0.937	2.9220858	0	-0.286479	21.40571088	-10.99506402	-28.57341546
6.68	668	-0.187	-0.257	-0.941	3.0366774	0.4583664	-0.1718874	21.43435878	-10.98933444	-28.57341546
6.69	669	-0.186	-0.257	-0.942	3.151269	0.572958	-0.2291832	21.46300668	-10.98360486	-28.57341546
6.7	670	-0.188	-0.258	-0.942	3.0939732	0.572958	-0.3437748	21.30830802	-10.97787528	-28.53903798
6.71	671	-0.186	-0.26	-0.944	3.0366774	0.3437748	-0.1718874	21.33695592	-10.97787528	-28.53903798
6.72	672	-0.186	-0.259	-0.938	2.6929026	-0.0572958	-0.1145916	21.36560382	-10.97787528	-28.53903798
6.73	673	-0.185	-0.264	-0.936	2.5210152	0	-0.286479	21.39425172	-10.9721457	-28.54476756
6.74	674	-0.181	-0.264	-0.939	2.4064236	-0.1718874	-0.2291832	21.41717004	-10.9721457	-28.55049714
6.75	675	-0.177	-0.263	-0.943	2.1772404	-0.3437748	0	21.16506852	-10.96068654	-28.49893092
6.76	676	-0.177	-0.26	-0.94	1.9480572	-0.1718874	0.2291832	21.18225726	-10.96068654	-28.49320134
6.77	677	-0.179	-0.257	-0.938	1.8334656	-0.1718874	0.3437748	21.20517558	-10.96641612	-28.49320134
6.78	678	-0.174	-0.255	-0.934	2.1772404	-0.286479	0.286479	21.22236432	-10.96641612	-28.49320134
6.79	679	-0.171	-0.257	-0.937	2.3491278	-0.2291832	0.3437748	21.25101222	-10.9721457	-28.48747176
6.8	680	-0.172	-0.256	-0.939	2.5210152	-0.0572958	0.2291832	21.01609944	-10.95495696	-28.43590554
6.81	681	-0.176	-0.256	-0.941	2.578311	0.1718874	0.1718874	21.04474734	-10.94922738	-28.43590554
6.82	682	-0.18	-0.258	-0.942	2.6356068	0.2291832	0.0572958	21.06766566	-10.94922738	-28.43590554
6.83	683	-0.182	-0.258	-0.942	2.5210152	0.286479	0	21.09631356	-10.9434978	-28.43017596
6.84	684	-0.18	-0.256	-0.944	2.6356068	0.2291832	0	21.11923188	-10.9434978	-28.43017596
6.85	685	-0.181	-0.256	-0.943	2.4064236	0.1145916	0.0572958	20.87285994	-10.93776822	-28.37860974
6.86	686	-0.179	-0.255	-0.944	2.1772404	-0.0572958	0.0572958	20.89577826	-10.93776822	-28.37860974
6.87	687	-0.181	-0.253	-0.938	2.2345362	-0.1718874	0.0572958	20.91869658	-10.93776822	-28.37860974
6.88	688	-0.18	-0.257	-0.94	2.0626488	-0.2291832	-0.1718874	20.93588532	-10.9434978	-28.38433932
6.89	689	-0.178	-0.259	-0.938	2.1199446	-0.286479	-0.2291832	20.95880364	-10.9434978	-28.38433932
6.9	690	-0.177	-0.258	-0.94	2.1772404	-0.5156622	-0.2291832	20.78118666	-10.93776822	-28.34996184
6.91	691	-0.18	-0.257	-0.94	2.2345362	-1.0313244	-0.1718874	20.80410498	-10.94922738	-28.35569142
6.92	692	-0.18	-0.255	-0.941	2.3491278	-0.859437	-0.2291832	20.83275288	-10.95495696	-28.361421
6.93	693	-0.18	-0.254	-0.94	2.578311	-0.6302538	-0.1718874	20.8556712	-10.96068654	-28.36715058
6.94	694	-0.183	-0.252	-0.942	2.86479	-0.6302538	-0.1145916	20.89004868	-10.96641612	-28.37288016
6.95	695	-0.186	-0.254	-0.94	3.0366774	-0.6302538	-0.0572958	20.7410796	-10.97787528	-28.34423226
6.96	696	-0.185	-0.259	-0.941	2.9220858	-0.4583664	-0.2291832	20.7697275	-10.97787528	-28.34996184
6.97	697	-0.184	-0.262	-0.938	2.8074942	-0.572958	-0.3437748	20.7983754	-10.98360486	-28.35569142
6.98	698	-0.183	-0.262	-0.936	2.6356068	-0.6302538	-0.3437748	20.8270233	-10.98933444	-28.361421
6.99	699	-0.181	-0.263	-0.934	-0.0572958	-0.4010706	-0.3437748	20.8270233	-10.98933444	-28.36715058
7	700	-0.181	-0.263	-0.93	-0.1718874	-0.6302538	-0.3437748	20.28844278	-10.98933444	-28.26974772
7.01	701	-0.18	-0.261	-0.93	-0.1718874	-0.859437	-0.286479	20.28844278	-11.0007936	-28.2754773
7.02	702	-0.178	-0.261	-0.932	-0.2291832	-0.572958	-0.286479	20.2827132	-11.0007936	-28.28120688
7.03	703	-0.178	-0.259	-0.935	-0.1718874	-0.3437748	-0.1718874	20.2827132	-11.00652318	-28.28693646
7.04	704	-0.18	-0.26	-0.936	0.4583664	-0.286479	-0.1145916	20.28844278	-11.00652318	-28.28693646
7.05	705	-0.183	-0.261	-0.939	0.286479	-0.286479	-0.0572958	19.5665157	-11.01225276	-28.15515612
7.06	706	-0.184	-0.26	-0.941	0.3437748	-0.2291832	0	19.5665157	-11.01225276	-28.15515612
7.07	707	-0.184	-0.259	-0.939	0.3437748	-0.0572958	0	19.57224528	-11.01798234	-28.15515612
7.08	708	-0.184	-0.259	-0.94	0.4010706	-0.0572958	0	19.57797486	-11.01798234	-28.15515612
7.09	709	-0.182	-0.258	-0.94	0.3437748	0	0	19.58370444	-11.01798234	-28.15515612
7.1	710	-0.182	-0.257	-0.941	0.286479	0.1145916	0	18.71280828	-10.98360486	-27.9889983
7.11	711	-0.182	-0.255	-0.94	0.3437748	0.1145916	0	18.71280828	-10.97787528	-27.9889983
7.12	712	-0.18	-0.255	-0.938	0.286479	0.1145916	0.1718874	18.71853786	-10.97787528	-27.98326872
7.13	713	-0.178	-0.256	-0.939	0.4010706	0	0.286479	18.72426744	-10.97787528	-27.98326872
7.14	714	-0.18	-0.258	-0.936	0.286479	-0.1718874	0.286479	18.72426744	-10.98360486	-27.98326872
7.15	715	-0.18	-0.26	-0.938	0.0572958	-0.3437748	0.4010706	18.31746726	-10.9721457	-27.9030546
7.16	716	-0.181	-0.261	-0.937	-0.0572958	-0.2291832	0.3437748	18.31173768	-10.97787528	-27.89732502
7.17	717	-0.18	-0.259	-0.934	-0.2291832	0.0572958	0.1145916	18.31173768	-10.97787528	-27.89732502
7.18	718	-0.184	-0.258	-0.937	-0.1718874	0.1718874	0.1145916	18.31173768	-10.9721457	-27.89159544
7.19	719	-0.184	-0.256	-0.935	-0.1718874	0.2291832	0	18.3060081	-10.9721457	-27.89159544
7.2	720	-0.185	-0.258	-0.937	-0.1145916	0.572958	0	17.96796288	-10.9721457	-27.82857006
7.21	721	-0.185	-0.261	-0.937	-0.1718874	0.9740286	-0.1145916	17.96796288	-10.96641612	-27.82857006
7.22	722	-0.183	-0.262	-0.943	-0.4010706	0.9740286	-0.2291832	17.9622333	-10.95495696	-27.82857006
7.23	723	-0.181	-0.262	-0.949	-0.1718874	0.8021412	-0.0572958	17.95650372	-10.9434978	-27.82284048
7.24	724	-0.18	-0.258	-0.951	0.1145916	0.6875496	0	17.9622333	-10.93776822	-27.82284048
7.25	725	-0.179	-0.26	-0.948	0.286479	0.8021412	0	17.71013178	-10.90912032	-27.77127426
7.26	726	-0.178	-0.261	-0.943	0	0.6875496	0	17.7044022	-10.89766116	-27.76554468
7.27	727	-0.177	-0.258	-0.937	-0.3437748	0.3437748	0	17.7044022	-10.89766116	-27.76554468
7.28	728	-0.18	-0.259	-0.932	-0.3437748	0.2291832	-0.1145916	17.69867262	-10.89193158	-27.76554468
7.29	729	-0.183	-0.26	-0.931	-0.4583664	0.0572958	-0.1145916	17.69294304	-10.89193158	-27.76554468
7.3	730	-0.184	-0.261	-0.933	-0.3437748	-0.2291832	0	17.4179232	-10.89766116	-27.71970804
7.31	731	-0.183	-0.26	-0.93	-0.4010706	-0.286479	0.1145916	17.4179232	-10.90339074	-27.71970804
7.32	732	-0.184	-0.26	-0.928	-0.3437748	-0.286479	0.2291832	17.41219362	-10.90912032	-27.71970804
7.33	733	-0.178	-0.26	-0.931	-0.2291832	-0.6875496	0.3437748	17.40646404	-10.9148499	-27.71397846
7.34	734	-0.175	-0.261	-0.94	-0.1718874	-0.5156622	0.3437748	17.40646404	-10.92057948	-27.71397846
7.35	735	-0.177	-0.263	-0.943	-0.1718874	-0.1145916	0.1145916	16.8449652	-10.85182452	-27.59938686
7.36	736	-0.184	-0.263	-0.942	-0.286479	0.1718874	-0.0572958	16.8449652	-10.85182452	-27.59938686
7.37	737	-0.186	-0.264	-0.943	-0.3437748	0.0572958	-0.1145916	16.83923562	-10.85182452	-27.60511644
7.38	738	-0.184	-0.261	-0.94	-0.286479	0.0572958	-0.0572958	16.83350604	-10.85182452	-27.60511644
7.39	739	-0.183	-0.259	-0.939	-0.4010706	0.1145916	0	16.83350604	-10.84609494	-27.60511644
7.4	740	-0.181	-0.258	-0.938	-0.572958	0.286479	0	16.61005242	-10.84036536	-27.5592798
7.41	741	-0.18	-0.255	-0.936	-0.6302538	0.0572958	0	16.59859326	-10.84036536	-27.5592798
7.42	742	-0.182	-0.251	-0.936	-0.4010706	-0.3437748	0.1145916	16.59859326	-10.84609494	-27.5592798
7.43	743	-0.182	-0.25	-0.938	-0.1145916	-0.4010706	0.1718874	16.59286368	-10.84609494	-27.5592798
7.44	744	-0.18	-0.253	-0.939	0	-0.286479	0.1145916	16.59286368	-10.85182452	-27.5592798
7.45	745	-0.181	-0.256	-0.941	0	-0.4583664	0.1145916	16.37513964	-10.84609494	-27.51917274
7.46	746	-0.18	-0.26	-0.939	0.0572958	-0.6302538	0.1145916	16.37513964	-10.85182452	-27.51917274
7.47	747	-0.18	-0.263	-0.94	0	-0.4010706	0.0572958	16.37513964	-10.85182452	-27.51917274
7.48	748	-0.177	-0.262	-0.943	0.0572958	-0.0572958	0	16.37513964	-10.8575541	-27.51917274
7.49	749	-0.179	-0.261	-0.94	0	0	0.1145916	16.37513964	-10.8575541	-27.51917274
7.5	750	-0.183	-0.259	-0.94	0.0572958	-0.1145916	0	16.08866064	-10.86328368	-27.46760652
7.51	751	-0.185	-0.262	-0.939	0	0	-0.1145916	16.08866064	-10.86328368	-27.4733361
7.52	752	-0.185	-0.261	-0.937	-0.1145916	0.1145916	-0.286479	16.08866064	-10.8575541	-27.4733361
7.53	753	-0.184	-0.258	-0.935	-0.2291832	0.1718874	-0.2291832	16.08293106	-10.8575541	-27.4733361
7.54	754	-0.183	-0.26	-0.935	-0.4583664	0.1718874	-0.286479	16.08293106	-10.85182452	-27.47906568
7.55	755	-0.184	-0.26	-0.935	-0.4010706	-0.0572958	-0.1145916	15.94542114	-10.8575541	-27.45614736
7.56	756	-0.178	-0.26	-0.934	-0.2291832	-0.3437748	-0.0572958	15.94542114	-10.86328368	-27.45614736
7.57	757	-0.176	-0.261	-0.935	0	-0.5156622	0	15.94542114	-10.86901326	-27.46187694
7.58	758	-0.176	-0.261	-0.939	0.0572958	-0.2291832	0.0572958	15.94542114	-10.86901326	-27.46187694
7.59	759	-0.181	-0.261	-0.941	0.2291832	-0.1718874	0	15.95115072	-10.86901326	-27.46187694
7.6	760	-0.184	-0.26	-0.943	0.1718874	0.1718874	-0.0572958	15.8136408	-10.88047242	-27.43895862
7.61	761	-0.183	-0.261	-0.942	0.1718874	0.3437748	-0.1145916	15.8136408	-10.87474284	-27.43895862
7.62	762	-0.183	-0.261	-0.941	0.286479	0.4583664	0	15.8136408	-10.86901326	-27.43322904
7.63	763	-0.18	-0.261	-0.942	0.2291832	0.0572958	0.0572958	15.81937038	-10.86901326	-27.43322904
7.64	764	-0.18	-0.26	-0.94	0.1145916	-0.1145916	0.1145916	15.81937038	-10.87474284	-27.43322904
7.65	765	-0.181	-0.258	-0.939	0.0572958	0	0.0572958	15.60164634	-10.8575541	-27.39312198
7.66	766	-0.182	-0.257	-0.938	-0.0572958	0.0572958	0	15.60164634	-10.8575541	-27.39312198
7.67	767	-0.183	-0.255	-0.937	-0.1145916	0.3437748	0	15.59591676	-10.8575541	-27.3873924
7.68	768	-0.182	-0.253	-0.938	0	0.4010706	0	15.59591676	-10.85182452	-27.3873924
7.69	769	-0.183	-0.256	-0.936	0.0572958	0.3437748	0.0572958	15.60164634	-10.84609494	-27.3873924
7.7	770	-0.18	-0.257	-0.936	0.0572958	-0.1145916	0.1145916	15.469866	-10.83463578	-27.3587445
7.71	771	-0.18	-0.258	-0.934	0	-0.4010706	0.1145916	15.469866	-10.83463578	-27.3587445
7.72	772	-0.18	-0.257	-0.934	0	-0.4010706	0.1145916	15.469866	-10.84036536	-27.3587445
7.73	773	-0.183	-0.257	-0.938	0.1718874	-0.4010706	0.0572958	15.469866	-10.84609494	-27.3587445
7.74	774	-0.183	-0.259	-0.94	0	-0.2291832	0	15.469866	-10.84609494	-27.3587445
7.75	775	-0.182	-0.257	-0.939	0	0.1145916	-0.0572958	15.31516734	-10.8575541	-27.33582618
7.76	776	-0.182	-0.258	-0.936	0.1718874	0.1145916	-0.1718874	15.32089692	-10.85182452	-27.33582618
7.77	777	-0.181	-0.259	-0.937	0.3437748	0.4010706	-0.3437748	15.32089692	-10.85182452	-27.34155576
7.78	778	-0.182	-0.262	-0.937	0.3437748	0.4583664	-0.2291832	15.3266265	-10.84609494	-27.34155576
7.79	779	-0.182	-0.262	-0.938	0.1145916	0.2291832	-0.2291832	15.3266265	-10.84036536	-27.34155576
7.8	780	-0.184	-0.263	-0.941	0.1145916	0.2291832	-0.1718874	15.25787154	-10.84609494	-27.33582618
7.81	781	-0.185	-0.261	-0.942	0.3437748	0.286479	-0.1718874	15.26360112	-10.84609494	-27.33582618
7.82	782	-0.184	-0.262	-0.943	0.1718874	0.4583664	-0.1718874	15.26360112	-10.84036536	-27.33582618
7.83	783	-0.18	-0.263	-0.941	0.1145916	0.4583664	-0.0572958	15.26360112	-10.83463578	-27.33582618
7.84	784	-0.18	-0.261	-0.939	-0.1145916	0.1145916	0.1145916	15.26360112	-10.83463578	-27.33582618
7.85	785	-0.181	-0.262	-0.938	-0.6302538	0.286479	0	15.21776448	-10.8289062	-27.32436702
7.86	786	-0.18	-0.261	-0.938	-0.572958	0.1145916	0	15.2120349	-10.82317662	-27.32436702
7.87	787	-0.18	-0.259	-0.937	-0.572958	-0.3437748	0.1145916	15.20630532	-10.8289062	-27.32436702
7.88	788	-0.183	-0.258	-0.928	-0.572958	-0.4583664	0.2291832	15.20057574	-10.83463578	-27.32436702
7.89	789	-0.181	-0.258	-0.928	-0.572958	-0.3437748	0.2291832	15.19484616	-10.84036536	-27.31863744
7.9	790	-0.175	-0.257	-0.93	-0.4583664	-0.5156622	0.286479	15.14900952	-10.83463578	-27.30717828
7.91	791	-0.178	-0.258	-0.935	-0.3437748	-0.1718874	0.2291832	15.14327994	-10.83463578	-27.30717828
7.92	792	-0.183	-0.258	-0.939	-0.1718874	0.2291832	0	15.14327994	-10.83463578	-27.30717828
7.93	793	-0.184	-0.26	-0.945	0	0.4583664	0	15.13755036	-10.8289062	-27.30717828
7.94	794	-0.186	-0.261	-0.945	0.0572958	0.572958	-0.0572958	15.14327994	-10.82317662	-27.3014487
7.95	795	-0.185	-0.262	-0.945	0	0.9167328	-0.1145916	15.10890246	-10.81744704	-27.29571912
7.96	796	-0.183	-0.259	-0.945	0	0.9167328	-0.1718874	15.10890246	-10.80598788	-27.29571912
7.97	797	-0.18	-0.257	-0.943	-0.0572958	0.4583664	0	15.10890246	-10.80598788	-27.29571912
7.98	798	-0.179	-0.254	-0.942	-0.1145916	0.0572958	0	15.10317288	-10.8002583	-27.29571912
7.99	799	-0.178	-0.253	-0.942	-0.286479	-0.1145916	0	15.10317288	-10.80598788	-27.29571912
8	800	-0.178	-0.252	-0.937	-0.2291832	-0.286479	0	14.97139254	-10.78879914	-27.26707122
8.01	801	-0.178	-0.254	-0.936	0.0572958	-0.286479	0	14.97139254	-10.79452872	-27.26707122
8.02	802	-0.18	-0.254	-0.936	0.1718874	-0.1718874	0	14.97139254	-10.79452872	-27.2728008
8.03	803	-0.183	-0.257	-0.94	0.2291832	-0.3437748	-0.0572958	14.97712212	-10.79452872	-27.2728008
8.04	804	-0.181	-0.259	-0.941	0	-0.2291832	-0.1718874	14.97712212	-10.8002583	-27.2728008
8.05	805	-0.179	-0.26	-0.94	-0.0572958	-0.2291832	-0.0572958	14.8682601	-10.77733998	-27.25561206
8.06	806	-0.178	-0.259	-0.938	0.1145916	-0.3437748	0.0572958	14.87398968	-10.77733998	-27.25561206
8.07	807	-0.181	-0.259	-0.936	0.1145916	-0.2291832	-0.0572958	14.87398968	-10.78306956	-27.25561206
8.08	808	-0.18	-0.264	-0.935	-0.0572958	-0.4010706	-0.1145916	14.87398968	-10.78306956	-27.25561206
8.09	809	-0.179	-0.263	-0.937	-0.2291832	-0.4010706	-0.2291832	14.87398968	-10.78879914	-27.26134164
8.1	810	-0.179	-0.257	-0.934	-0.286479	-0.1718874	-0.1718874	14.8109643	-10.78879914	-27.25561206
8.11	811	-0.18	-0.259	-0.934	-0.286479	-0.1145916	-0.1718874	14.80523472	-10.78879914	-27.25561206
8.12	812	-0.18	-0.26	-0.937	-0.5156622	0	-0.1145916	14.80523472	-10.78879914	-27.25561206
8.13	813	-0.18	-0.259	-0.935	-0.4010706	0	0	14.79950514	-10.78879914	-27.25561206
8.14	814	-0.179	-0.259	-0.938	-0.1145916	-0.0572958	0.1718874	14.79950514	-10.78879914	-27.25561206
8.15	815	-0.179	-0.257	-0.942	0.0572958	-0.2291832	0.3437748	14.75939808	-10.78306956	-27.2441529
8.16	816	-0.18	-0.257	-0.943	0.572958	-0.572958	0.4583664	14.76512766	-10.78879914	-27.2441529
8.17	817	-0.183	-0.26	-0.943	0.6302538	-0.859437	0.1718874	14.77658682	-10.8002583	-27.2441529
8.18	818	-0.184	-0.261	-0.944	0.4583664	-0.572958	0	14.77658682	-10.80598788	-27.2441529
8.19	819	-0.186	-0.261	-0.944	0.4583664	-0.286479	-0.286479	14.7823164	-10.80598788	-27.24988248
8.2	820	-0.187	-0.261	-0.943	0.4583664	-0.3437748	-0.4583664	14.77085724	-10.81744704	-27.24988248
8.21	821	-0.187	-0.262	-0.942	0.2291832	-0.2291832	-0.6302538	14.77658682	-10.81744704	-27.26134164
8.22	822	-0.186	-0.258	-0.939	0.1145916	0.1145916	-0.7448454	14.77658682	-10.81744704	-27.26707122
8.23	823	-0.189	-0.255	-0.936	0	0.1145916	-0.8021412	14.77658682	-10.81171746	-27.2728008
8.24	824	-0.188	-0.252	-0.934	0.1145916	0.4583664	-0.8021412	14.7823164	-10.80598788	-27.27853038
8.25	825	-0.187	-0.252	-0.932	0.2291832	0.8021412	-0.6875496	14.75939808	-10.80598788	-27.28425996
8.26	826	-0.183	-0.25	-0.936	0.2291832	0.6302538	-0.6302538	14.76512766	-10.8002583	-27.28425996
8.27	827	-0.181	-0.249	-0.941	0.286479	0.4010706	-0.572958	14.77085724	-10.79452872	-27.28998954
8.28	828	-0.177	-0.248	-0.944	0.572958	0.1145916	-0.4583664	14.77658682	-10.78879914	-27.29571912
8.29	829	-0.175	-0.248	-0.944	0.9167328	-0.0572958	-0.4010706	14.78804598	-10.78879914	-27.3014487
8.3	830	-0.177	-0.253	-0.943	1.3178034	-0.6875496	-0.3437748	14.7823164	-10.78879914	-27.3014487
