TimeStamp(s)	FrameCounter	AccX	AccY	AccZ	GyrX	GyrY	GyrZ	EulerX	EulerY	EulerZ
0.01	1	-0.016	-0.986	0.184	-1.432395	-0.6875496	-0.1145916	99.80355402	-0.16042824	-25.57111554
0.02	2	-0.012	-0.985	0.187	-1.145916	-0.6875496	-0.1718874	99.79209486	-0.16042824	-25.57684512
0.03	3	-0.011	-0.987	0.19	-0.859437	-0.7448454	0	99.7806357	-0.16042824	-25.5825747
0.04	4	-0.012	-0.99	0.192	-0.9740286	-0.9167328	0.0572958	99.76917654	-0.15469866	-25.59403386
0.05	5	-0.013	-0.99	0.196	-0.9740286	-0.8021412	0.1145916	99.77490612	-0.16615782	-25.59403386
0.06	6	-0.014	-0.989	0.197	-1.0886202	-0.4010706	0.1718874	99.76344696	-0.1718874	-25.59976344
0.07	7	-0.016	-0.99	0.198	-1.2605076	0	0.286479	99.7519878	-0.1718874	-25.59976344
0.08	8	-0.018	-0.991	0.2	-1.2605076	0.3437748	0.286479	99.73479906	-0.17761698	-25.59976344
0.09	9	-0.018	-0.993	0.201	-1.2605076	0.6302538	0.286479	99.7233399	-0.18334656	-25.59403386
0.1	10	-0.017	-0.994	0.2	-1.432395	0.6302538	0.3437748	99.71761032	-0.2005353	-25.5825747
0.11	11	-0.013	-0.994	0.198	-1.718874	0.9167328	0.3437748	99.70042158	-0.20626488	-25.57684512
0.12	12	-0.011	-0.994	0.197	-1.9480572	1.0886202	0.4010706	99.67750326	-0.21199446	-25.56538596
0.13	13	-0.011	-0.994	0.196	-2.2345362	1.2032118	0.572958	99.65458494	-0.21772404	-25.5539268
0.14	14	-0.011	-0.994	0.196	-2.578311	1.2605076	0.7448454	99.62593704	-0.2291832	-25.54246764
0.15	15	-0.011	-0.995	0.192	-2.86479	1.0886202	0.8021412	99.59728914	-0.24064236	-25.53100848
0.16	16	-0.012	-0.993	0.19	-3.0939732	0.859437	0.859437	99.56864124	-0.25210152	-25.5252789
0.17	17	-0.014	-0.994	0.191	-3.3804522	0.9740286	0.9167328	99.53426376	-0.26356068	-25.51954932
0.18	18	-0.014	-0.994	0.19	-3.437748	1.0886202	0.9167328	99.49988628	-0.27501984	-25.50809016
0.19	19	-0.013	-0.992	0.188	-3.3231564	1.0886202	0.9740286	99.4655088	-0.286479	-25.50236058
0.2	20	-0.013	-0.992	0.188	-3.2085648	1.0886202	0.9167328	99.43113132	-0.30366774	-25.49090142
0.21	21	-0.014	-0.991	0.187	-2.9793816	1.0313244	1.0313244	99.40248342	-0.3151269	-25.48517184
0.22	22	-0.014	-0.988	0.183	-2.8074942	0.572958	1.145916	99.37383552	-0.32658606	-25.47944226
0.23	23	-0.014	-0.984	0.178	-2.2345362	0.1145916	1.0886202	99.3509172	-0.33804522	-25.47944226
0.24	24	-0.013	-0.984	0.177	-1.0886202	-0.1145916	0.9167328	99.33945804	-0.34950438	-25.48517184
0.25	25	-0.014	-0.984	0.18	-0.1145916	-0.0572958	0.6875496	99.33372846	-0.36096354	-25.48517184
0.26	26	-0.014	-0.985	0.184	0.6875496	0.1145916	0.4583664	99.34518762	-0.36669312	-25.48517184
0.27	27	-0.016	-0.984	0.183	1.6042824	0.1145916	0.2291832	99.36237636	-0.3724227	-25.47944226
0.28	28	-0.016	-0.987	0.186	2.4064236	0.0572958	0.0572958	99.38529468	-0.3724227	-25.47944226
0.29	29	-0.014	-0.991	0.19	2.4064236	0.1718874	-0.0572958	99.408213	-0.3724227	-25.47944226
0.3	30	-0.013	-0.994	0.191	1.9480572	0.4010706	0	99.4368609	-0.3724227	-25.47371268
0.31	31	-0.012	-0.994	0.19	1.6042824	0.5156622	0	99.44832006	-0.37815228	-25.4679831
0.32	32	-0.014	-0.995	0.19	1.3750992	0.4583664	0.0572958	99.4655088	-0.37815228	-25.46225352
0.33	33	-0.013	-0.995	0.188	1.0313244	0.5156622	0.0572958	99.47696796	-0.37815228	-25.45652394
0.34	34	-0.014	-0.994	0.187	0.6302538	0.6875496	0.1145916	99.48269754	-0.38388186	-25.45079436
0.35	35	-0.014	-0.993	0.188	0.572958	0.859437	0.0572958	99.4941567	-0.38961144	-25.4393352
0.36	36	-0.012	-0.993	0.187	0.7448454	1.0886202	0	99.49988628	-0.39534102	-25.42787604
0.37	37	-0.012	-0.993	0.189	0.8021412	0.9740286	0	99.51134544	-0.39534102	-25.41641688
0.38	38	-0.014	-0.993	0.193	0.859437	0.7448454	0	99.5228046	-0.39534102	-25.4106873
0.39	39	-0.016	-0.994	0.196	0.6302538	0.7448454	0.0572958	99.52853418	-0.4010706	-25.40495772
0.4	40	-0.016	-0.993	0.197	0.3437748	0.8021412	0.0572958	99.5514525	-0.41825934	-25.38776898
0.41	41	-0.018	-0.994	0.198	-0.1718874	0.7448454	0	99.5514525	-0.41825934	-25.3820394
0.42	42	-0.018	-0.993	0.198	-1.0313244	0.8021412	0	99.53999334	-0.42398892	-25.37058024
0.43	43	-0.018	-0.994	0.196	-1.3178034	0.6875496	-0.0572958	99.5228046	-0.42398892	-25.36485066
0.44	44	-0.02	-0.995	0.196	-1.2605076	0.1718874	-0.1718874	99.51134544	-0.42398892	-25.36485066
0.45	45	-0.019	-0.995	0.194	-1.2032118	-0.4010706	-0.2291832	99.51134544	-0.43544808	-25.35912108
0.46	46	-0.018	-0.994	0.193	-1.0313244	-1.145916	-0.2291832	99.49988628	-0.4297185	-25.37058024
0.47	47	-0.016	-0.99	0.193	-1.0313244	-1.7761698	-0.1145916	99.48842712	-0.42398892	-25.38776898
0.48	48	-0.012	-0.981	0.19	-1.432395	-1.7761698	-0.286479	99.47696796	-0.41825934	-25.40495772
0.49	49	-0.011	-0.979	0.183	-2.005353	-1.6615782	-0.286479	99.45404964	-0.41252976	-25.42214646
0.5	50	-0.012	-0.985	0.178	-2.9220858	-2.0626488	-0.1718874	99.41967216	-0.40680018	-25.44506478
0.51	51	-0.016	-0.989	0.179	-2.86479	-2.4637194	-0.4010706	99.39102426	-0.4010706	-25.4679831
0.52	52	-0.017	-0.995	0.174	-2.6356068	-1.718874	-0.8021412	99.36810594	-0.38961144	-25.47944226
0.53	53	-0.012	-0.997	0.171	-2.7501984	-0.4010706	-1.145916	99.33945804	-0.37815228	-25.48517184
0.54	54	-0.007	-0.996	0.176	-2.5210152	0.3437748	-1.2605076	99.31081014	-0.36669312	-25.47944226
0.55	55	-0.001	-0.993	0.185	-1.7761698	0.286479	-1.145916	99.29935098	-0.33804522	-25.47944226
0.56	56	0.001	-0.99	0.196	-1.432395	-0.1718874	-1.0313244	99.28789182	-0.32658606	-25.47944226
0.57	57	0.001	-0.986	0.205	-1.6042824	-0.9740286	-0.8021412	99.27070308	-0.32085648	-25.48517184
0.58	58	0	-0.984	0.211	-2.005353	-1.5469866	-0.6875496	99.24778476	-0.30939732	-25.50236058
0.59	59	0	-0.983	0.209	-2.0626488	-1.4896908	-0.9167328	99.23059602	-0.29793816	-25.51381974
0.6	60	0	-0.988	0.2	-1.9480572	-1.2605076	-1.2605076	99.21913686	-0.27501984	-25.53100848
0.61	61	0	-0.995	0.197	-1.6615782	-1.145916	-1.5469866	99.20194812	-0.2578311	-25.53673806
0.62	62	0	-0.998	0.198	-0.859437	-0.5156622	-1.8334656	99.19621854	-0.23491278	-25.54246764
0.63	63	0	-0.993	0.196	-0.1718874	0.4010706	-1.8334656	99.19048896	-0.21772404	-25.53100848
0.64	64	0.007	-0.987	0.201	0.3437748	0.9167328	-1.6042824	99.19621854	-0.20626488	-25.51954932
0.65	65	0.018	-0.983	0.207	1.0886202	0.6875496	-1.2032118	99.24205518	-0.14896908	-25.5252789
0.66	66	0.032	-0.982	0.212	1.8334656	0	-0.9740286	99.25924392	-0.13750992	-25.5252789
0.67	67	0.039	-0.984	0.215	1.8334656	-1.3750992	-0.6875496	99.27643266	-0.13178034	-25.53673806
0.68	68	0.042	-0.986	0.217	1.0313244	-3.2085648	-0.2291832	99.28789182	-0.12032118	-25.56538596
0.69	69	0.039	-0.991	0.219	-0.286479	-5.6149884	0.2291832	99.28789182	-0.1145916	-25.62268176
0.7	70	0.028	-0.993	0.218	-1.7761698	-7.9068204	0.5156622	99.28216224	-0.09167328	-25.70289588
0.71	71	0.011	-0.998	0.213	-2.9793816	-9.740286	0.4583664	99.25351434	-0.08021412	-25.80029874
0.72	72	-0.003	-1.006	0.204	-4.4117766	-10.7143146	0	99.2076777	-0.06302538	-25.90343118
0.73	73	-0.008	-1.017	0.204	-6.1879464	-10.3705398	-0.572958	99.14465232	-0.03437748	-26.00656362
0.74	74	-0.011	-1.03	0.209	-8.59437	-8.9954406	-1.5469866	99.05870862	-0.00572958	-26.09250732
0.75	75	-0.011	-1.042	0.21	-10.886202	-7.161975	-3.2658606	98.95557618	0.03437748	-26.1555327
0.76	76	-0.014	-1.053	0.208	-12.1467096	-5.5003968	-5.7868758	98.82952542	0.09740286	-26.20136934
0.77	77	-0.021	-1.063	0.2	-13.1207382	-3.0366774	-8.7662574	98.69774508	0.18907614	-26.21855808
0.78	78	-0.032	-1.053	0.179	-13.2353298	2.3491278	-12.4331886	98.56596474	0.30939732	-26.17845102
0.79	79	-0.039	-1.034	0.163	-12.605076	9.9121734	-14.6677248	98.4341844	0.43544808	-26.06385942
0.8	80	-0.021	-1.01	0.159	-12.318597	17.2460358	-15.2979786	98.30813364	0.55003968	-25.87478328
0.81	81	0.002	-0.98	0.159	-12.2613012	23.7204612	-14.3812458	98.18208288	0.65317212	-25.62268176
0.82	82	0.041	-0.954	0.16	-12.6623718	29.7365202	-12.2040054	98.05603212	0.72192708	-25.31901402
0.83	83	0.077	-0.926	0.161	-13.5218088	34.8358464	-9.9121734	97.91279262	0.76203414	-24.96378006
0.84	84	0.106	-0.901	0.162	-14.4385416	39.1903272	-8.0787078	97.76955312	0.77922288	-24.57416862
0.85	85	0.125	-0.887	0.167	-14.610429	41.539455	-6.875496	97.62058404	0.79068204	-24.16163886
0.86	86	0.13	-0.889	0.176	-13.8082878	41.9978214	-6.0733548	97.48307412	0.77922288	-23.74337952
0.87	87	0.125	-0.908	0.192	-12.032118	40.7946096	-5.3858052	97.35702336	0.76776372	-23.34230892
0.88	88	0.117	-0.935	0.22	-10.313244	39.0184398	-4.8128472	97.25389092	0.75630456	-22.95269748
0.89	89	0.11	-0.955	0.246	-8.7089616	37.0703826	-4.5263682	97.16794722	0.7448454	-22.58600436
0.9	90	0.096	-0.968	0.264	-6.875496	34.8931422	-4.4117766	97.10492184	0.7448454	-22.24222956
0.91	91	0.077	-0.978	0.271	-5.6722842	33.1169724	-4.1825934	97.04762604	0.73911582	-21.9156435
0.92	92	0.057	-0.995	0.271	-5.3858052	32.372127	-3.724227	96.99605982	0.72765666	-21.59478702
0.93	93	0.039	-1.011	0.263	-6.0733548	33.0023808	-3.3231564	96.93303444	0.71046792	-21.26820096
0.94	94	0.024	-1.024	0.25	-6.6463128	34.950438	-2.6929026	96.86427948	0.6875496	-20.92442616
0.95	95	0.012	-1.033	0.238	-7.0473834	37.528749	-1.7761698	96.79552452	0.64744254	-20.55773304
0.96	96	0.002	-1.033	0.219	-6.7609044	39.9924684	-0.7448454	96.72676956	0.59587632	-20.16239202
0.97	97	-0.001	-1.026	0.207	-5.8441716	42.3415962	-0.1718874	96.66374418	0.53858052	-19.74986226
0.98	98	0.003	-1.017	0.196	-4.010706	44.690724	0.286479	96.62363712	0.46982556	-19.31441418
0.99	99	0.004	-1.004	0.178	-2.2345362	46.1804148	1.432395	96.59498922	0.39534102	-18.86177736
1	100	-0.009	-0.986	0.152	-2.1772404	45.1490904	3.9534102	96.5720709	0.286479	-18.42632928
1.01	101	-0.038	-0.957	0.117	-3.9534102	40.1643558	7.5057498	96.52623426	0.15469866	-18.04244742
1.02	102	-0.081	-0.913	0.069	-7.0473834	28.6479	10.886202	96.45174972	0.01145916	-17.77315716
1.03	103	-0.127	-0.885	0.027	-13.0061466	11.3445684	11.9175264	96.31996938	-0.12032118	-17.6757543
1.04	104	-0.136	-0.885	0.045	-26.2987722	-3.2085648	9.3965112	96.05067912	-0.21199446	-17.72159094
1.05	105	-0.094	-0.884	0.079	-47.4409224	-5.5003968	0.5156622	95.5693944	-0.21772404	-17.78461632
1.06	106	-0.023	-0.932	0.099	-63.311859	0.572958	-9.9694692	94.92768144	-0.12032118	-17.77315716
1.07	107	0.028	-1.011	0.091	-68.182002	3.6096354	-16.8449652	94.23440226	0.0286479	-17.7330501
1.08	108	0.062	-1.106	0.124	-58.2125328	2.9220858	-18.2773602	93.64425552	0.20626488	-17.69867262
1.09	109	0.077	-1.178	0.219	-42.2843004	3.6096354	-13.9801752	93.21453702	0.33804522	-17.65856556
1.1	110	0.05	-1.201	0.282	-31.1689152	6.9900876	-6.9327918	92.9051397	0.4010706	-17.5898106
1.11	111	-0.015	-1.199	0.299	-23.6631654	9.3392154	1.432395	92.66449734	0.37815228	-17.5038669
1.12	112	-0.097	-1.153	0.315	-18.6784308	8.7089616	11.0007936	92.4754212	0.2578311	-17.42365278
1.13	113	-0.159	-1.079	0.346	-15.0687954	6.0733548	19.4232762	92.32072254	0.06302538	-17.37208656
1.14	114	-0.176	-1.018	0.383	-13.2353298	2.6929026	24.0069402	92.1889422	-0.1718874	-17.3606274
1.15	115	-0.154	-0.996	0.403	-14.896908	-0.9167328	24.637194	92.06862102	-0.43544808	-17.37781614
1.16	116	-0.115	-0.992	0.4	-17.8762896	-4.5263682	22.9756158	91.88527446	-0.6589017	-17.42938236
1.17	117	-0.074	-1	0.374	-19.5378678	-8.0787078	20.5118964	91.69046874	-0.859437	-17.52105564
1.18	118	-0.04	-1.015	0.328	-19.767051	-11.8029348	18.5065434	91.49566302	-1.03705398	-17.6471064
1.19	119	-0.018	-1.016	0.295	-19.194093	-16.042824	17.3033316	91.30658688	-1.2032118	-17.81326422
1.2	120	-0.015	-0.995	0.256	-18.7357266	-19.3659804	16.5584862	91.14042906	-1.35791046	-18.00806994
1.21	121	-0.036	-0.96	0.223	-19.5378678	-22.4026578	15.9855282	90.95135292	-1.51260912	-18.23725314
1.22	122	-0.075	-0.919	0.2	-20.912967	-24.8090814	15.4125702	90.74508804	-1.65584862	-18.48935466
1.23	123	-0.116	-0.891	0.193	-22.9756158	-25.5539268	14.5531332	90.527364	-1.79335854	-18.74718576
1.24	124	-0.155	-0.874	0.181	-26.5279554	-25.0955604	13.464513	90.2695329	-1.9194093	-18.99928728
1.25	125	-0.191	-0.866	0.17	-29.4500412	-24.0069402	11.9748222	89.98878348	-2.04546006	-19.23420006
1.26	126	-0.213	-0.876	0.176	-31.1116194	-20.626488	10.4278356	89.68511574	-2.1485925	-19.44046494
1.27	127	-0.214	-0.897	0.173	-32.6013102	-15.6417534	9.3965112	89.36425926	-2.24026578	-19.60089318
1.28	128	-0.205	-0.912	0.153	-34.091001	-12.5477802	8.7089616	89.02621404	-2.33193906	-19.72694394
1.29	129	-0.189	-0.922	0.14	-33.0023808	-11.0007936	8.5370742	88.6938984	-2.41788276	-19.84153554
1.3	130	-0.161	-0.93	0.124	-30.4240698	-11.0580894	8.5370742	88.40168982	-2.51528562	-19.95039756
1.31	131	-0.128	-0.937	0.133	-27.215505	-12.318597	8.59437	88.13239956	-2.60122932	-20.07071874
1.32	132	-0.09	-0.942	0.159	-24.637194	-12.4904844	8.8235532	87.8917572	-2.6929026	-20.1967695
1.33	133	-0.071	-0.941	0.179	-22.91832	-13.464513	8.9954406	87.66830358	-2.78457588	-20.32854984
1.34	134	-0.069	-0.935	0.205	-21.0848544	-16.329303	8.8235532	87.4620387	-2.87624916	-20.48897808
1.35	135	-0.063	-0.941	0.243	-20.5118964	-17.9335854	8.7089616	87.29588088	-2.97365202	-20.66659506
1.36	136	-0.07	-0.923	0.259	-21.485925	-18.2773602	8.880849	87.089616	-3.0653253	-20.84421204
1.37	137	-0.093	-0.903	0.24	-20.9702628	-21.5432208	8.9381448	86.8890807	-3.16272816	-21.0562065
1.38	138	-0.122	-0.903	0.213	-20.1108258	-27.5592798	8.880849	86.70573414	-3.26013102	-21.32549676
1.39	139	-0.146	-0.908	0.203	-19.1367972	-33.5753388	8.6516658	86.53384674	-3.35753388	-21.6578124
1.4	140	-0.171	-0.9	0.215	-19.1367972	-36.6120162	7.448454	86.38487766	-3.45493674	-22.01304636
1.41	141	-0.198	-0.884	0.227	-19.7097552	-35.9244666	4.9847346	86.21299026	-3.51796212	-22.36828032
1.42	142	-0.227	-0.859	0.231	-18.907614	-32.085648	1.7761698	86.04110286	-3.5523396	-22.6891368
1.43	143	-0.252	-0.831	0.225	-15.9282324	-28.7051958	-1.9480572	85.90359294	-3.54661002	-22.9756158
1.44	144	-0.277	-0.83	0.244	-12.7769634	-23.7204612	-5.2712136	85.78900134	-3.50650296	-23.21625816
1.45	145	-0.306	-0.841	0.235	-12.9488508	-15.3552744	-7.7922288	85.70878722	-3.47785506	-23.36522724
1.46	146	-0.329	-0.851	0.205	-13.464513	-7.448454	-8.8235532	85.57700688	-3.39191136	-23.44544136
1.47	147	-0.336	-0.854	0.16	-12.318597	-3.437748	-8.2505952	85.4566857	-3.31742682	-23.491278
1.48	148	-0.317	-0.864	0.137	-8.2505952	-2.5210152	-7.2765666	85.37647158	-3.24294228	-23.5199259
1.49	149	-0.271	-0.887	0.118	-3.8388186	-1.5469866	-4.9274388	85.33636452	-3.19710564	-23.54284422
1.5	150	-0.21	-0.911	0.109	0.3437748	-1.2032118	-2.291832	85.46241528	-3.27731976	-23.53138506
1.51	151	-0.138	-0.966	0.099	2.578311	-3.6096354	0.4010706	85.49106318	-3.28304934	-23.56576254
1.52	152	-0.034	-1.047	-0.039	0.1718874	-6.3598338	3.6669312	85.49679276	-3.3231564	-23.62878792
1.53	153	0.084	-1.125	-0.04	-0.5156622	-5.6149884	8.1360036	85.49679276	-3.40337052	-23.67462456
1.54	154	0.087	-1.213	0.029	0.1145916	-9.5111028	7.161975	85.50825192	-3.47785506	-23.76629784
1.55	155	0.005	-1.168	-0.049	-4.870143	2.0626488	-1.6042824	85.45095612	-3.45493674	-23.7491091
1.56	156	0.004	-1.104	-0.092	-17.2460358	27.4446882	-14.0947668	85.2561504	-3.30596766	-23.491278
1.57	157	0.041	-1.011	-0.089	-31.9137606	38.8465524	-24.0069402	84.90664602	-3.04813656	-23.13031446
1.58	158	0.065	-0.943	-0.151	-38.961144	51.7381074	-30.653253	84.4826571	-2.71009134	-22.64902974
1.59	159	0.073	-0.893	-0.173	-36.669312	67.7809314	-31.9137606	84.07012734	-2.3491278	-22.01304636
1.6	160	0.041	-0.899	-0.074	-30.653253	64.5150708	-27.6738714	83.72635254	-2.02827132	-21.41144046
1.61	161	-0.065	-0.935	-0.156	-26.1841806	44.8626114	-16.2720072	83.43987354	-1.8334656	-20.98745154
1.62	162	-0.166	-1.088	-0.126	-18.2200644	33.1169724	-8.1932994	83.23933824	-1.72460358	-20.67232464
1.63	163	-0.174	-1.304	-0.02	-17.8189938	23.8923486	-5.443101	83.0502621	-1.65011904	-20.44314144
1.64	164	-0.129	-1.491	0.009	-21.7151082	18.6784308	-5.8441716	82.8210789	-1.5756345	-20.27125404
1.65	165	-0.08	-1.63	-0.005	-22.345362	17.8189938	-9.1100322	82.58616612	-1.47250206	-20.1108258
1.66	166	-0.063	-1.709	-0.001	-20.2254174	19.4232762	-15.0687954	82.37417166	-1.30634424	-19.9389384
1.67	167	-0.044	-1.758	0.046	-13.9801752	22.8037284	-23.0902074	82.22520258	-1.05424272	-19.74413268
1.68	168	-0.038	-1.788	0.071	-8.4797784	27.3300966	-29.4500412	82.1335293	-0.73911582	-19.51494948
1.69	169	-0.009	-1.789	0.144	-6.8182002	33.2888598	-33.518043	82.05331518	-0.3724227	-19.23420006
1.7	170	0.001	-1.786	0.233	-11.2872726	40.0497642	-32.4867186	81.932994	-0.00572958	-18.88469568
1.71	171	-0.022	-1.791	0.23	-17.3606274	47.1544434	-28.7624916	81.75537702	0.32085648	-18.46643634
1.72	172	-0.08	-1.798	0.19	-21.1421502	52.712136	-25.0955604	81.53765298	0.6302538	-17.98515162
1.73	173	-0.128	-1.775	0.149	-20.4546006	56.436363	-22.8037284	81.32565852	0.9167328	-17.46948942
1.74	174	-0.144	-1.723	0.147	-15.9855282	58.6136034	-21.6005166	81.16523028	1.2032118	-16.92517932
1.75	175	-0.117	-1.631	0.14	-11.5164558	60.447069	-21.3713334	81.05636826	1.48396122	-16.36368048
1.76	176	-0.042	-1.514	0.118	-6.2452422	62.6816052	-21.199446	80.99907246	1.77044022	-15.7849929
1.77	177	0.059	-1.403	0.111	0.7448454	67.5517482	-20.626488	81.02199078	2.0626488	-15.1547391
1.78	178	0.167	-1.29	0.084	6.302538	72.3072996	-19.9962342	81.1022049	2.3491278	-14.47291908
1.79	179	0.247	-1.168	0.052	11.1153852	75.1720896	-19.767051	81.23398524	2.64133638	-13.76245116
1.8	180	0.298	-1.015	-0.002	16.5584862	73.6823988	-20.5691922	81.42879096	2.94500412	-13.06917198
1.81	181	0.341	-0.85	-0.066	23.3766864	65.317212	-21.3140376	81.69235164	3.2372127	-12.45610692
1.82	182	0.348	-0.677	-0.111	33.4607472	52.5402486	-22.0015872	82.05331518	3.51223254	-11.96909262
1.83	183	0.327	-0.522	-0.115	41.539455	37.3568616	-22.1161788	82.49449284	3.77579322	-11.62531782
1.84	184	0.276	-0.37	-0.109	40.7373138	21.7151082	-22.7464326	82.91848176	4.02789474	-11.4305121
1.85	185	0.252	-0.197	-0.085	31.226211	5.2139178	-23.6631654	83.22787908	4.27999626	-11.40759378
1.86	186	0.258	-0.037	-0.098	25.0955604	1.2605076	-21.3713334	83.48571018	4.4977203	-11.41905294
1.87	187	0.267	0.093	-0.151	20.626488	5.6149884	-16.1574156	83.69770464	4.66387812	-11.37894588
1.88	188	0.251	0.214	-0.172	23.5485738	6.302538	-8.1360036	83.938347	4.74982182	-11.32165008
1.89	189	0.193	0.262	-0.145	29.9084076	-0.286479	-0.1145916	84.24201474	4.7555514	-11.32165008
1.9	190	0.107	0.276	-0.077	31.7418732	-7.2765666	7.1046792	84.55714164	4.68679644	-11.38467546
1.91	191	0.022	0.3	-0.013	31.9137606	-10.8289062	12.2040054	84.87226854	4.56074568	-11.47634874
1.92	192	-0.032	0.305	0.016	35.1223254	-13.2926256	15.2979786	85.22177292	4.40604702	-11.59666992
1.93	193	-0.043	0.262	0.065	42.4561878	-17.0741484	17.0741484	85.64576184	4.22843004	-11.745639
1.94	194	-0.008	0.197	0.142	48.7587258	-19.3659804	17.6471064	86.13277614	4.05081306	-11.9175264
1.95	195	0.034	0.088	0.099	51.852699	-30.8251404	18.8503182	86.64843834	3.86173692	-12.20973498
1.96	196	0.086	-0.076	-0.061	48.0138804	-46.3523022	19.8816426	87.11253432	3.66120162	-12.65664222
1.97	197	0.187	-0.295	-0.274	34.6066632	-48.8160216	18.2773602	87.43912038	3.47212548	-13.12646778
1.98	198	0.359	-0.587	-0.37	22.8037284	-34.6066632	12.8342592	87.65684442	3.34034514	-13.45878342
1.99	199	0.458	-1.124	-0.443	14.2666542	-31.0543236	5.6149884	87.78862476	3.28304934	-13.76818074
2	200	0.356	-2.914	-0.561	-7.3911582	-19.480572	-14.9542038	87.70841064	3.42628884	-13.96298646
2.01	201	0.053	-3.384	0.229	-20.9702628	-38.2162986	-33.1169724	87.47349786	3.74714532	-14.35832748
2.02	202	-0.296	-1.642	-0.104	-58.7854908	-75.343977	-16.329303	86.8317849	3.89038482	-15.12036162
2.03	203	-0.21	-1.121	-0.066	-1.9480572	-94.7099574	-4.010706	86.76302994	3.90184398	-16.06001274
2.04	204	0.166	-1.516	0.022	24.064236	-83.1935016	4.8128472	86.96356524	3.83308902	-16.87934268
2.05	205	0.272	-1.67	0.005	29.2781538	-67.2652692	15.2406828	87.22712592	3.67266078	-17.5325148
2.06	206	0.188	-1.79	0.174	21.7151082	-63.9421128	18.6784308	87.41620206	3.47785506	-18.15703902
2.07	207	0.143	-1.901	0.313	5.9587632	-60.9627312	11.5737516	87.45057954	3.3518043	-18.75864492
2.08	208	0.102	-2.107	0.399	2.9793816	-54.2591226	1.7761698	87.45630912	3.3231564	-19.29149586
2.09	209	0.037	-2.169	0.365	-3.2658606	-53.3423898	3.437748	87.39901332	3.28304934	-19.81861722
2.1	210	0.1	-1.991	0.276	-9.740286	-59.0719698	14.4958374	87.27869214	3.1226211	-20.3973048
2.11	211	0.166	-1.767	0.227	-6.1306506	-67.7809314	26.5279554	87.19274844	2.84760126	-21.06193608
2.12	212	0.102	-1.576	0.221	-0.1718874	-79.2973872	34.8358464	87.16410054	2.48663772	-21.8296998
2.13	213	-0.042	-1.44	0.248	4.9847346	-87.662574	37.8725238	87.19274844	2.0912967	-22.67767764
2.14	214	-0.179	-1.339	0.2	9.2819196	-95.2256196	39.247623	87.27296256	1.68449652	-23.60014002
2.15	215	-0.295	-1.273	0.124	15.8136408	-105.99723	40.8519054	87.42193164	1.24904844	-24.62573484
2.16	216	-0.376	-1.216	0.054	19.3086846	-110.580894	41.8832298	87.61673736	0.81932994	-25.70289588
2.17	217	-0.417	-1.125	-0.045	20.05353	-107.0858502	39.3622146	87.82300224	0.41825934	-26.74567944
2.18	218	-0.438	-1.017	-0.182	21.485925	-94.3088868	32.2575354	88.05218544	0.09167328	-27.66241224
2.19	219	-0.416	-0.886	-0.22	22.7464326	-71.333271	22.2307704	88.2928278	-0.12605076	-28.35569142
2.2	220	-0.343	-0.698	-0.16	32.4867186	-44.5188366	13.2926256	88.62514344	-0.27501984	-28.78540992
2.21	221	-0.223	-0.536	-0.028	50.1911208	-20.3973048	6.875496	89.13507606	-0.33804522	-28.98021564
2.22	222	-0.083	-0.427	0.147	63.311859	-2.0626488	2.2345362	89.77678902	-0.35523396	-28.99740438
2.23	223	0.017	-0.34	0.327	63.9421128	11.2872726	-0.572958	90.42423156	-0.3437748	-28.8770832
2.24	224	0.04	-0.261	0.345	58.2698286	18.334656	-1.7761698	91.0143783	-0.33231564	-28.68800706
2.25	225	0	-0.206	0.205	41.6540466	13.5218088	-2.578311	91.4440968	-0.30939732	-28.55049714
2.26	226	-0.075	-0.164	-0.089	22.2880662	-4.7555514	-3.9534102	91.66755042	-0.26356068	-28.5906042
2.27	227	-0.13	-0.108	-0.245	12.2613012	-23.5485738	-6.5317212	91.79933076	-0.18334656	-28.8197874
2.28	228	-0.091	-0.107	-0.206	8.7089616	-25.6685184	-9.2819196	91.89100404	-0.07448454	-29.07188892
2.29	229	0.014	-0.094	-0.176	8.5370742	-16.6730778	-12.5477802	91.97694774	0.05156622	-29.23231716
2.3	230	0.104	-0.065	-0.122	14.1520626	-6.9900876	-15.1260912	92.11445766	0.21772404	-29.29534254
2.31	231	0.108	-0.071	-0.057	16.4438946	2.1199446	-17.9335854	92.28061548	0.39534102	-29.26096506
2.32	232	0.048	-0.082	-0.026	11.6883432	17.9908812	-20.8556712	92.40093666	0.59014674	-29.0776185
2.33	233	0.017	-0.079	-0.043	-0.1718874	48.1857678	-19.0795014	92.39520708	0.75057498	-28.5906042
2.34	234	0.001	-0.125	-0.112	-5.5576926	73.625103	-12.2613012	92.33791128	0.81932994	-27.86294754
2.35	235	-0.038	-0.314	-0.288	-12.032118	88.9230816	-1.145916	92.19467178	0.76776372	-26.9863218
2.36	236	-0.039	-0.638	-0.49	-31.226211	74.3126526	16.7303736	91.87954488	0.55576926	-26.25866514
2.37	237	-0.015	-0.996	-0.323	-26.356068	24.2361234	41.1383844	91.61025462	0.13178034	-26.03521152
2.38	238	0.154	-1.5	-0.026	10.6570188	29.507337	52.5402486	91.71338706	-0.4010706	-25.76019168
2.39	239	0.253	-2.187	0.036	9.2246238	60.733548	42.2843004	91.79360118	-0.859437	-25.17577452
2.4	240	0.023	-2.325	0.101	-41.1383844	65.317212	17.2460358	91.3581531	-1.06570188	-24.53979114
2.41	241	-0.149	-1.75	-0.066	-73.5105114	62.1086472	2.5210152	90.59038938	-1.12872726	-23.93818524
2.42	242	-0.358	-1.768	-0.077	-39.3622146	56.8947294	-5.6149884	90.17213004	-1.09434978	-23.3766864
2.43	243	-0.424	-1.969	0.024	-20.1108258	53.9726436	0.1145916	89.954406	-1.11153852	-22.84383546
2.44	244	-0.32	-2.056	0.283	-14.6677248	56.2644756	14.6677248	89.7825186	-1.27196676	-22.29379578
2.45	245	-0.241	-2.079	0.299	-14.3812458	66.3485364	19.480572	89.61636078	-1.48396122	-21.63489408
2.46	246	-0.187	-2.083	0.254	-22.91832	80.5578948	12.605076	89.3528001	-1.62147114	-20.84421204
2.47	247	-0.152	-2.049	0.299	-33.518043	90.0689976	4.9847346	88.97464782	-1.6902261	-19.95612714
2.48	248	-0.106	-1.916	0.275	-38.3308902	95.1683238	-2.2345362	88.54492932	-1.67303736	-19.01647602
2.49	249	-0.058	-1.788	0.197	-38.674665	103.13244	-10.7716104	88.10948124	-1.56990492	-18.00234036
2.5	250	-0.003	-1.636	0.127	-37.815228	106.7993712	-17.6471064	87.67976274	-1.38655836	-16.9595568
2.51	251	0.056	-1.473	0.094	-32.2002396	107.429625	-24.350715	87.3187992	-1.12872726	-15.91104366
2.52	252	0.103	-1.351	0.086	-23.6631654	107.2577376	-30.4240698	87.04377936	-0.80787078	-14.8682601
2.53	253	0.146	-1.249	0.094	-17.18874	106.856667	-35.4088044	86.84324406	-0.4297185	-13.83120612
2.54	254	0.195	-1.16	0.049	-14.4958374	107.429625	-39.247623	86.67708624	-0.01145916	-12.79415214
2.55	255	0.268	-1.086	-0.045	-13.8655836	108.4609494	-39.9924684	86.52238758	0.42398892	-11.745639
2.56	256	0.342	-0.99	-0.097	-8.1360036	101.3562702	-37.0703826	86.43644388	0.82505952	-10.76588082
2.57	257	0.39	-0.897	-0.091	-2.9220858	78.1514712	-32.4294228	86.40779598	1.1745639	-10.01530584
2.58	258	0.414	-0.834	-0.049	-3.6669312	59.7022236	-26.9863218	86.3734185	1.4610429	-9.44234784
2.59	259	0.418	-0.768	-0.045	-2.291832	44.404245	-21.0275586	86.35622976	1.68449652	-9.01262934
2.6	260	0.37	-0.692	-0.025	-2.7501984	30.1375908	-14.8396122	86.33331144	1.87930224	-8.73187992
2.61	261	0.291	-0.631	-0.019	-1.2032118	18.8503182	-8.880849	86.32758186	1.9767051	-8.55426294
2.62	262	0.236	-0.572	-0.133	-0.572958	14.6677248	-2.9220858	86.32185228	2.01108258	-8.41102344
2.63	263	0.184	-0.472	-0.195	2.6929026	11.1153852	2.4637194	86.35050018	1.98816426	-8.29643184
2.64	264	0.096	-0.346	-0.115	10.4278356	7.9068204	6.6463128	86.4593622	1.92513888	-8.21621772
2.65	265	0.018	-0.247	0.214	14.0947668	2.578311	7.8495246	86.62552002	1.85065434	-8.18184024
2.66	266	-0.033	-0.113	0.471	8.9381448	-8.7662574	6.875496	86.7171933	1.7761698	-8.26205436
2.67	267	-0.027	-0.042	0.563	6.4744254	-15.0114996	5.0420304	86.78021868	1.72460358	-8.41102344
2.68	268	0.018	-0.025	0.486	0.3437748	-18.907614	6.2452422	86.78021868	1.65584862	-8.59437
2.69	269	0.022	-0.053	0.242	-5.7868758	-25.6112226	10.6570188	86.72292288	1.54125702	-8.84074194
2.7	270	-0.003	-0.154	0.022	-6.9900876	-32.5440144	16.4438946	86.64270876	1.36936962	-9.15586884
2.71	271	-0.012	-0.319	-0.045	-0.8021412	-41.7686382	22.631841	86.6312496	1.12872726	-9.55693944
2.72	272	0.018	-0.501	-0.066	3.5523396	-47.841993	26.356068	86.66562708	0.85370742	-10.01530584
2.73	273	0.111	-0.571	-0.06	9.7975818	-45.4355694	24.4080108	86.76875952	0.6016059	-10.45075392
2.74	274	0.286	-0.598	-0.124	28.4187168	-36.0390582	18.048177	87.0609681	0.41252976	-10.79452872
2.75	275	0.47	-0.726	-0.201	36.5547204	-52.712136	14.4958374	87.42766122	0.29793816	-11.31019092
2.76	276	0.556	-0.836	-0.02	21.4286292	-87.8917572	15.469866	87.65684442	0.13178034	-12.16962792
2.77	277	0.472	-0.867	0.064	2.1772404	-118.2012354	18.2773602	87.6912219	-0.0572958	-13.33273266
2.78	278	0.223	-0.855	0.362	-18.8503182	-104.5075392	9.9121734	87.5193345	-0.1718874	-14.36405706
2.79	279	-0.14	-1.222	0.194	-46.409598	-65.8328742	-3.8388186	87.05523852	-0.14896908	-15.02295876
2.8	280	-0.615	-2.1	-0.072	-73.338624	-27.6165756	-30.8251404	86.3161227	0.13178034	-15.32089692
2.81	281	-0.953	-2.369	0.077	-78.3233586	-21.1421502	-50.5921914	85.51971108	0.61879464	-15.57299844
2.82	282	-1.038	-1.762	0.256	-79.5838662	-26.2987722	-32.3148312	84.7118403	0.9167328	-15.86520702
2.83	283	-0.756	-0.974	0.237	-49.9046418	-20.7410796	-5.3858052	84.20763726	0.95111028	-16.08293106
2.84	284	-0.37	-0.876	0.194	-0.6302538	-11.3445684	10.886202	84.20190768	0.83651868	-16.18033392
2.85	285	-0.039	-1.213	0.243	30.1948866	-4.1825934	22.7464326	84.51703458	0.61306506	-16.19752266
2.86	286	0.174	-1.512	0.334	34.4920716	-5.3285094	23.8923486	84.87226854	0.37815228	-16.22617056
2.87	287	0.43	-1.572	0.43	21.4286292	0.2291832	15.5271618	85.08999258	0.22345362	-16.20898182
2.88	288	0.497	-1.1	0.353	-6.7609044	-3.7815228	11.0007936	85.02123762	0.10886202	-16.23762972
2.89	289	0.496	-0.717	0.344	-3.0366774	-27.1009134	11.2299768	84.99258972	-0.01145916	-16.49546082
2.9	290	0.428	-0.64	0.246	28.074942	-50.0192334	7.6776372	85.30198704	-0.0859437	-16.9882047
2.91	291	0.291	-0.514	0.144	37.528749	-60.3324774	1.2605076	85.69159848	-0.12605076	-17.57835144
2.92	292	0.146	-0.344	0.046	33.8618178	-53.858052	1.0886202	86.04683244	-0.15469866	-18.1054728
2.93	293	0.011	-0.28	-0.104	38.674665	-44.0031744	4.6409598	86.44217346	-0.21772404	-18.5351913
2.94	294	-0.081	-0.208	-0.271	36.5547204	-34.2055926	8.6516658	86.82032574	-0.30939732	-18.86177736
2.95	295	-0.194	-0.163	-0.345	22.7464326	-21.5432208	11.9748222	87.03804978	-0.44690724	-19.06231266
2.96	296	-0.242	-0.119	-0.239	7.7922288	-18.334656	11.8029348	87.1182639	-0.56722842	-19.23992964
2.97	297	-0.343	-0.044	-0.251	-2.5210152	-16.6730778	7.734933	87.09534558	-0.64744254	-19.40035788
2.98	298	-0.408	0.042	-0.296	-8.8235532	-4.1252976	2.6929026	87.00940188	-0.67609044	-19.44046494
2.99	299	-0.416	0.095	-0.323	-16.7876694	9.2246238	-2.578311	86.83751448	-0.64744254	-19.35452124
3	300	-0.354	0.15	-0.322	-17.8189938	25.8404058	-9.7975818	86.62552002	-0.56722842	-19.10241972
3.01	301	-0.292	0.141	-0.282	-22.7464326	42.6280752	-16.7876694	86.38487766	-0.38961144	-18.68988996
3.02	302	-0.197	0.101	-0.274	-31.1116194	48.0711762	-22.1161788	86.06402118	-0.15469866	-18.23725314
3.03	303	-0.055	0.07	-0.209	-36.669312	42.112413	-23.0902074	85.6858689	0.08021412	-17.83618254
3.04	304	0.055	0.016	-0.093	-43.0291458	35.9244666	-19.1367972	85.24469124	0.286479	-17.5038669
3.05	305	0.117	-0.043	-0.049	-54.3164184	28.5333084	-12.4331886	84.6831924	0.43544808	-17.24030622
3.06	306	0.159	-0.095	-0.088	-66.9214944	18.9649098	-8.6516658	84.00137238	0.52712136	-17.06841882
3.07	307	0.181	-0.147	-0.153	-79.2973872	19.6524594	-8.7089616	83.19923118	0.62452422	-16.89080184
3.08	308	0.195	-0.207	-0.217	-89.4960396	28.0176462	-11.8029348	82.28822796	0.75630456	-16.63870032
3.09	309	0.217	-0.26	-0.243	-100.4968332	37.9298196	-15.4125702	81.26836272	0.9453807	-16.3006551
3.1	310	0.185	-0.318	-0.206	-105.710751	40.7946096	-16.7303736	80.1854721	1.15737516	-15.93396198
3.11	311	0.086	-0.369	-0.151	-103.0178484	31.799169	-15.9282324	79.14268854	1.35218088	-15.66467172
3.12	312	-0.049	-0.404	-0.142	-98.4341844	18.1627686	-13.6364004	78.14574162	1.50687954	-15.52143222
3.13	313	-0.115	-0.409	-0.166	-94.7672532	12.7196676	-9.5111028	77.18317218	1.61001198	-15.42975894
3.14	314	-0.098	-0.497	-0.237	-100.8979038	23.204799	-5.3858052	76.16330694	1.70168526	-15.22349406
3.15	315	-0.026	-0.707	-0.255	-125.8788726	37.1276784	-4.010706	74.8856106	1.8048177	-14.88544884
3.16	316	0.103	-0.95	-0.27	-159.4542114	36.955791	-5.443101	73.27559862	1.93086846	-14.56459236
3.17	317	0.258	-1.33	-0.332	-180.1379952	12.032118	-9.167328	71.4478626	2.02827132	-14.49010782
3.18	318	0.296	-1.936	-0.528	-189.0188442	-28.4187168	-15.0687954	69.52272372	2.0626488	-14.82242346
3.19	319	0.246	-3.45	-0.77	-188.789661	-55.003968	-19.5378678	67.59185526	2.03973048	-15.41829978
3.2	320	1.908	-3.999	-1.495	-318.3354648	-12.2613012	35.809875	64.36037214	1.63865988	-15.4125702
3.21	321	3.805	-3.999	-3.775	-504.5468148	-83.4226848	127.9415214	59.26104594	0.0572958	-15.56726886
3.22	322	1.934	-2.847	-0.842	-413.6183802	-387.8352702	48.2430636	55.18158498	-2.39496444	-18.60967584
3.23	323	-0.937	-1.158	3.001	-177.5596842	-162.4908888	-50.1911208	53.47989972	-2.91062664	-20.24260614
3.24	324	-0.836	-2.038	1.448	-338.2171074	-88.9803774	-98.1477054	50.12236584	-2.70436176	-21.56613912
3.25	325	-0.044	-1.366	0.114	-488.6185824	-45.6647526	-96.6007188	45.22357494	-2.35485738	-22.56308604
3.26	326	-0.517	-0.501	0.392	-391.4449056	-34.2055926	-57.2958	41.2816239	-2.25745452	-23.22771732
3.27	327	-0.933	-0.708	0.799	-284.1298722	-57.5249832	-27.5592798	38.42829306	-2.5496631	-23.81213448
3.28	328	-1.182	-1.53	2.508	-307.5065586	-81.7038108	9.740286	35.34004944	-3.27731976	-24.24185298
3.29	329	-1.086	0.482	3.225	-557.774613	-38.5600734	50.8786704	29.67349482	-3.94195104	-24.02985852
3.3	330	-0.63	2.869	2.594	-620.799993	-21.4286292	118.3731228	23.30220186	-4.73263308	-23.05582992
3.31	331	-0.112	3.672	2.539	-430.8071202	-47.269035	145.3021488	18.83312946	-5.74676874	-21.86980686
3.32	332	0.056	3.204	0.911	-223.9119864	-27.9603504	88.522011	16.48400166	-6.302538	-21.1135023
3.33	333	0.06	1.263	-0.239	-132.4105938	-7.0473834	28.2468294	15.11463204	-6.46869582	-20.8556712
3.34	334	-0.197	0.283	-0.497	-199.675863	34.8358464	9.1100322	13.0634424	-6.18221682	-20.66659506
3.35	335	-0.704	0.507	-0.523	-183.1746726	66.2339448	7.6776372	11.15549226	-5.60925882	-20.42022312
3.36	336	-1.31	0.747	-0.361	-149.828517	66.0620574	4.5263682	9.60850566	-4.99619376	-20.23114698
3.37	337	-0.766	0.853	-0.218	-155.3289138	48.6441342	13.6364004	8.00422326	-4.56647526	-19.9962342
3.38	338	0.129	0.846	-0.478	-154.2975894	43.6021038	29.1635622	6.40567044	-4.19405256	-19.62954108
3.39	339	0.772	0.854	-1.135	-141.520626	24.6944898	41.7686382	4.93889796	-4.010706	-19.17690426
3.4	340	1.195	0.921	-1.567	-129.3739164	-3.2658606	45.3209778	3.58671708	-4.09092012	-18.71853786
3.41	341	1.142	1.167	-1.788	-111.3257394	-8.4797784	48.2430636	2.42934192	-4.2112413	-18.23725314
3.42	342	0.544	1.346	-2.484	-91.8451674	-11.1153852	54.2018268	1.45531332	-4.3544808	-17.69867262
3.43	343	-0.212	2.13	-2.689	-45.3782736	-46.2950064	48.5295426	0.96829902	-4.82430636	-17.23457664
3.44	344	-0.136	2.899	-2.692	49.7327544	-68.2965936	35.236917	1.45531332	-5.50612638	-16.91944974
3.45	345	0.37	2.053	-2.47	117.169911	-40.0497642	19.3659804	2.62987722	-5.89000824	-16.7590215
3.46	346	0.57	1.301	-1.986	120.6649548	-27.215505	3.151269	3.85600734	-6.14783934	-16.7590215
3.47	347	0.568	0.76	-1.73	142.2081756	-48.70143	-1.7761698	5.31705024	-6.60620574	-16.83923562
3.48	348	0.496	0.234	-1.41	169.7674554	-80.787078	-0.5156622	7.06457214	-7.37969904	-16.96528638
3.49	349	0.492	-0.144	-1.175	195.665157	-100.3249458	12.2040054	9.07565472	-8.34799806	-17.02831176
3.5	350	0.413	-0.393	-1.031	185.0081382	-123.8162238	25.7258142	10.9721457	-9.55693944	-17.03404134
3.51	351	0.079	-0.401	-1.139	161.5168602	-151.9484616	31.1116194	12.64518306	-11.06381898	-17.09133714
3.52	352	-0.26	-0.456	-0.947	140.947668	-157.7926332	15.4125702	14.1520626	-12.58788726	-17.3606274
3.53	353	-0.038	-0.594	-1.151	97.3455642	-106.7993712	-14.7250206	15.25787154	-13.5504567	-17.81326422
3.54	354	-0.204	-0.547	-2.881	37.6433406	-43.831287	-34.0337052	15.756345	-13.8655836	-18.28308978
3.55	355	-0.576	-0.215	-3.414	18.7930224	-39.6486936	-19.5951636	16.02563526	-14.18644008	-18.59821668
3.56	356	-1.639	-0.095	-3.085	30.4240698	-41.7113424	4.870143	16.36368048	-14.58751068	-18.6784308
3.57	357	-2.464	0.039	-3.26	0.859437	-26.1268848	3.3231564	16.3865988	-14.84534178	-18.72999702
3.58	358	-2.069	-0.22	-3.215	-61.4210976	-47.8992888	4.870143	15.79645206	-15.31516734	-18.82739988
3.59	359	-1.632	-0.012	-2.674	-80.6724864	-60.3897732	14.6677248	14.99431086	-15.93969156	-18.86177736
3.6	360	-0.901	0.518	-1.706	-99.2936214	-51.7381074	11.0007936	13.99163436	-16.4725425	-18.89042526
3.61	361	-0.535	1.033	-1.234	-90.5846598	-22.5745452	5.0993262	13.07490156	-16.71318486	-18.89042526
3.62	362	-0.506	0.881	-1.127	-67.0933818	-17.6471064	-0.1718874	12.41027028	-16.89080184	-18.9362619
3.63	363	-0.55	0.602	-1.133	-52.998615	-12.8342592	-3.724227	11.8888785	-17.01112302	-19.00501686
3.64	364	-0.519	0.377	-0.986	-46.4668938	-1.2605076	-4.5263682	11.43624168	-17.02258218	-19.0508535
3.65	365	-0.548	0.288	-0.893	-45.83664	14.2666542	-2.7501984	10.9148499	-16.91372016	-19.0222056
3.66	366	-0.521	0.27	-0.863	-41.3675676	19.8816426	6.4171296	10.46221308	-16.74183276	-18.91334358
3.67	367	-0.458	0.302	-0.768	-41.539455	25.5539268	16.3865988	9.97519878	-16.5298383	-18.68988996
3.68	368	-0.36	0.396	-0.547	-35.4661002	34.8931422	24.8090814	9.51683238	-16.23762972	-18.3633039
3.69	369	-0.178	0.436	-0.466	-24.350715	32.8877892	31.9710564	9.15586884	-15.97406904	-17.97369246
3.7	370	-0.076	0.365	-0.515	-21.6578124	21.2567418	36.2682414	8.78917572	-15.81937038	-17.54970354
3.71	371	-0.006	0.257	-0.539	-24.9809688	14.8396122	36.096354	8.4224826	-15.73342668	-17.15436252
3.72	372	0.083	0.163	-0.612	-23.1475032	12.5477802	31.51269	8.09589654	-15.65894214	-16.81058772
3.73	373	0.095	0.078	-0.642	-16.902261	10.3705398	24.1788276	7.8495246	-15.59591676	-16.54129746
3.74	374	0.033	0.031	-0.652	-11.45916	9.453807	15.756345	7.68336678	-15.52143222	-16.36368048
3.75	375	-0.084	0.004	-0.668	-5.9014674	5.443101	7.5630456	7.58596392	-15.47559558	-16.27773678
3.76	376	-0.217	-0.02	-0.707	0.8021412	-1.0886202	-0.1145916	7.5916935	-15.48132516	-16.27773678
3.77	377	-0.309	-0.001	-0.769	8.7089616	-5.2139178	-5.72958	7.70055552	-15.5271618	-16.34649174
3.78	378	-0.399	0.015	-0.823	16.7303736	-4.9274388	-8.1360036	7.89536124	-15.56153928	-16.43816502
3.79	379	-0.493	0	-0.875	21.3713334	-0.7448454	-8.4797784	8.1360036	-15.5558097	-16.5298383
3.8	380	-0.517	-0.06	-0.95	23.9496444	5.0993262	-8.0787078	8.38810512	-15.5271618	-16.59859326
3.81	381	-0.476	-0.138	-1.015	23.8923486	9.8548776	-9.3392154	8.6516658	-15.4125702	-16.6730778
3.82	382	-0.429	-0.199	-1.05	22.0015872	16.5584862	-11.0007936	8.89230816	-15.22922364	-16.7590215
3.83	383	-0.382	-0.234	-1.1	24.2934192	23.6631654	-12.891555	9.16159842	-14.97712212	-16.8449652
3.84	384	-0.301	-0.294	-1.14	30.7105488	25.4393352	-12.5477802	9.48818448	-14.70783186	-16.92517932
3.85	385	-0.246	-0.375	-1.122	30.653253	24.9809688	-10.599723	9.8262297	-14.43281202	-16.9882047
3.86	386	-0.181	-0.43	-1.109	23.4339822	26.4133638	-8.5370742	10.06687206	-14.16352176	-17.02258218
3.87	387	-0.105	-0.461	-1.092	15.5844576	23.2620948	-6.1879464	10.2273003	-13.9228794	-17.03977092
3.88	388	-0.076	-0.466	-1.064	11.6883432	14.3812458	-3.151269	10.3418919	-13.77391032	-17.03977092
3.89	389	-0.058	-0.468	-1.031	7.3338624	8.1360036	0.1718874	10.41064686	-13.69942578	-17.02258218
3.9	390	-0.047	-0.444	-1.012	2.6356068	4.8128472	3.0366774	10.5424272	-13.5504567	-17.02831176
3.91	391	-0.07	-0.396	-0.987	0.8021412	0.6302538	4.9847346	10.53669762	-13.55618628	-16.97674554
3.92	392	-0.102	-0.342	-0.954	1.4896908	-3.724227	5.2712136	10.5424272	-13.60202292	-16.9309089
3.93	393	-0.121	-0.29	-0.918	1.145916	-7.2765666	4.0680018	10.54815678	-13.67650746	-16.902261
3.94	394	-0.138	-0.242	-0.875	0.572958	-7.3911582	2.4637194	10.55388636	-13.75672158	-16.89653142
3.95	395	-0.154	-0.195	-0.851	-0.286479	-5.2712136	0.9167328	10.55388636	-13.77391032	-16.902261
3.96	396	-0.173	-0.15	-0.852	-0.9740286	-3.4950438	-0.6302538	10.54815678	-13.80255822	-16.91372016
3.97	397	-0.19	-0.125	-0.857	-0.859437	-1.7761698	-2.1772404	10.5424272	-13.81974696	-16.94236806
3.98	398	-0.173	-0.116	-0.864	0.5156622	-0.0572958	-2.6356068	10.55388636	-13.81401738	-16.97101596
3.99	399	-0.157	-0.138	-0.869	2.7501984	0.1145916	-1.3750992	10.58826384	-13.8082878	-16.98247512
4	400	-0.167	-0.175	-0.854	2.9793816	0.8021412	0.1145916	10.62264132	-13.76818074	-16.9882047
4.01	401	-0.194	-0.192	-0.852	0.4010706	2.6356068	0.6302538	10.62264132	-13.74526242	-16.97101596
4.02	402	-0.226	-0.18	-0.865	-1.145916	2.86479	-0.3437748	10.60545258	-13.71661452	-16.97101596
4.03	403	-0.263	-0.155	-0.91	-0.1145916	1.8334656	-2.4064236	10.61118216	-13.6936962	-16.9882047
4.04	404	-0.32	-0.147	-0.939	2.3491278	-0.9167328	-5.0420304	10.64555964	-13.6936962	-17.0455005
4.05	405	-0.354	-0.16	-0.947	2.291832	0.572958	-7.6776372	10.66847796	-13.74526242	-17.1027963
4.06	406	-0.358	-0.176	-0.967	1.0886202	6.1306506	-9.6829902	10.70285544	-13.67077788	-17.18874
4.07	407	-0.349	-0.199	-0.986	1.3750992	9.453807	-10.3705398	10.73150334	-13.55618628	-17.2746837
4.08	408	-0.339	-0.225	-0.981	2.7501984	8.3651868	-9.5111028	10.77733998	-13.45878342	-17.34916824
4.09	409	-0.325	-0.233	-0.964	2.9793816	5.3858052	-7.2765666	10.82317662	-13.39002846	-17.41219362
4.1	410	-0.324	-0.215	-0.96	1.7761698	2.9220858	-5.3285094	10.85182452	-13.4358651	-17.4465711
4.11	411	-0.324	-0.185	-0.962	0.7448454	1.0313244	-3.2085648	10.86328368	-13.41867636	-17.475219
4.12	412	-0.313	-0.164	-0.974	1.0886202	-0.0572958	-0.9167328	10.88047242	-13.41867636	-17.48667816
4.13	413	-0.277	-0.163	-0.975	1.4896908	-0.9167328	1.5469866	10.89193158	-13.43013552	-17.46948942
4.14	414	-0.232	-0.162	-0.959	0.7448454	-1.5469866	4.2398892	10.89193158	-13.45305384	-17.42938236
4.15	415	-0.216	-0.151	-0.924	-0.1718874	-2.7501984	6.016059	10.83463578	-13.4931609	-17.36635698
4.16	416	-0.213	-0.134	-0.905	-0.6302538	-3.437748	6.2452422	10.81744704	-13.53899754	-17.31479076
4.17	417	-0.223	-0.116	-0.903	-0.6875496	-3.9534102	5.0420304	10.8002583	-13.58483418	-17.26895412
4.18	418	-0.239	-0.113	-0.916	-0.1718874	-4.0680018	3.2085648	10.79452872	-13.63067082	-17.2460358
4.19	419	-0.251	-0.124	-0.928	0.4583664	-3.6096354	1.6615782	10.8002583	-13.67077788	-17.24030622
4.2	420	-0.267	-0.142	-0.931	0.9740286	-2.8074942	0.6875496	10.69712586	-13.80255822	-17.19446958
4.21	421	-0.271	-0.159	-0.938	0.859437	-0.1718874	0.1718874	10.70285544	-13.80255822	-17.19446958
4.22	422	-0.266	-0.169	-0.953	0.4583664	2.9793816	-0.0572958	10.70858502	-13.77391032	-17.18874
4.23	423	-0.255	-0.184	-0.969	-0.2291832	4.870143	-0.1145916	10.70285544	-13.72807368	-17.17728084
4.24	424	-0.232	-0.202	-0.97	-1.3750992	5.5576926	0.0572958	10.6856667	-13.67650746	-17.16582168
4.25	425	-0.23	-0.207	-0.957	-3.2085648	5.7868758	-0.0572958	10.65128922	-13.61921166	-17.15436252
4.26	426	-0.238	-0.198	-0.949	-3.9534102	6.0733548	-1.2032118	10.61118216	-13.55618628	-17.15436252
4.27	427	-0.236	-0.188	-0.951	-3.6669312	5.9587632	-2.3491278	10.5710751	-13.49889048	-17.16582168
4.28	428	-0.235	-0.188	-0.946	-3.4950438	5.156622	-3.0939732	10.5424272	-13.44159468	-17.18301042
4.29	429	-0.222	-0.193	-0.936	-4.1825934	5.156622	-3.151269	10.50232014	-13.38429888	-17.20592874
4.3	430	-0.197	-0.195	-0.937	-4.870143	4.6409598	-2.5210152	10.4564835	-13.30981434	-17.22311748
4.31	431	-0.171	-0.191	-0.932	-5.443101	3.3804522	-1.5469866	10.40491728	-13.27543686	-17.22884706
4.32	432	-0.155	-0.181	-0.933	-5.72958	2.8074942	-0.6302538	10.3418919	-13.24678896	-17.22884706
4.33	433	-0.153	-0.17	-0.942	-6.0733548	2.0626488	0	10.27886652	-13.22960022	-17.22884706
4.34	434	-0.162	-0.159	-0.947	-6.1879464	0.8021412	0	10.21584114	-13.22387064	-17.22311748
4.35	435	-0.174	-0.15	-0.943	-5.2712136	-0.4010706	-0.2291832	10.1127087	-13.178034	-17.22311748
4.36	436	-0.187	-0.145	-0.941	-3.7815228	-1.6042824	-0.6302538	10.07833122	-13.18949316	-17.23457664
4.37	437	-0.194	-0.146	-0.94	-2.6356068	-2.1199446	-0.9167328	10.0554129	-13.21241148	-17.2460358
4.38	438	-0.196	-0.151	-0.949	-1.718874	-1.8334656	-1.0886202	10.03822416	-13.22960022	-17.26322454
4.39	439	-0.195	-0.157	-0.952	-1.0313244	-1.5469866	-1.0313244	10.03249458	-13.24105938	-17.2746837
4.4	440	-0.198	-0.164	-0.948	-0.4010706	-1.4896908	-0.9167328	9.96373962	-13.18949316	-17.28041328
4.41	441	-0.205	-0.17	-0.949	0.3437748	-1.8334656	-1.145916	9.9694692	-13.20095232	-17.29760202
4.42	442	-0.213	-0.176	-0.954	1.2032118	-2.3491278	-1.145916	9.98665794	-13.22387064	-17.31479076
4.43	443	-0.223	-0.18	-0.957	1.6042824	-2.9793816	-0.9167328	10.00384668	-13.25251854	-17.3319795
4.44	444	-0.234	-0.183	-0.957	1.718874	-3.8961144	-0.8021412	10.026765	-13.28689602	-17.34916824
4.45	445	-0.241	-0.185	-0.955	1.4896908	-4.0680018	-0.6875496	10.04395374	-13.3499214	-17.3606274
4.46	446	-0.24	-0.185	-0.955	0.4010706	-3.0366774	-0.4010706	10.04968332	-13.3785693	-17.37208656
4.47	447	-0.238	-0.178	-0.959	-0.5156622	-1.8907614	0.1145916	10.04395374	-13.39575804	-17.37208656
4.48	448	-0.237	-0.168	-0.962	-1.2032118	-1.2605076	0.286479	10.03249458	-13.4072172	-17.37208656
4.49	449	-0.236	-0.161	-0.961	-1.432395	-0.7448454	0.1145916	10.02103542	-13.41867636	-17.37208656
4.5	450	-0.237	-0.156	-0.954	-1.2032118	-0.4010706	-0.0572958	9.83195928	-13.48743132	-17.32052034
4.51	451	-0.242	-0.154	-0.948	-0.6875496	0	-0.1145916	9.8262297	-13.48743132	-17.32624992
4.52	452	-0.246	-0.151	-0.94	0.0572958	0.286479	-0.1145916	9.8262297	-13.48170174	-17.32624992
4.53	453	-0.245	-0.151	-0.935	0.859437	0.286479	0.1718874	9.83195928	-13.48170174	-17.32052034
4.54	454	-0.238	-0.152	-0.93	1.3178034	0.4010706	0.6875496	9.84341844	-13.47597216	-17.31479076
4.55	455	-0.235	-0.156	-0.931	1.5469866	0.6302538	1.2605076	9.81477054	-13.49889048	-17.28614286
4.56	456	-0.234	-0.161	-0.936	1.718874	0.1718874	1.6042824	9.8262297	-13.49889048	-17.26895412
4.57	457	-0.235	-0.162	-0.941	2.1199446	-0.4583664	1.3750992	9.84341844	-13.50462006	-17.25749496
4.58	458	-0.236	-0.164	-0.945	2.4637194	-0.859437	0.7448454	9.87206634	-13.51607922	-17.25176538
4.59	459	-0.236	-0.169	-0.944	2.7501984	-1.0313244	0.2291832	9.90071424	-13.52753838	-17.25176538
4.6	460	-0.236	-0.173	-0.946	3.0939732	-0.9167328	-0.0572958	9.9121734	-13.5504567	-17.2460358
4.61	461	-0.236	-0.179	-0.946	3.2085648	-0.5156622	-0.1145916	9.94655088	-13.5504567	-17.25176538
4.62	462	-0.236	-0.183	-0.947	3.0939732	-0.1718874	0.1718874	9.97519878	-13.55618628	-17.2460358
4.63	463	-0.235	-0.183	-0.949	2.7501984	-0.3437748	0.5156622	10.00384668	-13.55618628	-17.2460358
4.64	464	-0.233	-0.183	-0.948	1.432395	-0.572958	0.9740286	10.01530584	-13.56764544	-17.23457664
4.65	465	-0.23	-0.181	-0.955	0.1718874	-0.7448454	1.432395	9.98092836	-13.57337502	-17.21165832
4.66	466	-0.233	-0.174	-0.956	-0.3437748	-1.0886202	1.432395	9.97519878	-13.58483418	-17.20019916
4.67	467	-0.231	-0.166	-0.958	-0.2291832	-1.2605076	1.2605076	9.9694692	-13.60202292	-17.18874
4.68	468	-0.234	-0.167	-0.963	0	-1.145916	0.8021412	9.9694692	-13.61348208	-17.18301042
4.69	469	-0.234	-0.169	-0.963	-0.0572958	-0.6875496	0.572958	9.9694692	-13.61921166	-17.18301042
4.7	470	-0.233	-0.174	-0.963	0	-0.3437748	0.3437748	9.83195928	-13.61348208	-17.14863294
4.71	471	-0.227	-0.175	-0.966	0	0	0.1718874	9.83195928	-13.61348208	-17.14290336
4.72	472	-0.221	-0.177	-0.964	0.3437748	0.1145916	0.1718874	9.83195928	-13.61348208	-17.14290336
4.73	473	-0.22	-0.174	-0.961	0.4583664	0.4583664	0.1718874	9.83768886	-13.6077525	-17.13717378
4.74	474	-0.222	-0.169	-0.959	0.6875496	0.6875496	0.0572958	9.84341844	-13.60202292	-17.13717378
4.75	475	-0.224	-0.168	-0.953	0.6302538	0.4583664	0	9.74601558	-13.56764544	-17.11425546
4.76	476	-0.223	-0.17	-0.951	0.286479	0.286479	0	9.75174516	-13.56191586	-17.11425546
4.77	477	-0.221	-0.169	-0.949	-0.0572958	0.7448454	0	9.74601558	-13.55618628	-17.11425546
4.78	478	-0.218	-0.171	-0.952	-0.3437748	1.0886202	-0.1718874	9.74601558	-13.54472712	-17.11425546
4.79	479	-0.218	-0.173	-0.948	-0.859437	1.2605076	-0.286479	9.73455642	-13.53326796	-17.11425546
4.8	480	-0.22	-0.172	-0.947	-1.8907614	0.6875496	-0.4583664	9.68871978	-13.51034964	-17.11425546
4.81	481	-0.22	-0.167	-0.95	-2.2345362	0	-0.5156622	9.66580146	-13.51034964	-17.11998504
4.82	482	-0.216	-0.166	-0.954	-2.0626488	-1.0886202	-0.2291832	9.64861272	-13.5218088	-17.11998504
4.83	483	-0.219	-0.164	-0.952	-1.8334656	-1.718874	0	9.6256944	-13.53899754	-17.12571462
4.84	484	-0.221	-0.164	-0.955	-1.7761698	-1.2032118	0.1145916	9.60850566	-13.5504567	-17.12571462
4.85	485	-0.22	-0.164	-0.964	-1.5469866	-0.8021412	0.1145916	9.54548028	-13.53326796	-17.11998504
4.86	486	-0.222	-0.166	-0.972	-1.145916	-0.9740286	0.2291832	9.53402112	-13.53899754	-17.11998504
4.87	487	-0.225	-0.171	-0.97	-0.8021412	-1.0886202	0.1718874	9.52256196	-13.5504567	-17.11998504
4.88	488	-0.225	-0.176	-0.971	-0.572958	-0.859437	0.1145916	9.51683238	-13.56191586	-17.11998504
4.89	489	-0.231	-0.176	-0.969	-0.4010706	-0.6875496	0	9.5111028	-13.56764544	-17.11998504
4.9	490	-0.233	-0.175	-0.966	-0.6302538	-0.4583664	-0.1145916	9.47672532	-13.5791046	-17.11425546
4.91	491	-0.233	-0.17	-0.964	-0.9167328	-0.5156622	-0.1145916	9.47099574	-13.58483418	-17.11425546
4.92	492	-0.233	-0.166	-0.963	-1.2605076	-0.6875496	-0.3437748	9.45953658	-13.59056376	-17.11998504
4.93	493	-0.232	-0.166	-0.957	-1.3178034	-0.9740286	-0.3437748	9.44234784	-13.59629334	-17.12571462
4.94	494	-0.228	-0.166	-0.952	-1.432395	-0.9740286	-0.3437748	9.43088868	-13.6077525	-17.1314442
4.95	495	-0.225	-0.164	-0.948	-1.5469866	-0.9167328	-0.3437748	9.38505204	-13.61348208	-17.1314442
4.96	496	-0.225	-0.163	-0.949	-1.3750992	-0.9740286	-0.3437748	9.37359288	-13.61921166	-17.13717378
4.97	497	-0.228	-0.16	-0.948	-1.0886202	-1.2032118	-0.572958	9.3678633	-13.63067082	-17.14863294
4.98	498	-0.232	-0.162	-0.947	-0.8021412	-1.3750992	-0.572958	9.36213372	-13.64212998	-17.15436252
4.99	499	-0.232	-0.163	-0.946	-0.572958	-1.0313244	-0.4583664	9.35640414	-13.65358914	-17.1600921
5	500	-0.233	-0.164	-0.945	-0.572958	-0.4583664	-0.4010706	9.29910834	-13.67650746	-17.15436252
5.01	501	-0.23	-0.165	-0.945	-0.572958	-0.0572958	-0.286479	9.29337876	-13.67650746	-17.1600921
5.02	502	-0.226	-0.167	-0.944	-0.6875496	-0.1145916	-0.1145916	9.28764918	-13.67650746	-17.1600921
5.03	503	-0.225	-0.171	-0.94	-0.859437	-0.2291832	-0.1145916	9.2819196	-13.67650746	-17.1600921
5.04	504	-0.227	-0.173	-0.941	-0.859437	-0.286479	-0.1145916	9.27046044	-13.68223704	-17.16582168
5.05	505	-0.23	-0.172	-0.945	-1.145916	-0.1718874	-0.0572958	9.24754212	-13.68796662	-17.1600921
5.06	506	-0.233	-0.169	-0.947	-1.5469866	-0.1718874	0	9.23035338	-13.68796662	-17.1600921
5.07	507	-0.238	-0.164	-0.948	-1.6042824	-0.286479	-0.1145916	9.21316464	-13.6936962	-17.1600921
5.08	508	-0.239	-0.161	-0.951	-1.2605076	-0.1145916	-0.2291832	9.20170548	-13.6936962	-17.16582168
5.09	509	-0.237	-0.163	-0.952	-0.8021412	-0.0572958	-0.3437748	9.1959759	-13.6936962	-17.16582168
5.1	510	-0.234	-0.165	-0.953	-0.3437748	0.1145916	-0.4010706	9.13295052	-13.70515536	-17.1600921
5.11	511	-0.231	-0.168	-0.954	0	0.1718874	-0.3437748	9.13295052	-13.69942578	-17.1600921
5.12	512	-0.229	-0.17	-0.953	0.1718874	0.0572958	-0.286479	9.13295052	-13.69942578	-17.16582168
5.13	513	-0.228	-0.169	-0.949	0.2291832	-0.1145916	-0.1718874	9.1386801	-13.69942578	-17.16582168
5.14	514	-0.228	-0.168	-0.945	0.1718874	0	-0.1145916	9.1386801	-13.69942578	-17.16582168
5.15	515	-0.225	-0.166	-0.942	0.0572958	0.4583664	0	9.09284346	-13.6650483	-17.1600921
5.16	516	-0.223	-0.164	-0.94	0	0.8021412	-0.0572958	9.09284346	-13.65931872	-17.1600921
5.17	517	-0.221	-0.162	-0.937	-0.4010706	0.9740286	0	9.08711388	-13.64785956	-17.1600921
5.18	518	-0.223	-0.161	-0.939	-0.4583664	0.9740286	-0.1145916	9.0813843	-13.6364004	-17.15436252
5.19	519	-0.228	-0.159	-0.94	-0.3437748	0.8021412	-0.3437748	9.0813843	-13.63067082	-17.1600921
5.2	520	-0.229	-0.161	-0.943	-0.1145916	0.859437	-0.5156622	9.0527364	-13.61921166	-17.15436252
5.21	521	-0.229	-0.165	-0.948	0	0.6875496	-0.4583664	9.0527364	-13.61348208	-17.1600921
5.22	522	-0.23	-0.167	-0.95	0	0.5156622	-0.286479	9.0527364	-13.6077525	-17.1600921
5.23	523	-0.233	-0.168	-0.948	-0.1718874	0.4583664	-0.0572958	9.0527364	-13.60202292	-17.1600921
5.24	524	-0.237	-0.166	-0.948	-0.1718874	0.2291832	0	9.04700682	-13.59629334	-17.1600921
5.25	525	-0.238	-0.165	-0.946	-0.4010706	0.4010706	0	9.01262934	-13.62494124	-17.14863294
5.26	526	-0.234	-0.159	-0.947	-0.8021412	1.145916	0	9.00117018	-13.61348208	-17.14863294
5.27	527	-0.232	-0.159	-0.951	-0.7448454	1.0313244	0	8.9954406	-13.60202292	-17.14290336
5.28	528	-0.232	-0.162	-0.953	-0.7448454	0.4583664	0	8.98398144	-13.59629334	-17.14290336
5.29	529	-0.235	-0.164	-0.956	-0.6302538	0.4583664	-0.1145916	8.97825186	-13.59056376	-17.14290336
5.3	530	-0.234	-0.17	-0.957	-0.1718874	0.4010706	-0.4010706	8.98971102	-13.6077525	-17.14863294
5.31	531	-0.232	-0.177	-0.947	-0.286479	0.286479	-0.4583664	8.98398144	-13.60202292	-17.15436252
5.32	532	-0.231	-0.178	-0.938	-0.9740286	0.6875496	-0.572958	8.97825186	-13.59629334	-17.15436252
5.33	533	-0.229	-0.176	-0.937	-1.5469866	0.5156622	-0.4010706	8.96106312	-13.59056376	-17.1600921
5.34	534	-0.223	-0.166	-0.939	-1.7761698	0.0572958	-0.1145916	8.94387438	-13.59056376	-17.1600921
5.35	535	-0.22	-0.156	-0.944	-1.5469866	0	0.1718874	8.880849	-13.57337502	-17.14863294
5.36	536	-0.222	-0.153	-0.949	-1.3178034	0	0.1718874	8.86938984	-13.57337502	-17.14863294
5.37	537	-0.227	-0.154	-0.955	-1.0313244	-0.0572958	0.1718874	8.85793068	-13.57337502	-17.14863294
5.38	538	-0.228	-0.158	-0.955	-0.6875496	0.0572958	0.0572958	8.8522011	-13.57337502	-17.14290336
5.39	539	-0.226	-0.163	-0.952	-0.286479	0.286479	0.0572958	8.84647152	-13.56764544	-17.14290336
5.4	540	-0.225	-0.164	-0.949	0	0.4583664	0.0572958	8.81209404	-13.5504567	-17.13717378
5.41	541	-0.226	-0.165	-0.949	0.286479	0.4583664	0.0572958	8.81209404	-13.54472712	-17.1314442
5.42	542	-0.227	-0.163	-0.949	0.286479	0.3437748	0.1718874	8.81782362	-13.53899754	-17.1314442
5.43	543	-0.229	-0.16	-0.949	0.1145916	0.4583664	0.2291832	8.81782362	-13.53899754	-17.12571462
5.44	544	-0.231	-0.156	-0.95	0	0.572958	0.0572958	8.81782362	-13.53326796	-17.12571462
5.45	545	-0.229	-0.154	-0.949	0	0.8021412	0	8.76052782	-13.53326796	-17.10852588
5.46	546	-0.229	-0.158	-0.949	-0.0572958	0.8021412	-0.1718874	8.76052782	-13.52753838	-17.10852588
5.47	547	-0.228	-0.161	-0.951	0	0.6302538	-0.1145916	8.76052782	-13.5218088	-17.10852588
5.48	548	-0.226	-0.164	-0.952	0	0.2291832	0	8.76052782	-13.51607922	-17.10852588
5.49	549	-0.225	-0.165	-0.952	0.1145916	-0.0572958	0.1145916	8.76052782	-13.51607922	-17.10852588
5.5	550	-0.228	-0.167	-0.949	0	0.0572958	0.3437748	8.76052782	-13.53326796	-17.1027963
5.51	551	-0.232	-0.166	-0.946	-0.2291832	0.3437748	0.4583664	8.75479824	-13.52753838	-17.09706672
5.52	552	-0.236	-0.164	-0.945	-0.4010706	0.6875496	0.4583664	8.74906866	-13.5218088	-17.09133714
5.53	553	-0.235	-0.163	-0.945	-0.4010706	1.0886202	0.286479	8.74333908	-13.51034964	-17.08560756
5.54	554	-0.234	-0.165	-0.942	-0.5156622	1.3178034	0.2291832	8.7376095	-13.49889048	-17.07987798
5.55	555	-0.231	-0.166	-0.944	-0.859437	1.718874	0.1718874	8.72615034	-13.48743132	-17.0741484
5.56	556	-0.227	-0.164	-0.949	-1.0886202	1.7761698	0.1718874	8.71469118	-13.47024258	-17.06841882
5.57	557	-0.226	-0.163	-0.952	-1.145916	1.3750992	0.1145916	8.70323202	-13.45878342	-17.06841882
5.58	558	-0.229	-0.165	-0.953	-0.859437	0.9167328	0.1145916	8.69177286	-13.44732426	-17.06268924
5.59	559	-0.231	-0.167	-0.954	-0.6875496	0.8021412	0.1145916	8.68604328	-13.44159468	-17.06268924
5.6	560	-0.228	-0.168	-0.955	-0.5156622	1.0886202	0	8.67458412	-13.42440594	-17.05695966
5.61	561	-0.224	-0.165	-0.955	-0.4583664	1.3178034	-0.0572958	8.67458412	-13.41294678	-17.05695966
5.62	562	-0.22	-0.162	-0.958	-0.5156622	0.9740286	-0.0572958	8.66885454	-13.40148762	-17.05695966
5.63	563	-0.219	-0.156	-0.958	-0.572958	0.572958	0	8.65739538	-13.39575804	-17.05695966
5.64	564	-0.219	-0.152	-0.956	-0.572958	0.5156622	0	8.6516658	-13.39002846	-17.05695966
5.65	565	-0.219	-0.151	-0.955	-0.8021412	0.572958	-0.0572958	8.60582916	-13.36711014	-17.0455005
5.66	566	-0.219	-0.154	-0.954	-0.9167328	0.4010706	-0.1145916	8.60009958	-13.36138056	-17.0455005
5.67	567	-0.219	-0.158	-0.95	-0.9167328	0.0572958	-0.0572958	8.58864042	-13.36138056	-17.05123008
5.68	568	-0.216	-0.16	-0.946	-0.8021412	-0.1145916	0	8.58291084	-13.36138056	-17.05123008
5.69	569	-0.216	-0.162	-0.946	-0.8021412	0	0.0572958	8.57145168	-13.36711014	-17.0455005
5.7	570	-0.216	-0.163	-0.946	-1.0313244	0	0.1145916	8.5657221	-13.33846224	-17.05123008
5.71	571	-0.215	-0.164	-0.946	-1.145916	-0.1145916	0	8.55426294	-13.34419182	-17.05123008
5.72	572	-0.214	-0.164	-0.945	-1.0313244	0	-0.1145916	8.54280378	-13.34419182	-17.05123008
5.73	573	-0.214	-0.162	-0.945	-0.9740286	0	-0.1145916	8.53134462	-13.34419182	-17.05123008
5.74	574	-0.219	-0.157	-0.944	-0.8021412	0	-0.2291832	8.52561504	-13.34419182	-17.05695966
5.75	575	-0.222	-0.154	-0.946	-0.572958	0.0572958	-0.286479	8.48550798	-13.33846224	-17.05123008
5.76	576	-0.225	-0.155	-0.949	-0.4583664	0.0572958	-0.2291832	8.48550798	-13.33846224	-17.05123008
5.77	577	-0.223	-0.157	-0.952	-0.5156622	0.286479	-0.2291832	8.4797784	-13.33846224	-17.05695966
5.78	578	-0.218	-0.159	-0.953	-0.4010706	0.6302538	-0.2291832	8.47404882	-13.32700308	-17.05695966
5.79	579	-0.215	-0.163	-0.951	-0.5156622	0.1718874	0	8.46831924	-13.32700308	-17.05695966
5.8	580	-0.222	-0.163	-0.95	-0.7448454	-0.3437748	0	8.46258966	-13.33846224	-17.05695966
5.81	581	-0.232	-0.164	-0.946	-0.7448454	-0.572958	-0.4583664	8.45686008	-13.34419182	-17.06268924
5.82	582	-0.232	-0.167	-0.947	-0.5156622	-0.3437748	-0.9167328	8.45686008	-13.34419182	-17.0741484
5.83	583	-0.226	-0.17	-0.938	-0.4583664	-0.6302538	-0.859437	8.4511305	-13.3499214	-17.08560756
5.84	584	-0.228	-0.167	-0.929	-0.9167328	-0.5156622	-0.5156622	8.44540092	-13.35565098	-17.09133714
5.85	585	-0.232	-0.159	-0.929	-1.0886202	-0.6302538	-0.3437748	8.42821218	-13.3785693	-17.09133714
5.86	586	-0.226	-0.149	-0.933	-1.145916	-0.9167328	-0.1145916	8.41675302	-13.38429888	-17.09706672
5.87	587	-0.224	-0.145	-0.941	-0.6875496	-0.9740286	0	8.41102344	-13.39575804	-17.09706672
5.88	588	-0.228	-0.149	-0.947	-0.0572958	-0.7448454	0.0572958	8.41102344	-13.40148762	-17.09706672
5.89	589	-0.232	-0.157	-0.949	0.286479	-0.4010706	0	8.41675302	-13.4072172	-17.09706672
5.9	590	-0.232	-0.162	-0.951	0.5156622	0.0572958	-0.1145916	8.42821218	-13.42440594	-17.1027963
5.91	591	-0.226	-0.164	-0.952	0.7448454	0.4010706	-0.1718874	8.43967134	-13.41867636	-17.1027963
5.92	592	-0.226	-0.16	-0.954	0.6875496	0.6302538	-0.1145916	8.44540092	-13.41294678	-17.1027963
5.93	593	-0.229	-0.155	-0.954	0.572958	0.8021412	-0.1718874	8.4511305	-13.40148762	-17.1027963
5.94	594	-0.231	-0.153	-0.954	0.3437748	0.8021412	-0.1718874	8.45686008	-13.39575804	-17.1027963
5.95	595	-0.231	-0.152	-0.953	0.1718874	0.6302538	-0.2291832	8.4224826	-13.41867636	-17.09133714
5.96	596	-0.233	-0.155	-0.953	0.1718874	0.5156622	-0.1145916	8.4224826	-13.41294678	-17.09706672
5.97	597	-0.232	-0.157	-0.954	0.1145916	0.5156622	0	8.4224826	-13.41294678	-17.09133714
5.98	598	-0.231	-0.157	-0.955	0	0.6875496	0.2291832	8.4224826	-13.40148762	-17.09133714
5.99	599	-0.23	-0.159	-0.958	-0.0572958	0.859437	0.2291832	8.4224826	-13.39575804	-17.08560756
6	600	-0.227	-0.16	-0.958	0.1718874	0.8021412	0.1718874	8.41102344	-13.39002846	-17.07987798
6.01	601	-0.225	-0.157	-0.956	0.4583664	0.9167328	0.1145916	8.41675302	-13.3785693	-17.0741484
6.02	602	-0.225	-0.157	-0.955	0.7448454	1.145916	0.0572958	8.4224826	-13.36711014	-17.0741484
6.03	603	-0.223	-0.159	-0.954	0.8021412	1.145916	0.0572958	8.43394176	-13.35565098	-17.06841882
6.04	604	-0.225	-0.16	-0.953	0.6875496	0.859437	-0.0572958	8.43967134	-13.3499214	-17.06841882
6.05	605	-0.22	-0.161	-0.953	0.8021412	0.4010706	0	8.44540092	-13.32700308	-17.06841882
6.06	606	-0.217	-0.16	-0.948	0.6875496	0.2291832	0.286479	8.4511305	-13.3212735	-17.06841882
6.07	607	-0.216	-0.16	-0.945	0.6302538	0	0.4583664	8.45686008	-13.3212735	-17.06268924
6.08	608	-0.216	-0.161	-0.942	0.4010706	0	0.5156622	8.45686008	-13.32700308	-17.05695966
6.09	609	-0.217	-0.16	-0.944	0.3437748	0.1145916	0.5156622	8.46258966	-13.32700308	-17.05123008
6.1	610	-0.217	-0.16	-0.95	0.5156622	0.0572958	0.286479	8.45686008	-13.30408476	-17.0455005
6.11	611	-0.217	-0.161	-0.952	0.572958	-0.1718874	0.1145916	8.46258966	-13.30408476	-17.0455005
6.12	612	-0.219	-0.164	-0.952	0.572958	-0.286479	0.0572958	8.46831924	-13.30981434	-17.0455005
6.13	613	-0.219	-0.166	-0.951	0.572958	-0.286479	0.1145916	8.47404882	-13.30981434	-17.0455005
6.14	614	-0.22	-0.167	-0.951	0.4583664	0.0572958	0.1718874	8.4797784	-13.30981434	-17.03977092
6.15	615	-0.219	-0.165	-0.952	0.286479	0.286479	0.2291832	8.4797784	-13.2926256	-17.03977092
6.16	616	-0.221	-0.161	-0.954	0.1145916	0.1145916	0.1718874	8.4797784	-13.2926256	-17.03977092
6.17	617	-0.221	-0.159	-0.954	-0.2291832	0.1145916	0	8.4797784	-13.28689602	-17.03977092
6.18	618	-0.218	-0.156	-0.953	-0.4583664	0.0572958	-0.2291832	8.47404882	-13.28689602	-17.03977092
6.19	619	-0.216	-0.156	-0.951	-0.5156622	-0.0572958	-0.286479	8.46831924	-13.28689602	-17.0455005
6.2	620	-0.217	-0.157	-0.947	-0.5156622	-0.3437748	-0.1718874	8.4511305	-13.27543686	-17.0455005
6.21	621	-0.218	-0.157	-0.948	-0.5156622	-0.5156622	-0.0572958	8.44540092	-13.28116644	-17.0455005
6.22	622	-0.219	-0.156	-0.948	-0.286479	-0.572958	0.1145916	8.43967134	-13.28689602	-17.0455005
6.23	623	-0.221	-0.156	-0.947	-0.1718874	-0.5156622	0.286479	8.43967134	-13.2926256	-17.0455005
6.24	624	-0.222	-0.155	-0.95	-0.1145916	-0.4010706	0.2291832	8.43967134	-13.29835518	-17.03977092
6.25	625	-0.222	-0.157	-0.95	-0.2291832	-0.4010706	0.0572958	8.41675302	-13.28689602	-17.03977092
6.26	626	-0.22	-0.159	-0.949	-0.0572958	-0.4583664	0	8.41675302	-13.2926256	-17.03977092
6.27	627	-0.221	-0.159	-0.95	0.0572958	-0.4583664	0.0572958	8.41675302	-13.29835518	-17.03977092
6.28	628	-0.222	-0.159	-0.951	0.3437748	-0.6875496	0.0572958	8.4224826	-13.30408476	-17.03977092
6.29	629	-0.226	-0.161	-0.944	0.7448454	-1.2032118	0.286479	8.42821218	-13.31554392	-17.03977092
6.3	630	-0.229	-0.165	-0.943	0.6875496	-1.4896908	0.6302538	8.43967134	-13.33846224	-17.03404134
6.31	631	-0.221	-0.16	-0.946	0.9740286	-1.3750992	0.9740286	8.4511305	-13.35565098	-17.02831176
6.32	632	-0.215	-0.158	-0.951	0.9167328	-1.0313244	0.7448454	8.45686008	-13.36711014	-17.02258218
6.33	633	-0.218	-0.164	-0.95	0.1718874	-0.5156622	0.286479	8.46258966	-13.37283972	-17.02258218
6.34	634	-0.224	-0.165	-0.947	-0.8021412	-0.2291832	-0.2291832	8.4511305	-13.37283972	-17.02258218
6.35	635	-0.225	-0.163	-0.95	-1.3178034	-0.1718874	-0.6302538	8.43967134	-13.3785693	-17.02831176
6.36	636	-0.225	-0.162	-0.947	-1.2605076	-0.5156622	-0.6875496	8.42821218	-13.3785693	-17.03977092
6.37	637	-0.224	-0.164	-0.946	-1.3178034	-0.5156622	-0.572958	8.41675302	-13.38429888	-17.0455005
6.38	638	-0.222	-0.165	-0.955	-1.3750992	-0.6875496	0	8.40529386	-13.39002846	-17.0455005
6.39	639	-0.219	-0.162	-0.96	-1.3750992	-1.3750992	0.4010706	8.38810512	-13.4072172	-17.0455005
6.4	640	-0.223	-0.157	-0.96	-0.859437	-1.4896908	0.6875496	8.37664596	-13.41867636	-17.03977092
6.41	641	-0.232	-0.153	-0.967	-0.4010706	-0.9740286	0.572958	8.37091638	-13.43013552	-17.03404134
6.42	642	-0.237	-0.141	-0.981	0.1718874	-0.572958	0.1718874	8.37091638	-13.4358651	-17.03404134
6.43	643	-0.233	-0.144	-0.986	0.6875496	-0.286479	-0.0572958	8.37664596	-13.44159468	-17.03404134
6.44	644	-0.229	-0.154	-0.991	0.6875496	-0.1718874	0.0572958	8.38810512	-13.44159468	-17.03404134
6.45	645	-0.227	-0.172	-0.972	-0.1718874	-0.6875496	0	8.41675302	-13.44159468	-17.0455005
6.46	646	-0.221	-0.181	-0.948	-1.5469866	-0.6875496	-0.1718874	8.39956428	-13.44732426	-17.0455005
6.47	647	-0.222	-0.179	-0.965	-1.432395	-2.4064236	-0.1145916	8.38810512	-13.47024258	-17.05123008
6.48	648	-0.229	-0.16	-0.954	0.859437	-10.0840608	-0.2291832	8.39956428	-13.56764544	-17.0741484
6.49	649	-0.228	-0.152	-0.919	2.7501984	-15.5844576	-0.3437748	8.43967134	-13.7223441	-17.1027963
6.5	650	-0.23	-0.142	-0.868	-1.3750992	-16.9595568	-0.1145916	8.43394176	-13.88850192	-17.13717378
6.51	651	-0.231	-0.1	-0.824	-0.2291832	-15.2406828	-0.859437	8.43967134	-14.037471	-17.17155126
6.52	652	-0.242	-0.096	-0.854	0.8021412	-12.4904844	-1.8907614	8.45686008	-14.15779218	-17.21165832
6.53	653	-0.266	-0.08	-0.84	3.724227	-17.18874	-3.2085648	8.51415588	-14.31822042	-17.2746837
6.54	654	-0.246	-0.089	-0.844	10.3705398	-22.345362	-3.8388186	8.64593622	-14.53021488	-17.35489782
6.55	655	-0.251	-0.117	-0.774	11.9175264	-33.518043	-2.7501984	8.78917572	-14.85107136	-17.4465711
6.56	656	-0.222	-0.087	-0.771	6.8182002	-31.2835068	-5.9014674	8.89803774	-15.14900952	-17.56689228
