TimeStamp(s)	FrameCounter	AccX	AccY	AccZ	GyrX	GyrY	GyrZ	EulerX	EulerY	EulerZ
0.01	1	0.056	-1.004	0.021	-8.3651868	1.8907614	-1.4896908	92.58428322	2.02254174	-20.38011606
0.02	2	0.056	-1.009	0.019	-8.2505952	2.005353	-1.4896908	92.49833952	2.03973048	-20.36292732
0.03	3	0.055	-1.013	0.02	-7.7922288	1.8907614	-1.5469866	92.4181254	2.05118964	-20.340009
0.04	4	0.061	-1.013	0.023	-7.5630456	1.6042824	-1.6615782	92.34364086	2.06837838	-20.32282026
0.05	5	0.069	-1.009	0.021	-7.9641162	1.0886202	-1.9480572	92.246238	2.09702628	-20.32282026
0.06	6	0.078	-1	0.016	-8.1360036	1.5469866	-2.6356068	92.16602388	2.12567418	-20.30563152
0.07	7	0.087	-0.996	0.017	-8.1360036	2.2345362	-3.2085648	92.08580976	2.15432208	-20.2827132
0.08	8	0.088	-0.998	0.006	-8.8235532	2.4637194	-3.4950438	91.99413648	2.18869956	-20.25979488
0.09	9	0.085	-1.004	0	-8.9954406	3.2085648	-3.6669312	91.9024632	2.22307704	-20.2254174
0.1	10	0.079	-1.006	0.001	-8.7089616	4.1825934	-3.437748	91.80506034	2.2631841	-20.19103992
0.11	11	0.08	-1.005	0.001	-8.307891	5.3285094	-3.0939732	91.71911664	2.291832	-20.13374412
0.12	12	0.09	-0.999	0.005	-7.8495246	6.4171296	-2.6929026	91.6446321	2.31475032	-20.07071874
0.13	13	0.107	-0.991	0.013	-7.3911582	7.8495246	-2.1199446	91.57014756	2.33193906	-19.9962342
0.14	14	0.12	-0.991	0.016	-7.2765666	9.1100322	-1.5469866	91.49566302	2.33766864	-19.90456092
0.15	15	0.123	-0.992	0.018	-6.7036086	9.740286	-0.7448454	91.42690806	2.36058696	-19.81861722
0.16	16	0.118	-0.99	0.023	-5.6149884	9.740286	0	91.36961226	2.36058696	-19.72121436
0.17	17	0.118	-0.982	0.029	-3.8388186	9.2819196	0.9740286	91.33523478	2.34339822	-19.62954108
0.18	18	0.129	-0.969	0.036	-2.5210152	8.2505952	1.432395	91.31231646	2.32620948	-19.54932696
0.19	19	0.135	-0.963	0.038	-1.718874	7.2192708	1.6042824	91.29512772	2.30329116	-19.480572
0.2	20	0.13	-0.957	0.033	-1.3750992	6.5317212	1.432395	91.27793898	2.32620948	-19.42900578
0.21	21	0.123	-0.957	0.028	-0.1718874	6.9327918	0.9740286	91.27793898	2.31475032	-19.36025082
0.22	22	0.121	-0.958	0.03	1.0886202	7.6776372	0.4583664	91.28939814	2.30329116	-19.28576628
0.23	23	0.123	-0.958	0.027	2.291832	7.9068204	0.1145916	91.31804604	2.29756158	-19.20555216
0.24	24	0.125	-0.956	0.024	3.6669312	7.5057498	0	91.3581531	2.29756158	-19.13106762
0.25	25	0.128	-0.956	0.02	5.3858052	6.1306506	0	91.40398974	2.32620948	-19.0795014
0.26	26	0.135	-0.956	0.017	6.302538	4.7555514	0.4583664	91.4727447	2.3204799	-19.03366476
0.27	27	0.142	-0.958	0.007	6.9327918	3.2085648	1.145916	91.54149966	2.30329116	-18.99928728
0.28	28	0.144	-0.963	-0.005	7.3338624	1.3750992	1.6042824	91.6159842	2.28610242	-18.98782812
0.29	29	0.139	-0.97	-0.013	7.5057498	-0.572958	1.4896908	91.69619832	2.27464326	-18.9935577
0.3	30	0.135	-0.978	-0.014	7.2765666	-2.578311	0.859437	91.74776454	2.30902074	-19.03366476
0.31	31	0.131	-0.991	-0.019	6.589017	-4.4117766	0.0572958	91.81078992	2.30902074	-19.07377182
0.32	32	0.124	-1.01	-0.021	5.6722842	-6.0733548	-0.9167328	91.86808572	2.3204799	-19.13106762
0.33	33	0.113	-1.034	-0.017	5.443101	-7.6776372	-1.2032118	91.91965194	2.33766864	-19.21128174
0.34	34	0.097	-1.062	-0.012	4.8128472	-7.6203414	-0.9167328	91.96548858	2.35485738	-19.28576628
0.35	35	0.079	-1.09	-0.016	3.4950438	-6.9900876	0.2291832	91.98267732	2.36631654	-19.35452124
0.36	36	0.062	-1.111	-0.024	1.6042824	-6.5317212	2.1772404	91.99986606	2.3491278	-19.4232762
0.37	37	0.037	-1.123	-0.028	0.4010706	-7.8495246	4.5263682	91.99986606	2.30902074	-19.49776074
0.38	38	0.001	-1.121	-0.01	1.718874	-11.2872726	6.7609044	92.0170548	2.24599536	-19.61235234
0.39	39	-0.026	-1.13	0.021	0.9167328	-15.5271618	9.5111028	92.02278438	2.16005166	-19.77278058
0.4	40	-0.052	-1.128	0.06	-6.4744254	-19.194093	13.5218088	91.95402942	2.0340009	-19.9675863
0.41	41	-0.074	-1.128	0.073	-15.8709366	-22.4026578	17.4179232	91.7878716	1.86784308	-20.1967695
0.42	42	-0.093	-1.135	0.028	-24.2934192	-24.9809688	20.5691922	91.53577008	1.67876694	-20.44887102
0.43	43	-0.104	-1.114	-0.016	-29.507337	-27.788463	22.5745452	91.23210234	1.46677248	-20.73535002
0.44	44	-0.106	-1.065	0.006	-28.5333084	-28.1322378	22.8037284	90.93989376	1.24904844	-21.02182902
0.45	45	-0.108	-0.999	0.065	-25.2674478	-25.6685184	20.9702628	90.68206266	1.04278356	-21.27966012
0.46	46	-0.109	-0.95	0.121	-22.2307704	-21.1421502	17.7044022	90.45860904	0.87089616	-21.49165458
0.47	47	-0.113	-0.937	0.155	-19.5378678	-16.1001198	15.2979786	90.25807374	0.72192708	-21.6578124
0.48	48	-0.109	-0.966	0.157	-17.9335854	-11.45916	14.610429	90.07472718	0.57868758	-21.772404
0.49	49	-0.101	-1.028	0.139	-16.3865988	-7.6203414	16.042824	89.90856936	0.42398892	-21.84688854
0.5	50	-0.095	-1.111	0.1	-15.5271618	-6.016059	18.621135	89.75960028	0.2291832	-21.90991392
0.51	51	-0.094	-1.155	0.06	-15.4125702	-6.302538	21.4286292	89.60490162	0.01718874	-21.9729393
0.52	52	-0.091	-1.131	0.027	-13.750992	-7.0473834	22.9756158	89.4673917	-0.20626488	-22.04169426
0.53	53	-0.085	-1.066	0.004	-11.0580894	-7.7922288	22.91832	89.3528001	-0.4297185	-22.12190838
0.54	54	-0.078	-0.988	0	-9.9121734	-8.59437	20.912967	89.25539724	-0.64171296	-22.2021225
0.55	55	-0.074	-0.919	0.022	-10.5424272	-8.7662574	17.3606274	89.1522648	-0.81932994	-22.2880662
0.56	56	-0.065	-0.877	0.022	-13.178034	-8.6516658	12.7196676	89.02048446	-0.9453807	-22.3740099
0.57	57	-0.067	-0.864	0.014	-16.5584862	-9.5111028	9.1100322	88.85432664	-1.03705398	-22.46568318
0.58	58	-0.071	-0.862	0.013	-17.4179232	-11.45916	6.7036086	88.68243924	-1.10580894	-22.58027478
0.59	59	-0.069	-0.886	0.03	-16.2147114	-13.0634424	5.443101	88.522011	-1.15737516	-22.71205512
0.6	60	-0.064	-0.92	0.037	-15.6417534	-13.750992	5.6149884	88.37304192	-1.22040054	-22.84956504
0.61	61	-0.065	-0.947	0.049	-14.6677248	-14.2666542	6.1879464	88.22980242	-1.28342592	-22.98707496
0.62	62	-0.076	-0.959	0.054	-13.6364004	-14.896908	6.4171296	88.09802208	-1.35218088	-23.13604404
0.63	63	-0.096	-0.961	0.065	-12.318597	-15.469866	6.2452422	87.9777009	-1.41520626	-23.2907427
0.64	64	-0.121	-0.958	0.082	-11.1153852	-14.610429	5.2712136	87.86883888	-1.46677248	-23.4339822
0.65	65	-0.147	-0.96	0.093	-10.886202	-12.318597	3.4950438	87.78289518	-1.52979786	-23.5485738
0.66	66	-0.166	-0.962	0.093	-11.4018642	-9.453807	1.3750992	87.66830358	-1.5469866	-23.64024708
0.67	67	-0.174	-0.958	0.086	-12.2040054	-6.3598338	-0.7448454	87.5479824	-1.54125702	-23.70900204
0.68	68	-0.17	-0.948	0.084	-12.4904844	-4.297185	-2.6929026	87.42193164	-1.51260912	-23.75483868
0.69	69	-0.152	-0.938	0.062	-13.1207382	-3.6669312	-4.010706	87.2901513	-1.47823164	-23.79494574
0.7	70	-0.131	-0.936	0.021	-12.4904844	-6.3598338	-4.4690724	87.16983012	-1.45531332	-23.85224154
0.71	71	-0.112	-0.95	0.005	-10.1986524	-10.7143146	-4.5263682	87.07242726	-1.40947668	-23.96110356
0.72	72	-0.093	-0.966	0.021	-7.2192708	-12.7196676	-5.3285094	87.0036723	-1.36364004	-24.0928839
0.73	73	-0.086	-0.975	0.049	-2.6929026	-12.1467096	-6.6463128	86.98075398	-1.30061466	-24.21320508
0.74	74	-0.098	-0.99	0.077	1.3178034	-10.9434978	-7.8495246	86.99794272	-1.22040054	-24.32779668
0.75	75	-0.116	-1.021	0.108	4.1825934	-8.4224826	-8.307891	87.07242726	-1.16310474	-24.4080108
0.76	76	-0.131	-1.057	0.145	5.9014674	-5.443101	-7.6776372	87.13545264	-1.0886202	-24.4653066
0.77	77	-0.14	-1.087	0.177	6.589017	-2.0626488	-6.5317212	87.2042076	-1.02559482	-24.48822492
0.78	78	-0.143	-1.09	0.174	6.589017	1.4896908	-5.72958	87.26723298	-0.96256944	-24.47676576
0.79	79	-0.15	-1.06	0.173	7.3338624	4.0680018	-5.5576926	87.34171752	-0.91100322	-24.4366587
0.8	80	-0.161	-1.028	0.179	8.6516658	6.8182002	-6.2452422	87.46776828	-0.87089616	-24.36217416
0.81	81	-0.165	-1.008	0.185	8.4797784	10.026765	-6.7036086	87.5479824	-0.8021412	-24.2647713
0.82	82	-0.165	-1.01	0.179	8.8235532	11.4018642	-6.9327918	87.6339261	-0.73338624	-24.1501797
0.83	83	-0.145	-1.026	0.114	7.7922288	13.6936962	-7.2192708	87.70841064	-0.6589017	-24.01839936
0.84	84	-0.089	-1.071	-0.002	5.3858052	16.615782	-7.3911582	87.75997686	-0.58441716	-23.85797112
0.85	85	-0.02	-1.148	-0.06	7.2765666	17.8762896	-6.0733548	87.82873182	-0.5156622	-23.68035414
0.86	86	0.006	-1.224	-0.015	14.1520626	15.469866	-3.2658606	87.97197132	-0.48128472	-23.52565548
0.87	87	0.002	-1.226	0.008	17.0168526	11.45916	-1.2032118	88.13812914	-0.46982556	-23.41106388
0.88	88	0.016	-1.187	-0.04	14.3812458	10.2559482	-0.6302538	88.28136864	-0.4583664	-23.30793144
0.89	89	0.052	-1.177	-0.098	15.183387	9.5683986	0.3437748	88.4360673	-0.46409598	-23.21052858
0.9	90	0.069	-1.176	-0.093	17.4179232	6.4171296	2.3491278	88.6079547	-0.47555514	-23.1475032
0.91	91	0.036	-1.163	-0.077	18.5638392	1.2032118	4.0680018	88.79130126	-0.5156622	-23.13604404
0.92	92	-0.042	-1.116	-0.068	18.1627686	-0.7448454	4.010706	88.9803774	-0.55576926	-23.14177362
0.93	93	-0.089	-1.074	-0.039	16.8449652	4.6982556	0.859437	89.14653522	-0.56149884	-23.0902074
0.94	94	-0.081	-1.054	-0.071	13.2926256	16.042824	-3.2658606	89.27831556	-0.53285094	-22.92977916
0.95	95	-0.071	-1.05	-0.141	7.8495246	26.2987722	-6.9900876	89.33561136	-0.46982556	-22.66621848
0.96	96	-0.038	-1.048	-0.172	1.5469866	33.9764094	-8.9954406	89.34707052	-0.38388186	-22.33390284
0.97	97	-0.008	-1.054	-0.213	-2.6929026	38.6173692	-8.2505952	89.31269304	-0.30939732	-21.95002098
0.98	98	0.005	-1.066	-0.224	-3.4950438	39.1903272	-6.0733548	89.2668564	-0.2578311	-21.56613912
0.99	99	0.015	-1.068	-0.206	-1.9480572	36.1536498	-3.2658606	89.24393808	-0.2291832	-21.21090516
1	100	0.026	-1.035	-0.169	-0.5156622	30.3094782	-0.8021412	89.20383102	-0.21772404	-20.90723742
1.01	101	0.029	-1.001	-0.149	0.6875496	25.0382646	0.6875496	89.2095606	-0.2291832	-20.66086548
1.02	102	0.027	-0.975	-0.139	0.7448454	21.772404	0.7448454	89.2095606	-0.24064236	-20.44887102
1.03	103	0.04	-0.951	-0.122	1.145916	19.5378678	-1.2032118	89.22101976	-0.2291832	-20.2540653
1.04	104	0.065	-0.938	-0.106	2.1199446	17.9908812	-4.9274388	89.2382085	-0.18334656	-20.07644832
1.05	105	0.076	-0.944	-0.101	1.432395	15.9855282	-9.2246238	89.23247892	-0.07448454	-19.92174966
1.06	106	0.069	-0.956	-0.097	0.6875496	15.2406828	-12.0894138	89.2382085	0.03437748	-19.77278058
1.07	107	0.066	-0.968	-0.092	0.859437	15.8709366	-13.8655836	89.24393808	0.1718874	-19.61808192
1.08	108	0.06	-0.968	-0.09	0.9740286	16.8449652	-14.896908	89.24966766	0.3151269	-19.4519241
1.09	109	0.053	-0.952	-0.087	0.6875496	18.1054728	-15.0114996	89.25539724	0.46409598	-19.27430712
1.1	110	0.067	-0.93	-0.069	0.1718874	19.1367972	-14.4385416	89.24966766	0.61306506	-19.09096056
1.11	111	0.077	-0.902	-0.059	-0.6875496	19.7097552	-13.6364004	89.2382085	0.75057498	-18.89615484
1.12	112	0.09	-0.883	-0.05	-2.1199446	19.194093	-12.7769634	89.22101976	0.87089616	-18.7070787
1.13	113	0.103	-0.874	-0.05	-4.2398892	17.6471064	-11.4018642	89.17518312	0.98548776	-18.5351913
1.14	114	0.117	-0.877	-0.046	-5.3285094	16.2147114	-10.4278356	89.1236169	1.08289062	-18.37476306
1.15	115	0.119	-0.888	-0.049	-5.2139178	14.7250206	-9.9121734	89.06059152	1.19748222	-18.23725314
1.16	116	0.116	-0.899	-0.048	-4.9847346	13.0061466	-9.2246238	89.0090253	1.2891555	-18.11120238
1.17	117	0.103	-0.905	-0.044	-3.4950438	11.172681	-8.4797784	88.97464782	1.36936962	-18.00234036
1.18	118	0.087	-0.912	-0.041	-0.9740286	10.026765	-7.8495246	88.96891824	1.44958374	-17.9049375
1.19	119	0.084	-0.918	-0.027	0.572958	9.167328	-7.3911582	88.97464782	1.5183387	-17.81326422
1.2	120	0.091	-0.918	-0.016	0.8021412	8.3651868	-6.8182002	88.9803774	1.61574156	-17.73877968
1.21	121	0.113	-0.918	-0.004	0.1718874	7.161975	-6.016059	88.9803774	1.67303736	-17.66429514
1.22	122	0.131	-0.916	-0.001	-0.1718874	6.1306506	-5.3285094	88.9803774	1.72460358	-17.60699934
1.23	123	0.148	-0.918	-0.002	-0.3437748	5.0993262	-4.6409598	88.9803774	1.77044022	-17.55543312
1.24	124	0.157	-0.92	-0.004	0	4.0680018	-4.010706	88.9803774	1.81054728	-17.51532606
1.25	125	0.162	-0.926	0	1.0313244	3.3231564	-3.0939732	88.99183656	1.92513888	-17.50959648
1.26	126	0.157	-0.928	0.017	2.1772404	1.7761698	-2.1772404	89.01475488	1.94232762	-17.49240774
1.27	127	0.153	-0.919	0.029	2.7501984	0.1145916	-1.0313244	89.04340278	1.95378678	-17.48667816
1.28	128	0.143	-0.897	0.03	3.5523396	-1.4896908	0.8021412	89.07778026	1.9480572	-17.5038669
1.29	129	0.121	-0.871	0.032	5.7868758	-3.5523396	2.9793816	89.14080564	1.9194093	-17.53824438
1.3	130	0.098	-0.847	0.044	9.167328	-4.870143	4.7555514	89.2382085	1.88503182	-17.58408102
1.31	131	0.086	-0.835	0.084	14.2666542	-5.7868758	6.4171296	89.381448	1.82200644	-17.64137682
1.32	132	0.099	-0.835	0.133	18.5065434	-7.8495246	7.5057498	89.57052414	1.75325148	-17.71586136
1.33	133	0.127	-0.849	0.159	20.7410796	-11.2872726	8.4224826	89.77678902	1.67303736	-17.82472338
1.34	134	0.167	-0.878	0.152	21.772404	-13.464513	8.8235532	90.00024264	1.58709366	-17.95650372
1.35	135	0.209	-0.93	0.115	21.7151082	-14.2666542	8.5370742	90.22369626	1.53552744	-18.1054728
1.36	136	0.233	-0.988	0.082	19.8243468	-15.756345	7.1046792	90.42423156	1.47250206	-18.26017146
1.37	137	0.235	-1.043	0.048	17.18874	-17.9335854	5.2712136	90.59611896	1.42666542	-18.43778844
1.38	138	0.204	-1.078	0.052	16.1574156	-21.4286292	4.1825934	90.76227678	1.39801752	-18.64405332
1.39	139	0.159	-1.101	0.064	15.2406828	-25.3247436	3.724227	90.91124586	1.36936962	-18.89615484
1.4	140	0.114	-1.112	0.084	14.32395	-28.074942	3.437748	91.06021494	1.35791046	-19.17117468
1.41	141	0.079	-1.111	0.121	15.6990492	-28.4187168	2.6356068	91.2149136	1.3464513	-19.4519241
1.42	142	0.061	-1.096	0.17	18.5638392	-26.7571386	1.3750992	91.40398974	1.3464513	-19.71548478
1.43	143	0.072	-1.069	0.228	19.8243468	-25.3247436	0.8021412	91.59879546	1.35218088	-19.96185672
1.44	144	0.098	-1.044	0.239	18.7930224	-25.496631	1.2605076	91.7878716	1.35791046	-20.21395824
1.45	145	0.123	-1.04	0.223	18.6784308	-26.356068	1.8334656	91.99413648	1.36936962	-20.47751892
1.46	146	0.147	-1.071	0.179	19.4232762	-27.4446882	1.6042824	92.1889422	1.36936962	-20.74680918
1.47	147	0.133	-1.141	0.037	18.9649098	-29.1635622	-0.3437748	92.37801834	1.39228794	-21.03328818
1.48	148	0.064	-1.234	-0.112	21.8869956	-29.6792244	-5.2712136	92.59574238	1.47250206	-21.31976718
1.49	149	-0.004	-1.359	-0.022	31.51269	-27.1009134	-13.750992	92.91086928	1.62720072	-21.57759828
1.5	150	-0.06	-1.467	0.095	30.366774	-19.6524594	-21.3140376	93.21453702	1.85638392	-21.75521526
1.51	151	-0.092	-1.479	-0.025	24.8090814	-12.1467096	-25.2674478	93.46663854	2.1199446	-21.85261812
1.52	152	-0.08	-1.445	-0.154	25.6685184	-8.8235532	-24.5798982	93.72446964	2.37204612	-21.92137308
1.53	153	-0.03	-1.356	-0.192	23.4339822	-7.8495246	-20.626488	93.95938242	2.58977016	-21.98439846
1.54	154	0.028	-1.219	-0.058	23.3766864	-6.016059	-16.3865988	94.20002478	2.75592798	-22.0302351
1.55	155	0.08	-1.128	-0.124	20.8556712	-7.2192708	-12.5477802	94.37764176	2.89916748	-22.0875309
1.56	156	0.083	-1.04	-0.263	12.7769634	-16.5584862	-9.2819196	94.50369252	3.0080295	-22.24222956
1.57	157	0.074	-0.966	-0.294	7.161975	-28.5906042	-9.2246238	94.5667179	3.12835068	-22.5172494
1.58	158	0.091	-0.944	-0.253	1.4896908	-35.1223254	-10.599723	94.5667179	3.27159018	-22.85529462
1.59	159	0.171	-1	-0.255	-4.5263682	-37.528749	-13.5218088	94.50369252	3.44347758	-23.21625816
1.6	160	0.214	-1.093	-0.233	-6.016059	-41.4821592	-16.6730778	94.40628966	3.66120162	-23.61732876
1.61	161	0.192	-1.173	-0.159	-5.2139178	-43.4875122	-17.6471064	94.33180512	3.88465524	-24.02985852
1.62	162	0.108	-1.196	-0.11	-3.151269	-41.4821592	-15.8709366	94.27450932	4.07946096	-24.42519954
1.63	163	-0.003	-1.169	-0.078	0.1718874	-38.0444112	-11.45916	94.25732058	4.23415962	-24.79189266
1.64	164	-0.1	-1.11	-0.046	2.86479	-32.8877892	-5.5003968	94.26305016	4.32010332	-25.11274914
1.65	165	-0.162	-1.038	-0.026	4.5263682	-26.4133638	0.6875496	94.27450932	4.297185	-25.36485066
1.66	166	-0.188	-0.972	-0.026	4.7555514	-19.1367972	6.302538	94.3088868	4.25134836	-25.55965638
1.67	167	-0.189	-0.923	-0.009	5.3858052	-11.9748222	10.599723	94.36045302	4.15967508	-25.68570714
1.68	168	-0.177	-0.903	0.007	5.8441716	-4.9847346	13.5791046	94.41774882	4.02789474	-25.74300294
1.69	169	-0.149	-0.899	0.014	5.2139178	0.7448454	15.0114996	94.46931504	3.87892566	-25.74873252
1.7	170	-0.113	-0.892	0.011	4.4117766	4.0680018	15.1260912	94.49796294	3.6955791	-25.70862546
1.71	171	-0.078	-0.89	0.018	4.1825934	5.8441716	14.3812458	94.54379958	3.54661002	-25.66278882
1.72	172	-0.043	-0.886	0.028	2.6356068	7.161975	13.464513	94.57817706	3.40337052	-25.60549302
1.73	173	-0.01	-0.88	0.026	-0.572958	8.3651868	11.9175264	94.57244748	3.27731976	-25.53100848
1.74	174	0.003	-0.874	0.023	-3.6096354	9.453807	9.740286	94.53807	3.17418732	-25.44506478
1.75	175	0.009	-0.87	0.022	-6.5317212	9.2819196	7.7922288	94.46358546	3.07678446	-25.35912108
1.76	176	0.005	-0.875	0.03	-9.3965112	9.453807	6.9900876	94.37191218	2.99657034	-25.27317738
1.77	177	-0.002	-0.879	0.01	-13.4072172	9.7975818	6.875496	94.24013184	2.91635622	-25.1815041
1.78	178	-0.022	-0.886	-0.003	-15.2979786	9.1100322	7.3911582	94.08543318	2.8361421	-25.10128998
1.79	179	-0.016	-0.892	-0.005	-15.0114996	8.4224826	7.9641162	93.9364641	2.74446882	-25.02680544
1.8	180	-0.007	-0.899	-0.002	-13.750992	7.7922288	8.1360036	93.78749502	2.65279554	-24.9523209
1.81	181	0.016	-0.901	0.004	-12.032118	6.5317212	7.3911582	93.66717384	2.57258142	-24.8950251
1.82	182	0.02	-0.89	0.009	-10.886202	4.870143	6.1306506	93.55831182	2.50382646	-24.85491804
1.83	183	0.023	-0.879	0.024	-9.453807	2.86479	4.4117766	93.46090896	2.45798982	-24.83199972
1.84	184	0.011	-0.879	0.035	-8.4797784	0.6302538	2.9220858	93.37496526	2.42361234	-24.82627014
1.85	185	-0.006	-0.888	0.039	-8.0787078	-0.8021412	1.432395	93.28329198	2.39496444	-24.83199972
1.86	186	-0.022	-0.9	0.046	-7.734933	-0.6875496	-0.1718874	93.20307786	2.39496444	-24.8377293
1.87	187	-0.033	-0.913	0.059	-6.7609044	0.6875496	-1.6042824	93.1343229	2.41215318	-24.83199972
1.88	188	-0.038	-0.917	0.077	-5.0420304	2.5210152	-2.86479	93.08275668	2.4350715	-24.8090814
1.89	189	-0.038	-0.911	0.092	-3.2085648	5.0420304	-3.9534102	93.05410878	2.47517856	-24.75751518
1.9	190	-0.036	-0.894	0.103	-1.8907614	7.9641162	-5.3285094	93.04264962	2.49809688	-24.6658419
1.91	191	-0.037	-0.875	0.106	-0.7448454	10.886202	-7.2765666	93.03692004	2.56112226	-24.55697988
1.92	192	-0.038	-0.865	0.101	0.572958	14.4958374	-9.5111028	93.0483792	2.64706596	-24.4080108
1.93	193	-0.045	-0.869	0.102	2.291832	18.5065434	-11.2872726	93.08275668	2.74446882	-24.21893466
1.94	194	-0.053	-0.886	0.105	3.8388186	22.0015872	-12.3758928	93.12859332	2.84760126	-23.99548104
1.95	195	-0.065	-0.915	0.107	5.6722842	24.1788276	-12.4331886	93.19734828	2.93354496	-23.74337952
1.96	196	-0.075	-0.957	0.1	6.016059	24.350715	-11.2299768	93.27183282	3.02521824	-23.49700758
1.97	197	-0.082	-1.015	0.067	4.6982556	22.345362	-8.7089616	93.32912862	3.0939732	-23.26782438
1.98	198	-0.057	-1.073	-0.007	2.2345362	19.194093	-5.443101	93.35777652	3.13408026	-23.07301866
1.99	199	0.019	-1.104	-0.018	4.5263682	14.32395	-3.2085648	93.40934274	3.151269	-22.92977916
2	200	0.123	-1.115	0.045	9.453807	12.1467096	-3.2658606	93.5067456	3.19710564	-22.81518756
2.01	201	0.191	-1.082	0.113	10.1986524	9.3965112	-5.9014674	93.61560762	3.24867186	-22.71205512
2.02	202	0.187	-1.03	0.181	10.1413566	4.9847346	-8.59437	93.72446964	3.32888598	-22.6604889
2.03	203	0.142	-0.998	0.246	10.1413566	3.2085648	-9.9694692	93.82760208	3.42628884	-22.62038184
2.04	204	0.073	-0.992	0.295	10.1986524	3.8961144	-10.9434978	93.93073452	3.52942128	-22.56881562
2.05	205	0.011	-1.025	0.277	8.2505952	8.7089616	-11.9175264	94.04532612	3.63255372	-22.47141276
2.06	206	-0.014	-1.09	0.15	1.6042824	22.8037284	-12.4904844	94.07397402	3.72995658	-22.23649998
2.07	207	-0.036	-1.162	0.04	-1.4896908	37.2995658	-10.3705398	94.0797036	3.79871154	-21.8583477
2.08	208	-0.075	-1.217	0.006	15.469866	44.404245	-2.1199446	94.25732058	3.77579322	-21.41717004
2.09	209	-0.153	-1.332	0.003	35.1223254	44.8053156	6.302538	94.63547286	3.6669312	-20.97599238
2.1	210	-0.183	-1.391	0.052	29.8511118	41.7113424	11.2299768	94.95632934	3.50650296	-20.57492178
2.11	211	-0.099	-1.355	0.002	17.18874	39.3622146	17.7044022	95.15113506	3.28877892	-20.1967695
2.12	212	0.022	-1.33	-0.164	8.4224826	36.4401288	26.1268848	95.24853792	2.99084076	-19.86445386
2.13	213	0.162	-1.288	-0.281	1.145916	29.6792244	32.5440144	95.27145624	2.62987722	-19.60089318
2.14	214	0.254	-1.194	-0.27	-1.145916	19.3659804	36.4974246	95.26572666	2.24599536	-19.44619452
2.15	215	0.244	-1.092	-0.275	0.7448454	14.610429	36.669312	95.24280834	1.88503182	-19.34306208
2.16	216	0.166	-1.051	-0.254	3.2085648	18.1627686	31.6845774	95.27718582	1.55271618	-19.194093
2.17	217	0.053	-1.048	-0.237	0.9167328	27.2728008	24.350715	95.28864498	1.27769634	-18.94772106
2.18	218	-0.055	-1.085	-0.23	-1.7761698	35.523396	16.329303	95.27145624	1.07716104	-18.61540542
2.19	219	-0.142	-1.14	-0.227	-2.86479	39.7632852	11.2299768	95.24280834	0.9167328	-18.23725314
2.2	220	-0.177	-1.187	-0.19	-0.4583664	41.0237928	9.9694692	95.21989002	0.75630456	-17.83618254
2.21	221	-0.145	-1.196	-0.138	2.5210152	37.7579322	10.4278356	95.24853792	0.60733548	-17.475219
2.22	222	-0.066	-1.155	-0.115	4.9847346	31.4553942	11.1153852	95.29437456	0.46409598	-17.17728084
2.23	223	0.047	-1.098	-0.087	6.7609044	24.0069402	11.172681	95.36312952	0.32085648	-16.95382722
2.24	224	0.128	-1.044	-0.051	8.7089616	13.6936962	8.880849	95.44907322	0.21772404	-16.82204688
2.25	225	0.175	-0.976	-0.025	7.5630456	6.7609044	5.2712136	95.47772112	0.24064236	-16.78193982
2.26	226	0.196	-0.91	-0.002	4.6982556	1.6615782	0.859437	95.52355776	0.2291832	-16.76475108
2.27	227	0.197	-0.867	-0.013	1.3750992	-3.0366774	-3.8388186	95.5407465	0.26929026	-16.7876694
2.28	228	0.173	-0.854	-0.029	-1.145916	-7.161975	-8.0787078	95.52928734	0.35523396	-16.85069478
2.29	229	0.139	-0.864	-0.032	-2.9793816	-10.599723	-10.886202	95.50063944	0.47555514	-16.94809764
2.3	230	0.109	-0.885	-0.027	-5.3285094	-12.7769634	-12.032118	95.42042532	0.6302538	-17.06268924
2.31	231	0.085	-0.895	-0.021	-7.7922288	-14.32395	-11.8602306	95.3402112	0.76203414	-17.19446958
2.32	232	0.083	-0.89	-0.013	-10.1413566	-17.0741484	-10.0840608	95.23707876	0.88235532	-17.35489782
2.33	233	0.087	-0.864	-0.018	-11.9748222	-18.9649098	-7.9068204	95.11675758	0.98548776	-17.5325148
2.34	234	0.095	-0.86	-0.034	-13.0061466	-20.4546006	-6.1306506	94.98497724	1.06570188	-17.7330501
2.35	235	0.098	-0.88	-0.041	-12.5477802	-21.7151082	-5.7868758	94.83600816	1.16310474	-17.94504456
2.36	236	0.109	-0.908	-0.041	-12.032118	-22.631841	-6.4171296	94.7099574	1.24904844	-18.1627686
2.37	237	0.102	-0.933	-0.044	-11.1153852	-23.6058696	-7.2765666	94.5953658	1.3464513	-18.3919518
2.38	238	0.068	-0.938	-0.041	-9.5683986	-23.7204612	-7.0473834	94.49796294	1.44385416	-18.621135
2.39	239	0.028	-0.931	-0.039	-7.5057498	-22.345362	-6.2452422	94.41774882	1.52979786	-18.83312946
2.4	240	-0.011	-0.914	-0.021	-4.9274388	-19.194093	-3.3231564	94.3375347	1.56417534	-19.0222056
2.41	241	-0.039	-0.904	-0.009	-3.3231564	-15.5271618	-1.718874	94.30315722	1.59855282	-19.17117468
2.42	242	-0.041	-0.912	-0.005	-0.572958	-11.3445684	-0.7448454	94.29742764	1.62147114	-19.28576628
2.43	243	-0.043	-0.932	0.009	1.8334656	-6.4171296	-0.286479	94.31461638	1.62720072	-19.34879166
2.44	244	-0.031	-0.951	0.012	3.437748	-1.8907614	0	94.34899386	1.6329303	-19.3659804
2.45	245	-0.003	-0.954	0.018	5.6149884	2.2345362	0.572958	94.37191218	1.61574156	-19.34306208
2.46	246	0.022	-0.938	0.037	8.5370742	4.6982556	1.8334656	94.45785588	1.59282324	-19.29722544
2.47	247	0.046	-0.912	0.07	11.4018642	4.8128472	3.5523396	94.57817706	1.55271618	-19.2513888
2.48	248	0.071	-0.897	0.089	13.4072172	4.5263682	5.2712136	94.71568698	1.49542038	-19.20555216
2.49	249	0.1	-0.894	0.066	12.891555	4.7555514	6.6463128	94.84746732	1.42666542	-19.1654451
2.5	250	0.124	-0.899	0.046	12.605076	4.297185	8.0787078	94.96205892	1.36936962	-19.13106762
2.51	251	0.141	-0.915	0.065	13.8082878	1.5469866	9.1100322	95.10529842	1.27769634	-19.12533804
2.52	252	0.153	-0.936	0.089	15.0687954	-2.2345362	9.3965112	95.2542675	1.19175264	-19.15398594
2.53	253	0.166	-0.949	0.123	15.8136408	-6.7609044	9.3392154	95.41469574	1.10580894	-19.22847048
2.54	254	0.181	-0.955	0.16	15.756345	-11.3445684	9.3392154	95.57512398	1.0313244	-19.34879166
2.55	255	0.192	-0.968	0.155	13.9801752	-15.1260912	9.453807	95.72409306	0.99121734	-19.5092199
2.56	256	0.187	-0.991	0.126	9.5111028	-18.5065434	10.026765	95.82149592	0.91100322	-19.69829604
2.57	257	0.172	-1.011	0.122	7.161975	-21.5432208	10.7716104	95.89025088	0.83651868	-19.92174966
2.58	258	0.149	-1.031	0.12	5.5576926	-24.0069402	10.886202	95.94754668	0.75630456	-20.1681216
2.59	259	0.136	-1.045	0.133	4.9274388	-26.642547	10.5424272	95.9991129	0.6875496	-20.44314144
2.6	260	0.127	-1.045	0.153	4.3544808	-29.1062664	10.3705398	96.05067912	0.64171296	-20.7410796
2.61	261	0.116	-1.04	0.166	3.4950438	-31.1689152	10.1986524	96.0850566	0.58441716	-21.0562065
2.62	262	0.095	-1.04	0.17	2.8074942	-33.2888598	9.9694692	96.1137045	0.52712136	-21.39425172
2.63	263	0.079	-1.035	0.186	3.3231564	-35.236917	10.8289062	96.14808198	0.46982556	-21.74948568
2.64	264	0.084	-1.024	0.206	4.297185	-38.7892566	12.8342592	96.1996482	0.39534102	-22.1448267
2.65	265	0.094	-1.013	0.203	3.6096354	-42.685371	14.4958374	96.24548484	0.32085648	-22.58027478
2.66	266	0.096	-0.996	0.193	1.6615782	-46.7533728	15.2979786	96.26840316	0.2291832	-23.05582992
2.67	267	0.117	-0.994	0.205	3.4950438	-48.5868384	15.183387	96.30851022	0.14896908	-23.5485738
2.68	268	0.121	-1.006	0.203	4.6409598	-51.3943326	13.8655836	96.36007644	0.08021412	-24.064236
2.69	269	0.076	-1.06	0.109	-0.2291832	-58.3271244	12.032118	96.36580602	0.04010706	-24.64865316
2.7	270	-0.074	-1.18	-0.117	-12.891555	-72.0208206	8.4224826	96.2282961	0.05156622	-25.36485066
2.71	271	-0.315	-1.356	-0.336	-19.2513888	-84.2821218	0.1718874	96.04494954	0.16042824	-26.19563976
2.72	272	-0.497	-1.644	-0.102	30.1948866	-67.9528188	-19.9962342	96.35434686	0.44690724	-26.83735272
2.73	273	-0.526	-1.789	0.068	47.7274014	-33.6899304	-39.9924684	96.84136116	0.89381448	-27.11237256
2.74	274	-0.323	-1.574	0.137	26.929026	2.7501984	-40.9092012	97.116381	1.29488508	-27.03215844
2.75	275	0.007	-1.295	0.007	12.5477802	17.8762896	-26.356068	97.22524302	1.53552744	-26.82589356
2.76	276	0.245	-1.052	-0.128	20.1681216	5.9014674	-11.5737516	97.4315079	1.64438946	-26.75140902
2.77	277	0.334	-0.9	-0.096	26.4133638	-14.2093584	-0.1145916	97.70079816	1.66730778	-26.88318936
2.78	278	0.289	-0.774	-0.051	13.6936962	-28.8197874	11.8029348	97.8325785	1.59855282	-27.18112752
2.79	279	0.162	-0.718	-0.1	-6.9327918	-40.6227222	20.05353	97.75809396	1.46677248	-27.60511644
2.8	280	0.052	-0.754	-0.165	-25.496631	-57.7541664	19.480572	97.47161496	1.36936962	-28.20099276
2.81	281	0.022	-0.838	-0.205	-34.6066632	-64.5723666	12.3758928	97.116381	1.34072172	-28.8484353
2.82	282	0.023	-0.923	-0.227	-38.5027776	-66.4058322	2.578311	96.7153104	1.40947668	-29.507337
2.83	283	-0.002	-1.012	-0.19	-35.6379876	-66.1193532	-6.016059	96.34861728	1.55844576	-30.15477954
2.84	284	-0.042	-1.084	-0.125	-33.6326346	-62.5097178	-11.6310474	95.9991129	1.75898106	-30.75638544
2.85	285	-0.088	-1.115	-0.09	-32.3148312	-56.149884	-12.9488508	95.64387894	1.9480572	-31.29496596
2.86	286	-0.141	-1.106	-0.067	-28.934379	-48.3003594	-10.3705398	95.3402112	2.10275586	-31.76479152
2.87	287	-0.19	-1.076	-0.04	-25.210152	-39.0184398	-4.6409598	95.07665052	2.19442914	-32.14867338
2.88	288	-0.235	-1.031	-0.021	-19.480572	-27.6165756	4.3544808	94.87038564	2.18296998	-32.42369322
2.89	289	-0.263	-1.015	-0.01	-15.5844576	-19.8816426	13.178034	94.7099574	2.06837838	-32.63568768
2.9	290	-0.279	-1.009	-0.006	-14.610429	-12.0894138	20.912967	94.54379958	1.8334656	-32.76173844
2.91	291	-0.279	-0.999	-0.018	-15.0687954	-4.870143	25.5539268	94.38910092	1.58136408	-32.83622298
2.92	292	-0.264	-0.987	-0.028	-15.9855282	1.3750992	26.1268848	94.22867268	1.3178034	-32.84195256
2.93	293	-0.238	-0.979	-0.02	-18.4492476	6.7036086	24.064236	94.03959654	1.07143146	-32.79611592
2.94	294	-0.202	-0.977	-0.013	-22.1161788	11.172681	20.5691922	93.81614292	0.859437	-32.70444264
2.95	295	-0.154	-0.99	-0.012	-24.6944898	14.610429	16.3865988	93.55258224	0.6589017	-32.5726623
2.96	296	-0.124	-1.012	-0.005	-26.4706596	18.2773602	13.4072172	93.28329198	0.50993262	-32.4007749
2.97	297	-0.106	-1.023	-0.004	-27.8457588	20.1108258	12.3758928	92.99681298	0.36669312	-32.21169876
2.98	298	-0.097	-1.026	0	-28.3041252	21.3713334	12.8342592	92.71033398	0.22345362	-32.01116346
2.99	299	-0.092	-1.007	-0.002	-29.6792244	22.4599536	13.3499214	92.40666624	0.06875496	-31.799169
3	300	-0.088	-0.979	-0.009	-29.6792244	23.204799	13.2353298	92.09726892	-0.08021412	-31.58144496
3.01	301	-0.092	-0.939	-0.023	-29.507337	24.064236	12.605076	91.79360118	-0.22345362	-31.35226176
3.02	302	-0.1	-0.898	-0.034	-28.2468294	25.5539268	11.9175264	91.5013926	-0.36096354	-31.10588982
3.03	303	-0.116	-0.875	-0.047	-26.1268848	27.2728008	11.2299768	91.22637276	-0.4870143	-30.84232914
3.04	304	-0.136	-0.869	-0.046	-22.1161788	30.4813656	10.313244	90.99718956	-0.60733548	-30.54439098
3.05	305	-0.149	-0.867	-0.03	-17.9335854	33.518043	9.0527364	90.80238384	-0.72765666	-30.21207534
3.06	306	-0.161	-0.854	-0.003	-13.8655836	35.9817624	7.448454	90.64768518	-0.81932994	-29.86257096
3.07	307	-0.16	-0.839	0.015	-8.9954406	37.815228	5.7868758	90.55028232	-0.89381448	-29.49014826
3.08	308	-0.149	-0.837	0.034	-5.2712136	37.7579322	4.5263682	90.48152736	-0.95111028	-29.11772556
3.09	309	-0.13	-0.843	0.03	-4.6982556	36.7266078	3.5523396	90.42423156	-1.0026765	-28.75676202
3.1	310	-0.114	-0.873	0.009	-5.0420304	33.1742682	2.86479	90.36120618	-1.05424272	-28.42444638
3.11	311	-0.09	-0.94	0.002	-6.0733548	29.1062664	2.291832	90.28672164	-1.0886202	-28.13796738
3.12	312	-0.059	-0.99	-0.011	-7.9641162	23.9496444	1.0886202	90.20077794	-1.11153852	-27.9030546
3.13	313	-0.044	-1.004	-0.061	-10.4851314	19.0222056	-1.4896908	90.08618634	-1.10007936	-27.71397846
3.14	314	-0.023	-1.004	-0.088	-12.7196676	15.1260912	-4.7555514	89.954406	-1.0599723	-27.56500938
3.15	315	0	-1.02	-0.08	-14.037471	11.0007936	-6.9900876	89.7825186	-0.98548776	-27.46187694
3.16	316	0.017	-1.043	-0.064	-15.183387	6.2452422	-7.9068204	89.62781994	-0.91100322	-27.39885156
3.17	317	0.026	-1.039	-0.047	-16.329303	3.151269	-8.3651868	89.46166212	-0.82505952	-27.37020366
3.18	318	0.044	-1.012	-0.045	-17.5898106	3.6096354	-10.1413566	89.28404514	-0.72765666	-27.33582618
3.19	319	0.048	-0.984	-0.037	-17.2460358	5.443101	-12.7769634	89.10642816	-0.6016059	-27.28998954
3.2	320	0.024	-0.987	-0.026	-16.2720072	8.5370742	-14.5531332	88.93454076	-0.4583664	-27.20977542
3.21	321	-0.014	-1.006	-0.021	-15.2406828	12.0894138	-13.2926256	88.77411252	-0.32658606	-27.08945424
3.22	322	-0.054	-1.037	-0.034	-13.5791046	14.32395	-9.453807	88.6366026	-0.23491278	-26.95194432
3.23	323	-0.091	-1.058	-0.04	-11.745639	15.6417534	-4.7555514	88.51055184	-0.18907614	-26.80297524
3.24	324	-0.105	-1.064	-0.032	-9.6256944	16.5584862	-0.9740286	88.41314898	-0.17761698	-26.63681742
3.25	325	-0.094	-1.046	-0.03	-7.9641162	16.7303736	0.5156622	88.3214757	-0.20626488	-26.4706596
3.26	326	-0.073	-1.01	-0.037	-7.2192708	16.615782	0.3437748	88.24126158	-0.21199446	-26.30450178
3.27	327	-0.037	-0.973	-0.043	-6.9327918	15.5271618	-0.4583664	88.17250662	-0.20626488	-26.14980312
3.28	328	-0.008	-0.953	-0.041	-8.8235532	12.8342592	-1.432395	88.08083334	-0.19480572	-26.02375236
3.29	329	0.018	-0.942	-0.049	-11.4018642	10.1413566	-2.1199446	87.96051216	-0.1718874	-25.9263495
3.3	330	0.035	-0.945	-0.059	-14.2666542	7.1046792	-2.3491278	87.80008392	-0.13178034	-25.86332412
3.31	331	0.047	-0.959	-0.069	-16.5584862	4.3544808	-2.3491278	87.62819652	-0.10886202	-25.82321706
3.32	332	0.045	-0.976	-0.073	-18.5065434	1.8907614	-1.9480572	87.44484996	-0.09167328	-25.80602832
3.33	333	0.034	-0.991	-0.078	-19.8816426	0.0572958	-1.6042824	87.23858508	-0.08021412	-25.80602832
3.34	334	0.021	-0.998	-0.078	-20.912967	-1.7761698	-1.2605076	87.02659062	-0.06875496	-25.82894664
3.35	335	0.015	-0.992	-0.074	-21.1421502	-3.3804522	-1.2032118	86.803137	-0.05156622	-25.8690537
3.36	336	0.023	-0.982	-0.067	-21.8296998	-4.7555514	-1.718874	86.57968338	-0.04010706	-25.92061992
3.37	337	0.032	-0.97	-0.069	-23.0329116	-5.3858052	-2.8074942	86.35050018	-0.01718874	-25.97791572
3.38	338	0.038	-0.961	-0.073	-23.777757	-5.443101	-3.8961144	86.10985782	0.01718874	-26.03521152
3.39	339	0.043	-0.96	-0.07	-23.7204612	-5.156622	-4.870143	85.86921546	0.0572958	-26.09250732
3.4	340	0.047	-0.961	-0.062	-23.6058696	-5.0993262	-5.5576926	85.6285731	0.12032118	-26.14980312
3.41	341	0.048	-0.962	-0.057	-24.0069402	-5.0993262	-6.4171296	85.38220116	0.17761698	-26.20709892
3.42	342	0.048	-0.96	-0.055	-24.923673	-4.4117766	-7.2192708	85.13009964	0.24637194	-26.25866514
3.43	343	0.046	-0.96	-0.059	-26.1841806	-3.8961144	-7.6776372	84.86653896	0.32085648	-26.31023136
3.44	344	0.044	-0.96	-0.063	-27.4446882	-4.2398892	-7.9641162	84.58578954	0.38961144	-26.36179758
3.45	345	0.042	-0.968	-0.068	-28.5906042	-5.156622	-8.1360036	84.29931054	0.47555514	-26.42482296
3.46	346	0.041	-0.976	-0.071	-30.3094782	-5.7868758	-8.1932994	83.98991322	0.55003968	-26.49357792
3.47	347	0.045	-0.984	-0.073	-30.8824362	-6.9327918	-8.0787078	83.67478632	0.61879464	-26.57379204
3.48	348	0.055	-0.988	-0.072	-30.8824362	-8.307891	-7.7922288	83.35965942	0.6875496	-26.66546532
3.49	349	0.062	-0.988	-0.056	-29.9657034	-9.7975818	-7.3911582	83.05599168	0.75057498	-26.77432734
3.5	350	0.064	-0.98	-0.033	-29.793816	-10.7716104	-6.7609044	82.7637831	0.81360036	-26.89464852
3.51	351	0.055	-0.962	-0.024	-29.793816	-11.2872726	-6.1879464	82.46011536	0.859437	-27.0149697
3.52	352	0.043	-0.947	-0.016	-30.4240698	-11.6310474	-5.72958	82.15644762	0.89954406	-27.14102046
3.53	353	0.029	-0.93	-0.009	-30.9970278	-11.9748222	-5.72958	81.83559114	0.93965112	-27.2728008
3.54	354	0.026	-0.915	-0.009	-31.8564648	-11.8602306	-5.8441716	81.51473466	0.97975818	-27.39885156
3.55	355	0.023	-0.906	-0.01	-32.8304934	-11.2299768	-6.2452422	81.19387818	1.02559482	-27.51917274
3.56	356	0.016	-0.903	-0.008	-33.3461556	-10.7143146	-6.589017	80.85583296	1.07716104	-27.63949392
3.57	357	0.009	-0.902	-0.004	-34.4920716	-9.453807	-6.6463128	80.50632858	1.12299768	-27.74835594
3.58	358	0.008	-0.899	-0.003	-35.3515086	-7.9068204	-6.1879464	80.14536504	1.16883432	-27.84002922
3.59	359	0.011	-0.89	-0.012	-36.3255372	-6.302538	-5.2712136	79.77294234	1.20894138	-27.91451376
3.6	360	0.014	-0.885	-0.018	-37.0130868	-4.1825934	-4.1252976	79.41770838	1.23758928	-27.96607998
3.61	361	0.013	-0.883	-0.019	-37.0130868	-2.9793816	-3.2658606	79.0395561	1.2605076	-28.00618704
3.62	362	0.012	-0.885	-0.01	-36.3255372	-1.718874	-2.5210152	78.67286298	1.28342592	-28.02910536
3.63	363	0.015	-0.884	0.004	-34.8931422	-0.4583664	-1.9480572	78.31762902	1.29488508	-28.04056452
3.64	364	0.019	-0.884	0.012	-33.6326346	0.3437748	-1.432395	77.97385422	1.30634424	-28.0462941
3.65	365	0.027	-0.876	0.026	-33.231564	1.0886202	-1.2032118	77.67591606	1.32353298	-28.04056452
3.66	366	0.037	-0.864	0.036	-32.6013102	1.4896908	-1.2605076	77.34360042	1.33499214	-28.02910536
3.67	367	0.054	-0.841	0.032	-33.231564	1.4896908	-1.6615782	77.0055552	1.3464513	-28.02337578
3.68	368	0.063	-0.817	0.027	-34.950438	1.145916	-2.1772404	76.65032124	1.36936962	-28.0176462
3.69	369	0.055	-0.791	0.024	-36.2682414	0.9740286	-2.86479	76.28362812	1.39801752	-28.0176462
3.7	370	0.046	-0.766	0.022	-36.955791	0.286479	-3.6096354	75.93412374	1.432395	-28.02910536
3.71	371	0.046	-0.753	0.022	-37.7579322	0.4010706	-4.4117766	75.55024188	1.47250206	-28.03483494
3.72	372	0.052	-0.745	0.024	-38.961144	1.3178034	-5.0420304	75.15490086	1.5183387	-28.04056452
3.73	373	0.05	-0.739	0.026	-39.820581	1.8334656	-4.870143	74.74810068	1.56417534	-28.04056452
3.74	374	0.043	-0.728	0.028	-40.0497642	1.8334656	-4.1252976	74.3413005	1.6042824	-28.03483494
3.75	375	0.028	-0.711	0.019	-39.9924684	1.8907614	-3.0366774	73.95741864	1.6329303	-28.02910536
3.76	376	0.018	-0.677	0.02	-39.9351726	2.6356068	-2.3491278	73.55061846	1.6615782	-28.01191662
3.77	377	0.011	-0.645	0.03	-39.0184398	4.1252976	-2.3491278	73.15527744	1.6902261	-27.98326872
3.78	378	0.016	-0.614	0.037	-38.0444112	5.6149884	-2.5210152	72.765666	1.72460358	-27.93743208
3.79	379	0.03	-0.59	0.053	-37.0703826	5.8441716	-2.578311	72.3932433	1.75898106	-27.89159544
3.8	380	0.04	-0.567	0.066	-36.7266078	3.724227	-2.578311	72.03800934	1.79335854	-27.86867712
3.81	381	0.04	-0.542	0.077	-36.1536498	0.5156622	-2.6929026	71.67131622	1.81627686	-27.8744067
3.82	382	0.034	-0.514	0.094	-35.7525792	-2.005353	-2.6929026	71.31035268	1.8334656	-27.90878418
3.83	383	0.03	-0.478	0.13	-35.0077338	-3.724227	-2.4064236	70.94938914	1.83919518	-27.95462082
3.84	384	0.036	-0.46	0.177	-33.7472262	-5.9587632	-2.5210152	70.60561434	1.84492476	-28.0176462
3.85	385	0.047	-0.46	0.193	-34.6066632	-8.7662574	-2.9793816	70.27902828	1.84492476	-28.11504906
3.86	386	0.062	-0.472	0.168	-37.9871154	-11.45916	-3.2658606	69.88941684	1.8334656	-28.23537024
3.87	387	0.075	-0.481	0.142	-42.8572584	-14.2666542	-3.0366774	69.45396876	1.81627686	-28.38433932
3.88	388	0.073	-0.49	0.124	-47.841993	-18.1627686	-2.0626488	68.96695446	1.77044022	-28.56768588
3.89	389	0.058	-0.493	0.096	-53.3996856	-22.4026578	-1.0313244	68.41691478	1.69595568	-28.77968034
3.9	390	0.033	-0.491	0.055	-60.1032942	-25.3247436	-0.4010706	67.81530888	1.61001198	-29.0203227
3.91	391	0.023	-0.479	-0.014	-67.8382272	-24.0069402	-0.4010706	67.12775928	1.5183387	-29.2495059
3.92	392	0.027	-0.459	-0.108	-80.6151906	-16.4438946	-0.8021412	66.30269976	1.45531332	-29.40993414
3.93	393	0.041	-0.444	-0.205	-92.3035338	-9.8548776	-0.859437	65.36877822	1.41520626	-29.51306658
3.94	394	0.063	-0.419	-0.302	-103.3616232	-5.6722842	-0.4010706	64.32026508	1.38655836	-29.57609196
3.95	395	0.083	-0.369	-0.394	-115.0499664	-3.724227	0.8021412	63.13424202	1.35218088	-29.61046944
3.96	396	0.094	-0.298	-0.473	-122.040054	-4.0680018	2.291832	61.89665274	1.30061466	-29.64484692
3.97	397	0.09	-0.22	-0.585	-123.9881112	-6.7609044	3.7815228	60.63614514	1.22040054	-29.69641314
3.98	398	-0.008	-0.171	-0.63	-129.6603954	-13.8655836	6.4744254	59.32407132	1.08289062	-29.793816
3.99	399	-0.135	-0.135	-0.519	-137.9682864	-20.6837838	9.1100322	57.92032422	0.8880849	-29.93132592
4	400	-0.141	-0.188	-0.317	-154.8705474	-16.7876694	7.1046792	56.34468972	0.7161975	-30.04018794
4.01	401	-0.042	-0.317	-0.184	-164.6108334	-5.0993262	0.859437	54.67738194	0.6589017	-30.08602458
4.02	402	0.014	-0.499	-0.008	-165.3556788	7.3911582	-9.6829902	52.998615	0.75630456	-30.09175416
4.03	403	0.004	-0.755	0.304	-153.6673356	13.0061466	-19.0795014	51.43443966	0.96256944	-30.1089429
4.04	404	-0.052	-1.171	0.481	-151.8911658	21.9442914	-24.8090814	49.88745306	1.26623718	-30.09748374
4.05	405	-0.093	-1.51	0.372	-183.7476306	38.7892566	-22.1161788	48.03679872	1.65011904	-29.95424424
4.06	406	-0.012	-1.598	0.185	-231.3604404	55.5196302	-12.605076	45.6934005	2.07410796	-29.63338776
4.07	407	0.099	-1.388	-0.082	-274.446882	64.2858876	-0.0572958	42.9145542	2.48090814	-29.18075094
4.08	408	0.205	-0.981	-0.679	-298.4538222	59.2438572	10.2559482	39.90079512	2.79603504	-28.71092538
4.09	409	0.149	-0.527	-1.114	-259.0343118	36.3255372	16.1001198	37.28810664	2.93354496	-28.35569142
4.1	410	0.142	-0.266	-0.9	-204.4887102	10.1413566	13.178034	35.20253952	2.91635622	-28.1895336
4.11	411	0.291	0.006	-0.732	-187.5864492	-7.5057498	10.0840608	33.30604854	2.77311672	-28.14942654
4.12	412	0.309	0.447	-0.651	-187.930224	-24.2934192	1.8907614	31.39236882	2.53247436	-28.26401814
4.13	413	0.27	0.765	-0.361	-218.2397022	-36.7266078	-17.9335854	29.16929178	2.28610242	-28.60779294
4.14	414	0.463	0.897	-0.403	-270.4934718	-41.539455	-30.2521824	26.4133638	2.02827132	-29.07188892
4.15	415	0.516	0.938	-0.542	-292.4377632	-50.2484166	-25.8977016	23.41679346	1.6615782	-29.52452574
4.16	416	0.188	0.865	-0.187	-295.5890322	-55.863405	-15.6990492	20.41449354	1.1745639	-29.8797597
4.17	417	-0.053	0.93	-0.629	-288.0259866	-75.4585686	-8.9381448	17.49813732	0.46409598	-30.21207534
4.18	418	0.137	0.61	-2.979	-292.8961296	-94.4234784	-4.4690724	14.53594446	-0.44117766	-30.52147266
4.19	419	-0.518	0.749	-3.996	-330.9978366	-63.598338	6.302538	11.18986974	-1.10580894	-30.60168678
4.2	420	-1.342	2.127	-3.996	-189.3053232	-57.4103916	25.9549974	9.27046044	-1.73606274	-30.4527177
4.21	421	0.223	2.534	-3.996	-120.3784758	-37.8725238	18.7357266	8.0500599	-2.1485925	-30.32666694
4.22	422	0.191	2.91	-3.996	-105.1950888	-27.9030546	11.0580894	6.98435802	-2.44653066	-30.25791198
4.23	423	0.073	1.252	-3.996	-87.7771656	-20.2254174	-7.5057498	6.1020027	-2.64706596	-30.34958526
4.24	424	-0.239	0.753	-3.065	-42.5707794	-78.5525418	-20.1681216	5.69520252	-3.40337052	-30.64752342
4.25	425	0.121	0.37	-1.868	-29.2781538	-63.7702254	-21.3140376	5.42018268	-4.00497642	-30.939732
4.26	426	0.178	-0.111	-1.356	-26.4133638	-62.8534926	-16.6730778	5.17381074	-4.6123119	-31.17464478
4.27	427	-0.063	-0.227	-1.033	-25.8404058	-77.8076964	1.2032118	4.9274388	-5.38007562	-31.24912932
4.28	428	-0.52	-0.195	-0.679	-18.5065434	-79.2973872	21.6578124	4.73836266	-6.18221682	-31.12307856
4.29	429	-0.81	0.095	-0.466	-26.1268848	-58.7854908	55.863405	4.42896534	-6.80674104	-30.63033468
4.3	430	-0.778	0.271	-0.37	-26.5279554	-33.0023808	83.2507974	4.04508348	-7.23645954	-29.8224639
4.31	431	-0.539	0.177	-0.328	-27.215505	-18.621135	81.8184024	3.67266078	-7.48283148	-29.0203227
4.32	432	-0.375	0.126	-0.278	-37.24227	-9.6829902	55.8061092	3.22002396	-7.61461182	-28.46455344
4.33	433	-0.294	0.259	-0.241	-47.7846972	-9.5111028	25.5539268	2.70436176	-7.72920342	-28.21245192
4.34	434	-0.29	0.332	-0.231	-49.274388	-14.5531332	7.5630456	2.20015872	-7.88390208	-28.14369696
4.35	435	-0.298	0.304	-0.313	-47.6701056	-15.8709366	5.0993262	1.68449652	-8.07297822	-28.09213074
4.36	436	-0.33	0.269	-0.396	-46.8679644	-15.2979786	12.0894138	1.19175264	-8.23340646	-27.97753914
4.37	437	-0.413	0.226	-0.458	-45.0917946	-16.3865988	17.1314442	0.7161975	-8.39956428	-27.80565174
4.38	438	-0.462	0.196	-0.57	-39.9351726	-18.048177	17.1314442	0.286479	-8.58864042	-27.63949392
4.39	439	-0.507	0.175	-0.675	-31.9710564	-17.2460358	14.4958374	-0.05156622	-8.76052782	-27.49625442
4.4	440	-0.463	0.198	-0.755	-20.1108258	-10.6570188	9.8548776	-0.33231564	-8.96106312	-27.37593324
4.41	441	-0.463	0.25	-0.823	-7.734933	-1.5469866	5.9014674	-0.41825934	-8.97825186	-27.31290786
4.42	442	-0.512	0.297	-0.887	3.4950438	7.5630456	1.6042824	-0.38388186	-8.90376732	-27.29571912
4.43	443	-0.537	0.326	-0.97	10.3705398	17.7044022	-3.0366774	-0.28074942	-8.72615034	-27.32436702
4.44	444	-0.546	0.332	-1.01	12.605076	25.5539268	-6.4171296	-0.1432395	-8.47404882	-27.38166282
4.45	445	-0.538	0.323	-0.974	12.7769634	32.2575354	-8.4224826	-0.04583664	-8.19902898	-27.45041778
4.46	446	-0.451	0.265	-0.963	12.9488508	40.5081306	-9.1100322	0.0859437	-7.79795838	-27.5306319
4.47	447	-0.318	0.214	-0.98	13.6936962	46.123119	-8.021412	0.2291832	-7.33959198	-27.59938686
4.48	448	-0.202	0.168	-1.011	15.0687954	47.4409224	-8.880849	0.38388186	-6.86976642	-27.6738714
4.49	449	-0.127	0.15	-1.028	15.469866	47.1544434	-9.7975818	0.5443101	-6.39994086	-27.75408552
4.5	450	-0.067	0.156	-1.018	16.1574156	50.133825	-11.0580894	0.69327918	-5.89573782	-27.8457588
4.51	451	0	0.176	-1.006	19.4232762	53.6861646	-13.5791046	0.89381448	-5.36288688	-27.96607998
4.52	452	0.061	0.183	-0.994	24.1788276	53.9726436	-15.6990492	1.14018642	-4.81857678	-28.09786032
4.53	453	0.127	0.192	-1.025	28.1895336	51.9099948	-16.042824	1.432395	-4.30291458	-28.23537024
4.54	454	0.167	0.205	-1.103	33.6899304	49.5035712	-15.1260912	1.7761698	-3.80444112	-28.361421
4.55	455	0.161	0.192	-1.192	38.961144	44.404245	-14.1520626	2.16005166	-3.34034514	-28.4760126
4.56	456	0.146	0.115	-1.177	43.1437374	32.2002396	-11.5164558	2.60122932	-3.01375908	-28.57341546
4.57	457	0.067	0.029	-1.12	40.2216516	22.631841	-8.2505952	3.0080295	-2.78457588	-28.64217042
4.58	458	0.013	-0.042	-1.143	35.4088044	11.8602306	-4.3544808	3.36899304	-2.65852512	-28.6765479
4.59	459	0.007	-0.069	-1.202	33.4607472	-6.875496	-1.0313244	3.70703826	-2.7215505	-28.69946622
4.6	460	-0.025	-0.058	-1.166	31.799169	-19.5378678	0.2291832	4.02789474	-2.90489706	-28.71665496
4.61	461	-0.008	-0.049	-1.089	24.9809688	-18.2200644	-1.4896908	4.28572584	-3.08251404	-28.75103244
4.62	462	0.04	-0.041	-1.077	12.2613012	-13.750992	-5.443101	4.41750618	-3.21429438	-28.8197874
4.63	463	0.072	-0.046	-1.045	-0.286479	-6.8182002	-9.167328	4.41750618	-3.27159018	-28.91719026
4.64	464	0.165	-0.061	-1.044	-12.8342592	4.583664	-9.5111028	4.29145542	-3.22002396	-29.00886354
4.65	465	0.199	-0.071	-1.058	-21.4286292	6.5317212	-6.2452422	4.07373138	-3.08824362	-29.07188892
4.66	466	0.187	-0.079	-0.897	-19.2513888	1.0886202	-2.2345362	3.87892566	-3.07678446	-29.08907766
4.67	467	0.157	-0.116	-0.683	-11.745639	-2.6929026	0.286479	3.75860448	-3.10543236	-29.08907766
4.68	468	0.124	-0.139	-0.565	-7.734933	-2.9220858	1.6615782	3.67839036	-3.13980984	-29.0776185
4.69	469	0.095	-0.126	-0.533	-6.4744254	-1.145916	1.7761698	3.6096354	-3.151269	-29.06042976
4.7	470	0.068	-0.064	-0.59	-5.8441716	2.1772404	0.6302538	3.54661002	-3.11689152	-29.0489706
4.71	471	0.044	0.03	-0.674	-1.8907614	3.7815228	-0.7448454	3.5236917	-3.08251404	-29.05470018
4.72	472	0.054	0.129	-0.76	2.9220858	1.8334656	-1.0313244	3.55806918	-3.05959572	-29.06615934
4.73	473	0.048	0.207	-0.898	5.72958	0.3437748	-0.3437748	3.61536498	-3.05959572	-29.06615934
4.74	474	0.057	0.253	-1.06	6.302538	-1.5469866	0.5156622	3.67839036	-3.07105488	-29.06615934
4.75	475	0.046	0.262	-1.162	7.0473834	-4.1252976	1.6615782	3.68984952	-3.0939732	-29.05470018
4.76	476	0.037	0.227	-1.218	6.1879464	-3.5523396	2.8074942	3.7528749	-3.13408026	-29.02605228
4.77	477	0.008	0.179	-1.25	4.297185	-1.5469866	4.4117766	3.79298196	-3.151269	-28.98594522
4.78	478	-0.03	0.127	-1.29	4.1252976	-2.3491278	5.3285094	3.83308902	-3.17418732	-28.934379
4.79	479	-0.092	0.09	-1.229	6.7609044	-6.9327918	4.6409598	3.90184398	-3.24867186	-28.89427194
4.8	480	-0.131	0.046	-1.107	13.3499214	-8.59437	3.8388186	4.00497642	-3.35753388	-28.85989446
4.81	481	-0.143	0	-1.068	14.037471	-6.589017	2.8074942	4.14248634	-3.42055926	-28.84270572
4.82	482	-0.128	-0.022	-1.032	11.1153852	-4.6409598	1.3750992	4.25707794	-3.4663959	-28.83124656
4.83	483	-0.094	-0.03	-0.988	14.7823164	-3.7815228	0.2291832	4.40604702	-3.50650296	-28.83697614
4.84	484	-0.084	-0.05	-0.989	18.5638392	-2.578311	-0.9740286	4.60085274	-3.52942128	-28.8484353
4.85	485	-0.077	-0.038	-0.956	20.4546006	-2.578311	-2.9793816	4.78992888	-3.55806918	-28.88281278
4.86	486	-0.102	-0.03	-0.851	25.8977016	-4.9274388	-4.870143	5.05921914	-3.59817624	-28.934379
4.87	487	-0.139	-0.039	-0.796	30.4240698	-5.2712136	-5.5576926	5.36861646	-3.6382833	-29.00313396
4.88	488	-0.17	-0.054	-0.778	31.8564648	-4.1252976	-5.443101	5.69520252	-3.67266078	-29.06042976
4.89	489	-0.193	-0.067	-0.807	29.6792244	-3.0366774	-4.870143	6.00459984	-3.68984952	-29.11772556
4.9	490	-0.188	-0.08	-0.887	24.4080108	0	-4.010706	6.23951262	-3.73568616	-29.15210304
4.91	491	-0.198	-0.076	-0.988	15.4125702	2.7501984	-2.8074942	6.39994086	-3.70130868	-29.17502136
4.92	492	-0.203	-0.062	-1.055	6.4171296	3.0366774	-1.0313244	6.46296624	-3.6669312	-29.18075094
4.93	493	-0.236	-0.047	-1.128	-0.286479	-2.2345362	0.8021412	6.46296624	-3.68984952	-29.17502136
4.94	494	-0.289	-0.048	-1.066	-3.3804522	-5.5003968	1.5469866	6.42858876	-3.74714532	-29.16929178
4.95	495	-0.282	-0.084	-0.955	-5.0420304	6.9900876	0.2291832	6.37129296	-3.7528749	-29.14637346
4.96	496	-0.183	-0.113	-0.963	-10.6570188	31.9137606	-1.9480572	6.25670136	-3.437748	-29.12345514
4.97	497	-0.075	-0.107	-0.935	-8.021412	36.0390582	-3.4950438	6.16502808	-3.08251404	-29.1062664
4.98	498	0.027	-0.118	-0.815	-2.9793816	34.6066632	-4.9274388	6.1306506	-2.73873924	-29.11199598
4.99	499	0.118	-0.147	-0.831	-4.1825934	35.3515086	-4.870143	6.08481396	-2.38350528	-29.11199598
5	500	0.169	-0.172	-0.928	-6.875496	30.9970278	-3.8961144	6.02751816	-2.02254174	-29.11772556
5.01	501	0.181	-0.199	-0.949	-6.9327918	22.6891368	-3.0366774	5.95303362	-1.79908812	-29.11772556
5.02	502	0.15	-0.212	-0.944	-6.3598338	14.896908	-1.8907614	5.88427866	-1.65011904	-29.11772556
5.03	503	0.074	-0.203	-0.969	-6.9327918	7.161975	0	5.80979412	-1.58136408	-29.1062664
5.04	504	0.002	-0.173	-1.019	-8.7662574	1.0886202	1.5469866	5.72385042	-1.5756345	-29.08907766
5.05	505	-0.052	-0.133	-1.055	-9.6829902	-0.286479	2.3491278	5.62071798	-1.6042824	-29.06042976
5.06	506	-0.072	-0.095	-1.067	-9.2246238	2.291832	2.4637194	5.52331512	-1.58709366	-29.03178186
5.07	507	-0.069	-0.066	-1.076	-7.7922288	5.7868758	2.1772404	5.443101	-1.52979786	-29.00313396
5.08	508	-0.053	-0.054	-1.072	-6.4744254	8.5370742	1.432395	5.37434604	-1.44958374	-28.98021564
5.09	509	-0.032	-0.05	-1.061	-5.5576926	10.599723	0.6302538	5.31705024	-1.3464513	-28.95729732
5.1	510	-0.015	-0.049	-1.041	-4.8128472	11.4018642	0.1145916	5.23110654	-1.2318597	-28.94583816
5.11	511	0	-0.042	-1.013	-3.4950438	11.0580894	0.572958	5.19099948	-1.12299768	-28.92291984
5.12	512	0.002	-0.03	-0.987	-1.7761698	9.6256944	1.4896908	5.17381074	-1.0313244	-28.90000152
5.13	513	0.001	-0.012	-0.973	-0.6875496	7.734933	2.291832	5.16235158	-0.95683986	-28.86562404
5.14	514	-0.012	0.009	-0.968	0.286479	5.8441716	3.3231564	5.16808116	-0.89954406	-28.82551698
5.15	515	-0.025	0.023	-0.974	0.9167328	3.9534102	4.5263682	5.03630082	-0.8880849	-28.77395076
5.16	516	-0.036	0.043	-0.968	1.7761698	2.9220858	5.8441716	5.05348956	-0.859437	-28.71665496
5.17	517	-0.048	0.064	-0.956	3.0939732	3.151269	6.9327918	5.08213746	-0.83651868	-28.64217042
5.18	518	-0.054	0.09	-0.954	4.2398892	3.437748	7.2192708	5.12224452	-0.80787078	-28.56768588
5.19	519	-0.041	0.117	-0.961	5.156622	3.6669312	6.7609044	5.17381074	-0.77922288	-28.49320134
5.2	520	-0.02	0.143	-0.975	5.2712136	5.2712136	5.5003968	5.08213746	-0.73338624	-28.43590554
5.21	521	-0.002	0.159	-1.002	4.583664	7.161975	3.8388186	5.1279741	-0.67036086	-28.3900689
5.22	522	0.013	0.16	-1.035	2.8074942	6.302538	2.2345362	5.15089242	-0.60733548	-28.35569142
5.23	523	0.025	0.147	-1.047	0.859437	3.0939732	1.2032118	5.16235158	-0.57868758	-28.34423226
5.24	524	0.023	0.129	-1.037	0.286479	0	0.5156622	5.16235158	-0.57868758	-28.33850268
5.25	525	0.012	0.114	-1.021	1.4896908	-2.291832	0.1145916	4.84722468	-0.58441716	-28.34423226
5.26	526	-0.006	0.094	-1.003	2.6356068	-4.2398892	-0.0572958	4.87587258	-0.62452422	-28.34996184
5.27	527	-0.029	0.078	-0.993	2.291832	-6.016059	-0.5156622	4.90452048	-0.68182002	-28.361421
5.28	528	-0.039	0.07	-0.981	1.2605076	-6.6463128	-1.3178034	4.91597964	-0.75057498	-28.37860974
5.29	529	-0.043	0.06	-0.979	0.4583664	-5.2139178	-2.291832	4.92170922	-0.79641162	-28.40725764
5.3	530	-0.041	0.045	-0.976	-0.1718874	-2.578311	-3.3231564	4.68679644	-0.87662574	-28.43590554
5.31	531	-0.03	0.025	-0.969	-0.859437	1.145916	-4.1252976	4.68106686	-0.859437	-28.4760126
5.32	532	-0.013	0	-0.976	-1.8907614	4.5263682	-4.8128472	4.65814854	-0.81360036	-28.52184924
5.33	533	0.005	-0.026	-0.989	-3.0366774	6.016059	-5.0420304	4.62950064	-0.75057498	-28.5619563
5.34	534	0.023	-0.05	-0.999	-3.724227	5.5003968	-4.9274388	4.58939358	-0.69327918	-28.60779294
5.35	535	0.038	-0.068	-1	-3.2658606	3.7815228	-4.5263682	4.53209778	-0.60733548	-28.65362958
5.36	536	0.045	-0.08	-0.999	-1.8907614	1.5469866	-4.3544808	4.50917946	-0.58441716	-28.69373664
5.37	537	0.042	-0.085	-1	-0.572958	0.0572958	-4.2398892	4.50344988	-0.58441716	-28.73957328
5.38	538	0.036	-0.085	-1.004	0.6302538	-1.0313244	-4.1825934	4.51490904	-0.59014674	-28.77968034
5.39	539	0.027	-0.079	-1.007	1.3750992	-1.6615782	-4.1252976	4.5263682	-0.6016059	-28.82551698
5.4	540	0.013	-0.073	-1.01	2.0626488	-2.0626488	-3.8961144	4.51490904	-0.60733548	-28.86562404
5.41	541	0	-0.067	-1.006	2.6356068	-2.005353	-3.151269	4.54355694	-0.62452422	-28.90000152
5.42	542	-0.008	-0.062	-0.998	3.2085648	-1.4896908	-2.4064236	4.57793442	-0.63598338	-28.92864942
5.43	543	-0.013	-0.06	-0.993	3.5523396	-0.9167328	-1.3750992	4.6123119	-0.64171296	-28.94010858
5.44	544	-0.014	-0.056	-0.989	3.4950438	-1.2032118	-0.7448454	4.65241896	-0.65317212	-28.95156774
5.45	545	-0.016	-0.051	-0.987	3.2658606	-1.6042824	-0.1718874	4.59512316	-0.69327918	-28.95156774
5.46	546	-0.02	-0.042	-0.986	3.2658606	-1.8907614	0.2291832	4.62950064	-0.71046792	-28.95156774
5.47	547	-0.028	-0.032	-0.984	3.4950438	-2.1772404	0.5156622	4.66387812	-0.73338624	-28.95156774
5.48	548	-0.035	-0.023	-0.983	3.437748	-2.2345362	0.572958	4.6982556	-0.75057498	-28.94583816
5.49	549	-0.04	-0.015	-0.983	3.437748	-2.005353	0.8021412	4.73263308	-0.7734933	-28.94010858
5.5	550	-0.046	-0.011	-0.98	3.4950438	-1.6615782	0.9740286	4.63523022	-0.85370742	-28.92291984
5.51	551	-0.049	-0.008	-0.976	3.3804522	-1.0313244	1.3178034	4.6696077	-0.86516658	-28.91146068
5.52	552	-0.048	-0.006	-0.981	2.6356068	-0.2291832	1.4896908	4.6982556	-0.87089616	-28.90000152
5.53	553	-0.047	-0.002	-0.987	2.005353	0.5156622	1.5469866	4.71544434	-0.86516658	-28.88281278
5.54	554	-0.047	0.002	-0.992	1.8334656	1.2032118	1.6042824	4.73263308	-0.85370742	-28.86562404
5.55	555	-0.046	0.005	-0.991	1.8334656	1.8907614	1.6042824	4.58939358	-0.89954406	-28.83697614
5.56	556	-0.044	0.008	-0.989	1.7761698	2.3491278	1.4896908	4.60658232	-0.87662574	-28.8197874
5.57	557	-0.036	0.011	-0.987	1.7761698	2.4064236	1.5469866	4.62377106	-0.85370742	-28.80259866
5.58	558	-0.028	0.015	-0.99	1.6042824	2.1772404	1.6042824	4.6409598	-0.8307891	-28.78540992
5.59	559	-0.026	0.016	-0.993	1.3750992	1.5469866	1.6042824	4.65241896	-0.81932994	-28.76822118
5.6	560	-0.024	0.013	-0.996	1.3178034	1.2605076	1.5469866	4.43469492	-0.84224826	-28.74530286
5.61	561	-0.023	0.011	-1	1.432395	1.3750992	1.3178034	4.45188366	-0.8307891	-28.72811412
5.62	562	-0.022	0.006	-1	1.6615782	1.718874	1.145916	4.46334282	-0.81360036	-28.71665496
5.63	563	-0.02	0.001	-0.999	1.718874	1.8334656	0.9167328	4.48053156	-0.79641162	-28.7051958
5.64	564	-0.016	-0.003	-0.999	1.718874	1.8334656	0.8021412	4.50344988	-0.77922288	-28.69373664
5.65	565	-0.011	-0.007	-0.997	1.4896908	1.718874	0.572958	4.30291458	-0.76776372	-28.68800706
5.66	566	-0.007	-0.011	-0.992	1.2032118	1.5469866	0.3437748	4.31437374	-0.75630456	-28.68227748
5.67	567	-0.002	-0.012	-0.988	0.9167328	1.3178034	0.1718874	4.3258329	-0.73911582	-28.6765479
5.68	568	0.001	-0.015	-0.983	0.6302538	1.2032118	0	4.33156248	-0.72765666	-28.6765479
5.69	569	0.005	-0.019	-0.986	0.4010706	1.0313244	-0.3437748	4.33729206	-0.7161975	-28.68227748
5.7	570	0.009	-0.02	-0.996	0.4583664	0.9167328	-0.5156622	4.05654264	-0.64744254	-28.69373664
5.71	571	0.011	-0.024	-0.996	0.7448454	0.9167328	-0.6875496	4.06227222	-0.64171296	-28.69946622
5.72	572	0.013	-0.03	-0.996	0.8021412	0.9740286	-0.859437	4.0680018	-0.6302538	-28.7051958
5.73	573	0.015	-0.034	-0.995	0.6302538	0.9167328	-0.859437	4.07946096	-0.61879464	-28.71092538
5.74	574	0.012	-0.034	-0.994	0.286479	0.7448454	-0.6875496	4.07946096	-0.61306506	-28.71665496
5.75	575	0.01	-0.03	-0.993	0.4583664	0.4583664	-0.4010706	3.70703826	-0.53285094	-28.7338437
5.76	576	0.007	-0.028	-0.994	0.6302538	0.1145916	-0.3437748	3.71276784	-0.53285094	-28.7338437
5.77	577	0.006	-0.024	-0.991	0.3437748	-0.0572958	-0.2291832	3.71276784	-0.53285094	-28.73957328
5.78	578	0.001	-0.019	-0.989	0.1145916	-0.1718874	-0.2291832	3.71849742	-0.53285094	-28.73957328
5.79	579	-0.002	-0.019	-0.982	0.1718874	-0.286479	-0.286479	3.71849742	-0.53858052	-28.74530286
5.8	580	-0.008	-0.02	-0.977	0.4010706	-0.572958	-0.4583664	3.47785506	-0.572958	-28.74530286
5.81	581	-0.013	-0.022	-0.975	0.4010706	-0.859437	-0.4583664	3.48358464	-0.58441716	-28.75103244
5.82	582	-0.016	-0.022	-0.979	0.3437748	-0.9740286	-0.4010706	3.48358464	-0.59014674	-28.75676202
5.83	583	-0.019	-0.018	-0.983	0.4010706	-1.0313244	-0.2291832	3.48931422	-0.6016059	-28.7624916
5.84	584	-0.022	-0.016	-0.985	0.572958	-1.2032118	0	3.4950438	-0.61306506	-28.7624916
5.85	585	-0.024	-0.016	-0.988	0.6302538	-1.145916	0.1718874	3.2658606	-0.70473834	-28.75676202
5.86	586	-0.024	-0.016	-0.992	0.7448454	-1.145916	0.2291832	3.27159018	-0.7161975	-28.75103244
5.87	587	-0.024	-0.017	-0.992	0.572958	-1.0886202	0.2291832	3.27731976	-0.72765666	-28.75103244
5.88	588	-0.023	-0.015	-0.989	0.3437748	-0.9167328	0.286479	3.28304934	-0.73911582	-28.75103244
5.89	589	-0.024	-0.013	-0.988	0.5156622	-0.6875496	0.286479	3.28877892	-0.7448454	-28.74530286
5.9	590	-0.025	-0.01	-0.987	0.572958	-0.6302538	0.286479	2.99084076	-0.83651868	-28.7338437
5.91	591	-0.025	-0.007	-0.988	0.572958	-0.3437748	0.2291832	2.99657034	-0.84224826	-28.7338437
5.92	592	-0.025	-0.006	-0.989	0.572958	0	0.286479	3.00229992	-0.84224826	-28.72811412
5.93	593	-0.023	-0.009	-0.991	0.5156622	0.1718874	0.3437748	3.0080295	-0.83651868	-28.72811412
5.94	594	-0.02	-0.011	-0.993	0.572958	0.2291832	0.3437748	3.01375908	-0.83651868	-28.72238454
5.95	595	-0.018	-0.013	-0.989	0.7448454	0.0572958	0.286479	2.67571386	-0.91100322	-28.71092538
5.96	596	-0.015	-0.015	-0.988	0.7448454	0	0.286479	2.68717302	-0.91100322	-28.7051958
5.97	597	-0.014	-0.015	-0.985	0.8021412	0	0.286479	2.6929026	-0.91100322	-28.7051958
5.98	598	-0.014	-0.014	-0.987	0.7448454	0	0.286479	2.70436176	-0.91100322	-28.69946622
5.99	599	-0.013	-0.014	-0.987	0.4583664	0.0572958	0.2291832	2.71009134	-0.91100322	-28.69946622
6	600	-0.011	-0.015	-0.987	0.286479	0.0572958	0.1718874	2.28610242	-0.92246238	-28.69373664
6.01	601	-0.008	-0.017	-0.986	0.3437748	0.2291832	0.2291832	2.291832	-0.9167328	-28.68800706
6.02	602	-0.006	-0.021	-0.987	0.286479	0.4583664	0.0572958	2.291832	-0.9167328	-28.68800706
6.03	603	-0.005	-0.024	-0.99	0.1718874	0.7448454	0.0572958	2.29756158	-0.90527364	-28.68800706
6.04	604	-0.006	-0.027	-0.993	0.2291832	0.6302538	0	2.29756158	-0.89954406	-28.68800706
6.05	605	-0.008	-0.027	-0.996	0.3437748	0.5156622	-0.0572958	2.10275586	-0.89954406	-28.68227748
6.06	606	-0.01	-0.026	-0.993	0.3437748	0.6302538	-0.0572958	2.10275586	-0.89381448	-28.68800706
6.07	607	-0.008	-0.021	-0.993	0.2291832	0.7448454	0.0572958	2.10848544	-0.8880849	-28.68227748
6.08	608	-0.008	-0.018	-0.991	0.0572958	0.4583664	0.2291832	2.10848544	-0.88235532	-28.68227748
6.09	609	-0.007	-0.017	-0.985	-0.1718874	0.2291832	0.5156622	2.10848544	-0.88235532	-28.6765479
6.1	610	-0.008	-0.017	-0.981	-0.572958	0.1718874	0.6302538	1.96524594	-0.88235532	-28.66508874
6.11	611	-0.011	-0.018	-0.979	-0.6875496	0.4010706	0.6302538	1.95951636	-0.87662574	-28.65935916
6.12	612	-0.013	-0.02	-0.978	-0.4010706	0.5156622	0.4583664	1.95378678	-0.87662574	-28.65362958
6.13	613	-0.012	-0.022	-0.977	-0.286479	0.4010706	0.1718874	1.95378678	-0.87089616	-28.65362958
6.14	614	-0.013	-0.02	-0.974	-0.4010706	0.2291832	0	1.9480572	-0.86516658	-28.65362958
6.15	615	-0.014	-0.015	-0.974	-0.3437748	0	-0.1145916	1.52979786	-0.92819196	-28.6479
6.16	616	-0.011	-0.012	-0.978	-0.3437748	0	-0.0572958	1.52406828	-0.92819196	-28.6479
6.17	617	-0.011	-0.011	-0.982	-0.6302538	0.1718874	0.1718874	1.5183387	-0.92246238	-28.6479
6.18	618	-0.014	-0.013	-0.985	-0.8021412	0.3437748	0.3437748	1.51260912	-0.92246238	-28.64217042
6.19	619	-0.015	-0.016	-0.988	-0.8021412	0.5156622	0.4010706	1.50114996	-0.9167328	-28.63644084
6.2	620	-0.015	-0.018	-0.99	-0.572958	0.6302538	0.2291832	1.39228794	-0.93392154	-28.63071126
6.21	621	-0.014	-0.017	-0.991	-0.3437748	0.572958	0.1145916	1.38655836	-0.92819196	-28.63071126
6.22	622	-0.013	-0.015	-0.991	-0.1145916	0.4010706	0.0572958	1.38655836	-0.92246238	-28.63071126
6.23	623	-0.013	-0.013	-0.992	-0.0572958	0.2291832	0	1.38655836	-0.92246238	-28.63071126
6.24	624	-0.012	-0.013	-0.991	0	0.2291832	-0.0572958	1.38655836	-0.92246238	-28.63071126
6.25	625	-0.013	-0.013	-0.991	0	0.286479	-0.1145916	1.145916	-0.96256944	-28.62498168
6.26	626	-0.013	-0.013	-0.99	-0.1145916	0.4583664	-0.1145916	1.14018642	-0.95683986	-28.62498168
6.27	627	-0.013	-0.014	-0.988	-0.3437748	0.4583664	0	1.14018642	-0.95111028	-28.62498168
6.28	628	-0.013	-0.011	-0.987	-0.286479	0.286479	0.1145916	1.13445684	-0.9453807	-28.62498168
6.29	629	-0.013	-0.012	-0.988	-0.286479	0.3437748	0.2291832	1.12872726	-0.9453807	-28.62498168
6.3	630	-0.013	-0.012	-0.989	-0.286479	0.572958	0.2291832	1.01986524	-0.95111028	-28.6192521
6.31	631	-0.011	-0.012	-0.992	-0.2291832	0.7448454	0.1145916	1.01413566	-0.9453807	-28.61352252
6.32	632	-0.01	-0.014	-0.994	-0.2291832	0.7448454	0.0572958	1.01413566	-0.93392154	-28.61352252
6.33	633	-0.011	-0.016	-0.994	-0.1718874	0.6875496	0.0572958	1.00840608	-0.92819196	-28.61352252
6.34	634	-0.011	-0.019	-0.993	-0.1145916	0.5156622	0.1718874	1.00840608	-0.92246238	-28.61352252
6.35	635	-0.012	-0.019	-0.991	-0.2291832	0.572958	0.2291832	0.9453807	-0.92819196	-28.60779294
6.36	636	-0.013	-0.018	-0.993	0	0.6302538	0.4010706	0.9453807	-0.92246238	-28.60206336
6.37	637	-0.014	-0.016	-0.989	0	0.7448454	0.4583664	0.9453807	-0.9167328	-28.59633378
6.38	638	-0.014	-0.013	-0.989	-0.0572958	0.859437	0.286479	0.9453807	-0.90527364	-28.59633378
6.39	639	-0.013	-0.013	-0.988	0.2291832	0.4010706	-0.1718874	0.9453807	-0.89954406	-28.59633378
6.4	640	-0.011	-0.014	-0.986	0.1718874	0.572958	-0.2291832	0.85370742	-0.90527364	-28.59633378
6.41	641	-0.008	-0.016	-0.987	0	0.5156622	-0.3437748	0.859437	-0.89954406	-28.60206336
6.42	642	-0.005	-0.017	-0.987	0	0.4010706	-0.3437748	0.85370742	-0.89381448	-28.60206336
6.43	643	-0.005	-0.017	-0.989	-0.0572958	0.1145916	-0.2291832	0.85370742	-0.89381448	-28.60779294
6.44	644	-0.006	-0.014	-0.988	-0.1145916	0	-0.2291832	0.85370742	-0.89381448	-28.60779294
6.45	645	-0.009	-0.013	-0.99	-0.1145916	0	-0.1718874	0.59014674	-0.92246238	-28.60779294
6.46	646	-0.011	-0.011	-0.991	0	0.1718874	-0.3437748	0.59014674	-0.92246238	-28.60779294
6.47	647	-0.012	-0.011	-0.993	0.286479	0.4010706	-0.4010706	0.59587632	-0.9167328	-28.61352252
6.48	648	-0.011	-0.01	-0.993	0.4583664	0.6875496	-0.4010706	0.6016059	-0.91100322	-28.6192521
6.49	649	-0.011	-0.01	-0.992	0.286479	0.6875496	-0.2291832	0.6016059	-0.89954406	-28.6192521
6.5	650	-0.009	-0.009	-0.989	0	0.8021412	-0.0572958	0.5156622	-0.89381448	-28.6192521
6.51	651	-0.007	-0.009	-0.989	-0.2291832	0.859437	0	0.50993262	-0.88235532	-28.6192521
6.52	652	-0.005	-0.009	-0.987	-0.3437748	0.8021412	0.1145916	0.50420304	-0.87662574	-28.6192521
6.53	653	-0.004	-0.01	-0.986	-0.3437748	0.572958	0.1145916	0.50420304	-0.87089616	-28.61352252
6.54	654	-0.005	-0.01	-0.986	-0.2291832	0.2291832	0.1145916	0.49847346	-0.86516658	-28.61352252
6.55	655	-0.005	-0.009	-0.988	-0.1718874	0.0572958	0	0.21199446	-0.84224826	-28.61352252
6.56	656	-0.007	-0.011	-0.989	-0.1718874	0	0	0.21199446	-0.84224826	-28.61352252
6.57	657	-0.008	-0.012	-0.99	-0.1718874	0.0572958	0	0.20626488	-0.84224826	-28.61352252
6.58	658	-0.009	-0.011	-0.989	-0.1145916	0.1145916	0.0572958	0.20626488	-0.83651868	-28.61352252
6.59	659	-0.009	-0.01	-0.989	-0.1718874	0.0572958	0.1718874	0.20626488	-0.83651868	-28.60779294
6.6	660	-0.008	-0.01	-0.99	-0.0572958	0	0.1145916	0	-0.87089616	-28.60206336
6.61	661	-0.007	-0.009	-0.992	-0.0572958	0	0.1145916	0	-0.87089616	-28.60206336
6.62	662	-0.007	-0.012	-0.992	-0.0572958	-0.0572958	0	0	-0.87089616	-28.60206336
6.63	663	-0.008	-0.013	-0.994	-0.0572958	0	-0.0572958	0	-0.87089616	-28.60206336
6.64	664	-0.011	-0.015	-0.993	-0.1718874	-0.0572958	-0.2291832	0	-0.87089616	-28.60779294
6.65	665	-0.012	-0.017	-0.988	-0.1718874	0	-0.286479	-0.0286479	-0.89954406	-28.60779294
6.66	666	-0.01	-0.015	-0.987	-0.1145916	0.1145916	-0.286479	-0.0286479	-0.89381448	-28.61352252
6.67	667	-0.007	-0.011	-0.989	0	0.2291832	-0.1718874	-0.0286479	-0.89381448	-28.61352252
6.68	668	-0.003	-0.007	-0.991	0.1145916	0.1718874	0	-0.0286479	-0.89381448	-28.61352252
6.69	669	0	-0.006	-0.991	0.0572958	0.1718874	0	-0.0286479	-0.8880849	-28.61352252
6.7	670	-0.001	-0.009	-0.991	0	0.0572958	0.1145916	-0.10886202	-0.84224826	-28.61352252
6.71	671	-0.003	-0.01	-0.987	0	0.0572958	0.1718874	-0.10886202	-0.84224826	-28.60779294
6.72	672	-0.003	-0.014	-0.983	-0.1718874	0.1145916	0.0572958	-0.10886202	-0.84224826	-28.60779294
6.73	673	-0.005	-0.015	-0.978	-0.5156622	0	0	-0.1145916	-0.84224826	-28.60779294
6.74	674	-0.006	-0.011	-0.979	-0.572958	-0.1718874	-0.0572958	-0.12032118	-0.84224826	-28.60779294
6.75	675	-0.004	-0.009	-0.98	-0.5156622	-0.2291832	-0.0572958	-0.16615782	-0.8307891	-28.60779294
6.76	676	-0.001	-0.006	-0.985	-0.4583664	-0.1718874	0.0572958	-0.1718874	-0.8307891	-28.60779294
6.77	677	-0.001	-0.006	-0.992	-0.3437748	-0.1718874	0.2291832	-0.17761698	-0.8307891	-28.60779294
6.78	678	-0.001	-0.007	-0.994	-0.0572958	-0.4010706	0.286479	-0.17761698	-0.83651868	-28.60206336
6.79	679	-0.001	-0.008	-0.996	0.1145916	-0.4010706	0.4010706	-0.17761698	-0.84224826	-28.59633378
6.8	680	0	-0.01	-0.996	0.4583664	-0.5156622	0.286479	-0.18334656	-0.83651868	-28.59633378
6.81	681	0	-0.009	-0.996	0.6875496	-0.7448454	0.2291832	-0.17761698	-0.84224826	-28.59633378
6.82	682	0	-0.009	-0.997	1.0313244	-1.0313244	0.1718874	-0.16615782	-0.85370742	-28.5906042
6.83	683	-0.002	-0.008	-0.994	1.3750992	-1.3178034	0.0572958	-0.15469866	-0.86516658	-28.5906042
6.84	684	-0.006	-0.005	-0.993	1.5469866	-1.3750992	0.0572958	-0.13750992	-0.87662574	-28.5906042
6.85	685	-0.007	-0.005	-0.99	1.6615782	-1.3750992	0	-0.13750992	-0.89381448	-28.5906042
6.86	686	-0.008	-0.004	-0.99	1.6615782	-1.0886202	-0.0572958	-0.12032118	-0.90527364	-28.5906042
6.87	687	-0.007	-0.004	-0.989	1.4896908	-0.9167328	-0.1718874	-0.10313244	-0.9167328	-28.59633378
6.88	688	-0.007	-0.005	-0.988	1.3750992	-0.9167328	-0.286479	-0.0859437	-0.92246238	-28.59633378
6.89	689	-0.008	-0.006	-0.987	1.3750992	-0.9740286	-0.286479	-0.07448454	-0.93392154	-28.60206336
6.9	690	-0.008	-0.008	-0.988	1.3750992	-0.8021412	-0.286479	-0.07448454	-0.93965112	-28.60779294
6.91	691	-0.006	-0.01	-0.989	1.2605076	-0.572958	-0.1145916	-0.06302538	-0.9453807	-28.60779294
6.92	692	-0.003	-0.01	-0.991	1.0886202	-0.4583664	0	-0.04583664	-0.95111028	-28.60779294
6.93	693	-0.001	-0.008	-0.992	1.2605076	-0.4010706	0	-0.03437748	-0.95683986	-28.60779294
6.94	694	-0.003	-0.01	-0.993	1.432395	-0.4010706	0	-0.02291832	-0.95683986	-28.60779294
6.95	695	-0.004	-0.011	-0.991	1.2605076	-0.3437748	0	-0.02291832	-0.95111028	-28.60779294
6.96	696	-0.005	-0.011	-0.992	1.145916	-0.1718874	0	-0.01145916	-0.95683986	-28.60779294
6.97	697	-0.005	-0.011	-0.994	1.145916	-0.1718874	0	0	-0.95683986	-28.60779294
6.98	698	-0.005	-0.011	-0.989	1.0313244	-0.1718874	-0.1145916	0.00572958	-0.95683986	-28.60779294
6.99	699	-0.006	-0.012	-0.987	0.9740286	-0.286479	-0.2291832	0.01718874	-0.96256944	-28.61352252
7	700	-0.005	-0.013	-0.986	0.8021412	-0.3437748	-0.3437748	0.01145916	-0.95683986	-28.6192521
7.01	701	-0.004	-0.012	-0.986	0.6875496	-0.4583664	-0.4583664	0.01718874	-0.96256944	-28.6192521
7.02	702	-0.005	-0.011	-0.987	0.6875496	-0.5156622	-0.4010706	0.02291832	-0.96829902	-28.62498168
7.03	703	-0.004	-0.01	-0.989	0.8021412	-0.3437748	-0.2291832	0.03437748	-0.9740286	-28.63071126
7.04	704	-0.004	-0.009	-0.99	0.859437	-0.3437748	-0.2291832	0.04010706	-0.9740286	-28.63071126
7.05	705	-0.005	-0.009	-0.992	0.9740286	-0.1718874	-0.1718874	0.02291832	-0.9740286	-28.63071126
7.06	706	-0.006	-0.009	-0.993	0.9167328	-0.0572958	-0.1718874	0.03437748	-0.9740286	-28.63644084
7.07	707	-0.006	-0.009	-0.994	0.9740286	0	-0.1718874	0.04583664	-0.9740286	-28.63644084
7.08	708	-0.006	-0.01	-0.994	0.9740286	-0.0572958	-0.1145916	0.05156622	-0.9740286	-28.64217042
7.09	709	-0.005	-0.011	-0.991	0.9167328	0	-0.1718874	0.06302538	-0.9740286	-28.64217042
7.1	710	-0.004	-0.01	-0.99	0.859437	0.0572958	-0.1145916	0.04010706	-0.95683986	-28.64217042
7.11	711	-0.003	-0.009	-0.991	0.859437	0.0572958	-0.0572958	0.05156622	-0.95683986	-28.64217042
7.12	712	-0.001	-0.008	-0.991	0.9740286	0	0	0.06302538	-0.95683986	-28.64217042
7.13	713	-0.001	-0.008	-0.991	1.0313244	0	0.0572958	0.07448454	-0.95683986	-28.64217042
7.14	714	0	-0.007	-0.991	1.0886202	0	0.0572958	0.0859437	-0.95683986	-28.64217042
7.15	715	0	-0.008	-0.991	1.0886202	-0.0572958	0.0572958	0.06302538	-0.93392154	-28.64217042
7.16	716	0	-0.008	-0.991	1.0313244	-0.1145916	0	0.07448454	-0.93392154	-28.64217042
7.17	717	0.001	-0.008	-0.992	1.0313244	-0.1718874	0.0572958	0.0859437	-0.93965112	-28.64217042
7.18	718	0.003	-0.009	-0.993	0.9740286	-0.3437748	0	0.09740286	-0.93965112	-28.64217042
7.19	719	0.002	-0.01	-0.995	0.9167328	-0.5156622	-0.0572958	0.10313244	-0.9453807	-28.64217042
7.2	720	0	-0.011	-0.995	0.9167328	-0.5156622	-0.1145916	0.09740286	-0.93392154	-28.64217042
7.21	721	0	-0.012	-0.995	0.859437	-0.4583664	-0.2291832	0.10313244	-0.93965112	-28.6479
7.22	722	0.002	-0.011	-0.995	0.8021412	-0.5156622	-0.1718874	0.1145916	-0.9453807	-28.6479
7.23	723	0.002	-0.011	-0.996	0.8021412	-0.572958	-0.1145916	0.12032118	-0.95111028	-28.6479
7.24	724	0.002	-0.009	-0.999	0.8021412	-0.572958	0	0.13178034	-0.95683986	-28.6479
7.25	725	0	-0.01	-1	0.1145916	-0.572958	0.0572958	0.09167328	-0.93965112	-28.6479
7.26	726	-0.004	-0.012	-0.997	0.2291832	-0.8021412	0	0.09740286	-0.9453807	-28.6479
7.27	727	-0.003	-0.013	-0.992	0.2291832	-0.5156622	-0.1145916	0.09740286	-0.95111028	-28.6479
7.28	728	-0.001	-0.012	-0.991	0.1145916	-0.4583664	0	0.10313244	-0.95683986	-28.65362958
7.29	729	0.002	-0.01	-0.992	0.1718874	-0.6302538	0	0.10313244	-0.96256944	-28.65362958
7.3	730	0.003	-0.008	-0.988	0.286479	-0.859437	0.2291832	0.08021412	-0.9453807	-28.6479
7.31	731	0.002	-0.009	-0.989	0.2291832	-1.0886202	0.3437748	0.08021412	-0.95683986	-28.6479
7.32	732	-0.001	-0.009	-0.988	0.0572958	-1.0886202	0.4010706	0.08021412	-0.96829902	-28.64217042
7.33	733	-0.004	-0.011	-0.984	0	-1.0886202	0.286479	0.08021412	-0.97975818	-28.63644084
7.34	734	-0.008	-0.012	-0.978	-0.2291832	-0.9167328	0.2291832	0.08021412	-0.99121734	-28.63644084
7.35	735	-0.009	-0.012	-0.977	-0.3437748	-0.859437	0	0.05156622	-0.99694692	-28.63644084
7.36	736	-0.002	-0.01	-0.98	-0.286479	-0.7448454	-0.0572958	0.04583664	-1.0026765	-28.63644084
7.37	737	0.002	-0.012	-0.986	-0.3437748	-0.6302538	0.0572958	0.04583664	-1.00840608	-28.63644084
7.38	738	0.003	-0.014	-0.992	-0.1718874	-0.7448454	0.1718874	0.04010706	-1.01413566	-28.63644084
7.39	739	0	-0.016	-0.995	0	-0.859437	0.3437748	0.04010706	-1.02559482	-28.63071126
7.4	740	-0.002	-0.015	-0.995	-0.0572958	-0.859437	0.2291832	0.02291832	-1.01413566	-28.63071126
7.41	741	-0.002	-0.014	-0.996	0	-0.8021412	0.1718874	0.02291832	-1.01986524	-28.62498168
7.42	742	-0.002	-0.011	-0.997	0.1145916	-0.7448454	0.2291832	0.0286479	-1.02559482	-28.62498168
7.43	743	0	-0.008	-0.999	0.2291832	-0.9167328	0.286479	0.0286479	-1.03705398	-28.6192521
7.44	744	-0.003	-0.007	-0.996	0.2291832	-1.0313244	0.286479	0.03437748	-1.04851314	-28.6192521
7.45	745	-0.005	-0.008	-0.995	0.286479	-0.9740286	0.286479	0.00572958	-1.04278356	-28.61352252
7.46	746	-0.006	-0.008	-0.991	0.4010706	-1.0313244	0.286479	0.01145916	-1.05424272	-28.61352252
7.47	747	-0.004	-0.009	-0.993	0.4010706	-1.3178034	0.1718874	0.01145916	-1.06570188	-28.61352252
7.48	748	-0.002	-0.007	-0.993	0.4010706	-1.6615782	0	0.01718874	-1.08289062	-28.61352252
7.49	749	-0.003	-0.007	-0.988	0.3437748	-1.8334656	-0.1145916	0.02291832	-1.10007936	-28.61352252
7.5	750	-0.001	-0.007	-0.987	0.2291832	-1.8907614	-0.286479	0.01145916	-1.10580894	-28.6192521
7.51	751	-0.002	-0.008	-0.987	0.2291832	-1.8334656	-0.286479	0.01145916	-1.12299768	-28.6192521
7.52	752	-0.002	-0.01	-0.987	0.286479	-1.6042824	-0.286479	0.01718874	-1.14018642	-28.62498168
7.53	753	-0.003	-0.012	-0.99	0.2291832	-1.4896908	-0.286479	0.02291832	-1.15737516	-28.63071126
7.54	754	-0.004	-0.014	-0.991	0.1718874	-1.3750992	-0.2291832	0.02291832	-1.16883432	-28.63071126
7.55	755	-0.005	-0.017	-0.991	0.1145916	-1.2032118	-0.1718874	0.01718874	-1.16883432	-28.63071126
7.56	756	-0.005	-0.019	-0.989	0.2291832	-1.2032118	0	0.02291832	-1.18029348	-28.63644084
7.57	757	-0.005	-0.02	-0.989	0.286479	-1.0886202	0	0.02291832	-1.19175264	-28.63644084
7.58	758	-0.003	-0.018	-0.992	0.3437748	-1.0313244	0	0.0286479	-1.19748222	-28.63644084
7.59	759	-0.003	-0.015	-0.988	0.4583664	-1.0886202	0	0.03437748	-1.20894138	-28.63644084
7.6	760	-0.004	-0.015	-0.985	0.4010706	-1.145916	-0.2291832	0.0286479	-1.20894138	-28.63644084
7.61	761	-0.003	-0.015	-0.984	0.2291832	-1.2605076	-0.286479	0.0286479	-1.22040054	-28.64217042
7.62	762	-0.002	-0.016	-0.983	0.1145916	-1.3178034	-0.1718874	0.03437748	-1.2318597	-28.64217042
7.63	763	-0.002	-0.016	-0.984	0.0572958	-1.3178034	-0.1145916	0.03437748	-1.24904844	-28.6479
7.64	764	-0.002	-0.016	-0.988	0	-0.4583664	0	0.03437748	-1.24904844	-28.6479
7.65	765	-0.003	-0.016	-0.989	-0.1145916	-0.1145916	0	0	-1.16883432	-28.6479
7.66	766	-0.004	-0.015	-0.992	-0.1145916	0	0	-0.00572958	-1.16883432	-28.6479
7.67	767	-0.005	-0.014	-0.993	-0.0572958	0	0	-0.00572958	-1.16883432	-28.6479
7.68	768	-0.006	-0.013	-0.995	0.1718874	0.1145916	0	0	-1.16883432	-28.6479
7.69	769	-0.006	-0.013	-0.996	0.1718874	0.1718874	0	0	-1.16310474	-28.6479
7.7	770	-0.005	-0.015	-0.995	-0.1145916	0.1145916	0	-0.03437748	-1.12299768	-28.64217042
7.71	771	-0.007	-0.016	-0.994	-0.6302538	0	0.1718874	-0.04010706	-1.12299768	-28.64217042
7.72	772	-0.005	-0.015	-0.989	-1.145916	-0.1718874	0.1718874	-0.05156622	-1.12872726	-28.64217042
7.73	773	-0.005	-0.013	-0.983	-1.432395	-0.2291832	0.286479	-0.06302538	-1.12872726	-28.63644084
7.74	774	-0.005	-0.008	-0.981	-1.6615782	-0.1145916	0.3437748	-0.08021412	-1.12872726	-28.63644084
7.75	775	-0.005	-0.007	-0.984	-1.5469866	0	0.4010706	-0.1145916	-1.12299768	-28.63071126
7.76	776	-0.006	-0.005	-0.987	-1.432395	-0.0572958	0.3437748	-0.13178034	-1.12299768	-28.62498168
7.77	777	-0.005	-0.007	-0.99	-1.3750992	-0.1145916	0.4010706	-0.1432395	-1.12299768	-28.6192521
7.78	778	-0.006	-0.008	-0.989	-1.3178034	-0.1145916	0.4010706	-0.16042824	-1.12872726	-28.6192521
7.79	779	-0.006	-0.011	-0.988	-1.2605076	-0.1145916	0.3437748	-0.1718874	-1.12872726	-28.61352252
7.8	780	-0.009	-0.013	-0.987	-1.145916	0	0.3437748	-0.18907614	-1.12299768	-28.60779294
7.81	781	-0.012	-0.014	-0.987	-0.9740286	0.1718874	0.286479	-0.2005353	-1.12299768	-28.60779294
7.82	782	-0.014	-0.014	-0.986	-0.8021412	0.286479	0.2291832	-0.20626488	-1.1172681	-28.60206336
7.83	783	-0.014	-0.014	-0.987	-0.6875496	0.6875496	0.1718874	-0.21772404	-1.11153852	-28.60206336
7.84	784	-0.01	-0.014	-0.987	-0.572958	0.7448454	0	-0.22345362	-1.10007936	-28.60206336
7.85	785	-0.006	-0.016	-0.986	-0.5156622	0.6875496	0	-0.2291832	-1.08289062	-28.60206336
7.86	786	-0.004	-0.017	-0.986	-0.6302538	0.7448454	-0.1145916	-0.23491278	-1.07716104	-28.60206336
7.87	787	-0.004	-0.017	-0.988	-0.4583664	0.7448454	-0.0572958	-0.24064236	-1.06570188	-28.60206336
7.88	788	-0.005	-0.017	-0.989	-0.286479	0.6302538	-0.1145916	-0.24064236	-1.0599723	-28.60206336
7.89	789	-0.006	-0.019	-0.988	-0.286479	0.5156622	-0.1718874	-0.24637194	-1.05424272	-28.60779294
7.9	790	-0.005	-0.018	-0.986	-0.286479	0.859437	-0.2291832	-0.24637194	-1.03705398	-28.60779294
