TimeStamp(s)	FrameCounter	AccX	AccY	AccZ	GyrX	GyrY	GyrZ	EulerX	EulerY	EulerZ
0.01	1	0.01	-1.009	-0.093	0.0572958	-0.2291832	-0.2291832	84.12742314	1.70168526	13.91714982
0.02	2	0.005	-1.012	-0.105	0.1145916	0	-0.5156622	84.13315272	1.70741484	13.91714982
0.03	3	0.008	-1.012	-0.106	0	-0.0572958	-0.572958	84.13315272	1.71314442	13.91714982
0.04	4	0.012	-1.013	-0.108	0	-0.1718874	-0.572958	84.13315272	1.718874	13.91714982
0.05	5	0.014	-1.01	-0.109	-0.2291832	-0.286479	-0.572958	84.06439776	1.69595568	13.9228794
0.06	6	0.012	-1.007	-0.106	-0.4583664	-0.4010706	-0.4583664	84.05866818	1.70168526	13.9228794
0.07	7	0.011	-1.008	-0.101	-0.6875496	-0.1718874	-0.4583664	84.0529386	1.70741484	13.91714982
0.08	8	0.011	-1.01	-0.104	-0.7448454	0.1145916	-0.286479	84.04720902	1.70741484	13.91714982
0.09	9	0.009	-1.009	-0.107	-1.0313244	0.1718874	-0.1145916	84.03574986	1.70741484	13.9228794
0.1	10	0.004	-1.005	-0.098	-1.0313244	0.286479	0.0572958	83.98418364	1.6615782	13.93433856
0.11	11	0.003	-1.005	-0.105	-0.9740286	0.286479	0.1145916	83.97272448	1.6615782	13.93433856
0.12	12	0	-1.002	-0.088	-0.859437	0.5156622	0.1718874	83.9669949	1.6615782	13.94006814
0.13	13	-0.005	-0.984	-0.07	-0.0572958	0.3437748	0.5156622	83.9669949	1.65584862	13.94579772
0.14	14	0	-0.976	-0.087	0.0572958	-0.2291832	1.145916	83.9669949	1.64438946	13.94579772
0.15	15	0.007	-0.987	-0.101	-0.1718874	-0.6302538	1.3750992	83.938347	1.6042824	13.94579772
0.16	16	0	-1.01	-0.1	-0.572958	0	0.572958	83.93261742	1.59855282	13.94579772
0.17	17	-0.004	-1.006	-0.091	-0.8021412	0.8021412	-0.4583664	83.92115826	1.6042824	13.9515273
0.18	18	-0.01	-0.984	-0.104	-0.9167328	0.2291832	-1.3178034	83.91542868	1.62147114	13.9515273
0.19	19	0.002	-0.966	-0.103	-0.8021412	-0.3437748	-1.4896908	83.90396952	1.6329303	13.94579772
0.2	20	0.019	-0.977	-0.096	-0.5156622	-0.1145916	-1.0886202	83.8810512	1.64438946	13.9515273
0.21	21	0.023	-1.005	-0.094	-0.286479	0.572958	-0.7448454	83.87532162	1.65584862	13.95725688
0.22	22	0.013	-1.018	-0.098	-0.1718874	0.6302538	-0.4010706	83.87532162	1.6615782	13.96298646
0.23	23	0.006	-1.017	-0.099	0	0.2291832	0.1718874	83.87532162	1.65584862	13.96298646
0.24	24	0.011	-1.011	-0.093	0.0572958	0.1145916	0.3437748	83.87532162	1.65584862	13.96298646
0.25	25	0.016	-1.007	-0.091	-0.1145916	0.1718874	-0.1145916	83.8524033	1.62720072	13.97444562
0.26	26	0.014	-1.008	-0.096	-0.2291832	0.2291832	-0.572958	83.84667372	1.6329303	13.97444562
0.27	27	0.005	-1.01	-0.103	-0.4010706	0	-0.6875496	83.84094414	1.64438946	13.97444562
0.28	28	0.003	-1.012	-0.102	-0.4010706	-0.1718874	-0.5156622	83.84094414	1.65011904	13.97444562
0.29	29	0.008	-1.013	-0.101	-0.4010706	-0.3437748	-0.286479	83.83521456	1.65011904	13.96871604
0.3	30	0.016	-1.009	-0.102	-0.6875496	-0.4583664	-0.3437748	83.80083708	1.64438946	13.96871604
0.31	31	0.017	-1.007	-0.104	-0.9167328	-0.3437748	-0.4010706	83.78937792	1.65011904	13.96298646
0.32	32	0.014	-1.004	-0.104	-1.0313244	-0.1718874	-0.4583664	83.77791876	1.65011904	13.96298646
0.33	33	0.01	-0.999	-0.103	-0.9740286	-0.286479	-0.3437748	83.77218918	1.65584862	13.95725688
0.34	34	0.009	-0.996	-0.103	-1.0886202	-0.5156622	-0.3437748	83.75500044	1.65584862	13.9515273
0.35	35	0.009	-0.993	-0.102	-1.0886202	-0.572958	-0.2291832	83.72062296	1.63865988	13.9515273
0.36	36	0.009	-0.994	-0.098	-1.0313244	-0.6302538	-0.1718874	83.7091638	1.63865988	13.94579772
0.37	37	0.008	-0.991	-0.1	-0.9167328	-0.572958	-0.286479	83.70343422	1.63865988	13.94006814
0.38	38	0.007	-0.992	-0.102	-0.6875496	-0.6302538	-0.4010706	83.69197506	1.64438946	13.92860898
0.39	39	0.007	-0.992	-0.103	-0.4583664	-0.859437	-0.4583664	83.68624548	1.65011904	13.9228794
0.4	40	0.007	-0.994	-0.102	-0.1718874	-1.2605076	-0.5156622	83.66905674	1.6329303	13.91142024
0.41	41	0.005	-0.997	-0.099	0	-1.2605076	-0.6875496	83.66905674	1.63865988	13.89996108
0.42	42	0.004	-0.999	-0.099	0	-1.0886202	-0.8021412	83.66905674	1.64438946	13.88850192
0.43	43	0.003	-1.001	-0.098	0	-0.859437	-0.9740286	83.66905674	1.65584862	13.87704276
0.44	44	0.003	-1.002	-0.095	-0.0572958	-0.6302538	-0.9740286	83.66905674	1.6615782	13.87131318
0.45	45	0.005	-1.003	-0.097	-0.1718874	-0.4583664	-0.859437	83.651868	1.63865988	13.8655836
0.46	46	0.007	-1.002	-0.097	-0.2291832	-0.5156622	-0.6875496	83.64613842	1.65011904	13.85985402
0.47	47	0.007	-1.005	-0.097	-0.286479	-0.4583664	-0.572958	83.64040884	1.65011904	13.85412444
0.48	48	0.009	-1.006	-0.097	-0.3437748	-0.3437748	-0.572958	83.64040884	1.65584862	13.84839486
0.49	49	0.01	-1.007	-0.097	-0.4010706	-0.2291832	-0.572958	83.63467926	1.6615782	13.84839486
0.5	50	0.01	-1.007	-0.097	-0.4583664	0	-0.5156622	83.60603136	1.6329303	13.84839486
0.51	51	0.007	-1.005	-0.095	-0.6875496	0	-0.3437748	83.60030178	1.63865988	13.84839486
0.52	52	0.006	-1	-0.096	-0.8021412	-0.2291832	-0.2291832	83.5945722	1.63865988	13.84839486
0.53	53	0.006	-1	-0.095	-0.859437	-0.3437748	-0.1718874	83.58311304	1.63865988	13.84266528
0.54	54	0.009	-1.002	-0.096	-1.0313244	0	-0.1145916	83.57165388	1.64438946	13.84266528
0.55	55	0.01	-1.002	-0.098	-1.0313244	0.2291832	-0.1145916	83.54300598	1.62147114	13.84839486
0.56	56	0.009	-1.004	-0.098	-0.9167328	0.4010706	-0.0572958	83.5372764	1.62147114	13.84839486
0.57	57	0.007	-1.004	-0.096	-0.9740286	0.0572958	-0.0572958	83.52581724	1.62147114	13.85412444
0.58	58	0.007	-1.002	-0.098	-0.9167328	0	-0.1718874	83.51435808	1.62720072	13.84839486
0.59	59	0.009	-1	-0.1	-0.7448454	-0.0572958	-0.1718874	83.5086285	1.62720072	13.84839486
0.6	60	0.012	-0.998	-0.1	-0.6875496	-0.1718874	-0.4010706	83.4799806	1.6042824	13.84839486
0.61	61	0.013	-1	-0.101	-0.6875496	-0.1145916	-0.5156622	83.46852144	1.61001198	13.84839486
0.62	62	0.013	-1.002	-0.102	-0.8021412	0	-0.572958	83.46279186	1.61574156	13.84839486
0.63	63	0.012	-1	-0.102	-0.5156622	-0.0572958	-0.4010706	83.45706228	1.62147114	13.84839486
0.64	64	0.013	-0.999	-0.1	0.286479	0.1145916	0.0572958	83.45706228	1.62147114	13.84839486
0.65	65	0.013	-0.998	-0.1	0.2291832	0.1145916	0.1145916	83.4226848	1.58136408	13.85985402
0.66	66	0.014	-0.999	-0.101	0.286479	0.0572958	0.2291832	83.4226848	1.5756345	13.85985402
0.67	67	0.012	-1.001	-0.099	0.2291832	-0.1145916	0.286479	83.42841438	1.5756345	13.85985402
0.68	68	0.008	-1.001	-0.098	0.2291832	-0.286479	0.286479	83.42841438	1.56990492	13.85412444
0.69	69	0.003	-0.999	-0.098	0.2291832	-0.3437748	0.286479	83.42841438	1.56417534	13.84839486
0.7	70	0.001	-0.997	-0.099	0.1718874	-0.1718874	0.1718874	83.39976648	1.50114996	13.85412444
0.71	71	0.003	-0.996	-0.099	0.2291832	-0.0572958	0.1718874	83.40549606	1.49542038	13.85412444
0.72	72	0.005	-0.997	-0.097	0.1718874	0	0.2291832	83.40549606	1.49542038	13.85412444
0.73	73	0.006	-0.998	-0.099	0.2291832	0	0.2291832	83.41122564	1.49542038	13.85412444
0.74	74	0.008	-0.997	-0.099	0.2291832	-0.1145916	0.1718874	83.41122564	1.4896908	13.85412444
0.75	75	0.007	-0.997	-0.1	0.286479	-0.2291832	0.1145916	83.37684816	1.432395	13.85412444
0.76	76	0.007	-0.999	-0.098	0.3437748	-0.3437748	0.2291832	83.38257774	1.432395	13.85412444
0.77	77	0.006	-1.001	-0.097	0.3437748	-0.2291832	0.286479	83.38830732	1.42666542	13.85412444
0.78	78	0.005	-1.002	-0.1	0.2291832	0	0.286479	83.38830732	1.42666542	13.85412444
0.79	79	0.004	-1.003	-0.1	0.1145916	0.3437748	0.286479	83.38830732	1.42093584	13.85412444
0.8	80	0.005	-1.003	-0.096	0.1145916	0.8021412	0.2291832	83.38257774	1.38655836	13.8655836
0.81	81	0.008	-1.003	-0.095	0	1.0886202	0.2291832	83.38257774	1.38655836	13.87704276
0.82	82	0.011	-1.003	-0.099	0.0572958	0.9167328	0.4010706	83.38257774	1.38655836	13.88850192
0.83	83	0.014	-1.001	-0.105	0.4010706	0.3437748	0.6302538	83.38830732	1.3750992	13.8942315
0.84	84	0.013	-0.999	-0.106	0.7448454	-0.0572958	0.572958	83.3940369	1.36936962	13.88850192
0.85	85	0.008	-1.003	-0.1	0.8021412	-0.1718874	0.4010706	83.38830732	1.34072172	13.8942315
0.86	86	0.002	-1.006	-0.099	0.572958	-0.3437748	0	83.3940369	1.34072172	13.88850192
0.87	87	0	-1.006	-0.102	0.572958	-0.286479	-0.3437748	83.39976648	1.34072172	13.88277234
0.88	88	0	-1.007	-0.099	0.6302538	-0.1718874	-0.5156622	83.41122564	1.3464513	13.88277234
0.89	89	0	-1.006	-0.095	0.572958	0.1145916	-0.6302538	83.41695522	1.35218088	13.88277234
0.9	90	0.004	-1.005	-0.094	0.4583664	0.286479	-0.4583664	83.41695522	1.32926256	13.88850192
0.91	91	0.008	-1.004	-0.092	0.286479	0.4010706	-0.286479	83.41695522	1.32926256	13.8942315
0.92	92	0.009	-0.997	-0.092	0.1145916	0.4010706	-0.0572958	83.41695522	1.33499214	13.8942315
0.93	93	0.008	-0.993	-0.092	0	0.5156622	0.0572958	83.41695522	1.32926256	13.89996108
0.94	94	0.003	-0.993	-0.094	-0.0572958	0.5156622	0.1145916	83.41695522	1.32926256	13.90569066
0.95	95	0	-0.994	-0.094	-0.1718874	0.5156622	0.1145916	83.40549606	1.2891555	13.91714982
0.96	96	-0.002	-0.996	-0.095	-0.0572958	0.7448454	0	83.40549606	1.2891555	13.9228794
0.97	97	-0.002	-0.997	-0.096	0	0.9167328	-0.1145916	83.40549606	1.2891555	13.92860898
0.98	98	0	-0.998	-0.096	0.1145916	1.0886202	-0.3437748	83.40549606	1.29488508	13.94006814
0.99	99	0.005	-1	-0.095	0.0572958	1.2032118	-0.4583664	83.41122564	1.30061466	13.9515273
1	100	0.009	-0.998	-0.095	0.286479	1.0886202	-0.4583664	83.40549606	1.29488508	13.96298646
1.01	101	0.012	-1	-0.092	0.286479	1.2032118	-0.4583664	83.41122564	1.30061466	13.97444562
1.02	102	0.012	-1.002	-0.093	0.3437748	1.2605076	-0.4010706	83.41122564	1.30634424	13.98590478
1.03	103	0.013	-1.005	-0.097	0.4010706	1.145916	-0.286479	83.41695522	1.31207382	13.99736394
1.04	104	0.013	-1.007	-0.097	0.2291832	1.0313244	-0.2291832	83.41695522	1.3178034	14.0088231
1.05	105	0.01	-1.007	-0.098	0.0572958	0.7448454	-0.2291832	83.40549606	1.30061466	14.02028226
1.06	106	0.008	-1.007	-0.1	0	0.7448454	-0.2291832	83.40549606	1.30634424	14.02601184
1.07	107	0.007	-1.007	-0.1	-0.0572958	0.7448454	-0.3437748	83.40549606	1.30634424	14.03174142
1.08	108	0.006	-1.008	-0.098	-0.2291832	0.6302538	-0.6302538	83.39976648	1.3178034	14.037471
1.09	109	0.007	-1.007	-0.097	-0.4583664	0.6875496	-0.7448454	83.3940369	1.32353298	14.04320058
1.1	110	0.008	-1.004	-0.098	-0.3437748	0.7448454	-0.8021412	83.38257774	1.3178034	14.05465974
1.11	111	0.011	-1.003	-0.1	-0.286479	0.859437	-0.8021412	83.37684816	1.32926256	14.06038932
1.12	112	0.014	-1.002	-0.101	-0.4010706	0.859437	-0.6875496	83.37684816	1.33499214	14.07184848
1.13	113	0.014	-1.001	-0.099	-0.5156622	0.4583664	-0.5156622	83.37111858	1.34072172	14.07184848
1.14	114	0.013	-1	-0.097	-0.5156622	0.3437748	-0.4583664	83.365389	1.3464513	14.07757806
1.15	115	0.011	-1.001	-0.097	-0.6875496	0.3437748	-0.4010706	83.34820026	1.33499214	14.08330764
1.16	116	0.011	-0.999	-0.098	-0.6302538	0.2291832	-0.4583664	83.3367411	1.34072172	14.08330764
1.17	117	0.011	-0.998	-0.098	-0.4583664	0.3437748	-0.5156622	83.3367411	1.3464513	14.08903722
1.18	118	0.011	-0.996	-0.098	-0.4010706	0.1145916	-0.3437748	83.33101152	1.35218088	14.08903722
1.19	119	0.009	-0.995	-0.095	-0.2291832	-0.1718874	-0.2291832	83.32528194	1.35218088	14.08330764
1.2	120	0.013	-0.997	-0.093	-0.3437748	-0.1718874	-0.1718874	83.31955236	1.34072172	14.08330764
1.21	121	0.014	-0.999	-0.093	-0.5156622	-0.1718874	-0.1145916	83.31382278	1.34072172	14.08330764
1.22	122	0.014	-1.002	-0.096	-0.5156622	-0.1718874	-0.1145916	83.3080932	1.34072172	14.07757806
1.23	123	0.012	-1.005	-0.097	-0.5156622	0	-0.1145916	83.30236362	1.34072172	14.07757806
1.24	124	0.01	-1.006	-0.096	-0.286479	0	-0.1718874	83.29663404	1.3464513	14.07757806
1.25	125	0.009	-1.008	-0.093	0	-0.3437748	-0.286479	83.30236362	1.32353298	14.07184848
1.26	126	0.008	-1.007	-0.093	0.0572958	-0.4010706	-0.4583664	83.30236362	1.32353298	14.07184848
1.27	127	0.011	-1.005	-0.095	0	-0.286479	-0.6302538	83.30236362	1.32926256	14.0661189
1.28	128	0.013	-1.003	-0.095	-0.0572958	-0.286479	-0.8021412	83.30236362	1.34072172	14.06038932
1.29	129	0.012	-1.004	-0.094	-0.286479	-0.4010706	-0.9167328	83.29663404	1.3464513	14.05465974
1.3	130	0.011	-1.003	-0.093	-0.5156622	-0.4583664	-0.9167328	83.29090446	1.3464513	14.04893016
1.31	131	0.011	-0.999	-0.096	-0.572958	-0.3437748	-0.9167328	83.28517488	1.35218088	14.04320058
1.32	132	0.01	-0.998	-0.097	-0.5156622	-0.1718874	-0.9740286	83.2794453	1.36364004	14.04320058
1.33	133	0.009	-0.998	-0.097	-0.286479	-0.0572958	-0.9167328	83.2794453	1.36936962	14.04320058
1.34	134	0.007	-0.996	-0.098	-0.286479	-0.1718874	-0.9167328	83.27371572	1.38082878	14.037471
1.35	135	0.003	-0.994	-0.095	-0.286479	-0.1718874	-0.9167328	83.26225656	1.35218088	14.037471
1.36	136	0.001	-0.993	-0.095	-0.286479	0.0572958	-1.0313244	83.26225656	1.36364004	14.037471
1.37	137	0	-0.994	-0.096	-0.2291832	0.286479	-1.0886202	83.25652698	1.3750992	14.037471
1.38	138	0	-0.996	-0.095	-0.2291832	0.4010706	-1.145916	83.25652698	1.38655836	14.037471
1.39	139	0.002	-0.997	-0.096	-0.2291832	0.572958	-1.145916	83.25652698	1.39801752	14.04320058
1.4	140	0.007	-0.998	-0.099	-0.1145916	0.6875496	-1.145916	83.24506782	1.39801752	14.04893016
1.41	141	0.01	-0.998	-0.099	-0.1718874	0.6302538	-1.145916	83.24506782	1.40947668	14.05465974
1.42	142	0.009	-0.999	-0.096	-0.4010706	0.3437748	-1.2032118	83.23933824	1.42093584	14.06038932
1.43	143	0.009	-1	-0.095	-0.572958	0.2291832	-1.145916	83.23360866	1.432395	14.06038932
1.44	144	0.011	-1.002	-0.096	-0.572958	0.3437748	-1.0313244	83.22787908	1.44385416	14.06038932
1.45	145	0.011	-1.003	-0.099	-0.6875496	0.3437748	-0.9167328	83.21641992	1.43812458	14.0661189
1.46	146	0.01	-1.005	-0.1	-0.7448454	0.5156622	-0.859437	83.20496076	1.44958374	14.0661189
1.47	147	0.009	-1.006	-0.101	-0.6875496	0.4583664	-0.859437	83.19923118	1.45531332	14.07184848
1.48	148	0.011	-1.007	-0.099	-0.286479	0.0572958	-0.1718874	83.1935016	1.4610429	14.07184848
1.49	149	0.014	-1.006	-0.096	-0.3437748	-0.1718874	-0.286479	83.1935016	1.4610429	14.07184848
1.5	150	0.017	-1.007	-0.096	-0.3437748	-0.1718874	-0.4010706	83.18204244	1.45531332	14.07184848
1.51	151	0.018	-1.008	-0.096	-0.5156622	-0.1718874	-0.4010706	83.17631286	1.4610429	14.0661189
1.52	152	0.018	-1.006	-0.097	-0.7448454	-0.3437748	-0.4010706	83.1648537	1.4610429	14.06038932
1.53	153	0.016	-1.004	-0.097	-0.6302538	-0.7448454	-0.3437748	83.15912412	1.46677248	14.05465974
1.54	154	0.016	-1.002	-0.098	-0.6302538	-0.8021412	-0.3437748	83.15339454	1.46677248	14.04893016
1.55	155	0.019	-1	-0.099	-0.7448454	-0.6875496	-0.3437748	83.14193538	1.46677248	14.037471
1.56	156	0.02	-0.996	-0.101	-0.6875496	-0.6875496	-0.5156622	83.13047622	1.47250206	14.03174142
1.57	157	0.022	-0.995	-0.101	-0.8021412	-0.8021412	-0.572958	83.12474664	1.47823164	14.02028226
1.58	158	0.022	-0.993	-0.1	-0.6875496	-0.9740286	-0.5156622	83.11328748	1.48396122	14.01455268
1.59	159	0.02	-0.995	-0.099	-0.6302538	-0.859437	-0.4010706	83.1075579	1.48396122	14.00309352
1.6	160	0.02	-0.996	-0.099	-0.4583664	-1.0886202	-0.286479	83.10182832	1.48396122	13.99163436
1.61	161	0.02	-0.996	-0.099	-0.4583664	-1.0313244	-0.2291832	83.09609874	1.4896908	13.9801752
1.62	162	0.018	-0.996	-0.099	-0.4010706	-1.2032118	-0.2291832	83.09036916	1.4896908	13.96871604
1.63	163	0.016	-0.996	-0.099	-0.4010706	-1.5469866	-0.286479	83.08463958	1.4896908	13.9515273
1.64	164	0.015	-0.997	-0.098	-0.0572958	-1.5469866	-0.3437748	83.08463958	1.49542038	13.93433856
1.65	165	0.015	-0.999	-0.097	0.0572958	-1.5469866	-0.3437748	83.08463958	1.4896908	13.91714982
1.66	166	0.015	-1	-0.099	0.0572958	-1.4896908	-0.4010706	83.08463958	1.4896908	13.90569066
1.67	167	0.015	-1.001	-0.099	0.1145916	-1.3750992	-0.4010706	83.08463958	1.49542038	13.88850192
1.68	168	0.015	-1.003	-0.099	0.1718874	-1.5469866	-0.4010706	83.09036916	1.49542038	13.87704276
1.69	169	0.016	-1.005	-0.097	0.0572958	-1.4896908	-0.3437748	83.09036916	1.49542038	13.85985402
1.7	170	0.016	-1.005	-0.097	0.0572958	-1.145916	-0.2291832	83.09609874	1.4896908	13.84839486
1.71	171	0.018	-1.006	-0.096	0.0572958	-0.859437	-0.2291832	83.09609874	1.4896908	13.8369357
1.72	172	0.018	-1.005	-0.098	0	-0.6875496	-0.1145916	83.09609874	1.4896908	13.83120612
1.73	173	0.018	-1.003	-0.101	-0.1718874	-0.6302538	-0.1145916	83.09036916	1.4896908	13.82547654
1.74	174	0.016	-1.003	-0.102	-0.286479	-0.4583664	-0.1145916	83.09036916	1.4896908	13.81974696
1.75	175	0.017	-1.005	-0.103	-0.3437748	-0.5156622	-0.1718874	83.07318042	1.48396122	13.81401738
1.76	176	0.017	-1.003	-0.105	-0.3437748	-0.572958	-0.1145916	83.06745084	1.48396122	13.8082878
1.77	177	0.017	-1.002	-0.101	-0.286479	-0.6875496	-0.1145916	83.06745084	1.48396122	13.80255822
1.78	178	0.018	-1.001	-0.1	-0.286479	-0.4583664	-0.1718874	83.06172126	1.4896908	13.79682864
1.79	179	0.019	-1.002	-0.096	-0.3437748	-0.1145916	-0.1145916	83.05599168	1.4896908	13.79682864
1.8	180	0.021	-0.999	-0.097	-0.572958	-0.1718874	-0.1145916	83.0502621	1.4896908	13.79109906
1.81	181	0.022	-0.997	-0.099	-0.7448454	-0.4010706	0.0572958	83.03880294	1.4896908	13.79109906
1.82	182	0.022	-0.998	-0.097	-0.859437	-0.286479	0.1718874	83.03307336	1.4896908	13.78536948
1.83	183	0.022	-0.999	-0.096	-0.9167328	-0.2291832	0.286479	83.0216142	1.48396122	13.78536948
1.84	184	0.021	-1	-0.099	-1.0313244	-0.0572958	0.286479	83.01015504	1.48396122	13.78536948
1.85	185	0.018	-0.999	-0.101	-0.9167328	0	0.2291832	82.9929663	1.46677248	13.78536948
1.86	186	0.015	-1	-0.103	-0.6302538	0	0.2291832	82.98723672	1.46677248	13.78536948
1.87	187	0.015	-0.999	-0.103	-0.3437748	0	0.286479	82.98150714	1.4610429	13.78536948
1.88	188	0.015	-1	-0.1	-0.1718874	0	0.4010706	82.98150714	1.4610429	13.78536948
1.89	189	0.019	-0.999	-0.099	-0.0572958	-0.1145916	0.3437748	82.98150714	1.45531332	13.78536948
1.9	190	0.02	-0.998	-0.099	-0.2291832	-0.286479	0.3437748	82.97577756	1.44958374	13.7796399
1.91	191	0.02	-0.996	-0.1	-0.4010706	-0.1145916	0.2291832	82.97004798	1.44958374	13.7796399
1.92	192	0.021	-0.998	-0.101	-0.286479	0.1145916	0.1145916	82.97004798	1.44958374	13.7796399
1.93	193	0.022	-1.001	-0.101	-0.286479	0.2291832	0	82.9643184	1.44958374	13.78536948
1.94	194	0.023	-1.001	-0.101	-0.3437748	0.0572958	0.0572958	82.95858882	1.44385416	13.78536948
1.95	195	0.023	-1.002	-0.103	-0.4583664	0	0.0572958	82.9356705	1.45531332	13.78536948
1.96	196	0.023	-1	-0.104	-0.4010706	-0.0572958	0.0572958	82.9356705	1.45531332	13.78536948
1.97	197	0.022	-1	-0.105	-0.286479	0	0.0572958	82.92994092	1.45531332	13.78536948
1.98	198	0.026	-1.002	-0.106	-0.2291832	-0.1718874	0.1145916	82.92994092	1.45531332	13.78536948
1.99	199	0.028	-1.002	-0.107	-0.286479	-0.6875496	0	82.92421134	1.44958374	13.7796399
2	200	0.024	-1.002	-0.107	0	-1.2032118	-0.286479	82.91275218	1.45531332	13.76818074
2.01	201	0.016	-1.002	-0.107	0	-1.432395	-0.2291832	82.91275218	1.45531332	13.750992
2.02	202	0.011	-1.003	-0.103	-0.4010706	-1.3750992	0.0572958	82.91275218	1.45531332	13.73953284
2.03	203	0.011	-1.002	-0.102	-0.4583664	-0.9740286	0.6302538	82.9070226	1.44385416	13.72807368
2.04	204	0.011	-0.998	-0.102	-0.1718874	-0.6302538	0.9167328	82.90129302	1.43812458	13.7223441
2.05	205	0.019	-0.998	-0.098	-0.286479	-0.286479	0.859437	82.90129302	1.42666542	13.7223441
2.06	206	0.025	-1	-0.103	-0.4583664	-0.2291832	0.859437	82.89556344	1.42093584	13.71661452
2.07	207	0.026	-1	-0.103	-0.6302538	-0.0572958	0.859437	82.88983386	1.40947668	13.71661452
2.08	208	0.025	-0.999	-0.101	-0.4583664	0	0.859437	82.88410428	1.4037471	13.7223441
2.09	209	0.024	-1.002	-0.1	-0.286479	0	0.7448454	82.8783747	1.39228794	13.7223441
2.1	210	0.022	-1.002	-0.101	0	0.2291832	0.286479	82.8783747	1.39801752	13.7223441
2.11	211	0.02	-1.001	-0.104	0.0572958	0.2291832	0.0572958	82.8783747	1.39801752	13.72807368
2.12	212	0.02	-1	-0.102	0.0572958	0.4010706	-0.0572958	82.8783747	1.39801752	13.73380326
2.13	213	0.019	-1.001	-0.102	0.1718874	0.3437748	-0.3437748	82.88410428	1.4037471	13.73380326
2.14	214	0.017	-0.999	-0.102	0.3437748	0.6302538	-0.4583664	82.88410428	1.40947668	13.73953284
2.15	215	0.018	-0.999	-0.098	0.5156622	0.9167328	-0.6875496	82.90129302	1.41520626	13.750992
2.16	216	0.019	-0.998	-0.094	0.5156622	1.3178034	-0.9167328	82.9070226	1.42666542	13.76245116
2.17	217	0.022	-0.996	-0.095	0.6875496	1.7761698	-1.145916	82.91275218	1.43812458	13.7796399
2.18	218	0.024	-0.997	-0.095	0.3437748	2.0626488	-1.6042824	82.91848176	1.4610429	13.79682864
2.19	219	0.021	-0.997	-0.097	0.0572958	2.1199446	-1.718874	82.91848176	1.47823164	13.81401738
2.2	220	0.02	-1.003	-0.095	-0.2291832	2.1772404	-1.7761698	82.91848176	1.49542038	13.8369357
2.21	221	0.019	-1.004	-0.099	-0.7448454	2.005353	-1.8334656	82.91275218	1.5183387	13.85412444
2.22	222	0.023	-1.004	-0.099	-1.145916	2.1199446	-1.8907614	82.90129302	1.54125702	13.87131318
2.23	223	0.023	-1.003	-0.1	-0.9740286	1.8907614	-1.7761698	82.88983386	1.55844576	13.88850192
2.24	224	0.016	-1.008	-0.104	-0.572958	1.2032118	-1.718874	82.88410428	1.5756345	13.89996108
2.25	225	0.015	-1.007	-0.098	-0.9740286	0.9740286	-1.8907614	82.8783747	1.58709366	13.90569066
2.26	226	0.016	-1.008	-0.091	-1.0313244	0.6875496	-2.1772404	82.86691554	1.61001198	13.91142024
2.27	227	0.017	-1.008	-0.094	-1.3178034	0.5156622	-2.5210152	82.85545638	1.63865988	13.91142024
2.28	228	0.016	-1.006	-0.097	-1.3178034	0.2291832	-2.8074942	82.83826764	1.66730778	13.91142024
2.29	229	0.016	-1.007	-0.1	-1.3178034	0.3437748	-2.9220858	82.82680848	1.69595568	13.91142024
2.3	230	0.016	-1.006	-0.098	-1.5469866	0.286479	-2.86479	82.81534932	1.718874	13.91142024
2.31	231	0.019	-1.004	-0.091	-1.7761698	0.5156622	-2.9793816	82.79816058	1.7475219	13.91142024
2.32	232	0.02	-1.004	-0.093	-2.0626488	0.5156622	-3.2658606	82.77524226	1.78189938	13.91142024
2.33	233	0.018	-1.002	-0.097	-2.3491278	0.3437748	-3.4950438	82.75232394	1.81627686	13.91142024
2.34	234	0.018	-1	-0.099	-2.4637194	0.572958	-3.8388186	82.72367604	1.85638392	13.91142024
2.35	235	0.018	-0.999	-0.1	-2.5210152	1.2032118	-4.2398892	82.70075772	1.89649098	13.91714982
2.36	236	0.017	-0.998	-0.101	-2.5210152	1.3750992	-4.583664	82.6778394	1.94232762	13.92860898
2.37	237	0.019	-0.996	-0.102	-2.4637194	1.6615782	-4.870143	82.6491915	1.98816426	13.93433856
2.38	238	0.02	-0.996	-0.102	-2.5210152	1.8907614	-5.156622	82.62627318	2.04546006	13.94579772
2.39	239	0.021	-0.997	-0.097	-2.578311	2.291832	-5.5003968	82.59762528	2.09702628	13.96298646
2.4	240	0.025	-1	-0.096	-3.151269	2.9220858	-5.8441716	82.56897738	2.16005166	13.98590478
2.41	241	0.029	-1	-0.099	-3.6096354	3.437748	-6.0733548	82.5345999	2.22307704	14.0088231
2.42	242	0.031	-1.003	-0.102	-4.010706	3.3231564	-6.4744254	82.49449284	2.291832	14.037471
2.43	243	0.03	-1.006	-0.102	-4.583664	3.0939732	-6.875496	82.44292662	2.36058696	14.06038932
2.44	244	0.026	-1.004	-0.099	-5.2139178	2.86479	-7.1046792	82.3913604	2.4350715	14.07757806
2.45	245	0.021	-1.005	-0.099	-5.6149884	2.1199446	-7.3338624	82.33979418	2.50382646	14.08903722
2.46	246	0.021	-1.01	-0.103	-6.016059	2.1199446	-7.6776372	82.2767688	2.578311	14.10049638
2.47	247	0.018	-1.012	-0.111	-6.1879464	2.291832	-7.9641162	82.21374342	2.65852512	14.11195554
2.48	248	0.01	-1.019	-0.105	-6.302538	2.3491278	-8.0787078	82.15071804	2.74446882	14.1234147
2.49	249	0.017	-1.018	-0.089	-6.5317212	3.6096354	-8.3651868	82.08196308	2.83041252	14.14633302
2.5	250	0.025	-1.012	-0.091	-7.2192708	4.3544808	-8.880849	82.01320812	2.91635622	14.17498092
2.51	251	0.034	-1.009	-0.103	-8.1932994	4.3544808	-9.6256944	81.932994	3.01375908	14.20362882
2.52	252	0.04	-1.006	-0.112	-9.167328	3.9534102	-10.0840608	81.84132072	3.11689152	14.22654714
2.53	253	0.036	-1.006	-0.114	-8.6516658	3.3804522	-10.4851314	81.74964744	3.22575354	14.24946546
2.54	254	0.033	-1.007	-0.107	-8.4224826	3.9534102	-10.886202	81.66370374	3.33461556	14.27238378
2.55	255	0.032	-1.002	-0.112	-8.5370742	4.5263682	-11.45916	81.58348962	3.44920716	14.2953021
2.56	256	0.027	-0.998	-0.114	-8.59437	4.8128472	-12.1467096	81.49754592	3.57525792	14.32967958
2.57	257	0.027	-0.997	-0.114	-8.59437	4.6982556	-12.9488508	81.40587264	3.70703826	14.3525979
2.58	258	0.027	-0.996	-0.114	-8.5370742	4.4117766	-13.6936962	81.31992894	3.84454818	14.37551622
2.59	259	0.028	-0.998	-0.118	-8.9381448	4.3544808	-14.0947668	81.23398524	3.98778768	14.39843454
2.6	260	0.032	-0.999	-0.122	-9.2819196	4.3544808	-14.32395	81.13658238	4.13102718	14.41562328
2.61	261	0.03	-1	-0.12	-9.2246238	3.7815228	-14.4958374	81.0449091	4.27426668	14.43281202
2.62	262	0.029	-1.001	-0.118	-9.3392154	3.5523396	-14.6677248	80.95323582	4.42323576	14.44427118
2.63	263	0.029	-1	-0.125	-9.740286	3.724227	-15.1260912	80.85010338	4.57793442	14.45573034
2.64	264	0.031	-1	-0.127	-9.8548776	5.0993262	-15.9282324	80.75270052	4.73836266	14.47864866
2.65	265	0.034	-0.998	-0.126	-9.7975818	6.1879464	-16.615782	80.65529766	4.90452048	14.51302614
2.66	266	0.035	-0.995	-0.127	-9.9121734	6.6463128	-17.0741484	80.5578948	5.08213746	14.5531332
2.67	267	0.044	-0.998	-0.135	-10.2559482	7.3338624	-17.18874	80.45476236	5.25975444	14.59324026
2.68	268	0.058	-1.002	-0.134	-10.4278356	7.734933	-17.0741484	80.35162992	5.43737142	14.64480648
2.69	269	0.062	-1.001	-0.133	-10.1413566	8.1360036	-17.0168526	80.25422706	5.6149884	14.6963727
2.7	270	0.065	-0.993	-0.13	-10.2559482	8.6516658	-16.6730778	80.1568242	5.7868758	14.74793892
2.71	271	0.065	-0.986	-0.131	-10.1986524	8.59437	-16.3865988	80.05369176	5.9587632	14.80523472
2.72	272	0.06	-0.985	-0.13	-9.8548776	8.3651868	-16.3865988	79.9562889	6.1306506	14.86253052
2.73	273	0.055	-0.991	-0.131	-9.8548776	8.59437	-16.615782	79.86461562	6.302538	14.91409674
2.74	274	0.059	-0.999	-0.132	-10.4851314	9.6829902	-16.9595568	79.76148318	6.48015498	14.9828517
2.75	275	0.073	-1.001	-0.135	-11.2299768	10.4278356	-17.2460358	79.65835074	6.66350154	15.05160666
2.76	276	0.094	-1.001	-0.145	-12.3758928	11.0580894	-17.5898106	79.53802956	6.85257768	15.1260912
2.77	277	0.093	-0.996	-0.144	-13.5791046	11.172681	-17.761698	79.40624922	7.04165382	15.20630532
2.78	278	0.105	-0.993	-0.149	-14.4958374	11.4018642	-17.5898106	79.2687393	7.23072996	15.28078986
2.79	279	0.119	-0.994	-0.156	-15.8709366	11.2872726	-17.5898106	79.11404064	7.41407652	15.36100398
2.8	280	0.132	-0.993	-0.164	-17.1314442	11.5737516	-17.7044022	78.94788282	7.60888224	15.4412181
2.81	281	0.14	-0.994	-0.168	-18.048177	11.5737516	-18.2200644	78.77599542	7.80368796	15.51570264
2.82	282	0.122	-0.994	-0.167	-18.9649098	11.172681	-18.6784308	78.58691928	8.00422326	15.59018718
2.83	283	0.123	-0.989	-0.172	-19.8243468	11.3445684	-19.0222056	78.39784314	8.20475856	15.66467172
2.84	284	0.138	-0.988	-0.183	-20.6837838	12.1467096	-19.6524594	78.19730784	8.41675302	15.73915626
2.85	285	0.136	-0.988	-0.182	-21.7151082	12.0894138	-20.6837838	77.98531338	8.63447706	15.8136408
2.86	286	0.128	-0.983	-0.176	-21.8869956	11.3445684	-21.199446	77.76758934	8.85793068	15.88239576
2.87	287	0.135	-0.985	-0.182	-22.1734746	11.2299768	-21.4286292	77.5498653	9.08711388	15.94542114
2.88	288	0.152	-0.988	-0.193	-22.7464326	11.9175264	-21.772404	77.33214126	9.31629708	16.0141761
2.89	289	0.159	-0.989	-0.205	-23.3766864	12.7769634	-22.6891368	77.10295806	9.55693944	16.08293106
2.9	290	0.158	-0.988	-0.203	-24.4080108	12.3758928	-23.8350528	76.8623157	9.80904096	16.15168602
2.91	291	0.147	-0.98	-0.202	-25.4393352	10.3705398	-24.4080108	76.61021418	10.06687206	16.19752266
2.92	292	0.151	-0.973	-0.204	-25.6112226	9.453807	-24.7517856	76.35238308	10.31897358	16.22617056
2.93	293	0.176	-0.977	-0.209	-26.8144344	10.599723	-25.3820394	76.0888224	10.58253426	16.2720072
2.94	294	0.188	-0.98	-0.207	-28.3041252	10.4851314	-25.8977016	75.80807298	10.85182452	16.30638468
2.95	295	0.174	-0.971	-0.2	-29.507337	9.0527364	-26.1268848	75.51013482	11.12111478	16.329303
2.96	296	0.163	-0.96	-0.198	-29.6792244	8.5370742	-26.2414764	75.21219666	11.39040504	16.34649174
2.97	297	0.165	-0.958	-0.196	-30.0229992	9.740286	-26.5279554	74.90852892	11.66542488	16.36941006
2.98	298	0.184	-0.957	-0.197	-30.939732	11.3445684	-26.8717302	74.5991316	11.9461743	16.40951712
2.99	299	0.194	-0.962	-0.192	-31.8564648	12.2040054	-27.215505	74.2840047	12.2326533	16.44962418
3	300	0.204	-0.969	-0.209	-33.4034514	12.4331886	-27.9030546	73.95168906	12.52486188	16.49546082
3.01	301	0.209	-0.966	-0.233	-35.9817624	11.6883432	-28.5333084	73.59072552	12.82280004	16.52410872
3.02	302	0.207	-0.959	-0.251	-37.0130868	10.4278356	-28.934379	73.21830282	13.1207382	16.54129746
3.03	303	0.2	-0.957	-0.255	-37.6433406	9.5683986	-29.6219286	72.83442096	13.42440594	16.54129746
3.04	304	0.198	-0.956	-0.247	-38.1590028	8.9954406	-30.366774	72.44480952	13.73380326	16.53556788
3.05	305	0.207	-0.951	-0.239	-39.0757356	8.59437	-30.9970278	72.04373892	14.04320058	16.51837914
3.06	306	0.23	-0.947	-0.244	-39.8778768	8.1360036	-31.51269	71.63120916	14.35832748	16.49546082
3.07	307	0.246	-0.94	-0.259	-41.4248634	8.1360036	-32.0283522	71.20149066	14.67918396	16.46681292
3.08	308	0.246	-0.93	-0.275	-42.685371	7.6776372	-32.4867186	70.75458342	15.00577002	16.43243544
3.09	309	0.253	-0.925	-0.287	-44.1750618	6.9327918	-33.231564	70.29621702	15.33235608	16.3865988
3.1	310	0.256	-0.921	-0.285	-45.3782736	6.1879464	-33.7472262	69.8149323	15.65894214	16.32357342
3.11	311	0.236	-0.906	-0.271	-46.4668938	3.9534102	-33.9764094	69.32218842	15.9855282	16.23762972
3.12	312	0.217	-0.891	-0.26	-45.4928652	2.4637194	-33.4034514	68.82944454	16.3006551	16.13449728
3.13	313	0.222	-0.892	-0.244	-44.8626114	2.005353	-32.4294228	68.34243024	16.59859326	16.02563526
3.14	314	0.221	-0.893	-0.255	-45.3209778	2.1772404	-31.9137606	67.84968636	16.89653142	15.92250282
3.15	315	0.213	-0.889	-0.274	-46.123119	3.6669312	-32.2575354	67.35694248	17.20019916	15.83082954
3.16	316	0.224	-0.89	-0.276	-47.3263308	5.7868758	-33.5753388	66.85273944	17.52105564	15.74488584
3.17	317	0.238	-0.893	-0.287	-49.4462754	6.875496	-34.6066632	66.32561808	17.85337128	15.66467172
3.18	318	0.252	-0.892	-0.3	-51.1651494	6.9900876	-34.7785506	65.7755784	18.1914165	15.5844576
3.19	319	0.252	-0.889	-0.309	-51.6808116	6.1879464	-34.3201842	65.21980914	18.52373214	15.49278432
3.2	320	0.258	-0.888	-0.295	-52.9413192	5.5576926	-33.6899304	64.6583103	18.83885904	15.39538146
3.21	321	0.255	-0.864	-0.291	-52.6548402	4.4117766	-33.0596766	64.0853523	19.14825636	15.28078986
3.22	322	0.245	-0.847	-0.287	-49.9046418	4.2398892	-33.8618178	63.53531262	19.45765368	15.16046868
3.23	323	0.249	-0.856	-0.299	-49.6181628	5.5576926	-35.523396	62.99100252	19.78996932	15.04587708
3.24	324	0.248	-0.872	-0.325	-52.6548402	5.7868758	-37.1276784	62.41231494	20.1394737	14.91982632
3.25	325	0.25	-0.88	-0.345	-54.2591226	5.0420304	-38.5600734	61.81070904	20.48897808	14.77085724
3.26	326	0.258	-0.887	-0.373	-55.863405	4.6982556	-39.4768062	61.18618482	20.84994162	14.61615858
3.27	327	0.249	-0.891	-0.375	-57.3530958	3.2658606	-40.0497642	60.53874228	21.20517558	14.43281202
3.28	328	0.242	-0.89	-0.356	-57.9833496	3.151269	-40.680018	59.87984058	21.56613912	14.24373588
3.29	329	0.223	-0.881	-0.364	-58.8427866	4.6982556	-42.112413	59.2152093	21.93856182	14.06038932
3.3	330	0.199	-0.889	-0.354	-61.0773228	8.2505952	-42.7426668	58.53911886	22.32817326	13.89996108
3.31	331	0.183	-0.883	-0.363	-65.5463952	11.172681	-42.0551172	57.81719178	22.73497344	13.76245116
3.32	332	0.18	-0.866	-0.384	-67.2079734	12.1467096	-40.6227222	57.08380554	23.12458488	13.6364004
3.33	333	0.196	-0.847	-0.385	-66.2912406	14.2093584	-38.7319608	56.36760804	23.51419632	13.53326796
3.34	334	0.201	-0.827	-0.423	-66.0047616	16.902261	-37.3568616	55.6628697	23.90380776	13.45878342
3.35	335	0.2	-0.8	-0.429	-66.6923112	20.05353	-35.5806918	54.96959052	24.28768962	13.41867636
3.36	336	0.172	-0.805	-0.438	-63.311859	20.7410796	-33.3461556	54.31068882	24.6658419	13.39002846
3.37	337	0.149	-0.836	-0.479	-63.4837464	20.912967	-30.0229992	53.66324628	25.01534628	13.38429888
3.38	338	0.114	-0.838	-0.472	-60.7908438	20.8556712	-26.8144344	53.04445164	25.33620276	13.39575804
3.39	339	0.092	-0.828	-0.442	-57.1239126	21.8296998	-24.7517856	52.47149364	25.65132966	13.41867636
3.4	340	0.046	-0.771	-0.407	-55.5196302	24.6944898	-23.0902074	51.9386427	25.9549974	13.48170174
3.41	341	0.022	-0.731	-0.418	-54.0872352	31.5699858	-21.3713334	51.44016924	26.30450178	13.61348208
3.42	342	-0.015	-0.711	-0.441	-54.7747848	38.2735944	-18.621135	50.97034368	26.6711949	13.81974696
3.43	343	-0.047	-0.697	-0.46	-52.8267276	42.4561878	-15.5271618	50.54635476	27.03788802	14.08330764
3.44	344	-0.093	-0.679	-0.38	-49.560867	46.8106686	-12.0894138	50.18539122	27.41031072	14.40416412
3.45	345	-0.127	-0.643	-0.271	-42.5134836	53.8007562	-9.0527364	49.94474886	27.788463	14.8109643
3.46	346	-0.156	-0.628	-0.289	-38.101707	64.0567044	-7.3911582	49.78432062	28.23537024	15.31516734
3.47	347	-0.175	-0.618	-0.361	-37.9298196	72.5937786	-5.443101	49.6754586	28.71665496	15.91104366
3.48	348	-0.201	-0.603	-0.408	-35.4088044	77.6931048	-3.7815228	49.62389238	29.220858	16.56994536
3.49	349	-0.209	-0.596	-0.426	-30.3094782	85.370742	-1.2032118	49.66972902	29.75943852	17.31479076
3.5	350	-0.215	-0.6	-0.4	-24.2361234	94.0224078	0.5156622	49.83588684	30.3094782	18.15703902
3.51	351	-0.203	-0.593	-0.383	-22.631841	105.1950888	1.8334656	50.08225878	30.939732	19.11960846
3.52	352	-0.21	-0.57	-0.357	-20.7410796	117.169911	3.0366774	50.420304	31.6272816	20.20249908
3.53	353	-0.207	-0.542	-0.346	-17.761698	129.202029	3.8388186	50.86721124	32.37785658	21.42289962
3.54	354	-0.203	-0.54	-0.34	-15.2979786	140.7184848	3.6669312	51.4229805	33.19145694	22.76935092
3.55	355	-0.17	-0.569	-0.305	-12.032118	150.5160666	2.3491278	52.08761178	34.04516436	24.21893466
3.56	356	-0.126	-0.546	-0.248	-7.7922288	157.6780416	-1.3178034	52.84964592	34.96762674	25.74300294
3.57	357	-0.133	-0.459	-0.201	-2.6356068	165.298383	-7.161975	53.72054208	35.96457366	27.3300966
3.58	358	-0.096	-0.45	-0.147	2.2345362	170.455005	-12.8342592	54.69457068	37.01881638	28.96875648
3.59	359	-0.054	-0.42	-0.116	3.4950438	174.9813732	-16.2147114	55.7488134	38.09597742	30.6819009
3.6	360	-0.029	-0.402	-0.118	5.5003968	180.768249	-19.0795014	56.91191814	39.19605678	32.4867186
3.61	361	0.001	-0.404	-0.1	7.0473834	188.1594072	-21.8869956	58.19534406	40.3362432	34.41758706
3.62	362	0.031	-0.405	-0.078	11.5164558	193.086846	-27.215505	59.60482074	41.5108071	36.42866964
3.63	363	0.042	-0.39	-0.041	18.8503182	197.3267352	-33.2888598	61.18045524	42.71974848	38.5314255
3.64	364	0.063	-0.343	0.036	25.8404058	198.1861722	-39.4195104	62.89932924	43.94014902	40.69720674
3.65	365	0.066	-0.303	0.092	31.6845774	197.384031	-46.3523022	64.74998358	45.16627914	42.9145542
3.66	366	0.081	-0.245	0.1	34.0337052	197.4413268	-50.2484166	66.71522952	46.37522052	45.2063862
3.67	367	0.096	-0.186	0.093	37.9298196	194.6338326	-53.1705024	68.78933748	47.54978442	47.555514
3.68	368	0.117	-0.15	0.146	43.4302164	194.0035788	-57.4103916	71.0181441	48.70143	49.99631508
3.69	369	0.181	-0.139	0.197	47.3263308	195.8943402	-61.7648724	73.4245677	49.83015726	52.5688965
3.7	370	0.244	-0.16	0.206	48.3576552	199.675863	-64.457775	76.01433786	50.92450704	55.32482448
3.71	371	0.475	-0.229	0.061	38.5027776	217.151082	-64.5723666	78.85047996	51.96156102	58.49328222
3.72	372	0.856	-0.257	0.112	42.2270046	220.7607174	-67.0933818	81.92726442	52.92986004	61.86800484
3.73	373	1.118	-0.278	0.161	52.998615	217.5521526	-88.5793068	85.1988546	53.98983234	65.31148242
3.74	374	1.48	-0.266	0.098	54.4883058	219.0418434	-124.331886	88.6938984	55.28471742	68.9554953
3.75	375	1.922	-0.176	0.107	50.1911208	214.4581794	-163.865988	92.3608296	56.8374336	72.80004348
3.76	376	2.22	0.095	0.213	52.4829528	190.3939434	-212.7393054	96.10224534	58.76257248	76.62740292
3.77	377	2.065	0.068	0.285	59.587632	167.7621024	-243.9655164	100.1014922	60.88251708	80.5865427
3.78	378	2.556	-0.604	0.122	77.2347384	136.3067082	-230.902074	104.2439785	62.80765596	84.41963172
3.79	379	2.568	0.001	-0.175	53.3996856	52.8267276	-247.0594896	107.1775235	65.01354426	87.10107516
3.8	380	2.573	0.721	0.713	51.2224452	11.0007936	-308.9962494	110.2142009	67.88406384	89.84554398
3.81	381	3.038	0.012	0.78	102.2157072	59.4157446	-309.3400242	115.8635668	70.46810442	94.7959011
3.82	382	3.032	0.188	1.254	98.0331138	76.776372	-311.3453772	123.4667194	72.75993642	101.7745295
3.83	383	2.76	0.476	0.86	118.7741934	71.9635248	-336.039867	133.8143409	74.90852892	111.3085507
3.84	384	2.085	0.705	1.021	123.5297448	88.1209404	-335.3523174	147.2845835	76.33519434	123.9250858
3.85	385	1.933	0.462	1.144	108.0598788	91.5586884	-308.1368124	161.574156	76.81647906	137.5041904
3.86	386	2.498	0.928	0.722	86.3447706	111.6122184	-290.3751144	175.1188831	76.2893577	150.5447145
3.87	387	3.03	0.265	0.982	75.1720896	111.5549226	-233.0220186	-175.1131535	75.1720896	159.8438228
3.88	388	2.388	0.31	1.079	54.43101	73.2240324	-159.6260988	-169.2517932	74.2267089	165.3614084
3.89	389	2.214	0.069	0.882	39.5913978	42.8572584	-111.2684436	-165.476	73.5678072	168.8793705
3.9	390	1.946	0.185	0.661	24.923673	23.7204612	-84.1675302	-162.7773678	73.1094408	171.4404928
3.91	391	1.677	-0.09	0.439	19.9962342	7.5057498	-62.165943	-160.7376373	72.84015054	173.3599021
3.92	392	1.045	-0.161	0.184	20.5691922	-2.1772404	-42.6280752	-159.2192986	72.71409978	174.7350013
3.93	393	0.756	0.013	0.352	39.0184398	2.7501984	-41.7686382	-157.6207458	72.53075322	175.9897793
3.94	394	0.811	0.052	0.4	40.7946096	15.8136408	-36.669312	-156.3545086	72.23854464	176.8893233
3.95	395	0.731	0.123	0.373	39.3622146	25.5539268	-30.8824362	-155.4263167	71.87185152	177.4508222
3.96	396	0.805	0.232	0.239	38.5600734	26.929026	-18.5065434	-154.8877361	71.55099504	177.6112504
3.97	397	0.79	0.376	0.182	37.4141574	21.8296998	-4.6409598	-154.6757417	71.333271	177.439363
3.98	398	0.654	0.501	0.221	38.9038482	14.6677248	9.3965112	-154.7215783	71.24159772	176.975267
3.99	399	0.612	0.536	0.256	43.0864416	9.6256944	17.1314442	-154.8590882	71.22440898	176.362202
4	400	0.656	0.481	0.24	42.2843004	9.167328	20.6837838	-155.0252461	71.20722024	175.7319482
4.01	401	0.613	0.44	0.287	41.4248634	7.8495246	19.9389384	-155.2372405	71.2186794	175.0673169
4.02	402	0.539	0.395	0.368	36.096354	4.297185	16.902261	-155.3690209	71.24159772	174.534466
4.03	403	0.488	0.352	0.372	25.6685184	7.1046792	14.7823164	-155.5924745	71.23586814	174.0245333
4.04	404	0.454	0.341	0.389	16.042824	8.1360036	14.4385416	-155.9190605	71.22440898	173.5146007
4.05	405	0.465	0.44	0.408	6.0733548	8.59437	15.3552744	-156.2456466	71.15565402	173.0848822
4.06	406	0.523	0.588	0.372	-3.2658606	13.5218088	10.4851314	-156.7269313	71.0754399	172.6150567
4.07	407	0.602	0.693	0.329	-10.8289062	13.8082878	5.6149884	-157.1566498	70.97803704	172.282741
4.08	408	0.725	0.531	0.269	-6.1306506	10.599723	11.1153852	-157.6436641	70.92647082	171.8358338
4.09	409	0.828	0.255	0.25	-1.2032118	9.9121734	25.7258142	-158.4515349	70.9322004	170.9935855
4.1	410	0.817	0.259	0.268	-0.5156622	7.448454	36.7839036	-159.4484818	70.98376662	169.9336132
4.11	411	0.844	0.377	0.305	2.4064236	1.3178034	42.112413	-160.5829387	71.11554696	168.7132127
4.12	412	0.933	0.368	0.327	7.448454	-0.8021412	49.5035712	-161.860635	71.28170478	167.2808177
4.13	413	1.002	0.325	0.331	10.5424272	0.9740286	55.003968	-163.3044892	71.43640344	165.6421578
4.14	414	1.066	0.268	0.363	15.8709366	-4.6409598	55.9207008	-164.6967771	71.63120916	163.9977683
4.15	415	1.054	0.279	0.42	16.2720072	-3.151269	55.6915176	-166.089065	71.79736698	162.3591085
4.16	416	1.041	0.237	0.414	23.1475032	-0.9740286	56.722842	-167.5100009	71.92914732	160.6115866
4.17	417	1.085	0.06	0.454	29.3354496	7.1046792	61.7648724	-169.1028241	71.98644312	158.6234223
4.18	418	1.107	0.116	0.422	29.4500412	7.448454	58.155237	-170.5925149	72.00936144	156.7441201
4.19	419	1.134	0.137	0.45	28.7051958	7.2192708	52.3110654	-171.9160479	72.0208206	155.0424348
4.2	420	1.17	0.06	0.486	29.5646328	1.3178034	49.847346	-173.1307189	72.06092766	153.4496116
4.21	421	1.182	0.087	0.511	23.6631654	-10.8289062	49.1025006	-174.3453898	72.2213559	151.9255433
4.22	422	1.161	0.074	0.488	18.6784308	-14.0947668	46.9252602	-175.5543312	72.39897288	150.4530412
4.23	423	1.186	0.141	0.494	11.4018642	-17.7044022	42.97185	-176.7288951	72.60523776	149.0951308
4.24	424	1.157	0.046	0.506	11.4018642	-22.0015872	41.8832298	-177.8919998	72.84015054	147.754409
4.25	425	1.106	0.023	0.551	3.9534102	-19.8243468	40.8519054	-179.11813	73.03495626	146.4194169
4.26	426	1.089	0.099	0.29	-3.3231564	-17.6471064	38.388186	179.6051443	73.21257324	145.1245318
4.27	427	0.995	0.029	0.262	-1.8334656	-22.4026578	38.7319608	178.3102592	73.43029728	143.7895397
4.28	428	0.897	-0.016	0.209	-3.4950438	-26.2414764	37.5860448	177.0039149	73.67666922	142.4545475
4.29	429	0.886	-0.04	0.303	6.1879464	-28.8197874	37.2995658	175.7605961	73.9402299	141.0966371
4.3	430	0.887	-0.062	0.324	8.8235532	-25.6685184	35.0650296	174.5688434	74.16368352	139.7616449
4.31	431	0.891	-0.139	0.262	5.9014674	-25.3820394	35.1796212	173.3312542	74.37567798	138.4094641
4.32	432	0.875	-0.15	0.249	0.9740286	-30.1948866	36.4974246	171.9389662	74.6277795	136.9484212
4.33	433	0.86	-0.126	0.268	0	-30.8251404	35.0077338	170.5466783	74.87415144	135.4988374
4.34	434	0.88	-0.094	0.278	0.286479	-27.1582092	31.6845774	169.2460636	75.0861459	134.1466565
4.35	435	0.883	-0.083	0.259	0.7448454	-22.1161788	27.9603504	168.0772293	75.25230372	132.9205264
4.36	436	0.915	-0.094	0.235	0.1718874	-17.3033316	24.8090814	167.0344457	75.36689532	131.8433654
4.37	437	0.921	-0.125	0.214	-2.3491278	-14.896908	22.058883	166.0776059	75.4585686	130.8750664
4.38	438	0.924	-0.144	0.18	-5.5576926	-13.6364004	20.5118964	165.1379548	75.53878272	129.9640631
4.39	439	0.936	-0.133	0.174	-8.021412	-10.0840608	17.9908812	164.2957065	75.59034894	129.1733811
4.4	440	0.96	-0.121	0.17	-10.9434978	-7.0473834	15.5844576	163.4821061	75.630456	128.451454
4.41	441	0.96	-0.13	0.173	-12.7196676	-5.156622	14.4958374	162.7544495	75.64191516	127.8326594
4.42	442	0.964	-0.133	0.173	-14.2666542	-3.0366774	12.605076	162.1012774	75.630456	127.305538
4.43	443	0.976	-0.138	0.158	-15.3552744	-1.718874	10.7716104	161.5225898	75.61899684	126.8700899
4.44	444	0.995	-0.146	0.144	-16.1574156	-2.2345362	9.9121734	160.9610909	75.60753768	126.4632898
4.45	445	0.978	-0.136	0.133	-18.048177	-3.8961144	8.0787078	160.3709442	75.64191516	126.0393008
4.46	446	0.964	-0.128	0.117	-18.4492476	-4.010706	6.2452422	159.8953891	75.6591039	125.7470923
4.47	447	0.934	-0.11	0.11	-18.048177	-3.4950438	3.8388186	159.5172368	75.67629264	125.546557
4.48	448	0.9	-0.102	0.097	-16.902261	-2.4064236	1.3178034	159.2594057	75.69921096	125.4548837
4.49	449	0.879	-0.099	0.101	-15.1260912	-0.1718874	-1.3750992	159.1505437	75.70494054	125.5007203
4.5	450	0.878	-0.101	0.108	-13.0061466	1.8907614	-4.010706	159.1390845	75.72785886	125.6267711
4.51	451	0.886	-0.094	0.12	-10.6570188	3.8388186	-6.6463128	159.3167015	75.7163997	125.9247092
4.52	452	0.897	-0.086	0.141	-6.9900876	6.4744254	-9.3965112	159.6662059	75.6877518	126.3601573
4.53	453	0.901	-0.085	0.176	-2.9220858	8.0787078	-11.5737516	160.1589497	75.64764474	126.8987378
4.54	454	0.919	-0.089	0.201	-0.7448454	8.4797784	-13.3499214	160.7376373	75.61326726	127.5060733
4.55	455	0.935	-0.09	0.222	0.0572958	10.2559482	-15.0687954	161.396539	75.56743062	128.1936229
4.56	456	0.95	-0.086	0.231	0.0572958	11.2872726	-16.5584862	162.1299253	75.5158644	128.9441979
4.57	457	0.972	-0.074	0.246	0.4583664	11.5164558	-18.048177	162.9148777	75.4585686	129.7520687
4.58	458	0.992	-0.058	0.26	1.718874	11.9748222	-19.0222056	163.7456668	75.39554322	130.6000465
4.59	459	1	-0.048	0.279	3.0366774	12.5477802	-19.0795014	164.5936447	75.32678826	131.4422948
4.6	460	1.008	-0.04	0.29	3.2085648	12.8342592	-18.334656	165.4358929	75.24657414	132.284543
4.61	461	1.012	-0.031	0.302	3.8388186	12.0894138	-17.3606274	166.2093862	75.1720896	133.0408476
4.62	462	1.01	-0.025	0.314	4.4117766	12.032118	-16.902261	166.9599612	75.09187548	133.7799634
4.63	463	1.005	-0.022	0.31	4.8128472	11.2872726	-16.7303736	167.699077	75.01739094	134.4904313
4.64	464	1.001	-0.019	0.294	5.2139178	9.3392154	-16.4438946	168.4152745	74.96009514	135.1779809
4.65	465	0.986	-0.011	0.293	6.1879464	8.0787078	-15.8136408	169.1429312	74.90852892	135.8655305
4.66	466	0.975	-0.007	0.287	6.6463128	7.7922288	-14.896908	169.7961033	74.8569627	136.472866
4.67	467	0.975	0	0.282	6.9900876	7.9641162	-13.9801752	170.4148979	74.80539648	137.045824
4.68	468	0.984	0.004	0.289	7.9641162	8.0787078	-12.4331886	170.9878559	74.7423711	137.5557566
4.69	469	0.994	0.008	0.299	9.0527364	7.7922288	-10.886202	171.5092477	74.67934572	138.0026639
4.7	470	0.996	0.011	0.293	9.5683986	7.0473834	-9.5111028	172.0306395	74.6277795	138.438112
4.71	471	0.989	0.008	0.286	9.3965112	6.6463128	-8.021412	172.4431693	74.5704837	138.7704276
4.72	472	0.981	0.006	0.273	8.4797784	6.2452422	-6.6463128	172.7926736	74.5131879	139.0397179
4.73	473	0.974	0.008	0.269	8.021412	5.5576926	-5.2712136	173.0848822	74.46735126	139.2574419
4.74	474	0.98	0.009	0.28	7.9641162	5.0420304	-4.010706	173.3255246	74.42151462	139.4293293
4.75	475	0.988	0.007	0.285	7.5630456	3.7815228	-2.8074942	173.5948148	74.38713714	139.624135
4.76	476	0.996	0.008	0.293	6.8182002	2.9220858	-1.3750992	173.7265952	74.35848924	139.6871604
4.77	477	0.999	0.006	0.295	5.9587632	2.8074942	-0.0572958	173.8010797	74.32984134	139.6986196
4.78	478	0.996	0.006	0.292	5.2712136	2.578311	1.0313244	173.823998	74.30119344	139.6699717
4.79	479	0.99	0.006	0.291	4.3544808	2.291832	2.2345362	173.8010797	74.27827512	139.5954871
4.8	480	0.986	0.003	0.29	3.9534102	2.1772404	3.3231564	173.823998	74.24962722	139.5725688
4.81	481	0.982	0	0.289	3.4950438	2.1772404	4.2398892	173.7208656	74.22097932	139.4293293
4.82	482	0.976	-0.001	0.285	2.9793816	2.005353	4.7555514	173.5890853	74.198061	139.2631715
4.83	483	0.973	-0.006	0.28	2.4637194	1.718874	5.2712136	173.4343866	74.17514268	139.0798249
4.84	484	0.964	-0.009	0.269	1.6615782	1.5469866	5.7868758	173.2567696	74.15222436	138.87356
4.85	485	0.965	-0.009	0.275	1.3178034	1.9480572	6.1879464	173.1364484	74.12930604	138.7303205
4.86	486	0.972	-0.012	0.276	1.2605076	2.1772404	6.4171296	172.9301836	74.10065814	138.5011373
4.87	487	0.977	-0.015	0.277	0.9167328	2.6929026	6.589017	172.7239187	74.06628066	138.2719541
4.88	488	0.978	-0.018	0.28	0.4583664	3.0366774	6.6463128	172.5061946	74.03190318	138.0485005
4.89	489	0.977	-0.022	0.281	-0.286479	2.5210152	6.7609044	172.282741	73.9975257	137.8135877
4.9	490	0.972	-0.021	0.272	-1.0313244	2.1199446	6.7609044	172.0936649	73.98033696	137.6302412
4.91	491	0.963	-0.022	0.263	-1.4896908	2.3491278	6.6463128	171.8587521	73.94595948	137.401058
4.92	492	0.953	-0.023	0.251	-1.718874	2.6356068	6.4171296	171.6295689	73.911582	137.1833339
4.93	493	0.954	-0.027	0.254	-1.4896908	3.4950438	6.1306506	171.4175744	73.87147494	136.9770691
4.94	494	0.962	-0.032	0.261	-1.4896908	4.6982556	5.6722842	171.2284983	73.81417914	136.7937225
4.95	495	0.967	-0.035	0.267	-1.5469866	5.156622	4.870143	171.096718	73.7683425	136.6791309
4.96	496	0.969	-0.034	0.274	-1.5469866	4.870143	4.0680018	170.9649376	73.71677628	136.5530801
4.97	497	0.969	-0.032	0.278	-1.6615782	4.7555514	3.2658606	170.8560756	73.66521006	136.4614069
4.98	498	0.971	-0.033	0.275	-1.8907614	4.870143	2.6356068	170.7701319	73.61364384	136.3869223
4.99	499	0.973	-0.033	0.277	-1.8907614	4.9847346	1.9480572	170.7013769	73.56207762	136.3410857
5	500	0.977	-0.033	0.284	-1.6615782	4.9274388	1.5469866	170.7128361	73.52197056	136.364004
5.01	501	0.982	-0.032	0.293	-1.2032118	4.5263682	0.859437	170.6899178	73.47613392	136.3525448
5.02	502	0.985	-0.032	0.298	-0.6875496	4.2398892	0.5156622	170.6841882	73.43029728	136.3582744
5.03	503	0.982	-0.033	0.295	-0.572958	3.8388186	0	170.6956474	73.3959198	136.3754632
5.04	504	0.974	-0.032	0.287	-0.6302538	3.6096354	-0.4583664	170.7185657	73.36154232	136.4098406
5.05	505	0.965	-0.031	0.281	-0.6875496	3.2085648	-0.9740286	170.8560756	73.35581274	136.5530801
5.06	506	0.962	-0.03	0.284	-0.1718874	2.86479	-1.3178034	170.9076418	73.32716484	136.6103759
5.07	507	0.968	-0.031	0.296	0.572958	2.6929026	-1.7761698	170.9821264	73.30424652	136.6848605
5.08	508	0.977	-0.031	0.305	1.0886202	2.6356068	-2.2345362	171.0795292	73.2813282	136.7765338
5.09	509	0.983	-0.028	0.308	1.3750992	1.8907614	-2.7501984	171.1941208	73.26413946	136.8796662
5.1	510	0.981	-0.025	0.304	1.3750992	0.9167328	-2.86479	171.4347632	73.26413946	137.1031198
5.11	511	0.976	-0.022	0.3	1.432395	0	-2.9220858	171.5436252	73.26986904	137.2005227
5.12	512	0.968	-0.02	0.294	1.6615782	-0.8021412	-2.86479	171.6524872	73.2813282	137.2979255
5.13	513	0.963	-0.021	0.286	1.6615782	-1.0313244	-2.8074942	171.7613492	73.29851694	137.3895988
5.14	514	0.959	-0.02	0.277	1.432395	-1.0313244	-2.7501984	171.8644817	73.3099761	137.4812721
5.15	515	0.959	-0.018	0.273	1.4896908	-0.9167328	-2.6356068	172.0822057	73.35581274	137.687537
5.16	516	0.958	-0.018	0.271	1.718874	-0.7448454	-2.578311	172.1853382	73.3672719	137.7734807
5.17	517	0.959	-0.017	0.27	2.1772404	-0.286479	-2.3491278	172.282741	73.37300148	137.8536948
5.18	518	0.962	-0.017	0.272	2.4064236	0.3437748	-2.1199446	172.3801439	73.37300148	137.9339089
5.19	519	0.964	-0.015	0.272	2.3491278	1.2032118	-1.8907614	172.4718172	73.36154232	138.0026639
5.2	520	0.964	-0.015	0.274	2.0626488	2.005353	-1.5469866	172.6551637	73.37300148	138.1688217
5.21	521	0.965	-0.014	0.277	2.1199446	2.3491278	-1.2032118	172.7296483	73.35008316	138.2203879
5.22	522	0.967	-0.013	0.283	2.0626488	2.4637194	-0.9167328	172.7869441	73.32716484	138.260495
5.23	523	0.97	-0.014	0.287	1.9480572	2.6929026	-0.6875496	172.8442399	73.30424652	138.2948725
5.24	524	0.971	-0.015	0.286	1.6042824	2.86479	-0.572958	172.8900765	73.27559862	138.3235204
5.25	525	0.968	-0.013	0.286	1.2032118	2.7501984	-0.3437748	173.0676935	73.26986904	138.4896782
5.26	526	0.969	-0.014	0.289	1.145916	2.7501984	-0.2291832	173.0963414	73.24695072	138.5068669
5.27	527	0.969	-0.014	0.292	1.0886202	2.6929026	-0.0572958	173.1192597	73.21830282	138.5183261
5.28	528	0.969	-0.013	0.295	0.9167328	2.7501984	0.1145916	173.1307189	73.18965492	138.5240557
5.29	529	0.967	-0.013	0.292	0.6302538	2.6356068	0.4583664	173.1307189	73.16100702	138.5125965
5.3	530	0.965	-0.015	0.293	0.3437748	2.578311	0.8021412	173.2682288	73.16100702	138.6443768
5.31	531	0.962	-0.015	0.286	0.0572958	2.578311	0.9740286	173.2453105	73.13235912	138.6214585
5.32	532	0.963	-0.018	0.288	0.0572958	2.6929026	1.0886202	173.2166626	73.10371122	138.587081
5.33	533	0.968	-0.016	0.292	0.0572958	2.6929026	1.2032118	173.1822851	73.07506332	138.5584331
5.34	534	0.972	-0.016	0.294	0.1145916	2.4637194	1.2605076	173.1479076	73.04641542	138.5183261
5.35	535	0.974	-0.016	0.298	0.1145916	2.5210152	1.3178034	173.2453105	73.03495626	138.6099994
5.36	536	0.975	-0.016	0.299	0.0572958	2.3491278	1.3178034	173.210933	73.01203794	138.5698923
5.37	537	0.971	-0.016	0.295	0	2.005353	1.432395	173.1708259	72.98911962	138.5240557
5.38	538	0.969	-0.018	0.296	0	1.9480572	1.432395	173.1249893	72.9662013	138.4839486
5.39	539	0.969	-0.018	0.296	0.0572958	1.8907614	1.3750992	173.0906118	72.94901256	138.4438415
5.4	540	0.969	-0.02	0.296	0.2291832	1.8334656	1.3178034	173.1937442	72.94901256	138.5355148
5.41	541	0.971	-0.018	0.3	0.3437748	1.9480572	1.2032118	173.1593668	72.92609424	138.5011373
5.42	542	0.973	-0.02	0.3	0.4010706	2.0626488	1.145916	173.1364484	72.9089055	138.4667599
5.43	543	0.972	-0.02	0.303	0.1718874	2.1772404	1.145916	173.1078005	72.88598718	138.438112
5.44	544	0.971	-0.019	0.299	0.0572958	2.0626488	1.145916	173.0734231	72.86306886	138.4037345
5.45	545	0.967	-0.019	0.295	0.0572958	1.718874	1.2032118	173.2052034	72.87452802	138.5297852
5.46	546	0.963	-0.02	0.288	-0.1718874	1.7761698	1.2605076	173.1708259	72.85733928	138.4896782
5.47	547	0.961	-0.02	0.285	-0.5156622	1.6615782	1.3178034	173.1249893	72.84015054	138.4495711
5.48	548	0.961	-0.019	0.284	-0.7448454	1.6615782	1.2032118	173.0848822	72.8229618	138.4151936
5.49	549	0.963	-0.022	0.288	-0.7448454	2.0626488	1.145916	173.0447752	72.80004348	138.3808162
5.5	550	0.965	-0.02	0.293	-0.6875496	2.5210152	1.0313244	173.1192597	72.7943139	138.4610303
5.51	551	0.969	-0.02	0.297	-0.572958	2.6929026	0.9167328	173.0906118	72.765666	138.438112
5.52	552	0.969	-0.019	0.301	-0.4010706	2.5210152	0.9167328	173.0619639	72.74274768	138.4151936
5.53	553	0.968	-0.018	0.3	-0.1718874	2.2345362	0.9167328	173.0390456	72.71982936	138.3922753
5.54	554	0.962	-0.02	0.295	0	2.1772404	0.9167328	173.0103977	72.69691104	138.3636274
5.55	555	0.959	-0.022	0.294	0.1145916	2.4064236	0.9167328	173.1249893	72.70264062	138.4667599
5.56	556	0.96	-0.023	0.294	0.1145916	2.5210152	0.7448454	173.1078005	72.67399272	138.4495711
5.57	557	0.964	-0.024	0.299	0.2291832	2.6356068	0.6875496	173.0963414	72.6510744	138.4323824
5.58	558	0.969	-0.023	0.307	0.3437748	2.4064236	0.4583664	173.0906118	72.6224265	138.4266528
5.59	559	0.97	-0.022	0.309	0.4583664	1.432395	0.286479	173.0906118	72.61096734	138.4209232
5.6	560	0.968	-0.023	0.309	0.4010706	0.8021412	0.1718874	173.3770908	72.62815608	138.6959431
5.61	561	0.966	-0.023	0.308	0.6302538	0.572958	0	173.3828204	72.61669692	138.6959431
5.62	562	0.965	-0.023	0.301	0.6302538	0.5156622	-0.1145916	173.3942795	72.61096734	138.7016726
5.63	563	0.964	-0.022	0.297	0.7448454	0.5156622	-0.0572958	173.4114683	72.61096734	138.7074022
5.64	564	0.963	-0.02	0.297	0.9167328	0.5156622	-0.1145916	173.428657	72.60523776	138.7131318
5.65	565	0.962	-0.019	0.298	1.0886202	0.6302538	-0.0572958	173.6922177	72.63961524	138.9595037
5.66	566	0.961	-0.02	0.297	1.145916	0.572958	-0.0572958	173.7094064	72.63388566	138.9652333
5.67	567	0.962	-0.02	0.299	1.0886202	0.6302538	0	173.7208656	72.62815608	138.9652333
5.68	568	0.962	-0.019	0.299	0.9740286	0.572958	0	173.7323248	72.6224265	138.9652333
5.69	569	0.963	-0.018	0.298	1.145916	0.4010706	0.1145916	173.7437839	72.61669692	138.9652333
5.7	570	0.964	-0.019	0.3	1.145916	0.5156622	0.1145916	173.9328601	72.64534482	139.1371207
5.71	571	0.966	-0.02	0.299	1.2032118	0.6875496	0.1145916	173.9385896	72.63961524	139.1313911
5.72	572	0.966	-0.019	0.298	0.9167328	0.8021412	0.286479	173.9443192	72.63388566	139.1256616
5.73	573	0.965	-0.018	0.299	1.0313244	1.0313244	0.286479	173.9443192	72.6224265	139.119932
5.74	574	0.964	-0.018	0.297	1.0886202	1.3178034	0.3437748	173.9500488	72.60523776	139.1084728
5.75	575	0.963	-0.019	0.297	1.0313244	1.6042824	0.5156622	174.0531812	72.6224265	139.2001461
5.76	576	0.964	-0.019	0.297	0.9167328	1.6615782	0.6875496	174.0474517	72.60523776	139.1829574
5.77	577	0.962	-0.019	0.299	0.8021412	1.7761698	0.7448454	174.0359925	72.58231944	139.160039
5.78	578	0.962	-0.018	0.301	0.9740286	1.5469866	0.859437	174.0188038	72.5651307	139.1371207
5.79	579	0.963	-0.02	0.3	1.0313244	1.6615782	0.859437	174.0073446	72.54794196	139.1142024
5.8	580	0.962	-0.02	0.3	1.0313244	1.6615782	0.6875496	174.110477	72.55367154	139.2001461
5.81	581	0.962	-0.021	0.301	0.9740286	1.6615782	0.6875496	174.0990179	72.5364828	139.1772278
5.82	582	0.964	-0.02	0.303	0.9167328	1.8334656	0.6875496	174.0932883	72.51929406	139.160039
5.83	583	0.966	-0.02	0.307	0.9740286	2.1199446	0.7448454	174.0818291	72.49637574	139.1371207
5.84	584	0.969	-0.021	0.308	0.8021412	2.3491278	0.7448454	174.07037	72.47345742	139.119932
5.85	585	0.969	-0.021	0.307	0.5156622	2.291832	0.859437	174.1448545	72.46199826	139.1829574
5.86	586	0.966	-0.021	0.306	0.286479	2.291832	0.9167328	174.1219362	72.43907994	139.160039
5.87	587	0.963	-0.021	0.303	0.1145916	2.4637194	0.9167328	174.0990179	72.41043204	139.1371207
5.88	588	0.962	-0.021	0.301	0	2.3491278	0.9167328	174.0760996	72.38751372	139.1084728
5.89	589	0.96	-0.021	0.299	-0.1145916	2.4064236	0.859437	174.0531812	72.3645954	139.0855545
5.9	590	0.961	-0.02	0.301	-0.0572958	2.291832	0.859437	174.1333954	72.3645954	139.1657686
5.91	591	0.962	-0.022	0.303	0.1718874	2.1199446	0.8021412	174.1162066	72.34167708	139.1428503
5.92	592	0.961	-0.021	0.303	0.3437748	2.0626488	0.7448454	174.0990179	72.32448834	139.1256616
5.93	593	0.961	-0.022	0.304	0.3437748	2.0626488	0.6875496	174.0875587	72.30157002	139.1027432
5.94	594	0.961	-0.021	0.303	0.286479	2.1772404	0.6302538	174.0760996	72.2786517	139.0855545
5.95	595	0.96	-0.02	0.305	0.286479	2.1199446	0.6302538	174.179232	72.28438128	139.1829574
5.96	596	0.959	-0.022	0.304	0.2291832	2.2345362	0.6302538	174.1677728	72.26146296	139.1714982
5.97	597	0.96	-0.022	0.304	0.3437748	2.1772404	0.6302538	174.1563137	72.23854464	139.1543095
5.98	598	0.963	-0.022	0.305	0.286479	2.1772404	0.572958	174.1448545	72.21562632	139.1371207
5.99	599	0.961	-0.021	0.304	0.286479	1.9480572	0.5156622	174.1333954	72.19843758	139.1256616
6	600	0.961	-0.022	0.308	0.4583664	1.7761698	0.5156622	174.2307982	72.20416716	139.2116053
6.01	601	0.961	-0.023	0.307	0.4010706	1.7761698	0.4010706	174.2250686	72.18124884	139.2058757
6.02	602	0.962	-0.022	0.306	0.286479	1.8907614	0.3437748	174.2250686	72.1640601	139.2001461
6.03	603	0.961	-0.022	0.308	0.5156622	1.7761698	0.286479	174.2193391	72.14687136	139.1886869
6.04	604	0.961	-0.023	0.311	0.6875496	1.7761698	0.286479	174.2250686	72.12968262	139.1886869
6.05	605	0.964	-0.023	0.313	0.859437	1.8907614	0.2291832	174.3167419	72.12395304	139.2689011
6.06	606	0.967	-0.023	0.316	0.859437	1.8334656	0.1145916	174.3282011	72.1067643	139.2689011
6.07	607	0.967	-0.023	0.316	0.7448454	1.4896908	0.1718874	174.3339307	72.08957556	139.2631715
6.08	608	0.965	-0.022	0.316	0.7448454	1.145916	0.2291832	174.3339307	72.0781164	139.2574419
6.09	609	0.962	-0.02	0.314	0.859437	0.9167328	0.286479	174.3339307	72.07238682	139.2517123
6.1	610	0.961	-0.021	0.311	0.9167328	0.572958	0.286479	174.5230068	72.10103472	139.4178701
6.11	611	0.956	-0.021	0.308	1.0313244	0.4010706	0.286479	174.5230068	72.09530514	139.4121406
6.12	612	0.957	-0.019	0.308	1.3178034	0.3437748	0.2291832	174.5287364	72.09530514	139.406411
6.13	613	0.962	-0.022	0.31	1.2605076	0.2291832	0.1718874	174.5401955	72.08957556	139.4006814
6.14	614	0.966	-0.021	0.312	1.145916	0.4010706	0.1718874	174.5459251	72.08384598	139.3949518
6.15	615	0.966	-0.02	0.314	1.145916	0.3437748	0.1718874	174.7292717	72.1067643	139.5611096
6.16	616	0.966	-0.019	0.316	0.9740286	0.1718874	0.4010706	174.7292717	72.1067643	139.5496505
6.17	617	0.966	-0.02	0.315	0.8021412	0	0.4583664	174.7235421	72.1067643	139.5324617
6.18	618	0.962	-0.02	0.311	0.8021412	0	0.5156622	174.7120829	72.10103472	139.515273
6.19	619	0.959	-0.022	0.307	0.7448454	-0.1145916	0.4583664	174.7063534	72.1067643	139.4980843
6.2	620	0.956	-0.024	0.306	0.6302538	-0.1718874	0.4583664	174.8266745	72.15260094	139.6069463
6.21	621	0.959	-0.024	0.31	0.4010706	0	0.4010706	174.820945	72.15260094	139.5954871
6.22	622	0.962	-0.023	0.311	0.4010706	-0.0572958	0.1145916	174.820945	72.15260094	139.5897575
6.23	623	0.962	-0.022	0.312	0.5156622	-0.2291832	0.1145916	174.820945	72.15833052	139.584028
6.24	624	0.962	-0.023	0.31	0.4010706	-0.3437748	0.0572958	174.820945	72.15833052	139.584028
6.25	625	0.962	-0.022	0.306	0.4583664	-0.1718874	0	175.147531	72.26719254	139.8934253
6.26	626	0.96	-0.02	0.305	0.6875496	0.0572958	0	175.1589902	72.26719254	139.8934253
6.27	627	0.962	-0.02	0.307	0.9167328	0.2291832	-0.0572958	175.1704493	72.26719254	139.8991549
6.28	628	0.963	-0.019	0.308	0.9740286	0.4583664	-0.0572958	175.1819085	72.26146296	139.8991549
6.29	629	0.962	-0.02	0.308	0.8021412	0.4010706	0	175.1933677	72.25573338	139.9048844
6.3	630	0.96	-0.02	0.309	0.7448454	0.5156622	0	175.393903	72.28438128	140.088231
6.31	631	0.957	-0.02	0.305	0.6302538	0.286479	0	175.3996325	72.2786517	140.088231
6.32	632	0.957	-0.019	0.305	0.6875496	0.2291832	0	175.4110917	72.2786517	140.088231
6.33	633	0.96	-0.019	0.308	0.9167328	0.5156622	0	175.4225509	72.27292212	140.0939606
6.34	634	0.962	-0.019	0.308	1.0313244	0.572958	0	175.43401	72.26719254	140.0939606
6.35	635	0.962	-0.019	0.308	0.9167328	0.572958	0.0572958	175.542872	72.28438128	140.1913634
6.36	636	0.963	-0.02	0.31	0.9740286	0.7448454	0.0572958	175.5486016	72.2786517	140.1856339
6.37	637	0.965	-0.02	0.312	1.0886202	0.7448454	0.0572958	175.5600608	72.26719254	140.1856339
6.38	638	0.964	-0.02	0.314	1.0313244	0.7448454	0.1718874	175.5657904	72.26146296	140.1799043
6.39	639	0.964	-0.02	0.312	0.9167328	0.6302538	0.1718874	175.5715199	72.25573338	140.1741747
6.4	640	0.963	-0.02	0.312	0.9167328	0.6302538	0.1718874	175.6746524	72.27292212	140.265848
6.41	641	0.96	-0.02	0.309	0.9167328	0.5156622	0.2291832	175.680382	72.26719254	140.2601184
6.42	642	0.96	-0.018	0.308	0.9740286	0.4010706	0.2291832	175.680382	72.26146296	140.2543888
6.43	643	0.961	-0.019	0.309	0.9740286	0.3437748	0.286479	175.6861115	72.25573338	140.2429297
6.44	644	0.962	-0.02	0.31	1.0313244	0.2291832	0.3437748	175.6861115	72.25573338	140.2314705
6.45	645	0.963	-0.018	0.314	1.0886202	0.286479	0.2291832	175.789244	72.26146296	140.3231438
6.46	646	0.963	-0.02	0.314	1.145916	0.2291832	0.286479	175.789244	72.25573338	140.3116846
6.47	647	0.963	-0.02	0.314	0.9167328	0.1145916	0.286479	175.7949736	72.25573338	140.305955
6.48	648	0.962	-0.019	0.311	0.572958	0	0.2291832	175.789244	72.25573338	140.2944959
6.49	649	0.962	-0.019	0.312	-0.1145916	-0.1718874	0.1718874	175.7835144	72.25573338	140.2887663
6.5	650	0.962	-0.021	0.311	-0.2291832	-0.1718874	0.1145916	175.9324835	72.3072996	140.4377354
6.51	651	0.961	-0.02	0.307	-0.286479	-0.2291832	0.1718874	175.9267539	72.3072996	140.4320058
6.52	652	0.96	-0.02	0.308	-0.1718874	0	0.1145916	175.9152947	72.3072996	140.4262762
6.53	653	0.963	-0.021	0.311	-0.1145916	0.0572958	0	175.9152947	72.3072996	140.4262762
6.54	654	0.963	-0.019	0.31	-0.2291832	-0.0572958	-0.0572958	175.9152947	72.3072996	140.4262762
6.55	655	0.961	-0.019	0.31	-0.0572958	-0.1718874	0	176.7231655	72.43907994	141.2054991
6.56	656	0.962	-0.02	0.311	0	-0.1718874	-0.1145916	176.7231655	72.43907994	141.2112287
6.57	657	0.962	-0.02	0.308	0	-0.0572958	-0.0572958	176.7288951	72.43907994	141.2112287
6.58	658	0.962	-0.018	0.306	-0.286479	-0.0572958	0	176.7231655	72.43907994	141.2112287
6.59	659	0.958	-0.018	0.306	-0.286479	-0.3437748	0	176.7231655	72.44480952	141.2112287
6.6	660	0.958	-0.02	0.308	-0.0572958	-0.4010706	0	176.866405	72.48491658	141.3544682
6.61	661	0.962	-0.019	0.311	-0.1145916	-0.1718874	-0.0572958	176.866405	72.49064616	141.3544682
6.62	662	0.963	-0.018	0.311	-0.2291832	-0.286479	-0.1145916	176.866405	72.49064616	141.3601978
6.63	663	0.963	-0.018	0.311	-0.1718874	-0.4583664	-0.1145916	176.8721346	72.49637574	141.3659273
6.64	664	0.964	-0.018	0.313	-0.0572958	-0.3437748	-0.0572958	176.8721346	72.50210532	141.3659273
6.65	665	0.967	-0.018	0.313	-0.1718874	-0.4010706	0	176.9809966	72.51929406	141.4747894
6.66	666	0.964	-0.018	0.312	-0.1718874	-0.4583664	0.0572958	176.9809966	72.52502364	141.4747894
6.67	667	0.964	-0.018	0.312	-0.0572958	-0.4010706	0.0572958	176.975267	72.52502364	141.4690598
6.68	668	0.963	-0.019	0.31	-0.0572958	-0.5156622	0.0572958	176.9695375	72.53075322	141.4633302
6.69	669	0.959	-0.017	0.305	-0.1718874	-0.3437748	0.1145916	176.9638079	72.5364828	141.4633302
6.7	670	0.958	-0.018	0.307	0.0572958	-0.3437748	0.0572958	177.0612107	72.55940112	141.5492739
6.71	671	0.961	-0.018	0.309	0.1145916	-0.1145916	0.0572958	177.0612107	72.5651307	141.5492739
6.72	672	0.961	-0.02	0.307	-0.1145916	0	0.0572958	177.0554812	72.5651307	141.5492739
6.73	673	0.962	-0.019	0.307	-0.1145916	-0.1718874	0.1145916	177.0497516	72.5651307	141.5435443
6.74	674	0.962	-0.018	0.311	-0.1145916	-0.2291832	0.0572958	177.044022	72.57086028	141.5435443
6.75	675	0.962	-0.018	0.308	0	-0.2291832	0.1145916	177.2732052	72.6510744	141.7555388
6.76	676	0.962	-0.018	0.307	0	-0.1718874	0.1718874	177.2674756	72.6510744	141.7498092
6.77	677	0.96	-0.018	0.307	0	-0.1145916	0.1145916	177.261746	72.65680398	141.7440796
6.78	678	0.96	-0.018	0.308	0.1145916	0.1145916	0.1145916	177.2560165	72.6510744	141.7440796
6.79	679	0.961	-0.019	0.309	0.1718874	0.1145916	-0.0572958	177.261746	72.6510744	141.7440796
6.8	680	0.963	-0.018	0.308	0.1145916	0.4010706	0	177.330501	72.67399272	141.807105
6.81	681	0.963	-0.017	0.31	0.0572958	0.2291832	0	177.330501	72.66826314	141.807105
6.82	682	0.963	-0.016	0.31	0	0.1145916	0.0572958	177.3247714	72.66826314	141.8013754
6.83	683	0.963	-0.017	0.311	0	-0.1145916	0.1145916	177.3190418	72.66826314	141.7956458
6.84	684	0.964	-0.018	0.311	-0.1718874	0	0.2291832	177.3075827	72.66826314	141.7899163
6.85	685	0.96	-0.018	0.305	-0.1718874	0	0.1145916	177.3877968	72.7083702	141.8701304
6.86	686	0.957	-0.019	0.303	-0.0572958	0.2291832	0.1145916	177.3877968	72.70264062	141.8644008
6.87	687	0.957	-0.02	0.304	0	0.5156622	0.1145916	177.3820672	72.69691104	141.8586712
6.88	688	0.96	-0.021	0.306	-0.1145916	0.6875496	-0.1145916	177.3877968	72.69118146	141.8644008
6.89	689	0.959	-0.019	0.307	-0.2291832	0.7448454	-0.2291832	177.3935264	72.68545188	141.87586
6.9	690	0.961	-0.018	0.309	-0.1718874	0.5156622	-0.2291832	177.4508222	72.68545188	141.9388853
6.91	691	0.963	-0.018	0.31	-0.1718874	0.286479	-0.2291832	177.4565518	72.68545188	141.9446149
6.92	692	0.963	-0.018	0.308	-0.4010706	0.3437748	-0.286479	177.4622813	72.6797223	141.9560741
6.93	693	0.964	-0.017	0.309	-0.2291832	0.286479	-0.3437748	177.4737405	72.67399272	141.9675332
6.94	694	0.963	-0.017	0.31	-0.1145916	0.2291832	-0.3437748	177.4851997	72.67399272	141.9789924
6.95	695	0.961	-0.017	0.305	-0.0572958	0.1145916	-0.3437748	177.5654138	72.69118146	142.0592065
6.96	696	0.959	-0.016	0.307	0.0572958	0.0572958	-0.2291832	177.5768729	72.69118146	142.0706657
6.97	697	0.958	-0.017	0.307	0.2291832	0	-0.286479	177.5883321	72.69118146	142.0821248
6.98	698	0.96	-0.017	0.309	0.4583664	0.1145916	-0.1718874	177.5997913	72.68545188	142.0878544
6.99	699	0.964	-0.017	0.313	0.4583664	0.286479	-0.2291832	177.61698	72.68545188	142.0993136
7	700	0.965	-0.017	0.312	0.286479	0.1718874	-0.2291832	177.6800054	72.6797223	142.1566094
7.01	701	0.965	-0.016	0.312	0.3437748	0.1718874	-0.0572958	177.685735	72.6797223	142.162339
7.02	702	0.962	-0.016	0.307	0.2291832	0.2291832	-0.0572958	177.6914645	72.6797223	142.162339
7.03	703	0.961	-0.016	0.305	0.1145916	0.2291832	0	177.6914645	72.67399272	142.162339
7.04	704	0.958	-0.016	0.303	0.0572958	0.2291832	0.1145916	177.685735	72.67399272	142.1566094
7.05	705	0.959	-0.016	0.303	0	0.4010706	0.1145916	177.7315716	72.70264062	142.202446
7.06	706	0.958	-0.016	0.301	0	0.572958	0.286479	177.7201124	72.69691104	142.1909869
7.07	707	0.96	-0.017	0.306	0	0.6875496	0.2291832	177.7143829	72.68545188	142.1795277
7.08	708	0.963	-0.018	0.308	-0.0572958	0.9740286	0.2291832	177.7086533	72.6797223	142.1737981
7.09	709	0.965	-0.016	0.312	-0.1718874	1.145916	0.286479	177.6914645	72.66826314	142.162339
7.1	710	0.967	-0.017	0.315	-0.1718874	0.9740286	0.4010706	177.6971941	72.6510744	142.162339
7.11	711	0.967	-0.017	0.315	-0.286479	1.0313244	0.4010706	177.6800054	72.63961524	142.1508798
7.12	712	0.964	-0.016	0.313	-0.3437748	1.0313244	0.4010706	177.6628166	72.63388566	142.1394206
7.13	713	0.961	-0.015	0.311	-0.5156622	0.9167328	0.4010706	177.6456279	72.6224265	142.1222319
7.14	714	0.959	-0.016	0.307	-0.4010706	0.7448454	0.4583664	177.6227096	72.61669692	142.1107727
7.15	715	0.955	-0.015	0.307	-0.2291832	0.6302538	0.286479	177.6685462	72.61096734	142.1508798
7.16	716	0.957	-0.018	0.307	-0.0572958	0.6302538	0.3437748	177.6570871	72.60523776	142.1394206
7.17	717	0.96	-0.02	0.31	-0.0572958	0.5156622	0.4010706	177.6398983	72.59950818	142.1279615
7.18	718	0.965	-0.018	0.315	-0.1145916	0.7448454	0.2291832	177.6284392	72.5937786	142.1165023
7.19	719	0.968	-0.018	0.319	-0.1718874	0.4010706	0.2291832	177.6227096	72.58804902	142.1107727
7.2	720	0.968	-0.019	0.32	-0.3437748	-0.1718874	0.1718874	177.6398983	72.57658986	142.1336911
7.21	721	0.969	-0.017	0.32	-0.5156622	-0.6302538	0.1718874	177.6284392	72.58231944	142.1279615
7.22	722	0.968	-0.017	0.317	-0.4583664	-0.8021412	0.2291832	177.61698	72.5937786	142.1165023
7.23	723	0.963	-0.016	0.313	-0.4583664	-0.9167328	0.286479	177.5997913	72.60523776	142.1050432
