TimeStamp(s)	FrameCounter	AccX	AccY	AccZ	GyrX	GyrY	GyrZ	EulerX	EulerY	EulerZ
0.01	1	0.022	-1.007	-0.032	-0.1718874	-0.859437	-0.0572958	91.67328	2.3777757	-20.4259527
0.02	2	0.004	-1.009	-0.092	-0.3437748	-1.2032118	-0.1718874	91.67328	2.3777757	-20.43741186
0.03	3	0.004	-1.009	-0.093	-0.4010706	-1.7761698	-0.1145916	91.66755042	2.38350528	-20.4546006
0.04	4	0.002	-1.006	-0.094	-0.3437748	-2.4637194	-0.1718874	91.66182084	2.38350528	-20.4832485
0.05	5	0.003	-1.002	-0.093	-0.2291832	-2.6929026	-0.3437748	91.51285176	2.3491278	-20.48897808
0.06	6	0.003	-1	-0.093	-0.1718874	-2.4637194	-0.4010706	91.51285176	2.3491278	-20.5118964
0.07	7	0.004	-0.999	-0.096	0.1145916	-2.578311	-0.4010706	91.51285176	2.35485738	-20.53481472
0.08	8	0.005	-1.002	-0.095	0.286479	-2.6929026	-0.4583664	91.51285176	2.36631654	-20.56346262
0.09	9	0.006	-1.004	-0.094	0.3437748	-2.6356068	-0.5156622	91.51858134	2.37204612	-20.59211052
0.1	10	0.007	-1.003	-0.09	0.286479	-2.4064236	-0.5156622	91.38107142	2.33766864	-20.5978401
0.11	11	0.007	-1.003	-0.086	0.286479	-2.3491278	-0.572958	91.386801	2.34339822	-20.62075842
0.12	12	0.008	-1	-0.09	0.1718874	-2.4064236	-0.4583664	91.386801	2.35485738	-20.64367674
0.13	13	0.007	-0.999	-0.092	0.1145916	-2.7501984	-0.3437748	91.386801	2.35485738	-20.67232464
0.14	14	0.005	-0.997	-0.091	0.1718874	-2.86479	-0.286479	91.386801	2.36058696	-20.70097254
0.15	15	0.002	-0.999	-0.091	0.2291832	-2.86479	-0.3437748	91.26075024	2.32620948	-20.7124317
0.16	16	0.003	-1.001	-0.091	0.286479	-2.9793816	-0.3437748	91.26647982	2.33193906	-20.7410796
0.17	17	0.002	-1.001	-0.089	0.4010706	-2.86479	-0.3437748	91.26647982	2.33766864	-20.7697275
0.18	18	0.002	-1	-0.09	0.4583664	-2.578311	-0.3437748	91.2722094	2.34339822	-20.79264582
0.19	19	0.004	-0.998	-0.092	0.5156622	-2.1772404	-0.3437748	91.27793898	2.3491278	-20.81556414
0.2	20	0.006	-0.998	-0.092	0.7448454	-1.9480572	-0.3437748	91.13469948	2.31475032	-20.82129372
0.21	21	0.008	-0.998	-0.093	0.572958	-1.7761698	-0.4010706	91.14042906	2.31475032	-20.83848246
0.22	22	0.007	-0.999	-0.093	0.5156622	-1.6042824	-0.3437748	91.14615864	2.3204799	-20.84994162
0.23	23	0.008	-1.003	-0.092	0.4010706	-1.3750992	-0.1718874	91.15188822	2.32620948	-20.86713036
0.24	24	0.009	-1.005	-0.095	0.4010706	-1.145916	0	91.15188822	2.32620948	-20.87858952
0.25	25	0.009	-1.004	-0.094	0.2291832	-1.0313244	0.1145916	90.8711388	2.25745452	-20.86140078
0.26	26	0.007	-1.005	-0.096	0.2291832	-1.0886202	0.1718874	90.8711388	2.25172494	-20.86713036
0.27	27	0.007	-1.005	-0.097	0.286479	-1.145916	0.1145916	90.87686838	2.25172494	-20.87858952
0.28	28	0.008	-1.005	-0.096	0.2291832	-1.2032118	0.1145916	90.87686838	2.25172494	-20.89004868
0.29	29	0.008	-1.005	-0.092	0.3437748	-1.2032118	0.0572958	90.88259796	2.25172494	-20.90723742
0.3	30	0.008	-1.006	-0.092	0.286479	-1.0313244	0	90.5560119	2.17151082	-20.87858952
0.31	31	0.008	-1.007	-0.093	0.1718874	-1.0886202	0	90.56174148	2.17151082	-20.89004868
0.32	32	0.008	-1.004	-0.092	0	-1.145916	0.0572958	90.56174148	2.17151082	-20.90150784
0.33	33	0.007	-1.003	-0.094	0.1145916	-1.3178034	0.1145916	90.56174148	2.17151082	-20.91869658
0.34	34	0.007	-1.003	-0.094	0.0572958	-1.3178034	0.286479	90.56174148	2.16578124	-20.93015574
0.35	35	0.005	-1.001	-0.093	0.1718874	-1.3750992	0.3437748	90.30963996	2.0912967	-20.912967
0.36	36	0.004	-1.001	-0.088	0.0572958	-0.9740286	0.3437748	90.30963996	2.08556712	-20.92442616
0.37	37	0.003	-0.998	-0.089	0.0572958	-0.3437748	0.2291832	90.30963996	2.08556712	-20.93015574
0.38	38	0.005	-0.999	-0.095	0.1145916	0	0.2291832	90.30963996	2.08556712	-20.93015574
0.39	39	0.01	-0.999	-0.097	0.2291832	-0.1145916	0.3437748	90.30963996	2.07983754	-20.93015574
0.4	40	0.013	-0.999	-0.092	0.7448454	-0.9167328	0.5156622	90.16067088	2.04546006	-20.92442616
0.41	41	0.012	-0.998	-0.09	0.9167328	-1.4896908	0.572958	90.17213004	2.03973048	-20.9416149
0.42	42	0.011	-0.997	-0.091	0.859437	-1.6615782	0.4583664	90.17785962	2.0340009	-20.95880364
0.43	43	0.012	-0.997	-0.091	1.0313244	-1.6615782	0.4583664	90.18931878	2.0340009	-20.97599238
0.44	44	0.013	-0.999	-0.093	1.145916	-1.8907614	0.3437748	90.20077794	2.02827132	-20.99318112
0.45	45	0.014	-1	-0.09	1.0886202	-2.1772404	0.286479	90.10910466	2.01108258	-21.00464028
0.46	46	0.014	-0.999	-0.088	1.3178034	-2.1772404	0.286479	90.1262934	2.005353	-21.0275586
0.47	47	0.014	-1.002	-0.089	1.3178034	-2.0626488	0.1718874	90.13775256	2.005353	-21.05047692
0.48	48	0.013	-1.003	-0.093	1.2032118	-2.1772404	0.2291832	90.14921172	2.005353	-21.07339524
0.49	49	0.012	-1.005	-0.092	1.3178034	-2.3491278	0.286479	90.16067088	1.99962342	-21.09631356
0.5	50	0.011	-1.006	-0.09	1.3178034	-2.1772404	0.3437748	90.0689976	1.9767051	-21.10777272
0.51	51	0.009	-1.006	-0.09	1.3178034	-2.0626488	0.3437748	90.08618634	1.97097552	-21.12496146
0.52	52	0.008	-1.006	-0.089	1.2032118	-2.0626488	0.286479	90.0976455	1.97097552	-21.14787978
0.53	53	0.008	-1.006	-0.087	1.2605076	-2.005353	0.286479	90.10910466	1.96524594	-21.16506852
0.54	54	0.01	-1.007	-0.087	1.145916	-1.7761698	0.286479	90.12056382	1.96524594	-21.18225726
0.55	55	0.009	-1.006	-0.086	1.0313244	-1.8334656	0.2291832	90.00024264	1.93086846	-21.19371642
0.56	56	0.006	-1.004	-0.087	0.8021412	-1.718874	0.286479	90.00597222	1.93086846	-21.21090516
0.57	57	0.003	-1.003	-0.087	0.8021412	-1.7761698	0.3437748	90.01743138	1.92513888	-21.2280939
0.58	58	0.001	-1.005	-0.088	0.7448454	-1.5469866	0.286479	90.02316096	1.92513888	-21.23955306
0.59	59	0	-1.005	-0.091	0.7448454	-1.2032118	0.286479	90.03462012	1.92513888	-21.25101222
0.6	60	0	-1.008	-0.088	0.7448454	-0.9740286	0.4010706	89.87419188	1.86784308	-21.24528264
0.61	61	0.003	-1.007	-0.086	0.572958	-0.286479	0.572958	89.87992146	1.8621135	-21.24528264
0.62	62	0.006	-1.003	-0.088	0.5156622	0.2291832	0.7448454	89.88565104	1.85638392	-21.24528264
0.63	63	0.008	-1.003	-0.085	0.8021412	0.1718874	1.2605076	89.89138062	1.84492476	-21.24528264
0.64	64	0.007	-1.004	-0.084	0.6875496	-0.0572958	1.3178034	89.8971102	1.82773602	-21.24528264
0.65	65	0.007	-1.005	-0.085	1.0313244	-0.286479	1.4896908	89.79397776	1.78762896	-21.23382348
0.66	66	0.008	-1.005	-0.087	0.859437	-0.4583664	1.432395	89.79970734	1.7761698	-21.23955306
0.67	67	0.009	-1.004	-0.089	0.8021412	-0.6302538	1.4896908	89.8111665	1.75898106	-21.24528264
0.68	68	0.01	-1.005	-0.087	1.0313244	-0.5156622	1.6042824	89.82262566	1.74179232	-21.25101222
0.69	69	0.014	-1.005	-0.087	0.9740286	-0.572958	1.6615782	89.82835524	1.72460358	-21.2567418
0.7	70	0.012	-1.003	-0.087	0.5156622	-0.9740286	1.6042824	89.7252228	1.69595568	-21.26247138
0.71	71	0.012	-1.003	-0.086	0.2291832	-1.145916	1.6615782	89.7252228	1.67876694	-21.27393054
0.72	72	0.01	-1.003	-0.082	0	-0.859437	1.6042824	89.7252228	1.6615782	-21.27966012
0.73	73	0.008	-1.006	-0.082	-0.0572958	-0.3437748	1.5469866	89.7252228	1.64438946	-21.2853897
0.74	74	0.004	-1.006	-0.085	0	-0.1718874	1.432395	89.7252228	1.6329303	-21.2853897
0.75	75	0.002	-1.005	-0.086	0.1718874	-0.5156622	1.2605076	89.5819833	1.58136408	-21.27966012
0.76	76	0.003	-1.003	-0.084	0.4010706	-0.8021412	1.145916	89.58771288	1.56990492	-21.2853897
0.77	77	0.008	-1.001	-0.085	0.572958	-0.859437	0.9740286	89.59344246	1.56417534	-21.29684886
0.78	78	0.014	-1	-0.089	0.5156622	-0.9740286	0.7448454	89.59917204	1.55271618	-21.30830802
0.79	79	0.018	-1.001	-0.088	0.7448454	-1.3178034	0.9167328	89.60490162	1.5469866	-21.31976718
0.8	80	0.016	-1	-0.085	0.8021412	-1.6615782	1.145916	89.5246875	1.52406828	-21.33122634
0.81	81	0.01	-1.001	-0.084	0.859437	-1.9480572	1.3750992	89.53614666	1.51260912	-21.34841508
0.82	82	0.006	-1.001	-0.084	0.8021412	-1.9480572	1.4896908	89.54187624	1.49542038	-21.3713334
0.83	83	0.005	-1.001	-0.083	0.7448454	-1.8334656	1.4896908	89.5533354	1.48396122	-21.38852214
0.84	84	0.003	-1	-0.08	0.6302538	-1.5469866	1.4896908	89.55906498	1.46677248	-21.40571088
0.85	85	0.004	-0.997	-0.083	0.6302538	-1.4896908	1.3750992	89.4673917	1.43812458	-21.41144046
0.86	86	0.005	-0.997	-0.084	0.7448454	-1.6042824	1.2032118	89.47312128	1.42666542	-21.4286292
0.87	87	0.001	-0.999	-0.085	0.7448454	-1.718874	1.0886202	89.47885086	1.41520626	-21.44581794
0.88	88	0.001	-1.001	-0.088	0.8021412	-1.6042824	0.9740286	89.49031002	1.4037471	-21.46300668
0.89	89	0	-1.004	-0.087	0.8021412	-1.4896908	0.9740286	89.4960396	1.39228794	-21.47446584
0.9	90	0.001	-1.005	-0.084	0.8021412	-1.145916	1.0313244	89.38717758	1.35791046	-21.48019542
0.91	91	0.006	-1.005	-0.083	0.8021412	-0.9740286	0.9167328	89.39863674	1.35218088	-21.485925
0.92	92	0.01	-1.003	-0.084	0.9167328	-0.6302538	1.0313244	89.40436632	1.34072172	-21.49165458
0.93	93	0.009	-1.002	-0.085	0.9740286	-0.8021412	1.0886202	89.41582548	1.32926256	-21.50311374
0.94	94	0.008	-1.001	-0.084	0.7448454	-0.9740286	1.145916	89.42728464	1.3178034	-21.50884332
0.95	95	0.008	-1.003	-0.085	0.6302538	-0.9740286	1.2605076	89.31269304	1.2891555	-21.5145729
0.96	96	0.004	-1.007	-0.087	0.286479	-0.8021412	1.3750992	89.31269304	1.27769634	-21.52030248
0.97	97	0.002	-1.009	-0.087	0.1718874	-0.6302538	1.432395	89.31842262	1.2605076	-21.52603206
0.98	98	-0.003	-1.009	-0.087	0.0572958	-1.0313244	1.3750992	89.31842262	1.24904844	-21.53749122
0.99	99	-0.006	-1.009	-0.085	0	-1.2605076	1.3178034	89.31842262	1.2318597	-21.54895038
1	100	-0.006	-1.007	-0.085	0	-0.9740286	1.0886202	89.14653522	1.18029348	-21.5432208
1.01	101	-0.001	-1.006	-0.086	0	-0.9740286	0.9740286	89.14653522	1.16883432	-21.55467996
1.02	102	0.003	-1.005	-0.081	0	-0.9740286	0.859437	89.14653522	1.16310474	-21.56613912
1.03	103	0.005	-1.003	-0.079	-0.1718874	-0.9167328	1.0313244	89.14653522	1.15164558	-21.5718687
1.04	104	0.004	-1.003	-0.079	0	-0.7448454	1.145916	89.14653522	1.14018642	-21.58332786
1.05	105	0.004	-1.004	-0.079	0.2291832	-0.3437748	1.3750992	88.99756614	1.10580894	-21.57759828
1.06	106	0.002	-1.003	-0.081	0.5156622	-0.286479	1.6042824	89.00329572	1.0886202	-21.57759828
1.07	107	0.001	-0.999	-0.08	0.572958	-0.2291832	1.6615782	89.0090253	1.07143146	-21.57759828
1.08	108	0.003	-0.994	-0.082	0.8021412	-0.1718874	1.6042824	89.01475488	1.05424272	-21.58332786
1.09	109	0.003	-0.993	-0.083	0.9740286	-0.6302538	1.4896908	89.02621404	1.03705398	-21.58905744
1.1	110	0.003	-0.996	-0.083	0.9167328	-0.8021412	1.2605076	88.9230816	1.00840608	-21.58905744
1.11	111	0.002	-0.999	-0.084	1.0886202	-0.7448454	0.859437	88.93454076	1.0026765	-21.59478702
1.12	112	0.002	-1.006	-0.083	1.145916	-0.8021412	0.4010706	88.9517295	0.99694692	-21.60624618
1.13	113	0.003	-1.008	-0.083	0.9740286	-0.7448454	0.0572958	88.95745908	0.99694692	-21.61197576
1.14	114	0.001	-1.008	-0.08	0.7448454	-0.6875496	-0.1718874	88.96891824	0.99694692	-21.61770534
1.15	115	0	-1.005	-0.077	0.572958	-0.7448454	-0.1718874	88.7798421	0.96256944	-21.61197576
1.16	116	0.001	-1.003	-0.078	0.5156622	-0.8021412	0.0572958	88.78557168	0.96256944	-21.61770534
1.17	117	0	-1.001	-0.081	0.6302538	-1.0313244	0.4010706	88.79130126	0.95683986	-21.6291645
1.18	118	0.001	-1.003	-0.085	0.6302538	-1.145916	0.4583664	88.79703084	0.95683986	-21.64062366
1.19	119	0.003	-1.006	-0.085	0.6302538	-0.9740286	0.5156622	88.80276042	0.95111028	-21.65208282
1.2	120	0.002	-1.008	-0.082	0.7448454	-1.0313244	0.2291832	88.65379134	0.92819196	-21.65208282
1.21	121	0	-1.005	-0.079	0.5156622	-1.2032118	-0.1145916	88.65952092	0.92819196	-21.66354198
1.22	122	-0.005	-1.002	-0.081	0.4583664	-1.6042824	-0.3437748	88.6652505	0.92819196	-21.68073072
1.23	123	-0.007	-1.001	-0.083	0.4010706	-1.6042824	-0.3437748	88.67098008	0.93392154	-21.69791946
1.24	124	-0.004	-1.004	-0.084	0.3437748	-1.5469866	-0.1718874	88.67670966	0.93965112	-21.7151082
1.25	125	0.001	-1.007	-0.084	0.286479	-1.3750992	-0.0572958	88.48763352	0.9167328	-21.7151082
1.26	126	0.005	-1.006	-0.086	0	-1.3178034	-0.1145916	88.48763352	0.9167328	-21.73229694
1.27	127	0.007	-1.004	-0.085	-0.2291832	-1.2605076	-0.286479	88.48190394	0.92246238	-21.7437561
1.28	128	0.007	-1.002	-0.085	-0.5156622	-1.2605076	-0.4010706	88.47617436	0.92819196	-21.75521526
1.29	129	0.003	-1.002	-0.084	-0.4010706	-1.432395	-0.4010706	88.47617436	0.92819196	-21.772404
1.3	130	0.002	-1.003	-0.084	-0.4010706	-1.5469866	-0.286479	88.3501236	0.9167328	-21.77813358
1.31	131	0.003	-1.006	-0.082	-0.4583664	-1.6615782	-0.3437748	88.3501236	0.92246238	-21.79532232
1.32	132	0.004	-1.006	-0.084	-0.572958	-1.4896908	-0.3437748	88.34439402	0.92246238	-21.81251106
1.33	133	0.004	-1.004	-0.086	-0.6302538	-1.432395	-0.3437748	88.33293486	0.92819196	-21.82397022
1.34	134	0.007	-1.002	-0.086	-0.4583664	-1.3178034	-0.3437748	88.32720528	0.93392154	-21.84115896
1.35	135	0.007	-1.003	-0.086	-0.572958	-1.4896908	-0.4010706	88.21834326	0.92819196	-21.84688854
1.36	136	0.003	-1.002	-0.086	-0.6302538	-1.7761698	-0.3437748	88.21261368	0.93392154	-21.86980686
1.37	137	0.001	-1.002	-0.084	-0.6302538	-1.7761698	-0.3437748	88.20115452	0.93392154	-21.8869956
1.38	138	0.005	-1.003	-0.082	-0.572958	-1.6615782	-0.4010706	88.19542494	0.93965112	-21.90418434
1.39	139	0.009	-1.003	-0.084	-0.572958	-1.2605076	-0.4583664	88.18969536	0.9453807	-21.9156435
1.4	140	0.013	-1.002	-0.084	-0.8021412	-1.3750992	-0.4010706	88.08656292	0.95111028	-21.92710266
1.41	141	0.016	-1.001	-0.084	-1.2032118	-1.6615782	-0.4010706	88.07510376	0.95111028	-21.9442914
1.42	142	0.015	-1.004	-0.084	-1.432395	-1.7761698	-0.3437748	88.0636446	0.95683986	-21.96148014
1.43	143	0.011	-1.008	-0.083	-1.3750992	-1.9480572	-0.286479	88.04645586	0.95683986	-21.98439846
1.44	144	0.009	-1.008	-0.085	-1.2605076	-1.718874	-0.2291832	88.0349967	0.96256944	-22.0015872
1.45	145	0.004	-1.006	-0.086	-0.9167328	-1.6042824	-0.2291832	87.9204051	0.95111028	-22.00731678
1.46	146	0.004	-1.006	-0.085	-0.6302538	-1.6042824	-0.2291832	87.91467552	0.95111028	-22.02450552
1.47	147	0.004	-1.004	-0.084	-0.572958	-1.6615782	-0.4010706	87.90894594	0.95683986	-22.04169426
1.48	148	0.006	-1.001	-0.083	-0.5156622	-1.4896908	-0.5156622	87.90321636	0.96256944	-22.058883
1.49	149	0.01	-1.003	-0.084	-0.4010706	-1.145916	-0.572958	87.89748678	0.96829902	-22.07034216
1.5	150	0.012	-1.005	-0.087	-0.3437748	-1.145916	-0.5156622	87.76570644	0.9740286	-22.07607174
1.51	151	0.013	-1.004	-0.086	-0.3437748	-1.2032118	-0.4010706	87.75997686	0.9740286	-22.09326048
1.52	152	0.013	-1.001	-0.086	-0.3437748	-1.2605076	-0.3437748	87.75997686	0.97975818	-22.10471964
1.53	153	0.013	-1.001	-0.087	-0.286479	-1.3750992	-0.286479	87.75424728	0.97975818	-22.1161788
1.54	154	0.014	-0.999	-0.086	-0.4010706	-1.432395	-0.286479	87.7485177	0.98548776	-22.13336754
1.55	155	0.014	-1	-0.085	-0.286479	-1.6615782	-0.286479	87.64538526	0.98548776	-22.1448267
1.56	156	0.013	-0.999	-0.085	-0.2291832	-2.005353	-0.3437748	87.63965568	0.99121734	-22.16774502
1.57	157	0.01	-1	-0.086	-0.4010706	-2.1199446	-0.3437748	87.6339261	0.99694692	-22.19066334
1.58	158	0.007	-1	-0.088	-0.286479	-2.0626488	-0.3437748	87.6339261	0.99694692	-22.20785208
1.59	159	0.006	-1.002	-0.089	-0.1718874	-1.9480572	-0.4010706	87.62819652	1.0026765	-22.2307704
1.6	160	0.006	-1.002	-0.087	-0.1718874	-1.8334656	-0.4583664	87.5193345	0.99694692	-22.24222956
1.61	161	0.01	-1.001	-0.085	0	-1.4896908	-0.4583664	87.5193345	1.0026765	-22.2594183
1.62	162	0.013	-1.001	-0.088	0	-1.2605076	-0.5156622	87.5193345	1.00840608	-22.27087746
1.63	163	0.014	-1.003	-0.091	0	-1.4896908	-0.3437748	87.5193345	1.00840608	-22.2880662
1.64	164	0.014	-1.004	-0.087	0	-1.2605076	-0.2291832	87.5193345	1.01413566	-22.29952536
1.65	165	0.013	-1.006	-0.088	0.1718874	0.0572958	0.1718874	87.19847802	1.00840608	-22.29379578
1.66	166	0.011	-1.007	-0.092	0.1145916	0.1145916	0.3437748	87.19847802	1.0026765	-22.2880662
1.67	167	0.009	-1.006	-0.092	0	0.0572958	0.4010706	87.19847802	0.99694692	-22.2880662
1.68	168	0.006	-1.007	-0.09	0	0.1718874	0.5156622	87.19847802	0.99121734	-22.2880662
1.69	169	0.006	-1.007	-0.09	0.0572958	0.1145916	0.572958	87.2042076	0.98548776	-22.2880662
1.7	170	0.009	-1.006	-0.091	-0.0572958	0.1145916	0.5156622	86.8890807	0.9740286	-22.27660704
1.71	171	0.012	-1.004	-0.091	-0.2291832	0.0572958	0.286479	86.8890807	0.9740286	-22.27660704
1.72	172	0.014	-1.003	-0.092	-0.2291832	0	0.1145916	86.88335112	0.9740286	-22.27660704
1.73	173	0.013	-1.003	-0.091	-0.2291832	-0.1718874	0.0572958	86.88335112	0.9740286	-22.27660704
1.74	174	0.011	-1.002	-0.092	-0.2291832	-0.0572958	0.0572958	86.88335112	0.96829902	-22.27660704
1.75	175	0.011	-1.001	-0.093	-0.1718874	0	0.1718874	86.53957632	0.96256944	-22.27087746
1.76	176	0.013	-0.998	-0.093	-0.1718874	0.0572958	0.3437748	86.53957632	0.96256944	-22.27087746
1.77	177	0.01	-0.998	-0.093	0	-0.1145916	0.4010706	86.53957632	0.95683986	-22.27087746
1.78	178	0.01	-0.997	-0.09	0.1718874	-0.1718874	0.4010706	86.53957632	0.95111028	-22.27660704
1.79	179	0.009	-0.999	-0.089	0.2291832	-0.1718874	0.3437748	86.5453059	0.95111028	-22.27660704
1.8	180	0.009	-1	-0.088	0.0572958	0	0.1718874	86.1728832	0.90527364	-22.2594183
1.81	181	0.008	-0.999	-0.089	0	0.1145916	0	86.1728832	0.90527364	-22.2594183
1.82	182	0.009	-1.001	-0.087	0.0572958	0.4583664	0.0572958	86.1728832	0.90527364	-22.25368872
1.83	183	0.013	-1.003	-0.083	0.0572958	0.859437	0.1145916	86.1728832	0.90527364	-22.24795914
1.84	184	0.016	-1.003	-0.085	0.0572958	1.5469866	0.1145916	86.17861278	0.90527364	-22.2307704
1.85	185	0.018	-1.002	-0.089	0	1.4896908	0.0572958	86.0869395	0.9167328	-22.21931124
1.86	186	0.019	-1.005	-0.089	-0.2291832	1.3178034	0	86.08120992	0.92246238	-22.2021225
1.87	187	0.019	-1.006	-0.093	-0.3437748	1.0313244	0	86.07548034	0.92246238	-22.19066334
1.88	188	0.018	-1.007	-0.093	-0.4010706	0.6875496	-0.0572958	86.07548034	0.92246238	-22.18493376
1.89	189	0.018	-1.008	-0.093	-0.4583664	0.6875496	-0.1718874	86.06975076	0.92246238	-22.17920418
1.9	190	0.015	-1.007	-0.093	-0.4010706	0.5156622	-0.2291832	85.93797042	0.93392154	-22.1734746
1.91	191	0.015	-1.005	-0.094	-0.572958	0.286479	-0.3437748	85.93224084	0.93965112	-22.1734746
1.92	192	0.013	-1.002	-0.094	-0.4583664	-0.1145916	-0.286479	85.93224084	0.93965112	-22.1734746
1.93	193	0.009	-1.004	-0.092	-0.1718874	-0.4583664	-0.286479	85.92651126	0.9453807	-22.17920418
1.94	194	0.01	-1.006	-0.092	-0.1718874	-0.4010706	-0.3437748	85.92651126	0.9453807	-22.17920418
1.95	195	0.01	-1.007	-0.092	-0.1145916	-0.4010706	-0.4583664	85.79473092	0.9453807	-22.18493376
1.96	196	0.011	-1.004	-0.09	-0.3437748	-0.1145916	-0.5156622	85.79473092	0.95111028	-22.18493376
1.97	197	0.01	-1.001	-0.091	-0.286479	-0.0572958	-0.5156622	85.78900134	0.95683986	-22.18493376
1.98	198	0.01	-1.001	-0.091	-0.3437748	0	-0.572958	85.78327176	0.96256944	-22.18493376
1.99	199	0.009	-1.001	-0.091	-0.3437748	0.1718874	-0.5156622	85.78327176	0.96829902	-22.18493376
2	200	0.01	-1.001	-0.091	-0.4583664	0.286479	-0.5156622	85.6858689	0.96829902	-22.17920418
2.01	201	0.013	-1.001	-0.089	-0.5156622	0.286479	-0.5156622	85.68013932	0.9740286	-22.17920418
2.02	202	0.015	-1.001	-0.09	-0.8021412	0.4010706	-0.6875496	85.67440974	0.98548776	-22.1734746
2.03	203	0.015	-1	-0.091	-0.8021412	0.572958	-0.6875496	85.66868016	0.99121734	-22.16774502
2.04	204	0.016	-0.999	-0.091	-0.9167328	0.8021412	-0.9167328	85.657221	1.0026765	-22.16201544
2.05	205	0.015	-1	-0.092	-0.9740286	0.7448454	-1.0313244	85.59419562	1.01413566	-22.15055628
2.06	206	0.014	-1.001	-0.09	-0.9740286	0.5156622	-1.145916	85.58273646	1.02559482	-22.15055628
2.07	207	0.013	-1.004	-0.085	-1.0313244	0.9740286	-1.3178034	85.57700688	1.03705398	-22.13909712
2.08	208	0.014	-1.005	-0.083	-1.2605076	2.005353	-1.4896908	85.55981814	1.05424272	-22.12190838
2.09	209	0.019	-1.006	-0.089	-1.7761698	2.8074942	-1.9480572	85.5426294	1.07716104	-22.09326048
2.1	210	0.021	-1.009	-0.091	-2.6929026	3.2085648	-2.4064236	85.50252234	1.10580894	-22.06461258
2.11	211	0.022	-1.015	-0.091	-3.6669312	3.151269	-2.6929026	85.46241528	1.13445684	-22.03596468
2.12	212	0.022	-1.017	-0.092	-4.583664	3.151269	-2.9220858	85.41657864	1.16310474	-22.00731678
2.13	213	0.023	-1.021	-0.094	-5.3285094	3.3804522	-3.151269	85.36501242	1.19748222	-21.97866888
2.14	214	0.029	-1.018	-0.101	-6.1879464	4.0680018	-3.3231564	85.30198704	1.2318597	-21.93856182
2.15	215	0.021	-1.014	-0.095	-5.5576926	3.2085648	-3.3804522	85.23323208	1.26623718	-21.90991392
2.16	216	0.013	-1.013	-0.092	-5.7868758	2.5210152	-3.5523396	85.17593628	1.30061466	-21.8869956
2.17	217	0.009	-1.012	-0.091	-5.9014674	2.3491278	-3.9534102	85.1129109	1.34072172	-21.86980686
2.18	218	0.009	-1.014	-0.094	-5.8441716	2.6356068	-4.297185	85.0556151	1.38655836	-21.84688854
2.19	219	0.011	-1.016	-0.092	-6.1306506	3.0366774	-4.4117766	84.99258972	1.42666542	-21.82397022
2.2	220	0.012	-1.012	-0.091	-6.4744254	3.3231564	-4.1825934	84.92383476	1.47250206	-21.79532232
2.21	221	0.013	-1.009	-0.087	-6.7609044	3.5523396	-4.0680018	84.8550798	1.51260912	-21.76094484
2.22	222	0.016	-1.007	-0.091	-7.3911582	4.1825934	-3.9534102	84.78059526	1.55271618	-21.72656736
2.23	223	0.017	-1.003	-0.096	-7.7922288	4.4117766	-4.0680018	84.70038114	1.59855282	-21.6864603
2.24	224	0.021	-1.002	-0.104	-8.021412	4.583664	-4.5263682	84.62016702	1.64438946	-21.64635324
2.25	225	0.022	-0.999	-0.1	-8.307891	4.5263682	-4.9274388	84.52849374	1.69595568	-21.60624618
2.26	226	0.023	-0.996	-0.1	-8.021412	4.5263682	-5.0993262	84.44827962	1.7475219	-21.56613912
2.27	227	0.023	-0.993	-0.107	-8.0787078	4.297185	-5.3285094	84.36233592	1.8048177	-21.53176164
2.28	228	0.024	-0.994	-0.108	-8.0787078	3.8388186	-5.443101	84.2821218	1.8621135	-21.49738416
2.29	229	0.025	-0.994	-0.105	-8.1360036	3.6096354	-5.5003968	84.20190768	1.91367972	-21.46873626
2.3	230	0.026	-0.996	-0.103	-7.734933	3.151269	-5.5003968	84.11596398	1.97097552	-21.44008836
2.31	231	0.026	-0.999	-0.106	-7.5630456	2.6356068	-5.8441716	84.04147944	2.02827132	-21.42289962
2.32	232	0.032	-1.002	-0.109	-7.9068204	2.291832	-6.1306506	83.96126532	2.0912967	-21.40571088
2.33	233	0.033	-1.002	-0.112	-7.8495246	1.0313244	-6.1879464	83.8810512	2.15432208	-21.40571088
2.34	234	0.033	-1.003	-0.114	-7.9641162	-0.5156622	-6.1879464	83.7951075	2.21734746	-21.41717004
2.35	235	0.032	-1.008	-0.112	-8.021412	-1.145916	-6.1879464	83.7091638	2.27464326	-21.43435878
2.36	236	0.032	-1.01	-0.114	-8.1360036	-1.145916	-6.2452422	83.6232201	2.33193906	-21.45154752
2.37	237	0.032	-1.009	-0.113	-8.1932994	-1.2605076	-6.302538	83.54300598	2.39496444	-21.47446584
2.38	238	0.029	-1.007	-0.112	-8.0787078	-1.2605076	-6.4171296	83.45706228	2.45798982	-21.49738416
2.39	239	0.028	-1.003	-0.111	-7.7922288	-2.1199446	-6.1879464	83.37684816	2.51528562	-21.52603206
2.4	240	0.022	-1.004	-0.108	-7.161975	-3.2658606	-5.9014674	83.29663404	2.56685184	-21.56613912
2.41	241	0.015	-1.009	-0.115	-7.3338624	-3.151269	-6.1879464	83.2221495	2.62414764	-21.6005166
2.42	242	0.015	-1.008	-0.125	-7.448454	-1.6615782	-6.875496	83.14766496	2.68717302	-21.6291645
2.43	243	0.019	-1.009	-0.13	-7.3338624	-0.6302538	-7.448454	83.07318042	2.76165756	-21.64635324
2.44	244	0.027	-1.006	-0.122	-7.5057498	-0.9740286	-8.021412	82.9929663	2.84187168	-21.66354198
2.45	245	0.036	-1.005	-0.123	-7.7922288	-1.2032118	-8.5370742	82.9070226	2.9220858	-21.6864603
2.46	246	0.042	-0.999	-0.128	-7.9641162	-1.2032118	-8.8235532	82.82680848	3.0080295	-21.70937862
2.47	247	0.042	-0.996	-0.134	-7.9641162	-0.572958	-9.167328	82.74086478	3.0939732	-21.72656736
2.48	248	0.041	-0.993	-0.132	-7.6776372	-0.5156622	-9.2246238	82.66638024	3.18564648	-21.7437561
2.49	249	0.037	-0.991	-0.131	-7.448454	-1.0886202	-8.9381448	82.58616612	3.27159018	-21.76667442
2.5	250	0.035	-0.987	-0.13	-7.0473834	-1.3178034	-8.4224826	82.505952	3.34607472	-21.79532232
2.51	251	0.039	-0.99	-0.131	-6.7609044	-1.0886202	-8.021412	82.43719704	3.42628884	-21.81824064
2.52	252	0.049	-0.992	-0.134	-6.9327918	-0.6302538	-7.8495246	82.36844208	3.50077338	-21.83542938
2.53	253	0.063	-0.993	-0.143	-7.448454	-0.3437748	-7.8495246	82.28822796	3.57525792	-21.84688854
2.54	254	0.041	-0.99	-0.145	-8.0787078	-0.4010706	-8.4224826	82.20801384	3.66120162	-21.86407728
2.55	255	0.036	-0.989	-0.135	-7.734933	-1.0313244	-8.4797784	82.12207014	3.73568616	-21.8869956
2.56	256	0.052	-0.989	-0.139	-7.734933	-0.859437	-8.5370742	82.04185602	3.82162986	-21.90991392
2.57	257	0.079	-0.991	-0.149	-8.4224826	-0.1718874	-8.9954406	81.95591232	3.90757356	-21.92137308
2.58	258	0.065	-0.994	-0.154	-8.9381448	-0.286479	-9.7975818	81.86423904	4.00497642	-21.93856182
2.59	259	0.046	-0.994	-0.141	-8.9954406	-1.0886202	-9.9694692	81.76683618	4.0966497	-21.96720972
2.6	260	0.049	-0.997	-0.14	-8.7662574	-0.859437	-9.6256944	81.6751629	4.18832298	-21.99012804
2.61	261	0.058	-0.996	-0.151	-9.453807	0.286479	-9.453807	81.57776004	4.27999626	-22.0015872
2.62	262	0.064	-0.995	-0.163	-10.0840608	1.0313244	-9.453807	81.4746276	4.37166954	-22.0015872
2.63	263	0.074	-1	-0.162	-10.3705398	1.5469866	-9.3965112	81.36576558	4.4690724	-22.0015872
2.64	264	0.07	-1.002	-0.155	-10.7143146	1.432395	-9.7975818	81.25690356	4.56647526	-22.0015872
2.65	265	0.061	-0.997	-0.158	-11.2872726	1.8907614	-10.4851314	81.13658238	4.66387812	-22.0015872
2.66	266	0.064	-0.997	-0.163	-11.8029348	2.6929026	-11.172681	81.0162612	4.77846972	-21.99585762
2.67	267	0.067	-0.999	-0.161	-12.6623718	3.7815228	-11.8602306	80.89021044	4.8987909	-21.97866888
2.68	268	0.068	-1.001	-0.156	-13.464513	5.156622	-12.318597	80.75270052	5.02484166	-21.9442914
2.69	269	0.076	-0.998	-0.155	-13.9228794	6.6463128	-12.605076	80.6151906	5.156622	-21.89845476
2.7	270	0.083	-0.995	-0.17	-14.1520626	7.734933	-13.0061466	80.4719511	5.29413192	-21.84688854
2.71	271	0.082	-0.986	-0.174	-14.4385416	8.1360036	-13.3499214	80.3287116	5.43164184	-21.78959274
2.72	272	0.082	-0.982	-0.172	-14.4385416	8.2505952	-13.4072172	80.1854721	5.57488134	-21.73229694
2.73	273	0.081	-0.98	-0.176	-14.4385416	8.4797784	-13.4072172	80.0422326	5.71812084	-21.67500114
2.74	274	0.08	-0.985	-0.184	-14.4958374	9.3965112	-13.8082878	79.8989931	5.86708992	-21.60624618
2.75	275	0.081	-0.987	-0.185	-14.8396122	10.026765	-14.32395	79.75002402	6.016059	-21.53176164
2.76	276	0.082	-0.981	-0.184	-15.2406828	10.2559482	-14.6677248	79.60105494	6.17075766	-21.4572771
2.77	277	0.08	-0.973	-0.186	-15.2406828	9.9694692	-14.9542038	79.45781544	6.3311859	-21.38852214
2.78	278	0.081	-0.971	-0.188	-15.3552744	10.1413566	-15.183387	79.30311678	6.49734372	-21.31976718
2.79	279	0.089	-0.977	-0.198	-15.9282324	11.6883432	-15.5271618	79.14841812	6.66350154	-21.23382348
2.8	280	0.102	-0.978	-0.194	-16.329303	12.8342592	-15.8136408	78.98798988	6.83538894	-21.13642062
2.81	281	0.111	-0.979	-0.205	-16.902261	13.4072172	-16.1001198	78.82756164	7.01300592	-21.03901776
2.82	282	0.116	-0.965	-0.185	-16.6730778	12.891555	-16.2147114	78.6671334	7.1906229	-20.94734448
2.83	283	0.11	-0.947	-0.172	-16.2720072	13.0634424	-16.5011904	78.51243474	7.37396946	-20.84994162
2.84	284	0.102	-0.936	-0.175	-16.5584862	13.4072172	-16.902261	78.35773608	7.5630456	-20.75253876
2.85	285	0.1	-0.938	-0.194	-17.4179232	14.3812458	-17.3606274	78.18584868	7.75212174	-20.64940632
2.86	286	0.098	-0.949	-0.209	-18.048177	14.5531332	-17.4179232	78.01396128	7.94119788	-20.54627388
2.87	287	0.097	-0.95	-0.206	-17.7044022	13.2926256	-17.0168526	77.84780346	8.13027402	-20.44887102
2.88	288	0.099	-0.947	-0.199	-16.7303736	12.7196676	-16.4438946	77.68737522	8.31362058	-20.36292732
2.89	289	0.105	-0.944	-0.201	-16.5011904	13.2926256	-16.4438946	77.53267656	8.49696714	-20.26552446
2.9	290	0.111	-0.943	-0.207	-16.615782	13.9801752	-16.6730778	77.37224832	8.6803137	-20.1681216
2.91	291	0.115	-0.937	-0.209	-16.7876694	13.9228794	-17.0168526	77.21754966	8.86938984	-20.07071874
2.92	292	0.115	-0.933	-0.205	-16.615782	13.4072172	-17.0741484	77.05712142	9.05846598	-19.97904546
2.93	293	0.112	-0.932	-0.207	-16.5011904	13.2353298	-16.902261	76.90242276	9.24754212	-19.88737218
2.94	294	0.107	-0.935	-0.207	-16.329303	12.891555	-16.7303736	76.7477241	9.43088868	-19.80142848
2.95	295	0.102	-0.941	-0.202	-16.1001198	12.605076	-16.9595568	76.59875502	9.61423524	-19.71548478
2.96	296	0.099	-0.939	-0.198	-16.1574156	13.0061466	-17.2460358	76.44405636	9.80904096	-19.62954108
2.97	297	0.098	-0.936	-0.195	-16.2147114	13.6936962	-17.6471064	76.29508728	10.00384668	-19.5378678
2.98	298	0.099	-0.934	-0.197	-16.7303736	13.9228794	-17.9908812	76.14038862	10.20438198	-19.44619452
2.99	299	0.1	-0.932	-0.197	-17.9335854	14.0947668	-18.1627686	75.96850122	10.41064686	-19.35452124
3	300	0.11	-0.929	-0.195	-18.7930224	14.2093584	-18.2200644	75.79661382	10.60545258	-19.25711838
3.01	301	0.111	-0.928	-0.197	-19.0795014	13.9801752	-18.048177	75.61899684	10.81171746	-19.1654451
3.02	302	0.113	-0.933	-0.19	-19.5378678	13.6364004	-18.048177	75.4299207	11.01225276	-19.0795014
3.03	303	0.115	-0.93	-0.186	-21.3140376	13.8655836	-18.621135	75.2293854	11.21851764	-18.9935577
3.04	304	0.106	-0.916	-0.199	-22.4026578	14.037471	-19.0222056	75.01739094	11.4305121	-18.907614
3.05	305	0.106	-0.912	-0.242	-25.0955604	15.3552744	-19.5378678	74.77674858	11.64250656	-18.81021114
3.06	306	0.084	-0.907	-0.236	-25.9549974	14.0947668	-19.8816426	74.53037664	11.86596018	-18.72426744
3.07	307	0.059	-0.908	-0.211	-26.2987722	14.037471	-19.8816426	74.27827512	12.0894138	-18.64405332
3.08	308	0.043	-0.907	-0.208	-26.642547	16.3865988	-20.340009	74.0261736	12.318597	-18.54092088
3.09	309	0.027	-0.895	-0.2	-27.501984	19.6524594	-21.7151082	73.77407208	12.57069852	-18.40914054
3.1	310	0.014	-0.887	-0.199	-28.8770832	23.0329116	-23.6058696	73.5105114	12.83998878	-18.25444188
3.11	311	0.001	-0.882	-0.206	-31.1689152	27.3873924	-25.3247436	73.23549156	13.1493861	-18.05963616
3.12	312	-0.005	-0.874	-0.203	-31.7418732	30.9970278	-26.642547	72.96047172	13.48170174	-17.83618254
3.13	313	0	-0.858	-0.212	-32.7159018	33.9764094	-28.1895336	72.6797223	13.8369357	-17.5898106
3.14	314	0.021	-0.839	-0.222	-34.950438	36.3255372	-30.2521824	72.38178414	14.21508798	-17.3319795
3.15	315	0.042	-0.829	-0.233	-37.0130868	38.388186	-32.1429438	72.07238682	14.61615858	-17.05695966
3.16	316	0.06	-0.825	-0.232	-39.1903272	39.9924684	-33.1742682	71.74007118	15.03441792	-16.77048066
3.17	317	0.091	-0.819	-0.233	-40.393539	40.9092012	-34.5493674	71.39629638	15.47559558	-16.48400166
3.18	318	0.123	-0.823	-0.242	-42.112413	41.3675676	-36.4401288	71.04106242	15.93396198	-16.20325224
3.19	319	0.117	-0.832	-0.265	-44.6334282	41.7686382	-38.101707	70.65718056	16.40951712	-15.92250282
3.2	320	0.108	-0.843	-0.301	-46.5814854	41.8832298	-39.1330314	70.25610996	16.89653142	-15.65321256
3.21	321	0.108	-0.855	-0.317	-47.3836266	41.0810886	-40.2789474	69.8435802	17.39500488	-15.39538146
3.22	322	0.09	-0.875	-0.322	-48.1857678	40.6227222	-41.252976	69.42532086	17.89920792	-15.14900952
3.23	323	0.078	-0.898	-0.318	-49.9619376	42.2843004	-42.7426668	68.98987278	18.43205886	-14.896908
3.24	324	0.08	-0.896	-0.326	-51.7954032	45.3209778	-44.8053156	68.54296554	18.9935577	-14.62188816
3.25	325	0.096	-0.878	-0.336	-50.1911208	46.1804148	-46.409598	68.11324704	19.56078612	-14.34686832
3.26	326	0.126	-0.851	-0.337	-48.0711762	45.0344988	-46.3523022	67.70644686	20.1394737	-14.0947668
3.27	327	0.164	-0.828	-0.334	-45.9512316	43.7739912	-43.4302164	67.322565	20.68951338	-13.84266528
3.28	328	0.154	-0.855	-0.313	-42.5134836	43.3156248	-38.674665	66.9787902	21.19371642	-13.57337502
3.29	329	0.114	-0.921	-0.366	-41.0237928	43.6593996	-35.6952834	66.65793372	21.67500114	-13.29835518
3.3	330	0.073	-0.947	-0.446	-40.966497	44.8626114	-36.0390582	66.34280682	22.15055628	-13.0061466
3.31	331	0.063	-0.948	-0.454	-39.1330314	44.8626114	-38.2162986	66.04486866	22.6604889	-12.73112676
3.32	332	0.042	-0.928	-0.432	-38.0444112	47.0971476	-39.6486936	65.76411924	23.19333984	-12.43891818
3.33	333	0.017	-0.899	-0.413	-34.950438	51.7954032	-39.7632852	65.53493604	23.7491091	-12.10660254
3.34	334	-0.043	-0.883	-0.43	-31.3980984	53.9726436	-38.2162986	65.35158948	24.29914878	-11.73990942
3.35	335	-0.113	-0.857	-0.419	-27.3300966	58.441716	-36.0390582	65.24272746	24.82627014	-11.32165008
3.36	336	-0.161	-0.83	-0.374	-22.7464326	62.8534926	-35.8671708	65.19689082	25.39349856	-10.8575541
3.37	337	-0.176	-0.803	-0.338	-19.7097552	69.7862844	-36.7839036	65.21980914	25.99510446	-10.32470316
3.38	338	-0.166	-0.779	-0.325	-18.8503182	77.4066258	-37.3568616	65.2885641	26.63108784	-9.7116381
3.39	339	-0.15	-0.766	-0.331	-18.1627686	85.1415588	-37.0703826	65.4031557	27.29571912	-9.01835892
3.4	340	-0.142	-0.738	-0.325	-16.2720072	92.5900128	-36.669312	65.58650226	27.9603504	-8.23340646
3.41	341	-0.138	-0.686	-0.294	-13.6364004	100.7260164	-36.955791	65.85006294	28.6765479	-7.3625103
3.42	342	-0.114	-0.624	-0.257	-10.7143146	108.9766116	-38.7892566	66.19383774	29.43858204	-6.39994086
3.43	343	-0.098	-0.551	-0.23	-6.4171296	116.4823614	-41.3675676	66.62928582	30.24645282	-5.36288688
3.44	344	-0.09	-0.477	-0.212	-1.432395	121.0660254	-42.97185	67.15640718	31.0829715	-4.25707794
3.45	345	-0.086	-0.414	-0.182	4.9847346	126.8529012	-44.9199072	67.80384972	31.93094934	-3.08251404
3.46	346	-0.096	-0.371	-0.161	11.172681	129.8322828	-47.9565846	68.5544247	32.81903424	-1.86784308
3.47	347	-0.093	-0.362	-0.145	18.7930224	133.6711014	-53.5142772	69.41959128	33.75868536	-0.6016059
3.48	348	-0.032	-0.372	-0.118	25.8404058	139.801752	-62.452422	70.41080862	34.78428018	0.72765666
3.49	349	0.01	-0.348	-0.101	32.7731976	143.3540916	-72.0781164	71.52234714	35.89008912	2.10275586
3.5	350	0.019	-0.291	-0.039	39.5913978	143.9270496	-79.068204	72.74274768	37.03600512	3.51223254
3.51	351	0.065	-0.241	0.015	45.0917946	145.7605152	-84.5686008	74.07201024	38.22202818	4.97327544
3.52	352	0.121	-0.212	0.037	48.8160216	147.7658682	-86.6885454	75.51013482	39.40232166	6.51453246
3.53	353	0.14	-0.177	0.063	54.9466722	147.0783186	-86.9750244	77.07431016	40.54823766	8.11308528
3.54	354	0.155	-0.136	0.091	58.6136034	142.7811336	-86.3447706	78.70724046	41.6540466	9.72309726
3.55	355	0.172	-0.142	0.077	59.1292656	144.2135286	-85.8864042	80.43184404	42.71974848	11.4305121
3.56	356	0.396	-0.183	-0.019	51.3370368	160.141761	-86.1155874	82.29968712	43.76253204	13.41867636
3.57	357	0.704	-0.219	0.073	57.1239126	162.720072	-89.667927	84.32222886	44.79958602	15.5271618
3.58	358	0.911	-0.22	0.075	59.014674	156.5894214	-105.5961594	86.39060724	45.93404286	17.6184585
3.59	359	1.279	-0.403	0.021	58.6136034	175.9554018	-135.1607922	88.7511942	47.30341248	20.0821779
3.6	360	1.656	-0.509	0.099	55.7488134	169.9393428	-158.995845	91.16907696	48.8446695	22.61465226
3.61	361	1.875	-0.343	0.171	46.982556	155.271618	-180.8255448	93.52966392	50.5348956	25.11274914
3.62	362	1.921	-0.226	0.163	43.2010332	145.9324026	-201.2801454	95.96473542	52.37409078	27.69678972
3.63	363	2.011	-0.431	0.094	51.0505578	127.6550424	-210.2182902	98.50293936	54.25339302	30.24072324
3.64	364	1.988	-0.487	0.008	54.8320806	100.0957626	-216.5208282	100.9838475	56.1785319	32.6013102
3.65	365	2.091	-0.553	-0.014	73.052145	75.4012728	-211.6506852	103.5449698	58.05783414	34.78428018
3.66	366	2.009	0.226	-0.083	78.0368796	33.0023808	-239.0953734	105.888368	60.26372244	36.60628662
3.67	367	1.972	0.599	0.313	119.5190388	0.8021412	-298.797597	108.793265	63.09986454	38.5314255
3.68	368	2.359	0.009	0.184	150.0577002	-3.0939732	-293.1253128	112.4601962	65.83860378	40.91493078
3.69	369	2.314	0.364	0.725	116.5396572	-8.7662574	-294.9014826	116.3849585	68.54296554	43.8885828
3.7	370	2.133	0.628	0.714	161.287677	-5.7868758	-297.5370894	121.8853553	71.15565402	48.0138804
3.71	371	2.171	0.371	1.014	157.9645206	-2.6929026	-276.165756	128.451454	73.40737896	53.22206862
3.72	372	2.401	0.303	0.736	153.552744	35.0650296	-259.0916076	137.1718748	75.04603884	60.67052262
3.73	373	2.291	0.402	0.847	117.45639	74.3126526	-232.5636522	147.141344	75.8596392	69.75190692
3.74	374	2.561	0.035	0.829	103.705398	48.9306132	-207.983754	156.5092073	76.39249014	78.3233586
3.75	375	2.357	-0.018	0.805	72.0781164	12.2040054	-166.5015948	163.9805796	76.82793822	85.2561504
3.76	376	2.457	0.029	0.855	60.9627312	-5.9014674	-143.7551622	170.6211628	77.18890176	91.43836722
3.77	377	2.155	-0.029	0.753	46.2377106	-27.4446882	-117.8574606	176.2075033	77.58997236	96.68093292
3.78	378	1.935	-0.045	0.635	42.5134836	-29.7365202	-92.7619002	-179.0894821	77.89936968	101.0411433
3.79	379	1.722	-0.056	0.547	34.2628884	-30.653253	-66.0620574	-175.5256833	78.16293036	104.3241926
3.8	380	1.31	-0.05	0.437	40.7946096	-27.3873924	-44.690724	-172.8270511	78.37492482	106.6561317
3.81	381	0.888	-0.009	0.315	48.2430636	-19.0222056	-33.518043	-170.5524079	78.50670516	108.4781381
3.82	382	0.876	-0.137	0.252	52.4829528	-10.7143146	-36.4401288	-168.1402547	78.53535306	110.3975474
3.83	383	0.848	-0.057	0.152	61.592985	-3.8961144	-46.8106686	-165.2238985	78.45513894	112.7294865
3.84	384	0.736	0.139	0.127	60.7908438	-4.2398892	-42.2270046	-162.5653733	78.36919524	114.8150536
3.85	385	0.616	0.403	0.081	65.89017	-0.9167328	-30.1375908	-160.3766738	78.2660628	116.3620402
3.86	386	0.61	0.521	0.056	66.8641986	0.572958	-14.0947668	-159.0646	78.20303742	117.0094828
3.87	387	0.593	0.541	0.021	68.0674104	-0.9740286	0.572958	-158.3713208	78.208767	117.0152123
3.88	388	0.602	0.487	0.074	64.5150708	3.151269	11.0580894	-158.2567292	78.208767	116.4594431
3.89	389	0.601	0.503	0.175	50.6494872	13.178034	12.9488508	-158.5489378	78.13428246	115.6343836
3.9	390	0.662	0.446	0.175	40.9092012	17.5325148	10.026765	-158.7552026	77.99104296	114.9984002
3.91	391	0.691	0.356	0.121	34.663959	17.5898106	7.161975	-159.0244929	77.85353304	114.3624168
3.92	392	0.611	0.249	0.222	27.1009134	12.4331886	5.6149884	-159.2078395	77.75613018	113.8983208
3.93	393	0.556	0.247	0.191	23.4339822	6.6463128	8.3651868	-159.4370227	77.7217527	113.4170361
3.94	394	0.594	0.305	0.147	20.1108258	12.2040054	12.5477802	-159.9756032	77.64726816	112.6607315
3.95	395	0.684	0.402	0.073	11.172681	13.178034	15.6990492	-160.4626175	77.57278362	112.0304777
3.96	396	0.787	0.509	-0.017	2.4637194	3.6669312	13.9801752	-161.0928713	77.58424278	111.3601169
3.97	397	0.879	0.499	-0.066	0.4010706	-8.021412	12.605076	-161.505401	77.69883438	110.936128
3.98	398	0.883	0.324	-0.076	3.8388186	-17.7044022	19.1367972	-162.0210632	77.92801758	110.3574404
3.99	399	0.841	0.255	-0.004	9.740286	-23.3766864	30.2521824	-162.9148777	78.23168532	109.3433047
4	400	0.853	0.264	0.063	14.9542038	-25.7258142	33.1169724	-163.8029626	78.56973054	108.2718733
4.01	401	0.879	0.233	0.058	16.042824	-22.1734746	34.2628884	-164.9488786	78.87339828	106.9311515
4.02	402	0.89	0.174	0.011	13.5791046	-16.3865988	36.7266078	-166.3927328	79.11977022	105.31541
4.03	403	0.885	0.157	0.04	12.4904844	-11.0007936	38.674665	-168.0886885	79.30884636	103.4647556
4.04	404	0.937	0.154	0.103	13.8655836	-5.3285094	38.101707	-169.8591287	79.42916754	101.5166984
4.05	405	0.978	0.153	0.217	16.1574156	-4.1252976	36.8984952	-171.532166	79.52084082	99.64312578
4.06	406	1.045	0.128	0.3	17.18874	2.005353	37.815228	-173.3828204	79.54948872	97.58047698
4.07	407	1.121	0.099	0.317	14.2093584	11.9175264	40.3362432	-175.4683875	79.4692746	95.3115633
4.08	408	1.193	0.088	0.266	6.016059	16.1574156	41.1383844	-177.6628166	79.33176468	93.0197313
4.09	409	1.217	0.038	0.24	2.1772404	16.4438946	42.8572584	-179.9260007	79.1827956	90.69352182
4.1	410	1.199	0.02	0.241	-0.1145916	12.2613012	44.977203	177.7373012	79.05101526	88.3214757
4.11	411	1.175	-0.048	0.217	-5.2712136	8.7662574	46.5241896	175.3194184	78.94215324	85.9150521
4.12	412	1.145	-0.025	0.169	-11.0580894	9.1100322	46.5814854	172.8958061	78.80464332	83.56019472
4.13	413	1.095	0.027	0.147	-16.5011904	9.5111028	44.3469492	170.5867853	78.64994466	81.37722474
4.14	414	1.026	0.061	0.169	-17.9908812	9.2819196	40.8519054	168.4897591	78.48951642	79.42343796
4.15	415	1.032	0.048	0.08	-16.8449652	10.1986524	39.0184398	166.5818089	78.32908818	77.65299774
4.16	416	0.983	0.036	0.074	-13.9801752	11.9175264	38.7892566	164.7655321	78.1228233	75.93985332
4.17	417	0.902	-0.028	0.128	-14.2666542	9.3965112	39.4768062	162.9435256	77.922288	74.23243848
4.18	418	0.879	-0.046	0.173	-7.8495246	4.0680018	41.1956802	161.1043304	77.76185976	72.42762078
4.19	419	0.913	-0.07	0.245	5.2139178	1.3750992	43.2010332	159.3281606	77.60143152	70.55404812
4.2	420	0.926	-0.083	0.242	10.0840608	-0.2291832	41.8832298	157.6952303	77.44673286	68.77214874
4.21	421	0.918	-0.091	0.255	8.3651868	3.3231564	39.3049188	156.2341874	77.2633863	67.19078466
4.22	422	0.915	-0.115	0.253	8.021412	11.3445684	36.0390582	155.0768123	77.01128478	65.92454748
4.23	423	0.935	-0.125	0.242	10.026765	19.6524594	31.3408026	154.3090486	76.70188746	65.030733
4.24	424	0.956	-0.13	0.225	10.599723	26.642547	26.8717302	153.8678709	76.3466535	64.46923416
4.25	425	0.989	-0.129	0.181	8.2505952	29.793816	22.7464326	153.6100398	75.98568996	64.11972978
4.26	426	1.005	-0.149	0.156	5.3858052	27.788463	22.631841	153.3292904	75.63618558	63.77595498
4.27	427	1.013	-0.131	0.172	2.0626488	24.5798982	21.1421502	153.0198931	75.32105868	63.44363934
4.28	428	1.003	-0.14	0.195	1.8334656	22.5745452	19.7097552	152.7448732	75.0288501	63.1399716
4.29	429	1.013	-0.161	0.202	0.9167328	20.912967	18.2200644	152.4870421	74.75955984	62.86495176
4.3	430	1.024	-0.172	0.193	-1.4896908	17.475219	15.6417534	152.2005631	74.5418358	62.58993192
4.31	431	1.011	-0.175	0.18	-4.1825934	13.2926256	13.5218088	151.9370024	74.35848924	62.36074872
4.32	432	0.988	-0.17	0.161	-5.3858052	11.3445684	13.0061466	151.6505234	74.198061	62.12583594
4.33	433	0.973	-0.162	0.148	-4.2398892	10.313244	9.5111028	151.4729065	74.06628066	61.98259644
4.34	434	0.948	-0.179	0.128	-3.151269	8.9381448	8.2505952	151.3239374	73.94595948	61.86800484
4.35	435	0.929	-0.136	0.112	-5.72958	9.1100322	6.4171296	151.1463204	73.87147494	61.74768366
4.36	436	0.918	-0.136	0.098	-4.9274388	8.8235532	4.870143	151.083295	73.77407208	61.7362245
4.37	437	0.912	-0.135	0.095	-4.1825934	9.3965112	3.7815228	151.0718359	73.67093964	61.77060198
4.38	438	0.913	-0.13	0.102	-3.6096354	10.7716104	2.2345362	151.1348612	73.5678072	61.87373442
4.39	439	0.928	-0.133	0.111	-3.3231564	13.178034	0	151.2952895	73.44748602	62.0799993
4.4	440	0.952	-0.139	0.132	-3.0366774	15.6990492	-2.291832	151.5130135	73.35581274	62.34928956
4.41	441	0.963	-0.131	0.149	-2.9220858	18.048177	-4.583664	151.8797066	73.21830282	62.7675489
4.42	442	0.974	-0.119	0.171	-2.7501984	20.1108258	-6.8182002	152.338073	73.06933374	63.27748152
4.43	443	0.978	-0.114	0.174	-2.9793816	20.2254174	-8.6516658	152.8422761	72.92609424	63.83898036
4.44	444	0.971	-0.106	0.199	-3.3804522	17.475219	-9.6829902	153.3235608	72.81723222	64.37756088
4.45	445	0.961	-0.097	0.247	-1.4896908	15.3552744	-10.313244	153.8277638	72.72555894	64.92760056
4.46	446	1.009	-0.072	0.286	1.5469866	15.756345	-11.0580894	154.3663444	72.63388566	65.47764024
4.47	447	1.019	-0.079	0.319	6.016059	17.0741484	-11.0580894	154.9622207	72.52502364	66.03913908
4.48	448	1.036	-0.086	0.332	7.8495246	17.0741484	-11.5737516	155.5867449	72.41616162	66.61209708
4.49	449	1.036	-0.085	0.327	8.8235532	15.469866	-11.5737516	156.1940804	72.32448834	67.15640718
4.5	450	1.026	-0.079	0.327	8.4224826	11.6883432	-11.45916	156.7784975	72.26146296	67.67779896
4.51	451	1.006	-0.074	0.324	7.6776372	8.4797784	-10.8289062	157.2655118	72.22708548	68.10751746
4.52	452	0.99	-0.071	0.319	7.1046792	6.7036086	-10.1986524	157.7066895	72.19843758	68.4971289
4.53	453	0.983	-0.07	0.301	6.1306506	5.5576926	-9.9121734	158.1134897	72.18697842	68.85809244
4.54	454	0.977	-0.063	0.286	4.870143	4.6409598	-9.740286	158.4973715	72.17551926	69.20759682
4.55	455	0.977	-0.055	0.288	3.437748	3.8388186	-9.2819196	158.9156309	72.192708	69.60866742
4.56	456	0.984	-0.05	0.282	2.6356068	2.86479	-8.4797784	159.2192986	72.192708	69.89514642
4.57	457	0.99	-0.045	0.283	2.291832	1.8907614	-7.6203414	159.4828593	72.20416716	70.15297752
4.58	458	0.99	-0.041	0.285	2.4064236	1.2605076	-6.6463128	159.7177721	72.20989674	70.37070156
4.59	459	0.991	-0.04	0.286	2.5210152	0.7448454	-5.6149884	159.9125778	72.2213559	70.54831854
4.6	460	0.99	-0.04	0.278	2.4064236	0.4010706	-4.6409598	160.2563526	72.28438128	70.86344544
4.61	461	0.986	-0.038	0.268	2.2345362	0.3437748	-3.6096354	160.3938625	72.29584044	70.98376662
4.62	462	0.978	-0.04	0.255	2.1199446	0	-2.5210152	160.4912654	72.30157002	71.05825116
4.63	463	0.975	-0.042	0.242	1.6042824	-0.7448454	-1.7761698	160.5542908	72.31302918	71.10981738
4.64	464	0.967	-0.042	0.246	2.4637194	-1.6615782	-1.2032118	160.6001274	72.3359475	71.1327357
4.65	465	0.97	-0.046	0.256	4.1825934	-1.8907614	-1.2605076	160.7777444	72.40470246	71.25878646
4.66	466	0.984	-0.052	0.262	5.443101	-1.5469866	-1.7761698	160.8751472	72.4218912	71.3046231
4.67	467	0.999	-0.054	0.263	5.9587632	-1.0313244	-2.1772404	160.9897388	72.43907994	71.3619189
4.68	468	1.004	-0.05	0.266	6.1879464	-0.572958	-2.291832	161.1215192	72.4505391	71.43067386
4.69	469	1.002	-0.045	0.265	6.3598338	-0.1145916	-2.291832	161.2532995	72.46199826	71.5051584
4.7	470	0.991	-0.043	0.259	6.589017	0.1145916	-2.0626488	161.4996715	72.5078349	71.68277538
4.71	471	0.981	-0.044	0.254	6.4744254	0.0572958	-1.718874	161.6199926	72.51356448	71.74007118
4.72	472	0.976	-0.043	0.251	6.0733548	0.1145916	-1.2605076	161.7231251	72.51356448	71.78017824
4.73	473	0.974	-0.041	0.251	5.9014674	0.0572958	-0.6875496	161.8090688	72.51929406	71.80882614
4.74	474	0.972	-0.041	0.253	5.6149884	0	-0.1145916	161.8720942	72.51929406	71.81455572
4.75	475	0.974	-0.04	0.252	5.156622	-0.0572958	0.4583664	162.0840886	72.58804902	71.9635248
4.76	476	0.972	-0.04	0.249	4.6982556	0	1.2032118	162.0955478	72.58231944	71.92341774
4.77	477	0.967	-0.042	0.245	3.8961144	0.2291832	1.8907614	162.0840886	72.57658986	71.87185152
4.78	478	0.961	-0.043	0.243	3.2085648	0.9167328	2.578311	162.0439816	72.55940112	71.79736698
4.79	479	0.957	-0.048	0.238	2.291832	2.1772404	2.6929026	162.0096041	72.53075322	71.7343416
4.8	480	0.956	-0.044	0.232	1.4896908	2.9793816	3.151269	162.0497111	72.55367154	71.75153034
4.81	481	0.956	-0.045	0.235	1.145916	3.2085648	3.5523396	161.9809562	72.51356448	71.66558664
4.82	482	0.963	-0.05	0.239	1.0313244	3.7815228	3.8961144	161.9064716	72.46199826	71.57964294
4.83	483	0.972	-0.053	0.244	0.9167328	4.297185	4.0680018	161.8319871	72.41043204	71.49369924
4.84	484	0.976	-0.052	0.254	1.0886202	4.6409598	4.1252976	161.7632321	72.35313624	71.40775554
4.85	485	0.981	-0.053	0.262	1.3750992	4.6982556	4.1825934	161.7689617	72.3359475	71.3905668
4.86	486	0.983	-0.059	0.257	1.3178034	4.583664	3.9534102	161.7059363	72.2786517	71.31035268
4.87	487	0.98	-0.058	0.26	0.7448454	4.297185	3.5523396	161.642911	72.22708548	71.23586814
4.88	488	0.98	-0.061	0.259	0.1718874	4.010706	3.2658606	161.5856152	72.17551926	71.17284276
4.89	489	0.98	-0.061	0.263	-0.0572958	3.6096354	3.0366774	161.5283194	72.1354122	71.11554696
4.9	490	0.985	-0.059	0.272	-0.0572958	3.2085648	2.6356068	161.5970743	72.14687136	71.17857234
4.91	491	0.991	-0.061	0.277	-0.1145916	2.86479	2.291832	161.5569673	72.11249388	71.1327357
4.92	492	0.992	-0.064	0.275	-0.286479	2.578311	1.9480572	161.5168602	72.08384598	71.09835822
4.93	493	0.986	-0.061	0.272	-0.286479	2.291832	1.4896908	161.4882123	72.05519808	71.0754399
4.94	494	0.977	-0.061	0.269	-0.1718874	2.005353	0.9740286	161.4767531	72.03800934	71.06398074
4.95	495	0.972	-0.062	0.27	-0.1145916	1.6615782	0.5156622	161.7632321	72.15833052	71.333271
4.96	496	0.974	-0.063	0.272	-0.0572958	1.3178034	0.1718874	161.7632321	72.14687136	71.33900058
4.97	497	0.979	-0.063	0.278	0	0.6875496	-0.2291832	161.7804209	72.14114178	71.35045974
4.98	498	0.986	-0.061	0.287	0.3437748	0.1145916	-0.572958	161.8033392	72.14114178	71.37337806
4.99	499	0.989	-0.06	0.285	0.4583664	-0.2291832	-0.9167328	161.8319871	72.14687136	71.40202596
5	500	0.988	-0.06	0.277	0.286479	-0.6302538	-1.145916	162.147114	72.2786517	71.69996412
5.01	501	0.98	-0.057	0.272	0.1145916	-1.145916	-1.3750992	162.1814915	72.29584044	71.72861202
5.02	502	0.973	-0.054	0.266	0.1145916	-1.6042824	-1.432395	162.215869	72.31302918	71.7629895
5.03	503	0.971	-0.051	0.263	0.4010706	-2.1772404	-1.5469866	162.2445169	72.34167708	71.7916374
5.04	504	0.972	-0.049	0.265	0.859437	-2.3491278	-1.4896908	162.2788943	72.3645954	71.81455572
5.05	505	0.975	-0.048	0.264	1.2605076	-2.4637194	-1.432395	162.4737001	72.46199826	71.98644312
5.06	506	0.973	-0.047	0.259	1.3750992	-2.4064236	-1.432395	162.5080775	72.48491658	72.00936144
5.07	507	0.972	-0.046	0.26	1.5469866	-2.3491278	-1.3178034	162.5481846	72.51356448	72.03227976
5.08	508	0.974	-0.047	0.255	1.718874	-2.3491278	-1.0886202	162.5768325	72.5364828	72.0494685
5.09	509	0.975	-0.045	0.256	1.8334656	-2.2345362	-0.8021412	162.6054804	72.5651307	72.05519808
5.1	510	0.976	-0.045	0.26	2.2345362	-1.8907614	-0.572958	162.8174749	72.66253356	72.23281506
5.11	511	0.976	-0.046	0.257	2.3491278	-1.4896908	-0.286479	162.8403932	72.67399272	72.23281506
5.12	512	0.974	-0.046	0.255	2.2345362	-1.0313244	-0.1718874	162.8575819	72.68545188	72.22708548
5.13	513	0.97	-0.046	0.252	2.2345362	-0.8021412	0	162.8747707	72.69691104	72.2213559
5.14	514	0.968	-0.046	0.246	1.9480572	-0.7448454	0.0572958	162.8919594	72.70264062	72.21562632
5.15	515	0.964	-0.046	0.245	1.6615782	-0.6875496	0.286479	163.1898976	72.85733928	72.479187
5.16	516	0.964	-0.046	0.247	1.4896908	-0.3437748	0.5156622	163.184168	72.85733928	72.46199826
5.17	517	0.969	-0.046	0.25	1.3178034	0	0.6875496	163.1784384	72.85733928	72.43907994
5.18	518	0.973	-0.047	0.253	1.432395	0.3437748	0.859437	163.1669792	72.8516097	72.41043204
5.19	519	0.973	-0.048	0.253	1.3750992	1.0886202	1.0886202	163.1555201	72.83442096	72.38751372
5.2	520	0.969	-0.048	0.248	1.2032118	1.432395	1.0886202	163.3102187	72.91463508	72.51356448
5.21	521	0.964	-0.047	0.243	1.0313244	1.718874	1.145916	163.2987596	72.89744634	72.49064616
5.22	522	0.962	-0.049	0.245	0.9740286	1.9480572	1.145916	163.2873004	72.87452802	72.47345742
5.23	523	0.965	-0.05	0.251	0.9740286	2.291832	1.2032118	163.2815708	72.84588012	72.45626868
5.24	524	0.972	-0.049	0.258	1.2032118	2.578311	1.0313244	163.2815708	72.81723222	72.44480952
5.25	525	0.98	-0.052	0.262	1.0313244	2.9220858	1.145916	163.401892	72.84588012	72.54794196
5.26	526	0.982	-0.054	0.263	0.6875496	3.151269	1.0886202	163.401892	72.81150264	72.54221238
5.27	527	0.982	-0.053	0.267	0.1145916	3.151269	0.9167328	163.401892	72.78285474	72.5364828
5.28	528	0.978	-0.051	0.267	-0.1145916	3.0939732	0.859437	163.401892	72.74847726	72.5364828
5.29	529	0.978	-0.051	0.268	-0.286479	2.9220858	0.8021412	163.3961624	72.71982936	72.5364828
5.3	530	0.977	-0.05	0.263	-0.4010706	2.8074942	0.8021412	163.5623203	72.765666	72.69691104
5.31	531	0.974	-0.048	0.261	-0.286479	2.6929026	0.6875496	163.5565907	72.7370181	72.69691104
5.32	532	0.971	-0.05	0.261	-0.1718874	2.6356068	0.6302538	163.5565907	72.7083702	72.69691104
5.33	533	0.973	-0.051	0.266	-0.0572958	2.5210152	0.5156622	163.5565907	72.6797223	72.70264062
5.34	534	0.979	-0.05	0.27	0	2.578311	0.572958	163.5565907	72.65680398	72.70264062
5.35	535	0.98	-0.05	0.272	0.286479	2.6356068	0.572958	163.757126	72.69691104	72.89171676
5.36	536	0.982	-0.05	0.272	0.4583664	2.5210152	0.5156622	163.7685851	72.67399272	72.89171676
5.37	537	0.976	-0.047	0.268	0.4010706	2.2345362	0.5156622	163.7743147	72.6510744	72.89171676
5.38	538	0.97	-0.047	0.264	0.3437748	2.0626488	0.6302538	163.7743147	72.62815608	72.89171676
5.39	539	0.967	-0.047	0.263	0.4583664	1.7761698	0.6302538	163.7685851	72.61096734	72.88598718
5.4	540	0.968	-0.049	0.265	0.7448454	1.6042824	0.6875496	163.97485	72.67399272	73.06933374
5.41	541	0.975	-0.049	0.268	0.9167328	1.6042824	0.7448454	163.97485	72.65680398	73.05787458
5.42	542	0.98	-0.048	0.273	0.9740286	1.6042824	0.6875496	163.97485	72.63961524	73.052145
5.43	543	0.982	-0.049	0.274	0.9740286	1.6042824	0.7448454	163.97485	72.6224265	73.04068584
5.44	544	0.98	-0.049	0.269	0.7448454	1.432395	0.8021412	163.9691204	72.60523776	73.02922668
5.45	545	0.974	-0.048	0.268	0.6875496	1.2032118	0.859437	164.2326811	72.69691104	73.26413946
5.46	546	0.97	-0.049	0.27	0.572958	1.0886202	0.9167328	164.221222	72.68545188	73.24695072
5.47	547	0.972	-0.048	0.269	0.5156622	1.0313244	0.9740286	164.2040332	72.67399272	73.2240324
5.48	548	0.972	-0.048	0.267	0.8021412	0.8021412	1.0313244	164.1811149	72.66253356	73.1953845
5.49	549	0.973	-0.049	0.273	1.145916	0.7448454	0.9167328	164.1696557	72.6510744	73.17246618
5.5	550	0.975	-0.051	0.272	1.3750992	0.8021412	0.9167328	164.3472727	72.71409978	73.32143526
5.51	551	0.975	-0.049	0.267	1.2605076	0.6302538	0.859437	164.3415431	72.7083702	73.29851694
5.52	552	0.974	-0.048	0.266	1.3178034	0.8021412	0.859437	164.330084	72.69691104	73.27559862
5.53	553	0.972	-0.049	0.264	1.3750992	0.572958	0.9740286	164.3186248	72.68545188	73.2526803
5.54	554	0.969	-0.05	0.266	1.432395	0.4010706	0.9167328	164.3128952	72.6797223	73.2240324
5.55	555	0.968	-0.051	0.266	1.5469866	0.3437748	0.9167328	164.507701	72.765666	73.3959198
5.56	556	0.972	-0.051	0.271	1.432395	0.286479	0.7448454	164.5019714	72.75993642	73.37300148
5.57	557	0.978	-0.052	0.274	1.2605076	0.3437748	0.6875496	164.4962418	72.75420684	73.35008316
5.58	558	0.98	-0.051	0.273	0.859437	0.4010706	0.7448454	164.4847826	72.74847726	73.33289442
5.59	559	0.976	-0.048	0.271	0.286479	0.286479	0.6302538	164.4675939	72.74274768	73.3099761
5.6	560	0.973	-0.048	0.269	-0.1145916	0	0.7448454	164.9889857	72.9375534	73.80271998
5.61	561	0.971	-0.048	0.268	-0.2291832	-0.0572958	0.8021412	164.9603378	72.93182382	73.77407208
5.62	562	0.972	-0.048	0.267	0	0.2291832	0.9167328	164.9316899	72.93182382	73.74542418
5.63	563	0.972	-0.049	0.265	0.4583664	0.572958	0.8021412	164.9202307	72.92036466	73.72823544
5.64	564	0.973	-0.05	0.266	0.6875496	0.9167328	0.7448454	164.9087716	72.9089055	73.70531712
5.65	565	0.974	-0.053	0.266	0.5156622	1.3178034	0.7448454	165.0863885	72.98911962	73.87147494
5.66	566	0.971	-0.051	0.266	0.3437748	1.3750992	0.6302538	165.080659	72.97193088	73.86001578
5.67	567	0.968	-0.05	0.266	0.1145916	1.0886202	0.572958	165.0691998	72.96047172	73.84855662
5.68	568	0.967	-0.051	0.267	-0.1145916	0.9740286	0.572958	165.0577406	72.94901256	73.83709746
5.69	569	0.969	-0.051	0.267	-0.2291832	0.9167328	0.5156622	165.0462815	72.9375534	73.8256383
5.7	570	0.972	-0.048	0.268	-0.1145916	0.8021412	0.4583664	165.4301633	73.07506332	74.19233142
5.71	571	0.974	-0.048	0.272	0.1145916	0.9740286	0.3437748	165.4301633	73.06360416	74.18660184
5.72	572	0.975	-0.048	0.273	0.4010706	1.0313244	0.3437748	165.4244338	73.05787458	74.18087226
5.73	573	0.972	-0.046	0.27	0.572958	1.2032118	0.3437748	165.4301633	73.04068584	74.18087226
5.74	574	0.971	-0.046	0.267	0.7448454	1.432395	0.5156622	165.4301633	73.02922668	74.17514268
5.75	575	0.967	-0.047	0.266	0.859437	1.432395	0.6302538	165.6077803	73.0807929	74.32984134
5.76	576	0.968	-0.046	0.267	0.859437	1.4896908	0.6875496	165.6020507	73.06360416	74.31838218
5.77	577	0.969	-0.047	0.268	0.9167328	1.5469866	0.859437	165.5963212	73.04641542	74.30119344
5.78	578	0.971	-0.049	0.269	0.859437	1.6042824	0.9167328	165.5905916	73.02922668	74.2840047
5.79	579	0.973	-0.048	0.271	0.9167328	1.7761698	0.9740286	165.5791324	73.01203794	74.26108638
5.8	580	0.974	-0.047	0.271	1.2032118	1.8334656	1.0886202	165.693724	73.03495626	74.35848924
5.81	581	0.971	-0.048	0.27	1.145916	1.8907614	1.145916	165.6822649	73.01203794	74.32984134
5.82	582	0.97	-0.049	0.268	0.9167328	2.0626488	1.0886202	165.6708057	72.98911962	74.3126526
5.83	583	0.967	-0.049	0.266	0.6875496	2.291832	1.145916	165.653617	72.9662013	74.28973428
5.84	584	0.968	-0.048	0.268	0.9167328	2.4637194	1.0886202	165.6478874	72.9375534	74.27254554
5.85	585	0.969	-0.048	0.273	1.432395	2.7501984	1.0313244	165.7452902	72.94328298	74.35275966
5.86	586	0.969	-0.048	0.277	1.9480572	2.6929026	0.9740286	165.7567494	72.91463508	74.33557092
5.87	587	0.973	-0.05	0.277	2.005353	2.5210152	0.9167328	165.762479	72.88598718	74.32411176
5.88	588	0.973	-0.051	0.274	1.8907614	2.6356068	1.0886202	165.7682086	72.85733928	74.30692302
5.89	589	0.969	-0.049	0.273	1.6042824	2.7501984	1.0313244	165.7682086	72.82869138	74.29546386
5.9	590	0.967	-0.05	0.272	1.6042824	2.6929026	1.0313244	165.8656114	72.83442096	74.36421882
5.91	591	0.969	-0.051	0.275	1.6615782	2.4637194	0.9740286	165.8656114	72.81150264	74.35275966
5.92	592	0.971	-0.051	0.277	1.6615782	2.1199446	0.9167328	165.871341	72.78858432	74.33557092
5.93	593	0.969	-0.05	0.282	1.6042824	1.8334656	0.8021412	165.871341	72.765666	74.32411176
5.94	594	0.968	-0.051	0.282	1.3750992	1.5469866	0.6875496	165.8770706	72.74847726	74.3126526
5.95	595	0.968	-0.051	0.277	1.145916	1.3750992	0.572958	166.0317692	72.7943139	74.45016252
5.96	596	0.967	-0.051	0.276	1.145916	1.145916	0.4583664	166.0374988	72.78285474	74.44443294
5.97	597	0.968	-0.05	0.276	1.0313244	1.2032118	0.4010706	166.048958	72.765666	74.43870336
5.98	598	0.972	-0.051	0.278	1.0313244	1.2605076	0.3437748	166.0546876	72.75420684	74.43870336
5.99	599	0.974	-0.051	0.282	1.0313244	1.3178034	0.286479	166.0661467	72.74274768	74.43870336
6	600	0.972	-0.05	0.28	0.9740286	1.3178034	0.286479	166.266682	72.7943139	74.62204992
6.01	601	0.97	-0.05	0.279	0.859437	1.145916	0.1718874	166.2781412	72.78285474	74.62204992
6.02	602	0.969	-0.048	0.277	0.6875496	0.9740286	0.1145916	166.2838708	72.77139558	74.62204992
6.03	603	0.968	-0.047	0.275	0.6875496	0.859437	0.1145916	166.2953299	72.75993642	74.6277795
6.04	604	0.969	-0.048	0.277	0.572958	0.6875496	0.1145916	166.3010595	72.75420684	74.62204992
6.05	605	0.971	-0.047	0.28	0.572958	0.572958	0.1145916	166.6792118	72.85733928	74.97728388
6.06	606	0.976	-0.047	0.285	0.7448454	0.6302538	0.1145916	166.6849414	72.8516097	74.97728388
6.07	607	0.975	-0.048	0.285	0.859437	0.7448454	0.1718874	166.6964005	72.84588012	74.97728388
6.08	608	0.973	-0.048	0.284	0.7448454	0.7448454	0.2291832	166.7021301	72.83442096	74.97728388
6.09	609	0.971	-0.047	0.279	0.6302538	0.7448454	0.286479	166.7021301	72.82869138	74.9715543
6.1	610	0.967	-0.046	0.274	0.5156622	0.5156622	0.3437748	167.0459049	72.96047172	75.29241078
6.11	611	0.963	-0.046	0.273	0.6302538	0.286479	0.3437748	167.0459049	72.95474214	75.28095162
6.12	612	0.965	-0.046	0.275	0.7448454	0.1145916	0.3437748	167.0401753	72.95474214	75.26949246
6.13	613	0.969	-0.048	0.277	0.859437	0.1145916	0.4010706	167.0401753	72.94901256	75.2580333
6.14	614	0.972	-0.047	0.282	0.9167328	0.1718874	0.4010706	167.0344457	72.94901256	75.24657414
6.15	615	0.974	-0.046	0.284	0.9740286	0.2291832	0.4010706	167.303736	73.01776752	75.49294608
6.16	616	0.976	-0.048	0.285	0.9167328	0.286479	0.4583664	167.303736	73.01203794	75.47575734
6.17	617	0.974	-0.047	0.284	0.7448454	0.3437748	0.5156622	167.2922768	73.00630836	75.4585686
6.18	618	0.972	-0.047	0.282	0.572958	0.4010706	0.5156622	167.2865473	73.00057878	75.44710944
6.19	619	0.969	-0.045	0.278	0.4583664	0.4010706	0.572958	167.2750881	72.9948492	75.4299207
6.2	620	0.967	-0.045	0.277	0.572958	0.286479	0.6302538	167.5100009	73.0807929	75.64191516
6.21	621	0.968	-0.047	0.279	0.572958	0.1718874	0.572958	167.4985417	73.07506332	75.62472642
6.22	622	0.971	-0.048	0.28	0.6875496	0.1718874	0.6875496	167.4870826	73.06933374	75.6018081
6.23	623	0.971	-0.047	0.283	0.8021412	0.1718874	0.572958	167.4756234	73.06933374	75.58461936
6.24	624	0.971	-0.047	0.282	0.8021412	0.1718874	0.6875496	167.4641642	73.06360416	75.56170104
6.25	625	0.971	-0.048	0.282	0.7448454	0.1718874	0.572958	167.65897	73.1380887	75.73931802
6.26	626	0.97	-0.047	0.278	0.859437	0.4010706	0.6302538	167.6475108	73.13235912	75.72212928
6.27	627	0.966	-0.046	0.278	0.7448454	0.4583664	0.6302538	167.6417812	73.12089996	75.70494054
6.28	628	0.967	-0.046	0.276	0.7448454	0.4583664	0.572958	167.6303221	73.11517038	75.6877518
6.29	629	0.97	-0.047	0.276	0.4583664	0.572958	0.572958	167.6245925	73.1094408	75.67056306
6.3	630	0.971	-0.046	0.279	0.1145916	0.5156622	0.6875496	167.8996123	73.18392534	75.93412374
6.31	631	0.972	-0.045	0.283	0.1145916	0.3437748	0.8021412	167.876694	73.17819576	75.90547584
6.32	632	0.971	-0.046	0.28	0.1145916	0.1718874	0.859437	167.8480461	73.17246618	75.87682794
6.33	633	0.968	-0.046	0.275	0.2291832	0.1145916	0.7448454	167.8308574	73.17246618	75.85390962
6.34	634	0.964	-0.047	0.272	0.4583664	0.1718874	0.6875496	167.8136686	73.1667366	75.8309913
6.35	635	0.965	-0.048	0.275	0.6875496	0.3437748	0.6875496	167.9511785	73.22976198	75.95131248
6.36	636	0.968	-0.05	0.278	0	0.2291832	0.0572958	167.9511785	73.22976198	75.95131248
6.37	637	0.971	-0.049	0.282	-0.0572958	0.4583664	-0.0572958	167.9569081	73.2240324	75.95704206
6.38	638	0.974	-0.048	0.288	0	0.3437748	-0.0572958	167.9569081	73.21830282	75.96277164
6.39	639	0.974	-0.048	0.287	-0.2291832	0.1145916	-0.1718874	167.9626377	73.21830282	75.9742308
6.4	640	0.971	-0.048	0.284	-0.286479	0.1718874	-0.1718874	168.4324633	73.34435358	76.42113804
6.41	641	0.969	-0.047	0.281	-0.4010706	0.0572958	-0.286479	168.4381928	73.34435358	76.4325972
6.42	642	0.968	-0.046	0.279	-0.3437748	0.1145916	-0.3437748	168.449652	73.34435358	76.44405636
6.43	643	0.968	-0.044	0.277	-0.286479	0	-0.4010706	168.4611112	73.34435358	76.4612451
6.44	644	0.968	-0.044	0.277	-0.1145916	0	-0.4010706	168.4725703	73.35008316	76.47270426
6.45	645	0.97	-0.044	0.279	0.0572958	0.0572958	-0.3437748	169.0283396	73.48759308	77.0055552
6.46	646	0.972	-0.043	0.283	0.1145916	-0.0572958	-0.2291832	169.0397987	73.49332266	77.01128478
6.47	647	0.974	-0.044	0.283	0.286479	0	-0.0572958	169.0455283	73.49332266	77.01701436
6.48	648	0.973	-0.044	0.284	0.3437748	0	0	169.0512579	73.49332266	77.01701436
6.49	649	0.973	-0.044	0.285	0.3437748	0.1145916	0	169.0512579	73.48759308	77.01701436
6.5	650	0.968	-0.046	0.28	0.1145916	-0.0572958	0.2291832	169.2689819	73.5678072	77.21754966
6.51	651	0.963	-0.05	0.283	-1.0313244	-0.6302538	0.6875496	169.2288749	73.57353678	77.18890176
6.52	652	0.968	-0.049	0.273	-2.4064236	-1.2605076	1.2032118	169.1543903	73.58499594	77.14306512
6.53	653	0.975	-0.038	0.28	-1.6615782	-1.4896908	1.0886202	169.091365	73.5964551	77.0914989
6.54	654	0.979	-0.044	0.288	0	-1.3750992	0.9740286	169.0512579	73.60791426	77.05139184
6.55	655	0.978	-0.048	0.289	0	-0.9167328	0.9167328	169.1372016	73.63083258	77.13160596
6.56	656	0.974	-0.045	0.283	-0.3437748	-0.5156622	0.9740286	169.0970945	73.63656216	77.0914989
6.57	657	0.966	-0.044	0.277	-0.2291832	-0.6875496	0.9167328	169.0569875	73.64229174	77.05139184
6.58	658	0.965	-0.045	0.277	0	-0.9740286	1.0313244	169.02261	73.64802132	77.01128478
6.59	659	0.965	-0.047	0.274	0	-0.9740286	1.0313244	168.9767734	73.6537509	76.97117772
6.6	660	0.966	-0.048	0.274	-0.0572958	-0.7448454	0.9740286	169.0569875	73.7110467	77.04566226
6.61	661	0.966	-0.047	0.273	-0.2291832	-0.572958	0.9167328	169.02261	73.71677628	77.0055552
6.62	662	0.965	-0.046	0.271	-0.1145916	-0.6875496	0.859437	168.9882325	73.72250586	76.97117772
6.63	663	0.966	-0.047	0.275	0	-0.3437748	0.859437	168.953855	73.72250586	76.93680024
6.64	664	0.966	-0.048	0.278	0.1145916	-0.1145916	0.859437	168.9252071	73.72250586	76.90815234
6.65	665	0.968	-0.049	0.278	0.0572958	-0.0572958	0.859437	169.0512579	73.7683425	77.02274394
6.66	666	0.97	-0.05	0.279	-0.0572958	0.1145916	0.7448454	169.0283396	73.76261292	76.99982562
6.67	667	0.972	-0.05	0.277	-0.0572958	0.2291832	0.6302538	169.0054213	73.76261292	76.9769073
6.68	668	0.971	-0.051	0.279	-0.1145916	0.1718874	0.4583664	168.9882325	73.75688334	76.95971856
6.69	669	0.973	-0.051	0.281	-0.286479	0.286479	0.4010706	168.9710438	73.75688334	76.9482594
6.7	670	0.974	-0.05	0.28	-0.1718874	0.286479	0.286479	169.1944974	73.81417914	77.16025386
6.71	671	0.972	-0.049	0.279	-0.286479	0.4583664	0.1718874	169.1830382	73.80844956	77.15452428
6.72	672	0.971	-0.048	0.278	-0.286479	0.3437748	0.1718874	169.1773087	73.80271998	77.1487947
6.73	673	0.969	-0.049	0.277	-0.2291832	0.286479	0.0572958	169.1715791	73.80271998	77.1487947
6.74	674	0.967	-0.049	0.274	-0.286479	0.2291832	0	169.1715791	73.7969904	77.1487947
6.75	675	0.966	-0.048	0.275	-0.1145916	0.1145916	0	169.9679907	74.04909192	77.91655842
6.76	676	0.966	-0.048	0.279	0	0.0572958	-0.0572958	169.9737203	74.04909192	77.91655842
6.77	677	0.971	-0.048	0.281	0.0572958	0	-0.1145916	169.9794499	74.04909192	77.922288
6.78	678	0.972	-0.048	0.282	0.1145916	0	-0.1145916	169.9851794	74.04909192	77.92801758
6.79	679	0.972	-0.048	0.284	0.1718874	-0.1145916	-0.1145916	169.990909	74.0548215	77.93374716
6.8	680	0.972	-0.047	0.284	0.3437748	-0.1145916	-0.1145916	170.1742556	74.07201024	78.10563456
6.81	681	0.971	-0.046	0.283	0.4583664	-0.1145916	-0.1145916	170.1857147	74.07201024	78.11136414
6.82	682	0.971	-0.046	0.283	0.7448454	-0.0572958	-0.1718874	170.1971739	74.07201024	78.11709372
6.83	683	0.97	-0.048	0.28	0.7448454	-0.0572958	-0.1718874	170.2143626	74.07201024	78.1228233
6.84	684	0.968	-0.046	0.28	0.6302538	-0.286479	-0.1718874	170.2258218	74.07773982	78.12855288
6.85	685	0.968	-0.046	0.279	0.572958	-0.286479	-0.1718874	170.3232247	74.10065814	78.22022616
6.86	686	0.969	-0.046	0.279	0.7448454	-0.5156622	-0.0572958	170.3346838	74.10638772	78.22022616
6.87	687	0.969	-0.047	0.278	0.9167328	-0.4583664	-0.1145916	170.346143	74.1121173	78.22022616
6.88	688	0.969	-0.047	0.278	0.8021412	-0.3437748	-0.1145916	170.3576021	74.1121173	78.22595574
6.89	689	0.969	-0.046	0.277	0.8021412	-0.286479	-0.0572958	170.3633317	74.11784688	78.22595574
6.9	690	0.97	-0.046	0.278	0.6302538	-0.2291832	0	170.4836529	74.1407652	78.33481776
6.91	691	0.97	-0.046	0.278	0.5156622	-0.2291832	0	170.4893825	74.14649478	78.33481776
6.92	692	0.971	-0.046	0.279	0.4583664	-0.2291832	0	170.4951121	74.14649478	78.33481776
6.93	693	0.971	-0.046	0.28	0.5156622	-0.1718874	0.0572958	170.5008416	74.15222436	78.32908818
6.94	694	0.971	-0.046	0.282	0.572958	-0.1718874	0.0572958	170.5008416	74.15222436	78.3233586
6.95	695	0.971	-0.047	0.282	0.4583664	-0.2291832	0	170.5982445	74.1694131	78.42076146
6.96	696	0.971	-0.047	0.282	0.4010706	-0.3437748	0	170.6039741	74.1694131	78.41503188
6.97	697	0.968	-0.047	0.279	0.4010706	-0.4583664	0	170.6039741	74.17514268	78.41503188
6.98	698	0.967	-0.046	0.277	0.4583664	-0.6875496	0	170.6039741	74.18087226	78.4093023
6.99	699	0.967	-0.045	0.279	0.4010706	-0.572958	0.0572958	170.6039741	74.18660184	78.40357272
7	700	0.967	-0.047	0.277	0.4010706	-0.4010706	0.0572958	170.6784586	74.20952016	78.47232768
7.01	701	0.966	-0.047	0.278	-0.1145916	-0.286479	0	170.6784586	74.21524974	78.4665981
7.02	702	0.969	-0.047	0.281	-0.1718874	-0.1718874	0	170.672729	74.21524974	78.47232768
7.03	703	0.974	-0.047	0.286	-0.286479	0.1145916	0	170.672729	74.21524974	78.47232768
7.04	704	0.976	-0.045	0.284	-0.4010706	0.3437748	0	170.672729	74.20952016	78.47232768
7.05	705	0.979	-0.047	0.285	-0.7448454	0.2291832	0.2291832	170.7071065	74.20952016	78.51243474
7.06	706	0.979	-0.046	0.285	-1.432395	0	0.5156622	170.672729	74.20952016	78.495246
7.07	707	0.976	-0.045	0.281	-1.9480572	0	0.572958	170.632622	74.20952016	78.47232768
7.08	708	0.969	-0.044	0.276	-1.6042824	0.1718874	0.5156622	170.5925149	74.20952016	78.44940936
7.09	709	0.965	-0.046	0.273	-1.0313244	0.4010706	0.4583664	170.5695966	74.20379058	78.4379502
7.1	710	0.967	-0.047	0.274	-0.859437	0.572958	0.4010706	170.5753262	74.20952016	78.44940936
7.11	711	0.967	-0.046	0.278	-0.7448454	0.4010706	0.3437748	170.5581374	74.20379058	78.44367978
7.12	712	0.969	-0.046	0.285	-0.7448454	0.0572958	0.2291832	170.5409487	74.20379058	78.43222062
7.13	713	0.971	-0.047	0.286	-0.6302538	-0.1718874	0.0572958	170.5294895	74.20379058	78.42649104
7.14	714	0.973	-0.048	0.282	-0.859437	-0.4583664	0.0572958	170.5180304	74.20952016	78.42076146
7.15	715	0.973	-0.046	0.283	-0.9167328	-0.5156622	0	170.5695966	74.22097932	78.47805726
7.16	716	0.973	-0.045	0.284	-0.6875496	-0.5156622	0	170.5581374	74.2267089	78.47805726
