TimeStamp(s)	FrameCounter	AccX	AccY	AccZ	GyrX	GyrY	GyrZ	EulerX	EulerY	EulerZ
0.01	1	0.101	-1.04	-0.001	3.3231564	-6.4171296	-1.0313244	85.03269678	0.67609044	13.29835518
0.02	2	0.093	-1.043	0.002	2.1772404	-5.5003968	-0.9167328	85.0556151	0.68182002	13.24105938
0.03	3	0.089	-1.041	0.003	1.2032118	-5.72958	-0.8021412	85.06707426	0.6875496	13.18376358
0.04	4	0.083	-1.038	0.009	0.3437748	-6.4744254	-0.8021412	85.07280384	0.6875496	13.1207382
0.05	5	0.075	-1.034	0.015	-0.1718874	-7.161975	-0.7448454	85.09572216	0.7161975	13.04052408
0.06	6	0.07	-1.028	0.013	-0.5156622	-7.5057498	-0.8021412	85.08999258	0.72192708	12.96603954
0.07	7	0.065	-1.022	0.018	-0.6302538	-7.6203414	-0.9740286	85.084263	0.72765666	12.88582542
0.08	8	0.06	-1.016	0.024	-1.0313244	-7.5630456	-1.432395	85.07280384	0.73338624	12.81134088
0.09	9	0.055	-1.011	0.019	-1.6615782	-6.4171296	-2.0626488	85.0556151	0.75057498	12.7483155
0.1	10	0.057	-1.006	0.018	-1.7761698	-4.6982556	-2.578311	85.06707426	0.79068204	12.6910197
0.11	11	0.059	-1.005	0.016	-1.718874	-3.8961144	-2.9220858	85.04988552	0.81932994	12.64518306
0.12	12	0.057	-1	0.013	-1.8907614	-2.9793816	-2.9793816	85.03269678	0.84797784	12.61653516
0.13	13	0.062	-0.993	0.012	-1.8334656	-2.0626488	-2.9793816	85.01550804	0.87662574	12.59361684
0.14	14	0.064	-0.987	0.014	-1.718874	-1.3750992	-2.9793816	84.99258972	0.90527364	12.5764281
0.15	15	0.068	-0.982	0.015	-1.4896908	-0.9740286	-2.86479	85.03269678	0.96829902	12.5477802
0.16	16	0.071	-0.983	0.013	-1.2605076	-0.5156622	-2.578311	85.01550804	0.99694692	12.54205062
0.17	17	0.071	-0.987	0.007	-1.0313244	-0.5156622	-2.4064236	85.00404888	1.01986524	12.53059146
0.18	18	0.071	-0.994	0.005	-0.5156622	-0.2291832	-2.291832	84.9983193	1.04278356	12.53059146
0.19	19	0.072	-0.998	0.003	-0.4010706	0.6875496	-2.291832	84.9983193	1.06570188	12.53632104
0.2	20	0.075	-0.996	0.001	-0.1145916	1.2605076	-2.2345362	85.0556151	1.14018642	12.52486188
0.21	21	0.082	-0.993	0.007	0.6875496	1.4896908	-2.1199446	85.06134468	1.16310474	12.54205062
0.22	22	0.09	-0.994	0.014	1.0313244	1.3750992	-1.9480572	85.07280384	1.18029348	12.55350978
0.23	23	0.096	-0.994	0.011	0.7448454	1.5469866	-1.8334656	85.07853342	1.2032118	12.56496894
0.24	24	0.1	-0.994	0.007	0.4010706	1.8907614	-1.6615782	85.084263	1.22040054	12.58215768
0.25	25	0.105	-0.999	0.007	0.5156622	1.8334656	-1.432395	85.15301796	1.30634424	12.58215768
0.26	26	0.107	-1.006	0.003	0.286479	2.3491278	-1.3178034	85.15874754	1.32353298	12.605076
0.27	27	0.106	-1.011	0.003	0.1145916	2.578311	-1.2605076	85.15874754	1.33499214	12.62799432
0.28	28	0.1	-1.01	0.003	-0.286479	2.578311	-1.2605076	85.15301796	1.35218088	12.65664222
0.29	29	0.1	-1.012	0.011	-0.3437748	2.86479	-1.3750992	85.15301796	1.36364004	12.68529012
0.3	30	0.103	-1.012	0.019	-1.145916	3.151269	-1.4896908	85.18739544	1.42666542	12.70247886
0.31	31	0.102	-1.011	0.014	-2.005353	3.724227	-1.6615782	85.16447712	1.44385416	12.73685634
0.32	32	0.105	-1.014	0.001	-2.4637194	4.6409598	-1.6615782	85.1415588	1.46677248	12.78269298
0.33	33	0.11	-1.013	-0.002	-2.291832	5.0420304	-1.6615782	85.11864048	1.48396122	12.82852962
0.34	34	0.108	-1.015	0	-1.6615782	4.6409598	-1.718874	85.10145174	1.50687954	12.87436626
0.35	35	0.106	-1.015	0	-1.718874	4.6982556	-1.7761698	85.1129109	1.55844576	12.90874374
0.36	36	0.105	-1.01	-0.005	-2.0626488	4.6982556	-1.9480572	85.08999258	1.58136408	12.95458038
0.37	37	0.105	-1.008	-0.009	-1.9480572	4.4690724	-2.1199446	85.07280384	1.6042824	13.00041702
0.38	38	0.105	-1.007	-0.011	-1.718874	3.8961144	-2.2345362	85.0556151	1.62720072	13.0347945
0.39	39	0.106	-1.007	-0.006	-1.145916	3.3231564	-2.2345362	85.04415594	1.65011904	13.0634424
0.4	40	0.109	-1.005	-0.002	-0.8021412	2.6929026	-2.0626488	85.07853342	1.72460358	13.08063114
0.41	41	0.111	-1.003	0	-1.145916	2.4637194	-1.9480572	85.06707426	1.7475219	13.10354946
0.42	42	0.11	-1	-0.001	-1.3178034	2.3491278	-1.7761698	85.0556151	1.76471064	13.12646778
0.43	43	0.109	-0.999	-0.002	-1.2032118	2.1199446	-1.718874	85.03842636	1.78762896	13.14365652
0.44	44	0.103	-1	-0.005	-1.2032118	2.2345362	-1.7761698	85.0269672	1.8048177	13.16657484
0.45	45	0.101	-1.002	-0.006	-1.3178034	2.5210152	-1.6042824	85.0556151	1.86784308	13.178034
0.46	46	0.099	-1.006	-0.007	-1.145916	2.1199446	-1.6042824	85.04415594	1.88503182	13.19522274
0.47	47	0.098	-1.009	-0.006	-1.2605076	1.432395	-1.432395	85.03269678	1.90222056	13.21241148
0.48	48	0.098	-1.009	-0.002	-1.6042824	0.9167328	-1.145916	85.01550804	1.91367972	13.21814106
0.49	49	0.1	-1.005	0	-2.0626488	0.4583664	-0.7448454	84.99258972	1.9194093	13.22387064
0.5	50	0.101	-1	-0.005	-2.1772404	0	-0.572958	85.0556151	2.02254174	13.20095232
0.51	51	0.103	-0.996	-0.001	-1.6615782	-0.2291832	-0.4010706	85.03842636	2.02254174	13.19522274
0.52	52	0.102	-0.995	0.001	-0.859437	-0.7448454	-0.286479	85.0269672	2.02827132	13.18949316
0.53	53	0.101	-0.995	0.003	-0.8021412	-0.6875496	-0.4010706	85.01550804	2.02827132	13.18376358
0.54	54	0.103	-0.992	0.003	-0.6875496	-0.286479	-0.4583664	85.00977846	2.0340009	13.178034
0.55	55	0.104	-0.992	0.004	-0.572958	-0.1145916	-0.5156622	85.1988546	2.2345362	13.13219736
0.56	56	0.101	-0.993	0.004	-0.4583664	0.286479	-0.5156622	85.19312502	2.24026578	13.13219736
0.57	57	0.099	-0.995	-0.001	-0.1718874	0.7448454	-0.6302538	85.19312502	2.24599536	13.13792694
0.58	58	0.1	-0.998	-0.004	0.0572958	1.0886202	-0.7448454	85.19312502	2.25745452	13.1493861
0.59	59	0.104	-1	-0.003	0	0.859437	-0.7448454	85.19312502	2.2631841	13.16084526
0.6	60	0.105	-1	-0.001	0.1718874	0.4583664	-0.6875496	85.37647158	2.47517856	13.1207382
0.61	61	0.102	-1.004	-0.001	0.286479	-0.286479	-0.7448454	85.38220116	2.48090814	13.11500862
0.62	62	0.1	-1.007	-0.005	0.1718874	-0.9167328	-0.6875496	85.38220116	2.48663772	13.10354946
0.63	63	0.097	-1.007	-0.005	0	-1.3750992	-0.6302538	85.38220116	2.4923673	13.0920903
0.64	64	0.093	-1.006	-0.003	0.1718874	-1.5469866	-0.572958	85.38220116	2.49809688	13.07490156
0.65	65	0.092	-1.005	0	0.6875496	-1.3750992	-0.5156622	85.47387444	2.578311	13.04052408
0.66	66	0.094	-1.003	0.002	0.6875496	-0.9740286	-0.572958	85.4853336	2.58404058	13.0347945
0.67	67	0.096	-1.004	-0.001	0.4010706	-0.3437748	-0.7448454	85.4853336	2.58977016	13.02906492
0.68	68	0.097	-1.003	-0.002	0.6302538	0.1145916	-0.7448454	85.49106318	2.59549974	13.02906492
0.69	69	0.098	-1.002	0	0.8021412	0.5156622	-0.572958	85.50252234	2.60122932	13.0347945
0.7	70	0.1	-0.999	-0.002	0.6302538	0.9740286	-0.3437748	85.60565478	2.71009134	13.02333534
0.71	71	0.099	-0.999	-0.004	0.9740286	1.145916	0	85.61711394	2.71009134	13.0347945
0.72	72	0.1	-1.001	0	1.3178034	1.3750992	0.2291832	85.6285731	2.71009134	13.05198324
0.73	73	0.097	-1.004	0	1.3750992	1.432395	0.3437748	85.64576184	2.70436176	13.0634424
0.74	74	0.097	-1.003	-0.001	1.2605076	1.718874	0.4010706	85.657221	2.70436176	13.08063114
0.75	75	0.097	-1.002	-0.003	1.4896908	1.8907614	0.4010706	85.72024638	2.74446882	13.0920903
0.76	76	0.098	-1.004	-0.002	1.6042824	1.6615782	0.4010706	85.73743512	2.74446882	13.10927904
0.77	77	0.098	-1.002	0	1.7761698	0.859437	0.572958	85.75462386	2.73873924	13.11500862
0.78	78	0.097	-1	0.006	1.718874	0.572958	0.6302538	85.7718126	2.73300966	13.12646778
0.79	79	0.098	-0.999	0.006	1.9480572	0.572958	0.6302538	85.79473092	2.72728008	13.13219736
0.8	80	0.101	-0.999	0	1.9480572	0.7448454	0.5156622	85.86921546	2.78457588	13.12646778
0.81	81	0.102	-1	0.002	2.5210152	0.572958	0.5156622	85.89786336	2.7788463	13.13219736
0.82	82	0.101	-1.003	0.004	2.6929026	-0.0572958	0.4010706	85.92651126	2.77311672	13.13219736
0.83	83	0.097	-1.004	0.003	2.578311	-0.1145916	0.4583664	85.94942958	2.76738714	13.13219736
0.84	84	0.1	-1.007	-0.001	2.578311	-0.286479	0.5156622	85.97807748	2.76165756	13.13219736
0.85	85	0.104	-1.005	0	2.4637194	-0.6302538	0.4010706	86.05256202	2.81895336	13.11500862
0.86	86	0.104	-1.002	0.003	2.4637194	-1.145916	0.1718874	86.07548034	2.81895336	13.10354946
0.87	87	0.102	-1.003	0.003	2.291832	-1.3178034	0.0572958	86.09839866	2.81322378	13.0920903
0.88	88	0.101	-1.002	0.005	1.8334656	-1.3178034	0	86.1155874	2.81322378	13.07490156
0.89	89	0.1	-1	0.004	1.8907614	-1.2032118	-0.0572958	86.13277614	2.81895336	13.0634424
0.9	90	0.1	-1.001	0.005	1.8334656	-0.9740286	-0.1718874	86.20726068	2.87624916	13.04625366
0.91	91	0.1	-1.002	0.002	1.7761698	-0.7448454	-0.0572958	86.22444942	2.88197874	13.0347945
0.92	92	0.099	-1.005	0	1.718874	-0.6875496	-0.0572958	86.24163816	2.88197874	13.02906492
0.93	93	0.1	-1.004	0.008	1.718874	-0.9167328	0	86.2588269	2.88197874	13.02333534
0.94	94	0.097	-1.006	0.013	1.9480572	-1.9480572	0.1718874	86.28174522	2.87624916	13.00041702
0.95	95	0.093	-1.005	0.008	1.718874	-2.578311	0.1718874	86.33904102	2.91635622	12.96603954
0.96	96	0.094	-1.006	0.004	1.4896908	-2.6356068	0.1145916	86.35050018	2.91062664	12.94312122
0.97	97	0.094	-1.011	0.003	1.6042824	-3.3804522	0.1145916	86.36768892	2.91062664	12.90874374
0.98	98	0.089	-1.012	0.006	2.005353	-4.4117766	0.2291832	86.38487766	2.90489706	12.8629071
0.99	99	0.085	-1.012	0.003	1.9480572	-4.6409598	0.5156622	86.40779598	2.89916748	12.81707046
1	100	0.083	-1.007	0.001	1.6042824	-4.010706	0.859437	86.44790304	2.91062664	12.7769634
1.01	101	0.087	-1.005	0.006	1.432395	-3.6669312	1.3750992	86.4593622	2.89916748	12.74258592
1.02	102	0.089	-1.004	0.015	0.9740286	-3.6096354	1.8907614	86.47082136	2.87624916	12.70820844
1.03	103	0.091	-1.002	0.018	0.0572958	-2.9793816	2.4064236	86.46509178	2.85333084	12.67956054
1.04	104	0.093	-1.001	0.016	-0.8021412	-1.6042824	2.578311	86.4593622	2.82468294	12.6623718
1.05	105	0.089	-1.003	0.014	-0.859437	-0.8021412	2.578311	86.50519884	2.84187168	12.64518306
1.06	106	0.088	-1.005	0.014	-1.2032118	0	2.4064236	86.4880101	2.81322378	12.64518306
1.07	107	0.093	-1	0.012	-1.2605076	0.6302538	2.3491278	86.47655094	2.79030546	12.65664222
1.08	108	0.095	-1.001	0.005	-0.9740286	1.145916	2.0626488	86.47082136	2.77311672	12.66810138
1.09	109	0.098	-1.003	0.01	-1.3178034	0.8021412	2.0626488	86.45363262	2.7501984	12.67956054
1.1	110	0.088	-1.005	0.008	-1.0313244	-0.6875496	2.1772404	86.49373968	2.76738714	12.6623718
1.11	111	0.087	-1.01	0.01	-0.9740286	0	2.005353	86.48228052	2.7501984	12.6623718
1.12	112	0.096	-1.013	0.003	-2.005353	1.0313244	2.005353	86.4593622	2.72728008	12.67383096
1.13	113	0.097	-1.014	-0.004	-2.4637194	0.4583664	2.2345362	86.43644388	2.70436176	12.67956054
1.14	114	0.098	-1.01	-0.011	-2.578311	-0.9167328	2.578311	86.40779598	2.68144344	12.67383096
1.15	115	0.095	-1.007	-0.01	-2.6929026	-2.1199446	2.86479	86.39633682	2.66998428	12.65091264
1.16	116	0.088	-1.009	-0.007	-2.6929026	-2.9793816	2.86479	86.36768892	2.64133638	12.62226474
1.17	117	0.091	-1.008	-0.002	-2.7501984	-2.8074942	2.6929026	86.33904102	2.61268848	12.59361684
1.18	118	0.094	-1.003	0.007	-2.8074942	-2.578311	2.1772404	86.31039312	2.58977016	12.57069852
1.19	119	0.083	-1.005	0.011	-2.6929026	-3.6669312	1.3178034	86.28174522	2.578311	12.53632104
1.2	120	0.064	-1.01	0.021	-2.4637194	-3.3231564	0.7448454	86.30466354	2.58404058	12.49621398
1.21	121	0.06	-1.014	0.017	-3.0366774	-1.8334656	0.6302538	86.27028606	2.57258142	12.47902524
1.22	122	0.058	-1.019	-0.006	-3.3231564	-1.4896908	0.9740286	86.23590858	2.56112226	12.4618365
1.23	123	0.065	-1.025	-0.018	-2.9220858	-2.1199446	1.5469866	86.20726068	2.5496631	12.43891818
1.24	124	0.077	-1.027	-0.027	-3.0939732	-2.86479	2.291832	86.1728832	2.5210152	12.41599986
1.25	125	0.079	-1.029	-0.029	-3.3804522	-4.9847346	3.0939732	86.1442353	2.49809688	12.36443364
1.26	126	0.074	-1.027	-0.023	-3.6669312	-8.1932994	3.9534102	86.10412824	2.45798982	12.28421952
1.27	127	0.072	-1.015	-0.009	-2.7501984	-10.3705398	4.3544808	86.07548034	2.4064236	12.18681666
1.28	128	0.064	-0.995	0.001	-1.2605076	-11.6883432	3.8388186	86.0582916	2.36631654	12.07222506
1.29	129	0.049	-0.984	0.005	0.1145916	-13.464513	2.6356068	86.05256202	2.33193906	11.94044472
1.3	130	0.049	-0.98	0.017	0.6875496	-14.5531332	0.859437	86.07548034	2.3204799	11.79720522
1.31	131	0.05	-0.988	0.016	0.8021412	-14.3812458	0.4010706	86.08120992	2.31475032	11.65396572
1.32	132	0.061	-0.999	0.018	0.8021412	-13.5791046	1.2032118	86.0869395	2.29756158	11.5164558
1.33	133	0.085	-1.007	0.017	0.3437748	-12.5477802	2.7501984	86.0869395	2.2631841	11.39613462
1.34	134	0.107	-1.014	0.004	0	-12.2040054	4.0680018	86.08120992	2.21734746	11.27581344
1.35	135	0.114	-1.005	0.003	0.4583664	-11.9175264	4.9274388	86.09839866	2.18296998	11.16122184
1.36	136	0.101	-0.993	0.019	1.9480572	-10.9434978	4.0680018	86.1155874	2.13713334	11.0580894
1.37	137	0.089	-0.984	0.034	2.1772404	-7.2192708	1.9480572	86.13850572	2.11421502	10.98360486
1.38	138	0.071	-0.977	0.049	1.9480572	-2.4064236	-0.1718874	86.15569446	2.11421502	10.96068654
1.39	139	0.061	-0.982	0.043	1.2605076	0.3437748	-0.572958	86.1728832	2.1199446	10.96641612
1.4	140	0.065	-0.994	0.034	0	2.005353	-0.2291832	86.27028606	2.1772404	10.9721457
1.41	141	0.079	-1.005	0.028	-1.3750992	2.9220858	0.4010706	86.25309732	2.17151082	11.0007936
1.42	142	0.092	-1.017	0.014	-2.3491278	3.3231564	1.2605076	86.230179	2.16005166	11.03517108
1.43	143	0.112	-1.024	0.001	-3.2085648	2.4637194	1.8334656	86.2015311	2.14286292	11.0580894
1.44	144	0.13	-1.022	-0.005	-3.6096354	2.7501984	1.0886202	86.16142404	2.13140376	11.0867373
1.45	145	0.128	-1.011	-0.006	-3.8388186	2.7501984	0	86.14996488	2.18296998	11.10965562
1.46	146	0.112	-1.002	-0.005	-3.2085648	2.0626488	-1.145916	86.1155874	2.19442914	11.12684436
1.47	147	0.103	-0.998	0.008	-2.6356068	2.1772404	-1.6042824	86.0869395	2.21161788	11.14976268
1.48	148	0.098	-0.995	0.019	-2.005353	2.2345362	-1.6042824	86.06975076	2.22880662	11.16695142
1.49	149	0.094	-0.998	0.018	-1.8334656	1.9480572	-1.4896908	86.05256202	2.24599536	11.18986974
1.5	150	0.099	-0.996	0.012	-2.1199446	1.6042824	-1.2032118	86.08120992	2.3204799	11.19559932
1.51	151	0.1	-0.994	-0.004	-2.2345362	0.9167328	-0.6875496	86.0582916	2.32620948	11.2013289
1.52	152	0.097	-0.994	-0.005	-1.6615782	-0.2291832	0	86.04110286	2.32620948	11.2013289
1.53	153	0.096	-0.991	0.007	-0.4010706	-0.572958	0.4010706	86.03537328	2.3204799	11.19559932
1.54	154	0.09	-0.985	0.036	0.6875496	0	0.0572958	86.04110286	2.3204799	11.19559932
1.55	155	0.086	-0.982	0.031	0.572958	1.3178034	-0.7448454	86.12704656	2.38923486	11.19559932
1.56	156	0.086	-0.988	0.014	-0.1145916	2.5210152	-1.6615782	86.12704656	2.4064236	11.21851764
1.57	157	0.087	-0.999	-0.002	-0.6875496	2.4637194	-2.1772404	86.12131698	2.42934192	11.24143596
1.58	158	0.084	-1.014	-0.024	-0.286479	0.9167328	-2.005353	86.1155874	2.44653066	11.25289512
1.59	159	0.08	-1.025	-0.035	0.1718874	-0.3437748	-1.2032118	86.1155874	2.45798982	11.24716554
1.6	160	0.078	-1.025	-0.033	0.572958	-1.718874	-0.5156622	86.1442353	2.50955604	11.22424722
1.61	161	0.077	-1.014	-0.017	1.432395	-3.2085648	-0.1145916	86.15569446	2.50955604	11.18986974
1.62	162	0.077	-1.002	-0.009	2.3491278	-3.9534102	-0.4583664	86.17861278	2.50955604	11.14976268
1.63	163	0.078	-0.999	-0.009	2.3491278	-3.724227	-1.0886202	86.2015311	2.5210152	11.1153852
1.64	164	0.076	-1.003	-0.002	1.8907614	-3.8961144	-1.6615782	86.22444942	2.53820394	11.07527814
1.65	165	0.072	-1.004	0.009	1.718874	-3.8388186	-1.8334656	86.27028606	2.57258142	11.0294415
1.66	166	0.069	-1.002	0.015	1.8334656	-3.5523396	-1.4896908	86.29320438	2.58404058	10.99506402
1.67	167	0.066	-0.999	0.01	1.432395	-2.9793816	-1.0313244	86.30466354	2.59549974	10.96641612
1.68	168	0.061	-1.002	0.007	1.0313244	-2.578311	-0.6302538	86.3161227	2.60122932	10.93776822
1.69	169	0.063	-1.009	-0.001	0.0572958	-2.1772404	-0.1718874	86.3161227	2.60122932	10.9148499
1.7	170	0.063	-1.018	-0.004	-0.0572958	-1.6615782	0	86.41352556	2.65852512	10.886202
1.71	171	0.064	-1.023	-0.002	0	-1.3750992	0.0572958	86.41352556	2.65852512	10.87474284
1.72	172	0.064	-1.024	-0.005	-0.4010706	-1.145916	-0.0572958	86.40779598	2.65852512	10.86328368
1.73	173	0.062	-1.023	-0.007	-0.9167328	-1.145916	-0.4010706	86.4020664	2.65852512	10.85182452
1.74	174	0.059	-1.022	-0.003	-0.9167328	-0.9740286	-0.859437	86.39060724	2.66998428	10.84036536
1.75	175	0.055	-1.02	0.008	-0.859437	-0.6875496	-1.0313244	86.47082136	2.69863218	10.82317662
1.76	176	0.055	-1.017	0.027	-1.0886202	0	-0.7448454	86.4593622	2.70436176	10.82317662
1.77	177	0.059	-1.008	0.03	-1.0313244	1.6615782	-0.4010706	86.44790304	2.71009134	10.84036536
1.78	178	0.066	-0.997	0.015	-0.6302538	2.578311	-0.0572958	86.44217346	2.71009134	10.86328368
1.79	179	0.073	-0.992	0.003	-0.0572958	1.8907614	-0.1145916	86.44217346	2.71582092	10.88047242
1.8	180	0.076	-0.994	0	0.286479	1.0886202	-0.286479	86.53384674	2.79603504	10.88047242
1.81	181	0.078	-0.996	0.003	0.286479	0.7448454	-0.7448454	86.53957632	2.8074942	10.886202
1.82	182	0.074	-1	-0.002	0.1145916	0.2291832	-1.0886202	86.53957632	2.81895336	10.89193158
1.83	183	0.068	-1.002	-0.008	0.1718874	0	-1.2605076	86.53957632	2.83041252	10.89193158
1.84	184	0.064	-1.005	-0.015	0.572958	-0.286479	-1.0313244	86.5453059	2.84187168	10.886202
1.85	185	0.063	-1.005	-0.012	0.9740286	-0.5156622	-0.6302538	86.60833128	2.88197874	10.87474284
1.86	186	0.068	-1.005	-0.002	1.0886202	-0.859437	-0.3437748	86.61979044	2.88197874	10.86328368
1.87	187	0.073	-1.001	0.005	0.9740286	-0.8021412	-0.4583664	86.62552002	2.88770832	10.8575541
1.88	188	0.079	-0.998	0.014	0.9167328	-0.3437748	-0.7448454	86.63697918	2.8934379	10.85182452
1.89	189	0.08	-0.995	0.019	0.1718874	0.286479	-1.145916	86.63697918	2.90489706	10.85182452
1.9	190	0.081	-0.995	0.013	-0.2291832	0.859437	-1.432395	86.70000456	2.96792244	10.8575541
1.91	191	0.078	-1.001	0.004	-0.4583664	1.0886202	-1.5469866	86.69427498	2.98511118	10.86328368
1.92	192	0.08	-1.006	0.002	-0.8021412	1.2032118	-1.432395	86.6885454	3.00229992	10.87474284
1.93	193	0.082	-1.013	-0.006	-1.0313244	0.8021412	-0.9740286	86.67708624	3.01375908	10.886202
1.94	194	0.083	-1.019	-0.016	-1.3178034	0.4010706	-0.5156622	86.66562708	3.01948866	10.886202
1.95	195	0.084	-1.02	-0.013	-1.2605076	0.0572958	-0.2291832	86.7171933	3.11116194	10.88047242
1.96	196	0.085	-1.019	-0.011	-0.9740286	-0.572958	-0.1718874	86.70573414	3.11116194	10.87474284
1.97	197	0.084	-1.012	-0.01	-0.6875496	-1.5469866	-0.2291832	86.69427498	3.11689152	10.8575541
1.98	198	0.081	-1.006	0	-0.2291832	-1.9480572	-0.6875496	86.69427498	3.1226211	10.83463578
1.99	199	0.075	-1.002	0.012	0	-1.7761698	-1.3178034	86.69427498	3.13408026	10.81744704
2	200	0.072	-0.999	0.011	-0.286479	-1.2032118	-1.7761698	86.7458412	3.1799169	10.8002583
2.01	201	0.072	-0.996	0.009	-0.6875496	-0.6875496	-1.9480572	86.73438204	3.19710564	10.78879914
2.02	202	0.074	-0.997	0.001	-0.9740286	-0.7448454	-1.9480572	86.72865246	3.21429438	10.78306956
2.03	203	0.079	-1.001	-0.001	-0.6302538	-0.4583664	-1.9480572	86.7171933	3.2372127	10.77733998
2.04	204	0.083	-1.004	-0.007	0	-0.286479	-1.8334656	86.7171933	3.25440144	10.7716104
2.05	205	0.085	-1.007	-0.003	0.286479	-0.1145916	-1.7761698	86.79167784	3.34034514	10.76015124
2.06	206	0.083	-1.003	0.003	0.1145916	0.3437748	-1.6615782	86.79740742	3.35753388	10.76588082
2.07	207	0.079	-0.999	0.005	0	0.7448454	-1.6042824	86.79740742	3.37472262	10.7716104
2.08	208	0.077	-0.998	0	-0.0572958	1.432395	-1.5469866	86.79740742	3.38618178	10.78306956
2.09	209	0.079	-1.003	-0.001	-0.2291832	1.8907614	-1.432395	86.79167784	3.40337052	10.8002583
2.1	210	0.082	-1.009	0	-0.4583664	1.8334656	-1.6615782	86.82605532	3.44920716	10.81744704
2.11	211	0.086	-1.009	-0.001	-0.7448454	1.6042824	-1.9480572	86.81459616	3.47212548	10.8289062
2.12	212	0.086	-1.011	-0.004	-1.2032118	1.0886202	-2.3491278	86.803137	3.4950438	10.84036536
2.13	213	0.083	-1.01	-0.007	-1.2605076	0.572958	-2.7501984	86.79167784	3.5236917	10.84609494
2.14	214	0.077	-1.012	-0.008	-0.9740286	0.3437748	-3.151269	86.78021868	3.5523396	10.84609494
2.15	215	0.073	-1.014	-0.002	-0.859437	0.6875496	-3.4950438	86.803137	3.59817624	10.85182452
2.16	216	0.074	-1.011	0.005	-1.2032118	1.2032118	-3.6669312	86.78594826	3.6382833	10.8575541
2.17	217	0.076	-1.008	0.007	-1.432395	1.5469866	-3.5523396	86.7744891	3.67266078	10.87474284
2.18	218	0.08	-1.005	0.01	-1.8334656	1.5469866	-3.4950438	86.75730036	3.70703826	10.886202
2.19	219	0.081	-1.004	0.011	-2.291832	0.3437748	-3.3231564	86.73438204	3.74141574	10.886202
2.2	220	0.08	-1.007	0.004	-2.4637194	-0.5156622	-3.4950438	86.73438204	3.78725238	10.88047242
2.21	221	0.079	-1.009	0.001	-2.6929026	-0.6875496	-3.6669312	86.70573414	3.82162986	10.86901326
2.22	222	0.075	-1.012	0.001	-2.578311	-1.0313244	-3.7815228	86.67708624	3.86173692	10.8575541
2.23	223	0.069	-1.015	0.001	-2.6929026	-0.859437	-4.0680018	86.64843834	3.90184398	10.84609494
2.24	224	0.063	-1.011	-0.001	-2.9220858	-0.1145916	-4.1825934	86.61979044	3.94195104	10.84036536
2.25	225	0.062	-1.008	-0.003	-2.5210152	-0.1145916	-4.010706	86.61406086	3.9820581	10.83463578
2.26	226	0.068	-1.006	0	-2.2345362	-0.0572958	-3.8961144	86.59114254	4.02216516	10.83463578
2.27	227	0.076	-1.003	0.001	-1.8907614	-0.3437748	-3.6096354	86.56822422	4.05654264	10.8289062
2.28	228	0.082	-1	0.003	-1.718874	-0.5156622	-3.6669312	86.55103548	4.09092012	10.81744704
2.29	229	0.086	-1	0.013	-1.432395	-0.5156622	-3.8388186	86.53384674	4.13102718	10.81171746
2.3	230	0.089	-1.002	0.01	-1.6615782	-0.0572958	-4.1252976	86.55103548	4.18832298	10.80598788
2.31	231	0.091	-1.001	0.004	-2.0626488	0.286479	-4.3544808	86.53384674	4.22843004	10.80598788
2.32	232	0.09	-1.001	0	-2.291832	0	-4.3544808	86.50519884	4.27426668	10.80598788
2.33	233	0.093	-1.003	0	-2.8074942	-0.3437748	-4.5263682	86.47655094	4.32010332	10.79452872
2.34	234	0.092	-1.009	-0.009	-3.2085648	-1.3750992	-4.6409598	86.44217346	4.36593996	10.78306956
2.35	235	0.089	-1.013	-0.013	-3.437748	-1.3178034	-4.870143	86.41925514	4.41750618	10.76588082
2.36	236	0.088	-1.013	-0.012	-3.2658606	-0.9740286	-4.9274388	86.38487766	4.4690724	10.74869208
2.37	237	0.086	-1.012	-0.014	-3.0366774	-1.2032118	-5.0420304	86.35050018	4.52063862	10.73150334
2.38	238	0.087	-1.009	-0.01	-2.6356068	-1.4896908	-5.156622	86.32758186	4.56647526	10.7143146
2.39	239	0.092	-1.006	-0.005	-2.4637194	-1.2605076	-5.5576926	86.29893396	4.62377106	10.69712586
2.4	240	0.096	-1.004	-0.008	-2.9793816	-1.0313244	-6.0733548	86.28174522	4.69252602	10.6856667
2.41	241	0.099	-1.005	-0.006	-3.2085648	-1.2032118	-6.4171296	86.24736774	4.7555514	10.66847796
2.42	242	0.102	-1.007	-0.004	-3.5523396	-1.0313244	-6.4744254	86.20726068	4.81857678	10.65128922
2.43	243	0.103	-1.006	-0.01	-4.0680018	-0.9167328	-6.6463128	86.16715362	4.88160216	10.63983006
2.44	244	0.102	-1.007	-0.02	-4.3544808	-1.0886202	-6.6463128	86.12131698	4.95035712	10.62264132
2.45	245	0.098	-1.009	-0.024	-4.297185	-1.4896908	-6.5317212	86.08120992	5.01911208	10.60545258
2.46	246	0.096	-1.008	-0.02	-4.2398892	-1.9480572	-6.5317212	86.03537328	5.08213746	10.57680468
2.47	247	0.091	-1.004	-0.022	-3.9534102	-2.4064236	-6.4744254	85.99526622	5.14516284	10.54815678
2.48	248	0.09	-0.998	-0.01	-3.4950438	-2.4637194	-6.4744254	85.95515916	5.20818822	10.51950888
2.49	249	0.092	-0.994	-0.003	-3.3231564	-1.7761698	-6.7609044	85.92078168	5.27694318	10.49659056
2.5	250	0.092	-0.993	-0.005	-3.724227	-1.145916	-7.2192708	85.89786336	5.35142772	10.47940182
2.51	251	0.097	-0.994	-0.015	-4.1252976	-1.3178034	-7.5057498	85.85202672	5.42018268	10.46221308
2.52	252	0.099	-1.002	-0.025	-4.4117766	-2.1199446	-7.734933	85.80619008	5.5003968	10.43356518
2.53	253	0.1	-1.01	-0.023	-4.4690724	-2.8074942	-7.8495246	85.75462386	5.57488134	10.3991877
2.54	254	0.102	-1.015	-0.019	-4.4690724	-2.9220858	-7.6776372	85.70878722	5.64936588	10.36481022
2.55	255	0.103	-1.015	-0.016	-4.6982556	-2.3491278	-7.7922288	85.66868016	5.72958	10.33616232
2.56	256	0.103	-1.011	-0.009	-4.9847346	-1.6615782	-7.8495246	85.61711394	5.80406454	10.313244
2.57	257	0.105	-1.006	-0.007	-5.7868758	-0.9740286	-8.1932994	85.55408856	5.88427866	10.29605526
2.58	258	0.11	-1.003	-0.007	-6.016059	-0.5156622	-8.4797784	85.49106318	5.97022236	10.2845961
2.59	259	0.115	-1.004	-0.013	-6.4171296	0	-8.5370742	85.4280378	6.05043648	10.27313694
2.6	260	0.117	-1.009	-0.017	-6.9900876	0.0572958	-8.7662574	85.36501242	6.14210976	10.26740736
2.61	261	0.114	-1.012	-0.024	-7.161975	-0.1718874	-8.8235532	85.29052788	6.22805346	10.2559482
2.62	262	0.117	-1.016	-0.025	-7.2765666	-0.4583664	-9.1100322	85.21604334	6.31972674	10.24448904
2.63	263	0.12	-1.016	-0.028	-7.448454	-0.9167328	-9.2819196	85.13582922	6.41140002	10.2273003
2.64	264	0.118	-1.015	-0.025	-7.6776372	-1.432395	-9.5683986	85.0556151	6.5030733	10.20438198
2.65	265	0.119	-1.012	-0.026	-7.9641162	-1.7761698	-10.026765	84.98113056	6.60047616	10.17573408
2.66	266	0.115	-1.01	-0.024	-8.5370742	-1.6615782	-10.599723	84.89518686	6.70933818	10.15281576
2.67	267	0.112	-1.01	-0.017	-8.7662574	-0.9167328	-11.0580894	84.80351358	6.81247062	10.12989744
2.68	268	0.113	-1.007	-0.02	-9.453807	-0.6875496	-11.2299768	84.70038114	6.92706222	10.1127087
2.69	269	0.116	-1.003	-0.019	-10.026765	-0.572958	-11.2872726	84.5972487	7.03592424	10.09551996
2.7	270	0.124	-1.002	-0.03	-10.599723	-0.3437748	-11.2299768	84.49411626	7.15051584	10.07833122
2.71	271	0.128	-1.005	-0.039	-11.172681	-0.9740286	-11.2872726	84.37952466	7.25937786	10.0554129
2.72	272	0.124	-1.003	-0.038	-11.5737516	-1.3750992	-11.4018642	84.25920348	7.36823988	10.03249458
2.73	273	0.12	-1.003	-0.033	-11.6310474	-1.0313244	-11.45916	84.1388823	7.48283148	10.00957626
2.74	274	0.12	-1.003	-0.037	-12.2040054	-0.3437748	-11.8029348	84.01283154	7.59742308	9.99238752
2.75	275	0.123	-1.003	-0.042	-12.605076	-0.1145916	-12.0894138	83.88678078	7.71201468	9.97519878
2.76	276	0.123	-1.002	-0.042	-12.7769634	-0.8021412	-12.318597	83.75500044	7.83233586	9.95228046
2.77	277	0.123	-0.997	-0.033	-12.4331886	-1.3750992	-12.5477802	83.6232201	7.95838662	9.92363256
2.78	278	0.125	-0.993	-0.019	-11.9175264	-1.5469866	-12.891555	83.49716934	8.0787078	9.89498466
2.79	279	0.132	-0.99	-0.013	-12.2613012	-2.3491278	-12.9488508	83.365389	8.20475856	9.8548776
2.8	280	0.143	-0.992	-0.02	-12.891555	-3.0366774	-13.178034	83.24506782	8.33080932	9.80904096
2.81	281	0.147	-0.997	-0.019	-13.4072172	-3.437748	-13.6364004	83.09609874	8.46258966	9.75747474
2.82	282	0.157	-1.009	-0.035	-14.6677248	-2.578311	-14.2666542	82.94140008	8.60009958	9.7116381
2.83	283	0.155	-1.024	-0.029	-14.610429	-2.4064236	-15.183387	82.78670142	8.74906866	9.66580146
2.84	284	0.146	-1.022	-0.029	-16.4438946	-1.8907614	-16.1001198	82.61481402	8.90376732	9.6256944
2.85	285	0.133	-1.023	-0.042	-17.4179232	-0.8021412	-16.8449652	82.44292662	9.06419556	9.5970465
2.86	286	0.125	-1.024	-0.041	-17.9335854	0.5156622	-17.3606274	82.25385048	9.23035338	9.57412818
2.87	287	0.119	-1.022	-0.038	-18.7357266	2.578311	-17.761698	82.06477434	9.40797036	9.57412818
2.88	288	0.122	-1.025	-0.038	-19.3659804	3.8388186	-18.2773602	81.86996862	9.59131692	9.59131692
2.89	289	0.123	-1.018	-0.047	-22.1161788	4.4690724	-18.7357266	81.646515	9.78039306	9.60277608
2.9	290	0.136	-1.017	-0.057	-23.2620948	5.3285094	-19.0222056	81.42306138	9.96373962	9.6256944
2.91	291	0.145	-1.009	-0.064	-24.064236	5.8441716	-19.480572	81.18241902	10.16427492	9.6543423
2.92	292	0.146	-1.005	-0.058	-24.8663772	6.0733548	-20.05353	80.9303175	10.36481022	9.6829902
2.93	293	0.151	-1.001	-0.049	-24.9809688	6.3598338	-20.626488	80.67821598	10.5710751	9.7116381
2.94	294	0.154	-0.997	-0.051	-26.069589	7.1046792	-21.3713334	80.42038488	10.78879914	9.74601558
2.95	295	0.157	-0.995	-0.058	-27.1009134	7.6776372	-21.8296998	80.16255378	11.01225276	9.78039306
2.96	296	0.16	-1.001	-0.064	-28.3041252	8.1932994	-22.058883	79.87607478	11.23570638	9.8262297
2.97	297	0.164	-0.999	-0.068	-29.3354496	8.4224826	-22.2880662	79.58959578	11.46488958	9.86633676
2.98	298	0.17	-0.995	-0.074	-29.793816	8.1932994	-22.058883	79.29165762	11.6883432	9.90644382
2.99	299	0.169	-0.996	-0.08	-30.4240698	7.7922288	-21.8869956	78.98798988	11.91179682	9.93509172
3	300	0.166	-0.997	-0.092	-30.8251404	7.5057498	-21.9442914	78.68432214	12.12952086	9.9694692
3.01	301	0.156	-1.001	-0.1	-31.3408026	7.7922288	-22.4026578	78.37492482	12.35870406	9.9981171
3.02	302	0.146	-0.997	-0.091	-31.4553942	8.7089616	-23.2620948	78.05979792	12.59934642	10.03249458
3.03	303	0.144	-0.988	-0.086	-31.7418732	9.740286	-24.0069402	77.74467102	12.84571836	10.07833122
3.04	304	0.159	-0.976	-0.095	-32.1429438	10.7716104	-24.7517856	77.42954412	13.10354946	10.12989744
3.05	305	0.18	-0.972	-0.087	-32.945085	11.3445684	-25.6685184	77.11441722	13.36711014	10.18146366
3.06	306	0.197	-0.972	-0.078	-34.1482968	10.7716104	-25.7258142	76.776372	13.6364004	10.2273003
3.07	307	0.209	-0.97	-0.093	-35.809875	10.2559482	-25.4393352	76.42113804	13.8942315	10.26740736
3.08	308	0.215	-0.971	-0.105	-36.3255372	10.599723	-25.1528562	76.0601745	14.15779218	10.30751442
3.09	309	0.211	-0.975	-0.115	-36.5547204	10.4278356	-25.2674478	75.69348138	14.42135286	10.34762148
3.1	310	0.203	-0.974	-0.11	-36.4974246	10.8289062	-25.8404058	75.33824742	14.68491354	10.38772854
3.11	311	0.197	-0.974	-0.107	-37.1276784	12.1467096	-26.6998428	74.9715543	14.96566296	10.43929476
3.12	312	0.199	-0.973	-0.117	-39.1330314	13.464513	-27.6165756	74.58767244	15.25787154	10.49086098
3.13	313	0.209	-0.971	-0.145	-41.9978214	14.3812458	-28.0176462	74.17514268	15.5558097	10.55388636
3.14	314	0.216	-0.966	-0.168	-43.6593996	13.5791046	-27.4446882	73.74542418	15.84801828	10.61118216
3.15	315	0.223	-0.959	-0.176	-43.2010332	12.2040054	-26.9863218	73.32143526	16.1287677	10.65128922
3.16	316	0.236	-0.961	-0.173	-42.6280752	10.3705398	-27.501984	72.89171676	16.4152467	10.66847796
3.17	317	0.255	-0.962	-0.16	-42.6280752	9.3392154	-28.9916748	72.45626868	16.70745528	10.66847796
3.18	318	0.269	-0.961	-0.157	-43.4302164	9.2246238	-30.939732	72.00936144	17.02258218	10.6570188
3.19	319	0.279	-0.957	-0.165	-45.6074568	10.0840608	-33.0023808	71.54526546	17.35489782	10.65128922
3.2	320	0.29	-0.953	-0.199	-48.0138804	10.9434978	-34.950438	71.05825116	17.71013178	10.63983006
3.21	321	0.301	-0.943	-0.219	-50.7640788	9.9694692	-35.7525792	70.5311298	18.07109532	10.61118216
3.22	322	0.297	-0.939	-0.217	-51.2224452	7.0473834	-35.9244666	69.9868197	18.42632928	10.54815678
3.23	323	0.291	-0.935	-0.204	-50.3057124	4.7555514	-35.8671708	69.44823918	18.77010408	10.46221308
3.24	324	0.285	-0.933	-0.184	-49.9046418	4.870143	-36.669312	68.90965866	19.11960846	10.3705398
3.25	325	0.287	-0.932	-0.181	-52.3683612	5.5576926	-37.9871154	68.35961898	19.480572	10.27886652
3.26	326	0.3	-0.92	-0.195	-56.5509546	5.3858052	-39.1903272	67.74655392	19.8529947	10.17573408
3.27	327	0.318	-0.912	-0.237	-60.16059	4.1825934	-40.5654264	67.0933818	20.23687656	10.04968332
3.28	328	0.337	-0.917	-0.288	-63.2545632	2.8074942	-42.1697088	66.39437304	20.626488	9.89498466
3.29	329	0.354	-0.93	-0.323	-67.0933818	-1.5469866	-44.0604702	65.63806848	21.01036986	9.68871978
3.3	330	0.364	-0.939	-0.347	-69.7289886	-5.72958	-45.0344988	64.83592728	21.38852214	9.4251591
3.31	331	0.359	-0.948	-0.361	-71.5051584	-10.2559482	-45.4355694	63.9994086	21.7437561	9.1100322
3.32	332	0.351	-0.947	-0.342	-73.1667366	-13.9801752	-45.83664	63.12278286	22.0875309	8.75479824
3.33	333	0.339	-0.933	-0.335	-75.0002022	-17.2460358	-46.8106686	62.21177964	22.41411696	8.35372764
3.34	334	0.336	-0.92	-0.311	-76.2607098	-16.7303736	-48.3576552	61.2778581	22.75789176	7.94119788
3.35	335	0.328	-0.904	-0.333	-77.1201468	-14.9542038	-50.1911208	60.34393656	23.10739614	7.5343977
3.36	336	0.314	-0.901	-0.385	-78.8390208	-12.7769634	-50.9359662	59.3870967	23.47981884	7.1333271
3.37	337	0.303	-0.89	-0.376	-83.1362058	-10.7716104	-50.6494872	58.3844202	23.84651196	6.74371566
3.38	338	0.288	-0.876	-0.405	-82.1048814	-11.5737516	-50.133825	57.38747328	24.20174592	6.34264506
3.39	339	0.277	-0.863	-0.406	-82.3913604	-11.8602306	-49.560867	56.38479678	24.53979114	5.93584488
3.4	340	0.272	-0.852	-0.365	-81.1881486	-13.6364004	-49.274388	55.38784986	24.86064762	5.50612638
3.41	341	0.278	-0.845	-0.375	-81.1308528	-14.32395	-50.3057124	54.3737142	25.1815041	5.05348956
3.42	342	0.285	-0.842	-0.403	-85.4280378	-14.0947668	-50.7640788	53.3137419	25.496631	4.59512316
3.43	343	0.282	-0.804	-0.411	-86.2874748	-15.1260912	-51.1651494	52.23085128	25.80029874	4.11956802
3.44	344	0.259	-0.778	-0.337	-84.9123756	-14.2093584	-51.7954032	51.15941982	26.10969606	3.63255372
3.45	345	0.228	-0.735	-0.316	-86.0009958	-8.880849	-52.5975444	50.09371794	26.4420117	3.19137606
3.46	346	0.204	-0.678	-0.412	-81.7038108	-4.4690724	-53.3996856	49.0738527	26.80870482	2.76165756
3.47	347	0.187	-0.661	-0.466	-76.7190762	-2.9793816	-54.144531	48.0998241	27.1868571	2.33766864
3.48	348	0.148	-0.664	-0.419	-74.1407652	-3.0366774	-55.2331512	47.14298424	27.5592798	1.89649098
3.49	349	0.106	-0.684	-0.392	-73.5105114	0	-56.6655462	46.19187396	27.9603504	1.45531332
3.5	350	0.074	-0.7	-0.406	-74.3126526	2.578311	-57.1239126	45.24649326	28.361421	1.0313244
3.51	351	0.056	-0.691	-0.404	-72.8229618	5.443101	-57.4676874	44.30111256	28.7911395	0.61306506
3.52	352	0.061	-0.679	-0.422	-72.3645954	8.7662574	-58.441716	43.36719102	29.2495059	0.20626488
3.53	353	0.041	-0.643	-0.423	-72.3645954	15.3552744	-60.2751816	42.44472864	29.75370894	-0.1718874
3.54	354	0.008	-0.636	-0.455	-72.0208206	20.5118964	-61.8221682	41.52226626	30.30374862	-0.53858052
3.55	355	-0.029	-0.618	-0.466	-70.8749046	26.1268848	-62.0513514	40.63418136	30.87097704	-0.87089616
3.56	356	-0.054	-0.613	-0.465	-68.8695516	31.3980984	-61.2492102	39.77474436	31.48977168	-1.16883432
3.57	357	-0.076	-0.61	-0.454	-67.9528188	38.101707	-61.0773228	38.94395526	32.14867338	-1.432395
3.58	358	-0.089	-0.62	-0.429	-66.1193532	46.2950064	-61.9367598	38.14181406	32.87633004	-1.65011904
3.59	359	-0.125	-0.632	-0.422	-66.176649	55.2331512	-63.311859	37.36832076	33.67274166	-1.8334656
3.6	360	-0.158	-0.609	-0.402	-67.2652692	64.0567044	-64.9161414	36.60055704	34.53217866	-1.97097552
3.61	361	-0.108	-0.597	-0.446	-67.4944524	76.5471888	-66.8641986	35.85571164	35.51766642	-2.05691922
3.62	362	-0.08	-0.564	-0.427	-66.5777196	84.9696714	-66.6923112	35.14524372	36.56044998	-2.09702628
3.63	363	-0.059	-0.541	-0.421	-65.4318036	91.4440968	-66.2912406	34.4634237	37.66052934	-2.09702628
3.64	364	-0.063	-0.501	-0.421	-64.5723666	97.40286	-65.5463952	33.81598116	38.79498618	-2.06837838
3.65	365	-0.084	-0.48	-0.405	-62.6816052	102.4448904	-65.6609868	33.2029161	39.9638205	-2.01108258
3.66	366	-0.108	-0.466	-0.368	-61.592985	107.716104	-66.749607	32.6013102	41.1956802	-1.9480572
3.67	367	-0.121	-0.45	-0.332	-61.1919144	116.0812908	-67.5517482	32.0283522	42.50202444	-1.84492476
3.68	368	-0.144	-0.448	-0.288	-59.5303362	123.6443364	-68.2965936	31.50123084	43.87139406	-1.71314442
3.69	369	-0.17	-0.454	-0.237	-57.4676874	135.791046	-68.5830726	31.04286444	45.34389612	-1.50687954
3.7	370	-0.199	-0.409	-0.143	-56.4936588	145.817811	-70.1300592	30.64179384	46.90234188	-1.24331886
3.71	371	-0.226	-0.336	-0.056	-55.576926	158.0218164	-73.6823988	30.27510072	48.59256798	-0.9453807
3.72	372	-0.215	-0.28	-0.022	-56.149884	175.2678522	-78.3806544	29.95997382	50.4489519	-0.57868758
3.73	373	-0.196	-0.217	-0.02	-57.582279	190.1647602	-83.1362058	29.68495398	52.46003448	-0.15469866
3.74	374	-0.17	-0.169	0	-55.6915176	202.0249908	-87.949053	29.46150036	54.59143824	0.30366774
3.75	375	-0.132	-0.127	-0.001	-54.0299394	213.6560382	-92.9337876	29.3068017	56.84889276	0.81932994
3.76	376	-0.096	-0.101	0.041	-49.4462754	222.1358166	-95.7985776	29.25523548	59.19229098	1.38082878
3.77	377	-0.079	-0.06	0.123	-42.6280752	234.2825262	-98.0331138	29.3927454	61.6502808	2.07410796
3.78	378	-0.039	-0.026	0.213	-37.3568616	248.7210678	-100.9551996	29.7651681	64.24578054	2.96219286
3.79	379	0.017	-0.019	0.246	-31.1116194	260.5240026	-103.8199896	30.43552896	66.95587188	4.07946096
3.8	380	0.105	-0.06	0.175	-26.5279554	266.5973574	-103.1897358	31.50123084	69.70607028	5.5576926
3.81	381	0.269	-0.099	0.161	-19.7097552	271.0664298	-97.8039306	33.24302316	72.4505391	7.6489893
3.82	382	0.434	-0.131	0.104	-15.0114996	266.5400616	-93.0483792	35.7812271	75.10333464	10.4851314
3.83	383	0.56	0	0.065	-13.1207382	256.685184	-94.9964364	39.12157224	77.64726816	14.10049638
3.84	384	0.689	0.415	0.019	-6.875496	251.4139704	-105.9399342	43.63648128	80.16828336	18.81021114
3.85	385	0.963	0.789	0.028	6.2452422	273.3582618	-124.618365	51.81259194	82.86118596	27.04934718
3.86	386	1.43	1.088	0.01	26.0122932	282.9839562	-146.3334732	69.3852138	85.46814486	44.48445912
3.87	387	2.118	1.846	-0.649	28.6479	253.4193234	-210.562065	112.7524048	87.59381904	87.66830358
3.88	388	3.496	2.226	-1.912	89.6106312	140.8330764	-273.4155576	-168.094418	87.59954862	165.9916622
3.89	389	3.99	3.101	-0.183	-17.0168526	-52.7694318	-349.4470842	-115.0499664	85.61138436	-140.729944
3.9	390	3.782	2.066	3.965	16.5011904	354.2599314	-299.943513	-127.7409861	81.28555146	-153.6272285
3.91	391	3.275	-0.56	2.017	216.2343492	209.6453322	-178.5337128	-128.8754429	78.62129676	-156.9733033
3.92	392	3.971	0.973	1.643	-82.1048814	281.2077864	-135.7337502	-135.1321443	75.82526172	-162.4908888
3.93	393	3.501	1.023	0.478	-55.290447	252.9036612	-113.0446134	-139.0855545	73.2813282	-165.9687439
3.94	394	2.291	1.513	0.542	24.637194	192.3992964	-101.127087	-140.4262762	71.20722024	-167.6131333
3.95	395	2.397	1.491	1.468	4.1252976	169.7674554	-87.1469118	-141.5836514	69.3852138	-168.8621818
3.96	396	1.815	1.449	1.107	3.9534102	160.8866064	-57.2958	-142.9931281	67.80384972	-170.3919796
3.97	397	1.878	0.71	0.684	-7.2192708	144.098937	-34.2628884	-144.5057372	66.48031674	-171.9332366
3.98	398	1.539	0.841	0.586	20.3973048	120.607659	-26.5279554	-145.42247	65.36877822	-173.1479076
3.99	399	1.623	0.228	0.634	19.8243468	97.4601558	-7.161975	-146.3162845	64.5437187	-174.3396602
4	400	0.409	1.346	0.271	40.5081306	72.8229618	17.0168526	-147.0611299	64.03951566	-175.6173566
4.01	401	1.293	0.195	0.467	28.8770832	52.139178	13.3499214	-147.5939808	63.6842817	-176.5283598
4.02	402	0.424	0.69	0.51	33.0596766	27.5592798	34.2628884	-148.1497501	63.63271548	-177.5138476
4.03	403	0.229	0.435	0.814	59.2438572	31.8564648	37.8725238	-148.5393615	63.55823094	-178.6253861
4.04	404	0.285	0.394	0.715	23.491278	57.5249832	45.83664	-149.7024662	63.311859	179.8171387
4.05	405	0.185	0.308	0.617	13.9801752	77.5212174	57.6395748	-151.3353965	62.91651798	177.834704
4.06	406	0.082	0.306	0.569	8.5370742	86.4020664	62.1086472	-153.1230255	62.45815158	175.7376778
4.07	407	0.008	0.353	0.682	0.572958	77.2347384	61.4783934	-154.8418995	62.0513514	173.7953501
4.08	408	0.451	0.184	0.521	-8.307891	84.224826	56.436363	-156.5665031	61.5356892	171.9504254
4.09	409	0.67	0.191	0.527	-16.3865988	82.3913604	47.7846972	-158.1535967	60.97419036	170.3404134
4.1	410	0.715	0.235	0.617	-16.1574156	68.8122558	46.2377106	-159.5573438	60.5043648	168.9309367
4.11	411	0.685	0.299	0.593	-17.18874	64.0567044	47.6128098	-160.9209839	60.08037588	167.5672967
4.12	412	0.705	0.248	0.604	-14.7823164	59.874111	48.70143	-162.2215985	59.67930528	166.2494933
4.13	413	0.628	0.189	0.653	-8.6516658	57.4676874	46.8106686	-163.3789737	59.28396426	165.011904
4.14	414	0.642	0.127	0.64	-9.3965112	50.0765292	46.1804148	-164.4733235	58.94018946	163.8602584
4.15	415	0.728	0.068	0.615	-11.6883432	49.3316838	50.420304	-165.6306986	58.59641466	162.651317
4.16	416	0.786	0.073	0.643	-11.6883432	46.696077	52.4829528	-166.7766146	58.27555818	161.4481052
4.17	417	0.886	-0.048	0.703	-9.3392154	45.2063862	57.6968706	-167.9511785	57.97189044	160.1818681
4.18	418	0.94	0.065	0.717	-15.0114996	34.4347758	60.2751816	-169.1658495	57.76562556	158.9328196
4.19	419	1.024	0.002	0.828	-22.631841	16.5011904	64.5723666	-170.455005	57.71978892	157.6895008
4.2	420	0.987	0.066	0.785	-24.1788276	-3.6669312	62.2805346	-171.6639464	57.85156926	156.5493143
4.21	421	1.019	0.053	0.814	-19.6524594	-16.6730778	54.8893764	-172.678082	58.09221162	155.5810153
4.22	422	1.039	0.037	0.826	-20.7410796	-31.9710564	49.2170922	-173.5948148	58.4703639	154.7444966
4.23	423	1.052	0.059	0.801	-24.1788276	-46.5241896	44.5188366	-174.465711	58.97456694	154.0053808
4.24	424	1.024	0.064	0.748	-18.4492476	-47.9565846	41.1383844	-175.2334747	59.49022914	153.3178312
4.25	425	1.084	-0.013	0.804	-18.6784308	-52.8840234	50.3630082	-176.184585	60.04026882	152.4297463
4.26	426	1.128	0.051	0.74	-25.6112226	-60.16059	55.6915176	-177.3247714	60.67052262	151.4098811
4.27	427	1.113	-0.009	0.763	-35.6379876	-67.8382272	56.9520252	-178.6253861	61.3638018	150.3212609
4.28	428	1.046	0.139	0.716	-26.9863218	-75.4585686	52.5402486	-179.8056796	62.12583594	149.2784773
4.29	429	0.989	0.138	0.68	-11.6310474	-83.1362058	49.2170922	179.1754258	62.94516588	148.2586121
4.3	430	0.939	0.226	0.635	11.8029348	-84.8550798	41.4248634	178.5165241	63.7702254	147.3705272
4.31	431	0.939	0.135	0.519	33.804522	-77.1201468	39.4768062	178.0638872	64.5150708	146.4767127
4.32	432	0.885	0.058	0.451	25.5539268	-76.5471888	30.8251404	177.6685462	65.2599162	145.7433265
4.33	433	0.894	0.036	0.326	41.6540466	-69.7289886	22.8610242	177.5883321	65.93600664	145.176098
4.34	434	0.94	-0.231	0.421	30.8824362	-67.895523	23.4339822	177.3648785	66.59490834	144.5802217
4.35	435	0.919	-0.163	0.398	24.923673	-64.0567044	17.761698	177.1643432	67.21943256	144.0817483
4.36	436	0.875	-0.099	0.386	24.5798982	-63.8275212	13.2353298	177.0783995	67.8382272	143.703596
4.37	437	0.832	-0.109	0.4	25.3247436	-66.9787902	10.8289062	177.044022	68.49139932	143.3770099
4.38	438	0.835	-0.14	0.436	25.4393352	-67.8382272	10.9434978	176.9924558	69.1560306	143.0389647
4.39	439	0.849	-0.119	0.431	22.2880662	-64.9734372	9.167328	176.9466191	69.79201398	142.7410265
4.4	440	0.883	-0.054	0.439	21.772404	-64.171296	6.875496	176.9408896	70.41080862	142.488925
4.41	441	0.91	-0.108	0.465	22.345362	-64.0567044	6.9327918	176.9408896	71.04106242	142.2368235
4.42	442	0.903	-0.119	0.477	17.9335854	-63.311859	4.9274388	176.9408896	71.65985706	142.0362882
4.43	443	0.934	-0.164	0.462	15.2406828	-64.5150708	6.016059	176.8721346	72.29011086	141.7956458
4.44	444	0.951	-0.165	0.45	6.875496	-63.5410422	4.010706	176.7690022	72.92036466	141.6065697
4.45	445	0.962	-0.146	0.378	-3.3231564	-59.9887026	2.5210152	176.5627373	73.50478182	141.4174936
4.46	446	0.967	-0.129	0.255	-12.9488508	-57.4676874	1.0313244	176.3335541	74.07773982	141.3086315
4.47	447	0.905	-0.11	0.163	-20.5691922	-58.5563076	-0.1718874	176.0528047	74.6564274	141.2226878
4.48	448	0.858	-0.109	0.117	-22.6891368	-54.8320806	-0.6875496	175.7548665	75.2007375	141.1539329
4.49	449	0.85	-0.092	0.065	-24.5226024	-47.8992888	-3.2658606	175.542872	75.68202222	141.1825808
4.5	450	0.845	-0.078	0.08	-20.5691922	-43.258329	-6.0733548	175.4626579	76.12319988	141.3086315
4.51	451	0.865	-0.103	0.123	-15.0114996	-41.539455	-8.7089616	175.5772495	76.54145922	141.5779218
4.52	452	0.903	-0.114	0.154	-11.9748222	-38.6173692	-12.891555	175.9210243	76.93680024	142.0534769
4.53	453	0.897	-0.108	0.161	-10.3705398	-33.231564	-17.9908812	176.5455485	77.27484546	142.7983223
4.54	454	0.891	-0.094	0.152	-10.026765	-26.929026	-21.3713334	177.3648785	77.55559488	143.7322439
4.55	455	0.874	-0.067	0.154	-10.0840608	-21.6578124	-21.9442914	178.2185859	77.78477808	144.7177316
4.56	456	0.878	-0.031	0.157	-9.3392154	-17.5898106	-21.1421502	179.1066708	77.96239506	145.7204081
4.57	457	0.899	-0.017	0.151	-7.3911582	-12.8342592	-18.621135	179.9145416	78.0941754	146.6199522
4.58	458	0.919	-0.004	0.145	-6.6463128	-9.5111028	-15.8136408	-179.3816906	78.18584868	147.3991751
4.59	459	0.929	0.005	0.175	-6.9327918	-7.6776372	-13.1207382	-178.8144622	78.26033322	148.0523472
4.6	460	0.948	0.018	0.192	-7.3338624	-6.9327918	-10.0840608	-178.3331775	78.32908818	148.6195756
4.61	461	0.972	0.037	0.228	-6.5317212	-6.4171296	-6.302538	-178.0753464	78.39211356	148.9461617
4.62	462	0.998	0.039	0.258	-4.6982556	-4.9847346	-3.437748	-177.9435661	78.44367978	149.1295082
4.63	463	1.008	0.03	0.274	-3.724227	-4.870143	-1.0886202	-177.9149182	78.48951642	149.1982632
4.64	464	0.998	0.004	0.294	-3.8388186	-5.6149884	0.7448454	-177.972214	78.54681222	149.1810745
4.65	465	0.971	-0.007	0.297	-4.5263682	-5.72958	1.6615782	-178.1154535	78.54681222	149.077942
4.66	466	0.951	-0.009	0.287	-4.3544808	-5.3858052	0.8021412	-178.1842084	78.60410802	149.0492941
4.67	467	0.936	-0.009	0.279	-2.9220858	-5.2712136	-0.5156622	-178.1727493	78.65567424	149.0951308
4.68	468	0.937	-0.009	0.255	-1.145916	-5.5576926	-1.4896908	-178.0925351	78.71297004	149.186804
4.69	469	0.941	-0.012	0.223	0.4010706	-5.9014674	-1.8907614	-177.972214	78.77026584	149.3013956
4.7	470	0.935	-0.007	0.197	1.4896908	-4.870143	-2.291832	-177.8289745	78.82183206	149.433176
4.71	471	0.933	-0.003	0.185	2.7501984	-3.3804522	-2.6929026	-177.6513575	78.85047996	149.5878746
4.72	472	0.935	-0.002	0.184	4.5263682	-2.3491278	-2.6929026	-177.4565518	78.87339828	149.7368437
4.73	473	0.94	-0.004	0.186	6.7036086	-0.9167328	-2.8074942	-177.2388277	78.87912786	149.8915424
4.74	474	0.948	-0.007	0.196	7.9641162	0	-3.0939732	-176.9981854	78.87912786	150.0519706
4.75	475	0.958	-0.011	0.208	8.6516658	1.0313244	-3.2658606	-176.7861909	78.85620954	150.1780214
4.76	476	0.97	-0.013	0.218	8.8235532	2.578311	-3.3231564	-176.5340894	78.82756164	150.3441792
4.77	477	0.978	-0.012	0.223	8.7089616	4.0680018	-3.0366774	-176.3106358	78.78745458	150.4816891
4.78	478	0.983	-0.008	0.228	8.1360036	5.5003968	-2.5210152	-176.1215596	78.73015878	150.5905511
4.79	479	0.983	-0.006	0.232	7.3911582	6.6463128	-1.7761698	-175.9897793	78.66140382	150.6535765
4.8	480	0.978	-0.004	0.232	6.7609044	7.734933	-0.572958	-175.9439426	78.57546012	150.6249286
4.81	481	0.967	-0.003	0.226	5.6149884	9.2246238	0.4583664	-175.9554018	78.48378684	150.5561737
4.82	482	0.957	-0.003	0.218	4.6982556	10.6570188	1.432395	-176.0298863	78.37492482	150.4358525
4.83	483	0.952	-0.006	0.211	4.010706	12.0894138	2.3491278	-176.1559371	78.26033322	150.2639651
4.84	484	0.947	-0.008	0.212	3.5523396	13.6364004	3.0939732	-176.3278245	78.12855288	150.0519706
4.85	485	0.95	-0.011	0.219	3.5523396	14.896908	3.4950438	-176.5455485	77.9795838	149.7998691
4.86	486	0.96	-0.013	0.232	3.437748	16.4438946	4.010706	-176.7632726	77.81915556	149.542038
4.87	487	0.967	-0.018	0.237	2.9793816	17.5325148	4.297185	-176.9981854	77.64726816	149.2727477
4.88	488	0.976	-0.017	0.253	2.5210152	18.2200644	4.1252976	-177.221639	77.46965118	149.0206462
4.89	489	0.981	-0.022	0.264	2.1199446	18.907614	3.7815228	-177.4336334	77.28630462	148.7857334
4.9	490	0.981	-0.019	0.27	2.0626488	18.6784308	3.151269	-177.6398983	77.0914989	148.5508207
4.91	491	0.978	-0.021	0.276	2.005353	18.5065434	2.4064236	-177.7774082	76.90815234	148.3903924
4.92	492	0.98	-0.025	0.283	1.6615782	18.2200644	1.7761698	-177.8919998	76.73053536	148.2643417
4.93	493	0.986	-0.027	0.293	1.3178034	17.5898106	0.9740286	-177.9664844	76.55864796	148.1726684
4.94	494	0.99	-0.026	0.305	1.2032118	16.9595568	0.1145916	-178.0065914	76.38676056	148.1211022
4.95	495	1.001	-0.027	0.318	1.3750992	16.2147114	-0.6875496	-178.0524281	76.203414	148.0638064
4.96	496	1.011	-0.026	0.327	1.4896908	15.183387	-1.3750992	-178.0180506	76.05444492	148.0809951
4.97	497	1.011	-0.024	0.329	1.2032118	13.8655836	-1.9480572	-177.9664844	75.916935	148.1268317
4.98	498	1.007	-0.021	0.327	1.0313244	12.6623718	-2.3491278	-177.8919998	75.79088424	148.1898571
4.99	499	1.003	-0.017	0.328	1.2032118	11.2299768	-2.578311	-177.8117857	75.67629264	148.2643417
5	500	0.997	-0.016	0.33	1.6615782	9.453807	-2.6356068	-177.7602195	75.55024188	148.3044487
5.01	501	0.991	-0.016	0.332	1.8334656	7.8495246	-2.7501984	-177.6513575	75.47002776	148.396122
5.02	502	0.984	-0.012	0.329	1.8907614	6.2452422	-2.6929026	-177.5424955	75.40700238	148.4877953
5.03	503	0.98	-0.012	0.322	1.9480572	4.583664	-2.6929026	-177.4336334	75.36116574	148.5794686
5.04	504	0.975	-0.01	0.31	1.7761698	3.5523396	-2.5210152	-177.330501	75.32678826	148.6711418
5.05	505	0.975	-0.012	0.308	1.6615782	2.6929026	-2.3491278	-177.3075827	75.25230372	148.6768714
5.06	506	0.978	-0.011	0.309	1.9480572	1.718874	-2.1772404	-177.2101798	75.23511498	148.7628151
5.07	507	0.98	-0.011	0.309	2.291832	0.6875496	-2.2345362	-177.1013178	75.22365582	148.8487588
5.08	508	0.979	-0.012	0.312	2.6929026	-0.2291832	-2.2345362	-176.9867262	75.22365582	148.9347025
5.09	509	0.978	-0.012	0.31	2.578311	-0.9167328	-2.3491278	-176.866405	75.23511498	149.0321054
5.1	510	0.975	-0.011	0.304	2.1772404	-1.4896908	-2.4637194	-176.8205684	75.20646708	149.0607533
5.11	511	0.973	-0.01	0.303	2.0626488	-1.9480572	-2.291832	-176.7059768	75.22365582	149.1581561
5.12	512	0.974	-0.01	0.304	2.1772404	-2.0626488	-2.2345362	-176.5913852	75.24084456	149.255559
5.13	513	0.975	-0.008	0.302	2.1772404	-1.9480572	-2.291832	-176.471064	75.26376288	149.3529619
5.14	514	0.974	-0.007	0.298	2.0626488	-1.9480572	-2.1772404	-176.362202	75.28095162	149.4446351
5.15	515	0.971	-0.005	0.293	1.718874	-1.9480572	-2.0626488	-176.3220949	75.26376288	149.4675535
5.16	516	0.968	-0.005	0.288	1.5469866	-2.1772404	-1.8334656	-176.2304216	75.2866812	149.5477676
5.17	517	0.966	-0.003	0.29	1.4896908	-2.578311	-1.6615782	-176.1387484	75.30959952	149.6222521
5.18	518	0.965	-0.004	0.29	1.432395	-2.6929026	-1.432395	-176.0585342	75.33824742	149.6910071
5.19	519	0.964	-0.006	0.29	1.2032118	-2.578311	-1.3178034	-175.9897793	75.36116574	149.7483029
5.2	520	0.963	-0.006	0.285	0.6875496	-2.7501984	-1.145916	-176.0298863	75.35543616	149.7024662
5.21	521	0.963	-0.006	0.285	0.4010706	-2.7501984	-0.9167328	-175.9783201	75.38408406	149.7540325
5.22	522	0.962	-0.006	0.285	0.1718874	-2.4064236	-0.7448454	-175.9382131	75.40700238	149.7941395
5.23	523	0.961	-0.005	0.281	0.1718874	-1.9480572	-0.572958	-175.9038356	75.42419112	149.8227874
5.24	524	0.959	-0.006	0.28	0	-1.3750992	-0.3437748	-175.8866468	75.44137986	149.8457057
5.25	525	0.959	-0.007	0.279	-0.1145916	-0.7448454	-0.2291832	-176.2361512	75.35543616	149.4962014
5.26	526	0.958	-0.007	0.279	-0.1718874	-0.3437748	-0.2291832	-176.2246921	75.36116574	149.5076605
5.27	527	0.961	-0.007	0.28	-0.1145916	-0.1145916	-0.1718874	-176.2189625	75.36116574	149.5191197
5.28	528	0.962	-0.006	0.283	0	-0.1145916	-0.1718874	-176.2132329	75.36116574	149.5248493
5.29	529	0.963	-0.007	0.282	0.0572958	0.1145916	-0.1145916	-176.2075033	75.36116574	149.5305788
5.3	530	0.962	-0.007	0.28	0	0.4583664	-0.1718874	-176.5512781	75.24657414	149.1925336
5.31	531	0.961	-0.006	0.28	0.0572958	0.7448454	-0.1145916	-176.5455485	75.24084456	149.1925336
5.32	532	0.961	-0.006	0.281	0.286479	1.145916	-0.0572958	-176.5455485	75.2293854	149.1925336
5.33	533	0.962	-0.007	0.283	0.4010706	1.5469866	-0.1145916	-176.539819	75.21219666	149.1925336
5.34	534	0.964	-0.009	0.284	0.4010706	2.1199446	-0.1718874	-176.5340894	75.19500792	149.1925336
5.35	535	0.964	-0.008	0.284	0.2291832	2.3491278	-0.2291832	-176.6658697	75.12052338	149.0607533
5.36	536	0.965	-0.007	0.287	0.1718874	2.1772404	-0.3437748	-176.6601401	75.10333464	149.0664829
5.37	537	0.967	-0.009	0.289	0.1718874	2.3491278	-0.3437748	-176.648681	75.07468674	149.0722124
5.38	538	0.968	-0.009	0.292	0	2.5210152	-0.4583664	-176.6429514	75.05176842	149.0836716
5.39	539	0.971	-0.009	0.294	-0.1718874	2.6356068	-0.5156622	-176.6314922	75.02312052	149.0951308
5.4	540	0.969	-0.009	0.293	-0.1145916	2.5210152	-0.572958	-176.7403543	74.96009514	148.9919983
5.41	541	0.969	-0.008	0.296	0	2.4064236	-0.6302538	-176.7231655	74.93717682	149.0091871
5.42	542	0.97	-0.009	0.298	0.1718874	2.4064236	-0.859437	-176.6945176	74.90852892	149.037835
5.43	543	0.971	-0.009	0.298	0.1718874	2.4064236	-0.9167328	-176.6658697	74.8856106	149.0664829
5.44	544	0.968	-0.007	0.298	0.1718874	2.2345362	-0.9740286	-176.6372218	74.86269228	149.0951308
5.45	545	0.969	-0.008	0.299	0.286479	2.1199446	-0.9167328	-176.7231655	74.79393732	149.0091871
5.46	546	0.968	-0.008	0.298	0.4010706	1.9480572	-1.0313244	-176.688788	74.771019	149.037835
5.47	547	0.966	-0.007	0.297	0.4583664	1.6042824	-1.145916	-176.6429514	74.75383026	149.077942
5.48	548	0.969	-0.007	0.299	0.5156622	1.3178034	-1.2032118	-176.5971148	74.7423711	149.1180491
5.49	549	0.971	-0.007	0.301	0.4583664	1.2032118	-1.2032118	-176.5512781	74.73091194	149.1638857
5.5	550	0.974	-0.006	0.303	0.286479	1.0886202	-1.2032118	-176.6658697	74.6564274	149.0550237
5.51	551	0.974	-0.006	0.303	0	0.7448454	-1.145916	-176.6257627	74.64496824	149.0951308
5.52	552	0.971	-0.005	0.301	-0.286479	0.4583664	-1.0313244	-176.5913852	74.63923866	149.1295082
5.53	553	0.97	-0.005	0.299	-0.2291832	0.2291832	-0.9740286	-176.5570077	74.63923866	149.1696153
5.54	554	0.967	-0.005	0.295	-0.1145916	0.286479	-0.9740286	-176.5226302	74.63350908	149.2039928
5.55	555	0.964	-0.006	0.293	0.1718874	0.4583664	-0.9167328	-176.7059768	74.55329496	149.0206462
5.56	556	0.966	-0.007	0.295	0.286479	0.6302538	-0.9167328	-176.6715993	74.54756538	149.0550237
5.57	557	0.967	-0.007	0.297	0.0572958	0.7448454	-1.0313244	-176.6372218	74.5418358	149.0951308
5.58	558	0.967	-0.005	0.298	0	0.572958	-1.0886202	-176.5971148	74.53037664	149.1352378
5.59	559	0.966	-0.005	0.297	-0.0572958	0.1718874	-1.0313244	-176.5627373	74.53037664	149.1696153
5.6	560	0.966	-0.004	0.295	-0.2291832	0.1718874	-1.0313244	-176.7117064	74.46735126	149.0263758
5.61	561	0.966	-0.005	0.293	-0.2291832	0.1145916	-0.9740286	-176.6773289	74.46162168	149.0664829
5.62	562	0.966	-0.004	0.294	-0.1145916	0.2291832	-0.9740286	-176.6429514	74.46162168	149.1008603
5.63	563	0.966	-0.004	0.294	0	0.286479	-0.859437	-176.6143035	74.4558921	149.1352378
5.64	564	0.967	-0.004	0.297	0.1718874	0.2291832	-0.8021412	-176.5856556	74.4558921	149.1638857
5.65	565	0.966	-0.005	0.298	0.2291832	0.286479	-0.8021412	-176.7690022	74.37567798	148.9805392
5.66	566	0.966	-0.005	0.297	0.286479	0.286479	-0.859437	-176.7346247	74.37567798	149.0091871
5.67	567	0.964	-0.005	0.295	0.3437748	0.2291832	-0.8021412	-176.7059768	74.3699484	149.037835
5.68	568	0.964	-0.004	0.294	0.2291832	0.286479	-0.6875496	-176.6773289	74.36421882	149.0664829
5.69	569	0.965	-0.005	0.295	0.286479	0.1718874	-0.6302538	-176.648681	74.36421882	149.0894012
5.7	570	0.966	-0.004	0.295	0.3437748	0.1718874	-0.572958	-176.8320275	74.30119344	148.9117842
5.71	571	0.966	-0.005	0.294	0.3437748	0.2291832	-0.5156622	-176.8091092	74.30119344	148.9289729
5.72	572	0.966	-0.004	0.294	0.3437748	0.2291832	-0.572958	-176.7804613	74.29546386	148.9518913
5.73	573	0.965	-0.005	0.295	0.286479	0.3437748	-0.572958	-176.757543	74.29546386	148.9748096
5.74	574	0.966	-0.005	0.295	0.286479	0.4010706	-0.572958	-176.7346247	74.28973428	148.9919983
5.75	575	0.967	-0.006	0.296	0.286479	0.4583664	-0.572958	-176.8950529	74.23816806	148.8372997
5.76	576	0.968	-0.006	0.297	0.1718874	0.572958	-0.572958	-176.8721346	74.23243848	148.8544884
5.77	577	0.966	-0.005	0.295	0	0.572958	-0.5156622	-176.8549459	74.2267089	148.8716771
5.78	578	0.965	-0.004	0.295	-0.1145916	0.572958	-0.4583664	-176.8434867	74.22097932	148.8888659
5.79	579	0.966	-0.005	0.295	-0.0572958	0.6875496	-0.4010706	-176.826298	74.20952016	148.9060546
5.8	580	0.963	-0.005	0.293	-0.1718874	0.6875496	-0.4583664	-176.975267	74.17514268	148.7628151
5.81	581	0.963	-0.004	0.291	-0.2291832	0.8021412	-0.5156622	-176.9638079	74.1694131	148.7800039
5.82	582	0.963	-0.005	0.293	-0.1145916	0.9167328	-0.4010706	-176.9523487	74.15795394	148.7971926
5.83	583	0.964	-0.005	0.295	-0.1718874	1.0313244	-0.572958	-176.93516	74.14649478	148.8143813
5.84	584	0.964	-0.006	0.297	-0.286479	1.0886202	-0.5156622	-176.9237008	74.13503562	148.8315701
5.85	585	0.965	-0.005	0.297	-0.4010706	1.0886202	-0.572958	-177.0211037	74.09492856	148.7398968
5.86	586	0.966	-0.006	0.298	-0.3437748	1.145916	-0.6302538	-177.0039149	74.0834694	148.7628151
5.87	587	0.967	-0.006	0.298	-0.4583664	1.3178034	-0.6875496	-176.9867262	74.07201024	148.7800039
5.88	588	0.965	-0.006	0.296	-0.6302538	0.6875496	0	-176.9924558	74.06628066	148.7800039
5.89	589	0.964	-0.004	0.298	-0.572958	0.6302538	-0.0572958	-176.9981854	74.06055108	148.7857334
5.9	590	0.966	-0.005	0.299	-0.5156622	0.7448454	-0.0572958	-177.1586136	74.00898486	148.6367644
5.91	591	0.967	-0.004	0.299	-0.4583664	0.572958	-0.1145916	-177.1586136	74.00325528	148.6367644
5.92	592	0.968	-0.004	0.301	-0.286479	0.4010706	-0.1145916	-177.1586136	73.9975257	148.6424939
5.93	593	0.967	-0.005	0.301	-0.1145916	0.286479	-0.0572958	-177.1586136	73.99179612	148.6424939
5.94	594	0.967	-0.004	0.301	-0.0572958	0.1718874	-0.0572958	-177.1586136	73.99179612	148.6424939
5.95	595	0.967	-0.004	0.301	0	0.1145916	-0.1145916	-177.6227096	73.84855662	148.1841275
5.96	596	0.966	-0.004	0.301	0.0572958	0	0	-177.6227096	73.84855662	148.1841275
5.97	597	0.964	-0.003	0.3	0.1145916	-0.1718874	0	-177.6227096	73.8542862	148.1841275
5.98	598	0.966	-0.005	0.3	0.286479	-0.3437748	0	-177.61698	73.8542862	148.1898571
5.99	599	0.968	-0.004	0.301	0.3437748	-0.4583664	0	-177.6112504	73.86001578	148.1898571
6	600	0.968	-0.003	0.3	0.286479	-0.4583664	0.1145916	-177.6914645	73.8256383	148.1039134
6.01	601	0.968	-0.003	0.301	0.1718874	-0.6875496	0.2291832	-177.6971941	73.83136788	148.0981838
6.02	602	0.966	-0.004	0.3	0.0572958	-0.572958	0.286479	-177.7086533	73.83709746	148.0867247
6.03	603	0.965	-0.004	0.299	0.0572958	-0.6302538	0.2291832	-177.7143829	73.84855662	148.0809951
6.04	604	0.965	-0.004	0.3	0.0572958	-0.7448454	0.2291832	-177.7201124	73.8542862	148.0695359
6.05	605	0.966	-0.006	0.302	0	-0.6302538	0.1718874	-177.8461632	73.81417914	147.9492148
6.06	606	0.967	-0.005	0.3	0.1145916	-0.6302538	0.286479	-177.8518928	73.81990872	147.9377556
6.07	607	0.967	-0.006	0.3	0.0572958	-0.6302538	0.1718874	-177.8576224	73.8256383	147.932026
6.08	608	0.966	-0.006	0.299	0	-0.6875496	0.1718874	-177.8576224	73.83136788	147.9262964
6.09	609	0.965	-0.005	0.298	-0.0572958	-0.6302538	0.1145916	-177.8633519	73.83709746	147.9262964
6.1	610	0.964	-0.004	0.296	0	-0.6302538	0.1145916	-178.0008619	73.80844956	147.7945161
6.11	611	0.963	-0.005	0.293	0	-0.572958	0.0572958	-178.0008619	73.81417914	147.7887865
6.12	612	0.961	-0.004	0.294	0	-0.4010706	0	-178.0008619	73.81990872	147.7945161
6.13	613	0.963	-0.004	0.298	0.0572958	-0.4583664	-0.0572958	-177.9951323	73.8256383	147.7945161
6.14	614	0.967	-0.005	0.299	0.0572958	-0.4583664	0	-177.9894027	73.8256383	147.8002457
6.15	615	0.967	-0.004	0.3	-0.1145916	-0.3437748	0	-178.0696168	73.77980166	147.7200316
6.16	616	0.967	-0.003	0.301	-0.286479	-0.4010706	0	-178.0696168	73.78553124	147.7200316
6.17	617	0.968	-0.005	0.301	-0.4583664	-0.5156622	0	-178.0753464	73.79126082	147.7200316
6.18	618	0.967	-0.003	0.298	-0.5156622	-0.4010706	0.1145916	-178.0868056	73.79126082	147.7200316
6.19	619	0.964	-0.003	0.296	-0.3437748	-0.286479	0.1718874	-178.0982647	73.7969904	147.7085724
6.2	620	0.961	-0.004	0.294	-0.2291832	-0.1145916	0.2291832	-178.2185859	73.77407208	147.5939808
6.21	621	0.961	-0.005	0.292	-0.286479	0	0.286479	-178.2357746	73.77407208	147.5825216
6.22	622	0.962	-0.006	0.295	-0.286479	0.1145916	0.1718874	-178.2472338	73.77407208	147.5710625
6.23	623	0.965	-0.007	0.303	-0.2291832	0.0572958	0.1718874	-178.2529634	73.77407208	147.5653329
6.24	624	0.968	-0.005	0.303	-0.286479	-0.1718874	0.0572958	-178.258693	73.77407208	147.5653329
6.25	625	0.967	-0.004	0.3	-0.5156622	-0.286479	0	-178.3217183	73.75115376	147.5080371
6.26	626	0.967	-0.004	0.3	-0.4010706	-0.2291832	0	-178.3274479	73.75115376	147.5080371
6.27	627	0.967	-0.004	0.302	-0.2291832	-0.286479	-0.1145916	-178.3217183	73.75688334	147.5137667
6.28	628	0.966	-0.004	0.3	-0.1145916	-0.2291832	-0.1718874	-178.3159888	73.75688334	147.5194963
6.29	629	0.965	-0.004	0.299	0	0.1145916	-0.2291832	-178.3102592	73.75688334	147.5309554
6.3	630	0.964	-0.004	0.299	0.1145916	0.0572958	-0.2291832	-178.3274479	73.71677628	147.5080371
6.31	631	0.964	-0.003	0.299	0.286479	0	-0.2291832	-178.3159888	73.71677628	147.5194963
6.32	632	0.964	-0.004	0.299	0.5156622	0	-0.286479	-178.2988	73.71677628	147.5309554
6.33	633	0.965	-0.005	0.3	0.6302538	-0.0572958	-0.286479	-178.2816113	73.71677628	147.5424146
6.34	634	0.968	-0.004	0.303	0.6302538	0	-0.3437748	-178.2644225	73.71677628	147.5538737
6.35	635	0.97	-0.003	0.303	0.6302538	0.0572958	-0.3437748	-178.2701521	73.68812838	147.5424146
6.36	636	0.97	-0.003	0.303	0.6875496	0.1145916	-0.3437748	-178.2529634	73.68812838	147.5538737
6.37	637	0.968	-0.002	0.303	0.6302538	0	-0.286479	-178.2357746	73.68812838	147.5653329
6.38	638	0.966	-0.002	0.299	0.4583664	0	-0.2291832	-178.2185859	73.68812838	147.5710625
6.39	639	0.965	-0.002	0.298	0.4583664	-0.1145916	0	-178.2128563	73.68812838	147.5767921
6.4	640	0.962	-0.003	0.297	0.1718874	-0.0572958	0.0572958	-178.3389071	73.64229174	147.4507413
6.41	641	0.963	-0.004	0.295	0.0572958	0	0.1145916	-178.3389071	73.64229174	147.4450117
6.42	642	0.962	-0.004	0.294	0	0.1145916	0.1718874	-178.3503662	73.64229174	147.4392821
6.43	643	0.961	-0.003	0.296	0	0.1718874	0.286479	-178.3560958	73.64229174	147.427823
6.44	644	0.962	-0.004	0.295	0	0.3437748	0.4010706	-178.3732846	73.63656216	147.4106342
6.45	645	0.962	-0.004	0.294	-0.0572958	0.5156622	0.3437748	-178.4248508	73.63083258	147.359068
6.46	646	0.961	-0.004	0.295	0	0.6302538	0.3437748	-178.4420395	73.625103	147.3476089
6.47	647	0.962	-0.003	0.299	0	0.6302538	0.286479	-178.4534987	73.61937342	147.3361497
6.48	648	0.964	-0.005	0.301	0	0.6302538	0.4010706	-178.4649578	73.61364384	147.318961
6.49	649	0.967	-0.005	0.303	-0.1145916	0.6875496	0.2291832	-178.476417	73.60218468	147.3075018
6.5	650	0.968	-0.005	0.305	-0.2291832	0.5156622	0.1718874	-178.5107945	73.57353678	147.2731243
6.51	651	0.968	-0.004	0.304	-0.4010706	0.5156622	0.1718874	-178.5279832	73.5678072	147.2673947
6.52	652	0.968	-0.005	0.302	-0.4583664	0.2291832	0.286479	-178.545172	73.5678072	147.2559356
6.53	653	0.966	-0.004	0.302	-0.4010706	0.2291832	0.1718874	-178.5509015	73.56207762	147.250206
6.54	654	0.966	-0.004	0.304	-0.3437748	0.1145916	0	-178.5566311	73.56207762	147.2444764
6.55	655	0.968	-0.005	0.304	-0.2291832	0.0572958	0	-178.6253861	73.5105114	147.181451
6.56	656	0.967	-0.004	0.303	-0.286479	0.0572958	0	-178.6253861	73.5105114	147.181451
6.57	657	0.967	-0.005	0.302	-0.1718874	0.1145916	-0.1145916	-178.6253861	73.5105114	147.1871806
6.58	658	0.965	-0.004	0.302	-0.1718874	0.1145916	-0.1145916	-178.6253861	73.5105114	147.1929102
6.59	659	0.964	-0.003	0.3	-0.1145916	0	-0.1145916	-178.6196565	73.5105114	147.1986398
6.6	660	0.963	-0.004	0.3	-0.1718874	0	-0.1145916	-178.7170594	73.44748602	147.1012369
6.61	661	0.964	-0.004	0.3	-0.2291832	0.0572958	-0.1145916	-178.7113298	73.44748602	147.1069665
6.62	662	0.964	-0.003	0.3	-0.3437748	0	-0.1718874	-178.7113298	73.44748602	147.1184257
6.63	663	0.964	-0.002	0.301	-0.286479	0	0	-178.7113298	73.44748602	147.1184257
6.64	664	0.963	-0.002	0.301	-0.3437748	0	0	-178.7170594	73.44748602	147.1184257
6.65	665	0.963	-0.002	0.303	-0.286479	0	0.0572958	-178.7457073	73.41883812	147.0897778
6.66	666	0.963	-0.002	0.302	-0.286479	-0.0572958	0.0572958	-178.7514368	73.41883812	147.0897778
6.67	667	0.963	-0.003	0.303	-0.2291832	0.0572958	0.1145916	-178.7571664	73.41883812	147.0840482
6.68	668	0.964	-0.003	0.302	-0.2291832	0.2291832	0.2291832	-178.7686256	73.41310854	147.072589
6.69	669	0.964	-0.003	0.301	-0.2291832	0.2291832	0.1718874	-178.7743552	73.41310854	147.0668594
6.7	670	0.965	-0.003	0.301	-0.1145916	0.4010706	0.1145916	-178.7743552	73.3959198	147.072589
6.71	671	0.967	-0.004	0.303	-0.1145916	0.5156622	0.1718874	-178.7800847	73.39019022	147.0668594
6.72	672	0.968	-0.004	0.306	-0.286479	0.6302538	0.1145916	-178.7915439	73.38446064	147.0611299
6.73	673	0.968	-0.003	0.306	-0.2291832	0.5156622	0.0572958	-178.7972735	73.37873106	147.0554003
6.74	674	0.968	-0.003	0.306	-0.3437748	0.4583664	0.1718874	-178.8087326	73.37300148	147.0496707
6.75	675	0.968	-0.004	0.306	-0.4583664	0.286479	0.1718874	-178.8431101	73.35581274	147.0152932
6.76	676	0.965	-0.005	0.304	-0.6302538	0.0572958	0.2291832	-178.8602989	73.35581274	147.0095636
6.77	677	0.965	-0.004	0.304	-0.6302538	-0.0572958	0.2291832	-178.871758	73.35581274	146.9981045
6.78	678	0.962	-0.003	0.304	-0.6875496	-0.1718874	0.3437748	-178.8946763	73.35581274	146.9866453
6.79	679	0.96	-0.004	0.302	-0.5156622	-0.1145916	0.4583664	-178.9175947	73.35581274	146.9694566
6.8	680	0.959	-0.004	0.299	-0.1718874	0	0.4583664	-178.9462426	73.36154232	146.9408087
6.81	681	0.96	-0.005	0.296	-0.0572958	0	0.4583664	-178.9634313	73.3672719	146.9236199
6.82	682	0.96	-0.004	0.3	0.1145916	-0.0572958	0.3437748	-178.9748905	73.3672719	146.9121608
6.83	683	0.966	-0.006	0.304	0.2291832	0	0.4010706	-178.9863496	73.3672719	146.894972
6.84	684	0.968	-0.005	0.308	0.1718874	0	0.4010706	-178.9978088	73.3672719	146.8777833
6.85	685	0.969	-0.005	0.31	0	0	0.4583664	-179.0264567	73.33289442	146.854865
6.86	686	0.967	-0.005	0.309	-0.1718874	-0.2291832	0.5156622	-179.0436454	73.33289442	146.8319467
6.87	687	0.967	-0.005	0.307	-0.3437748	-0.286479	0.572958	-179.0665637	73.338624	146.8147579
6.88	688	0.964	-0.005	0.303	-0.1718874	-0.3437748	0.6875496	-179.0894821	73.34435358	146.7918396
6.89	689	0.963	-0.007	0.3	-0.1718874	-0.286479	0.6302538	-179.1124004	73.34435358	146.7689213
6.9	690	0.962	-0.007	0.302	-0.1718874	0.0572958	0.4583664	-179.1754258	73.33289442	146.7116255
6.91	691	0.962	-0.008	0.302	-0.1718874	0.2291832	0.4583664	-179.1926145	73.32716484	146.6944367
6.92	692	0.963	-0.007	0.306	-0.0572958	0.0572958	0.286479	-179.2040737	73.32716484	146.6829776
6.93	693	0.963	-0.008	0.307	-0.1718874	0	0.1145916	-179.2098032	73.32716484	146.6829776
6.94	694	0.963	-0.007	0.306	-0.1145916	-0.0572958	0	-179.2098032	73.32716484	146.6829776
6.95	695	0.963	-0.008	0.304	0	-0.0572958	-0.1145916	-179.2613695	73.29278736	146.6314114
6.96	696	0.963	-0.006	0.304	0.2291832	-0.0572958	-0.2291832	-179.2499103	73.29278736	146.6371409
6.97	697	0.964	-0.008	0.305	0.4583664	0	-0.3437748	-179.2327216	73.29278736	146.6486001
6.98	698	0.964	-0.005	0.304	0.5156622	-0.0572958	-0.4010706	-179.2155328	73.29278736	146.6657888
6.99	699	0.963	-0.007	0.304	0.5156622	-0.0572958	-0.4583664	-179.1926145	73.29278736	146.6829776
7	700	0.962	-0.005	0.304	0.5156622	-0.0572958	-0.4583664	-179.1696962	73.28705778	146.7001663
7.01	701	0.961	-0.005	0.302	0.5156622	-0.1145916	-0.4583664	-179.1467779	73.28705778	146.7173551
7.02	702	0.961	-0.005	0.302	0.5156622	-0.0572958	-0.3437748	-179.1295891	73.29278736	146.7345438
7.03	703	0.962	-0.005	0.304	0.572958	-0.0572958	-0.286479	-179.1124004	73.29278736	146.746003
7.04	704	0.963	-0.005	0.304	0.572958	0	-0.2291832	-179.0952116	73.29278736	146.7517325
7.05	705	0.964	-0.005	0.309	0.5156622	0	-0.1718874	-179.0894821	73.26413946	146.7517325
7.06	706	0.964	-0.005	0.309	0.5156622	0	-0.1718874	-179.0780229	73.26413946	146.7574621
7.07	707	0.964	-0.006	0.308	0.4583664	0	-0.1145916	-179.0665637	73.26413946	146.7631917
7.08	708	0.965	-0.006	0.308	0.4010706	0.0572958	0	-179.0608342	73.26413946	146.7631917
7.09	709	0.964	-0.005	0.308	0.3437748	0.1145916	0	-179.0608342	73.26413946	146.7631917
7.1	710	0.964	-0.005	0.305	0.2291832	0.1145916	0	-179.11813	73.21257324	146.7001663
7.11	711	0.962	-0.006	0.305	0	0.0572958	0	-179.11813	73.21257324	146.7058959
7.12	712	0.963	-0.004	0.306	0.0572958	0.1145916	0	-179.11813	73.21257324	146.7001663
7.13	713	0.964	-0.005	0.306	0.0572958	0	0.1145916	-179.1238595	73.21257324	146.6944367
7.14	714	0.963	-0.007	0.306	0	0.1145916	0.1145916	-179.1295891	73.20684366	146.6887072
7.15	715	0.961	-0.005	0.305	0.0572958	0.1145916	0.1145916	-179.1410483	73.1953845	146.677248
7.16	716	0.961	-0.007	0.307	0.1718874	0.1145916	0.1145916	-179.1410483	73.1953845	146.6715184
7.17	717	0.963	-0.007	0.306	0.1718874	0.1718874	0.1145916	-179.1467779	73.18965492	146.6657888
7.18	718	0.963	-0.007	0.308	0.1145916	0.1718874	0.1145916	-179.1525074	73.18965492	146.6600593
7.19	719	0.963	-0.008	0.309	-0.0572958	0.1718874	0.1145916	-179.158237	73.18965492	146.6543297
7.2	720	0.962	-0.007	0.31	-0.1718874	0.1718874	0.1145916	-179.2155328	73.14381828	146.6027635
7.21	721	0.962	-0.009	0.309	-0.2291832	0.0572958	0.0572958	-179.2212624	73.14381828	146.5970339
7.22	722	0.962	-0.008	0.309	-0.2291832	0	-0.0572958	-179.2212624	73.14381828	146.6027635
7.23	723	0.963	-0.009	0.309	-0.2291832	-0.1145916	-0.1145916	-179.2155328	73.14381828	146.608493
7.24	724	0.963	-0.008	0.31	-0.1145916	-0.286479	-0.2291832	-179.2098032	73.14381828	146.6142226
7.25	725	0.963	-0.009	0.309	-0.0572958	-0.286479	-0.3437748	-179.2384511	73.13235912	146.5913043
7.26	726	0.963	-0.007	0.308	-0.0572958	-0.4010706	-0.3437748	-179.226992	73.1380887	146.6027635
7.27	727	0.963	-0.007	0.307	-0.0572958	-0.572958	-0.4583664	-179.2098032	73.14381828	146.6199522
7.28	728	0.963	-0.007	0.309	0	-0.572958	-0.4583664	-179.1926145	73.14954786	146.6371409
7.29	729	0.964	-0.008	0.309	0	-0.572958	-0.4583664	-179.1811553	73.15527744	146.6543297
7.3	730	0.964	-0.007	0.308	0	-0.6302538	-0.4010706	-179.1868849	73.14954786	146.6486001
7.31	731	0.964	-0.006	0.309	0.0572958	-0.7448454	-0.286479	-179.1696962	73.16100702	146.6600593
7.32	732	0.964	-0.006	0.311	0.0572958	-0.7448454	-0.286479	-179.158237	73.1667366	146.677248
7.33	733	0.963	-0.007	0.311	0.0572958	-0.859437	-0.286479	-179.1467779	73.17246618	146.6887072
7.34	734	0.963	-0.007	0.309	0.0572958	-0.9740286	-0.286479	-179.1295891	73.18392534	146.7001663
7.35	735	0.963	-0.006	0.308	0.0572958	-0.9167328	-0.3437748	-179.1353187	73.18392534	146.7001663
7.36	736	0.962	-0.007	0.307	0.1145916	-0.9740286	-0.286479	-179.11813	73.1953845	146.7116255
7.37	737	0.961	-0.007	0.306	0.1145916	-0.9740286	-0.2291832	-179.1066708	73.20111408	146.7230846
7.38	738	0.963	-0.007	0.307	0.1718874	-0.9740286	-0.286479	-179.0952116	73.21257324	146.7345438
7.39	739	0.964	-0.008	0.308	0.1718874	-0.9167328	-0.2291832	-179.0837525	73.2240324	146.746003
7.4	740	0.962	-0.006	0.307	0.0572958	-0.6875496	-0.286479	-179.0894821	73.21830282	146.7345438
7.41	741	0.963	-0.007	0.306	0.0572958	-0.6302538	-0.2291832	-179.0780229	73.2240324	146.746003
7.42	742	0.962	-0.007	0.307	0.0572958	-0.6302538	-0.2291832	-179.0722933	73.22976198	146.7574621
