TimeStamp(s)	FrameCounter	AccX	AccY	AccZ	GyrX	GyrY	GyrZ	EulerX	EulerY	EulerZ
0.01	1	-0.004	-1.002	-0.071	0.1718874	0.0572958	0	84.86653896	0.12032118	8.75479824
0.02	2	-0.003	-1.001	-0.074	0.286479	0.4583664	0.0572958	84.86653896	0.12032118	8.76052782
0.03	3	-0.003	-0.999	-0.074	0.3437748	0.4583664	0.0572958	84.87226854	0.12032118	8.7662574
0.04	4	-0.001	-0.998	-0.075	0.572958	0.4010706	0.0572958	84.87799812	0.12032118	8.77198698
0.05	5	0	-0.999	-0.074	0.7448454	0.3437748	0.0572958	84.87226854	0.12605076	8.77771656
0.06	6	-0.001	-1.001	-0.073	0.9167328	0.1718874	0	84.87799812	0.12605076	8.77771656
0.07	7	-0.001	-1.002	-0.072	0.9167328	0.1718874	0	84.88945728	0.12605076	8.77771656
0.08	8	-0.004	-1.002	-0.072	0.9167328	0.1145916	0	84.90091644	0.12605076	8.77771656
0.09	9	-0.005	-1.003	-0.071	0.9167328	0.1145916	0	84.90664602	0.13178034	8.78344614
0.1	10	-0.005	-1.001	-0.071	0.9740286	0.1718874	-0.0572958	84.9123756	0.12605076	8.78344614
0.11	11	-0.005	-1.002	-0.073	0.9167328	0.2291832	-0.0572958	84.91810518	0.12605076	8.78917572
0.12	12	-0.005	-1.006	-0.071	1.0313244	0.2291832	-0.1145916	84.92956434	0.12605076	8.78917572
0.13	13	-0.005	-1.008	-0.072	1.0886202	0.2291832	0	84.9410235	0.12605076	8.7949053
0.14	14	-0.004	-1.009	-0.073	0.9740286	0.1718874	0	84.95248266	0.12605076	8.7949053
0.15	15	-0.004	-1.009	-0.07	0.859437	0.1718874	0	84.94675308	0.12605076	8.80063488
0.16	16	-0.005	-1.007	-0.071	0.6302538	0	0	84.95821224	0.12605076	8.80063488
0.17	17	-0.005	-1.006	-0.072	0.4583664	-0.0572958	0	84.95821224	0.12605076	8.80063488
0.18	18	-0.006	-1.005	-0.073	0.4010706	-0.0572958	-0.0572958	84.96394182	0.12605076	8.7949053
0.19	19	-0.007	-1.003	-0.077	0.286479	-0.0572958	-0.1718874	84.9696714	0.12605076	8.7949053
0.2	20	-0.008	-1	-0.078	0.4583664	-0.1145916	-0.2291832	84.94675308	0.1145916	8.80063488
0.21	21	-0.007	-1	-0.076	0.6875496	-0.1718874	-0.1718874	84.95248266	0.12032118	8.7949053
0.22	22	-0.007	-1.001	-0.076	0.859437	0	-0.1718874	84.95821224	0.12032118	8.7949053
0.23	23	-0.007	-1.001	-0.076	1.0313244	0	-0.1718874	84.9696714	0.12032118	8.7949053
0.24	24	-0.008	-0.999	-0.076	0.9740286	0.1145916	-0.1718874	84.98113056	0.12605076	8.80063488
0.25	25	-0.005	-0.999	-0.077	1.0886202	0.1145916	-0.1718874	84.97540098	0.12032118	8.80063488
0.26	26	-0.005	-1	-0.075	1.0313244	0.0572958	-0.1718874	84.98113056	0.12605076	8.80063488
0.27	27	-0.007	-1.002	-0.075	1.145916	0	-0.2291832	84.99258972	0.12605076	8.80063488
0.28	28	-0.007	-1.003	-0.074	1.2032118	0	-0.2291832	85.00977846	0.12605076	8.80636446
0.29	29	-0.008	-1.004	-0.073	1.145916	0.0572958	-0.2291832	85.02123762	0.13178034	8.80636446
0.3	30	-0.006	-1.003	-0.073	1.0313244	0.1718874	-0.2291832	85.01550804	0.13178034	8.80636446
0.31	31	-0.007	-1.002	-0.072	1.0313244	0.1718874	-0.286479	85.0269672	0.13178034	8.81209404
0.32	32	-0.006	-1.001	-0.07	0.9167328	0.1145916	-0.1718874	85.03842636	0.13178034	8.81209404
0.33	33	-0.005	-1.005	-0.067	0.6302538	0.1718874	-0.1718874	85.04415594	0.13750992	8.81209404
0.34	34	-0.005	-1.008	-0.067	0.4583664	0.3437748	-0.3437748	85.04988552	0.1432395	8.81782362
0.35	35	-0.006	-1.009	-0.071	0.286479	0.4010706	-0.4010706	85.03269678	0.13750992	8.8235532
0.36	36	-0.006	-1.01	-0.072	0.4010706	0.4010706	-0.4583664	85.03842636	0.1432395	8.82928278
0.37	37	-0.008	-1.008	-0.07	0.3437748	0.1718874	-0.2291832	85.03842636	0.1432395	8.82928278
0.38	38	-0.008	-1.005	-0.071	-0.1145916	0	0	85.03842636	0.1432395	8.82928278
0.39	39	-0.005	-1.003	-0.072	0	0.1145916	0	85.03842636	0.1432395	8.82928278
0.4	40	0	-1.003	-0.071	0.0572958	0.1718874	-0.0572958	84.99258972	0.16042824	8.83501236
0.41	41	0	-1.002	-0.07	0	0.286479	-0.1145916	84.99258972	0.16042824	8.84074194
0.42	42	-0.002	-1.003	-0.069	-0.1718874	0.1145916	-0.1145916	84.99258972	0.16042824	8.84074194
0.43	43	-0.003	-1.002	-0.07	-0.1718874	0.0572958	-0.1718874	84.99258972	0.16042824	8.84074194
0.44	44	-0.002	-1.002	-0.071	-0.1718874	0	-0.2291832	84.98686014	0.16615782	8.84074194
0.45	45	-0.002	-1.002	-0.071	-0.1718874	-0.0572958	-0.1145916	84.96394182	0.16042824	8.84074194
0.46	46	-0.002	-1.001	-0.07	-0.286479	0	-0.1718874	84.96394182	0.16042824	8.84074194
0.47	47	-0.003	-1	-0.07	-0.2291832	0	-0.1718874	84.95821224	0.16042824	8.84074194
0.48	48	-0.005	-1	-0.069	-0.0572958	0	-0.1145916	84.95821224	0.16615782	8.84074194
0.49	49	-0.006	-1.001	-0.07	0	0.0572958	-0.0572958	84.95821224	0.16615782	8.84074194
0.5	50	-0.007	-1.001	-0.071	0.0572958	0.1145916	-0.0572958	84.92956434	0.13178034	8.84647152
0.51	51	-0.007	-1.002	-0.069	0	0.286479	-0.0572958	84.92956434	0.13750992	8.8522011
0.52	52	-0.006	-1.003	-0.07	-0.1718874	0.4010706	-0.1145916	84.92956434	0.13750992	8.85793068
0.53	53	-0.004	-1.004	-0.073	0	0.2291832	0	84.92956434	0.13750992	8.85793068
0.54	54	-0.003	-1.004	-0.073	-0.0572958	0	0	84.92383476	0.13750992	8.85793068
0.55	55	-0.004	-1.003	-0.073	-0.0572958	-0.1145916	0	84.87799812	0.12032118	8.86366026
0.56	56	-0.005	-1.004	-0.07	-0.0572958	-0.0572958	0	84.87799812	0.12032118	8.86366026
0.57	57	-0.006	-1.006	-0.07	-0.286479	0.1145916	0	84.87226854	0.12032118	8.86366026
0.58	58	-0.005	-1.005	-0.072	-0.4010706	0.1718874	0.0572958	84.87226854	0.12032118	8.86366026
0.59	59	-0.006	-1.008	-0.073	-0.4010706	0.1145916	0	84.86653896	0.12032118	8.86938984
0.6	60	-0.007	-1.007	-0.072	-0.4010706	0.0572958	0	84.84935022	0.09740286	8.86938984
0.61	61	-0.006	-1.005	-0.071	-0.572958	0.0572958	0.0572958	84.84362064	0.09740286	8.86938984
0.62	62	-0.005	-1.004	-0.073	-0.6302538	0	0.1718874	84.83789106	0.09740286	8.86938984
0.63	63	-0.003	-1.005	-0.072	-0.5156622	0.0572958	0.0572958	84.83216148	0.09740286	8.86938984
0.64	64	-0.003	-1.005	-0.073	-0.4583664	0.0572958	0	84.8264319	0.09740286	8.86938984
0.65	65	-0.003	-1.006	-0.072	-0.4010706	0	0	84.80924316	0.09167328	8.87511942
0.66	66	-0.004	-1.005	-0.071	-0.3437748	-0.0572958	0.0572958	84.80351358	0.09167328	8.87511942
0.67	67	-0.006	-1.003	-0.072	-0.3437748	-0.1145916	0	84.797784	0.09167328	8.86938984
0.68	68	-0.004	-1.001	-0.072	-0.286479	-0.0572958	0.0572958	84.797784	0.09167328	8.86938984
0.69	69	-0.004	-1	-0.071	0	-0.1718874	0	84.797784	0.09167328	8.86938984
0.7	70	-0.005	-1	-0.07	-0.0572958	-0.1718874	0	84.78059526	0.06875496	8.86938984
0.71	71	-0.005	-1	-0.07	0	-0.0572958	-0.1145916	84.78059526	0.06875496	8.86938984
0.72	72	-0.006	-1	-0.072	0.0572958	-0.1145916	-0.1145916	84.78059526	0.06875496	8.86366026
0.73	73	-0.008	-1.002	-0.07	0.0572958	-0.0572958	-0.1718874	84.78059526	0.07448454	8.86366026
0.74	74	-0.007	-1.001	-0.07	0.1145916	0	-0.1145916	84.78632484	0.07448454	8.86366026
0.75	75	-0.006	-1.001	-0.072	0.1718874	-0.1145916	0	84.75767694	0.05156622	8.86938984
0.76	76	-0.007	-1.002	-0.071	0.4010706	-0.0572958	0	84.76340652	0.05156622	8.86938984
0.77	77	-0.005	-1.003	-0.07	0.4010706	-0.0572958	-0.0572958	84.7691361	0.05156622	8.86366026
0.78	78	-0.005	-1.004	-0.071	0.4583664	-0.0572958	-0.0572958	84.7691361	0.05156622	8.86366026
0.79	79	-0.003	-1.003	-0.072	0.5156622	-0.0572958	-0.0572958	84.77486568	0.05156622	8.86366026
0.8	80	-0.001	-1.002	-0.073	0.572958	-0.2291832	-0.1145916	84.77486568	0.0572958	8.86366026
0.81	81	-0.003	-1.002	-0.073	0.6302538	-0.2291832	-0.1145916	84.78059526	0.0572958	8.85793068
0.82	82	-0.004	-1.003	-0.072	0.572958	-0.2291832	-0.1145916	84.78632484	0.0572958	8.85793068
0.83	83	-0.007	-1.005	-0.072	0.5156622	-0.1718874	-0.286479	84.79205442	0.0572958	8.8522011
0.84	84	-0.009	-1.005	-0.072	0.3437748	0	-0.4583664	84.797784	0.06302538	8.8522011
0.85	85	-0.01	-1.005	-0.073	0.3437748	-0.0572958	-0.572958	84.79205442	0.05156622	8.8522011
0.86	86	-0.013	-1.005	-0.074	0.1145916	-0.1718874	-0.572958	84.79205442	0.0572958	8.8522011
0.87	87	-0.014	-1.002	-0.07	0.1718874	0	-0.6302538	84.79205442	0.06302538	8.8522011
0.88	88	-0.012	-1.003	-0.067	0.1145916	0.2291832	-0.5156622	84.797784	0.06875496	8.8522011
0.89	89	-0.009	-1.004	-0.067	-0.3437748	0.4010706	-0.3437748	84.79205442	0.07448454	8.85793068
0.9	90	-0.005	-1.005	-0.073	-0.4010706	0.286479	-0.1718874	84.77486568	0.07448454	8.86366026
0.91	91	-0.003	-1.008	-0.071	-0.286479	0.1145916	-0.0572958	84.7691361	0.07448454	8.86366026
0.92	92	-0.004	-1.008	-0.072	-0.3437748	0	0	84.76340652	0.07448454	8.86366026
0.93	93	-0.005	-1.007	-0.07	-0.2291832	0.1718874	0	84.76340652	0.07448454	8.86366026
0.94	94	-0.004	-1.003	-0.067	-0.2291832	0.286479	0	84.75767694	0.07448454	8.86938984
0.95	95	-0.003	-1.002	-0.066	-0.2291832	0.2291832	0	84.76340652	0.07448454	8.86938984
0.96	96	-0.002	-1.003	-0.064	-0.2291832	0.3437748	0.0572958	84.76340652	0.07448454	8.87511942
0.97	97	0	-1.005	-0.064	-0.4010706	0.4010706	0.0572958	84.75767694	0.07448454	8.87511942
0.98	98	0.001	-1.007	-0.068	-0.4583664	0.5156622	0	84.75194736	0.07448454	8.880849
0.99	99	0.001	-1.008	-0.068	-0.4010706	0.5156622	-0.0572958	84.75194736	0.07448454	8.88657858
1	100	-0.001	-1.007	-0.069	-0.572958	0.4583664	-0.0572958	84.7404882	0.08021412	8.89230816
1.01	101	-0.003	-1.005	-0.07	-0.5156622	0.3437748	0	84.73475862	0.08021412	8.89803774
1.02	102	-0.001	-1.003	-0.069	-0.2291832	0.2291832	0	84.73475862	0.08021412	8.89803774
1.03	103	-0.001	-1.002	-0.069	-0.1718874	0.2291832	0	84.73475862	0.08021412	8.89803774
1.04	104	-0.001	-1.001	-0.069	-0.1145916	0.2291832	0	84.72902904	0.08021412	8.90376732
1.05	105	-0.002	-1.001	-0.07	-0.1145916	0.2291832	0	84.72902904	0.09167328	8.90376732
1.06	106	-0.003	-1.001	-0.068	-0.1145916	0	0	84.72902904	0.09167328	8.90376732
1.07	107	0	-1.001	-0.069	-0.1145916	0	0.0572958	84.72329946	0.0859437	8.90376732
1.08	108	0	-1	-0.072	-0.1145916	-0.0572958	0.0572958	84.72329946	0.0859437	8.90376732
1.09	109	0	-0.999	-0.071	0	-0.4010706	0.1145916	84.72329946	0.0859437	8.89803774
1.1	110	-0.002	-1	-0.07	0.1145916	-0.4583664	0.1145916	84.71756988	0.08021412	8.89803774
1.11	111	-0.004	-1.001	-0.072	0.1145916	-0.4010706	0.1718874	84.72329946	0.08021412	8.89230816
1.12	112	-0.006	-1.001	-0.071	0.2291832	-0.4010706	0.1718874	84.72329946	0.08021412	8.88657858
1.13	113	-0.005	-1.002	-0.071	0.286479	-0.2291832	0.1718874	84.72902904	0.07448454	8.88657858
1.14	114	-0.005	-1.003	-0.071	0.286479	-0.286479	0.1145916	84.72902904	0.07448454	8.880849
1.15	115	-0.005	-1.003	-0.07	0.4010706	-0.4010706	0.1718874	84.73475862	0.06875496	8.880849
1.16	116	-0.003	-1.004	-0.072	0.1145916	-0.2291832	0.2291832	84.73475862	0.06302538	8.87511942
1.17	117	-0.003	-1.005	-0.072	0.1145916	-0.3437748	0.2291832	84.73475862	0.06302538	8.87511942
1.18	118	-0.005	-1.005	-0.074	0	-0.4583664	0.286479	84.73475862	0.0572958	8.86938984
1.19	119	-0.005	-1.006	-0.072	-0.0572958	-0.3437748	0.286479	84.73475862	0.0572958	8.86366026
1.2	120	-0.005	-1.007	-0.071	0	-0.3437748	0.286479	84.72902904	0.04583664	8.86366026
1.21	121	-0.005	-1.005	-0.071	-0.1718874	-0.286479	0.286479	84.72329946	0.04010706	8.85793068
1.22	122	-0.003	-1.005	-0.071	-0.286479	-0.1718874	0.4010706	84.72329946	0.03437748	8.85793068
1.23	123	-0.006	-1.005	-0.071	-0.572958	-0.1718874	0.4583664	84.71756988	0.03437748	8.85793068
1.24	124	-0.006	-1.005	-0.072	-0.6875496	-0.1145916	0.4010706	84.7118403	0.0286479	8.85793068
1.25	125	-0.007	-1.004	-0.073	-0.6302538	-0.1145916	0.286479	84.70038114	0.02291832	8.85793068
1.26	126	-0.006	-1.003	-0.072	-0.6302538	-0.0572958	0.286479	84.69465156	0.01718874	8.8522011
1.27	127	-0.006	-1.002	-0.073	-0.572958	-0.0572958	0.2291832	84.6831924	0.01718874	8.8522011
1.28	128	-0.004	-1.003	-0.071	-0.5156622	-0.0572958	0.2291832	84.6831924	0.01145916	8.8522011
1.29	129	-0.002	-1.003	-0.069	-0.4583664	-0.1718874	0.286479	84.67746282	0.01145916	8.8522011
1.3	130	-0.001	-1.003	-0.069	-0.4583664	-0.1145916	0.286479	84.67746282	0.01145916	8.8522011
1.31	131	0	-1.001	-0.069	-0.4583664	-0.1145916	0.286479	84.67173324	0.01145916	8.84647152
1.32	132	0	-1.001	-0.069	-0.4583664	-0.286479	0.2291832	84.66600366	0.00572958	8.84647152
1.33	133	-0.001	-1.001	-0.068	-0.286479	-0.3437748	0.1145916	84.66027408	0.00572958	8.84074194
1.34	134	-0.003	-1.002	-0.068	-0.1718874	-0.3437748	0	84.66027408	0.00572958	8.84074194
1.35	135	-0.003	-1.002	-0.068	-0.1145916	-0.3437748	-0.1145916	84.66027408	0.00572958	8.83501236
1.36	136	-0.005	-1.003	-0.068	-0.0572958	-0.4010706	-0.2291832	84.66027408	0.01145916	8.82928278
1.37	137	-0.005	-1.005	-0.069	0.0572958	-0.2291832	-0.2291832	84.66027408	0.01145916	8.82928278
1.38	138	-0.006	-1.005	-0.068	0	-0.3437748	-0.286479	84.66027408	0.01718874	8.8235532
1.39	139	-0.002	-1.007	-0.071	0.1145916	-0.2291832	-0.1718874	84.66600366	0.01718874	8.81782362
1.4	140	-0.002	-1.006	-0.071	0	-0.286479	-0.1718874	84.66027408	0.02291832	8.81782362
1.41	141	-0.003	-1.007	-0.071	0	-0.3437748	-0.0572958	84.66027408	0.0286479	8.81209404
1.42	142	-0.005	-1.008	-0.07	-0.1145916	-0.286479	0	84.6545445	0.0286479	8.81209404
1.43	143	-0.008	-1.007	-0.07	-0.3437748	-0.1718874	0	84.6545445	0.0286479	8.80636446
1.44	144	-0.008	-1.006	-0.07	-0.572958	-0.1145916	0	84.64881492	0.0286479	8.80636446
1.45	145	-0.007	-1.005	-0.071	-0.8021412	0	0	84.63735576	0.01718874	8.80636446
1.46	146	-0.005	-1.005	-0.072	-0.8021412	0	0	84.63162618	0.01718874	8.80636446
1.47	147	-0.005	-1.003	-0.071	-0.6875496	0	0	84.6258966	0.01718874	8.80636446
1.48	148	-0.005	-1.004	-0.07	-0.6875496	0	-0.0572958	84.61443744	0.01718874	8.80636446
1.49	149	-0.005	-1.003	-0.071	-0.572958	0.0572958	-0.0572958	84.60870786	0.01718874	8.80636446
1.5	150	-0.004	-1.004	-0.07	-0.3437748	0.0572958	-0.1145916	84.60870786	0.01145916	8.80636446
1.51	151	-0.005	-1.003	-0.071	-0.1718874	0.0572958	-0.1718874	84.60870786	0.01718874	8.80636446
1.52	152	-0.005	-1.003	-0.071	-0.1718874	0.2291832	-0.1145916	84.60297828	0.01718874	8.81209404
1.53	153	-0.003	-1.002	-0.072	-0.1718874	0.1718874	0	84.60297828	0.01718874	8.81209404
1.54	154	-0.004	-1.003	-0.074	-0.0572958	0	0	84.60297828	0.01718874	8.81209404
1.55	155	-0.003	-1.003	-0.075	-0.0572958	-0.0572958	0	84.5686008	0.01718874	8.81209404
1.56	156	-0.004	-1.001	-0.076	-0.0572958	-0.2291832	0	84.5686008	0.01718874	8.81209404
1.57	157	-0.005	-1.001	-0.076	0.1145916	-0.1718874	0	84.5686008	0.01718874	8.81209404
1.58	158	-0.007	-0.999	-0.074	0.1145916	-0.1145916	0	84.57433038	0.01718874	8.80636446
1.59	159	-0.006	-0.999	-0.073	0.0572958	-0.1145916	0	84.57433038	0.01718874	8.80636446
1.6	160	-0.006	-1.001	-0.073	-0.1145916	0	0.0572958	84.56287122	0.00572958	8.80636446
1.61	161	-0.005	-1.004	-0.073	-0.286479	0.1718874	0	84.56287122	0.00572958	8.81209404
1.62	162	-0.004	-1.007	-0.073	-0.3437748	0.1145916	0	84.55714164	0.00572958	8.81209404
1.63	163	-0.005	-1.009	-0.074	-0.286479	0.1718874	0	84.55141206	0.00572958	8.81209404
1.64	164	-0.006	-1.011	-0.072	-0.3437748	0.1145916	0	84.55141206	0.00572958	8.81209404
1.65	165	-0.008	-1.009	-0.074	-0.4010706	0	0.0572958	84.53422332	-0.00572958	8.81209404
1.66	166	-0.007	-1.009	-0.076	-0.286479	-0.0572958	0.1145916	84.52849374	-0.00572958	8.81209404
1.67	167	-0.005	-1.004	-0.076	-0.1145916	0.0572958	0.1718874	84.52849374	-0.00572958	8.81782362
1.68	168	-0.001	-1.002	-0.076	-0.0572958	0.1145916	0.2291832	84.52849374	-0.01145916	8.81782362
1.69	169	0	-1.002	-0.075	-0.1718874	0.1145916	0.2291832	84.52849374	-0.01145916	8.81782362
1.7	170	0	-1.003	-0.073	-0.2291832	0.0572958	0.1718874	84.52849374	0	8.81782362
1.71	171	-0.001	-1.001	-0.072	-0.3437748	0	0.1718874	84.52276416	-0.00572958	8.81782362
1.72	172	-0.003	-0.998	-0.076	-0.3437748	0.0572958	0.1145916	84.51703458	-0.00572958	8.81782362
1.73	173	-0.007	-0.998	-0.076	-0.1718874	0	0	84.51703458	-0.00572958	8.81782362
1.74	174	-0.008	-0.998	-0.077	-0.0572958	0.0572958	-0.0572958	84.51703458	-0.00572958	8.8235532
1.75	175	-0.008	-0.995	-0.078	0.1718874	0.1145916	-0.1145916	84.49411626	-0.01718874	8.8235532
1.76	176	-0.008	-0.995	-0.078	0.4583664	0.1145916	-0.0572958	84.49984584	-0.01718874	8.8235532
1.77	177	-0.007	-0.997	-0.076	0.6875496	0.1718874	0	84.50557542	-0.01718874	8.82928278
1.78	178	-0.007	-0.999	-0.076	0.7448454	0.286479	-0.0572958	84.511305	-0.01718874	8.82928278
1.79	179	-0.005	-1.001	-0.075	0.6875496	0.286479	-0.0572958	84.52276416	-0.01145916	8.83501236
1.8	180	-0.004	-1.003	-0.075	0.572958	0.2291832	-0.0572958	84.51703458	-0.01145916	8.83501236
1.81	181	-0.004	-1.001	-0.076	0.4010706	0.1145916	-0.0572958	84.52276416	-0.01145916	8.83501236
1.82	182	-0.006	-1.002	-0.078	0.5156622	0	-0.1145916	84.52849374	-0.01145916	8.83501236
1.83	183	-0.007	-1.005	-0.074	0.5156622	0	-0.1145916	84.53422332	-0.00572958	8.83501236
1.84	184	-0.005	-1.007	-0.073	0.5156622	0.3437748	-0.1718874	84.5399529	-0.00572958	8.84074194
1.85	185	-0.005	-1.007	-0.077	0.4010706	0.3437748	-0.1145916	84.53422332	-0.00572958	8.84647152
1.86	186	-0.007	-1.007	-0.076	0.3437748	0.572958	-0.2291832	84.5399529	0	8.8522011
1.87	187	-0.008	-1.008	-0.078	0.1718874	0.572958	-0.1718874	84.5399529	0	8.85793068
1.88	188	-0.005	-1.009	-0.077	0.0572958	0.3437748	-0.1145916	84.5399529	0	8.85793068
1.89	189	-0.003	-1.007	-0.077	0	0.2291832	0	84.5399529	0	8.86366026
1.9	190	0	-1.007	-0.075	0	0.1718874	0	84.52276416	0.01718874	8.86366026
1.91	191	0	-1.005	-0.074	-0.2291832	0.1145916	-0.0572958	84.52276416	0.01718874	8.86366026
1.92	192	-0.002	-1.003	-0.075	-0.2291832	-0.0572958	-0.0572958	84.52276416	0.01718874	8.86366026
1.93	193	-0.003	-1.003	-0.074	-0.1145916	0	-0.1145916	84.51703458	0.01718874	8.86366026
1.94	194	-0.002	-1.002	-0.076	-0.1145916	0.0572958	-0.1145916	84.51703458	0.02291832	8.86366026
1.95	195	-0.004	-1	-0.075	-0.0572958	0.2291832	-0.1718874	84.49984584	0.01718874	8.86938984
1.96	196	-0.005	-0.999	-0.077	0.0572958	0.1145916	-0.1718874	84.49984584	0.01718874	8.86938984
1.97	197	-0.003	-0.997	-0.076	0.1145916	0	-0.1718874	84.50557542	0.02291832	8.86938984
1.98	198	-0.002	-0.997	-0.076	0.2291832	0.0572958	-0.2291832	84.50557542	0.02291832	8.86938984
1.99	199	-0.003	-0.999	-0.077	0.2291832	0	-0.2291832	84.511305	0.0286479	8.86938984
2	200	-0.004	-1	-0.076	0.4010706	0.1145916	-0.1145916	84.50557542	0.0286479	8.87511942
2.01	201	-0.002	-1.001	-0.077	0.286479	0	-0.1145916	84.50557542	0.0286479	8.87511942
2.02	202	-0.003	-1.001	-0.078	0.3437748	-0.2291832	0	84.511305	0.0286479	8.86938984
2.03	203	-0.003	-1.002	-0.076	0.5156622	-0.286479	-0.0572958	84.51703458	0.0286479	8.86938984
2.04	204	-0.003	-1.003	-0.077	0.6302538	-0.286479	-0.0572958	84.52276416	0.0286479	8.86366026
2.05	205	-0.003	-1.003	-0.076	0.6302538	-0.4010706	-0.0572958	84.52276416	0.03437748	8.85793068
2.06	206	-0.004	-1.004	-0.077	0.572958	-0.286479	0	84.52849374	0.03437748	8.85793068
2.07	207	-0.004	-1.005	-0.076	0.572958	-0.3437748	0	84.5399529	0.03437748	8.8522011
2.08	208	-0.004	-1.005	-0.077	0.5156622	-0.4010706	0	84.54568248	0.03437748	8.8522011
2.09	209	-0.007	-1.004	-0.075	0.572958	-0.3437748	0	84.55141206	0.03437748	8.84647152
2.1	210	-0.006	-1.003	-0.074	0.6302538	-0.286479	-0.1145916	84.55141206	0.0286479	8.84074194
2.11	211	-0.004	-1.002	-0.074	0.5156622	0	-0.1718874	84.55714164	0.0286479	8.84074194
2.12	212	-0.004	-1.001	-0.071	0.4010706	0.3437748	-0.286479	84.56287122	0.03437748	8.84647152
2.13	213	0	-0.997	-0.063	0.5156622	1.145916	-0.8021412	84.5686008	0.04583664	8.85793068
2.14	214	0.007	-0.992	-0.053	-0.1145916	2.5210152	-1.6615782	84.56287122	0.06302538	8.880849
2.15	215	0.003	-0.987	-0.039	-1.718874	4.0680018	-2.7501984	84.55714164	0.09167328	8.92095606
2.16	216	-0.013	-0.997	-0.042	-4.4117766	5.6149884	-4.010706	84.511305	0.13178034	8.97252228
2.17	217	-0.033	-1.017	-0.051	-7.3911582	6.6463128	-4.8128472	84.43109088	0.18334656	9.02981808
2.18	218	-0.025	-1.042	-0.049	-7.6203414	6.1879464	-4.8128472	84.35660634	0.23491278	9.08711388
2.19	219	0.004	-1.075	-0.065	-8.8235532	5.2712136	-3.724227	84.26493306	0.27501984	9.13295052
2.2	220	0.009	-1.081	-0.085	-10.6570188	5.9587632	-2.6929026	84.15607104	0.30939732	9.19024632
2.21	221	0.002	-1.074	-0.108	-11.8029348	6.4744254	-3.437748	84.03574986	0.3437748	9.24754212
2.22	222	-0.016	-1.06	-0.103	-12.2613012	5.156622	-4.4117766	83.9096991	0.39534102	9.29337876
2.23	223	-0.025	-1.049	-0.088	-11.3445684	3.8961144	-4.8128472	83.7951075	0.44117766	9.32775624
2.24	224	-0.016	-1.035	-0.08	-10.7716104	3.2658606	-4.4117766	83.6805159	0.4870143	9.35067456
2.25	225	-0.011	-1.02	-0.076	-10.599723	2.6356068	-3.3804522	83.57738346	0.52139178	9.37359288
2.26	226	-0.012	-1.01	-0.07	-10.599723	1.9480572	-2.1772404	83.46852144	0.5443101	9.39078162
2.27	227	-0.011	-0.998	-0.069	-10.4278356	1.0886202	-1.0313244	83.365389	0.55576926	9.40224078
2.28	228	-0.003	-0.99	-0.068	-9.6829902	0.0572958	-0.286479	83.26225656	0.55576926	9.40224078
2.29	229	0.003	-0.987	-0.069	-9.2819196	-0.2291832	-0.1145916	83.17058328	0.55576926	9.3965112
2.3	230	0.007	-0.984	-0.068	-9.3392154	-0.3437748	-0.3437748	83.07891	0.56149884	9.39078162
2.31	231	0.005	-0.983	-0.072	-9.6829902	-0.1718874	-0.9167328	82.98150714	0.56722842	9.38505204
2.32	232	0.006	-0.982	-0.072	-10.1986524	0.286479	-1.4896908	82.8783747	0.58441716	9.38505204
2.33	233	0.004	-0.983	-0.074	-10.4278356	0.9740286	-1.8907614	82.77524226	0.6016059	9.3965112
2.34	234	0.006	-0.991	-0.077	-10.7716104	1.6042824	-2.0626488	82.66638024	0.62452422	9.40797036
2.35	235	0.01	-0.999	-0.076	-10.9434978	1.5469866	-2.005353	82.55751822	0.64171296	9.41942952
2.36	236	0.013	-1.007	-0.083	-11.3445684	1.5469866	-2.005353	82.44292662	0.66463128	9.43088868
2.37	237	0.017	-1.018	-0.09	-11.8029348	1.2032118	-2.005353	82.32260544	0.68182002	9.43661826
2.38	238	0.018	-1.023	-0.093	-12.318597	0.6875496	-1.9480572	82.19655468	0.70473834	9.44234784
2.39	239	0.018	-1.029	-0.094	-12.8342592	0.0572958	-1.8334656	82.06477434	0.72192708	9.43661826
2.4	240	0.02	-1.038	-0.092	-13.6936962	-0.3437748	-1.7761698	81.932994	0.73911582	9.43088868
2.41	241	0.022	-1.043	-0.096	-15.1260912	-0.6875496	-1.718874	81.77829534	0.75057498	9.41942952
2.42	242	0.026	-1.046	-0.096	-16.5011904	-0.9740286	-1.6615782	81.61213752	0.76776372	9.40797036
2.43	243	0.029	-1.049	-0.094	-17.8762896	-0.7448454	-1.8907614	81.42879096	0.78495246	9.3965112
2.44	244	0.034	-1.055	-0.096	-19.8816426	-0.286479	-2.1772404	81.22825566	0.8021412	9.38505204
2.45	245	0.03	-1.059	-0.1	-22.2307704	-0.3437748	-2.4637194	81.00480204	0.82505952	9.37359288
2.46	246	0.026	-1.059	-0.108	-24.5798982	-0.9167328	-2.4064236	80.75270052	0.84797784	9.36213372
2.47	247	0.021	-1.06	-0.111	-26.7571386	-1.4896908	-2.0626488	80.48341026	0.859437	9.3392154
2.48	248	0.016	-1.058	-0.112	-28.9916748	-2.4637194	-1.3750992	80.1854721	0.87089616	9.3105675
2.49	249	0.016	-1.058	-0.116	-30.939732	-2.7501984	-0.859437	79.8703452	0.87089616	9.27619002
2.5	250	0.022	-1.054	-0.126	-33.1169724	-2.8074942	-0.572958	79.53802956	0.87089616	9.24754212
2.51	251	0.028	-1.042	-0.121	-35.0650296	-3.6096354	-0.3437748	79.1827956	0.86516658	9.20743506
2.52	252	0.026	-1.036	-0.108	-36.4401288	-4.870143	-0.0572958	78.8103729	0.85370742	9.15586884
2.53	253	0.019	-1.036	-0.104	-37.8725238	-5.2139178	-0.1145916	78.42649104	0.84224826	9.09857304
2.54	254	0.018	-1.035	-0.108	-40.5081306	-5.2712136	-0.2291832	78.01396128	0.8307891	9.04700682
2.55	255	0.017	-1.037	-0.113	-42.9145542	-5.6149884	-0.5156622	77.58424278	0.82505952	8.98398144
2.56	256	0.022	-1.047	-0.117	-44.977203	-5.6722842	-1.0886202	77.12587638	0.81932994	8.92095606
2.57	257	0.028	-1.059	-0.136	-48.0138804	-6.2452422	-1.3750992	76.63886208	0.81360036	8.8522011
2.58	258	0.031	-1.065	-0.154	-51.3943326	-8.307891	-1.0313244	76.1174703	0.8021412	8.7662574
2.59	259	0.03	-1.064	-0.167	-53.9726436	-10.0840608	-0.1145916	75.56743062	0.77922288	8.66312496
2.6	260	0.027	-1.053	-0.171	-56.3217714	-11.6883432	0.6302538	75.0002022	0.73911582	8.54853336
2.61	261	0.021	-1.042	-0.172	-58.0979412	-11.9748222	1.0886202	74.41005546	0.69327918	8.42821218
2.62	262	0.009	-1.025	-0.153	-59.8168152	-11.8602306	1.145916	73.80271998	0.64744254	8.31362058
2.63	263	-0.005	-1.016	-0.153	-62.1086472	-11.0580894	0.8021412	73.17246618	0.6016059	8.20475856
2.64	264	-0.017	-1.012	-0.159	-65.2599162	-9.6829902	0.572958	72.51356448	0.56722842	8.1073557
2.65	265	-0.03	-1.011	-0.154	-67.8382272	-8.9954406	0.6875496	71.82601488	0.52139178	8.01568242
2.66	266	-0.034	-1.021	-0.162	-70.2446508	-7.9641162	1.2032118	71.11554696	0.48128472	7.94119788
2.67	267	-0.021	-1.034	-0.201	-73.625103	-6.9327918	2.1199446	70.37070156	0.4297185	7.8781725
2.68	268	0	-1.031	-0.218	-77.4066258	-7.0473834	3.3231564	69.5857491	0.3724227	7.81514712
2.69	269	0.009	-1.029	-0.223	-79.4119788	-8.307891	4.583664	68.77787832	0.29220858	7.74639216
2.7	270	0.021	-1.02	-0.219	-82.2767688	-8.6516658	5.8441716	67.94708922	0.2005353	7.68336678
2.71	271	0.026	-1.012	-0.219	-84.9696714	-9.0527364	6.8182002	67.08765222	0.09167328	7.6203414
2.72	272	0.029	-1.018	-0.24	-87.8344614	-9.3392154	7.3911582	66.19956732	-0.01145916	7.55158644
2.73	273	0.033	-1.02	-0.266	-91.8451674	-9.3392154	7.9641162	65.26564578	-0.13178034	7.49429064
2.74	274	0.033	-1.006	-0.288	-95.3402112	-10.313244	8.59437	64.29734676	-0.26356068	7.43126526
2.75	275	0.031	-0.987	-0.299	-97.5174516	-11.0580894	9.5111028	63.31758858	-0.40680018	7.36823988
2.76	276	0.022	-0.957	-0.3	-100.840608	-13.0061466	10.886202	62.29199376	-0.56722842	7.29375534
2.77	277	0.012	-0.939	-0.312	-102.6167778	-13.2353298	11.9748222	61.25493978	-0.7448454	7.22500038
2.78	278	0.017	-0.95	-0.301	-104.9659056	-14.1520626	11.5164558	60.19496748	-0.92246238	7.15051584
2.79	279	0.021	-0.934	-0.321	-109.6641612	-14.7823164	11.6310474	59.08342896	-1.11153852	7.0760313
2.8	280	0.023	-0.925	-0.362	-111.6122184	-14.3812458	12.318597	57.96043128	-1.30061466	7.00727634
2.81	281	0.036	-0.953	-0.433	-110.1225276	-14.9542038	12.7196676	56.84316318	-1.49542038	6.94425096
2.82	282	0.05	-0.979	-0.508	-108.86202	-16.6730778	14.5531332	55.74308382	-1.718874	6.875496
2.83	283	0.067	-1.005	-0.559	-108.9193158	-22.6891368	14.7250206	54.64300446	-1.9767051	6.76663398
2.84	284	0.025	-0.977	-0.656	-104.9086098	-28.3041252	12.8342592	53.58876174	-2.25172494	6.60620574
2.85	285	-0.042	-0.983	-0.678	-99.8665794	-29.6792244	9.9121734	52.59181482	-2.51528562	6.42285918
2.86	286	-0.125	-0.962	-0.673	-99.0071424	-24.923673	5.72958	51.5948679	-2.7215505	6.25097178
2.87	287	-0.183	-0.959	-0.716	-96.4288314	-16.2147114	1.2605076	50.62656888	-2.84187168	6.1306506
2.88	288	-0.191	-0.97	-0.773	-95.4548028	-8.5370742	-2.0626488	49.65826986	-2.88770832	6.0447069
2.89	289	-0.169	-0.953	-0.82	-92.532717	-4.4690724	-2.1199446	48.72434832	-2.91062664	5.99314068
2.9	290	-0.124	-0.945	-0.83	-89.667927	-3.5523396	0.859437	47.8133451	-2.95646328	5.97022236
2.91	291	-0.085	-0.914	-0.826	-86.4020664	-5.0420304	4.1825934	46.94244894	-3.03094782	5.9587632
2.92	292	-0.099	-0.906	-0.824	-82.219473	-8.1360036	4.6982556	46.10593026	-3.12835068	5.9301153
2.93	293	-0.139	-0.864	-0.864	-80.9016696	-8.9954406	4.6409598	45.2923299	-3.2372127	5.89573782
2.94	294	-0.156	-0.862	-0.865	-77.1774426	-8.2505952	3.4950438	44.50737744	-3.32888598	5.85563076
2.95	295	-0.145	-0.851	-0.906	-76.8909636	-5.5003968	3.437748	43.72815456	-3.40337052	5.83844202
2.96	296	-0.132	-0.851	-0.909	-74.0834694	-1.9480572	4.297185	42.97757958	-3.45493674	5.85563076
2.97	297	-0.123	-0.834	-0.899	-71.7343416	0.1145916	5.2139178	42.24992292	-3.50077338	5.89573782
2.98	298	-0.128	-0.796	-0.913	-68.9841432	1.145916	6.5317212	41.54518458	-3.54661002	5.94730404
2.99	299	-0.147	-0.766	-0.948	-61.8221682	2.1772404	8.1360036	40.9092012	-3.59244666	6.02178858
3	300	-0.15	-0.775	-0.956	-56.0925882	2.3491278	9.3392154	40.3362432	-3.64401288	6.10773228
3.01	301	-0.131	-0.781	-0.955	-50.3630082	2.1772404	10.026765	39.81485142	-3.6955791	6.19940556
3.02	302	-0.096	-0.786	-0.973	-44.404245	1.3178034	9.5683986	39.3622146	-3.7528749	6.27961968
3.03	303	-0.07	-0.783	-0.966	-40.5081306	1.0313244	8.5370742	38.94395526	-3.8101707	6.35410422
3.04	304	-0.072	-0.766	-0.951	-34.950438	0.1718874	7.448454	38.5887213	-3.85600734	6.41140002
3.05	305	-0.087	-0.765	-0.916	-29.220858	0	6.5317212	38.28505356	-3.90184398	6.46296624
3.06	306	-0.103	-0.766	-0.915	-25.78311	0.5156622	6.6463128	38.02149288	-3.94195104	6.52026204
3.07	307	-0.097	-0.743	-0.904	-21.485925	0.2291832	8.021412	37.79803926	-3.99351726	6.58328742
3.08	308	-0.083	-0.728	-0.897	-17.3033316	-0.9740286	9.2819196	37.62042228	-4.06227222	6.65204238
3.09	309	-0.078	-0.712	-0.893	-14.896908	-1.6042824	10.026765	37.46572362	-4.13675676	6.72079734
3.1	310	-0.082	-0.694	-0.86	-11.9175264	-1.2605076	10.1413566	37.33967286	-4.2112413	6.7895523
3.11	311	-0.084	-0.686	-0.83	-9.0527364	-0.6875496	9.3392154	37.24227	-4.27426668	6.85830726
3.12	312	-0.08	-0.675	-0.804	-7.0473834	-0.6302538	8.7089616	37.16205588	-4.33156248	6.92706222
3.13	313	-0.071	-0.66	-0.77	-5.156622	-0.572958	8.2505952	37.10476008	-4.38885828	6.9900876
3.14	314	-0.057	-0.649	-0.749	-2.9220858	-0.5156622	8.2505952	37.07611218	-4.4404245	7.05311298
3.15	315	-0.039	-0.639	-0.714	-0.5156622	-0.7448454	8.1360036	37.08184176	-4.48053156	7.11040878
3.16	316	-0.026	-0.641	-0.7	0.9740286	-0.6302538	8.021412	37.08757134	-4.53782736	7.16770458
3.17	317	-0.025	-0.635	-0.696	0.859437	0	8.2505952	37.09330092	-4.583664	7.23072996
3.18	318	-0.018	-0.634	-0.672	2.7501984	0.859437	8.2505952	37.11621924	-4.62950064	7.3052145
3.19	319	-0.001	-0.63	-0.649	3.3804522	-0.1145916	8.2505952	37.14486714	-4.68106686	7.36823988
3.2	320	0.015	-0.619	-0.634	3.8388186	-1.3750992	8.021412	37.19643336	-4.72117392	7.4198061
3.21	321	0.011	-0.595	-0.632	4.3544808	-1.6042824	7.5057498	37.23654042	-4.77846972	7.47137232
3.22	322	-0.008	-0.587	-0.631	5.8441716	-0.9167328	6.875496	37.29383622	-4.82430636	7.52293854
3.23	323	-0.053	-0.584	-0.626	6.875496	0.3437748	5.9014674	37.3568616	-4.85868384	7.56877518
3.24	324	-0.076	-0.585	-0.596	8.4224826	0.0572958	4.583664	37.4428053	-4.88160216	7.60888224
3.25	325	-0.086	-0.586	-0.602	8.8235532	-0.6302538	3.0366774	37.54020816	-4.91025006	7.62607098
3.26	326	-0.092	-0.577	-0.594	8.6516658	1.0886202	1.6615782	37.62615186	-4.91025006	7.6489893
3.27	327	-0.106	-0.572	-0.599	9.2819196	3.5523396	0.6302538	37.72355472	-4.88733174	7.67190762
3.28	328	-0.104	-0.585	-0.626	10.0840608	8.1360036	1.145916	37.815228	-4.83003594	7.734933
3.29	329	-0.118	-0.595	-0.613	11.9748222	14.5531332	3.2085648	37.9298196	-4.73836266	7.8495246
3.3	330	-0.149	-0.629	-0.601	12.2613012	21.3140376	5.9014674	38.0444112	-4.6123119	8.03287116
3.31	331	-0.165	-0.649	-0.586	11.3445684	24.923673	9.7975818	38.13608448	-4.48626114	8.26778394
3.32	332	-0.199	-0.659	-0.597	9.9121734	29.9657034	14.037471	38.21056902	-4.34302164	8.5657221
3.33	333	-0.215	-0.664	-0.589	6.9900876	37.1276784	16.7303736	38.25067608	-4.15967508	8.93241522
3.34	334	-0.216	-0.674	-0.57	3.3804522	45.1490904	18.5065434	38.25067608	-3.93049188	9.3678633
3.35	335	-0.225	-0.67	-0.552	-1.2032118	54.4883058	20.3973048	38.20483944	-3.64974246	9.87206634
3.36	336	-0.241	-0.666	-0.562	-6.2452422	62.2232388	22.0015872	38.09597742	-3.31742682	10.43929476
3.37	337	-0.247	-0.662	-0.563	-10.0840608	67.9528188	24.350715	37.95273792	-2.9507337	11.0580894
3.38	338	-0.219	-0.621	-0.536	-11.9175264	73.7396946	26.929026	37.79230968	-2.5496631	11.72845026
3.39	339	-0.206	-0.548	-0.527	-14.037471	78.208767	30.4240698	37.60896312	-2.14286292	12.4618365
3.4	340	-0.14	-0.506	-0.53	-14.2093584	81.7611066	32.1429438	37.43134614	-1.71314442	13.22387064
3.41	341	-0.077	-0.499	-0.502	-14.3812458	80.3287116	31.4553942	37.25372916	-1.2891555	13.96871604
3.42	342	-0.031	-0.496	-0.481	-15.183387	76.8909636	30.2521824	37.07611218	-0.88235532	14.68491354
3.43	343	-0.007	-0.485	-0.475	-16.9595568	71.2759752	30.4813656	36.88703604	-0.5156622	15.36673356
3.44	344	-0.02	-0.463	-0.418	-14.5531332	66.4058322	31.4553942	36.7266078	-0.18907614	16.02563526
3.45	345	-0.016	-0.465	-0.446	-13.0061466	63.311859	33.4607472	36.58909788	0.09740286	16.67880738
3.46	346	0.005	-0.457	-0.477	-13.1207382	62.2232388	35.809875	36.44585838	0.36669312	17.34343866
3.47	347	0.006	-0.427	-0.459	-13.6364004	60.16059	36.6120162	36.30834846	0.61306506	18.00234036
3.48	348	0.003	-0.411	-0.545	-16.042824	57.3530958	36.5547204	36.14792022	0.84797784	18.64405332
3.49	349	0.009	-0.402	-0.598	-15.6417534	50.133825	36.7266078	35.98749198	1.01986524	19.23992964
3.5	350	0.031	-0.418	-0.574	-13.464513	41.6540466	37.528749	35.85571164	1.12872726	19.78996932
3.51	351	0.069	-0.454	-0.501	-15.0114996	38.674665	37.9871154	35.71247214	1.20894138	20.32854984
3.52	352	0.106	-0.492	-0.463	-21.2567418	39.4195104	36.3255372	35.50047768	1.30634424	20.8556712
3.53	353	0.135	-0.514	-0.537	-25.8404058	34.5493674	34.091001	35.24837616	1.3750992	21.33695592
3.54	354	0.174	-0.473	-0.6	-25.9549974	23.6631654	31.7418732	34.99054506	1.3750992	21.73802652
3.55	355	0.171	-0.433	-0.636	-26.356068	12.891555	28.4187168	34.72698438	1.32353298	22.04169426
3.56	356	0.131	-0.437	-0.684	-28.6479	0.1145916	24.0069402	34.44050538	1.18602306	22.24222956
3.57	357	0.091	-0.479	-0.697	-27.1582092	-10.599723	21.2567418	34.17121512	0.9740286	22.35109158
3.58	358	0.055	-0.559	-0.671	-24.2934192	-18.6784308	20.4546006	33.92484318	0.70473834	22.41411696
3.59	359	0.009	-0.606	-0.668	-25.496631	-22.1734746	18.3919518	33.67274166	0.42398892	22.43703528
3.6	360	-0.043	-0.6	-0.657	-26.2414764	-25.0955604	14.7823164	33.41491056	0.13178034	22.41984654
3.61	361	-0.094	-0.604	-0.668	-28.4187168	-28.5333084	10.7716104	33.12843156	-0.16042824	22.345362
3.62	362	-0.147	-0.612	-0.692	-31.3980984	-29.793816	7.8495246	32.81330466	-0.44690724	22.24795914
3.63	363	-0.163	-0.63	-0.691	-33.7472262	-29.3927454	6.7609044	32.47525944	-0.72765666	22.13909712
3.64	364	-0.149	-0.64	-0.647	-37.5860448	-30.2521824	7.5630456	32.10283674	-1.02559482	22.03596468
3.65	365	-0.169	-0.633	-0.577	-42.3415962	-30.8251404	10.1413566	31.69030698	-1.3464513	21.95002098
3.66	366	-0.186	-0.621	-0.504	-48.5868384	-23.204799	12.2613012	31.1975631	-1.61001198	21.93283224
3.67	367	-0.188	-0.627	-0.484	-53.3996856	-11.3445684	11.4018642	30.65898258	-1.77044022	21.96720972
3.68	368	-0.183	-0.637	-0.511	-56.722842	0.2291832	9.740286	30.080295	-1.82773602	22.05315342
3.69	369	-0.211	-0.637	-0.493	-60.1032942	13.4072172	9.9694692	29.46150036	-1.77044022	22.20785208
3.7	370	-0.254	-0.626	-0.494	-63.1972674	29.507337	12.2040054	28.8197874	-1.59855282	22.46568318
3.71	371	-0.329	-0.614	-0.506	-65.89017	43.7166954	15.9855282	28.13796738	-1.31207382	22.82091714
3.72	372	-0.411	-0.599	-0.51	-67.2652692	62.1086472	22.0015872	27.43895862	-0.8880849	23.3193906
3.73	373	-0.464	-0.597	-0.479	-68.0674104	75.1147938	28.7624916	26.7284907	-0.3724227	23.93245566
3.74	374	-0.501	-0.592	-0.46	-68.6403684	90.4127724	34.663959	26.02375236	0.24637194	24.66011232
3.75	375	-0.53	-0.605	-0.445	-68.182002	113.5602756	37.815228	25.33047318	1.0599723	25.51381974
3.76	376	-0.53	-0.603	-0.403	-69.041439	137.1661452	40.393539	24.637194	2.0912967	26.48784834
3.77	377	-0.482	-0.659	-0.314	-69.041439	161.3449728	38.2162986	23.96683314	3.36326346	27.5306319
3.78	378	-0.369	-0.731	-0.272	-71.3905668	183.6903348	33.2888598	23.29647228	4.85868384	28.61352252
3.79	379	-0.286	-0.799	-0.195	-78.9536124	201.5093286	32.5440144	22.58027478	6.53745078	29.74224978
3.8	380	-0.206	-0.807	-0.153	-90.0689976	217.3229694	33.6899304	21.8010519	8.35945722	30.93400242
3.81	381	-0.147	-0.774	-0.175	-97.689339	233.4230892	33.5753388	20.97599238	10.34762148	32.16586212
3.82	382	-0.031	-0.721	-0.152	-98.7779592	248.6064762	31.5699858	20.19103992	12.49621398	33.41491056
3.83	383	0.106	-0.686	-0.196	-97.8039306	261.0396648	30.653253	19.46338326	14.7823164	34.68114774
3.84	384	0.224	-0.677	-0.158	-92.819196	267.0557238	29.9657034	18.83312946	17.14290336	35.94738492
3.85	385	0.34	-0.679	-0.138	-92.0170548	267.9151608	27.788463	18.26017146	19.53213822	37.19070378
3.86	386	0.44	-0.631	-0.143	-93.6213372	258.1748748	26.642547	17.69867262	21.84115896	38.37672684
3.87	387	0.558	-0.565	-0.14	-97.975818	228.1518756	24.8663772	17.08560756	23.88088944	39.43669914
3.88	388	0.506	-0.471	-0.25	-99.121734	185.8675752	22.4599536	16.42097628	25.54819722	40.31332488
3.89	389	0.403	-0.38	-0.203	-89.0376732	159.4542114	18.4492476	15.81937038	26.9863218	41.04671112
3.9	390	0.381	-0.314	-0.147	-82.0475856	150.3441792	10.886202	15.25787154	28.37288016	41.66550576
3.91	391	0.482	-0.248	-0.147	-75.916935	148.9117842	-1.2032118	14.6963727	29.77662726	42.13533132
3.92	392	0.508	-0.195	-0.154	-67.036086	146.0469942	-10.7143146	14.16925134	31.18610394	42.4848357
3.93	393	0.385	-0.146	-0.062	-61.4783934	135.8483418	-13.0061466	13.67650746	32.50390734	42.76558512
3.94	394	0.252	-0.159	0.011	-58.0979412	103.3043274	-10.599723	13.178034	33.50658384	42.96039084
3.95	395	0.125	-0.131	0.081	-54.6028974	75.916935	-1.3750992	12.74258592	34.2342405	43.17811488
3.96	396	-0.02	-0.098	0.164	-51.0505578	60.733548	4.9274388	12.35297448	34.79573934	43.41875724
3.97	397	-0.145	-0.083	0.209	-44.4615408	57.5249832	7.8495246	12.04357716	35.32859028	43.68231792
3.98	398	-0.204	-0.083	0.235	-37.7006364	55.863405	9.9694692	11.82012354	35.8385229	43.96306734
3.99	399	-0.247	-0.067	0.196	-29.507337	58.728195	13.9801752	11.70553194	36.37137384	44.29538298
4	400	-0.365	-0.049	0.305	-25.3247436	73.1667366	20.5118964	11.72272068	37.02454596	44.75947896
4.01	401	-0.513	0.029	0.377	-24.4080108	101.2989744	27.215505	11.84304186	37.94127876	45.38400318
4.02	402	-0.425	0.206	0.223	-14.4385416	122.7848994	22.91832	12.08368422	39.0757356	46.0371753
4.03	403	-0.174	0.342	0.177	-2.3491278	123.1286742	-4.6982556	12.24411246	40.26748824	46.3523022
4.04	404	0.199	0.281	0.215	5.2139178	124.6756608	-29.3354496	12.28421952	41.52226626	46.36376136
4.05	405	0.523	0.216	0.146	9.7975818	137.0515536	-38.8465524	12.31286742	42.93747252	46.28927682
4.06	406	0.575	0.186	-0.088	17.0168526	163.7513964	-34.7212548	12.51340272	44.58759156	46.36376136
4.07	407	0.299	0.187	-0.387	21.1421502	174.179232	-22.7464326	12.91447332	46.30646556	46.65596994
4.08	408	-0.006	0.215	-0.426	11.2299768	174.6375984	-17.3033316	13.29835518	48.01960998	47.05131096
4.09	409	-0.297	0.158	-0.381	8.307891	176.2991766	-11.5737516	13.750992	49.7327544	47.57270274
4.1	410	-0.486	0.107	-0.277	13.6936962	214.2289962	-4.010706	14.50729656	51.77248488	48.414951
4.11	411	-0.452	0.091	-0.123	37.4714532	287.3957328	8.7662574	16.06001274	54.47111706	49.92183054
4.12	412	-0.517	0.208	0.179	60.16059	354.2599314	18.4492476	18.56956878	57.73697766	52.26522876
4.13	413	-0.384	0.377	0.677	81.1881486	398.3204016	23.1475032	22.20785208	61.31796516	55.58838516
4.14	414	-0.242	0.465	1.129	71.7343416	418.4312274	15.8709366	26.7571386	64.97916678	59.9314068
4.15	415	0.298	0.757	0.984	50.5921914	423.5878494	-7.7922288	32.085648	68.62317966	65.23699788
4.16	416	2.457	0.922	0.128	71.906229	443.6986752	-55.576926	38.97833274	72.46199826	71.83174446
4.17	417	3.996	1.588	-2.083	140.2601184	361.3073148	-110.6381898	46.27208808	75.79661382	77.98531338
4.18	418	3.996	2.183	-3.126	99.408213	160.42824	-212.6247138	46.02571614	78.4093023	76.74199452
4.19	419	3.996	2.532	-2.152	18.2773602	-138.655836	-276.2230518	30.98556864	79.08539274	61.19764398
4.2	420	3.996	0.384	2.914	40.3362432	300.9748374	-213.140376	29.77089768	82.68929856	59.58190242
4.21	421	3.996	-0.015	0.927	171.8874	167.590215	-91.4440968	32.5153665	84.58005996	60.61322682
4.22	422	3.996	1.057	-2.741	24.2361234	143.0103168	-122.613012	29.15783262	86.4020664	57.02078016
4.23	423	3.596	1.138	1.073	38.674665	193.0295502	-154.7559558	12.70820844	88.7511942	40.19873328
4.24	424	3.295	0.036	0.419	69.5571012	54.717489	-114.7061916	-51.6521637	88.9230816	-24.87210678
4.25	425	3.115	-0.065	0.364	69.6716928	87.2615034	-99.121734	-95.95327626	88.1782362	-69.87795768
4.26	426	3.481	-0.245	0.763	90.0689976	4.1252976	-82.219473	-94.50369252	87.35317668	-69.33937716
4.27	427	2.197	0.105	0.126	51.6808116	-23.3193906	-63.3691548	-89.25539724	86.72292288	-64.61247366
4.28	428	1.689	0.309	0.07	50.9359662	-46.7533728	-58.9573782	-82.219473	86.0869395	-58.08648204
4.29	429	0.941	0.202	0.206	58.2125328	-49.274388	-49.3316838	-76.489893	85.49679276	-52.9413192
4.3	430	0.445	0.13	0.378	64.5723666	-44.1750618	-33.804522	-72.17551926	85.04415594	-49.274388
4.31	431	0.422	0.144	0.429	55.9207008	-31.226211	-24.637194	-69.37948422	84.70038114	-47.0398518
4.32	432	0.388	0.383	0.463	42.685371	-18.2773602	-21.0275586	-68.05595124	84.43109088	-46.14603732
4.33	433	0.324	0.475	0.494	39.9351726	-7.734933	-15.9282324	-67.60331442	84.2534739	-46.10020068
4.34	434	0.204	0.301	0.468	43.1437374	3.6096354	-3.3804522	-67.67779896	84.23628516	-46.61586288
4.35	435	0.146	0.29	0.364	40.3362432	19.0222056	5.8441716	-69.02425026	84.35660634	-48.37484394
4.36	436	0.3	0.319	0.254	35.809875	32.0283522	10.7716104	-71.38483722	84.5686008	-51.1078536
4.37	437	0.462	0.238	0.097	35.0077338	38.5027776	13.5218088	-74.54756538	84.82070232	-54.6315453
4.38	438	0.583	0.175	-0.016	32.6013102	44.3469492	15.6417534	-78.65567424	85.084263	-59.08915854
4.39	439	0.578	0.134	-0.026	30.7105488	44.8626114	20.4546006	-83.22787908	85.36501242	-63.98221986
4.4	440	0.54	0.085	-0.031	30.4240698	41.8832298	28.6479	-87.93186426	85.6858689	-69.00133194
4.41	441	0.489	0.104	-0.015	25.3820394	40.8519054	34.37748	-93.34631736	86.03537328	-74.69080488
4.42	442	0.41	0.162	-0.04	20.05353	37.9298196	36.0390582	-99.39102426	86.35622976	-80.94750624
4.43	443	0.366	0.235	-0.066	8.4797784	33.1169724	35.4661002	-105.8253426	86.63697918	-87.47922744
4.44	444	0.416	0.267	-0.109	2.5210152	32.8304934	36.8411994	-113.4284953	86.88335112	-95.111028
4.45	445	0.492	0.273	-0.079	5.5003968	33.4607472	37.1849742	-122.0629723	87.05523852	-103.8085304
4.46	446	0.653	0.29	0.024	12.032118	33.7472262	36.4974246	-131.6371005	87.1469118	-113.514439
4.47	447	0.815	0.329	0.123	16.042824	35.236917	31.3408026	-140.9419384	87.1182639	-122.9911643
4.48	448	1.022	0.26	0.163	13.464513	41.0237928	21.8296998	-148.8716771	86.9177286	-131.0641425
4.49	449	1.144	0.181	0.079	1.0313244	38.101707	12.7769634	-154.2173753	86.64843834	-136.4212998
4.5	450	1.213	0.136	0.013	-9.5111028	32.3148312	6.5317212	-157.5004246	86.39060724	-139.6126759
4.51	451	1.25	0.002	0.032	-6.589017	28.074942	8.880849	-160.4855358	86.16715362	-142.5347617
4.52	452	1.274	-0.038	0.09	-9.6256944	24.4653066	12.032118	-163.4362695	85.97807748	-145.3938221
4.53	453	1.274	0.039	0.153	-21.4286292	19.5378678	11.5737516	-166.0088509	85.8291084	-147.7486795
4.54	454	1.278	0.059	0.191	-26.8717302	15.6990492	10.5424272	-168.2147392	85.70305764	-149.6852775
4.55	455	1.259	0.02	0.175	-28.8197874	12.5477802	11.0580894	-170.3117655	85.60565478	-151.4958248
4.56	456	1.255	0.003	0.172	-28.1895336	11.9748222	11.0007936	-172.2884706	85.50825192	-153.1860509
4.57	457	1.264	0.005	0.147	-22.8610242	9.9121734	9.9121734	-173.961508	85.42230822	-154.629905
4.58	458	1.255	0.012	0.248	-14.610429	7.3911582	7.8495246	-175.2048268	85.35928284	-155.7242548
4.59	459	1.224	0	0.281	-8.3651868	6.875496	5.6722842	-176.075723	85.29625746	-156.5149369
4.6	460	1.14	-0.001	0.275	-6.3598338	3.151269	5.156622	-176.7919205	85.23323208	-157.168109
4.61	461	1.088	0.025	0.253	-3.9534102	-1.7761698	6.2452422	-177.5654138	85.2561504	-157.9072248
4.62	462	1.047	0.039	0.25	-1.145916	-3.8388186	8.9954406	-178.6311157	85.29625746	-158.9671971
4.63	463	1.037	0.028	0.227	1.2605076	-5.7868758	11.9175264	179.9546486	85.35928284	-160.3881329
4.64	464	1.061	0.018	0.214	3.724227	-8.880849	13.750992	178.3102592	85.44522654	-162.078359
4.65	465	1.079	0.018	0.227	4.8128472	-10.7143146	14.610429	176.5627373	85.52544066	-163.8831767
4.66	466	1.083	-0.009	0.203	6.2452422	-10.599723	14.896908	174.6605167	85.61711394	-165.8598818
4.67	467	1.074	-0.044	0.156	6.016059	-13.3499214	14.32395	172.7067299	85.73170554	-167.876694
4.68	468	1.017	-0.069	0.127	3.8388186	-18.907614	12.2040054	170.810239	85.90359294	-169.8247512
4.69	469	0.977	-0.072	0.14	1.3750992	-23.6058696	9.167328	169.0455283	86.1155874	-171.6123802
4.7	470	0.976	-0.072	0.132	0.3437748	-24.064236	6.016059	167.4011389	86.32758186	-173.2682288
4.71	471	0.974	-0.083	0.095	0.859437	-24.1215318	3.7815228	166.0432284	86.55103548	-174.6375984
4.72	472	0.987	-0.076	0.051	0.7448454	-26.1841806	1.2605076	164.8457462	86.803137	-175.8522694
4.73	473	1	-0.072	0.011	1.2605076	-27.6738714	-1.6615782	163.9232838	87.07242726	-176.7861909
4.74	474	0.988	-0.074	-0.004	1.718874	-27.8457588	-4.4690724	163.3904329	87.35317668	-177.3476897
4.75	475	0.973	-0.061	0.004	1.145916	-27.215505	-6.875496	163.1669792	87.6339261	-177.5883321
4.76	476	0.964	-0.041	0	0.572958	-26.8717302	-9.167328	163.6597231	87.9204051	-177.1013178
4.77	477	0.97	-0.02	-0.007	0.572958	-27.788463	-10.8289062	164.7426137	88.21261368	-176.0241568
4.78	478	0.987	-0.007	-0.026	1.3750992	-28.6479	-11.8029348	166.5703498	88.51628142	-174.2136095
4.79	479	0.995	0	-0.033	2.4064236	-29.5646328	-12.4904844	169.6070272	88.83140832	-171.2113096
4.8	480	1.003	0.004	-0.031	3.2085648	-30.0229992	-12.9488508	175.2907705	89.1522648	-165.5562141
4.81	481	1.009	0.01	-0.037	3.4950438	-29.793816	-13.1207382	-172.7353778	89.44447338	-153.6272285
4.82	482	0.998	0.023	-0.041	4.1252976	-28.934379	-12.9488508	-141.7899163	89.66219742	-122.7333332
4.83	483	0.985	0.041	-0.048	5.0993262	-27.4446882	-12.2040054	-88.65952092	89.66219742	-69.65450406
4.84	484	0.972	0.056	-0.066	5.9587632	-24.9809688	-10.599723	-60.4757169	89.47885086	-41.52799584
4.85	485	0.964	0.058	-0.087	5.8441716	-22.8610242	-8.880849	-48.18003822	89.25539724	-29.30107212
4.86	486	0.955	0.047	-0.096	4.870143	-21.3140376	-7.2192708	-41.7972861	89.04913236	-22.96988622
4.87	487	0.939	0.044	-0.098	3.3804522	-20.05353	-6.016059	-37.59750396	88.85432664	-18.80448156
4.88	488	0.925	0.047	-0.09	2.1772404	-18.7930224	-4.870143	-34.5207195	88.67670966	-15.756345
4.89	489	0.923	0.056	-0.082	1.8334656	-16.7303736	-3.8388186	-32.24607624	88.51055184	-13.49889048
4.9	490	0.927	0.052	-0.075	2.1199446	-14.6677248	-2.86479	-30.61314594	88.3501236	-11.88314892
4.91	491	0.942	0.044	-0.064	2.4064236	-12.3758928	-1.9480572	-29.20939884	88.235532	-10.50804972
4.92	492	0.961	0.04	-0.058	1.6042824	-9.0527364	-0.9167328	-28.16661528	88.1495883	-9.4824549
4.93	493	0.973	0.045	-0.056	0.7448454	-5.9587632	0	-27.3587445	88.09802208	-8.6803137
4.94	494	0.984	0.046	-0.055	0.286479	-3.0939732	0.9167328	-26.69411322	88.07510376	-8.02714158
4.95	495	0.986	0.044	-0.052	0	-0.8021412	2.005353	-27.5879277	87.96624174	-8.9094969
4.96	496	0.989	0.046	-0.043	0	1.0886202	3.0366774	-26.9576739	87.99488964	-8.28497268
4.97	497	0.998	0.046	-0.036	0	3.0366774	3.8961144	-26.31596094	88.0349967	-7.64325972
4.98	498	1.008	0.04	-0.033	-0.0572958	4.4117766	4.8128472	-25.57111554	88.09802208	-6.89268474
4.99	499	1.013	0.039	-0.03	-0.2291832	4.870143	5.443101	-24.64865316	88.16677704	-5.96449278
5	500	1.017	0.036	-0.029	-0.2291832	5.6149884	5.9014674	-24.04131768	88.22980242	-5.36288688
5.01	501	1.017	0.033	-0.03	0.3437748	6.2452422	6.1879464	-22.92404958	88.31001654	-4.2398892
5.02	502	1.016	0.029	-0.035	1.145916	6.4744254	6.4744254	-21.6291645	88.39596024	-2.95646328
5.03	503	1.014	0.023	-0.035	1.8334656	6.1306506	6.6463128	-20.07071874	88.47617436	-1.41520626
5.04	504	1.015	0.018	-0.03	2.2345362	5.3858052	6.589017	-18.28881936	88.5506589	0.33804522
5.05	505	1.015	0.011	-0.028	2.2345362	4.4690724	6.3598338	-16.53556788	88.60222512	2.06837838
5.06	506	1.014	0.003	-0.023	1.8334656	3.3804522	6.016059	-14.4385416	88.64806176	4.14821592
5.07	507	1.013	0.001	-0.022	1.6042824	2.578311	5.5576926	-12.32432658	88.68816882	6.2452422
5.08	508	1.013	-0.002	-0.025	1.2605076	1.3178034	4.9274388	-10.27313694	88.71108714	8.28497268
5.09	509	1.017	-0.004	-0.027	1.0313244	0.4010706	4.1252976	-8.4797784	88.7225463	10.06687206
5.1	510	1.01	-0.006	-0.026	0.9740286	-0.572958	3.3804522	-7.08749046	88.70535756	11.44770084
5.11	511	1.003	-0.008	-0.024	0.9167328	-1.2605076	2.5210152	-5.9301153	88.6938984	12.59361684
5.12	512	1.001	-0.006	-0.024	0.8021412	-1.8334656	1.7761698	-5.0993262	88.67670966	13.42440594
5.13	513	0.999	-0.003	-0.028	0.5156622	-2.4637194	1.0313244	-4.583664	88.65379134	13.92860898
5.14	514	0.997	0	-0.027	0.286479	-2.8074942	0.4583664	-4.32010332	88.62514344	14.19216966
5.15	515	0.995	0	-0.023	-0.1145916	-2.578311	0	-5.36288688	88.5793068	13.1493861
5.16	516	0.995	0.002	-0.017	-0.4583664	-1.8334656	-0.286479	-5.443101	88.56211806	13.07490156
5.17	517	0.997	0.007	-0.019	-0.9740286	-1.2032118	-0.572958	-5.65509546	88.5506589	12.86863668
5.18	518	1.007	0.006	-0.029	-1.432395	-1.2605076	-0.5156622	-5.8441716	88.53347016	12.69674928
5.19	519	1.015	0.003	-0.034	-1.7761698	-1.3750992	-0.4010706	-5.97595194	88.522011	12.58215768
5.2	520	1.015	0.003	-0.034	-2.0626488	-0.7448454	-0.572958	-6.97862844	88.48190394	11.6023995
5.21	521	1.012	0.005	-0.03	-2.4064236	0.1145916	-0.9740286	-7.37396946	88.48190394	11.2299768
5.22	522	1.009	0.011	-0.031	-2.6356068	0.6875496	-1.145916	-7.86098376	88.48763352	10.7716104
5.23	523	1.007	0.016	-0.032	-2.2345362	0.6875496	-1.0313244	-8.29643184	88.4933631	10.35908064
5.24	524	1.009	0.019	-0.03	-1.6615782	0.9740286	-0.9740286	-8.72042076	88.49909268	9.95228046
5.25	525	1.01	0.019	-0.027	-1.4896908	1.5469866	-0.859437	-10.53096804	88.48763352	8.15892192
5.26	526	1.01	0.018	-0.024	-1.718874	2.2345362	-0.8021412	-10.97787528	88.51055184	7.72920342
5.27	527	1.013	0.016	-0.022	-2.0626488	2.6356068	-0.9167328	-11.53364454	88.53347016	7.19635248
5.28	528	1.015	0.013	-0.023	-2.3491278	2.4637194	-1.0886202	-12.15243918	88.55638848	6.60047616
5.29	529	1.011	0.016	-0.022	-2.5210152	2.005353	-1.2032118	-12.78842256	88.57357722	5.99314068
5.3	530	1.009	0.022	-0.026	-2.4064236	1.6615782	-1.2032118	-14.8396122	88.55638848	3.96486936
5.31	531	1.006	0.029	-0.031	-1.4896908	1.5469866	-0.9167328	-15.36100398	88.56784764	3.46066632
5.32	532	0.999	0.029	-0.034	-0.1718874	1.718874	-0.4583664	-15.72196752	88.58503638	3.09970278
5.33	533	0.996	0.023	-0.038	0.7448454	2.5210152	-0.1145916	-16.03136484	88.6079547	2.78457588
5.34	534	0.994	0.018	-0.035	1.145916	3.2085648	0	-16.35222132	88.64233218	2.45226024
5.35	535	1.001	0.016	-0.031	1.2032118	3.4950438	0.1145916	-17.5898106	88.64806176	1.2032118
5.36	536	1.002	0.016	-0.025	1.0313244	3.437748	0.0572958	-17.95650372	88.67670966	0.82505952
5.37	537	1.003	0.017	-0.023	0.9167328	2.6356068	0.0572958	-18.24298272	88.70535756	0.52712136
5.38	538	1.002	0.021	-0.027	1.0313244	1.4896908	0.2291832	-18.32892642	88.71681672	0.43544808
5.39	539	0.999	0.02	-0.027	1.5469866	0.286479	0.5156622	-18.12266154	88.7225463	0.62452422
5.4	540	0.999	0.014	-0.023	2.0626488	-0.6302538	0.8021412	-18.61540542	88.6938984	0.1145916
5.41	541	1.004	0.01	-0.021	2.0626488	-0.5156622	0.8021412	-18.1914165	88.6938984	0.50993262
5.42	542	1.003	0.009	-0.021	1.432395	-0.1145916	0.6302538	-17.88774876	88.6938984	0.8021412
5.43	543	1.003	0.009	-0.024	0.572958	0.2291832	0.4583664	-17.71013178	88.69962798	0.9740286
5.44	544	1.002	0.006	-0.03	0.2291832	0.4010706	0.3437748	-17.61272892	88.69962798	1.07143146
5.45	545	0.999	0.004	-0.032	-0.286479	0.6302538	0.1718874	-18.30027852	88.61368428	0.38388186
5.46	546	1.003	0.006	-0.034	-0.9740286	0.859437	0	-18.40341096	88.61941386	0.29220858
5.47	547	1.01	0.009	-0.037	-1.5469866	1.3750992	-0.1718874	-18.66124206	88.63087302	0.05156622
5.48	548	1.012	0.009	-0.036	-1.8334656	1.8334656	-0.286479	-19.02793518	88.64806176	-0.29220858
5.49	549	1.011	0.012	-0.033	-2.1772404	2.3491278	-0.1718874	-19.42900578	88.67098008	-0.67036086
5.5	550	1.008	0.015	-0.027	-2.005353	2.86479	-0.0572958	-20.68951338	88.67098008	-1.90795014
5.51	551	1.004	0.016	-0.022	-1.6615782	3.437748	0	-21.18798684	88.70535756	-2.38923486
5.52	552	1.003	0.016	-0.019	-1.4896908	3.724227	-0.0572958	-21.80678148	88.73973504	-2.99657034
5.53	553	1.006	0.016	-0.02	-1.2605076	3.8388186	-0.286479	-22.55162688	88.77411252	-3.724227
5.54	554	1.009	0.018	-0.019	-1.0886202	3.7815228	-0.4010706	-23.38814556	88.80276042	-4.54928652
5.55	555	1.013	0.019	-0.018	-0.8021412	3.6669312	-0.4583664	-25.23307032	88.80849	-6.38275212
5.56	556	1.011	0.02	-0.022	-0.3437748	3.6096354	-0.286479	-26.07531858	88.84286748	-7.22500038
5.57	557	1.007	0.02	-0.024	-0.1145916	3.6096354	-0.0572958	-26.87745978	88.87151538	-8.02714158
5.58	558	1.007	0.018	-0.026	0	3.724227	0.1145916	-27.65668266	88.90589286	-8.80636446
5.59	559	1.008	0.015	-0.025	-0.0572958	3.6669312	0.1718874	-28.42444638	88.94027034	-9.5683986
5.6	560	1.01	0.014	-0.022	-0.0572958	3.8388186	0.2291832	-29.9657034	88.94599992	-11.10965562
5.61	561	1.013	0.015	-0.018	-0.1718874	4.010706	0.286479	-30.89962494	88.9803774	-12.03784758
5.62	562	1.016	0.018	-0.013	-0.1145916	3.6669312	0.3437748	-31.75333236	89.01475488	-12.891555
5.63	563	1.017	0.02	-0.008	0	3.151269	0.572958	-32.4007749	89.04340278	-13.53899754
5.64	564	1.016	0.019	-0.005	0.1145916	2.578311	0.7448454	-32.82476382	89.07205068	-13.96298646
5.65	565	1.011	0.018	-0.004	0.1718874	2.0626488	0.859437	-35.0650296	89.0663211	-16.20325224
5.66	566	1.01	0.017	-0.005	0.1145916	2.0626488	0.9740286	-35.27129448	89.08923942	-16.40951712
5.67	567	1.009	0.014	-0.008	0	1.8907614	1.0886202	-35.36869734	89.11215774	-16.50691998
5.68	568	1.01	0.013	-0.008	-0.2291832	1.8907614	1.2032118	-35.40307482	89.13507606	-16.54129746
5.69	569	1.01	0.012	-0.007	-0.4010706	2.0626488	1.145916	-35.523396	89.15799438	-16.65588906
5.7	570	1.011	0.013	-0.011	-0.4583664	2.0626488	1.2032118	-36.50888376	89.14653522	-17.63564724
5.71	571	1.005	0.014	-0.015	-0.3437748	1.432395	1.2032118	-36.38856258	89.16945354	-17.51532606
5.72	572	1.003	0.013	-0.019	0	0.6875496	1.2032118	-35.99895114	89.1809127	-17.12571462
5.73	573	0.999	0.011	-0.016	0.572958	0.3437748	1.0313244	-35.5520439	89.19237186	-16.68453696
5.74	574	1.002	0.009	-0.011	0.8021412	0.1718874	0.7448454	-35.16816204	89.19810144	-16.30638468
5.75	575	1.006	0.01	-0.007	0.5156622	0.572958	0.6302538	-36.97297974	89.15799438	-18.11120238
5.76	576	1.006	0.013	-0.006	0.2291832	1.0313244	0.5156622	-37.08184176	89.16945354	-18.22579398
5.77	577	1.009	0.013	-0.005	0.3437748	0.9740286	0.5156622	-37.17924462	89.1809127	-18.32319684
5.78	578	1.015	0.011	-0.004	0.4010706	0.6875496	0.572958	-37.1276784	89.19237186	-18.2773602
5.79	579	1.015	0.011	-0.006	0.4010706	0.286479	0.6302538	-36.88703604	89.19810144	-18.04244742
5.8	580	1.013	0.01	-0.006	0.4010706	0	0.5156622	-39.23043426	89.1236169	-20.38584564
5.81	581	1.01	0.009	-0.005	0.3437748	-0.0572958	0.3437748	-38.9897919	89.12934648	-20.15093286
5.82	582	1.008	0.005	-0.006	0.3437748	-0.3437748	0.2291832	-38.70904248	89.12934648	-19.87591302
5.83	583	1.007	0.007	-0.005	0.0572958	-0.6302538	0.1145916	-38.388186	89.1236169	-19.55505654
5.84	584	1.008	0.01	-0.002	0	-0.8021412	0.1145916	-38.0157633	89.11788732	-19.18263384
5.85	585	1.01	0.012	0	0.0572958	-0.9740286	0	-40.51386018	89.0663211	-21.68073072
5.86	586	1.01	0.012	-0.001	0.1718874	-1.145916	0	-40.07268252	89.05486194	-21.24528264
5.87	587	1.012	0.011	-0.001	0.0572958	-1.2032118	0	-39.60285696	89.04913236	-20.77545708
5.88	588	1.012	0.011	-0.003	-0.0572958	-1.2605076	0.0572958	-39.09292434	89.0376732	-20.25979488
5.89	589	1.009	0.013	-0.009	-0.286479	-1.4896908	0	-38.53715508	89.02621404	-19.69829604
5.9	590	1.006	0.013	-0.011	-0.4010706	-1.6615782	0.0572958	-38.7606087	88.96891824	-19.92174966
5.91	591	1.004	0.013	-0.013	-0.3437748	-2.005353	0.1145916	-38.02149288	88.9517295	-19.17690426
5.92	592	1.006	0.013	-0.013	-0.4583664	-2.0626488	0.1145916	-37.28810664	88.93454076	-18.44351802
5.93	593	1.004	0.013	-0.013	-0.4010706	-2.291832	0.1718874	-36.4974246	88.91735202	-17.6471064
5.94	594	1.005	0.015	-0.016	-0.2291832	-2.4064236	0.1718874	-35.6952834	88.90016328	-16.83923562
5.95	595	1.01	0.015	-0.018	0.0572958	-2.4064236	0.286479	-35.51766642	88.84286748	-16.66734822
5.96	596	1.013	0.014	-0.018	0.1718874	-2.3491278	0.2291832	-34.76709144	88.81994916	-15.91677324
5.97	597	1.011	0.013	-0.014	0.286479	-2.2345362	0.4010706	-33.99359814	88.80276042	-15.14900952
5.98	598	1.008	0.014	-0.012	0.1718874	-1.7761698	0.4010706	-33.38626266	88.79130126	-14.54167404
5.99	599	1.008	0.012	-0.014	0.286479	-1.3750992	0.4583664	-32.85341172	88.78557168	-14.0088231
6	600	1.005	0.01	-0.016	0.2291832	-1.3750992	0.4010706	-33.06540618	88.73400546	-14.22081756
6.01	601	1.003	0.012	-0.018	0.3437748	-1.3178034	0.286479	-32.62422852	88.7225463	-13.79109906
6.02	602	1.001	0.014	-0.022	0.4583664	-1.0886202	0.286479	-32.24607624	88.71681672	-13.41294678
6.03	603	1.001	0.014	-0.025	0.4583664	-0.7448454	0.4010706	-31.89657186	88.71108714	-13.06917198
6.04	604	1	0.013	-0.028	0.572958	-0.4583664	0.5156622	-31.5699858	88.71108714	-12.7483155
6.05	605	1	0.012	-0.026	0.5156622	-0.3437748	0.572958	-31.76479152	88.6366026	-12.9488508
6.06	606	1.002	0.011	-0.022	0.4010706	-0.286479	0.6302538	-31.46685336	88.6366026	-12.65091264
6.07	607	1.006	0.008	-0.018	0.2291832	-0.1145916	0.6875496	-31.18610394	88.6366026	-12.38162238
6.08	608	1.007	0.007	-0.013	-0.1145916	0.0572958	0.6302538	-30.9683799	88.64233218	-12.15816876
6.09	609	1.009	0.009	-0.009	-0.5156622	0.5156622	0.5156622	-30.8824362	88.64806176	-12.06649548
6.1	610	1.006	0.01	-0.012	-0.4583664	0.6302538	0.286479	-31.93094934	88.61368428	-13.10927904
6.11	611	1.002	0.009	-0.016	-0.3437748	0.6302538	0.1718874	-31.99397472	88.61941386	-13.17230442
6.12	612	1	0.009	-0.019	-0.286479	0.5156622	0.1145916	-32.07418884	88.62514344	-13.24678896
6.13	613	1	0.009	-0.022	-0.286479	0.6302538	0	-32.22315792	88.63087302	-13.39002846
6.14	614	1.001	0.012	-0.022	-0.4010706	0.8021412	-0.0572958	-32.4294228	88.6366026	-13.59056376
6.15	615	1.003	0.013	-0.021	-0.286479	1.0313244	0.0572958	-33.53523174	88.5793068	-14.69064312
6.16	616	1.004	0.013	-0.018	0	0.9167328	0.286479	-33.64409376	88.59076596	-14.79950514
6.17	617	1.003	0.014	-0.015	0.2291832	0.9167328	0.286479	-33.73576704	88.60222512	-14.896908
6.18	618	1.004	0.013	-0.015	0.572958	0.8021412	0.2291832	-33.81598116	88.6079547	-14.9828517
6.19	619	1.007	0.012	-0.016	0.859437	0.5156622	0.2291832	-33.83889948	88.61368428	-15.01722918
6.2	620	1.009	0.012	-0.015	0.9740286	0.8021412	0.2291832	-34.40039832	88.59649554	-15.5844576
6.21	621	1.009	0.009	-0.014	0.859437	1.0313244	0.286479	-34.5207195	88.6079547	-15.71623794
6.22	622	1.011	0.009	-0.013	0.6302538	1.145916	0.286479	-34.67541816	88.61941386	-15.87666618
6.23	623	1.012	0.011	-0.011	0.3437748	1.2032118	0.2291832	-34.8644943	88.63087302	-16.0714719
6.24	624	1.014	0.011	-0.011	0.4010706	1.2032118	0.3437748	-35.0077338	88.64233218	-16.2147114
6.25	625	1.012	0.012	-0.012	0.4010706	0.9740286	0.5156622	-35.9244666	88.62514344	-17.14290336
6.26	626	1.01	0.011	-0.009	0.286479	0.8021412	0.572958	-35.9244666	88.6366026	-17.14290336
6.27	627	1.009	0.01	-0.007	0.3437748	0.6875496	0.6302538	-35.86144122	88.64806176	-17.07987798
6.28	628	1.009	0.01	-0.004	0	0.7448454	0.5156622	-35.85571164	88.65952092	-17.0741484
6.29	629	1.008	0.01	-0.004	-0.1145916	0.859437	0.572958	-35.85571164	88.67098008	-17.0741484
6.3	630	1.018	0.011	0	0	0.6875496	0.4010706	-37.7865801	88.67098008	-19.00501686
6.31	631	1.023	0.009	-0.005	0.1718874	0.4010706	0.1718874	-37.82668716	88.67670966	-19.04512392
6.32	632	1.028	0.012	0	0.1718874	0.0572958	0.286479	-37.74647304	88.67670966	-18.9649098
6.33	633	1.02	0.016	-0.001	0.7448454	-0.5156622	0.9167328	-37.29383622	88.67670966	-18.51800256
6.34	634	1.003	0.013	-0.006	1.2032118	-2.005353	1.718874	-36.1822977	88.67098008	-17.42365278
6.35	635	0.985	0.002	-0.016	0.2291832	-1.9480572	1.718874	-34.70406606	88.65379134	-15.94542114
6.36	636	0.983	0	-0.015	-1.432395	-0.6302538	1.0886202	-34.15975596	88.65379134	-15.38965188
6.37	637	0.994	0.005	-0.002	-2.291832	-0.8021412	0.859437	-33.67274166	88.64806176	-14.87971926
6.38	638	1.004	0.009	0.001	-2.4064236	-2.1772404	0.9167328	-32.87633004	88.6366026	-14.05465974
6.39	639	1.007	0.009	-0.008	-2.3491278	-3.2085648	0.859437	-31.90230144	88.61368428	-13.05771282
6.4	640	1.004	0.01	-0.017	-2.291832	-3.5523396	0.7448454	-30.98556864	88.57357722	-12.1180617
6.41	641	1.004	0.006	-0.025	-2.1772404	-3.3804522	0.859437	-30.04018794	88.5506589	-11.14976268
6.42	642	1.003	0.005	-0.029	-2.2345362	-2.9220858	0.9740286	-29.16929178	88.52774058	-10.2559482
6.43	643	1.006	0.008	-0.023	-2.1199446	-1.8334656	0.7448454	-28.59633378	88.51628142	-9.66007188
6.44	644	1.008	0.009	-0.017	-1.432395	-1.3750992	0.5156622	-28.17234486	88.50482226	-9.21889422
6.45	645	1.01	0.007	-0.012	-0.9167328	-1.2032118	0.3437748	-28.40152806	88.48763352	-9.44234784
6.46	646	1.011	0.007	-0.012	-0.6875496	-1.145916	0.0572958	-28.17807444	88.47617436	-9.20743506
6.47	647	1.011	0.009	-0.014	-0.3437748	-1.2605076	-0.1718874	-28.04056452	88.4647152	-9.06992514
6.48	648	1.01	0.009	-0.016	0.1145916	-1.3178034	-0.1718874	-27.88586586	88.45325604	-8.92095606
6.49	649	1.009	0.013	-0.017	0.4583664	-1.2605076	-0.1145916	-27.72543762	88.44179688	-8.7662574
6.5	650	1.005	0.014	-0.02	0.8021412	-1.2032118	-0.0572958	-28.33850268	88.40168982	-9.38505204
6.51	651	1.004	0.013	-0.021	0.9167328	-1.2032118	-0.0572958	-28.16661528	88.39023066	-9.2246238
6.52	652	1.003	0.011	-0.022	0.9740286	-1.0886202	-0.0572958	-28.0176462	88.3787715	-9.0813843
6.53	653	1.002	0.012	-0.022	1.0313244	-0.9167328	0	-27.8744067	88.37304192	-8.94960396
6.54	654	1.003	0.013	-0.02	1.0886202	-0.8021412	0.1145916	-27.69678972	88.36158276	-8.78344614
6.55	655	1.001	0.013	-0.021	1.2605076	-0.8021412	0.1718874	-28.01191662	88.32720528	-9.11576178
6.56	656	1	0.01	-0.022	1.2032118	-0.859437	0.1718874	-27.80565174	88.3214757	-8.91522648
6.57	657	1.002	0.011	-0.022	1.432395	-0.859437	0.286479	-27.56500938	88.31574612	-8.69750244
6.58	658	1.004	0.011	-0.023	1.6615782	-0.6875496	0.286479	-27.3587445	88.31001654	-8.50269672
6.59	659	1.006	0.009	-0.022	1.4896908	-0.4010706	0.4010706	-27.1582092	88.31001654	-8.31935016
6.6	660	1.007	0.01	-0.02	1.4896908	-0.4010706	0.5156622	-27.39312198	88.28709822	-8.5657221
6.61	661	1.008	0.009	-0.021	1.3750992	-0.1718874	0.5156622	-27.1868571	88.28709822	-8.37664596
6.62	662	1.009	0.01	-0.024	1.2032118	-0.1145916	0.572958	-26.97486264	88.2928278	-8.17611066
6.63	663	1.009	0.008	-0.024	1.2032118	0	0.6875496	-26.75140902	88.2928278	-7.96984578
6.64	664	1.008	0.006	-0.022	0.9167328	0.1145916	0.7448454	-26.55087372	88.29855738	-7.77504006
6.65	665	1.007	0.006	-0.024	0.8021412	0.0572958	0.7448454	-26.5279554	88.2641799	-7.7635809
6.66	666	1.004	0.005	-0.025	0.6875496	-0.1145916	0.572958	-26.32169052	88.26990948	-7.5630456
6.67	667	1.004	0.005	-0.025	0.3437748	-0.2291832	0.572958	-26.10396648	88.26990948	-7.35105114
6.68	668	1.005	0.003	-0.023	0.0572958	-0.4010706	0.5156622	-25.88051286	88.2641799	-7.12186794
6.69	669	1.004	0.005	-0.019	-0.2291832	-0.3437748	0.4583664	-25.67997756	88.2641799	-6.92133264
6.7	670	1.003	0.005	-0.017	-0.4010706	-0.1718874	0.3437748	-26.13261438	88.24699116	-7.36823988
6.71	671	1.002	0.006	-0.018	-0.5156622	-0.0572958	0.2291832	-26.05812984	88.24699116	-7.28802576
6.72	672	1.001	0.006	-0.018	-0.4583664	-0.1718874	0.1145916	-26.00083404	88.24699116	-7.22500038
6.73	673	1.002	0.006	-0.018	-0.572958	0	-0.0572958	-26.01802278	88.24699116	-7.23645954
6.74	674	1.004	0.005	-0.018	-0.4583664	0	0	-26.03521152	88.24699116	-7.2479187
6.75	675	1.006	0.007	-0.018	-0.5156622	0.1718874	-0.1145916	-26.74567944	88.22407284	-7.95265704
6.76	676	1.007	0.009	-0.018	-0.4010706	0.286479	-0.2291832	-26.86027104	88.22980242	-8.06724864
6.77	677	1.009	0.008	-0.017	-0.1718874	0.3437748	-0.1718874	-26.96913306	88.22980242	-8.17038108
6.78	678	1.011	0.007	-0.017	-0.2291832	0.3437748	-0.1718874	-27.0722655	88.235532	-8.27351352
6.79	679	1.01	0.007	-0.016	-0.4010706	0.4583664	-0.1145916	-27.18112752	88.235532	-8.37664596
6.8	680	1.011	0.009	-0.017	-0.572958	0.5156622	-0.0572958	-28.38433932	88.21834326	-9.57412818
6.81	681	1.012	0.008	-0.016	-0.7448454	0.4583664	-0.0572958	-28.48174218	88.22407284	-9.66580146
6.82	682	1.01	0.009	-0.018	-0.8021412	0.286479	0	-28.53903798	88.22407284	-9.7116381
6.83	683	1.01	0.01	-0.017	-0.572958	0	0	-28.53903798	88.22407284	-9.70590852
6.84	684	1.008	0.01	-0.019	-0.286479	-0.0572958	0	-28.52184924	88.22407284	-9.68871978
6.85	685	1.007	0.01	-0.021	-0.1718874	0	0	-29.74797936	88.16104746	-10.90339074
6.86	686	1.006	0.009	-0.021	-0.1145916	0.1145916	0	-29.77662726	88.16104746	-10.93776822
6.87	687	1.006	0.008	-0.019	-0.0572958	0.0572958	0	-29.78808642	88.16104746	-10.9434978
6.88	688	1.009	0.006	-0.018	-0.1718874	0.0572958	0.1718874	-29.75370894	88.16677704	-10.90912032
6.89	689	1.009	0.006	-0.016	-0.4010706	0.0572958	0.286479	-29.69068356	88.16677704	-10.84036536
6.9	690	1.009	0.01	-0.017	-0.572958	-0.0572958	0.2291832	-30.6246051	88.1495883	-11.76855732
6.91	691	1.007	0.009	-0.018	-0.4010706	-0.1718874	0.2291832	-30.53293182	88.1495883	-11.67115446
6.92	692	1.007	0.009	-0.019	-0.1145916	-0.1718874	0.3437748	-30.41261064	88.1495883	-11.5451037
6.93	693	1.005	0.011	-0.02	0.0572958	-0.286479	0.286479	-30.2808303	88.1495883	-11.41905294
6.94	694	1.009	0.008	-0.021	0.5156622	0.1718874	0.3437748	-30.20061618	88.1495883	-11.3445684
6.95	695	1.009	0.007	-0.018	0	0.4010706	0.4010706	-30.61314594	88.14385872	-11.75709816
6.96	696	1.006	0.009	-0.015	-0.286479	0.572958	0.4010706	-30.59022762	88.1495883	-11.73417984
6.97	697	1.006	0.01	-0.015	-0.4583664	0.6875496	0.5156622	-30.55585014	88.16104746	-11.6883432
6.98	698	1.006	0.009	-0.017	-0.4583664	0.7448454	0.6302538	-30.49282476	88.16677704	-11.62531782
6.99	699	1.007	0.007	-0.021	-0.286479	0.5156622	0.6302538	-30.3954219	88.1782362	-11.52218538
7	700	1.007	0.007	-0.023	-0.0572958	0.7448454	0.6302538	-30.4527177	88.16104746	-11.57948118
7.01	701	1.003	0.006	-0.023	-0.0572958	0.6875496	0.5156622	-30.4240698	88.17250662	-11.55083328
7.02	702	1	0.005	-0.023	-0.1145916	0.6875496	0.3437748	-30.4240698	88.1782362	-11.5451037
7.03	703	1	0.005	-0.02	-0.1145916	0.8021412	0.1145916	-30.52147266	88.18396578	-11.64250656
7.04	704	1.003	0.008	-0.02	0.0572958	0.859437	0.0572958	-30.63033468	88.19542494	-11.75136858
7.05	705	1.006	0.008	-0.021	0.1145916	0.6875496	0	-31.0543236	88.16677704	-12.1753575
7.06	706	1.007	0.007	-0.021	0.5156622	-0.0572958	-0.1145916	-31.07151234	88.16677704	-12.19827582
7.07	707	1.008	0.005	-0.018	0.3437748	-0.3437748	-0.1718874	-31.07151234	88.16677704	-12.2040054
7.08	708	1.008	0.007	-0.015	0.1718874	-0.286479	-0.2291832	-31.0829715	88.16104746	-12.22119414
7.09	709	1.009	0.008	-0.012	0.1145916	0	-0.286479	-31.1689152	88.16104746	-12.30713784
7.1	710	1.009	0.008	-0.012	0.1718874	0.286479	-0.2291832	-31.93667892	88.15531788	-13.07490156
7.11	711	1.008	0.007	-0.015	0.2291832	0.3437748	-0.3437748	-32.09137758	88.15531788	-13.2353298
7.12	712	1.007	0.008	-0.017	0.2291832	0.4010706	-0.3437748	-32.2575354	88.16104746	-13.40148762
7.13	713	1.006	0.009	-0.018	0.3437748	0.4583664	-0.1718874	-32.39504532	88.16104746	-13.53899754
7.14	714	1.007	0.011	-0.017	0.2291832	0.286479	-0.1718874	-32.49817776	88.16104746	-13.64785956
7.15	715	1.008	0.009	-0.017	0.1718874	0.1718874	-0.0572958	-33.3175077	88.12666998	-14.4671895
7.16	716	1.008	0.009	-0.017	0.1145916	0.0572958	-0.0572958	-33.3461556	88.12666998	-14.50156698
7.17	717	1.007	0.008	-0.017	0.1145916	0	-0.0572958	-33.38626266	88.12666998	-14.53594446
7.18	718	1.005	0.008	-0.017	0.1718874	0	-0.1145916	-33.42636972	88.12666998	-14.5817811
7.19	719	1.007	0.008	-0.017	0.1718874	0	-0.2291832	-33.50085426	88.12666998	-14.66199522
7.2	720	1.008	0.007	-0.017	0.286479	-0.0572958	-0.1718874	-33.82171074	88.10375166	-14.9828517
7.21	721	1.007	0.008	-0.017	0.4583664	-0.1145916	-0.0572958	-33.82744032	88.10375166	-14.99431086
7.22	722	1.007	0.01	-0.017	0.4010706	0	0	-33.82744032	88.09802208	-15.00004044
7.23	723	1.008	0.008	-0.019	0.5156622	-0.1718874	0.0572958	-33.77014452	88.09802208	-14.94847422
7.24	724	1.009	0.006	-0.019	0.4583664	-0.286479	0.0572958	-33.69565998	88.09802208	-14.87398968
7.25	725	1.01	0.007	-0.015	0.2291832	-0.286479	0.0572958	-34.37175042	88.08656292	-15.5558097
7.26	726	1.01	0.008	-0.013	0.0572958	-0.2291832	0	-34.32591378	88.08083334	-15.50424348
7.27	727	1.009	0.007	-0.014	0	-0.2291832	0	-34.27434756	88.08083334	-15.45840684
7.28	728	1.005	0.008	-0.015	-0.0572958	-0.1145916	0.0572958	-34.22851092	88.08083334	-15.40684062
7.29	729	1.004	0.008	-0.017	0	-0.1718874	0.1145916	-34.15402638	88.08083334	-15.33808566
7.3	730	1.003	0.008	-0.018	0.0572958	0	0.1145916	-34.65822942	88.04645586	-15.8422887
7.31	731	1.005	0.006	-0.018	0.1718874	0.0572958	0.1718874	-34.61812236	88.05218544	-15.80218164
7.32	732	1.004	0.005	-0.018	0	0	0.1145916	-34.58374488	88.05218544	-15.76780416
7.33	733	1.005	0.005	-0.015	-0.0572958	-0.1718874	0	-34.5493674	88.04645586	-15.73342668
7.34	734	1.006	0.006	-0.015	-0.0572958	-0.286479	-0.1145916	-34.53790824	88.04645586	-15.72196752
7.35	735	1.005	0.007	-0.014	0	-0.286479	-0.1718874	-34.6926069	88.04645586	-15.87666618
7.36	736	1.005	0.008	-0.015	0.0572958	-0.2291832	-0.1145916	-34.6926069	88.04072628	-15.87666618
7.37	737	1.004	0.007	-0.015	0	-0.0572958	-0.0572958	-34.70979564	88.04072628	-15.89385492
7.38	738	1.003	0.007	-0.017	0	0.0572958	-0.1718874	-34.76709144	88.04072628	-15.95115072
7.39	739	1.007	0.005	-0.016	-0.1718874	0.0572958	-0.286479	-34.85303514	88.04072628	-16.03136484
7.4	740	1.008	0.007	-0.016	-0.1718874	0	-0.3437748	-34.81865766	88.02926712	-15.99698736
7.41	741	1.009	0.009	-0.016	-0.2291832	-0.1145916	-0.286479	-34.87595346	88.02353754	-16.05428316
7.42	742	1.008	0.009	-0.015	-0.0572958	-0.3437748	-0.2291832	-34.87595346	88.02353754	-16.05428316
7.43	743	1.008	0.01	-0.014	-0.0572958	-0.3437748	-0.1718874	-34.8644943	88.01780796	-16.03709442
7.44	744	1.009	0.009	-0.013	-0.0572958	-0.3437748	-0.0572958	-34.83011682	88.01207838	-16.00271694
