TimeStamp(s)	FrameCounter	AccX	AccY	AccZ	GyrX	GyrY	GyrZ	EulerX	EulerY	EulerZ
0.01	1	-0.008	-1.001	0.074	-1.0313244	0.286479	0.286479	87.04377936	-0.42398892	-17.72159094
0.02	2	-0.004	-0.996	0.154	-1.7761698	1.145916	0.6875496	87.02659062	-0.4297185	-17.71013178
0.03	3	-0.002	-0.996	0.156	-1.8907614	1.2605076	0.7448454	87.00940188	-0.44117766	-17.69294304
0.04	4	-0.002	-0.994	0.156	-2.1199446	1.7761698	0.859437	86.98648356	-0.44690724	-17.6757543
0.05	5	-0.002	-0.995	0.156	-2.578311	2.291832	1.0886202	87.04377936	-0.45263682	-17.65856556
0.06	6	-0.005	-0.994	0.156	-2.9793816	2.8074942	1.145916	87.00940188	-0.46409598	-17.62991766
0.07	7	-0.008	-0.996	0.155	-3.3231564	3.4950438	1.0313244	86.9750244	-0.47555514	-17.59554018
0.08	8	-0.008	-0.997	0.152	-3.724227	4.010706	0.859437	86.94064692	-0.48128472	-17.55543312
0.09	9	-0.008	-0.993	0.145	-3.437748	3.8961144	0.7448454	86.90053986	-0.4870143	-17.52105564
0.1	10	-0.006	-0.989	0.144	-2.578311	3.0939732	0.5156622	86.95783566	-0.4870143	-17.49240774
0.11	11	-0.003	-0.985	0.145	-1.8907614	2.1772404	0.3437748	86.94064692	-0.49274388	-17.46948942
0.12	12	0.001	-0.984	0.142	-1.2605076	1.3750992	0.2291832	86.92345818	-0.49274388	-17.45803026
0.13	13	0.005	-0.985	0.143	-0.6302538	1.145916	0.2291832	86.9177286	-0.49847346	-17.4465711
0.14	14	0.007	-0.991	0.145	-0.1145916	1.0886202	0.286479	86.9177286	-0.49847346	-17.43511194
0.15	15	0.006	-0.997	0.146	0.1718874	0.8021412	0.286479	87.27869214	-0.45263682	-17.46375984
0.16	16	0.004	-1.001	0.145	0.3437748	0.5156622	0.3437748	87.27869214	-0.4583664	-17.45803026
0.17	17	0	-1.002	0.145	0.2291832	0.286479	0.4010706	87.28442172	-0.46409598	-17.45230068
0.18	18	-0.001	-1	0.144	0.3437748	-0.0572958	0.4010706	87.28442172	-0.46409598	-17.45230068
0.19	19	-0.003	-0.999	0.143	0.4010706	-0.1145916	0.3437748	87.2901513	-0.46982556	-17.45230068
0.2	20	-0.004	-0.996	0.144	0.5156622	-0.4583664	0.286479	87.7771656	-0.44117766	-17.49240774
0.21	21	-0.006	-0.996	0.146	0.4583664	-0.572958	0.0572958	87.78289518	-0.44117766	-17.49813732
0.22	22	-0.005	-0.997	0.148	0.1718874	-0.5156622	0	87.78289518	-0.44117766	-17.5038669
0.23	23	-0.006	-0.997	0.147	-0.0572958	-0.4583664	0	87.78289518	-0.44690724	-17.50959648
0.24	24	-0.008	-0.996	0.146	-0.286479	-0.4010706	0.0572958	87.78289518	-0.44690724	-17.50959648
0.25	25	-0.009	-0.998	0.145	-0.4583664	-0.3437748	0.1145916	88.20115452	-0.4297185	-17.53824438
0.26	26	-0.01	-0.998	0.145	-0.5156622	-0.1718874	0.2291832	88.19542494	-0.43544808	-17.54397396
0.27	27	-0.011	-1	0.146	-0.572958	-0.0572958	0.1718874	88.18969536	-0.43544808	-17.54397396
0.28	28	-0.009	-1	0.144	-0.4583664	-0.0572958	0.1718874	88.18396578	-0.44117766	-17.54397396
0.29	29	-0.008	-1	0.143	-0.3437748	-0.1145916	0	88.1782362	-0.44117766	-17.54397396
0.3	30	-0.006	-0.999	0.144	-0.2291832	-0.572958	0.0572958	88.57357722	-0.41825934	-17.57835144
0.31	31	-0.004	-0.997	0.142	0.0572958	-0.859437	0.0572958	88.5793068	-0.41825934	-17.58408102
0.32	32	-0.001	-0.999	0.144	0.286479	-1.2032118	0.0572958	88.5793068	-0.41825934	-17.59554018
0.33	33	0	-0.998	0.146	0.2291832	-1.0886202	0	88.58503638	-0.41825934	-17.60699934
0.34	34	-0.003	-1.001	0.148	0.4583664	-0.9740286	0.1145916	88.58503638	-0.41825934	-17.6184585
0.35	35	-0.003	-1.002	0.147	0.0572958	-0.8021412	0.2291832	88.97464782	-0.39534102	-17.65283598
0.36	36	-0.006	-1.002	0.149	0.1145916	-0.9167328	0.3437748	88.97464782	-0.4010706	-17.66429514
0.37	37	-0.006	-1	0.149	0	-0.7448454	0.4010706	88.97464782	-0.4010706	-17.67002472
0.38	38	-0.008	-1	0.145	-0.0572958	-0.5156622	0.286479	88.97464782	-0.40680018	-17.6757543
0.39	39	-0.008	-0.998	0.145	-0.2291832	-0.3437748	0.1718874	88.96891824	-0.40680018	-17.6757543
0.4	40	-0.007	-0.997	0.142	-0.1145916	-0.286479	0.1145916	89.50749876	-0.37815228	-17.71586136
0.41	41	-0.004	-0.997	0.141	0	-0.6302538	0.2291832	89.50749876	-0.37815228	-17.72159094
0.42	42	-0.003	-0.997	0.139	0	-1.0886202	0.1145916	89.50749876	-0.37815228	-17.7330501
0.43	43	-0.003	-0.995	0.139	0.0572958	-1.3178034	0.1145916	89.50749876	-0.37815228	-17.74450926
0.44	44	-0.004	-0.996	0.141	0.286479	-1.5469866	0.1145916	89.51322834	-0.38388186	-17.761698
0.45	45	-0.006	-0.996	0.141	0.286479	-1.6615782	0	89.68511574	-0.3724227	-17.78461632
0.46	46	-0.006	-0.997	0.142	0.286479	-1.6042824	0	89.69084532	-0.3724227	-17.80180506
0.47	47	-0.007	-1	0.141	0.286479	-1.5469866	0.0572958	89.6965749	-0.3724227	-17.8189938
0.48	48	-0.008	-1.002	0.144	0.3437748	-1.2605076	0.1145916	89.6965749	-0.3724227	-17.83045296
0.49	49	-0.007	-1.006	0.145	0.1718874	-1.145916	0.286479	89.70230448	-0.37815228	-17.84191212
0.5	50	-0.005	-1.009	0.145	-0.286479	-1.0313244	0.286479	89.89138062	-0.36669312	-17.86483044
0.51	51	-0.004	-1.01	0.149	-0.6875496	-0.7448454	0.5156622	89.87992146	-0.3724227	-17.87056002
0.52	52	-0.004	-1.006	0.149	-1.0313244	-0.5156622	0.5156622	89.8684623	-0.37815228	-17.8762896
0.53	53	-0.005	-1.002	0.151	-1.2605076	-0.3437748	0.4010706	89.85700314	-0.38388186	-17.88201918
0.54	54	-0.006	-0.996	0.146	-1.3750992	-0.2291832	0.286479	89.84554398	-0.38388186	-17.88201918
0.55	55	-0.005	-0.99	0.141	-1.2032118	-0.4583664	0.1718874	90.00597222	-0.3724227	-17.89920792
0.56	56	-0.006	-0.986	0.139	-0.7448454	-0.9167328	0.1145916	90.00024264	-0.37815228	-17.91066708
0.57	57	-0.004	-0.982	0.141	-0.1718874	-1.432395	0	89.99451306	-0.37815228	-17.92212624
0.58	58	-0.005	-0.98	0.143	0.286479	-1.7761698	-0.1145916	90.00024264	-0.3724227	-17.93931498
0.59	59	-0.007	-0.978	0.15	0.9740286	-1.8334656	-0.286479	90.0117018	-0.3724227	-17.9622333
0.6	60	-0.011	-0.978	0.16	1.6615782	-0.8021412	-0.4583664	90.1549413	-0.36669312	-17.97369246
0.61	61	-0.012	-0.978	0.165	2.0626488	0.286479	-0.4583664	90.17785962	-0.36096354	-17.96796288
0.62	62	-0.012	-0.977	0.172	2.578311	1.2032118	-0.6302538	90.20650752	-0.35523396	-17.95650372
0.63	63	-0.012	-0.977	0.177	3.5523396	1.718874	-0.6875496	90.240885	-0.34950438	-17.93931498
0.64	64	-0.01	-0.978	0.182	4.9274388	1.9480572	-0.8021412	90.28672164	-0.33804522	-17.91639666
0.65	65	-0.009	-0.975	0.192	6.7036086	2.1199446	-0.7448454	90.40704282	-0.33231564	-17.89920792
0.66	66	-0.004	-0.97	0.199	8.59437	2.5210152	-0.6302538	90.49298652	-0.32658606	-17.87056002
0.67	67	0	-0.966	0.208	10.5424272	2.8074942	-0.4010706	90.59611896	-0.32085648	-17.84191212
0.68	68	0	-0.962	0.212	13.2353298	3.5523396	-0.0572958	90.73362888	-0.32085648	-17.80753464
0.69	69	-0.004	-0.963	0.206	15.2979786	3.724227	0.1718874	90.88832754	-0.32085648	-17.76742758
0.7	70	-0.01	-0.957	0.2	17.4179232	2.9793816	0.7448454	91.08313326	-0.33231564	-17.73877968
0.71	71	-0.009	-0.942	0.203	20.4546006	1.2605076	1.432395	91.29512772	-0.3437748	-17.72159094
0.72	72	-0.007	-0.932	0.216	23.7204612	-0.286479	1.8334656	91.53577008	-0.36096354	-17.72159094
0.73	73	-0.006	-0.932	0.237	26.2414764	-1.3178034	1.8907614	91.79933076	-0.37815228	-17.7330501
0.74	74	-0.008	-0.935	0.255	27.3873924	-1.718874	1.6615782	92.08008018	-0.38961144	-17.75023884
0.75	75	-0.013	-0.939	0.269	28.4760126	-2.4064236	0.6302538	92.3894775	-0.39534102	-17.77315716
0.76	76	-0.016	-0.957	0.277	30.1948866	-4.010706	-1.0313244	92.69887482	-0.37815228	-17.80753464
0.77	77	-0.023	-0.966	0.281	31.4553942	-4.5263682	-2.4637194	93.0197313	-0.3437748	-17.8476417
0.78	78	-0.03	-0.978	0.267	32.7159018	-4.1252976	-3.4950438	93.35204694	-0.30366774	-17.88201918
0.79	79	-0.033	-0.984	0.239	32.7159018	-2.4637194	-4.3544808	93.68436258	-0.2578311	-17.89920792
0.8	80	-0.038	-0.991	0.216	32.658606	0.0572958	-4.9274388	94.0224078	-0.20626488	-17.88774876
0.81	81	-0.05	-0.991	0.194	32.2002396	2.6356068	-4.4690724	94.34899386	-0.16615782	-17.85910086
0.82	82	-0.052	-0.988	0.179	29.9657034	4.0680018	-3.4950438	94.6526616	-0.13178034	-17.81326422
0.83	83	-0.056	-0.994	0.18	27.8457588	3.8388186	-2.5210152	94.9391406	-0.10886202	-17.76742758
0.84	84	-0.055	-1.008	0.207	23.204799	2.5210152	-1.9480572	95.17405338	-0.09167328	-17.73877968
0.85	85	-0.053	-1.038	0.234	19.4232762	1.8907614	-2.4064236	95.38604784	-0.06875496	-17.71586136
0.86	86	-0.012	-1.072	0.268	16.5011904	1.2605076	-2.8074942	95.55220566	-0.04010706	-17.69294304
0.87	87	0.023	-1.088	0.286	12.3758928	1.4896908	-3.3804522	95.67825642	-0.01145916	-17.6757543
0.88	88	0.052	-1.081	0.283	8.3651868	1.0886202	-3.0939732	95.76420012	0.01718874	-17.65856556
0.89	89	0.059	-1.068	0.282	4.6982556	-0.859437	-2.2345362	95.81003676	0.04010706	-17.66429514
0.9	90	0.063	-1.057	0.278	0.3437748	-2.86479	-1.3178034	95.86160298	0.08021412	-17.7044022
0.91	91	0.049	-1.048	0.272	-3.9534102	-4.8128472	-0.6302538	95.82149592	0.09167328	-17.75023884
0.92	92	0.026	-1.047	0.275	-7.7922288	-7.7922288	-0.4583664	95.7412818	0.10886202	-17.82472338
0.93	93	0.004	-1.054	0.287	-10.6570188	-10.026765	-0.859437	95.63814936	0.12605076	-17.92785582
0.94	94	-0.014	-1.067	0.301	-14.0947668	-11.745639	-1.3750992	95.49490986	0.15469866	-18.04244742
0.95	95	-0.024	-1.073	0.302	-17.9335854	-12.8342592	-1.5469866	95.32875204	0.18334656	-18.16849818
0.96	96	-0.034	-1.071	0.298	-21.7151082	-12.605076	-1.432395	95.10529842	0.21199446	-18.29454894
0.97	97	-0.042	-1.064	0.285	-25.3247436	-11.8029348	-0.9740286	94.8531969	0.23491278	-18.40914054
0.98	98	-0.049	-1.054	0.268	-28.934379	-11.0007936	-0.4010706	94.55525874	0.24637194	-18.52373214
0.99	99	-0.055	-1.043	0.244	-32.372127	-10.4278356	0.1718874	94.22867268	0.25210152	-18.62686458
1	100	-0.044	-1.038	0.23	-35.6952834	-9.9121734	0.5156622	93.8791683	0.25210152	-18.72999702
1.01	101	-0.033	-1.037	0.221	-38.961144	-10.1413566	0.5156622	93.48382728	0.25210152	-18.83885904
1.02	102	-0.026	-1.038	0.21	-42.6280752	-10.1413566	-0.0572958	93.0483792	0.2578311	-18.94199148
1.03	103	-0.021	-1.036	0.195	-46.8679644	-9.2819196	-1.0313244	92.57282406	0.27501984	-19.03939434
1.04	104	-0.016	-1.037	0.187	-51.4516284	-8.4797784	-2.1199446	92.05143228	0.29793816	-19.12533804
1.05	105	-0.012	-1.03	0.175	-57.2958	-7.5057498	-3.2085648	91.47847428	0.32658606	-19.20555216
1.06	106	-0.001	-1.017	0.163	-62.6816052	-5.72958	-3.724227	90.8424909	0.36096354	-19.26857754
1.07	107	0.011	-0.998	0.149	-68.182002	-3.8961144	-4.010706	90.14921172	0.4010706	-19.31441418
1.08	108	0.024	-0.977	0.139	-74.8283148	-2.6356068	-4.010706	89.39290716	0.43544808	-19.35452124
1.09	109	0.036	-0.956	0.139	-78.2660628	-2.7501984	-3.3804522	88.59649554	0.46409598	-19.38889872
1.1	110	0.049	-0.947	0.137	-79.5265704	-4.6982556	-2.0626488	87.79435434	0.47555514	-19.44619452
1.11	111	0.063	-0.951	0.127	-78.3806544	-7.7922288	-0.4010706	86.99794272	0.47555514	-19.53213822
1.12	112	0.074	-0.979	0.123	-75.0002022	-9.3392154	1.2032118	86.24163816	0.45263682	-19.62954108
1.13	113	0.083	-1.024	0.131	-70.8749046	-10.313244	2.005353	85.51971108	0.42398892	-19.7384031
1.14	114	0.069	-1.069	0.162	-65.317212	-10.4851314	1.145916	84.86080938	0.4010706	-19.8529947
1.15	115	0.037	-1.113	0.198	-58.2125328	-8.6516658	-1.3178034	84.2821218	0.4010706	-19.94466798
1.16	116	0.021	-1.131	0.24	-48.2430636	-4.870143	-5.72958	83.78937792	0.45263682	-20.00196378
1.17	117	0.016	-1.126	0.282	-42.2843004	-1.6615782	-9.6829902	83.365389	0.53858052	-20.03634126
1.18	118	0.029	-1.101	0.288	-38.9038482	0.5156622	-13.1207382	82.9643184	0.66463128	-20.04780042
1.19	119	0.047	-1.06	0.271	-36.1536498	3.2085648	-15.2979786	82.59762528	0.81932994	-20.04207084
1.2	120	0.07	-1.021	0.243	-34.3201842	7.448454	-16.1574156	82.27103922	0.98548776	-19.99050462
1.21	121	0.096	-0.982	0.21	-33.2888598	11.4018642	-15.9855282	81.932994	1.15164558	-19.90456092
1.22	122	0.113	-0.943	0.177	-32.3148312	12.891555	-15.0114996	81.60640794	1.31207382	-19.80142848
1.23	123	0.126	-0.889	0.147	-30.5959572	11.9175264	-13.1207382	81.29701062	1.44958374	-19.70402562
1.24	124	0.128	-0.844	0.128	-27.6738714	7.9641162	-10.5424272	81.0162612	1.56417534	-19.64672982
1.25	125	0.135	-0.799	0.118	-25.3247436	2.9220858	-8.307891	80.77561884	1.65584862	-19.63527066
1.26	126	0.142	-0.765	0.118	-23.1475032	-2.291832	-6.4744254	80.54070606	1.71314442	-19.66964814
1.27	127	0.148	-0.742	0.114	-21.6005166	-6.7036086	-5.2712136	80.31725244	1.75898106	-19.74986226
1.28	128	0.157	-0.733	0.107	-19.7097552	-10.026765	-4.6409598	80.11671714	1.78762896	-19.8529947
1.29	129	0.16	-0.737	0.095	-17.8189938	-12.605076	-4.2398892	79.93337058	1.81054728	-19.99050462
1.3	130	0.149	-0.754	0.082	-15.8136408	-14.6677248	-3.6096354	79.7844015	1.82773602	-20.1394737
1.31	131	0.095	-0.787	0.067	-13.9228794	-16.5011904	-1.718874	79.63543242	1.82200644	-20.30563152
1.32	132	0.064	-0.805	0.044	-14.0947668	-18.8503182	2.005353	79.49219292	1.77044022	-20.48897808
1.33	133	0.026	-0.814	-0.002	-14.7823164	-20.4546006	5.5003968	79.33749426	1.68449652	-20.6837838
1.34	134	-0.003	-0.826	-0.041	-12.9488508	-18.048177	7.734933	79.20571392	1.5756345	-20.84421204
1.35	135	-0.034	-0.85	-0.062	-10.6570188	-13.6364004	8.307891	79.10258148	1.46677248	-20.96453322
1.36	136	-0.056	-0.868	-0.088	-10.2559482	-8.7662574	7.3338624	78.99944904	1.38082878	-21.03328818
1.37	137	-0.07	-0.857	-0.131	-12.2040054	-2.3491278	4.4690724	78.87339828	1.32926256	-21.05047692
1.38	138	-0.078	-0.825	-0.18	-14.4958374	3.6669312	0.5156622	78.7244292	1.32926256	-21.01609944
1.39	139	-0.074	-0.761	-0.22	-17.3606274	8.021412	-3.724227	78.5525418	1.38082878	-20.94734448
1.4	140	-0.061	-0.696	-0.244	-19.767051	10.1986524	-7.2765666	78.34054734	1.4610429	-20.86140078
1.41	141	-0.047	-0.653	-0.24	-20.9702628	8.8235532	-10.4851314	78.12855288	1.5756345	-20.7983754
1.42	142	-0.032	-0.643	-0.214	-21.6005166	6.1306506	-13.8655836	77.91082884	1.718874	-20.7697275
1.43	143	-0.038	-0.662	-0.187	-20.5691922	2.4064236	-16.615782	77.69883438	1.88503182	-20.78118666
1.44	144	-0.052	-0.736	-0.142	-16.042824	-0.6302538	-17.9335854	77.53267656	2.05691922	-20.8270233
1.45	145	-0.07	-0.865	-0.049	-13.0061466	0.7448454	-17.3606274	77.42381454	2.21161788	-20.8556712
1.46	146	-0.077	-1.032	0.066	-13.5218088	8.021412	-15.2979786	77.28630462	2.37204612	-20.80983456
1.47	147	-0.06	-1.275	0.163	-15.6417534	22.5172494	-11.5164558	77.13160596	2.52674478	-20.61502884
1.48	148	-0.038	-1.512	0.211	-14.610429	46.9252602	-6.6463128	76.99409604	2.68144344	-20.17958076
1.49	149	-0.063	-1.684	0.178	-13.0061466	61.4210976	-1.3750992	76.88523402	2.81322378	-19.58943402
1.5	150	-0.1	-1.736	0.217	-13.178034	67.322565	4.5263682	76.776372	2.89916748	-18.92480274
1.51	151	-0.093	-1.721	0.28	-15.756345	72.192708	9.9121734	76.64459166	2.9507337	-18.20287566
1.52	152	-0.097	-1.68	0.264	-14.32395	75.1147938	16.6730778	76.53000006	2.93927454	-17.44084152
1.53	153	-0.067	-1.68	0.25	-7.8495246	74.3126526	24.0069402	76.47843384	2.85333084	-16.66161864
1.54	154	-0.026	-1.696	0.256	-4.583664	70.187355	29.5646328	76.4612451	2.71582092	-15.91677324
1.55	155	0.023	-1.67	0.263	-5.156622	63.0826758	32.8304934	76.4325972	2.52674478	-15.22922364
1.56	156	0.078	-1.629	0.267	-5.8441716	52.5402486	32.6013102	76.39249014	2.31475032	-14.64480648
1.57	157	0.123	-1.581	0.258	-5.7868758	43.3729206	28.8197874	76.3466535	2.12567418	-14.16352176
1.58	158	0.155	-1.524	0.242	-8.0787078	34.1482968	22.6891368	76.27216896	1.9767051	-13.7796399
1.59	159	0.168	-1.446	0.212	-11.0580894	24.1788276	15.8709366	76.16903652	1.87357266	-13.51034964
1.6	160	0.169	-1.352	0.187	-12.605076	13.178034	9.2246238	76.0601745	1.81627686	-13.36138056
1.61	161	0.165	-1.258	0.169	-12.0894138	1.8334656	3.3804522	75.93985332	1.78762896	-13.33846224
1.62	162	0.13	-1.186	0.161	-10.9434978	-9.3392154	-1.3750992	75.82526172	1.7761698	-13.43013552
1.63	163	0.058	-1.082	0.133	-11.1153852	-17.8189938	-4.4117766	75.71067012	1.78189938	-13.61348208
1.64	164	-0.009	-0.983	0.086	-11.45916	-24.7517856	-5.2139178	75.59034894	1.7761698	-13.8655836
1.65	165	-0.065	-0.884	0.054	-11.5164558	-27.3300966	-5.443101	75.4872165	1.75898106	-14.14633302
1.66	166	-0.112	-0.782	0.007	-11.745639	-27.8457588	-5.7868758	75.36116574	1.75325148	-14.42708244
1.67	167	-0.15	-0.686	-0.07	-12.2040054	-27.2728008	-6.4171296	75.2293854	1.7475219	-14.70783186
1.68	168	-0.167	-0.584	-0.192	-14.32395	-25.0382646	-7.448454	75.08041632	1.76471064	-14.97139254
1.69	169	-0.172	-0.477	-0.298	-16.902261	-21.0275586	-8.6516658	74.90279934	1.79908812	-15.19484616
1.7	170	-0.168	-0.358	-0.373	-15.8709366	-14.6677248	-9.7975818	74.72518236	1.84492476	-15.36100398
1.71	171	-0.145	-0.239	-0.344	-11.6883432	-5.6149884	-11.0007936	74.60486118	1.93659804	-15.44694768
1.72	172	-0.103	-0.138	-0.224	-13.1207382	7.2765666	-11.45916	74.46735126	2.0626488	-15.40684062
1.73	173	-0.064	-0.029	-0.121	-16.2720072	17.9908812	-12.5477802	74.30692302	2.22307704	-15.2693307
1.74	174	-0.028	0.07	-0.055	-18.7357266	27.7311672	-13.9801752	74.12357646	2.42361234	-15.0401475
1.75	175	-0.003	0.145	-0.034	-18.334656	36.382833	-15.469866	73.9402299	2.65852512	-14.73647976
1.76	176	-0.005	0.183	-0.011	-14.6677248	44.404245	-16.2720072	73.80271998	2.9220858	-14.35832748
1.77	177	0.01	0.164	0.02	-8.9954406	50.5921914	-14.4958374	73.72823544	3.18564648	-13.91142024
1.78	178	0.017	0.063	0.045	-3.3804522	47.8992888	-9.9694692	73.7110467	3.40337052	-13.48170174
1.79	179	0.018	-0.176	0.027	-2.4064236	35.9244666	-1.6615782	73.69958754	3.50650296	-13.14365652
1.8	180	0.047	-0.445	-0.039	-10.886202	22.4599536	9.5111028	73.60791426	3.47785506	-12.90301416
1.81	181	0.142	-0.778	-0.121	-17.3033316	13.8655836	19.5378678	73.44175644	3.3231564	-12.71393802
1.82	182	0.276	-1.337	-0.241	-24.1215318	0.6302538	27.4446882	73.20111408	3.05959572	-12.6337239
1.83	183	0.41	-2.304	-0.396	-48.6441342	-16.615782	33.3461556	72.7083702	2.6929026	-12.70247886
1.84	184	0.444	-3.148	-0.252	-64.2285918	-18.7930224	28.4187168	72.0494685	2.36631654	-12.79988172
1.85	185	0.363	-2.96	-0.008	-72.192708	-28.4187168	15.756345	71.31608226	2.13140376	-13.02906492
1.86	186	0.231	-1.928	-0.096	-74.0834694	-33.5753388	8.9954406	70.5597777	1.93659804	-13.3212735
1.87	187	0.112	-1.432	0.038	-17.4179232	-36.5547204	5.5003968	70.37643114	1.77044022	-13.64785956
1.88	188	-0.039	-1.705	0.162	26.0122932	-40.3362432	-3.2658606	70.63426224	1.68449652	-14.037471
1.89	189	-0.06	-1.909	0.232	24.8090814	-37.0130868	-12.2613012	70.88063418	1.6902261	-14.42135286
1.9	190	-0.021	-2.03	0.328	10.026765	-34.4920716	-18.8503182	70.97803704	1.76471064	-14.8109643
1.91	191	0.003	-2.077	0.363	-8.307891	-29.1635622	-18.2773602	70.88636376	1.85065434	-15.14327994
1.92	192	0.007	-2.07	0.294	-22.6891368	-19.7097552	-10.2559482	70.65145098	1.88503182	-15.36673356
1.93	193	0.014	-2.025	0.216	-28.2468294	-10.3705398	-0.859437	70.3592424	1.85638392	-15.469866
1.94	194	0.014	-1.936	0.168	-27.4446882	-3.8961144	6.4171296	70.08422256	1.78189938	-15.48705474
1.95	195	0.002	-1.786	0.131	-22.5745452	2.3491278	11.2299768	69.86076894	1.68449652	-15.42975894
1.96	196	0.004	-1.588	0.082	-16.042824	9.8548776	12.2613012	69.7003407	1.59855282	-15.29224902
1.97	197	0.01	-1.366	0.003	-9.740286	12.3758928	10.3705398	69.60293784	1.53552744	-15.14327994
1.98	198	0.015	-1.146	-0.082	-4.3544808	10.6570188	6.2452422	69.56283078	1.51260912	-15.02295876
1.99	199	0.019	-0.94	-0.147	-2.005353	6.4744254	0.3437748	69.53991246	1.52979786	-14.95993338
2	200	0.008	-0.718	-0.181	1.432395	2.6929026	-5.9014674	69.5571012	1.59282324	-14.9542038
2.01	201	-0.012	-0.489	-0.19	10.2559482	4.870143	-11.0580894	69.66023364	1.71314442	-14.94847422
2.02	202	-0.015	-0.293	-0.18	22.5172494	14.4385416	-13.8655836	69.88941684	1.8907614	-14.85680094
2.03	203	-0.026	-0.133	-0.178	32.945085	22.91832	-15.5844576	70.22746206	2.10848544	-14.69064312
2.04	204	-0.005	0.003	-0.156	39.4195104	27.788463	-16.2147114	70.63426224	2.35485738	-14.47864866
2.05	205	0.01	0.101	-0.129	37.0130868	26.8144344	-14.1520626	71.00095536	2.57258142	-14.27238378
2.06	206	0.012	0.232	-0.136	31.6845774	19.767051	-7.0473834	71.32754142	2.69863218	-14.10622596
2.07	207	0.001	0.336	-0.197	28.0176462	4.4690724	4.0680018	71.61975	2.67571386	-14.04320058
2.08	208	-0.011	0.366	-0.282	23.5485738	-13.6936962	17.0168526	71.85466278	2.48090814	-14.1234147
2.09	209	-0.034	0.363	-0.324	19.767051	-29.8511118	28.3041252	72.05519808	2.13140376	-14.31822042
2.1	210	-0.047	0.335	-0.284	18.7357266	-42.1697088	34.950438	72.22708548	1.68449652	-14.610429
2.11	211	-0.033	0.275	-0.234	21.199446	-52.139178	35.523396	72.43907994	1.20894138	-15.00004044
2.12	212	-0.012	0.178	-0.242	23.5485738	-58.3271244	28.0176462	72.6797223	0.78495246	-15.469866
2.13	213	0.009	0.032	-0.266	24.350715	-56.9520252	18.907614	72.93182382	0.4583664	-15.95115072
2.14	214	0.001	-0.182	-0.297	24.064236	-53.7434604	10.4851314	73.17819576	0.21772404	-16.43243544
2.15	215	-0.018	-0.495	-0.218	21.0848544	-47.3836266	4.9274388	73.3959198	0.05156622	-16.86788352
2.16	216	0	-0.951	-0.112	9.9694692	-32.945085	-1.0313244	73.50478182	-0.01718874	-17.18874
2.17	217	0.05	-1.671	-0.149	-6.9327918	-14.2093584	-12.032118	73.43602686	0.0572958	-17.35489782
2.18	218	0.004	-3.017	-0.244	-35.5806918	2.8074942	-38.2162986	73.06933374	0.42398892	-17.44084152
2.19	219	-0.118	-3.845	-0.04	-50.133825	9.6829902	-58.155237	72.55940112	0.99694692	-17.52105564
2.2	220	-0.153	-2.197	-0.088	-93.7359288	1.0313244	-44.9199072	71.60829084	1.40947668	-17.65283598
2.21	221	-0.168	-1.309	-0.269	-68.6976642	13.6936962	-39.4768062	70.90928208	1.81627686	-17.65856556
2.22	222	0.009	-1.77	-0.141	3.2658606	24.064236	-32.8877892	70.94365956	2.19442914	-17.53824438
2.23	223	0.11	-2.138	-0.007	12.4904844	31.7418732	-18.1627686	71.0754399	2.4637194	-17.29187244
2.24	224	0.083	-2.125	0.137	1.0886202	26.7571386	0.9167328	71.09262864	2.53247436	-17.03404134
2.25	225	0.044	-1.957	0.212	-8.8235532	13.2353298	13.2926256	71.01241452	2.44653066	-16.86788352
2.26	226	0.037	-1.859	0.15	-13.1207382	2.578311	18.2200644	70.88063418	2.28037284	-16.7876694
2.27	227	0.051	-1.863	0.095	-8.307891	-2.6356068	17.9335854	70.80042006	2.10275586	-16.75329192
2.28	228	0.063	-1.858	0.081	1.2032118	-4.4690724	10.8289062	70.81187922	1.98816426	-16.7590215
2.29	229	0.11	-1.785	0.088	6.4171296	-6.7036086	1.0886202	70.8749046	1.95951636	-16.82204688
2.3	230	0.095	-1.611	0.072	9.6256944	-11.5737516	-9.1100322	70.97803704	2.01108258	-16.9595568
2.31	231	0.107	-1.381	0.014	16.5011904	-16.9595568	-14.4958374	71.14419486	2.10275586	-17.16582168
2.32	232	0.126	-1.158	-0.014	28.074942	-23.3193906	-14.9542038	71.4192147	2.1772404	-17.42938236
2.33	233	0.127	-0.938	0.004	34.091001	-29.3927454	-10.7716104	71.75725992	2.20015872	-17.73877968
2.34	234	0.066	-0.684	-0.012	32.372127	-37.9298196	-6.6463128	72.0781164	2.16005166	-18.11693196
2.35	235	0.014	-0.411	-0.049	34.4347758	-47.7274014	-4.9847346	72.41616162	2.07983754	-18.58102794
2.36	236	-0.044	-0.182	-0.06	44.5761324	-57.1812084	-2.7501984	72.85733928	1.95378678	-19.13106762
2.37	237	-0.121	-0.01	-0.025	50.3057124	-60.3324774	0.6302538	73.36154232	1.79908812	-19.70402562
2.38	238	-0.211	0.139	-0.026	46.9252602	-58.6136034	0.286479	73.8256383	1.65011904	-20.25979488
2.39	239	-0.266	0.281	-0.071	38.7892566	-54.3737142	-4.9274388	74.21524974	1.56990492	-20.78691624
2.4	240	-0.255	0.428	-0.066	30.8824362	-47.269035	-13.6364004	74.5131879	1.5756345	-21.27393054
2.41	241	-0.217	0.521	-0.052	25.9549974	-29.5646328	-23.491278	74.771019	1.73606274	-21.61770534
2.42	242	-0.164	0.502	-0.104	23.2620948	-2.9220858	-33.4607472	75.0002022	2.05118964	-21.73229694
2.43	243	-0.128	0.392	-0.119	20.912967	22.7464326	-43.7166954	75.21219666	2.52674478	-21.61770534
2.44	244	-0.13	0.249	-0.081	19.1367972	41.6540466	-45.7220484	75.41846154	3.05959572	-21.33122634
2.45	245	-0.159	0.128	-0.03	20.2254174	50.0192334	-39.7059894	75.63618558	3.54661002	-20.9416149
2.46	246	-0.179	0.016	0.011	18.048177	53.6861646	-28.8197874	75.84245046	3.94195104	-20.48897808
2.47	247	-0.17	-0.117	-0.019	12.032118	55.4050386	-15.5844576	75.99141954	4.2112413	-19.99050462
2.48	248	-0.111	-0.314	-0.157	4.010706	58.2125328	-0.572958	76.06590408	4.34302164	-19.42900578
2.49	249	-0.017	-0.597	-0.393	-5.3858052	55.290447	17.3606274	76.04871534	4.29145542	-18.8503182
2.5	250	0.154	-1.077	-0.69	-16.2720072	40.1643558	38.1590028	75.90547584	4.010706	-18.36903348
2.51	251	0.538	-1.948	-0.894	-38.1590028	12.5477802	64.3431834	75.53878272	3.41482968	-18.09974322
2.52	252	0.936	-3.331	-0.939	-62.9107884	-23.0329116	84.3394176	74.90279934	2.54393352	-18.11120238
2.53	253	0.694	-3.634	-0.215	-1.145916	-11.745639	52.998615	74.89706976	2.005353	-18.08828406
2.54	254	0.343	-2.395	0.077	-87.8917572	-8.4797784	17.9335854	74.00325528	1.8048177	-18.1341207
2.55	255	0.013	-1.328	-0.251	-80.3287116	-9.7975818	10.7143146	73.18965492	1.6615782	-18.20287566
2.56	256	-0.307	-1.457	-0.02	34.2055926	-21.4286292	11.745639	73.5391593	1.50114996	-18.36903348
2.57	257	-0.388	-1.835	0.087	60.1032942	-25.3820394	11.745639	74.14649478	1.32926256	-18.57529836
2.58	258	-0.233	-2.035	0.142	37.9298196	-21.3713334	9.453807	74.53037664	1.19175264	-18.75291534
2.59	259	0.025	-2.091	0.216	11.172681	-3.9534102	7.0473834	74.64496824	1.1172681	-18.77010408
2.6	260	0.223	-2.007	0.225	-24.1215318	12.4331886	6.1306506	74.40432588	1.0886202	-18.63832374
2.61	261	0.329	-1.915	0.199	-43.3729206	16.9595568	5.72958	73.96314822	1.06570188	-18.46643634
2.62	262	0.372	-1.86	0.133	-46.2950064	15.0114996	6.0733548	73.49332266	1.04278356	-18.31173768
2.63	263	0.305	-1.813	0.071	-40.8519054	10.313244	6.302538	73.0807929	1.0026765	-18.19714608
2.64	264	0.199	-1.701	-0.004	-38.4454818	5.6149884	7.7922288	72.69118146	0.93965112	-18.12266154
2.65	265	0.117	-1.539	-0.077	-28.4760126	1.4896908	8.9381448	72.41043204	0.859437	-18.08255448
2.66	266	0.044	-1.355	-0.067	-17.0168526	-1.3750992	8.59437	72.23854464	0.76776372	-18.07109532
2.67	267	-0.047	-1.136	-0.025	-13.0061466	-1.9480572	7.6776372	72.1067643	0.69327918	-18.07109532
2.68	268	-0.087	-0.858	-0.004	-17.0741484	-0.2291832	7.5630456	71.9348769	0.61879464	-18.05390658
2.69	269	-0.142	-0.601	0.01	-17.8762896	1.7761698	6.8182002	71.75153034	0.55576926	-18.01379952
2.7	270	-0.121	-0.408	-0.012	-9.2819196	3.9534102	4.8128472	71.65985706	0.50993262	-17.9622333
2.71	271	-0.096	-0.231	-0.026	4.1252976	6.1306506	0	71.7056937	0.52712136	-17.9049375
2.72	272	-0.047	-0.088	-0.013	18.8503182	5.156622	-6.1306506	71.89476984	0.60733548	-17.87056002
2.73	273	0.036	0.018	0.011	35.3515086	6.016059	-9.5111028	72.25573338	0.7161975	-17.84191212
2.74	274	0.111	0.058	-0.013	40.6227222	11.8029348	-10.313244	72.66826314	0.84797784	-17.75596842
2.75	275	0.139	0.117	-0.073	45.4355694	19.3086846	-4.4117766	73.12089996	0.95683986	-17.57835144
2.76	276	0.134	0.135	-0.114	47.9565846	15.5844576	5.2712136	73.60791426	0.95111028	-17.41219362
2.77	277	0.105	0.143	-0.11	41.539455	0.1145916	17.1314442	74.03190318	0.79068204	-17.3606274
2.78	278	0.065	0.157	-0.104	33.9764094	-15.1260912	28.6479	74.37567798	0.4870143	-17.42365278
2.79	279	0.043	0.166	-0.146	28.1322378	-27.4446882	37.1849742	74.66788656	0.06875496	-17.5898106
2.8	280	0.059	0.16	-0.15	24.8663772	-36.6120162	41.825934	74.9142585	-0.40680018	-17.83045296
2.81	281	0.09	0.139	-0.11	24.6944898	-41.4821592	41.1383844	75.1720896	-0.89381448	-18.12266154
2.82	282	0.104	0.072	-0.142	25.0955604	-44.2323576	35.4088044	75.44137986	-1.32926256	-18.46070676
2.83	283	0.069	-0.075	-0.32	19.5951636	-46.982556	23.6631654	75.6591039	-1.6615782	-18.85604778
2.84	284	0.014	-0.325	-0.596	13.9801752	-51.6235158	11.4018642	75.81953214	-1.87930224	-19.32014376
2.85	285	-0.05	-0.751	-0.845	2.6356068	-42.97185	-0.9167328	75.83672088	-1.96524594	-19.7384031
2.86	286	-0.169	-1.511	-0.763	-8.8235532	-10.886202	-18.8503182	75.75077718	-1.8048177	-19.88737218
2.87	287	-0.52	-3.266	-1.046	-46.6387812	29.793816	-67.7809314	75.26949246	-1.09434978	-19.77278058
2.88	288	-0.803	-3.999	-0.952	-52.7694318	-0.286479	-97.2882684	74.73664152	-0.16615782	-20.03061168
2.89	289	-0.28	-2.883	-0.112	-21.8869956	-20.5691922	-33.231564	74.51891748	0.09167328	-20.31709068
2.9	290	0.19	-0.927	-0.134	-67.7236356	-8.880849	-13.8082878	73.8256383	0.2291832	-20.44887102
2.91	291	0.463	-0.937	-0.048	15.3552744	-5.0420304	-19.3086846	73.98606654	0.40680018	-20.55200346
2.92	292	0.368	-1.521	0.009	33.8618178	5.8441716	-19.9389384	74.32411176	0.61306506	-20.5405443
2.93	293	0.183	-2.016	-0.046	16.7303736	9.8548776	-14.037471	74.49599916	0.7734933	-20.4832485
2.94	294	-0.021	-2.09	0.045	-2.5210152	-8.1932994	-5.7868758	74.46735126	0.80787078	-20.58065136
2.95	295	-0.184	-1.871	0.142	-13.4072172	-26.4133638	-0.7448454	74.33557092	0.75057498	-20.83275288
2.96	296	-0.309	-1.646	0.127	-18.907614	-27.215505	0.286479	74.14649478	0.68182002	-21.09631356
2.97	297	-0.391	-1.504	0.091	-12.318597	-17.5898106	0	74.02044402	0.63598338	-21.26820096
2.98	298	-0.398	-1.427	0.052	2.578311	-3.6096354	1.2032118	74.04909192	0.61306506	-21.29684886
2.99	299	-0.345	-1.405	0.01	12.7769634	10.5424272	6.1879464	74.17514268	0.58441716	-21.18225726
3	300	-0.169	-1.319	0.015	12.7196676	17.0168526	11.9748222	74.32984134	0.50420304	-20.98172196
3.01	301	-0.044	-1.088	0.067	13.9801752	15.0687954	12.891555	74.47308084	0.41825934	-20.80410498
3.02	302	0.07	-0.876	0.08	12.8342592	11.6310474	5.72958	74.5991316	0.38961144	-20.67232464
3.03	303	0.138	-0.651	0.091	15.8136408	7.448454	-4.010706	74.75955984	0.44690724	-20.60929926
3.04	304	0.142	-0.375	0.181	26.356068	-4.010706	-12.1467096	75.0288501	0.55576926	-20.67805422
3.05	305	0.086	-0.112	0.396	36.4974246	-7.2765666	-17.3033316	75.42419112	0.7161975	-20.78691624
3.06	306	-0.052	0.162	0.397	39.3622146	8.307891	-19.5378678	75.81953214	0.92246238	-20.75253876
3.07	307	-0.152	0.319	0.29	41.9405256	26.069589	-18.2200644	76.24925064	1.16310474	-20.5405443
3.08	308	-0.215	0.438	0.195	42.1697088	40.5081306	-14.037471	76.67896914	1.38655836	-20.17385118
3.09	309	-0.171	0.502	0.171	42.0551172	46.409598	-9.453807	77.10868764	1.56990492	-19.74413268
3.1	310	-0.119	0.429	0.128	41.3675676	39.3622146	-1.0886202	77.53840614	1.65584862	-19.36025082
3.11	311	-0.165	0.221	0.078	38.5600734	24.0069402	11.172681	77.93374716	1.59282324	-19.09669014
3.12	312	-0.242	0.012	0.071	28.1322378	4.6982556	19.767051	78.22022616	1.41520626	-19.01074644
3.13	313	-0.183	-0.193	0.029	5.3285094	-7.0473834	25.4393352	78.27752196	1.15164558	-19.02793518
3.14	314	0.152	-0.328	-0.145	-13.6936962	-9.3392154	32.085648	78.14001204	0.82505952	-19.05658308
3.15	315	0.583	-0.518	-0.401	-14.037471	-54.2018268	37.2995658	77.98531338	0.38388186	-19.5092199
3.16	316	1.131	-1.189	-1.053	-77.0055552	-143.9270496	38.0444112	77.22327924	-0.25210152	-20.83848246
3.17	317	1.58	-1.513	-1.264	-150.114996	-143.7551622	29.5646328	75.73358844	-0.84797784	-22.1734746
3.18	318	1.6	-1.381	-0.877	-97.4601558	-119.461743	25.8404058	74.78247816	-1.3750992	-23.26782438
3.19	319	1.091	-1.124	-0.474	-89.7252228	-109.0912032	24.350715	73.911582	-1.87930224	-24.25904172
3.2	320	0.394	-0.65	-0.18	-107.3723292	-118.8314892	24.8663772	72.8802576	-2.42934192	-25.33620276
3.21	321	-0.149	-0.574	-0.034	-85.0269672	-136.2494124	25.2674478	72.09530514	-3.04813656	-26.56233288
3.22	322	-0.421	-0.673	0.245	-56.436363	-136.5358914	26.1268848	71.61402042	-3.68411994	-27.78273342
3.23	323	-0.503	-0.617	0.301	-53.7434604	-130.061466	32.3148312	71.16711318	-4.37166954	-28.91719026
3.24	324	-0.512	-0.552	0.167	-47.6128098	-121.5243918	41.9978214	70.78323132	-5.13370368	-29.9370555
3.25	325	-0.435	-0.467	0.058	-33.3461556	-110.6381898	47.8992888	70.55404812	-5.9301153	-30.8251404
3.26	326	-0.316	-0.413	0.108	-27.9030546	-92.819196	51.3943326	70.3592424	-6.69787902	-31.53560832
3.27	327	-0.218	-0.384	0.16	-38.9038482	-72.3645954	52.3110654	70.03838592	-7.4198061	-32.05127052
3.28	328	-0.092	-0.328	0.006	-54.8893764	-57.868758	48.9306132	69.53991246	-8.06151906	-32.43515238
3.29	329	-0.002	-0.308	-0.206	-64.1140002	-58.9000824	40.1643558	68.96122488	-8.63447706	-32.85341172
3.3	330	0.096	-0.34	-0.327	-70.3019466	-71.8489332	30.8251404	68.33670066	-9.16159842	-33.42636972
3.31	331	0.171	-0.481	-0.375	-78.6098376	-92.246238	30.3094782	67.67779896	-9.7689339	-34.18267428
3.32	332	0.135	-0.608	-0.329	-86.6885454	-106.1118216	37.528749	66.96160146	-10.49659056	-35.04211128
3.33	333	-0.018	-0.533	-0.246	-104.2210602	-118.8314892	44.1750618	66.10216446	-11.35029798	-35.9817624
3.34	334	-0.071	-0.336	0.053	-111.4976268	-117.6282774	52.4829528	65.16824292	-12.2899491	-36.86411772
3.35	335	0.037	-0.172	0.448	-113.9040504	-99.5228046	56.2644756	64.18848474	-13.2066819	-37.5573969
3.36	336	-0.238	0.086	0.641	-103.5335106	-70.0154676	64.744254	63.23737446	-14.08903722	-37.91836044
3.37	337	-0.212	0.027	0.559	-86.3447706	-46.9252602	59.587632	62.40658536	-14.82815304	-38.07878868
3.38	338	-0.363	-0.299	0.355	-80.1568242	-40.8519054	56.8374336	61.62736248	-15.51570264	-38.1876507
3.39	339	-0.425	-0.748	0.097	-99.7519878	-44.8626114	63.5410422	60.6476043	-16.28346636	-38.29078314
3.4	340	-0.451	-1.211	-0.46	-147.3647976	-38.3308902	67.6663398	59.16364308	-17.06841882	-38.29651272
3.41	341	-0.434	-1.673	-1.024	-194.9776074	-17.5898106	61.7075766	57.13537176	-17.69867262	-38.1303549
3.42	342	-0.437	-2.358	-1.151	-247.1740812	20.5691922	37.0703826	54.51122412	-17.92785582	-37.74647304
3.43	343	-0.54	-3.078	-1.474	-282.8693646	81.7038108	-8.1360036	51.44016924	-17.42938236	-37.12194882
3.44	344	-1.078	-3.36	-1.262	-266.138991	111.3830352	-12.1467096	48.48370596	-16.69026654	-36.31407804
3.45	345	-1.267	-3.469	-0.781	-264.7638918	115.737516	12.2613012	45.51005394	-16.06001274	-35.34004944
3.46	346	-0.773	-3.241	-1.352	-310.3713486	161.2303812	32.5440144	41.95771434	-15.20057574	-33.93057276
3.47	347	-0.297	-2.857	-1.855	-312.548589	192.9722544	53.6861646	38.32516062	-14.16352176	-32.2002396
3.48	348	0.155	-2.619	-1.386	-271.6966836	175.2678522	75.8023434	35.13378456	-13.29835518	-30.47563602
3.49	349	0.703	-2.321	-0.892	-269.863218	137.0515536	94.7099574	32.01689304	-12.7483155	-28.86562404
3.5	350	1.123	-1.858	-0.454	-273.873924	116.023995	94.251591	28.91146068	-12.2899491	-27.4160403
3.51	351	1.143	-1.361	0.135	-274.9052484	66.8641986	75.5158644	25.90343118	-12.10087296	-26.40190464
3.52	352	0.887	-1.022	0.563	-291.4637346	-3.0366774	48.8160216	22.84956504	-12.37016322	-25.9549974
3.53	353	0.517	-0.707	0.794	-295.932807	-55.863405	15.6990492	19.87018344	-12.9774987	-26.0122932
3.54	354	0.288	-0.68	0.98	-263.0450178	-84.2821218	-22.2880662	17.32624992	-13.72807368	-26.51649624
3.55	355	0.076	-0.753	1.132	-229.0113126	-79.8130494	-50.8786704	15.20630532	-14.36978664	-27.25561206
3.56	356	-0.047	-0.633	1.325	-254.8517184	-63.6556338	-63.4264506	12.82280004	-14.85107136	-28.05202368
3.57	357	0.04	-0.138	1.441	-303.4385568	-68.2965936	-43.3156248	9.90644382	-15.46413642	-28.62498168
3.58	358	0.054	0.899	1.148	-339.3057276	-86.3447706	-11.6883432	6.53745078	-16.329303	-28.87135362
3.59	359	-0.413	1.785	0.573	-282.0672234	-87.8344614	12.2040054	3.67839036	-17.23457664	-28.83124656
3.6	360	-0.782	1.894	0.367	-179.2212624	-77.062851	54.0872352	1.70741484	-18.04244742	-28.30985478
3.61	361	-0.999	1.871	0.141	-176.0126976	-55.8061092	94.824549	-0.37815228	-18.62686458	-27.32436702
3.62	362	-0.985	2.015	-0.399	-182.773602	-31.226211	102.1011156	-2.57258142	-18.9362619	-26.2414764
3.63	363	-0.677	2.07	-0.826	-140.1455268	-31.4553942	81.1308528	-4.27999626	-19.21701132	-25.36485066
3.64	364	-0.223	1.809	-0.84	-68.0674104	-28.4187168	58.441716	-5.17381074	-19.45765368	-24.72886728
3.65	365	0.135	1.277	-0.954	-32.945085	-25.8977016	50.3630082	-5.70666168	-19.65818898	-24.17309802
3.66	366	0.261	0.787	-1.197	-41.0237928	-25.7258142	42.7999626	-6.27961968	-19.87591302	-23.69754288
3.67	367	0.059	0.39	-1.271	-73.5678072	-35.1796212	30.8824362	-7.14478626	-20.1967695	-23.33657934
3.68	368	-0.125	0.407	-1.04	-87.949053	-48.0138804	30.366774	-8.1646515	-20.63794716	-22.95269748
3.69	369	-0.399	0.308	-0.292	-89.4387438	-57.1239126	35.7525792	-9.23035338	-21.15360936	-22.49433108
3.7	370	-0.48	0.552	-0.376	-101.6427492	-48.5868384	53.0559108	-10.50804972	-21.5432208	-21.84115896
3.71	371	0.196	0.614	-0.731	-34.1482968	-19.0222056	68.6976642	-11.13257394	-21.6005166	-21.0848544
3.72	372	0.503	0.273	-1.544	-15.8709366	5.72958	88.0063488	-11.62531782	-21.37706298	-20.17385118
3.73	373	-0.829	0.662	-3.333	-66.0047616	33.4607472	122.1546456	-12.73685634	-20.80410498	-18.95918022
3.74	374	-3.156	1.775	-3.995	-119.0606724	26.2414764	174.0073446	-14.55886278	-20.16239202	-17.21165832
3.75	375	-3.808	2.63	-3.996	-84.9696714	103.4762148	129.5458038	-15.79072248	-18.83885904	-16.14022686
3.76	376	-2.031	2.319	-3.92	-121.5816876	116.8261362	77.7504006	-17.19446958	-17.52105564	-15.65321256
3.77	377	-0.899	1.386	-2.486	-79.5265704	77.4066258	70.8749046	-18.15130944	-16.57567494	-15.16619826
3.78	378	-0.823	0.984	-1.912	-83.651868	87.8917572	34.4920716	-19.03939434	-15.64748298	-15.08025456
3.79	379	-1.32	1.723	-2.44	-83.651868	171.1998504	11.9748222	-19.80142848	-14.00309352	-15.49278432
3.8	380	-1.663	1.568	-2.071	-24.8663772	180.5390658	-33.4034514	-19.8816426	-12.42172944	-16.3865988
3.81	381	-1.119	1.395	-1.439	-28.4760126	170.2258218	-49.6181628	-19.98477504	-10.99506402	-17.40073446
3.82	382	-0.584	1.186	-1.163	-21.6005166	150.687954	-43.7166954	-20.06498916	-9.73455642	-18.28881936
3.83	383	-0.175	1.004	-0.834	4.0680018	132.0095232	-39.9924684	-19.91602008	-8.62874748	-19.08523098
3.84	384	0.013	0.805	-0.615	27.9603504	126.4518306	-40.9092012	-19.5378678	-7.57450476	-19.87018344
3.85	385	0.184	0.677	-0.542	45.3782736	126.5664222	-41.0237928	-19.01647602	-6.5030733	-20.64940632
3.86	386	0.181	0.644	-0.617	52.7694318	121.0660254	-38.1590028	-18.42632928	-5.4717489	-21.3713334
3.87	387	0.121	0.591	-0.718	48.0711762	108.9193158	-30.7105488	-17.89920792	-4.53209778	-21.9729393
3.88	388	0.082	0.515	-0.758	38.674665	92.4754212	-16.3865988	-17.48667816	-3.70130868	-22.39119864
3.89	389	0.114	0.496	-0.765	22.2880662	80.787078	-0.9740286	-17.25749496	-2.93354496	-22.62038184
3.9	390	0.208	0.48	-0.708	6.6463128	76.4325972	9.740286	-17.2173879	-2.1485925	-22.73497344
3.91	391	0.29	0.497	-0.689	-5.0993262	79.4119788	16.5584862	-17.28041328	-1.3464513	-22.78653966
3.92	392	0.372	0.527	-0.641	-8.2505952	82.6205436	19.6524594	-17.37208656	-0.50420304	-22.82091714
3.93	393	0.301	0.574	-0.634	-5.5576926	81.7611066	22.8037284	-17.44084152	0.33804522	-22.82664672
3.94	394	0.158	0.593	-0.625	2.8074942	79.068204	27.2728008	-17.4179232	1.16883432	-22.78081008
3.95	395	0.077	0.534	-0.572	9.7975818	67.036086	30.4813656	-17.34916824	1.89649098	-22.67194806
3.96	396	0.037	0.464	-0.522	10.599723	46.2950064	32.2575354	-17.24030622	2.4350715	-22.4886015
3.97	397	-0.001	0.395	-0.502	12.605076	31.0543236	32.3148312	-17.1027963	2.82468294	-22.27087746
3.98	398	-0.037	0.304	-0.504	21.0848544	26.7571386	30.4240698	-16.88507226	3.16845774	-22.05315342
3.99	399	-0.066	0.217	-0.483	34.3201842	36.2682414	26.356068	-16.5298383	3.59244666	-21.89845476
4	400	-0.043	0.165	-0.531	46.3523022	46.982556	20.5118964	-16.06001274	4.0966497	-21.82397022
4.01	401	0.028	0.116	-0.657	52.8840234	50.2484166	16.042824	-15.5271618	4.62950064	-21.79532232
4.02	402	0.074	0.087	-0.862	54.2591226	45.7220484	14.6677248	-14.9828517	5.11078536	-21.772404
4.03	403	0.15	0.039	-1.062	56.722842	35.9817624	16.8449652	-14.40416412	5.50612638	-21.69218988
4.04	404	0.224	-0.036	-1.282	59.014674	31.6272816	22.631841	-13.79109906	5.86708992	-21.54895038
4.05	405	0.435	-0.154	-1.442	53.0559108	36.5547204	28.5906042	-13.22960022	6.29680842	-21.34841508
4.06	406	0.6	-0.267	-1.57	36.1536498	36.3255372	31.3980984	-12.83998878	6.72079734	-21.11923188
4.07	407	0.678	-0.305	-1.579	13.9228794	22.1734746	28.934379	-12.67383096	7.00154676	-20.8843191
4.08	408	0.713	-0.274	-1.523	-3.2085648	-0.9740286	22.5745452	-12.67956054	7.04165382	-20.66086548
4.09	409	0.666	-0.19	-1.444	-10.9434978	-15.6990492	14.3812458	-12.76550424	6.91560306	-20.48897808
4.1	410	0.549	-0.1	-1.211	-11.5737516	-18.907614	9.6829902	-12.84571836	6.77809314	-20.35719774
4.11	411	0.422	-0.055	-0.975	-12.5477802	-13.0061466	7.2765666	-12.96030996	6.66923112	-20.2540653
4.12	412	0.295	-0.036	-0.738	-12.6623718	-3.6096354	5.156622	-13.08063114	6.6463128	-20.1967695
4.13	413	0.218	-0.032	-0.59	-14.2666542	3.4950438	1.432395	-13.22387064	6.68069028	-20.19103992
4.14	414	0.144	-0.029	-0.53	-15.1260912	9.7975818	-2.9793816	-13.38429888	6.76663398	-20.23687656
4.15	415	0.113	-0.015	-0.56	-14.4385416	16.7303736	-7.734933	-13.53326796	6.91560306	-20.34573858
4.16	416	0.136	0.004	-0.633	-9.7975818	20.626488	-10.2559482	-13.65358914	7.08749046	-20.4832485
4.17	417	0.173	0.021	-0.68	-1.8334656	19.0795014	-9.7975818	-13.6936962	7.2479187	-20.62075842
4.18	418	0.25	0.038	-0.712	5.9587632	15.0114996	-8.3651868	-13.64785956	7.37969904	-20.73535002
4.19	419	0.337	0.036	-0.758	15.0687954	11.1153852	-7.161975	-13.51034964	7.47137232	-20.8270233
4.2	420	0.398	0.006	-0.852	17.6471064	7.3911582	-6.589017	-13.2926256	7.60888224	-20.912967
4.21	421	0.42	-0.036	-0.97	13.4072172	0.6875496	-6.1306506	-13.16084526	7.60315266	-20.97599238
4.22	422	0.395	-0.08	-1.083	6.4171296	-8.9954406	-4.9847346	-13.09781988	7.5057498	-21.01036986
4.23	423	0.347	-0.107	-1.164	0	-21.2567418	-3.0366774	-13.09781988	7.29375534	-20.9989107
4.24	424	0.277	-0.117	-1.2	-3.2658606	-33.7472262	-0.3437748	-13.11500862	6.9614397	-20.93015574
4.25	425	0.184	-0.111	-1.193	-1.432395	-42.4561878	1.5469866	-13.08063114	6.55463952	-20.8270233
4.26	426	0.082	-0.094	-1.152	2.7501984	-44.5761324	2.005353	-13.0347945	6.1306506	-20.72389086
4.27	427	0.011	-0.069	-1.115	8.3651868	-38.3308902	0.6302538	-12.93739164	5.7582279	-20.64367674
4.28	428	-0.024	-0.035	-1.073	10.313244	-27.9030546	-2.0626488	-12.82280004	5.48320806	-20.60929926
4.29	429	-0.019	0.003	-1.041	9.1100322	-18.5065434	-4.5263682	-12.73112676	5.29413192	-20.61502884
4.3	430	0.005	0.039	-1.018	5.9014674	-12.2040054	-6.2452422	-12.62226474	5.13943326	-20.64940632
4.31	431	0.044	0.059	-0.999	1.6042824	-9.8548776	-7.2192708	-12.605076	5.02484166	-20.70097254
4.32	432	0.066	0.056	-0.986	-3.4950438	-11.2872726	-7.5630456	-12.64518306	4.8987909	-20.75253876
4.33	433	0.073	0.046	-0.98	-8.7662574	-14.896908	-6.9900876	-12.73685634	4.73836266	-20.79264582
4.34	434	0.055	0.05	-0.97	-11.6310474	-18.7930224	-5.72958	-12.85144794	4.54355694	-20.80983456
4.35	435	0.004	0.065	-0.929	-9.8548776	-22.8037284	-5.0993262	-12.92593248	4.29145542	-20.80983456
4.36	436	-0.041	0.095	-0.881	-6.9900876	-21.2567418	-5.3858052	-12.99468744	4.07373138	-20.82129372
4.37	437	-0.086	0.123	-0.852	-4.4117766	-14.610429	-6.589017	-13.04052408	3.91330314	-20.8556712
4.38	438	-0.114	0.149	-0.849	-3.3231564	-4.8128472	-8.0787078	-13.08063114	3.85027776	-20.92442616
4.39	439	-0.116	0.179	-0.87	-3.8961144	4.2398892	-9.5683986	-13.12646778	3.8674665	-21.0275586
4.4	440	-0.09	0.211	-0.902	-3.8388186	10.026765	-10.4851314	-13.18376358	3.8961144	-21.1421502
4.41	441	-0.053	0.23	-0.934	-1.718874	11.6883432	-10.1986524	-13.21241148	3.9820581	-21.26247138
4.42	442	0.002	0.227	-0.964	1.3750992	10.9434978	-8.7089616	-13.2066819	4.07373138	-21.3713334
4.43	443	0.06	0.209	-0.983	4.6409598	9.167328	-6.1306506	-13.16657484	4.14821592	-21.44581794
4.44	444	0.108	0.192	-1.001	5.3858052	7.3911582	-4.0680018	-13.11500862	4.2112413	-21.50311374
4.45	445	0.133	0.179	-1.021	5.0420304	4.870143	-3.2658606	-13.04625366	4.27999626	-21.54895038
4.46	446	0.143	0.164	-1.039	5.0420304	1.718874	-3.4950438	-13.00041702	4.29145542	-21.58905744
4.47	447	0.13	0.15	-1.049	5.6149884	-1.3178034	-4.3544808	-12.94312122	4.2685371	-21.6291645
4.48	448	0.111	0.138	-1.054	6.4744254	-3.6669312	-5.3858052	-12.88009584	4.22270046	-21.67500114
4.49	449	0.089	0.119	-1.05	7.2765666	-4.7555514	-5.7868758	-12.81134088	4.15967508	-21.72083778
4.5	450	0.073	0.092	-1.035	6.9900876	-4.9274388	-5.0420304	-12.6910197	4.0966497	-21.75521526
4.51	451	0.065	0.063	-1.021	4.870143	-3.7815228	-3.3804522	-12.63945348	4.05654264	-21.78386316
4.52	452	0.064	0.04	-1.014	2.6356068	-2.2345362	-1.7761698	-12.61653516	4.02789474	-21.79532232
4.53	453	0.069	0.026	-1.007	0.572958	-0.286479	-0.0572958	-12.605076	4.02789474	-21.79532232
4.54	454	0.077	0.018	-0.999	-0.5156622	1.432395	1.3178034	-12.61080558	4.04508348	-21.78959274
4.55	455	0.088	0.017	-0.988	-1.0886202	2.6356068	2.2345362	-12.42172944	4.09092012	-21.76094484
4.56	456	0.097	0.02	-0.977	-1.2032118	3.6669312	2.6356068	-12.4331886	4.13102718	-21.73802652
4.57	457	0.11	0.023	-0.964	-0.9167328	4.6409598	2.578311	-12.44464776	4.1825934	-21.72083778
4.58	458	0.121	0.022	-0.957	-0.8021412	5.0993262	2.0626488	-12.45037734	4.2398892	-21.70937862
4.59	459	0.13	0.021	-0.955	-1.145916	4.9847346	1.6042824	-12.4618365	4.29145542	-21.70364904
4.6	460	0.135	0.021	-0.958	-1.432395	4.297185	1.3178034	-12.29567868	4.39458786	-21.69218988
4.61	461	0.133	0.021	-0.962	-1.6615782	3.2658606	1.3750992	-12.31286742	4.42896534	-21.6864603
4.62	462	0.127	0.028	-0.966	-1.432395	2.6356068	1.5469866	-12.33005616	4.45761324	-21.67500114
4.63	463	0.121	0.036	-0.972	-0.9167328	2.291832	1.7761698	-12.33578574	4.48626114	-21.66354198
4.64	464	0.114	0.044	-0.978	-0.572958	2.4637194	2.0626488	-12.34151532	4.51490904	-21.64635324
4.65	465	0.109	0.048	-0.985	-0.2291832	2.8074942	2.2345362	-12.14098002	4.57793442	-21.61770534
4.66	466	0.106	0.051	-0.993	0	3.2085648	2.5210152	-12.14098002	4.6123119	-21.6005166
4.67	467	0.107	0.048	-0.997	0.1145916	3.724227	2.7501984	-12.14098002	4.65814854	-21.57759828
4.68	468	0.111	0.047	-1.001	-0.1718874	3.8388186	2.86479	-12.14098002	4.6982556	-21.56040954
4.69	469	0.116	0.045	-1.004	-0.4583664	3.7815228	2.8074942	-12.14098002	4.74409224	-21.53749122
4.7	470	0.121	0.045	-1.003	-0.7448454	3.3804522	2.6929026	-11.99201094	4.81857678	-21.50884332
4.71	471	0.123	0.048	-1.001	-0.9740286	2.8074942	2.3491278	-11.99774052	4.84722468	-21.49165458
4.72	472	0.125	0.053	-0.995	-1.145916	2.005353	1.9480572	-12.00919968	4.870143	-21.47446584
4.73	473	0.121	0.058	-0.988	-1.2032118	1.145916	1.6615782	-12.02065884	4.88733174	-21.4572771
4.74	474	0.118	0.062	-0.978	-1.145916	0.6302538	1.2605076	-12.032118	4.89306132	-21.44581794
4.75	475	0.115	0.066	-0.972	-0.9740286	-0.0572958	0.9740286	-11.64823614	4.97327544	-21.41144046
4.76	476	0.111	0.069	-0.969	-0.9167328	-0.2291832	0.859437	-11.6596953	4.97327544	-21.40571088
4.77	477	0.11	0.072	-0.97	-0.859437	-0.1718874	0.859437	-11.66542488	4.97327544	-21.39425172
4.78	478	0.11	0.075	-0.974	-0.8021412	-0.1145916	0.859437	-11.67688404	4.97327544	-21.38852214
4.79	479	0.112	0.076	-0.977	-0.6302538	-0.1145916	0.859437	-11.68261362	4.97327544	-21.37706298
4.8	480	0.114	0.079	-0.979	-0.5156622	-0.1718874	0.7448454	-11.18986974	5.07640788	-21.3426855
4.81	481	0.116	0.081	-0.983	-0.0572958	-0.4010706	0.6302538	-11.18986974	5.07640788	-21.33122634
4.82	482	0.117	0.081	-0.985	0.2291832	-0.4583664	0.5156622	-11.18986974	5.0706783	-21.32549676
4.83	483	0.118	0.081	-0.986	0.2291832	-0.4583664	0.286479	-11.18414016	5.06494872	-21.31976718
4.84	484	0.116	0.082	-0.985	0.0572958	-0.4583664	-0.0572958	-11.18414016	5.05921914	-21.32549676
4.85	485	0.115	0.08	-0.986	-0.0572958	-0.286479	-0.3437748	-10.49659056	5.20245864	-21.2853897
4.86	486	0.116	0.082	-0.985	-0.1718874	-0.2291832	-0.6875496	-10.49659056	5.19672906	-21.29111928
4.87	487	0.117	0.08	-0.988	-0.1145916	-0.286479	-0.9740286	-10.50232014	5.19099948	-21.29684886
4.88	488	0.118	0.077	-0.989	0.0572958	-0.286479	-0.9740286	-10.50232014	5.1852699	-21.30830802
4.89	489	0.121	0.075	-0.99	0.2291832	-0.4583664	-1.0886202	-10.49659056	5.17954032	-21.31976718
4.9	490	0.123	0.069	-0.99	0.4010706	-0.7448454	-0.9740286	-10.22157072	5.2425657	-21.3140376
4.91	491	0.122	0.065	-0.988	0.4010706	-1.3178034	-0.859437	-10.21584114	5.23110654	-21.31976718
4.92	492	0.122	0.062	-0.985	0.1718874	-1.6615782	-0.859437	-10.21584114	5.2139178	-21.32549676
4.93	493	0.121	0.061	-0.984	-0.0572958	-1.9480572	-0.7448454	-10.21584114	5.19099948	-21.33122634
4.94	494	0.118	0.063	-0.983	-0.286479	-2.1772404	-0.6875496	-10.21584114	5.16808116	-21.33122634
4.95	495	0.114	0.066	-0.983	-0.3437748	-2.291832	-0.6875496	-10.03822416	5.17954032	-21.32549676
4.96	496	0.111	0.067	-0.984	-0.1718874	-2.1772404	-0.6875496	-10.04395374	5.156622	-21.32549676
4.97	497	0.11	0.064	-0.985	0	-2.005353	-0.6302538	-10.04395374	5.13370368	-21.33122634
4.98	498	0.105	0.061	-0.985	0.1718874	-1.8907614	-0.572958	-10.03822416	5.11078536	-21.33122634
4.99	499	0.101	0.055	-0.985	0.1718874	-1.7761698	-0.4583664	-10.03822416	5.09359662	-21.33695592
5	500	0.098	0.053	-0.985	0	-1.6042824	-0.3437748	-9.72309726	5.08213746	-21.30830802
5.01	501	0.096	0.051	-0.985	-0.286479	-1.3750992	-0.286479	-9.72882684	5.06494872	-21.30830802
5.02	502	0.095	0.051	-0.986	-0.5156622	-1.0886202	-0.2291832	-9.73455642	5.05348956	-21.30830802
5.03	503	0.094	0.055	-0.986	-0.6302538	-0.7448454	-0.286479	-9.740286	5.04775998	-21.30830802
5.04	504	0.094	0.059	-0.986	-0.572958	-0.4583664	-0.1718874	-9.74601558	5.0420304	-21.3140376
5.05	505	0.095	0.062	-0.987	-0.4583664	-0.2291832	-0.2291832	-9.13295052	5.01911208	-21.2567418
5.06	506	0.094	0.064	-0.988	-0.3437748	0	-0.2291832	-9.13295052	5.01911208	-21.2567418
5.07	507	0.094	0.065	-0.989	-0.0572958	0	-0.1718874	-9.1386801	5.01911208	-21.26247138
5.08	508	0.094	0.064	-0.987	-0.286479	0	-0.1718874	-9.1386801	5.01911208	-21.26247138
5.09	509	0.095	0.063	-0.985	-0.6302538	0	-0.1145916	-9.14440968	5.0133825	-21.26247138
5.1	510	0.093	0.063	-0.982	-0.9740286	0	0	-8.80636446	5.00765292	-21.2280939
5.11	511	0.094	0.063	-0.978	-1.2032118	0	-0.0572958	-8.81782362	5.00765292	-21.23382348
5.12	512	0.094	0.066	-0.977	-1.2605076	0.1145916	0.0572958	-8.82928278	5.00765292	-21.2280939
5.13	513	0.094	0.069	-0.979	-1.0886202	0.286479	0.0572958	-8.84074194	5.0133825	-21.2280939
5.14	514	0.094	0.073	-0.981	-0.572958	0.4583664	0.0572958	-8.84647152	5.01911208	-21.2280939
5.15	515	0.097	0.074	-0.986	-0.0572958	0.286479	0.1718874	-8.21048814	5.05921914	-21.17652768
5.16	516	0.099	0.072	-0.988	0.1145916	0.1145916	0.1145916	-8.21048814	5.05921914	-21.17652768
5.17	517	0.101	0.07	-0.989	0.0572958	-0.1718874	0.1718874	-8.21048814	5.05921914	-21.1707981
5.18	518	0.104	0.068	-0.991	-0.1145916	-0.3437748	0.2291832	-8.21048814	5.05348956	-21.1707981
5.19	519	0.107	0.067	-0.997	-0.1718874	-0.3437748	0.3437748	-8.21048814	5.05348956	-21.16506852
5.2	520	0.111	0.066	-0.998	-0.1145916	-0.286479	0.4010706	-7.92973872	5.1279741	-21.14787978
5.21	521	0.113	0.066	-0.997	-0.0572958	-0.286479	0.4583664	-7.92973872	5.1279741	-21.1421502
5.22	522	0.115	0.065	-0.992	0	-0.1145916	0.4010706	-7.92973872	5.1279741	-21.13642062
5.23	523	0.115	0.065	-0.989	0	0.1145916	0.4010706	-7.92973872	5.1279741	-21.13642062
5.24	524	0.116	0.065	-0.985	0	0.0572958	0.5156622	-7.92973872	5.1279741	-21.13069104
5.25	525	0.116	0.065	-0.98	-0.0572958	-0.0572958	0.572958	-7.6776372	5.23110654	-21.1135023
5.26	526	0.116	0.067	-0.98	-0.2291832	0	0.6302538	-7.6776372	5.23110654	-21.10777272
5.27	527	0.115	0.066	-0.983	-0.1718874	0.286479	0.6302538	-7.6776372	5.23683612	-21.10204314
5.28	528	0.115	0.067	-0.983	-0.0572958	0.4010706	0.5156622	-7.6776372	5.23683612	-21.09631356
5.29	529	0.114	0.065	-0.983	0.0572958	0.286479	0.2291832	-7.6776372	5.2425657	-21.09631356
5.3	530	0.114	0.064	-0.984	0.1718874	0.0572958	0.0572958	-7.07030172	5.42591226	-21.06766566
5.31	531	0.112	0.063	-0.983	0.0572958	-0.286479	0	-7.07030172	5.42018268	-21.06766566
5.32	532	0.111	0.064	-0.983	0	-0.286479	-0.1145916	-7.07030172	5.42018268	-21.06766566
5.33	533	0.109	0.066	-0.983	0.1145916	-0.286479	-0.1718874	-7.07030172	5.4144531	-21.06766566
5.34	534	0.108	0.069	-0.981	0.286479	-0.4583664	-0.1145916	-7.06457214	5.40872352	-21.06766566
5.35	535	0.107	0.069	-0.981	0.286479	-0.572958	-0.1718874	-6.9327918	5.42018268	-21.06193608
5.36	536	0.105	0.068	-0.981	0.4583664	-0.6875496	-0.2291832	-6.92706222	5.4144531	-21.06193608
5.37	537	0.104	0.065	-0.982	0.4583664	-0.7448454	-0.2291832	-6.92133264	5.40299394	-21.06193608
5.38	538	0.105	0.065	-0.983	0.572958	-0.9167328	-0.2291832	-6.91560306	5.39726436	-21.06193608
5.39	539	0.107	0.065	-0.984	0.572958	-0.859437	-0.2291832	-6.90987348	5.3858052	-21.06766566
5.4	540	0.109	0.065	-0.986	0.6302538	-0.7448454	-0.1718874	-6.81247062	5.39726436	-21.06193608
5.41	541	0.11	0.064	-0.984	0.7448454	-0.8021412	-0.0572958	-6.80101146	5.39153478	-21.06193608
5.42	542	0.11	0.061	-0.988	0.6875496	-0.859437	0.0572958	-6.79528188	5.38007562	-21.06193608
5.43	543	0.11	0.061	-0.988	0.572958	-0.8021412	0.0572958	-6.7895523	5.37434604	-21.0562065
5.44	544	0.107	0.061	-0.988	0.5156622	-0.859437	0.1145916	-6.78382272	5.36288688	-21.0562065
5.45	545	0.105	0.06	-0.988	0.4010706	-0.6875496	0	-6.6463128	5.36288688	-21.04474734
5.46	546	0.102	0.059	-0.986	0.3437748	-0.4583664	-0.0572958	-6.64058322	5.3571573	-21.04474734
5.47	547	0.099	0.059	-0.984	0.4010706	-0.3437748	-0.2291832	-6.63485364	5.35142772	-21.04474734
5.48	548	0.1	0.059	-0.982	0.4010706	-0.1718874	-0.286479	-6.62912406	5.35142772	-21.05047692
5.49	549	0.103	0.059	-0.982	0.4583664	-0.1145916	-0.2291832	-6.62912406	5.35142772	-21.05047692
5.5	550	0.104	0.061	-0.984	0.5156622	-0.1718874	-0.1718874	-6.48588456	5.3571573	-21.03901776
5.51	551	0.104	0.063	-0.986	0.572958	-0.3437748	-0.0572958	-6.48015498	5.35142772	-21.03901776
5.52	552	0.103	0.067	-0.987	0.6302538	-0.6875496	-0.0572958	-6.4744254	5.34569814	-21.03901776
5.53	553	0.102	0.067	-0.989	0.859437	-0.859437	0	-6.46296624	5.33423898	-21.03901776
5.54	554	0.101	0.068	-0.989	1.0313244	-1.0313244	-0.0572958	-6.45150708	5.3285094	-21.03901776
5.55	555	0.1	0.068	-0.989	0.859437	-0.6875496	-0.0572958	-6.39421128	5.31705024	-21.03328818
5.56	556	0.1	0.067	-0.988	0.8021412	-0.5156622	-0.1145916	-6.38275212	5.31132066	-21.03901776
5.57	557	0.101	0.065	-0.989	0.9167328	-0.5156622	-0.0572958	-6.37129296	5.30559108	-21.03901776
5.58	558	0.103	0.063	-0.988	0.9740286	-0.4583664	-0.0572958	-6.36556338	5.2998615	-21.03901776
5.59	559	0.104	0.06	-0.986	0.9167328	-0.4010706	0.1145916	-6.35410422	5.2998615	-21.03901776
5.6	560	0.104	0.058	-0.984	0.8021412	-0.1718874	0.1718874	-6.23951262	5.30559108	-21.0275586
5.61	561	0.103	0.056	-0.982	0.6875496	0	0.2291832	-6.23378304	5.31132066	-21.02182902
5.62	562	0.104	0.056	-0.982	0.8021412	0.0572958	0.4010706	-6.22232388	5.31132066	-21.02182902
5.63	563	0.103	0.057	-0.982	0.7448454	0.0572958	0.4010706	-6.2165943	5.31132066	-21.01609944
5.64	564	0.104	0.057	-0.981	0.7448454	0.1718874	0.3437748	-6.21086472	5.31705024	-21.01036986
5.65	565	0.104	0.057	-0.983	0.572958	0.3437748	0.3437748	-6.10773228	5.3285094	-20.9989107
5.66	566	0.104	0.057	-0.983	0.286479	0.4583664	0.2291832	-6.1020027	5.33423898	-20.9989107
5.67	567	0.103	0.057	-0.984	0.2291832	0.4010706	0.2291832	-6.09627312	5.33996856	-20.9989107
5.68	568	0.104	0.055	-0.984	0.1145916	0.4583664	0.1718874	-6.09627312	5.34569814	-20.99318112
5.69	569	0.105	0.055	-0.983	0.1145916	0.4583664	0.2291832	-6.09627312	5.35142772	-20.99318112
5.7	570	0.106	0.053	-0.984	0	0.286479	0.286479	-5.89573782	5.3858052	-20.97599238
5.71	571	0.106	0.055	-0.985	0.0572958	0.2291832	0.286479	-5.89573782	5.39153478	-20.97599238
5.72	572	0.106	0.056	-0.984	0	0.1718874	0.2291832	-5.89573782	5.39153478	-20.9702628
5.73	573	0.105	0.057	-0.984	0.0572958	0.1145916	0.1145916	-5.89573782	5.39153478	-20.9702628
5.74	574	0.104	0.057	-0.984	0.0572958	0.0572958	0	-5.89573782	5.39726436	-20.9702628
5.75	575	0.103	0.057	-0.984	0.1718874	0	0	-5.67801378	5.39153478	-20.94734448
5.76	576	0.103	0.056	-0.986	0.286479	-0.0572958	-0.1718874	-5.67801378	5.39153478	-20.94734448
5.77	577	0.103	0.054	-0.987	0.3437748	-0.0572958	-0.1718874	-5.6722842	5.39153478	-20.95307406
5.78	578	0.102	0.051	-0.987	0.4010706	-0.0572958	-0.1718874	-5.66655462	5.39153478	-20.95307406
5.79	579	0.101	0.05	-0.987	0.2291832	0	-0.286479	-5.66655462	5.39153478	-20.95880364
5.8	580	0.1	0.049	-0.985	0	0	-0.286479	-5.47747848	5.37434604	-20.93588532
5.81	581	0.102	0.049	-0.985	-0.0572958	-0.0572958	-0.2291832	-5.47747848	5.37434604	-20.9416149
5.82	582	0.103	0.051	-0.983	-0.2291832	-0.1718874	-0.1718874	-5.48320806	5.36861646	-20.9416149
5.83	583	0.105	0.053	-0.982	-0.286479	-0.4583664	-0.0572958	-5.48320806	5.36861646	-20.9416149
5.84	584	0.105	0.055	-0.982	-0.286479	-0.572958	0	-5.48893764	5.36288688	-20.9416149
5.85	585	0.106	0.056	-0.981	-0.286479	-0.6302538	0	-5.43737142	5.37434604	-20.93588532
5.86	586	0.105	0.059	-0.983	-0.286479	-0.6302538	0.0572958	-5.43737142	5.36288688	-20.93588532
5.87	587	0.102	0.059	-0.984	-0.1718874	-0.5156622	0.0572958	-5.443101	5.36288688	-20.93588532
5.88	588	0.1	0.058	-0.986	-0.0572958	-0.3437748	0	-5.443101	5.3571573	-20.93588532
5.89	589	0.101	0.055	-0.986	-0.1718874	-0.3437748	0	-5.443101	5.35142772	-20.93588532
5.9	590	0.101	0.054	-0.987	-0.3437748	-0.3437748	0	-5.36861646	5.35142772	-20.92442616
5.91	591	0.103	0.051	-0.986	-0.572958	-0.2291832	0.0572958	-5.37434604	5.35142772	-20.92442616
5.92	592	0.104	0.052	-0.986	-0.7448454	-0.0572958	0.1145916	-5.38007562	5.35142772	-20.92442616
5.93	593	0.104	0.052	-0.988	-0.8021412	0.0572958	0.1718874	-5.3858052	5.35142772	-20.92442616
5.94	594	0.103	0.053	-0.992	-0.5156622	0.0572958	0.2291832	-5.39153478	5.35142772	-20.91869658
5.95	595	0.101	0.054	-0.991	-0.1145916	0.1145916	0.2291832	-5.28840234	5.33996856	-20.90150784
5.96	596	0.099	0.05	-0.987	0.0572958	0.2291832	0.1718874	-5.28267276	5.34569814	-20.90150784
5.97	597	0.098	0.046	-0.982	-0.2291832	0.2291832	0.0572958	-5.28840234	5.34569814	-20.90150784
5.98	598	0.098	0.043	-0.98	-0.6302538	0.1718874	0	-5.29413192	5.34569814	-20.90150784
5.99	599	0.098	0.041	-0.976	-1.0313244	0.1145916	0	-5.30559108	5.34569814	-20.90150784
6	600	0.099	0.044	-0.978	-1.2032118	0	0	-5.25975444	5.34569814	-20.89577826
6.01	601	0.099	0.046	-0.982	-1.2605076	0	0	-5.27694318	5.34569814	-20.89577826
6.02	602	0.099	0.052	-0.988	-1.145916	0	0	-5.28840234	5.34569814	-20.89577826
6.03	603	0.099	0.056	-0.995	-0.572958	0.1145916	0.0572958	-5.29413192	5.34569814	-20.89577826
6.04	604	0.098	0.056	-0.997	-0.1145916	0	0	-5.29413192	5.34569814	-20.89577826
6.05	605	0.097	0.053	-0.996	0.1145916	-0.286479	-0.1145916	-5.21964738	5.3285094	-20.8843191
6.06	606	0.098	0.051	-0.993	0.1718874	-0.4010706	-0.0572958	-5.2139178	5.32277982	-20.8843191
6.07	607	0.099	0.049	-0.988	0	-0.286479	0	-5.2139178	5.32277982	-20.8843191
6.08	608	0.101	0.049	-0.983	-0.286479	-0.2291832	0	-5.21964738	5.31705024	-20.8843191
6.09	609	0.1	0.051	-0.979	-0.5156622	-0.1718874	0	-5.22537696	5.31705024	-20.8843191
6.1	610	0.1	0.053	-0.979	-0.5156622	-0.0572958	0.0572958	-5.16235158	5.31132066	-20.87858952
6.11	611	0.1	0.054	-0.982	-0.1718874	0.0572958	0	-5.16235158	5.31132066	-20.87858952
6.12	612	0.1	0.055	-0.984	0.1145916	0.1718874	0	-5.16235158	5.31132066	-20.87858952
6.13	613	0.1	0.052	-0.986	0.1718874	0.0572958	0	-5.16235158	5.31705024	-20.87858952
6.14	614	0.099	0.05	-0.987	0	0.1145916	0	-5.16235158	5.31705024	-20.87858952
6.15	615	0.099	0.048	-0.986	-0.2291832	0.1718874	0	-5.03630082	5.31705024	-20.86140078
6.16	616	0.1	0.048	-0.986	-0.3437748	0.1145916	0	-5.03630082	5.31705024	-20.86140078
6.17	617	0.099	0.046	-0.986	-0.5156622	0	-0.0572958	-5.0420304	5.31705024	-20.86140078
6.18	618	0.1	0.047	-0.985	-0.5156622	0.1718874	0	-5.04775998	5.31705024	-20.86140078
6.19	619	0.099	0.046	-0.986	-0.4583664	0.1718874	-0.0572958	-5.05348956	5.32277982	-20.86713036
6.2	620	0.101	0.046	-0.987	-0.0572958	0.1718874	-0.0572958	-4.74409224	5.32277982	-20.83275288
6.21	621	0.103	0.044	-0.986	-0.1145916	0.1718874	-0.0572958	-4.74982182	5.32277982	-20.83848246
6.22	622	0.104	0.043	-0.986	-0.0572958	0.1145916	-0.0572958	-4.74982182	5.32277982	-20.83848246
6.23	623	0.103	0.042	-0.986	-0.1718874	0.0572958	-0.0572958	-4.74982182	5.32277982	-20.83848246
6.24	624	0.104	0.043	-0.985	-0.3437748	0	0	-4.7555514	5.32277982	-20.83848246
6.25	625	0.102	0.042	-0.985	-0.4583664	-0.0572958	0.0572958	-4.70398518	5.32277982	-20.83275288
6.26	626	0.1	0.046	-0.984	-0.6302538	-0.1718874	0	-4.70971476	5.32277982	-20.83275288
6.27	627	0.098	0.048	-0.984	-0.572958	-0.1145916	0	-4.71544434	5.32277982	-20.83275288
6.28	628	0.097	0.048	-0.986	-0.4010706	0	-0.0572958	-4.72117392	5.31705024	-20.83275288
6.29	629	0.097	0.049	-0.988	-0.2291832	0.0572958	-0.1145916	-4.72117392	5.32277982	-20.83275288
6.3	630	0.097	0.049	-0.988	0	0.0572958	-0.0572958	-4.583664	5.28840234	-20.81556414
6.31	631	0.097	0.048	-0.987	0	0.0572958	0	-4.583664	5.29413192	-20.81556414
6.32	632	0.095	0.048	-0.986	0	0.1145916	-0.0572958	-4.583664	5.29413192	-20.81556414
6.33	633	0.095	0.047	-0.984	-0.1718874	0.1145916	-0.0572958	-4.583664	5.29413192	-20.81556414
6.34	634	0.095	0.045	-0.981	-0.2291832	0.2291832	-0.0572958	-4.58939358	5.2998615	-20.81556414
6.35	635	0.095	0.045	-0.98	-0.3437748	0.2291832	-0.1145916	-4.53209778	5.27694318	-20.80983456
6.36	636	0.097	0.046	-0.979	-0.3437748	0.1718874	-0.1145916	-4.53782736	5.28267276	-20.80983456
6.37	637	0.097	0.046	-0.979	-0.286479	0.1145916	-0.0572958	-4.54355694	5.28267276	-20.81556414
6.38	638	0.097	0.046	-0.978	-0.1145916	0.1145916	0	-4.54355694	5.28267276	-20.81556414
6.39	639	0.1	0.048	-0.98	-0.1718874	0.1718874	-0.0572958	-4.54355694	5.28267276	-20.81556414
6.4	640	0.099	0.047	-0.983	-0.1718874	0.1718874	0	-4.4977203	5.28267276	-20.80983456
6.41	641	0.1	0.046	-0.985	-0.2291832	0.2291832	0	-4.50344988	5.28840234	-20.80983456
6.42	642	0.098	0.045	-0.985	-0.286479	0.286479	0.0572958	-4.50344988	5.28840234	-20.80983456
6.43	643	0.097	0.045	-0.987	-0.3437748	0.4010706	0.1718874	-4.50917946	5.29413192	-20.80410498
6.44	644	0.097	0.044	-0.986	-0.4583664	0.5156622	0.0572958	-4.51490904	5.2998615	-20.80410498
6.45	645	0.098	0.044	-0.986	-0.4010706	0.6875496	0.1145916	-4.4977203	5.30559108	-20.80410498
6.46	646	0.1	0.045	-0.985	-0.3437748	0.572958	0.0572958	-4.4977203	5.31132066	-20.80410498
6.47	647	0.102	0.045	-0.984	-0.286479	0.3437748	0.1145916	-4.50344988	5.31705024	-20.7983754
6.48	648	0.102	0.046	-0.983	-0.286479	0.1718874	0.1145916	-4.50917946	5.31705024	-20.7983754
6.49	649	0.1	0.044	-0.981	-0.4583664	0	0.1718874	-4.50917946	5.31705024	-20.7983754
6.5	650	0.098	0.045	-0.982	-0.6302538	0	0.0572958	-4.48053156	5.30559108	-20.79264582
6.51	651	0.095	0.045	-0.98	-0.6875496	0.1145916	0	-4.48626114	5.30559108	-20.79264582
6.52	652	0.094	0.044	-0.98	-0.7448454	0.286479	-0.0572958	-4.49199072	5.31132066	-20.79264582
6.53	653	0.096	0.043	-0.98	-0.6302538	0.572958	-0.1718874	-4.4977203	5.31705024	-20.79264582
6.54	654	0.098	0.043	-0.981	-0.572958	0.6875496	-0.1145916	-4.50917946	5.32277982	-20.79264582
6.55	655	0.101	0.043	-0.981	-0.5156622	0.6302538	-0.1145916	-4.48053156	5.33423898	-20.79264582
6.56	656	0.102	0.044	-0.98	-0.6302538	0.5156622	0	-4.49199072	5.33996856	-20.7983754
6.57	657	0.101	0.046	-0.981	-0.7448454	0.6302538	0	-4.4977203	5.34569814	-20.79264582
6.58	658	0.099	0.046	-0.984	-0.7448454	0.6302538	0	-4.50344988	5.35142772	-20.7983754
6.59	659	0.098	0.048	-0.987	-0.7448454	0.5156622	0	-4.51490904	5.3571573	-20.7983754
6.6	660	0.096	0.048	-0.986	-0.6302538	0.5156622	-0.0572958	-4.50344988	5.35142772	-20.79264582
6.61	661	0.095	0.046	-0.984	-0.3437748	0.286479	-0.0572958	-4.50917946	5.35142772	-20.79264582
6.62	662	0.097	0.044	-0.98	-0.572958	0.4010706	-0.1145916	-4.51490904	5.3571573	-20.7983754
6.63	663	0.097	0.043	-0.978	-0.7448454	0.2291832	-0.1718874	-4.5263682	5.36288688	-20.7983754
6.64	664	0.096	0.041	-0.977	-0.859437	0.1145916	-0.2291832	-4.53209778	5.36288688	-20.80410498
6.65	665	0.097	0.04	-0.981	-1.0313244	0.0572958	-0.2291832	-4.51490904	5.3571573	-20.7983754
6.66	666	0.099	0.043	-0.986	-1.145916	0.1145916	-0.0572958	-4.5263682	5.3571573	-20.80410498
6.67	667	0.1	0.048	-0.992	-1.145916	0.2291832	0	-4.53782736	5.3571573	-20.80410498
6.68	668	0.1	0.051	-0.995	-0.9167328	0.2291832	0.0572958	-4.54928652	5.36288688	-20.7983754
6.69	669	0.099	0.051	-0.996	-0.572958	0	0	-4.5550161	5.36288688	-20.7983754
6.7	670	0.099	0.049	-0.994	-0.4010706	0	-0.0572958	-4.52063862	5.3571573	-20.7983754
6.71	671	0.1	0.045	-0.989	-0.4010706	0	-0.0572958	-4.5263682	5.3571573	-20.7983754
6.72	672	0.101	0.045	-0.984	-0.6302538	0	-0.0572958	-4.53209778	5.3571573	-20.7983754
6.73	673	0.1	0.047	-0.979	-0.7448454	0.1718874	0	-4.54355694	5.3571573	-20.7983754
6.74	674	0.098	0.052	-0.977	-0.859437	0.1145916	-0.1145916	-4.54928652	5.3571573	-20.7983754
6.75	675	0.096	0.056	-0.977	-0.6875496	0.2291832	-0.1145916	-4.56074568	5.35142772	-20.7983754
6.76	676	0.098	0.055	-0.98	-0.4010706	0.3437748	-0.1145916	-4.56074568	5.35142772	-20.80410498
6.77	677	0.1	0.053	-0.986	-0.286479	0.5156622	-0.0572958	-4.56647526	5.3571573	-20.80410498
6.78	678	0.099	0.051	-0.988	-0.2291832	0.4010706	-0.1145916	-4.56647526	5.36288688	-20.80410498
6.79	679	0.101	0.049	-0.989	-0.2291832	0.3437748	-0.0572958	-4.57220484	5.36861646	-20.80410498
6.8	680	0.1	0.048	-0.989	0.2291832	-0.0572958	0	-4.50917946	5.35142772	-20.7983754
6.81	681	0.1	0.047	-0.988	0.0572958	-0.0572958	0	-4.50917946	5.35142772	-20.7983754
6.82	682	0.099	0.047	-0.986	0.1145916	-0.1145916	0	-4.50344988	5.35142772	-20.7983754
6.83	683	0.1	0.047	-0.985	0.1145916	-0.1145916	0.0572958	-4.50344988	5.35142772	-20.7983754
6.84	684	0.1	0.045	-0.985	0.1718874	-0.1145916	0	-4.50344988	5.35142772	-20.7983754
6.85	685	0.1	0.045	-0.987	0.1718874	0	0	-4.43469492	5.33996856	-20.79264582
6.86	686	0.102	0.045	-0.987	0.1718874	0.1145916	0	-4.43469492	5.34569814	-20.79264582
6.87	687	0.103	0.045	-0.987	0.2291832	0	0	-4.43469492	5.34569814	-20.79264582
6.88	688	0.102	0.043	-0.985	0.1718874	-0.1718874	-0.1145916	-4.42896534	5.33996856	-20.79264582
6.89	689	0.104	0.044	-0.984	-0.0572958	-0.1145916	0	-4.42896534	5.33996856	-20.79264582
6.9	690	0.103	0.044	-0.983	-0.2291832	-0.1145916	0.0572958	-4.38885828	5.34569814	-20.78691624
6.91	691	0.102	0.046	-0.984	-0.286479	-0.0572958	0.1145916	-4.39458786	5.34569814	-20.78691624
6.92	692	0.099	0.05	-0.984	-0.1718874	0	0.1145916	-4.39458786	5.34569814	-20.78691624
6.93	693	0.097	0.053	-0.985	0.0572958	0	0	-4.39458786	5.34569814	-20.78691624
6.94	694	0.098	0.053	-0.986	0.286479	0	0	-4.38885828	5.34569814	-20.78691624
6.95	695	0.098	0.054	-0.987	0.4583664	0	-0.0572958	-4.3831287	5.33423898	-20.78118666
6.96	696	0.099	0.051	-0.989	0.5156622	-0.0572958	0	-4.37739912	5.33423898	-20.78118666
6.97	697	0.1	0.049	-0.991	0.4010706	-0.1145916	0	-4.37166954	5.33423898	-20.78118666
6.98	698	0.1	0.05	-0.988	0.2291832	-0.1718874	0	-4.37166954	5.3285094	-20.78118666
6.99	699	0.1	0.049	-0.987	0.1718874	-0.1718874	0	-4.36593996	5.3285094	-20.78118666
7	700	0.097	0.048	-0.986	0.0572958	0	0	-4.29145542	5.25975444	-20.76399792
7.01	701	0.096	0.049	-0.984	0.1145916	0	0	-4.29145542	5.25975444	-20.76399792
7.02	702	0.097	0.05	-0.983	0.1718874	0.0572958	-0.0572958	-4.28572584	5.25975444	-20.7697275
7.03	703	0.097	0.051	-0.982	0.4010706	0.0572958	-0.0572958	-4.28572584	5.25975444	-20.7697275
7.04	704	0.099	0.051	-0.981	0.5156622	0.1145916	0	-4.27999626	5.25975444	-20.7697275
7.05	705	0.101	0.052	-0.983	0.4010706	0.1145916	0	-4.27426668	5.2712136	-20.7697275
7.06	706	0.104	0.051	-0.986	0.3437748	0.1718874	0.1718874	-4.2685371	5.2712136	-20.7697275
7.07	707	0.106	0.05	-0.986	0.2291832	0.0572958	0.3437748	-4.26280752	5.27694318	-20.76399792
7.08	708	0.104	0.048	-0.987	0.0572958	0	0.3437748	-4.26280752	5.27694318	-20.75826834
7.09	709	0.101	0.047	-0.988	0	-0.1145916	0.3437748	-4.26280752	5.2712136	-20.75826834
7.1	710	0.097	0.046	-0.985	0	-0.0572958	0.1718874	-4.20551172	5.23683612	-20.74680918
7.11	711	0.095	0.046	-0.985	0	0	0	-4.20551172	5.23683612	-20.74680918
7.12	712	0.096	0.047	-0.984	0.0572958	0	-0.0572958	-4.20551172	5.23683612	-20.74680918
7.13	713	0.098	0.047	-0.984	0.1145916	0.1145916	-0.1718874	-4.19978214	5.2425657	-20.74680918
7.14	714	0.101	0.046	-0.986	0.1718874	0	-0.1145916	-4.19978214	5.2425657	-20.74680918
7.15	715	0.1	0.048	-0.987	0.1718874	0	-0.1145916	-4.1825934	5.24829528	-20.75253876
7.16	716	0.1	0.047	-0.988	0.0572958	0	-0.0572958	-4.1825934	5.24829528	-20.75253876
7.17	717	0.101	0.048	-0.989	-0.1145916	0	-0.0572958	-4.1825934	5.24829528	-20.75253876
7.18	718	0.101	0.048	-0.99	-0.4583664	0	-0.0572958	-4.18832298	5.24829528	-20.75253876
7.19	719	0.102	0.048	-0.992	-0.6302538	0.0572958	0	-4.19405256	5.24829528	-20.75253876
7.2	720	0.103	0.047	-0.991	-0.7448454	0.0572958	0	-4.19405256	5.25975444	-20.75253876
7.21	721	0.104	0.044	-0.987	-0.9740286	-0.1145916	0.0572958	-4.20551172	5.25402486	-20.75253876
7.22	722	0.103	0.042	-0.987	-1.3750992	-0.1145916	0.2291832	-4.21697088	5.25402486	-20.75253876
7.23	723	0.103	0.037	-0.986	-2.005353	-0.286479	0.286479	-4.2398892	5.25402486	-20.74680918
7.24	724	0.102	0.033	-0.986	-3.151269	-0.2291832	0.1718874	-4.2685371	5.24829528	-20.74680918
7.25	725	0.102	0.027	-0.986	-5.156622	0.2291832	0.1145916	-4.31437374	5.25402486	-20.7410796
7.26	726	0.102	0.02	-0.987	-8.1360036	0.859437	0	-4.39458786	5.25975444	-20.7410796
7.27	727	0.103	0.012	-0.983	-12.0894138	1.5469866	-0.3437748	-4.52063862	5.2712136	-20.74680918
7.28	728	0.105	0.007	-0.981	-16.329303	2.2345362	-0.859437	-4.68679644	5.29413192	-20.75253876
7.29	729	0.106	0.008	-0.972	-20.340009	2.4064236	-1.3750992	-4.89306132	5.31132066	-20.7697275
7.3	730	0.1	0.018	-0.968	-23.1475032	1.8907614	-2.2345362	-5.1279741	5.3285094	-20.78691624
7.31	731	0.093	0.031	-0.968	-24.4080108	0.7448454	-3.2658606	-5.38007562	5.3285094	-20.82129372
7.32	732	0.089	0.049	-0.967	-24.8090814	0.3437748	-4.0680018	-5.63790672	5.3285094	-20.8556712
7.33	733	0.088	0.072	-0.964	-24.4080108	0.1145916	-4.297185	-5.89000824	5.32277982	-20.90150784
7.34	734	0.085	0.089	-0.954	-24.2934192	0.4010706	-4.2398892	-6.13638018	5.31705024	-20.9416149
7.35	735	0.082	0.107	-0.945	-25.1528562	1.0313244	-4.010706	-6.39994086	5.32277982	-20.97599238
7.36	736	0.086	0.127	-0.94	-24.7517856	1.145916	-3.6669312	-6.65777196	5.3285094	-21.01036986
