TimeStamp(s)	FrameCounter	AccX	AccY	AccZ	GyrX	GyrY	GyrZ	EulerX	EulerY	EulerZ
0.01	1	0.063	-1.003	0.087	1.718874	0.5156622	0.5156622	93.83333166	3.34607472	-16.88507226
0.02	2	0.061	-1.004	0.1	1.2605076	0.1145916	0.572958	93.8505204	3.34034514	-16.88507226
0.03	3	0.062	-1.004	0.1	0.6875496	0	0.4010706	93.85624998	3.33461556	-16.88507226
0.04	4	0.062	-1.003	0.1	-0.9167328	-0.4583664	-0.1718874	93.84479082	3.34034514	-16.89080184
0.05	5	0.063	-1.002	0.102	-0.859437	-0.4583664	-0.1718874	93.86197956	3.36899304	-16.902261
0.06	6	0.065	-1.003	0.099	-0.859437	-0.572958	-0.1718874	93.8505204	3.37472262	-16.90799058
0.07	7	0.064	-1.003	0.101	-0.7448454	-0.572958	-0.0572958	93.84479082	3.37472262	-16.91372016
0.08	8	0.065	-1.003	0.102	-0.9167328	-0.572958	-0.0572958	93.83333166	3.37472262	-16.91944974
0.09	9	0.066	-1.004	0.101	-0.9740286	-0.5156622	-0.1718874	93.8218725	3.37472262	-16.92517932
0.1	10	0.066	-1.004	0.1	-0.9740286	-0.5156622	-0.1145916	93.83333166	3.4091001	-16.94236806
0.11	11	0.064	-1.005	0.098	-0.9740286	-0.572958	-0.3437748	93.8218725	3.4091001	-16.94809764
0.12	12	0.059	-1.006	0.095	-1.2032118	-0.6302538	-0.3437748	93.81041334	3.41482968	-16.95382722
0.13	13	0.052	-1.007	0.095	-1.145916	-0.859437	-0.3437748	93.79895418	3.42055926	-16.9595568
0.14	14	0.047	-1.004	0.1	-1.0313244	-1.145916	-0.2291832	93.78749502	3.42628884	-16.97674554
0.15	15	0.049	-1.003	0.103	-1.145916	-1.0886202	-0.3437748	93.79895418	3.42628884	-16.98247512
0.16	16	0.055	-1.002	0.104	-1.0886202	-0.9167328	-0.3437748	93.78749502	3.42628884	-16.99393428
0.17	17	0.065	-1.003	0.106	-1.0886202	-0.6875496	-0.286479	93.77603586	3.43201842	-16.99966386
0.18	18	0.069	-1.003	0.103	-1.0313244	-0.6875496	-0.1718874	93.7645767	3.437748	-17.00539344
0.19	19	0.065	-1.005	0.101	-1.3178034	-0.6302538	-0.0572958	93.74738796	3.437748	-17.01112302
0.2	20	0.059	-1.004	0.102	-1.6042824	-0.5156622	0	93.75311754	3.44347758	-17.0168526
0.21	21	0.054	-1.004	0.101	-1.4896908	-0.6302538	0	93.7359288	3.44347758	-17.02831176
0.22	22	0.053	-1.004	0.103	-1.5469866	-0.5156622	-0.1145916	93.72446964	3.44347758	-17.03404134
0.23	23	0.055	-1.001	0.106	-1.5469866	-0.4010706	-0.3437748	93.7072809	3.44920716	-17.03404134
0.24	24	0.061	-0.999	0.107	-1.3178034	-0.3437748	-0.4010706	93.69009216	3.44920716	-17.03977092
0.25	25	0.066	-1.001	0.105	-0.9740286	-0.2291832	-0.2291832	93.7359288	3.4950438	-17.05123008
0.26	26	0.067	-1.005	0.103	-1.0313244	-0.286479	-0.0572958	93.72446964	3.4950438	-17.05695966
0.27	27	0.067	-1.004	0.105	-1.3750992	-0.4583664	-0.0572958	93.7072809	3.4950438	-17.06268924
0.28	28	0.065	-1.001	0.105	-1.432395	-0.6875496	-0.1718874	93.69582174	3.50077338	-17.06841882
0.29	29	0.063	-1	0.104	-1.145916	-0.7448454	-0.2291832	93.68436258	3.50077338	-17.0741484
0.3	30	0.063	-1.001	0.103	-0.9740286	-0.859437	-0.4010706	93.69582174	3.5236917	-17.08560756
0.31	31	0.062	-1.005	0.101	-0.859437	-0.859437	-0.3437748	93.69009216	3.5236917	-17.09706672
0.32	32	0.059	-1.006	0.103	-0.7448454	-0.9167328	-0.3437748	93.678633	3.52942128	-17.1027963
0.33	33	0.057	-1.005	0.105	-0.859437	-0.8021412	-0.286479	93.66717384	3.53515086	-17.11425546
0.34	34	0.056	-1.004	0.103	-0.9740286	-0.6875496	-0.1718874	93.66144426	3.53515086	-17.11998504
0.35	35	0.055	-1.002	0.101	-1.0313244	-0.5156622	-0.0572958	93.68436258	3.53515086	-17.11998504
0.36	36	0.055	-1.003	0.101	-0.9740286	-0.4010706	0.0572958	93.67290342	3.53515086	-17.12571462
0.37	37	0.058	-1.002	0.099	-0.9740286	-0.4010706	0.0572958	93.66144426	3.53515086	-17.1314442
0.38	38	0.059	-1.004	0.099	-0.4583664	0.0572958	0.1145916	93.65571468	3.52942128	-17.1314442
0.39	39	0.059	-1.004	0.101	0.1145916	0.4010706	0.1718874	93.66144426	3.52942128	-17.12571462
0.4	40	0.06	-1.004	0.102	0	0.3437748	0.1145916	93.72446964	3.54661002	-17.12571462
0.41	41	0.061	-1.005	0.099	0	0.4010706	0.1145916	93.72446964	3.54661002	-17.12571462
0.42	42	0.06	-1.004	0.101	-0.1145916	0.2291832	0.0572958	93.72446964	3.54661002	-17.11998504
0.43	43	0.06	-1.004	0.104	-0.1145916	0.3437748	0.0572958	93.71874006	3.54088044	-17.11998504
0.44	44	0.062	-1.003	0.103	-0.2291832	0.3437748	0.0572958	93.71874006	3.54088044	-17.11425546
0.45	45	0.063	-1.003	0.102	-0.3437748	0.5156622	0.0572958	93.75311754	3.56379876	-17.11425546
0.46	46	0.063	-1.003	0.1	-0.4010706	0.572958	0	93.74738796	3.56379876	-17.10852588
0.47	47	0.064	-1.003	0.099	-0.1718874	0.4583664	0	93.74738796	3.56379876	-17.1027963
0.48	48	0.063	-1.002	0.099	-0.2291832	0.1718874	-0.0572958	93.74738796	3.56379876	-17.1027963
0.49	49	0.062	-1.002	0.098	-0.0572958	-0.0572958	-0.0572958	93.74165838	3.56379876	-17.1027963
0.5	50	0.062	-1.002	0.1	0	-0.1145916	-0.0572958	93.88489788	3.62109456	-17.11425546
0.51	51	0.062	-1.002	0.102	0	-0.1145916	0	93.88489788	3.62109456	-17.11425546
0.52	52	0.062	-1.002	0.103	0.0572958	0	0	93.88489788	3.62109456	-17.11425546
0.53	53	0.06	-1.002	0.101	0.0572958	0.0572958	0.0572958	93.88489788	3.62109456	-17.11425546
0.54	54	0.059	-1.002	0.102	0.0572958	0.0572958	0.1145916	93.88489788	3.61536498	-17.11425546
0.55	55	0.058	-1.003	0.102	0	0.2291832	0.1145916	93.97084158	3.61536498	-17.10852588
0.56	56	0.058	-1.002	0.104	-0.0572958	0.2291832	0.1145916	93.97084158	3.61536498	-17.10852588
0.57	57	0.058	-1.001	0.103	0	0.286479	0.0572958	93.97084158	3.61536498	-17.1027963
0.58	58	0.058	-1.001	0.102	0.0572958	0.4010706	0.1145916	93.97084158	3.6096354	-17.09706672
0.59	59	0.057	-1.002	0.102	0.1145916	0.3437748	0.1718874	93.97084158	3.6096354	-17.09706672
0.6	60	0.058	-1.003	0.105	0.0572958	0.4010706	0.1145916	94.02813738	3.61536498	-17.09133714
0.61	61	0.059	-1.003	0.105	0	0.5156622	0.2291832	94.02813738	3.6096354	-17.08560756
0.62	62	0.06	-1.003	0.103	-0.0572958	0.572958	0.286479	94.02813738	3.6096354	-17.07987798
0.63	63	0.062	-1.003	0.103	-0.0572958	0.572958	0.4010706	94.02813738	3.60390582	-17.0741484
0.64	64	0.063	-1.002	0.103	-0.1145916	0.4583664	0.4010706	94.02813738	3.59817624	-17.06841882
0.65	65	0.062	-1.001	0.103	-0.0572958	0.4010706	0.4010706	94.0797036	3.61536498	-17.06841882
0.66	66	0.061	-1.003	0.103	0	0.2291832	0.3437748	94.0797036	3.6096354	-17.06841882
0.67	67	0.061	-1.003	0.104	0	0.286479	0.3437748	94.0797036	3.6096354	-17.06268924
0.68	68	0.06	-1.004	0.104	0	0.1718874	0.3437748	94.0797036	3.60390582	-17.06268924
0.69	69	0.061	-1.005	0.102	-0.0572958	0.0572958	0.1145916	94.0797036	3.60390582	-17.06268924
0.7	70	0.06	-1.004	0.103	0	-0.0572958	0.1145916	94.1656473	3.63255372	-17.06841882
0.71	71	0.06	-1.003	0.103	0	0	0.1145916	94.1656473	3.63255372	-17.06841882
0.72	72	0.059	-1.004	0.101	-0.0572958	0	0.0572958	94.1656473	3.62682414	-17.06841882
0.73	73	0.059	-1.004	0.103	-0.0572958	0.0572958	0.0572958	94.1656473	3.62682414	-17.06841882
0.74	74	0.059	-1.003	0.101	-0.1145916	0.0572958	0.0572958	94.1656473	3.62682414	-17.06841882
0.75	75	0.059	-1.003	0.103	-0.1145916	0.2291832	0.1718874	94.20002478	3.63255372	-17.06268924
0.76	76	0.058	-1.002	0.101	-0.2291832	0.0572958	0.1145916	94.20002478	3.62682414	-17.06268924
0.77	77	0.059	-1.001	0.101	-0.1718874	0.0572958	0.1145916	94.1942952	3.62682414	-17.06268924
0.78	78	0.057	-1.001	0.1	0	0	0.0572958	94.1942952	3.62682414	-17.06268924
0.79	79	0.057	-1.002	0.103	0.0572958	0.0572958	0	94.20002478	3.62682414	-17.06268924
0.8	80	0.057	-1.003	0.104	0	0.0572958	0	94.28596848	3.61536498	-17.05695966
0.81	81	0.057	-1.004	0.103	0.0572958	0	0	94.28596848	3.62109456	-17.05695966
0.82	82	0.056	-1.004	0.102	-0.1145916	0.0572958	-0.0572958	94.28596848	3.62109456	-17.05123008
0.83	83	0.056	-1.003	0.101	-0.1145916	0.1145916	0	94.28596848	3.62109456	-17.05123008
0.84	84	0.057	-1.002	0.1	-0.0572958	0.1145916	0	94.28596848	3.62109456	-17.05123008
0.85	85	0.057	-1.003	0.103	0	0.0572958	0	94.34899386	3.61536498	-17.0455005
0.86	86	0.058	-1.004	0.103	0	0.0572958	0	94.34899386	3.61536498	-17.0455005
0.87	87	0.058	-1.004	0.101	-0.0572958	0.1718874	0	94.34899386	3.61536498	-17.0455005
0.88	88	0.058	-1.003	0.103	-0.0572958	0.3437748	0	94.34899386	3.61536498	-17.03977092
0.89	89	0.057	-1.004	0.104	-0.0572958	0.3437748	0.0572958	94.34899386	3.61536498	-17.03404134
0.9	90	0.054	-1.004	0.104	-0.1718874	0.1718874	0	94.37764176	3.59817624	-17.02831176
0.91	91	0.055	-1.003	0.104	-0.2291832	0.1718874	0	94.37764176	3.59817624	-17.02831176
0.92	92	0.055	-1.005	0.104	-0.286479	0.1145916	0	94.37764176	3.59817624	-17.02258218
0.93	93	0.056	-1.003	0.103	-0.286479	0	-0.0572958	94.37191218	3.59817624	-17.02258218
0.94	94	0.057	-1.003	0.102	-0.2291832	-0.0572958	0	94.37191218	3.59817624	-17.02258218
0.95	95	0.058	-1.003	0.103	-0.2291832	-0.0572958	0	94.38910092	3.59817624	-17.02258218
0.96	96	0.059	-1.002	0.102	-0.2291832	-0.0572958	0	94.38337134	3.59817624	-17.02831176
0.97	97	0.059	-1.002	0.103	-0.2291832	-0.0572958	0	94.38337134	3.59817624	-17.02831176
0.98	98	0.059	-1.002	0.104	0	-0.1145916	0	94.38337134	3.59817624	-17.02831176
0.99	99	0.059	-1.001	0.104	0	-0.0572958	0	94.38337134	3.59817624	-17.02831176
1	100	0.057	-1.003	0.104	0	-0.0572958	0	94.43493756	3.60390582	-17.02831176
1.01	101	0.055	-1.005	0.103	-0.1145916	0.0572958	0.0572958	94.43493756	3.59817624	-17.02831176
1.02	102	0.055	-1.005	0.104	0	0.2291832	0.0572958	94.43493756	3.59817624	-17.02258218
1.03	103	0.055	-1.005	0.103	-0.1145916	0.4010706	0	94.43493756	3.59817624	-17.0168526
1.04	104	0.058	-1.003	0.101	-0.1718874	0.4010706	0.0572958	94.43493756	3.59817624	-17.0168526
1.05	105	0.057	-1.001	0.099	-0.2291832	0.2291832	0.1718874	94.42920798	3.59817624	-17.0168526
1.06	106	0.057	-0.999	0.103	-0.2291832	0.1718874	0.1145916	94.42920798	3.59817624	-17.01112302
1.07	107	0.057	-1	0.104	-0.4010706	0.1718874	0	94.4234784	3.59817624	-17.01112302
1.08	108	0.057	-1.002	0.101	-0.286479	0.0572958	-0.0572958	94.41774882	3.59817624	-17.01112302
1.09	109	0.056	-1.006	0.1	0	-0.2291832	0	94.41774882	3.59817624	-17.01112302
1.1	110	0.055	-1.008	0.104	0	-0.6302538	-0.0572958	94.42920798	3.59244666	-17.0168526
1.11	111	0.055	-1.011	0.105	-0.1718874	-0.7448454	-0.0572958	94.42920798	3.59817624	-17.02258218
1.12	112	0.056	-1.009	0.105	-0.3437748	-0.7448454	0	94.4234784	3.59817624	-17.03404134
1.13	113	0.058	-1.006	0.104	-0.5156622	-0.6875496	0	94.41774882	3.59817624	-17.03977092
1.14	114	0.058	-1.002	0.101	-0.6302538	-0.6875496	0	94.41201924	3.59817624	-17.0455005
1.15	115	0.057	-1.002	0.103	-0.4583664	-0.6302538	0.0572958	94.41774882	3.59817624	-17.05123008
1.16	116	0.056	-1	0.104	-0.3437748	-0.572958	0	94.41201924	3.59817624	-17.05695966
1.17	117	0.056	-1	0.103	-0.286479	-0.572958	-0.0572958	94.40628966	3.60390582	-17.06268924
1.18	118	0.055	-1	0.103	-0.3437748	-0.6302538	-0.1718874	94.40628966	3.60390582	-17.06841882
1.19	119	0.056	-0.999	0.101	-0.286479	-0.572958	-0.1145916	94.40056008	3.60390582	-17.0741484
1.2	120	0.055	-1	0.101	-0.1145916	-0.5156622	-0.1145916	94.40056008	3.59817624	-17.07987798
1.21	121	0.055	-1.001	0.1	0	-0.286479	0	94.40056008	3.60390582	-17.08560756
1.22	122	0.054	-1.001	0.102	-0.0572958	-0.3437748	0	94.40056008	3.60390582	-17.08560756
1.23	123	0.054	-1	0.101	-0.0572958	-0.4010706	0	94.3948305	3.60390582	-17.09133714
1.24	124	0.054	-1	0.101	0	-0.4010706	-0.0572958	94.3948305	3.60390582	-17.09706672
1.25	125	0.053	-1.001	0.1	0	-0.286479	-0.1145916	94.40056008	3.58671708	-17.09706672
1.26	126	0.053	-1.002	0.1	-0.1145916	-0.1145916	-0.1718874	94.40056008	3.59244666	-17.09706672
1.27	127	0.054	-1.001	0.098	-0.1145916	-0.1718874	-0.1145916	94.40056008	3.59244666	-17.09706672
1.28	128	0.054	-1.001	0.098	0.0572958	-0.1718874	0	94.40056008	3.59244666	-17.1027963
1.29	129	0.053	-1	0.099	0.0572958	-0.2291832	0.0572958	94.40056008	3.59244666	-17.1027963
1.3	130	0.054	-1.002	0.097	0.286479	-0.286479	0.0572958	94.40056008	3.5809875	-17.1027963
1.31	131	0.054	-1.003	0.099	0.286479	-0.2291832	0	94.40056008	3.5809875	-17.10852588
1.32	132	0.053	-1.005	0.1	0.286479	-0.2291832	0	94.40628966	3.5809875	-17.10852588
1.33	133	0.052	-1.006	0.101	0.2291832	-0.0572958	-0.2291832	94.40628966	3.58671708	-17.10852588
1.34	134	0.053	-1.007	0.099	0	0.0572958	-0.2291832	94.40628966	3.58671708	-17.10852588
1.35	135	0.054	-1.006	0.098	0	0	-0.286479	94.3948305	3.5809875	-17.10852588
1.36	136	0.054	-1.007	0.097	0	-0.0572958	-0.286479	94.3948305	3.5809875	-17.10852588
1.37	137	0.055	-1.006	0.098	0	-0.286479	-0.2291832	94.3948305	3.58671708	-17.10852588
1.38	138	0.056	-1.002	0.097	-0.1145916	-0.1718874	-0.1718874	94.38910092	3.58671708	-17.11425546
1.39	139	0.056	-1	0.098	-0.1718874	-0.1145916	-0.1718874	94.38910092	3.59244666	-17.11425546
1.4	140	0.056	-0.999	0.099	0	-0.1145916	-0.1145916	94.38337134	3.59244666	-17.11425546
1.41	141	0.056	-1	0.099	0.1145916	-0.0572958	-0.1145916	94.38910092	3.59244666	-17.11425546
1.42	142	0.055	-1	0.1	0.1718874	0	-0.1145916	94.38910092	3.59244666	-17.11425546
1.43	143	0.053	-1	0.101	0.1718874	0	-0.2291832	94.38910092	3.59817624	-17.11425546
1.44	144	0.052	-1.001	0.102	0.286479	-0.1145916	-0.2291832	94.3948305	3.59817624	-17.11425546
1.45	145	0.053	-1.001	0.101	0.2291832	-0.1718874	-0.2291832	94.40628966	3.58671708	-17.11425546
1.46	146	0.054	-1.002	0.102	0.3437748	-0.1718874	-0.286479	94.41201924	3.59244666	-17.11425546
1.47	147	0.053	-1.002	0.103	0.286479	0	-0.2291832	94.41201924	3.59244666	-17.11425546
1.48	148	0.053	-1.003	0.103	0.1718874	0.1145916	-0.2291832	94.41774882	3.59817624	-17.11425546
1.49	149	0.053	-1.003	0.101	0.2291832	0.286479	-0.1718874	94.41774882	3.59817624	-17.10852588
1.5	150	0.052	-1.003	0.1	0.2291832	0.4010706	-0.1145916	94.4234784	3.58671708	-17.1027963
1.51	151	0.054	-1.003	0.102	0.286479	0.2291832	0	94.42920798	3.58671708	-17.09706672
1.52	152	0.054	-1.003	0.101	0.2291832	0.2291832	0	94.42920798	3.58671708	-17.09706672
1.53	153	0.054	-1.003	0.102	0.1145916	0.1718874	0.0572958	94.42920798	3.58671708	-17.09706672
1.54	154	0.054	-1.005	0.103	0.0572958	0.2291832	0.0572958	94.43493756	3.58671708	-17.09133714
1.55	155	0.055	-1.007	0.103	0.0572958	0.1718874	0	94.4521263	3.56952834	-17.08560756
1.56	156	0.055	-1.008	0.102	0	0.0572958	-0.0572958	94.4521263	3.56952834	-17.08560756
1.57	157	0.055	-1.009	0.102	-0.1145916	0.0572958	-0.1718874	94.44639672	3.56952834	-17.08560756
1.58	158	0.055	-1.009	0.102	-0.1718874	0.1145916	-0.1145916	94.44639672	3.57525792	-17.08560756
1.59	159	0.056	-1.007	0.101	-0.3437748	0.0572958	-0.2291832	94.44066714	3.57525792	-17.08560756
1.6	160	0.054	-1.007	0.101	-0.5156622	0.1145916	-0.1718874	94.44639672	3.56952834	-17.07987798
1.61	161	0.055	-1.004	0.102	-0.572958	0.1718874	-0.1718874	94.43493756	3.56952834	-17.07987798
1.62	162	0.054	-1.004	0.102	-0.6302538	0.1718874	-0.1718874	94.42920798	3.57525792	-17.0741484
1.63	163	0.055	-1.002	0.1	-0.5156622	0.1718874	-0.1145916	94.4234784	3.57525792	-17.0741484
1.64	164	0.054	-1.002	0.101	-0.5156622	0.0572958	-0.1718874	94.41774882	3.57525792	-17.0741484
1.65	165	0.055	-1.002	0.1	-0.6302538	0.1145916	-0.1145916	94.41201924	3.56952834	-17.06841882
1.66	166	0.054	-1.003	0.099	-0.572958	0.1145916	-0.1718874	94.40628966	3.56952834	-17.06841882
1.67	167	0.053	-1.001	0.101	-0.4583664	0.0572958	-0.2291832	94.40056008	3.57525792	-17.06841882
1.68	168	0.053	-1	0.101	-0.4010706	0	-0.2291832	94.40056008	3.57525792	-17.06841882
1.69	169	0.053	-1.001	0.099	-0.1718874	-0.0572958	-0.2291832	94.3948305	3.5809875	-17.06841882
1.7	170	0.054	-1.002	0.099	-0.1145916	-0.1718874	-0.2291832	94.3948305	3.57525792	-17.06841882
1.71	171	0.055	-1.004	0.1	-0.1145916	-0.286479	-0.286479	94.3948305	3.57525792	-17.06841882
1.72	172	0.054	-1.004	0.1	-0.0572958	-0.4583664	-0.2291832	94.3948305	3.5809875	-17.0741484
1.73	173	0.053	-1.004	0.098	-0.0572958	-0.572958	-0.3437748	94.3948305	3.5809875	-17.07987798
1.74	174	0.052	-1.003	0.096	0	-0.572958	-0.4583664	94.3948305	3.58671708	-17.08560756
1.75	175	0.052	-1.004	0.097	0	-0.4583664	-0.5156622	94.38910092	3.5809875	-17.09133714
1.76	176	0.053	-1.003	0.098	0.0572958	-0.4010706	-0.4583664	94.3948305	3.58671708	-17.09133714
1.77	177	0.053	-1.003	0.1	0	-0.286479	-0.4010706	94.3948305	3.59244666	-17.09706672
1.78	178	0.055	-1.001	0.098	0.1145916	-0.2291832	-0.286479	94.3948305	3.59817624	-17.09706672
1.79	179	0.055	-1.002	0.095	0.0572958	0	-0.1145916	94.3948305	3.59817624	-17.09706672
1.8	180	0.055	-1.002	0.095	0.1718874	-0.0572958	0	94.38337134	3.59244666	-17.09706672
1.81	181	0.054	-1.004	0.097	0.286479	0.0572958	0	94.38337134	3.59244666	-17.09706672
1.82	182	0.054	-1.006	0.098	0.1718874	0.2291832	0	94.38910092	3.58671708	-17.09706672
1.83	183	0.054	-1.004	0.097	0.1718874	0.286479	0.0572958	94.38910092	3.58671708	-17.09133714
1.84	184	0.054	-1.002	0.095	0.1718874	0.286479	0	94.3948305	3.58671708	-17.08560756
1.85	185	0.051	-1	0.095	0.1718874	0.3437748	0	94.3948305	3.56952834	-17.07987798
1.86	186	0.051	-0.998	0.097	0.2291832	0.4583664	0	94.3948305	3.56952834	-17.07987798
1.87	187	0.054	-1.001	0.096	0.1718874	0.6875496	0	94.40056008	3.56952834	-17.06841882
1.88	188	0.056	-1.003	0.096	0.4010706	0.572958	0.1145916	94.40628966	3.56952834	-17.06268924
1.89	189	0.056	-1.004	0.096	0.4583664	0.4583664	0.1145916	94.40628966	3.56379876	-17.05695966
1.9	190	0.056	-1.005	0.095	0.3437748	0.3437748	0.1718874	94.40056008	3.55806918	-17.05695966
1.91	191	0.056	-1.004	0.095	0.4010706	0.286479	0.1718874	94.40628966	3.55806918	-17.05123008
1.92	192	0.056	-1.003	0.094	0.3437748	0.4010706	0.2291832	94.41201924	3.55806918	-17.05123008
1.93	193	0.056	-1.003	0.094	0.286479	0.5156622	0.2291832	94.41201924	3.5523396	-17.0455005
1.94	194	0.056	-1.001	0.096	0.4010706	0.4583664	0.286479	94.41774882	3.54661002	-17.03977092
1.95	195	0.056	-1.001	0.097	0.5156622	0.4583664	0.286479	94.4234784	3.54661002	-17.03404134
1.96	196	0.057	-1.001	0.098	0.572958	0.6302538	0.3437748	94.42920798	3.54088044	-17.02831176
1.97	197	0.058	-1.001	0.099	0.4583664	0.572958	0.286479	94.43493756	3.54088044	-17.02258218
1.98	198	0.058	-1.001	0.097	0.5156622	0.572958	0.2291832	94.44066714	3.53515086	-17.0168526
1.99	199	0.058	-1.002	0.097	0.6875496	0.6302538	0.2291832	94.44639672	3.53515086	-17.01112302
2	200	0.057	-1.003	0.095	0.859437	0.5156622	0.286479	94.4521263	3.52942128	-17.00539344
2.01	201	0.057	-1.002	0.097	0.859437	0.6302538	0.3437748	94.45785588	3.52942128	-16.99966386
2.02	202	0.055	-1.002	0.098	0.6875496	0.4583664	0.286479	94.46931504	3.5236917	-16.99393428
2.03	203	0.055	-1	0.098	0.6302538	0.4010706	0.2291832	94.47504462	3.51796212	-16.99393428
2.04	204	0.054	-0.999	0.099	0.859437	0.2291832	0.2291832	94.4807742	3.51796212	-16.9882047
2.05	205	0.053	-1.001	0.099	0.6875496	0.1145916	0.1145916	94.48650378	3.51223254	-16.9882047
2.06	206	0.053	-1.002	0.1	0.6302538	0.1145916	0.1718874	94.49223336	3.50650296	-16.9882047
2.07	207	0.054	-1.002	0.099	0.7448454	0	0.2291832	94.50369252	3.50650296	-16.9882047
2.08	208	0.054	-1.004	0.097	0.859437	0	0.2291832	94.5094221	3.50077338	-16.9882047
2.09	209	0.055	-1.004	0.096	0.9740286	0	0.2291832	94.52088126	3.50077338	-16.9882047
2.1	210	0.054	-1.004	0.098	0.9167328	0	0.4010706	94.52661084	3.4950438	-16.9882047
2.11	211	0.054	-1.004	0.098	0.9740286	0	0.5156622	94.53807	3.48931422	-16.9882047
2.12	212	0.052	-1.004	0.1	0.8021412	0	0.572958	94.54379958	3.48358464	-16.9882047
2.13	213	0.051	-1.003	0.102	0.5156622	0	0.4010706	94.54952916	3.47785506	-16.9882047
2.14	214	0.053	-1.004	0.103	0.3437748	0.0572958	0.3437748	94.55525874	3.47785506	-16.9882047
2.15	215	0.054	-1.003	0.101	0.4010706	0.1145916	0.4583664	94.56098832	3.4663959	-16.9882047
2.16	216	0.053	-1.004	0.099	0.5156622	0.1718874	0.4583664	94.5667179	3.4663959	-16.98247512
2.17	217	0.054	-1.007	0.098	0.5156622	0.1145916	0.4010706	94.5667179	3.46066632	-16.98247512
2.18	218	0.054	-1.004	0.099	0.4010706	0	0.286479	94.57244748	3.45493674	-16.98247512
2.19	219	0.054	-1.003	0.1	0.3437748	0	0.1718874	94.57817706	3.45493674	-16.98247512
2.2	220	0.054	-1.002	0.101	0.4583664	-0.1718874	0.1145916	94.58390664	3.45493674	-16.9882047
2.21	221	0.054	-1.002	0.103	0.4010706	-0.286479	0.1145916	94.58390664	3.45493674	-16.9882047
2.22	222	0.055	-1.001	0.105	0.286479	-0.3437748	0.1145916	94.58963622	3.45493674	-16.99393428
2.23	223	0.055	-1	0.104	0	-0.2291832	0	94.58963622	3.45493674	-16.99393428
2.24	224	0.054	-1	0.102	-0.1145916	-0.1145916	0	94.58963622	3.45493674	-16.99966386
2.25	225	0.053	-1.001	0.101	-0.2291832	0	-0.0572958	94.58390664	3.44347758	-16.99393428
2.26	226	0.053	-1.002	0.101	0	-0.2291832	0	94.57817706	3.44347758	-16.99966386
2.27	227	0.053	-1.003	0.102	0	-0.286479	0	94.57817706	3.44347758	-16.99966386
2.28	228	0.053	-1.004	0.104	0	-0.4010706	0	94.57817706	3.44347758	-17.00539344
2.29	229	0.052	-1.006	0.105	0	-0.4583664	0	94.58390664	3.44347758	-17.01112302
2.3	230	0.052	-1.005	0.105	0	-0.2291832	0	94.5953658	3.42628884	-17.01112302
2.31	231	0.052	-1.004	0.104	0	-0.2291832	0.0572958	94.5953658	3.42628884	-17.01112302
2.32	232	0.052	-1.003	0.105	0	-0.2291832	0	94.5953658	3.42628884	-17.0168526
2.33	233	0.051	-1.004	0.104	-0.0572958	-0.1718874	-0.0572958	94.5953658	3.43201842	-17.0168526
2.34	234	0.05	-1.004	0.103	-0.1145916	-0.1718874	-0.1145916	94.5953658	3.43201842	-17.0168526
2.35	235	0.049	-1.004	0.104	-0.0572958	-0.1718874	-0.1718874	94.5953658	3.4091001	-17.0168526
2.36	236	0.05	-1.005	0.103	0.0572958	-0.286479	-0.1145916	94.5953658	3.41482968	-17.02258218
2.37	237	0.05	-1.005	0.104	0	-0.286479	-0.1718874	94.5953658	3.41482968	-17.02258218
2.38	238	0.05	-1.005	0.105	0	-0.4010706	-0.1718874	94.5953658	3.42055926	-17.02831176
2.39	239	0.052	-1.004	0.104	-0.0572958	-0.5156622	-0.2291832	94.5953658	3.42055926	-17.03404134
2.4	240	0.05	-1.004	0.103	-0.0572958	-0.4010706	-0.1718874	94.60109538	3.4091001	-17.03404134
2.41	241	0.05	-1.003	0.104	-0.0572958	-0.3437748	-0.0572958	94.5953658	3.4091001	-17.03977092
2.42	242	0.05	-1.002	0.105	0	-0.2291832	-0.1718874	94.5953658	3.41482968	-17.03977092
2.43	243	0.048	-1.002	0.103	0	-0.1145916	-0.1145916	94.5953658	3.41482968	-17.03977092
2.44	244	0.048	-1.002	0.102	0	0.0572958	-0.1145916	94.5953658	3.41482968	-17.03977092
2.45	245	0.048	-1.003	0.103	0	0.1145916	-0.1145916	94.60682496	3.38618178	-17.03404134
2.46	246	0.048	-1.004	0.105	-0.1145916	0.2291832	-0.2291832	94.60682496	3.38618178	-17.03404134
2.47	247	0.049	-1.005	0.104	-0.1718874	0.4583664	-0.286479	94.60682496	3.39191136	-17.02831176
2.48	248	0.049	-1.003	0.103	-0.3437748	0.5156622	-0.286479	94.60109538	3.39191136	-17.02258218
2.49	249	0.05	-1.002	0.103	-0.1718874	0.5156622	-0.2291832	94.60109538	3.39191136	-17.0168526
2.5	250	0.051	-1.003	0.103	0	0.5156622	-0.1718874	94.60109538	3.38618178	-17.01112302
2.51	251	0.052	-1.003	0.103	0	0.572958	-0.1145916	94.60109538	3.39191136	-17.00539344
2.52	252	0.051	-1.002	0.104	-0.0572958	0.5156622	-0.1718874	94.60109538	3.39191136	-16.99966386
2.53	253	0.052	-1.001	0.103	-0.1145916	0.572958	-0.0572958	94.60109538	3.39191136	-16.99393428
2.54	254	0.052	-1.002	0.104	-0.0572958	0.5156622	0	94.60109538	3.39191136	-16.9882047
2.55	255	0.052	-1.002	0.106	-0.0572958	0.572958	0	94.61255454	3.38618178	-16.97674554
2.56	256	0.053	-1.002	0.105	-0.0572958	0.5156622	0	94.60682496	3.38618178	-16.97674554
2.57	257	0.055	-1.002	0.104	0	0.3437748	0	94.60682496	3.38618178	-16.97101596
2.58	258	0.054	-1.003	0.103	0.0572958	0.3437748	0.0572958	94.61255454	3.38618178	-16.96528638
2.59	259	0.053	-1.005	0.105	0.1145916	0.1718874	0	94.61255454	3.38618178	-16.96528638
2.6	260	0.053	-1.005	0.106	0	0.0572958	0	94.6240137	3.37472262	-16.96528638
2.61	261	0.053	-1.003	0.107	-0.0572958	0.1718874	0	94.6240137	3.37472262	-16.9595568
2.62	262	0.053	-1.002	0.106	-0.1718874	0.0572958	0	94.61828412	3.37472262	-16.9595568
2.63	263	0.053	-1.002	0.103	-0.1145916	0	-0.1145916	94.61828412	3.37472262	-16.9595568
2.64	264	0.054	-1.004	0.105	0.0572958	-0.2291832	0	94.61828412	3.3804522	-16.9595568
2.65	265	0.053	-1.005	0.105	0	-0.3437748	-0.0572958	94.6240137	3.3804522	-16.96528638
2.66	266	0.052	-1.003	0.105	-0.1145916	-0.4583664	-0.0572958	94.6240137	3.3804522	-16.97101596
2.67	267	0.053	-1.003	0.106	-0.0572958	-0.572958	-0.0572958	94.6240137	3.38618178	-16.97674554
2.68	268	0.053	-1.001	0.107	0	-0.5156622	0	94.6240137	3.38618178	-16.98247512
2.69	269	0.053	-1.002	0.107	-0.1145916	-0.4010706	-0.0572958	94.61828412	3.38618178	-16.98247512
2.7	270	0.052	-1.001	0.107	-0.0572958	-0.4010706	0	94.63547286	3.3804522	-16.9882047
2.71	271	0.05	-1.002	0.109	-0.2291832	-0.4583664	-0.1145916	94.62974328	3.38618178	-16.99393428
2.72	272	0.049	-1.004	0.109	-0.286479	-0.6302538	-0.1718874	94.6240137	3.38618178	-16.99966386
2.73	273	0.05	-1.006	0.108	-0.3437748	-0.5156622	-0.1718874	94.6240137	3.38618178	-17.00539344
2.74	274	0.05	-1.006	0.108	-0.3437748	-0.5156622	-0.2291832	94.61828412	3.39191136	-17.01112302
2.75	275	0.051	-1.006	0.108	-0.286479	-0.572958	-0.286479	94.61828412	3.39191136	-17.0168526
2.76	276	0.05	-1.005	0.107	-0.4010706	-0.5156622	-0.3437748	94.61828412	3.39764094	-17.0168526
2.77	277	0.051	-1.002	0.108	-0.5156622	-0.4583664	-0.3437748	94.61255454	3.40337052	-17.02258218
2.78	278	0.05	-1.001	0.107	-0.4583664	-0.3437748	-0.4010706	94.60682496	3.40337052	-17.02831176
2.79	279	0.049	-1	0.108	-0.286479	-0.572958	-0.3437748	94.60109538	3.4091001	-17.03404134
2.8	280	0.05	-1	0.108	-0.1718874	-0.9167328	-0.3437748	94.60682496	3.4091001	-17.03977092
2.81	281	0.048	-1.003	0.106	-0.2291832	-0.9167328	-0.286479	94.60109538	3.4091001	-17.05123008
2.82	282	0.047	-1.005	0.107	-0.286479	-0.6302538	-0.2291832	94.60109538	3.41482968	-17.05695966
2.83	283	0.047	-1.006	0.106	-0.4583664	-0.572958	-0.1718874	94.5953658	3.41482968	-17.06268924
2.84	284	0.048	-1.005	0.105	-0.5156622	-0.4010706	-0.1145916	94.58963622	3.42055926	-17.06841882
2.85	285	0.048	-1.003	0.108	-0.286479	-0.286479	-0.1145916	94.60109538	3.40337052	-17.06841882
2.86	286	0.047	-1.003	0.109	-0.1145916	-0.286479	-0.1145916	94.60109538	3.4091001	-17.06841882
2.87	287	0.049	-1.003	0.108	-0.1145916	-0.0572958	-0.1145916	94.5953658	3.4091001	-17.06841882
2.88	288	0.051	-1.003	0.108	-0.1145916	0.0572958	-0.1145916	94.5953658	3.4091001	-17.06841882
2.89	289	0.053	-1.004	0.108	-0.286479	0.0572958	-0.1145916	94.5953658	3.41482968	-17.06841882
2.9	290	0.054	-1.004	0.107	-0.4583664	0.1145916	-0.1145916	94.61255454	3.42055926	-17.06841882
2.91	291	0.054	-1.005	0.109	-0.5156622	0	-0.0572958	94.60682496	3.42055926	-17.06841882
2.92	292	0.053	-1.005	0.109	-0.572958	0	0	94.60109538	3.42055926	-17.06841882
2.93	293	0.051	-1.005	0.108	-0.6302538	-0.0572958	0	94.58963622	3.42055926	-17.06841882
2.94	294	0.049	-1.004	0.108	-0.572958	-0.1145916	-0.1145916	94.58390664	3.42628884	-17.06841882
2.95	295	0.048	-1.003	0.11	-0.4010706	0	-0.1718874	94.60682496	3.4091001	-17.06841882
2.96	296	0.048	-1.001	0.109	-0.4010706	-0.1145916	-0.2291832	94.60109538	3.4091001	-17.06841882
2.97	297	0.05	-1.003	0.106	-0.4010706	0	-0.286479	94.60109538	3.41482968	-17.06841882
2.98	298	0.053	-1.004	0.107	-0.4583664	0.1145916	-0.1718874	94.5953658	3.41482968	-17.06841882
2.99	299	0.053	-1.005	0.106	-0.4010706	0	-0.1718874	94.58963622	3.42055926	-17.06841882
3	300	0.052	-1.004	0.106	-0.4583664	0.0572958	-0.1145916	94.60109538	3.41482968	-17.06268924
3.01	301	0.052	-1.004	0.106	-0.4010706	0	-0.1718874	94.5953658	3.41482968	-17.06268924
3.02	302	0.051	-1.005	0.106	-0.4583664	0	-0.0572958	94.58963622	3.41482968	-17.06268924
3.03	303	0.05	-1.005	0.105	-0.4010706	-0.1145916	-0.1145916	94.58390664	3.41482968	-17.06268924
3.04	304	0.05	-1.005	0.108	-0.4583664	0.1145916	-0.1718874	94.58390664	3.42055926	-17.06268924
3.05	305	0.052	-1.005	0.111	-0.572958	0.4583664	-0.1145916	94.58963622	3.42055926	-17.05695966
3.06	306	0.054	-1.003	0.111	-0.859437	0.5156622	-0.0572958	94.58390664	3.42055926	-17.05123008
3.07	307	0.055	-1.002	0.107	-0.7448454	0.4010706	0	94.57244748	3.42055926	-17.0455005
3.08	308	0.056	-1.002	0.108	-0.7448454	0.286479	0	94.5667179	3.42055926	-17.0455005
3.09	309	0.055	-1.003	0.109	-0.7448454	0.2291832	0	94.56098832	3.41482968	-17.03977092
3.1	310	0.055	-1.002	0.12	-0.9167328	0.1145916	0	94.5953658	3.41482968	-17.03977092
3.11	311	0.053	-1	0.132	-1.0886202	-0.1145916	0	94.58390664	3.41482968	-17.03977092
3.12	312	0.05	-1.001	0.131	-1.2032118	-0.2291832	-0.0572958	94.57244748	3.41482968	-17.0455005
3.13	313	0.05	-1.008	0.129	-1.2605076	0.1145916	-0.0572958	94.56098832	3.41482968	-17.03977092
3.14	314	0.051	-1.018	0.124	-1.3178034	0.7448454	-0.2291832	94.54952916	3.42055926	-17.03404134
3.15	315	0.055	-1.028	0.123	-1.432395	1.6615782	-0.4010706	94.54952916	3.42055926	-17.0168526
3.16	316	0.054	-1.033	0.124	-1.432395	1.8334656	-0.4583664	94.53234042	3.42055926	-16.99966386
3.17	317	0.053	-1.04	0.121	-2.005353	1.9480572	-0.4583664	94.51515168	3.42628884	-16.97674554
3.18	318	0.055	-1.041	0.126	-3.2658606	2.3491278	-0.5156622	94.4807742	3.42628884	-16.95382722
3.19	319	0.057	-1.038	0.129	-4.3544808	2.3491278	-0.4583664	94.43493756	3.43201842	-16.9309089
3.2	320	0.058	-1.034	0.128	-5.2712136	2.4637194	-0.6302538	94.38910092	3.43201842	-16.90799058
3.21	321	0.058	-1.028	0.128	-6.016059	2.291832	-0.7448454	94.33180512	3.437748	-16.88507226
3.22	322	0.056	-1.027	0.127	-6.875496	2.1199446	-0.8021412	94.26305016	3.44347758	-16.86215394
3.23	323	0.051	-1.027	0.127	-7.5630456	1.7761698	-0.859437	94.18856562	3.44920716	-16.8449652
3.24	324	0.05	-1.025	0.127	-8.59437	1.4896908	-0.859437	94.09689234	3.46066632	-16.83350604
3.25	325	0.05	-1.024	0.124	-9.5111028	1.432395	-0.859437	94.01094864	3.4663959	-16.8163173
3.26	326	0.05	-1.023	0.121	-10.4851314	1.0886202	-0.8021412	93.90208662	3.47212548	-16.80485814
3.27	327	0.052	-1.021	0.118	-11.4018642	0.9740286	-0.7448454	93.78749502	3.47785506	-16.79912856
3.28	328	0.055	-1.018	0.116	-12.1467096	0.859437	-0.8021412	93.66144426	3.48358464	-16.7876694
3.29	329	0.056	-1.017	0.109	-12.7769634	0.859437	-0.8021412	93.5353935	3.48931422	-16.78193982
3.3	330	0.056	-1.017	0.103	-13.6364004	0.572958	-0.6875496	93.39788358	3.4950438	-16.77621024
3.31	331	0.056	-1.016	0.098	-14.4958374	0.1145916	-0.572958	93.2489145	3.50077338	-16.77621024
3.32	332	0.053	-1.013	0.092	-15.0687954	-0.2291832	-0.572958	93.09994542	3.50650296	-16.78193982
3.33	333	0.053	-1.011	0.095	-15.2979786	-0.6302538	-0.6302538	92.93951718	3.51223254	-16.7876694
3.34	334	0.052	-1.009	0.093	-15.756345	-0.859437	-0.6302538	92.77908894	3.51796212	-16.79912856
3.35	335	0.052	-1.007	0.093	-16.329303	-1.145916	-0.6875496	92.6186607	3.5236917	-16.81058772
3.36	336	0.052	-1.01	0.092	-17.0168526	-1.145916	-0.8021412	92.4467733	3.52942128	-16.82777646
3.37	337	0.052	-1.014	0.089	-17.8762896	-1.2605076	-0.9740286	92.26342674	3.54088044	-16.83923562
3.38	338	0.053	-1.018	0.089	-19.0222056	-1.6042824	-1.0313244	92.06862102	3.5523396	-16.85642436
3.39	339	0.055	-1.023	0.084	-20.5691922	-1.8907614	-1.0886202	91.85662656	3.56379876	-16.87934268
3.4	340	0.058	-1.027	0.077	-22.4599536	-2.005353	-0.9740286	91.62744336	3.56952834	-16.902261
3.41	341	0.062	-1.03	0.071	-24.1215318	-2.2345362	-0.8021412	91.38107142	3.57525792	-16.92517932
3.42	342	0.062	-1.03	0.066	-25.6685184	-2.86479	-0.4583664	91.12324032	3.5809875	-16.9595568
3.43	343	0.061	-1.025	0.066	-26.6998428	-3.8388186	-0.2291832	90.84822048	3.58671708	-16.99966386
3.44	344	0.06	-1.022	0.065	-27.1009134	-4.8128472	0	90.57320064	3.58671708	-17.05123008
3.45	345	0.059	-1.022	0.058	-27.8457588	-5.5003968	0.0572958	90.28672164	3.5809875	-17.10852588
3.46	346	0.062	-1.025	0.051	-28.8770832	-5.6722842	0	89.98878348	3.5809875	-17.17155126
3.47	347	0.064	-1.035	0.045	-30.080295	-6.016059	-0.1718874	89.67938616	3.5809875	-17.23457664
3.48	348	0.064	-1.039	0.041	-31.6845774	-6.5317212	-0.4583664	89.35852968	3.58671708	-17.3033316
3.49	349	0.062	-1.039	0.04	-32.8304934	-6.589017	-0.859437	89.02048446	3.59244666	-17.37208656
3.5	350	0.062	-1.04	0.033	-34.2055926	-6.875496	-1.2605076	88.67098008	3.60390582	-17.44084152
3.51	351	0.063	-1.038	0.028	-35.809875	-7.161975	-1.6042824	88.30428696	3.62109456	-17.52105564
3.52	352	0.067	-1.04	0.023	-36.955791	-7.448454	-1.718874	87.92613468	3.63255372	-17.59554018
3.53	353	0.068	-1.041	0.019	-38.101707	-7.9641162	-1.8334656	87.53079366	3.64401288	-17.68148388
3.54	354	0.064	-1.041	0.012	-39.7632852	-8.2505952	-2.005353	87.12399348	3.66120162	-17.76742758
3.55	355	0.055	-1.041	0.001	-41.4821592	-7.7922288	-2.005353	86.70000456	3.67839036	-17.85337128
3.56	356	0.048	-1.038	-0.006	-42.9145542	-7.3911582	-2.2345362	86.26455648	3.68984952	-17.9335854
3.57	357	0.046	-1.036	-0.015	-43.544808	-6.7609044	-2.4637194	85.81764924	3.71276784	-18.00806994
3.58	358	0.044	-1.038	-0.024	-43.8885828	-6.1306506	-2.86479	85.36501242	3.72995658	-18.07109532
3.59	359	0.047	-1.037	-0.032	-45.0917946	-5.443101	-3.3231564	84.90664602	3.75860448	-18.1341207
3.6	360	0.05	-1.036	-0.032	-45.6647526	-4.870143	-3.6096354	84.44255004	3.78725238	-18.1914165
3.61	361	0.047	-1.034	-0.04	-46.2950064	-4.297185	-4.0680018	83.9669949	3.82162986	-18.24298272
3.62	362	0.047	-1.034	-0.044	-46.8679644	-3.437748	-4.5263682	83.49143976	3.85600734	-18.28881936
3.63	363	0.047	-1.037	-0.047	-47.3263308	-2.9793816	-4.6982556	83.00442546	3.8961144	-18.32892642
3.64	364	0.048	-1.037	-0.054	-47.8992888	-2.578311	-4.6982556	82.51741116	3.93622146	-18.3633039
3.65	365	0.052	-1.037	-0.062	-48.5868384	-2.1199446	-4.5263682	82.02466728	3.97059894	-18.39768138
3.66	366	0.054	-1.039	-0.068	-49.2170922	-2.1772404	-4.2398892	81.52619382	4.00497642	-18.42632928
3.67	367	0.055	-1.043	-0.074	-49.7327544	-2.005353	-4.0680018	81.0162612	4.0393539	-18.46070676
3.68	368	0.056	-1.045	-0.08	-50.4775998	-1.5469866	-4.010706	80.500599	4.07373138	-18.48935466
3.69	369	0.058	-1.044	-0.091	-51.56622	-1.3750992	-4.0680018	79.97920722	4.10810886	-18.51227298
3.7	370	0.06	-1.04	-0.1	-52.8840234	-1.3178034	-3.9534102	79.4406267	4.13675676	-18.5351913
3.71	371	0.057	-1.036	-0.111	-54.43101	-1.4896908	-3.9534102	78.88485744	4.17113424	-18.5638392
3.72	372	0.051	-1.032	-0.106	-56.4936588	-1.4896908	-4.010706	78.31189944	4.19978214	-18.5924871
3.73	373	0.044	-1.031	-0.11	-58.8427866	-0.6875496	-4.2398892	77.71029354	4.23415962	-18.61540542
3.74	374	0.047	-1.034	-0.123	-61.592985	-0.1718874	-4.4690724	77.08576932	4.2685371	-18.63259416
3.75	375	0.051	-1.037	-0.133	-63.9421128	0	-4.870143	76.43832678	4.30864416	-18.6497829
3.76	376	0.049	-1.04	-0.135	-66.3485364	-0.572958	-4.9847346	75.76223634	4.34875122	-18.67270122
3.77	377	0.046	-1.043	-0.135	-69.5571012	-0.6875496	-4.9847346	75.057498	4.38885828	-18.69561954
3.78	378	0.052	-1.039	-0.139	-73.052145	-0.1718874	-5.156622	74.3126526	4.42896534	-18.71853786
3.79	379	0.057	-1.036	-0.142	-75.6877518	-0.286479	-5.3285094	73.54488888	4.47480198	-18.74145618
3.8	380	0.063	-1.023	-0.123	-78.0941754	-0.859437	-5.5576926	72.75420684	4.51490904	-18.77583366
3.81	381	0.065	-1.013	-0.119	-80.21412	-1.4896908	-5.72958	71.9348769	4.56074568	-18.81021114
3.82	382	0.07	-1.019	-0.156	-81.8184024	-2.0626488	-5.9014674	71.1040878	4.60085274	-18.85604778
3.83	383	0.076	-1.029	-0.169	-83.365389	-2.4064236	-5.72958	70.25038038	4.63523022	-18.907614
3.84	384	0.085	-1.033	-0.176	-84.8550798	-3.2658606	-5.3285094	69.3852138	4.66387812	-18.9649098
3.85	385	0.102	-1.057	-0.221	-83.7664596	-3.437748	-5.0420304	68.53723596	4.69252602	-19.0222056
3.86	386	0.119	-1.087	-0.253	-84.7404882	-3.8388186	-4.8128472	67.67206938	4.71544434	-19.0795014
3.87	387	0.141	-1.106	-0.287	-87.2042076	-4.5263682	-4.3544808	66.78398448	4.7269035	-19.14825636
3.88	388	0.145	-1.103	-0.344	-88.6366026	-6.3598338	-4.2398892	65.87298126	4.73263308	-19.22847048
3.89	389	0.151	-1.098	-0.356	-85.370742	-8.2505952	-4.4117766	65.0020851	4.7269035	-19.32587334
3.9	390	0.145	-1.08	-0.351	-83.8810512	-10.6570188	-4.2398892	64.1426481	4.71544434	-19.44619452
3.91	391	0.121	-1.046	-0.341	-82.9643184	-10.886202	-4.1825934	63.29467026	4.6982556	-19.57224528
3.92	392	0.094	-1.006	-0.34	-81.7611066	-7.9641162	-4.583664	62.45815158	4.69252602	-19.66964814
3.93	393	0.087	-1.004	-0.437	-79.8703452	-3.8961144	-5.156622	61.63882164	4.71544434	-19.73267352
3.94	394	0.095	-1.042	-0.496	-76.776372	-3.2658606	-4.0680018	60.85959876	4.7269035	-19.78423974
3.95	395	0.097	-1.037	-0.524	-75.8023434	-6.7609044	-2.1772404	60.08610546	4.70398518	-19.85872428
3.96	396	0.093	-0.995	-0.528	-74.48454	-9.2246238	-0.8021412	59.32407132	4.65814854	-19.95039756
3.97	397	0.084	-0.951	-0.54	-72.2500038	-9.453807	-0.6302538	58.5849555	4.60658232	-20.03634126
3.98	398	0.067	-0.916	-0.546	-69.7289886	-8.59437	-1.8334656	57.868758	4.57220484	-20.12801454
3.99	399	0.05	-0.902	-0.553	-66.6350154	-6.875496	-3.6096354	57.18693798	4.56074568	-20.20822866
4	400	0.05	-0.912	-0.575	-63.5410422	-4.7555514	-4.9274388	56.53949544	4.56647526	-20.27698362
4.01	401	0.066	-0.937	-0.588	-61.306506	-3.724227	-5.156622	55.90924164	4.57793442	-20.340009
4.02	402	0.081	-0.951	-0.607	-60.5043648	-3.437748	-3.9534102	55.290447	4.583664	-20.3973048
4.03	403	0.09	-0.944	-0.618	-60.447069	-3.3804522	-2.5210152	54.67738194	4.57793442	-20.44314144
4.04	404	0.093	-0.926	-0.636	-60.16059	-3.3804522	-1.6042824	54.06431688	4.56647526	-20.4832485
4.05	405	0.088	-0.901	-0.649	-59.1865614	-3.0939732	-1.432395	53.4569814	4.5550161	-20.51762598
4.06	406	0.075	-0.872	-0.665	-57.9260538	-2.8074942	-1.8907614	52.86683466	4.54355694	-20.55200346
4.07	407	0.056	-0.852	-0.668	-56.7801378	-2.8074942	-2.3491278	52.28814708	4.53782736	-20.59211052
4.08	408	0.049	-0.836	-0.677	-56.4936588	-2.5210152	-2.4637194	51.7094595	4.53782736	-20.63221758
4.09	409	0.052	-0.828	-0.672	-55.1185596	-2.3491278	-2.2345362	51.14796066	4.53209778	-20.66659506
4.1	410	0.064	-0.83	-0.679	-53.571573	-1.6615782	-1.2032118	50.60365056	4.5263682	-20.68951338
4.11	411	0.071	-0.832	-0.688	-52.3683612	-0.859437	-0.4583664	50.07079962	4.51490904	-20.70097254
4.12	412	0.077	-0.824	-0.692	-50.8786704	-0.7448454	0.0572958	49.54940784	4.50344988	-20.7124317
4.13	413	0.072	-0.81	-0.69	-49.7327544	-0.8021412	0.1718874	49.0452048	4.48626114	-20.71816128
4.14	414	0.068	-0.795	-0.684	-48.3576552	-0.572958	0.1145916	48.55246092	4.47480198	-20.72389086
4.15	415	0.063	-0.782	-0.682	-47.1544434	-0.3437748	0	48.07690578	4.4690724	-20.72389086
4.16	416	0.058	-0.772	-0.683	-46.2950064	0.286479	0	47.60708022	4.46334282	-20.72389086
4.17	417	0.054	-0.76	-0.685	-45.2063862	0.859437	0.1718874	47.14871382	4.46334282	-20.71816128
4.18	418	0.055	-0.753	-0.683	-43.6593996	2.005353	0.8021412	46.70180658	4.46334282	-20.70097254
4.19	419	0.05	-0.739	-0.68	-41.9405256	2.4064236	1.6042824	46.27781766	4.46334282	-20.67232464
4.2	420	0.045	-0.726	-0.677	-40.393539	3.151269	2.2345362	45.87101748	4.45761324	-20.63221758
4.21	421	0.042	-0.709	-0.671	-38.9038482	3.8961144	2.7501984	45.48140604	4.45761324	-20.58638094
4.22	422	0.04	-0.692	-0.67	-37.4141574	4.4690724	3.0366774	45.10325376	4.46334282	-20.53481472
4.23	423	0.044	-0.681	-0.661	-35.9817624	4.9274388	3.151269	44.74229022	4.4690724	-20.47751892
4.24	424	0.049	-0.668	-0.657	-34.950438	5.443101	3.0939732	44.39278584	4.48053156	-20.41449354
4.25	425	0.056	-0.658	-0.648	-33.5753388	5.7868758	3.0366774	44.05474062	4.49199072	-20.35146816
4.26	426	0.065	-0.649	-0.644	-31.799169	5.9014674	2.9220858	43.73388414	4.50917946	-20.28844278
4.27	427	0.069	-0.64	-0.643	-30.3094782	5.9587632	2.7501984	43.4302164	4.5263682	-20.23114698
4.28	428	0.072	-0.633	-0.641	-28.8197874	6.0733548	2.6929026	43.1437374	4.54928652	-20.1681216
4.29	429	0.068	-0.625	-0.644	-27.6165756	6.5317212	2.4064236	42.86871756	4.57220484	-20.10509622
4.3	430	0.071	-0.616	-0.642	-26.356068	7.1046792	1.8907614	42.5994273	4.60658232	-20.04207084
4.31	431	0.072	-0.61	-0.654	-25.3247436	7.5057498	1.3750992	42.34732578	4.64668938	-19.97904546
4.32	432	0.072	-0.607	-0.655	-24.1215318	7.3338624	1.0313244	42.10668342	4.68679644	-19.92174966
4.33	433	0.073	-0.608	-0.66	-23.0329116	6.7609044	0.8021412	41.87750022	4.7269035	-19.87018344
4.34	434	0.078	-0.613	-0.655	-21.7151082	5.6722842	0.572958	41.65977618	4.76128098	-19.83007638
4.35	435	0.085	-0.616	-0.65	-20.8556712	4.8128472	0.4583664	41.4535113	4.79565846	-19.78996932
4.36	436	0.093	-0.618	-0.647	-20.1681216	4.1252976	0.4010706	41.24724642	4.81857678	-19.76132142
4.37	437	0.102	-0.618	-0.645	-19.7097552	3.5523396	0.2291832	41.0524407	4.8414951	-19.73267352
4.38	438	0.105	-0.616	-0.648	-19.2513888	3.5523396	-0.1145916	40.85763498	4.86441342	-19.7097552
4.39	439	0.107	-0.617	-0.654	-18.8503182	3.8388186	-0.5156622	40.66282926	4.89306132	-19.69256646
4.4	440	0.104	-0.618	-0.66	-18.334656	3.6669312	-1.0313244	40.4794827	4.9274388	-19.67537772
4.41	441	0.099	-0.629	-0.668	-17.9908812	3.151269	-1.718874	40.30186572	4.96181628	-19.66964814
4.42	442	0.095	-0.637	-0.67	-17.8189938	3.0366774	-2.5210152	40.11851916	4.99619376	-19.66391856
4.43	443	0.091	-0.644	-0.669	-17.5898106	2.4064236	-2.9220858	39.94090218	5.03057124	-19.67537772
4.44	444	0.086	-0.65	-0.666	-17.8762896	2.1199446	-3.3231564	39.75755562	5.06494872	-19.68683688
4.45	445	0.087	-0.655	-0.667	-18.1627686	2.291832	-3.437748	39.57993864	5.10505578	-19.69829604
4.46	446	0.089	-0.657	-0.664	-18.5638392	2.291832	-3.437748	39.3908625	5.13943326	-19.7097552
4.47	447	0.088	-0.657	-0.656	-18.907614	2.1772404	-3.2085648	39.19605678	5.17381074	-19.72121436
4.48	448	0.09	-0.655	-0.661	-19.2513888	1.9480572	-2.8074942	38.99552148	5.20245864	-19.72694394
4.49	449	0.094	-0.658	-0.658	-19.4232762	1.718874	-2.578311	38.80071576	5.23110654	-19.7384031
4.5	450	0.094	-0.662	-0.661	-20.1681216	1.145916	-2.3491278	38.60591004	5.25402486	-19.74413268
4.51	451	0.095	-0.661	-0.658	-20.8556712	1.145916	-2.5210152	38.39391558	5.27694318	-19.76132142
4.52	452	0.094	-0.651	-0.653	-21.3713334	0.9740286	-2.7501984	38.17619154	5.29413192	-19.77278058
4.53	453	0.095	-0.644	-0.653	-21.6005166	0.859437	-2.8074942	37.95273792	5.31705024	-19.78996932
4.54	454	0.096	-0.64	-0.657	-21.7151082	0.859437	-2.6929026	37.7292843	5.33996856	-19.80715806
4.55	455	0.092	-0.637	-0.654	-22.058883	0.286479	-2.4637194	37.51728984	5.35142772	-19.8243468
4.56	456	0.088	-0.631	-0.657	-22.4026578	0	-2.0626488	37.28810664	5.36288688	-19.84153554
4.57	457	0.084	-0.626	-0.654	-22.5745452	-0.1718874	-1.6615782	37.05892344	5.36861646	-19.85872428
4.58	458	0.083	-0.622	-0.659	-22.5745452	0.1145916	-1.6615782	36.82974024	5.37434604	-19.87018344
4.59	459	0.086	-0.618	-0.661	-22.5745452	0.3437748	-1.4896908	36.59482746	5.3858052	-19.87591302
4.6	460	0.085	-0.615	-0.654	-22.2880662	0.1145916	-1.4896908	36.382833	5.39153478	-19.88737218
4.61	461	0.087	-0.611	-0.651	-21.8869956	0	-1.3750992	36.15937938	5.39726436	-19.89883134
4.62	462	0.09	-0.605	-0.651	-21.5432208	0.0572958	-1.3178034	35.93592576	5.40299394	-19.9102905
4.63	463	0.092	-0.599	-0.652	-20.912967	-0.0572958	-1.3178034	35.7239313	5.40872352	-19.92174966
4.64	464	0.096	-0.59	-0.648	-20.05353	-0.286479	-1.2032118	35.51766642	5.40872352	-19.93320882
4.65	465	0.098	-0.582	-0.639	-19.0222056	-0.286479	-0.9740286	35.34004944	5.4144531	-19.94466798
4.66	466	0.1	-0.576	-0.64	-18.334656	0.2291832	-1.0313244	35.1509733	5.42018268	-19.95039756
4.67	467	0.104	-0.572	-0.645	-17.18874	0.3437748	-1.0313244	34.9790859	5.42591226	-19.95612714
4.68	468	0.103	-0.571	-0.645	-16.042824	0.3437748	-1.145916	34.81292808	5.43164184	-19.96185672
4.69	469	0.106	-0.571	-0.646	-15.0687954	0.859437	-1.3750992	34.65822942	5.443101	-19.9675863
4.7	470	0.102	-0.57	-0.653	-13.8655836	0.9740286	-1.6615782	34.53217866	5.46601932	-19.97331588
4.71	471	0.096	-0.566	-0.656	-12.605076	0.7448454	-1.8907614	34.40039832	5.47747848	-19.98477504
4.72	472	0.091	-0.561	-0.66	-11.3445684	0.9167328	-1.9480572	34.28580672	5.49466722	-19.9962342
4.73	473	0.085	-0.561	-0.673	-10.3705398	1.4896908	-2.0626488	34.1769447	5.51758554	-20.00769336
4.74	474	0.08	-0.562	-0.671	-8.6516658	2.5210152	-2.1199446	34.091001	5.55196302	-20.00769336
4.75	475	0.077	-0.563	-0.67	-7.734933	3.151269	-2.291832	34.02797562	5.5863405	-20.00769336
4.76	476	0.074	-0.564	-0.669	-6.3598338	3.724227	-2.2345362	33.95922066	5.62644756	-20.00769336
4.77	477	0.074	-0.567	-0.662	-4.6982556	4.010706	-1.8907614	33.91338402	5.6722842	-19.9962342
4.78	478	0.074	-0.571	-0.661	-3.0939732	4.0680018	-1.432395	33.88473612	5.71239126	-19.98477504
4.79	479	0.08	-0.573	-0.659	-1.3178034	4.010706	-1.145916	33.86754738	5.74676874	-19.97331588
4.8	480	0.088	-0.577	-0.65	0.859437	4.0680018	-1.0313244	33.90765444	5.7868758	-19.95612714
4.81	481	0.098	-0.582	-0.631	3.6096354	3.6669312	-1.0886202	33.9477615	5.82698286	-19.94466798
4.82	482	0.109	-0.587	-0.614	6.302538	2.3491278	-1.3178034	34.01078688	5.84990118	-19.9389384
4.83	483	0.125	-0.593	-0.599	8.2505952	2.0626488	-1.6615782	34.09673058	5.87854908	-19.94466798
4.84	484	0.14	-0.6	-0.597	10.1986524	1.8334656	-2.0626488	34.19986302	5.90719698	-19.95039756
4.85	485	0.149	-0.613	-0.585	12.6623718	1.145916	-2.4064236	34.35456168	5.94157446	-19.96185672
4.86	486	0.148	-0.631	-0.569	14.3812458	0.6302538	-2.8074942	34.49780118	5.96449278	-19.97904546
4.87	487	0.144	-0.64	-0.566	15.8136408	0.3437748	-3.0939732	34.65822942	5.9874111	-20.00196378
4.88	488	0.136	-0.641	-0.555	17.8189938	-0.286479	-3.2658606	34.8358464	6.01032942	-20.03061168
4.89	489	0.122	-0.644	-0.542	19.767051	-0.8021412	-3.4950438	35.03065212	6.02178858	-20.06498916
4.9	490	0.109	-0.653	-0.536	21.6578124	-0.6302538	-3.4950438	35.27702406	6.0447069	-20.09363706
4.91	491	0.101	-0.666	-0.527	23.0329116	-0.9740286	-3.2085648	35.50620726	6.06189564	-20.12801454
4.92	492	0.098	-0.681	-0.515	23.8923486	-1.3750992	-2.6929026	35.74684962	6.06762522	-20.15666244
4.93	493	0.095	-0.688	-0.506	24.7517856	-1.8334656	-2.1199446	35.99322156	6.06762522	-20.18531034
4.94	494	0.099	-0.683	-0.481	25.6112226	-2.2345362	-1.3178034	36.25105266	6.06189564	-20.20822866
4.95	495	0.099	-0.672	-0.462	26.929026	-3.0939732	-0.4010706	36.54899082	6.0447069	-20.23114698
4.96	496	0.096	-0.664	-0.432	29.0489706	-4.0680018	0.1718874	36.84692898	6.016059	-20.2540653
4.97	497	0.091	-0.662	-0.378	31.226211	-4.870143	0.8021412	37.16205588	5.97595194	-20.27698362
4.98	498	0.084	-0.657	-0.333	32.0283522	-5.72958	1.0886202	37.48291236	5.9301153	-20.30563152
4.99	499	0.076	-0.639	-0.292	32.6013102	-6.4744254	1.3750992	37.815228	5.87854908	-20.33427942
5	500	0.07	-0.613	-0.255	33.3461556	-6.8182002	1.7761698	38.17046196	5.82125328	-20.36292732
5.01	501	0.061	-0.576	-0.211	34.2628884	-7.734933	2.6356068	38.51423676	5.75249832	-20.38584564
5.02	502	0.046	-0.539	-0.171	36.096354	-7.6776372	3.724227	38.88092988	5.6722842	-20.40876396
5.03	503	0.03	-0.511	-0.124	39.1330314	-7.3911582	4.6982556	39.2762709	5.59207008	-20.42022312
5.04	504	0.019	-0.492	-0.076	42.5134836	-7.1046792	5.6149884	39.71171898	5.51185596	-20.42022312
5.05	505	0.012	-0.468	-0.05	45.3209778	-8.0787078	6.5317212	40.18727412	5.4144531	-20.4259527
5.06	506	0.003	-0.446	-0.008	49.6754586	-9.167328	7.1046792	40.69147716	5.30559108	-20.43168228
5.07	507	-0.004	-0.414	0.032	53.5142772	-9.2246238	7.0473834	41.23578726	5.20245864	-20.43741186
5.08	508	-0.012	-0.382	0.067	55.6342218	-6.5317212	5.3858052	41.80301568	5.1279741	-20.44314144
5.09	509	-0.03	-0.346	0.125	55.2331512	-1.8334656	3.2085648	42.36451452	5.0993262	-20.43168228
5.1	510	-0.05	-0.3	0.16	54.3737142	1.0313244	0.7448454	42.93174294	5.10505578	-20.41449354
5.11	511	-0.058	-0.251	0.206	55.5196302	3.4950438	-1.432395	43.49324178	5.15089242	-20.3973048
5.12	512	-0.066	-0.197	0.243	55.6915176	7.3338624	-3.151269	44.0604702	5.23110654	-20.3686569
5.13	513	-0.046	-0.151	0.224	54.2018268	7.5057498	-4.010706	44.61050988	5.31705024	-20.340009
5.14	514	-0.001	-0.156	0.022	52.3110654	5.6722842	-3.724227	45.14336082	5.39153478	-20.32854984
5.15	515	0.057	-0.235	-0.251	50.420304	3.6669312	-3.5523396	45.65329344	5.44883058	-20.32282026
5.16	516	0.14	-0.422	-0.536	44.8626114	4.6982556	-3.3804522	46.10593026	5.51185596	-20.3113611
5.17	517	0.196	-0.738	-0.853	32.7731976	6.6463128	-0.4010706	46.44397548	5.56342218	-20.26552446
5.18	518	0.292	-1.174	-1.074	8.021412	-0.5156622	2.3491278	46.52991918	5.54050386	-20.2540653
5.19	519	0.38	-1.728	-1.226	-29.9657034	-13.5791046	4.6409598	46.22052186	5.4144531	-20.32282026
5.2	520	0.447	-2.414	-1.305	-81.9902898	-26.8717302	4.8128472	45.37254402	5.19099948	-20.48897808
5.21	521	0.388	-2.788	-1.38	-138.5412444	-34.663959	0	43.95160818	4.93316838	-20.7410796
5.22	522	0.211	-2.153	-1.49	-183.919518	-36.6120162	-5.2139178	42.06657636	4.68679644	-21.03901776
5.23	523	0.103	-1.614	-1.413	-184.8935466	-44.690724	-3.3804522	40.17008538	4.36021038	-21.36560382
5.24	524	0.087	-1.422	-1.235	-179.622333	-49.7900502	-2.005353	38.32516062	3.97059894	-21.70364904
5.25	525	0.102	-1.335	-1.03	-179.4504456	-47.6128098	-2.4637194	36.4974246	3.59817624	-22.02450552
5.26	526	0.088	-1.233	-0.861	-178.8774876	-43.1437374	-3.0366774	34.66968858	3.24867186	-22.30525494
5.27	527	0.114	-1.188	-0.722	-177.903459	-43.0291458	-5.6722842	32.85341172	2.91062664	-22.59746352
5.28	528	0.118	-1.086	-0.545	-176.1272892	-47.2117392	-10.4278356	31.0543236	2.5496631	-22.9469679
5.29	529	0.117	-0.919	-0.356	-172.2311748	-46.9252602	-15.1260912	29.29534254	2.2058883	-23.3193906
5.3	530	0.13	-0.741	-0.204	-170.3977092	-47.1544434	-21.9442914	27.57073896	1.88503182	-23.73764994
5.31	531	0.149	-0.586	-0.007	-170.168526	-46.5814854	-33.6326346	25.83467622	1.61001198	-24.25331214
5.32	532	0.123	-0.466	0.185	-170.8560756	-43.7739912	-43.4875122	24.0928839	1.38082878	-24.83199972
5.33	533	0.142	-0.473	0.392	-164.3243544	-39.3622146	-52.8840234	22.41411696	1.21467096	-25.47371268
5.34	534	0.059	-0.255	0.576	-176.9294304	-36.8984952	-53.3423898	20.60929926	1.04851314	-26.10396648
5.35	535	0.056	0.013	0.556	-179.5077414	-43.9458786	-52.0818822	18.78156324	0.79641162	-26.73994986
5.36	536	-0.003	0.156	0.569	-168.6215394	-57.9260538	-40.0497642	17.0741484	0.36096354	-27.30717828
5.37	537	-0.28	0.55	0.348	-172.9760202	-64.9734372	-7.5057498	15.3266265	-0.24637194	-27.56500938
5.38	538	-0.606	0.978	-0.182	-179.5077414	-37.9298196	25.5539268	13.50462006	-0.69327918	-27.4160403
5.39	539	-0.766	1.199	-0.439	-165.011904	-7.1046792	45.2063862	11.82585312	-0.88235532	-26.9863218
5.4	540	-0.534	1.237	-0.429	-133.212735	0.0572958	43.8885828	10.44502434	-0.99121734	-26.55087372
5.41	541	-0.203	1.208	-0.49	-104.9086098	-6.7609044	31.2835068	9.37932246	-1.12872726	-26.25293556
5.42	542	0.113	1.28	-0.745	-73.1094408	-29.507337	23.777757	8.63447706	-1.4610429	-26.06385942
5.43	543	0.292	1.22	-1.059	-27.501984	-58.9000824	23.0329116	8.35945722	-2.07410796	-25.93780866
5.44	544	0.295	1.147	-1.089	-4.5263682	-72.1354122	29.9657034	8.31935016	-2.81895336	-25.76592126
5.45	545	0.182	1.022	-0.786	-6.875496	-62.8534926	36.4401288	8.19902898	-3.47785506	-25.51381974
5.46	546	0.006	0.778	-0.635	-5.5576926	-31.1116194	36.955791	8.13027402	-3.8388186	-25.19869284
5.47	547	-0.231	0.586	-0.909	0.2291832	-20.9702628	29.1635622	8.11881486	-4.08519054	-24.94659132
5.48	548	0.342	0.388	-1.378	7.6203414	-36.669312	16.2147114	8.1932994	-4.46334282	-24.84918846
5.49	549	0.142	0.022	-2.267	-28.7624916	-78.6098376	15.5844576	7.91254998	-5.25402486	-24.82627014
5.5	550	-0.694	-0.23	-3.938	-102.273003	-87.376095	43.1437374	6.85257768	-6.17648724	-24.52833198
5.51	551	-1.588	0.012	-3.996	-117.5136858	-31.5699858	42.1697088	5.62071798	-6.54890994	-24.14445012
5.52	552	-1.164	0.693	-3.996	-205.118964	7.5057498	33.9191136	3.50077338	-6.52599162	-23.78348658
5.53	553	-1.059	1.04	-3.821	-147.536685	15.6417534	27.5592798	1.96524594	-6.40567044	-23.48554842
5.54	554	-0.346	0.89	-2.289	-106.1691174	-8.021412	7.7922288	0.88235532	-6.49734372	-23.4053343
5.55	555	-0.376	0.807	-2.126	-76.6617804	23.8923486	-5.3858052	0.10313244	-6.26816052	-23.44544136
5.56	556	-0.198	0.962	-2.735	-71.5051584	67.7236356	-14.1520626	-0.61306506	-5.60925882	-23.56576254
5.57	557	-0.249	0.837	-1.779	-63.4837464	34.8358464	-15.9282324	-1.24904844	-5.2712136	-23.71473162
5.58	558	-0.233	0.692	-1.024	-73.2813282	5.5576926	-11.45916	-1.98243468	-5.23110654	-23.82359364
5.59	559	-0.237	0.667	-0.666	-42.2843004	-4.7555514	1.718874	-2.41215318	-5.27694318	-23.80067532
5.6	560	-0.202	0.506	-0.389	-1.0886202	-8.4224826	10.4851314	-2.46944898	-5.37434604	-23.6918133
5.61	561	-0.287	0.403	-0.371	13.2353298	0.286479	5.7868758	-2.33766864	-5.36861646	-23.6345175
5.62	562	-0.229	0.339	-0.308	24.7517856	16.615782	-1.145916	-2.0912967	-5.20245864	-23.65170624
5.63	563	-0.14	0.317	-0.296	24.064236	11.4018642	-0.3437748	-1.84492476	-5.08786704	-23.65743582
5.64	564	-0.039	0.324	-0.358	17.2460358	6.1306506	0.1145916	-1.67303736	-5.02484166	-23.65743582
5.65	565	0.082	0.338	-0.411	5.72958	7.8495246	-1.718874	-1.63865988	-4.93316838	-23.67462456
5.66	566	0.145	0.315	-0.427	-6.7036086	12.4904844	-3.3231564	-1.70741484	-4.8128472	-23.70327246
5.67	567	0.144	0.283	-0.436	-11.4018642	15.0114996	-4.1825934	-1.82200644	-4.66387812	-23.7491091
5.68	568	0.067	0.236	-0.475	-10.1986524	12.2040054	-3.151269	-1.92513888	-4.54355694	-23.777757
5.69	569	-0.063	0.216	-0.573	-7.8495246	10.0840608	-0.1145916	-2.005353	-4.44615408	-23.777757
5.7	570	-0.136	0.266	-0.7	-3.0366774	12.2613012	1.718874	-2.0912967	-4.34302164	-23.76056826
5.71	571	-0.178	0.321	-0.797	1.6615782	15.2406828	0.8021412	-2.07983754	-4.19405256	-23.7491091
5.72	572	-0.18	0.337	-0.851	5.0420304	17.8189938	-1.0313244	-2.02827132	-4.01643558	-23.76629784
5.73	573	-0.166	0.307	-0.886	7.6776372	20.05353	-2.4064236	-1.9480572	-3.82162986	-23.78921616
5.74	574	-0.148	0.256	-0.93	8.7089616	23.8923486	-3.2085648	-1.8621135	-3.5809875	-23.82359364
5.75	575	-0.122	0.186	-1.003	9.5683986	29.1635622	-3.724227	-1.78189938	-3.30023808	-23.8637007
5.76	576	-0.072	0.114	-1.121	10.8289062	35.1796212	-3.6096354	-1.67876694	-2.9507337	-23.90380776
5.77	577	-0.052	0.047	-1.237	12.4904844	39.4768062	-1.145916	-1.55271618	-2.56112226	-23.91526692
5.78	578	-0.012	0	-1.299	14.3812458	38.388186	1.5469866	-1.41520626	-2.18296998	-23.89807818
5.79	579	-0.033	-0.016	-1.304	13.1207382	35.236917	3.2085648	-1.28342592	-1.82773602	-23.8637007
5.8	580	-0.04	-0.027	-1.265	9.5683986	32.945085	3.9534102	-1.19175264	-1.50114996	-23.82359364
5.81	581	-0.004	-0.043	-1.228	5.2139178	28.9916748	4.870143	-1.145916	-1.21467096	-23.777757
5.82	582	0.002	-0.087	-1.145	2.1772404	24.9809688	5.6722842	-1.12872726	-0.96256944	-23.71473162
5.83	583	0.037	-0.109	-1.087	-2.6356068	21.3140376	7.0473834	-1.15737516	-0.75057498	-23.64597666
5.84	584	0.069	-0.129	-1.044	-5.3285094	17.2460358	8.1360036	-1.21467096	-0.57868758	-23.56003296
5.85	585	0.106	-0.139	-1.01	-7.6203414	12.8342592	8.4797784	-1.26623718	-0.42398892	-23.47981884
5.86	586	0.123	-0.145	-0.981	-8.3651868	7.3911582	7.8495246	-1.35218088	-0.34950438	-23.39960472
5.87	587	0.097	-0.143	-0.97	-7.7922288	4.010706	7.448454	-1.432395	-0.30939732	-23.32512018
5.88	588	0.048	-0.127	-0.964	-7.448454	2.6356068	7.5057498	-1.50687954	-0.286479	-23.24490606
5.89	589	-0.008	-0.09	-0.956	-6.7609044	3.2658606	7.6776372	-1.5756345	-0.25210152	-23.17042152
5.9	590	-0.065	-0.032	-0.933	-5.443101	5.5576926	8.4224826	-1.62720072	-0.21772404	-23.08447782
5.91	591	-0.099	0.034	-0.907	-2.8074942	9.3965112	9.6829902	-1.6615782	-0.12032118	-22.98707496
5.92	592	-0.147	0.099	-0.884	-0.6302538	14.4385416	10.6570188	-1.66730778	0.01718874	-22.88394252
5.93	593	-0.128	0.154	-0.864	2.578311	17.8762896	11.2299768	-1.64438946	0.2005353	-22.76935092
5.94	594	-0.1	0.181	-0.861	6.302538	19.194093	10.8289062	-1.58136408	0.38961144	-22.66621848
5.95	595	-0.054	0.166	-0.876	11.0580894	19.3086846	9.2246238	-1.4896908	0.57868758	-22.5745452
5.96	596	-0.007	0.12	-0.91	15.183387	20.1681216	6.589017	-1.34072172	0.78495246	-22.51151982
5.97	597	0.034	0.054	-0.955	17.9335854	21.5432208	3.5523396	-1.15737516	0.99694692	-22.47141276
5.98	598	0.071	-0.013	-0.982	19.5951636	22.1734746	0.6875496	-0.96256944	1.22040054	-22.46568318
5.99	599	0.093	-0.088	-1.002	20.1681216	21.6005166	-1.6615782	-0.76203414	1.43812458	-22.48287192
6	600	0.102	-0.162	-1.029	19.0222056	20.7983754	-3.0939732	-0.55003968	1.65011904	-22.51151982
6.01	601	0.1	-0.222	-1.068	14.8396122	20.05353	-3.5523396	-0.4010706	1.85065434	-22.5458973
6.02	602	0.091	-0.242	-1.095	10.7143146	19.3659804	-2.9220858	-0.29793816	2.04546006	-22.56881562
6.03	603	0.096	-0.234	-1.115	7.5057498	18.7357266	-2.3491278	-0.22345362	2.22880662	-22.59173394
6.04	604	0.106	-0.201	-1.12	5.0993262	17.1314442	-1.5469866	-0.17761698	2.40069402	-22.6031931
6.05	605	0.111	-0.155	-1.11	3.724227	14.896908	-0.572958	-0.1145916	2.56112226	-22.6031931
6.06	606	0.114	-0.101	-1.08	2.3491278	12.8342592	0.6875496	-0.09167328	2.68717302	-22.59173394
6.07	607	0.113	-0.043	-1.041	1.0313244	10.886202	2.0626488	-0.08021412	2.79603504	-22.56881562
6.08	608	0.107	0.011	-0.993	0.4010706	8.1932994	3.3231564	-0.07448454	2.87624916	-22.53443814
6.09	609	0.093	0.061	-0.948	0.6302538	4.870143	4.0680018	-0.06875496	2.92781538	-22.49433108
6.1	610	0.079	0.091	-0.921	1.8334656	1.9480572	3.9534102	-0.12032118	2.95646328	-22.4599536
6.11	611	0.067	0.1	-0.909	2.9220858	0.6875496	3.0366774	-0.09167328	2.96219286	-22.42557612
6.12	612	0.059	0.096	-0.903	3.6096354	0.0572958	1.718874	-0.05156622	2.96792244	-22.40838738
6.13	613	0.055	0.086	-0.909	4.010706	-0.0572958	0.1145916	-0.01145916	2.96219286	-22.40838738
6.14	614	0.058	0.069	-0.927	4.3544808	0.2291832	-1.145916	0.0286479	2.96792244	-22.41984654
6.15	615	0.065	0.041	-0.944	4.6982556	0.9740286	-2.1772404	0.04010706	2.98511118	-22.44276486
6.16	616	0.071	0.016	-0.961	4.6982556	1.5469866	-2.9220858	0.0859437	3.00229992	-22.47714234
6.17	617	0.08	-0.003	-0.976	4.3544808	1.8334656	-3.724227	0.12605076	3.01948866	-22.51151982
6.18	618	0.087	-0.02	-0.989	3.6669312	2.1772404	-4.6982556	0.16042824	3.04240698	-22.55735646
6.19	619	0.09	-0.028	-0.999	3.151269	2.291832	-5.0420304	0.18907614	3.0653253	-22.60892268
6.2	620	0.093	-0.027	-1.006	2.1199446	1.718874	-4.9847346	0.21199446	3.10543236	-22.6604889
6.21	621	0.099	-0.024	-1.01	1.5469866	0.6302538	-4.6409598	0.22345362	3.11689152	-22.70632554
6.22	622	0.101	-0.021	-1.01	1.3750992	-0.4583664	-4.1252976	0.23491278	3.11116194	-22.7464326
6.23	623	0.1	-0.017	-1.01	1.6042824	-1.3750992	-3.6669312	0.25210152	3.09970278	-22.78081008
6.24	624	0.094	-0.015	-1.007	2.0626488	-2.3491278	-3.437748	0.26929026	3.07678446	-22.82091714
6.25	625	0.089	-0.012	-1.004	2.291832	-2.9793816	-3.437748	0.286479	3.05959572	-22.85529462
6.26	626	0.079	-0.009	-0.995	2.1199446	-3.3804522	-3.5523396	0.30366774	3.02521824	-22.8896721
6.27	627	0.071	-0.006	-0.991	1.8907614	-3.6096354	-3.4950438	0.32085648	2.99084076	-22.92977916
6.28	628	0.063	-0.005	-0.987	1.6615782	-3.6669312	-3.3231564	0.33804522	2.95646328	-22.96415664
6.29	629	0.056	-0.006	-0.984	1.4896908	-4.0680018	-2.9220858	0.34950438	2.91635622	-22.99280454
6.3	630	0.047	-0.013	-0.985	1.6615782	-4.9274388	-2.4064236	0.36096354	2.85906042	-23.02145244
6.31	631	0.04	-0.02	-0.988	2.1772404	-5.9014674	-1.7761698	0.38388186	2.80176462	-23.03864118
6.32	632	0.031	-0.031	-0.992	2.6356068	-6.7036086	-1.3178034	0.41252976	2.73300966	-23.05582992
6.33	633	0.023	-0.041	-0.994	2.8074942	-7.1046792	-1.145916	0.44117766	2.6642547	-23.07301866
6.34	634	0.018	-0.046	-0.994	2.8074942	-7.0473834	-0.9740286	0.46982556	2.59549974	-23.08447782
6.35	635	0.013	-0.048	-0.992	2.578311	-6.8182002	-1.0886202	0.50420304	2.50382646	-23.09593698
6.36	636	0.009	-0.049	-0.987	2.1772404	-6.5317212	-1.0886202	0.52712136	2.44080108	-23.10739614
6.37	637	0.009	-0.048	-0.984	1.6615782	-5.9014674	-1.2605076	0.5443101	2.38350528	-23.12458488
6.38	638	0.007	-0.046	-0.981	1.0313244	-4.9274388	-1.3750992	0.55576926	2.33193906	-23.14177362
6.39	639	0.005	-0.043	-0.979	0.572958	-3.8388186	-1.432395	0.56149884	2.29756158	-23.15896236
6.4	640	0.006	-0.036	-0.977	0.1145916	-2.8074942	-1.432395	0.56722842	2.21161788	-23.17042152
6.41	641	0.007	-0.028	-0.977	-0.1145916	-1.7761698	-1.3178034	0.56722842	2.19442914	-23.18188068
6.42	642	0.011	-0.024	-0.978	-0.4583664	-0.6875496	-1.0313244	0.56149884	2.18296998	-23.19333984
6.43	643	0.012	-0.02	-0.979	-0.8021412	0.0572958	-0.9740286	0.55003968	2.18296998	-23.204799
6.44	644	0.016	-0.015	-0.98	-1.0886202	0.9740286	-0.7448454	0.53858052	2.19442914	-23.21052858
6.45	645	0.019	-0.01	-0.98	-1.2605076	1.4896908	-0.5156622	0.49274388	2.16578124	-23.21625816
6.46	646	0.02	-0.005	-0.98	-1.2032118	1.7761698	-0.2291832	0.48128472	2.18296998	-23.22198774
6.47	647	0.021	-0.003	-0.984	-1.0313244	1.718874	0.0572958	0.46982556	2.20015872	-23.21625816
6.48	648	0.022	-0.001	-0.989	-0.9167328	1.5469866	0.1718874	0.4583664	2.21734746	-23.21625816
6.49	649	0.024	0	-0.993	-0.6875496	1.2032118	0.286479	0.45263682	2.22880662	-23.21052858
6.5	650	0.027	0	-0.996	-0.286479	0.859437	0.2291832	0.32658606	2.16578124	-23.21052858
6.51	651	0.031	-0.001	-0.998	-0.0572958	0.6875496	0.2291832	0.32658606	2.17151082	-23.21052858
6.52	652	0.033	-0.003	-0.998	0	0.7448454	0.2291832	0.32658606	2.1772404	-23.204799
6.53	653	0.037	-0.005	-0.998	-0.0572958	1.0313244	0.1718874	0.32658606	2.18869956	-23.204799
6.54	654	0.041	-0.006	-0.994	-0.1145916	1.4896908	0.1145916	0.32658606	2.2058883	-23.19906942
6.55	655	0.044	-0.005	-0.991	-0.286479	1.8907614	0.2291832	0.27501984	2.22307704	-23.19906942
6.56	656	0.048	-0.005	-0.99	-0.4010706	2.1772404	0.4010706	0.27501984	2.24599536	-23.19333984
6.57	657	0.052	-0.006	-0.988	-0.572958	2.4064236	0.6302538	0.26929026	2.26891368	-23.18761026
6.58	658	0.055	-0.006	-0.988	-0.572958	2.5210152	0.7448454	0.26356068	2.29756158	-23.1761511
6.59	659	0.058	-0.006	-0.986	-0.5156622	2.4637194	0.8021412	0.2578311	2.3204799	-23.17042152
6.6	660	0.058	-0.008	-0.987	-0.5156622	2.4064236	0.859437	0.22345362	2.36058696	-23.15896236
6.61	661	0.06	-0.009	-0.989	-0.572958	2.4064236	0.8021412	0.21772404	2.38350528	-23.15323278
6.62	662	0.06	-0.011	-0.988	-0.6875496	2.3491278	0.6875496	0.21199446	2.41215318	-23.14177362
6.63	663	0.057	-0.013	-0.991	-0.859437	2.2345362	0.572958	0.2005353	2.42934192	-23.13604404
6.64	664	0.06	-0.014	-0.99	-1.0886202	2.2345362	0.5156622	0.18907614	2.45226024	-23.13031446
6.65	665	0.061	-0.015	-0.989	-1.2032118	2.291832	0.572958	0.16615782	2.4923673	-23.12458488
6.66	666	0.061	-0.014	-0.991	-1.3178034	2.0626488	0.6875496	0.15469866	2.51528562	-23.1188553
6.67	667	0.057	-0.012	-0.992	-1.2032118	1.9480572	0.6875496	0.13750992	2.53247436	-23.10739614
6.68	668	0.053	-0.012	-0.994	-0.9167328	1.4896908	0.8021412	0.13178034	2.54393352	-23.10166656
6.69	669	0.048	-0.013	-0.998	-0.859437	1.3178034	0.7448454	0.12032118	2.56112226	-23.0902074
6.7	670	0.043	-0.016	-0.997	-0.6302538	1.0886202	0.6302538	0.09740286	2.5496631	-23.08447782
6.71	671	0.04	-0.019	-0.996	-0.5156622	0.9740286	0.4583664	0.09167328	2.55539268	-23.07874824
6.72	672	0.038	-0.021	-0.995	-0.5156622	0.9167328	0.3437748	0.0859437	2.56685184	-23.07874824
6.73	673	0.036	-0.022	-0.997	-0.6875496	0.9167328	0.1718874	0.08021412	2.578311	-23.07301866
6.74	674	0.037	-0.019	-0.996	-0.859437	0.859437	0.1718874	0.06875496	2.58404058	-23.07301866
6.75	675	0.034	-0.016	-0.994	-0.7448454	0.859437	0.1718874	0.04583664	2.53820394	-23.06728908
6.76	676	0.035	-0.014	-0.993	-0.7448454	1.0313244	0.1718874	0.04010706	2.5496631	-23.06728908
6.77	677	0.036	-0.014	-0.992	-0.6875496	1.2605076	0.1145916	0.0286479	2.56112226	-23.0615595
6.78	678	0.037	-0.014	-0.992	-0.6875496	1.2605076	0	0.02291832	2.57258142	-23.0615595
6.79	679	0.038	-0.013	-0.99	-0.859437	1.3750992	0	0.01145916	2.58404058	-23.0615595
6.8	680	0.039	-0.012	-0.988	-1.2032118	1.6615782	0.0572958	-0.01145916	2.578311	-23.0615595
6.81	681	0.04	-0.011	-0.987	-1.2605076	1.6042824	0.2291832	-0.02291832	2.59549974	-23.05582992
6.82	682	0.039	-0.011	-0.984	-1.2605076	1.3178034	0.2291832	-0.03437748	2.6069589	-23.05582992
6.83	683	0.04	-0.013	-0.982	-1.432395	1.0313244	0.1718874	-0.05156622	2.61841806	-23.05010034
6.84	684	0.038	-0.017	-0.983	-1.432395	0.859437	0.0572958	-0.06875496	2.62987722	-23.05010034
6.85	685	0.041	-0.018	-0.985	-1.5469866	0.9167328	0.0572958	-0.0859437	2.61268848	-23.05010034
6.86	686	0.045	-0.019	-0.987	-1.718874	1.0313244	0.1145916	-0.10313244	2.62414764	-23.05010034
6.87	687	0.045	-0.016	-0.992	-1.8334656	1.145916	0.2291832	-0.12032118	2.6356068	-23.04437076
6.88	688	0.044	-0.012	-0.994	-1.8907614	1.0886202	0.2291832	-0.1432395	2.64706596	-23.04437076
6.89	689	0.046	-0.009	-0.993	-1.8907614	0.9167328	0.286479	-0.16042824	2.65852512	-23.03864118
6.9	690	0.047	-0.007	-0.994	-1.6615782	0.7448454	0.1718874	-0.20626488	2.64706596	-23.03864118
6.91	691	0.051	-0.006	-0.992	-1.6042824	0.572958	0.286479	-0.22345362	2.65279554	-23.0329116
6.92	692	0.053	-0.005	-0.991	-1.6042824	0.6875496	0.3437748	-0.24064236	2.6642547	-23.02718202
6.93	693	0.057	-0.005	-0.988	-1.6615782	0.7448454	0.4010706	-0.2578311	2.66998428	-23.02718202
6.94	694	0.057	-0.004	-0.987	-1.6042824	0.6302538	0.4010706	-0.27501984	2.67571386	-23.02145244
6.95	695	0.057	-0.003	-0.986	-1.6042824	0.572958	0.4583664	-0.3151269	2.6929026	-23.01572286
6.96	696	0.057	-0.002	-0.984	-1.6615782	0.5156622	0.4010706	-0.33231564	2.6929026	-23.00999328
6.97	697	0.06	-0.001	-0.987	-1.718874	0.5156622	0.286479	-0.34950438	2.69863218	-23.00999328
6.98	698	0.062	-0.001	-0.989	-1.6042824	0.4583664	0.3437748	-0.36669312	2.70436176	-23.0042637
6.99	699	0.065	0	-0.99	-1.6042824	0.1718874	0.1718874	-0.38388186	2.71009134	-23.0042637
7	700	0.064	0	-0.99	-1.6042824	0	0.2291832	-0.43544808	2.73300966	-23.0042637
7.01	701	0.063	0	-0.99	-1.4896908	-0.3437748	0.286479	-0.44690724	2.72728008	-22.99853412
7.02	702	0.062	0	-0.991	-1.6615782	-0.572958	0.1718874	-0.46409598	2.7215505	-22.99853412
7.03	703	0.059	0	-0.992	-1.4896908	-0.8021412	0.1145916	-0.48128472	2.71582092	-22.99280454
7.04	704	0.057	0	-0.991	-1.3750992	-0.859437	0.0572958	-0.49274388	2.70436176	-22.99280454
7.05	705	0.054	0	-0.991	-1.2605076	-0.859437	0	-0.53285094	2.6929026	-22.99280454
7.06	706	0.052	-0.001	-0.992	-1.145916	-0.7448454	0	-0.5443101	2.68717302	-22.99280454
7.07	707	0.05	0	-0.993	-1.2032118	-0.572958	0	-0.55576926	2.68144344	-22.99280454
7.08	708	0.049	0	-0.99	-1.0886202	-0.5156622	0	-0.56722842	2.67571386	-22.99853412
7.09	709	0.048	0	-0.989	-1.0886202	-0.572958	-0.0572958	-0.57868758	2.66998428	-22.99853412
7.1	710	0.046	-0.002	-0.989	-1.0886202	-0.572958	-0.1718874	-0.61306506	2.64133638	-22.99853412
7.11	711	0.046	-0.003	-0.988	-1.0886202	-0.5156622	-0.1145916	-0.62452422	2.6356068	-22.99853412
7.12	712	0.044	-0.002	-0.991	-1.0886202	-0.4583664	-0.1145916	-0.63598338	2.62987722	-23.0042637
7.13	713	0.043	-0.004	-0.994	-1.0886202	-0.286479	-0.1145916	-0.64171296	2.62414764	-23.0042637
7.14	714	0.042	-0.003	-0.995	-0.9740286	-0.1718874	-0.1145916	-0.65317212	2.62414764	-23.0042637
7.15	715	0.04	-0.002	-0.996	-0.9167328	-0.0572958	-0.0572958	-0.69327918	2.56112226	-23.0042637
7.16	716	0.039	-0.001	-0.996	-0.859437	0	0	-0.70473834	2.56112226	-23.0042637
7.17	717	0.039	0	-0.993	-0.859437	-0.0572958	0	-0.71046792	2.56112226	-23.0042637
7.18	718	0.04	0	-0.99	-0.859437	0	0.0572958	-0.72192708	2.56112226	-23.0042637
7.19	719	0.038	0	-0.988	-0.8021412	0.0572958	0.1145916	-0.72765666	2.56112226	-23.0042637
7.2	720	0.038	0	-0.988	-0.9740286	0.1145916	0.1145916	-0.76776372	2.50382646	-23.0042637
7.21	721	0.039	0	-0.989	-1.0886202	0	0.1145916	-0.77922288	2.50382646	-22.99853412
7.22	722	0.04	0	-0.989	-1.2032118	0	0.0572958	-0.79641162	2.50382646	-22.99853412
7.23	723	0.039	0	-0.989	-1.2032118	-0.0572958	0.0572958	-0.80787078	2.50382646	-22.99853412
7.24	724	0.039	-0.001	-0.988	-1.145916	-0.1145916	0.1145916	-0.81932994	2.50382646	-22.99853412
7.25	725	0.038	0	-0.989	-1.2032118	0	0.0572958	-0.85370742	2.44653066	-22.99853412
7.26	726	0.04	-0.001	-0.988	-1.2032118	0.1145916	0	-0.86516658	2.45226024	-22.99853412
7.27	727	0.039	0	-0.988	-1.0886202	0.2291832	-0.1145916	-0.87662574	2.45226024	-22.99853412
7.28	728	0.04	0	-0.988	-1.0886202	0.3437748	-0.0572958	-0.8880849	2.45798982	-22.99853412
7.29	729	0.043	0	-0.99	-1.2032118	0.4583664	-0.0572958	-0.89954406	2.45798982	-22.99853412
7.3	730	0.046	0.001	-0.989	-1.2605076	0.4010706	0	-0.92819196	2.45798982	-22.99853412
7.31	731	0.048	0.001	-0.991	-1.2605076	0.4583664	0.0572958	-0.93965112	2.4637194	-22.99853412
7.32	732	0.048	0.002	-0.991	-1.2032118	0.3437748	0.1145916	-0.95683986	2.4637194	-22.99853412
7.33	733	0.049	0.002	-0.992	-1.0886202	0.286479	0.1145916	-0.96829902	2.46944898	-22.99280454
7.34	734	0.049	0.002	-0.991	-1.0313244	0.1718874	0.1718874	-0.9740286	2.46944898	-22.99280454
7.35	735	0.047	0.001	-0.99	-0.7448454	0.2291832	0.0572958	-1.03705398	2.44080108	-22.99280454
7.36	736	0.045	0.001	-0.987	0	0.3437748	0.0572958	-1.03705398	2.44080108	-22.99280454
7.37	737	0.046	0.003	-0.987	0	0.2291832	0	-1.03705398	2.44653066	-22.99280454
7.38	738	0.045	0.003	-0.986	-0.1145916	0.4010706	-0.1718874	-1.03705398	2.44653066	-22.99280454
7.39	739	0.045	0.003	-0.986	-0.2291832	0.5156622	-0.286479	-1.04278356	2.45226024	-22.99853412
7.4	740	0.047	0.005	-0.986	-0.4010706	0.7448454	-0.4010706	-1.06570188	2.45798982	-23.0042637
7.41	741	0.049	0.006	-0.988	-0.6302538	1.0313244	-0.5156622	-1.07716104	2.46944898	-23.0042637
7.42	742	0.05	0.007	-0.99	-0.4583664	1.145916	-0.4583664	-1.08289062	2.48090814	-23.00999328
7.43	743	0.053	0.009	-0.992	-0.4010706	1.2032118	-0.4010706	-1.08289062	2.4923673	-23.01572286
7.44	744	0.053	0.009	-0.992	-0.286479	1.2032118	-0.286479	-1.0886202	2.50382646	-23.01572286
7.45	745	0.053	0.009	-0.993	0	1.2032118	-0.0572958	-1.1172681	2.5210152	-23.02145244
7.46	746	0.051	0.007	-0.993	0.1718874	1.0313244	0.0572958	-1.1172681	2.53247436	-23.02145244
7.47	747	0.048	0.006	-0.993	0	1.0313244	0.1145916	-1.1172681	2.53820394	-23.01572286
7.48	748	0.046	0.004	-0.991	-0.2291832	0.9740286	0.1718874	-1.1172681	2.5496631	-23.01572286
7.49	749	0.047	0.002	-0.988	-0.4583664	0.8021412	0.1145916	-1.12299768	2.56112226	-23.01572286
7.5	750	0.048	0.002	-0.986	-0.6302538	0.6302538	0.1145916	-1.14018642	2.55539268	-23.00999328
7.51	751	0.048	0	-0.985	-0.6875496	0.4583664	0.3437748	-1.145916	2.56112226	-23.00999328
7.52	752	0.048	0.002	-0.989	-0.859437	0.3437748	0.4010706	-1.15737516	2.56685184	-23.0042637
7.53	753	0.051	0.005	-0.991	-0.7448454	0.286479	0.6302538	-1.16310474	2.56685184	-22.99853412
7.54	754	0.049	0.007	-0.993	-0.572958	0.1145916	0.572958	-1.16883432	2.56685184	-22.99280454
7.55	755	0.05	0.01	-0.994	-0.3437748	0.0572958	0.572958	-1.22040054	2.56112226	-22.98707496
7.56	756	0.05	0.01	-0.995	-0.286479	0.0572958	0.5156622	-1.22040054	2.56112226	-22.98134538
7.57	757	0.05	0.009	-0.994	-0.2291832	0	0.4583664	-1.22613012	2.56112226	-22.9756158
7.58	758	0.05	0.01	-0.993	-0.2291832	0	0.4583664	-1.22613012	2.56112226	-22.96988622
7.59	759	0.05	0.011	-0.993	-0.1145916	-0.0572958	0.286479	-1.22613012	2.56112226	-22.96988622
7.6	760	0.05	0.013	-0.992	-0.1718874	-0.1718874	0.286479	-1.29488508	2.54393352	-22.96415664
7.61	761	0.049	0.012	-0.989	-0.0572958	-0.286479	0.2291832	-1.29488508	2.54393352	-22.96415664
7.62	762	0.05	0.013	-0.991	0	-0.4010706	0.0572958	-1.29488508	2.53820394	-22.96415664
7.63	763	0.05	0.014	-0.99	0	-0.3437748	0	-1.29488508	2.53247436	-22.96415664
7.64	764	0.049	0.013	-0.99	0	-0.4010706	0	-1.29488508	2.53247436	-22.96415664
7.65	765	0.049	0.014	-0.99	0	-0.286479	-0.0572958	-1.3750992	2.50955604	-22.96415664
7.66	766	0.048	0.013	-0.988	0	-0.3437748	-0.0572958	-1.3750992	2.50382646	-22.96988622
7.67	767	0.047	0.014	-0.987	0	-0.4010706	-0.1145916	-1.3750992	2.49809688	-22.96988622
7.68	768	0.047	0.013	-0.987	0	-0.286479	-0.0572958	-1.3750992	2.49809688	-22.96988622
7.69	769	0.048	0.012	-0.989	0	-0.3437748	0	-1.3750992	2.4923673	-22.96988622
7.7	770	0.049	0.012	-0.991	0.0572958	-0.4010706	0	-1.44958374	2.48090814	-22.96988622
7.71	771	0.049	0.012	-0.992	0.0572958	-0.5156622	0	-1.44958374	2.47517856	-22.96988622
7.72	772	0.051	0.01	-0.993	0.1145916	-0.5156622	0	-1.44958374	2.46944898	-22.96988622
7.73	773	0.052	0.01	-0.993	0	-0.4010706	0	-1.44958374	2.4637194	-22.96988622
7.74	774	0.052	0.01	-0.992	0	-0.572958	0	-1.44958374	2.45798982	-22.96988622
7.75	775	0.052	0.009	-0.991	-0.0572958	-0.6302538	0	-1.46677248	2.4637194	-22.9756158
7.76	776	0.053	0.011	-0.99	0	-0.859437	-0.0572958	-1.46677248	2.45798982	-22.9756158
7.77	777	0.052	0.011	-0.989	-0.0572958	-0.859437	0	-1.46677248	2.44653066	-22.9756158
7.78	778	0.051	0.013	-0.99	0	-0.8021412	-0.0572958	-1.46677248	2.44080108	-22.9756158
7.79	779	0.05	0.015	-0.991	0	-0.8021412	0.0572958	-1.46677248	2.42934192	-22.9756158
7.8	780	0.048	0.016	-0.992	0.1145916	-0.7448454	0	-1.50114996	2.41215318	-22.9756158
7.81	781	0.047	0.017	-0.993	0.3437748	-0.7448454	0.1145916	-1.50114996	2.4064236	-22.9756158
7.82	782	0.046	0.017	-0.993	0.4010706	-0.6875496	0.1145916	-1.49542038	2.39496444	-22.96988622
7.83	783	0.045	0.018	-0.994	0.4583664	-0.5156622	0.2291832	-1.4896908	2.38923486	-22.96988622
7.84	784	0.045	0.017	-0.992	0.572958	-0.572958	0.2291832	-1.48396122	2.38350528	-22.96415664
7.85	785	0.044	0.017	-0.993	0.5156622	-0.5156622	0.1145916	-1.51260912	2.36058696	-22.96415664
7.86	786	0.043	0.017	-0.99	0.5156622	-0.4583664	0.1718874	-1.50687954	2.35485738	-22.96415664
7.87	787	0.043	0.016	-0.99	0.4583664	-0.4583664	0.1145916	-1.50114996	2.3491278	-22.96415664
7.88	788	0.044	0.016	-0.99	0.4010706	-0.4010706	0.1718874	-1.49542038	2.3491278	-22.95842706
7.89	789	0.044	0.016	-0.989	0.4583664	-0.4583664	0.1145916	-1.49542038	2.34339822	-22.95842706
7.9	790	0.045	0.015	-0.989	0.4010706	-0.5156622	0.1145916	-1.5183387	2.32620948	-22.95842706
7.91	791	0.044	0.015	-0.989	0.286479	0	0.0572958	-1.5183387	2.32620948	-22.95842706
7.92	792	0.044	0.015	-0.991	0.286479	0	0.1145916	-1.51260912	2.32620948	-22.95842706
7.93	793	0.043	0.017	-0.992	0.4010706	0	0.2291832	-1.51260912	2.32620948	-22.95269748
7.94	794	0.043	0.017	-0.993	0.5156622	0.1145916	0.286479	-1.50687954	2.32620948	-22.95269748
7.95	795	0.042	0.017	-0.992	0.572958	0.2291832	0.3437748	-1.53552744	2.31475032	-22.9469679
7.96	796	0.042	0.018	-0.992	0.5156622	0.4583664	0.3437748	-1.52979786	2.3204799	-22.9469679
7.97	797	0.042	0.017	-0.992	0.5156622	0.5156622	0.4010706	-1.52406828	2.32620948	-22.94123832
7.98	798	0.043	0.017	-0.991	0.572958	0.572958	0.286479	-1.51260912	2.33193906	-22.93550874
7.99	799	0.044	0.017	-0.99	0.572958	0.572958	0.286479	-1.50687954	2.33766864	-22.93550874
8	800	0.046	0.017	-0.99	0.6302538	0.572958	0.4583664	-1.52979786	2.33766864	-22.92977916
8.01	801	0.047	0.018	-0.989	0.4010706	0.572958	0.4010706	-1.52406828	2.3491278	-22.92404958
8.02	802	0.047	0.017	-0.988	0.3437748	0.4010706	0.4010706	-1.5183387	2.3491278	-22.92404958
8.03	803	0.048	0.017	-0.988	0.3437748	0.2291832	0.4010706	-1.51260912	2.35485738	-22.91832
8.04	804	0.047	0.017	-0.988	0.286479	0.1718874	0.286479	-1.51260912	2.35485738	-22.91259042
8.05	805	0.047	0.017	-0.989	0.3437748	0.1145916	0.2291832	-1.55271618	2.3491278	-22.91259042
8.06	806	0.047	0.017	-0.99	0.3437748	0.1718874	0.1145916	-1.55271618	2.3491278	-22.91259042
8.07	807	0.047	0.016	-0.989	0.3437748	0.1718874	0	-1.5469866	2.3491278	-22.91259042
8.08	808	0.048	0.017	-0.99	0.2291832	0.2291832	0	-1.5469866	2.35485738	-22.91259042
8.09	809	0.048	0.018	-0.99	0.1718874	0.286479	-0.1145916	-1.54125702	2.35485738	-22.91259042
8.1	810	0.047	0.018	-0.99	0.1718874	0.286479	-0.1145916	-1.59282324	2.3491278	-22.91832
8.11	811	0.047	0.018	-0.992	0.0572958	0.2291832	-0.1718874	-1.59282324	2.35485738	-22.91832
8.12	812	0.047	0.019	-0.993	0.0572958	0.1145916	-0.1718874	-1.58709366	2.35485738	-22.91832
8.13	813	0.048	0.019	-0.994	0.1145916	0.1145916	-0.2291832	-1.58709366	2.35485738	-22.92404958
8.14	814	0.049	0.018	-0.993	0.0572958	0.1718874	-0.2291832	-1.58709366	2.35485738	-22.92404958
8.15	815	0.049	0.017	-0.991	-0.1145916	0.1145916	-0.2291832	-1.63865988	2.36058696	-22.92977916
8.16	816	0.049	0.016	-0.992	-0.286479	0.1145916	-0.2291832	-1.64438946	2.36058696	-22.92977916
8.17	817	0.049	0.017	-0.991	-0.1718874	-0.0572958	-0.1718874	-1.64438946	2.36058696	-22.93550874
8.18	818	0.048	0.016	-0.991	0	-0.286479	-0.1145916	-1.64438946	2.35485738	-22.93550874
8.19	819	0.047	0.017	-0.993	0	-0.4010706	0	-1.64438946	2.35485738	-22.93550874
8.2	820	0.048	0.019	-0.997	0.2291832	-0.3437748	0	-1.69595568	2.3491278	-22.93550874
8.21	821	0.048	0.022	-1.001	0.4583664	-0.286479	0	-1.6902261	2.34339822	-22.93550874
8.22	822	0.047	0.024	-1.002	0.859437	-0.3437748	0	-1.67876694	2.34339822	-22.93550874
8.23	823	0.046	0.022	-1.003	1.0886202	-0.3437748	0	-1.66730778	2.33766864	-22.93550874
8.24	824	0.044	0.021	-1.001	1.2032118	-0.3437748	-0.0572958	-1.65584862	2.33766864	-22.94123832
8.25	825	0.044	0.021	-0.997	1.2032118	-0.3437748	-0.0572958	-1.66730778	2.3204799	-22.94123832
8.26	826	0.044	0.021	-0.992	1.2032118	-0.2291832	-0.1145916	-1.65584862	2.3204799	-22.94123832
8.27	827	0.045	0.023	-0.989	1.145916	-0.1145916	-0.0572958	-1.64438946	2.3204799	-22.94123832
8.28	828	0.047	0.024	-0.987	1.2032118	-0.0572958	0	-1.6329303	2.3204799	-22.94123832
8.29	829	0.047	0.025	-0.985	1.2032118	-0.0572958	-0.0572958	-1.62147114	2.3204799	-22.9469679
8.3	830	0.046	0.024	-0.986	1.2032118	0	-0.1145916	-1.64438946	2.30902074	-22.9469679
8.31	831	0.045	0.024	-0.986	1.3750992	0.0572958	0	-1.62720072	2.31475032	-22.9469679
8.32	832	0.045	0.022	-0.988	1.5469866	0.1145916	0	-1.61574156	2.31475032	-22.9469679
8.33	833	0.044	0.02	-0.99	1.6615782	0.1145916	0	-1.59855282	2.31475032	-22.9469679
8.34	834	0.045	0.019	-0.99	1.718874	0.1718874	0	-1.58136408	2.3204799	-22.9469679
8.35	835	0.044	0.017	-0.992	1.7761698	0.1145916	0	-1.5756345	2.31475032	-22.9469679
8.36	836	0.045	0.015	-0.994	1.6615782	0.1145916	-0.0572958	-1.55844576	2.31475032	-22.95269748
8.37	837	0.045	0.015	-0.994	1.6615782	0.1718874	-0.0572958	-1.54125702	2.3204799	-22.95269748
8.38	838	0.046	0.014	-0.994	1.718874	0.1145916	0	-1.52406828	2.3204799	-22.95269748
8.39	839	0.046	0.014	-0.994	1.6615782	0.1145916	-0.0572958	-1.50687954	2.3204799	-22.95269748
8.4	840	0.045	0.015	-0.994	1.6615782	0.1718874	-0.0572958	-1.50687954	2.3204799	-22.95269748
8.41	841	0.045	0.015	-0.993	1.718874	0.1718874	-0.1145916	-1.4896908	2.3204799	-22.95842706
8.42	842	0.045	0.015	-0.991	1.8334656	0	-0.1718874	-1.47250206	2.3204799	-22.95842706
8.43	843	0.046	0.014	-0.99	1.8907614	0.1145916	-0.1718874	-1.44958374	2.3204799	-22.96415664
8.44	844	0.047	0.015	-0.987	1.9480572	0.1718874	-0.1718874	-1.432395	2.32620948	-22.96415664
8.45	845	0.047	0.013	-0.988	2.005353	0.0572958	-0.1718874	-1.42093584	2.3204799	-22.96415664
8.46	846	0.046	0.013	-0.991	2.005353	0	-0.2291832	-1.4037471	2.32620948	-22.96988622
8.47	847	0.045	0.014	-0.99	1.9480572	0	-0.1145916	-1.38082878	2.32620948	-22.96988622
8.48	848	0.045	0.016	-0.991	1.9480572	0	-0.1718874	-1.36364004	2.32620948	-22.96988622
8.49	849	0.044	0.016	-0.993	2.005353	0.0572958	-0.1145916	-1.34072172	2.32620948	-22.9756158
8.5	850	0.042	0.015	-0.993	2.2345362	0.1145916	-0.1145916	-1.33499214	2.3204799	-22.9756158
8.51	851	0.04	0.015	-0.993	2.1772404	0.1145916	-0.1145916	-1.31207382	2.3204799	-22.9756158
8.52	852	0.041	0.015	-0.992	2.0626488	0.1145916	-0.1718874	-1.2891555	2.3204799	-22.98134538
8.53	853	0.041	0.015	-0.991	2.0626488	0	-0.2291832	-1.26623718	2.3204799	-22.98134538
8.54	854	0.042	0.015	-0.99	2.0626488	-0.1145916	-0.286479	-1.24904844	2.3204799	-22.98707496
8.55	855	0.043	0.015	-0.989	2.1199446	-0.1718874	-0.2291832	-1.24331886	2.31475032	-22.98707496
8.56	856	0.043	0.012	-0.99	2.2345362	-0.3437748	-0.286479	-1.22040054	2.30902074	-22.99280454
8.57	857	0.044	0.011	-0.988	2.3491278	-0.286479	-0.286479	-1.19748222	2.30902074	-22.99853412
8.58	858	0.044	0.011	-0.99	2.2345362	-0.1145916	-0.286479	-1.1745639	2.30902074	-22.99853412
8.59	859	0.045	0.011	-0.989	2.1772404	-0.1145916	-0.2291832	-1.15164558	2.30902074	-23.0042637
8.6	860	0.044	0.011	-0.989	2.1199446	-0.1145916	-0.4010706	-1.145916	2.30329116	-23.00999328
8.61	861	0.044	0.009	-0.991	2.1772404	-0.1718874	-0.4010706	-1.12299768	2.29756158	-23.00999328
8.62	862	0.044	0.009	-0.99	0.572958	-0.0572958	-0.286479	-1.1172681	2.29756158	-23.01572286
8.63	863	0.044	0.009	-0.99	0.0572958	-0.0572958	-0.2291832	-1.1172681	2.29756158	-23.01572286
8.64	864	0.044	0.01	-0.989	0.0572958	0	-0.1718874	-1.1172681	2.29756158	-23.02145244
8.65	865	0.045	0.008	-0.989	0.1145916	0	-0.1718874	-1.18602306	2.26891368	-23.02145244
8.66	866	0.045	0.008	-0.99	0.1145916	0.0572958	-0.1718874	-1.18602306	2.26891368	-23.02718202
8.67	867	0.047	0.008	-0.99	0.0572958	0.0572958	-0.1145916	-1.18602306	2.27464326	-23.02718202
8.68	868	0.048	0.009	-0.991	0.1145916	0	0	-1.18029348	2.27464326	-23.02718202
8.69	869	0.049	0.008	-0.99	0.0572958	-0.0572958	0	-1.18029348	2.27464326	-23.02718202
8.7	870	0.048	0.007	-0.991	0	0	0.1145916	-1.31207382	2.291832	-23.02718202
8.71	871	0.047	0.007	-0.99	-0.0572958	-0.1145916	0.0572958	-1.31207382	2.291832	-23.02718202
8.72	872	0.047	0.008	-0.99	-0.1145916	-0.1718874	0	-1.31207382	2.28610242	-23.02718202
8.73	873	0.046	0.008	-0.991	-0.1718874	-0.1145916	-0.0572958	-1.31207382	2.28610242	-23.02718202
8.74	874	0.046	0.008	-0.992	-0.1718874	-0.1145916	-0.1718874	-1.3178034	2.28610242	-23.0329116
8.75	875	0.045	0.008	-0.993	-0.2291832	-0.1718874	-0.1718874	-1.3464513	2.28037284	-23.0329116
8.76	876	0.046	0.008	-0.991	-0.0572958	-0.1145916	-0.1145916	-1.35218088	2.28037284	-23.03864118
8.77	877	0.046	0.009	-0.99	-0.1145916	0	-0.1145916	-1.35218088	2.28037284	-23.03864118
8.78	878	0.045	0.009	-0.993	-0.0572958	0.0572958	-0.0572958	-1.35218088	2.28037284	-23.03864118
8.79	879	0.045	0.008	-0.994	-0.1145916	0	-0.1718874	-1.35218088	2.28037284	-23.03864118
8.8	880	0.045	0.009	-0.994	0	-0.2291832	-0.1145916	-1.39228794	2.26891368	-23.04437076
8.81	881	0.044	0.009	-0.993	0.1718874	-0.286479	-0.1145916	-1.39228794	2.2631841	-23.04437076
8.82	882	0.043	0.009	-0.99	0.1718874	-0.3437748	-0.1145916	-1.38655836	2.2631841	-23.04437076
8.83	883	0.043	0.006	-0.987	0	-0.4583664	-0.0572958	-1.38655836	2.25745452	-23.04437076
8.84	884	0.043	0.003	-0.985	-0.3437748	-0.5156622	-0.0572958	-1.39228794	2.25172494	-23.05010034
8.85	885	0.042	0.001	-0.981	-0.572958	-0.4010706	-0.1145916	-1.39228794	2.24026578	-23.05010034
8.86	886	0.043	0	-0.982	-0.6875496	-0.1718874	0	-1.4037471	2.24026578	-23.05010034
8.87	887	0.045	0	-0.984	-0.859437	-0.1145916	0	-1.40947668	2.24026578	-23.05010034
8.88	888	0.043	0.001	-0.992	-1.0313244	-0.1145916	0	-1.42093584	2.24026578	-23.05010034
8.89	889	0.041	0.003	-0.997	-1.0313244	-0.0572958	0.1145916	-1.432395	2.2345362	-23.04437076
8.9	890	0.039	0.004	-0.998	-0.859437	-0.1718874	0.0572958	-1.43812458	2.21161788	-23.04437076
8.91	891	0.039	0.003	-0.999	-0.6302538	-0.286479	0	-1.44385416	2.21161788	-23.04437076
8.92	892	0.039	0.002	-0.996	-0.5156622	-0.2291832	-0.0572958	-1.44958374	2.2058883	-23.04437076
8.93	893	0.04	0.003	-0.992	-0.3437748	-0.0572958	-0.1145916	-1.45531332	2.2058883	-23.05010034
8.94	894	0.041	0.003	-0.989	-0.4010706	0.0572958	-0.0572958	-1.4610429	2.2058883	-23.05010034
8.95	895	0.042	0.004	-0.986	-0.4583664	0.1718874	-0.0572958	-1.46677248	2.19442914	-23.05010034
8.96	896	0.041	0.006	-0.985	-0.3437748	0.1718874	0	-1.47250206	2.19442914	-23.05010034
8.97	897	0.042	0.007	-0.986	-0.286479	0.1145916	0	-1.47250206	2.19442914	-23.05010034
8.98	898	0.042	0.007	-0.987	-0.1145916	0.2291832	0	-1.47823164	2.20015872	-23.05010034
8.99	899	0.042	0.006	-0.989	-0.0572958	0.3437748	0.1145916	-1.47823164	2.20015872	-23.05010034
9	900	0.042	0.005	-0.992	0	0.3437748	0.0572958	-1.48396122	2.18296998	-23.05010034
9.01	901	0.042	0.004	-0.992	0	0.286479	0.0572958	-1.48396122	2.18296998	-23.04437076
9.02	902	0.044	0.002	-0.993	0	0.0572958	0.0572958	-1.48396122	2.18296998	-23.04437076
9.03	903	0.044	0.001	-0.993	0	0.1718874	0.0572958	-1.48396122	2.18869956	-23.04437076
9.04	904	0.046	0	-0.993	-0.1145916	0.1718874	0	-1.48396122	2.18869956	-23.04437076
9.05	905	0.045	0	-0.994	-0.1145916	0.2291832	0	-1.47250206	2.18869956	-23.04437076
9.06	906	0.045	0.001	-0.993	0	0.286479	0	-1.47250206	2.18869956	-23.04437076
9.07	907	0.044	0.002	-0.992	0.0572958	0.1718874	-0.0572958	-1.47250206	2.19442914	-23.04437076
9.08	908	0.044	0.002	-0.993	0.0572958	0.0572958	0	-1.47250206	2.19442914	-23.04437076
9.09	909	0.045	0.001	-0.992	0.0572958	0	0	-1.47250206	2.19442914	-23.04437076
9.1	910	0.046	-0.001	-0.991	0	-0.0572958	0.0572958	-1.40947668	2.19442914	-23.04437076
9.11	911	0.046	-0.001	-0.99	-0.2291832	0	0	-1.41520626	2.19442914	-23.04437076
9.12	912	0.046	0	-0.988	-0.4010706	0	0	-1.42093584	2.19442914	-23.04437076
9.13	913	0.046	0	-0.988	-0.3437748	-0.1145916	0	-1.42093584	2.19442914	-23.04437076
9.14	914	0.045	0.001	-0.988	-0.286479	-0.1718874	0	-1.42666542	2.19442914	-23.04437076
9.15	915	0.043	0.003	-0.989	-0.2291832	-0.3437748	0	-1.42666542	2.18296998	-23.04437076
9.16	916	0.042	0.004	-0.991	-0.1145916	-0.4010706	0	-1.432395	2.1772404	-23.04437076
9.17	917	0.041	0.003	-0.991	0	-0.2291832	0	-1.432395	2.1772404	-23.04437076
9.18	918	0.041	0.002	-0.992	0.1145916	-0.1145916	-0.0572958	-1.42666542	2.17151082	-23.04437076
9.19	919	0.041	0	-0.991	0	0	-0.1718874	-1.42666542	2.17151082	-23.04437076
9.2	920	0.042	0	-0.988	-0.0572958	0.1145916	-0.1145916	-1.40947668	2.16005166	-23.04437076
9.21	921	0.043	-0.001	-0.987	-0.1718874	0.1145916	-0.2291832	-1.40947668	2.16578124	-23.05010034
9.22	922	0.044	-0.001	-0.985	-0.4010706	0.0572958	-0.286479	-1.41520626	2.16578124	-23.05010034
9.23	923	0.044	-0.001	-0.984	-0.4583664	0	-0.2291832	-1.42093584	2.16578124	-23.05582992
9.24	924	0.043	-0.001	-0.983	-0.3437748	0	-0.1145916	-1.42093584	2.16578124	-23.05582992
9.25	925	0.041	-0.001	-0.983	-0.3437748	0	-0.0572958	-1.39801752	2.14286292	-23.05582992
9.26	926	0.039	0	-0.984	-0.286479	0	0	-1.4037471	2.14286292	-23.05582992
9.27	927	0.037	-0.001	-0.984	-0.5156622	0.1718874	0	-1.40947668	2.1485925	-23.05582992
9.28	928	0.038	-0.001	-0.987	-0.572958	0.3437748	0.0572958	-1.41520626	2.1485925	-23.05582992
9.29	929	0.039	-0.002	-0.987	-0.6302538	0.3437748	0.1718874	-1.42093584	2.15432208	-23.05582992
9.3	930	0.041	-0.001	-0.987	-0.7448454	0.3437748	0.2291832	-1.41520626	2.15432208	-23.05010034
9.31	931	0.043	-0.001	-0.988	-0.7448454	0.1145916	0.286479	-1.42666542	2.15432208	-23.04437076
9.32	932	0.042	-0.001	-0.989	-0.7448454	0.1718874	0.3437748	-1.432395	2.15432208	-23.04437076
9.33	933	0.041	0	-0.988	-0.6875496	0.1718874	0.3437748	-1.43812458	2.16005166	-23.03864118
9.34	934	0.04	-0.002	-0.986	-0.6302538	0.1145916	0.286479	-1.44958374	2.16005166	-23.03864118
9.35	935	0.039	-0.002	-0.984	-0.8021412	0.2291832	0.286479	-1.44385416	2.1485925	-23.0329116
9.36	936	0.036	-0.002	-0.984	-0.859437	0.2291832	0.2291832	-1.45531332	2.15432208	-23.0329116
9.37	937	0.037	-0.001	-0.985	-0.9167328	0.572958	0.0572958	-1.46677248	2.16005166	-23.02718202
9.38	938	0.04	-0.001	-0.986	-0.9167328	0.6875496	0	-1.47250206	2.16578124	-23.02718202
9.39	939	0.043	-0.001	-0.987	-0.859437	0.6875496	0.1145916	-1.48396122	2.17151082	-23.02718202
9.4	940	0.045	0	-0.988	-0.9740286	0.6302538	0.1718874	-1.48396122	2.1772404	-23.02718202
9.41	941	0.046	-0.001	-0.989	-1.0886202	0.859437	0.286479	-1.49542038	2.18869956	-23.02145244
9.42	942	0.046	-0.001	-0.992	-1.145916	1.0313244	0.286479	-1.50687954	2.19442914	-23.01572286
9.43	943	0.045	-0.002	-0.993	-1.145916	0.9167328	0.286479	-1.5183387	2.2058883	-23.01572286
9.44	944	0.044	0	-0.992	-1.145916	0.572958	0.3437748	-1.52979786	2.21161788	-23.00999328
9.45	945	0.042	0	-0.987	-1.145916	0.4010706	0.4583664	-1.53552744	2.21161788	-23.0042637
9.46	946	0.039	0	-0.985	-1.2605076	0.4583664	0.4583664	-1.5469866	2.21161788	-22.99853412
9.47	947	0.039	0	-0.983	-1.3750992	0.4583664	0.4583664	-1.56417534	2.21734746	-22.99280454
9.48	948	0.039	-0.002	-0.982	-1.4896908	0.3437748	0.3437748	-1.5756345	2.22307704	-22.99280454
