TimeStamp(s)	FrameCounter	AccX	AccY	AccZ	GyrX	GyrY	GyrZ	EulerX	EulerY	EulerZ
0.01	1	0.004	-1.008	-0.03	0.1718874	0.1718874	0.5156622	85.78900134	0.79641162	5.27694318
0.02	2	0.003	-1.009	-0.02	0	0.4583664	0.859437	85.78900134	0.79068204	5.28267276
0.03	3	0.005	-1.009	-0.02	-0.0572958	0.5156622	0.9167328	85.78900134	0.77922288	5.28840234
0.04	4	0.004	-1.009	-0.019	-0.1718874	0.7448454	0.572958	85.78900134	0.7734933	5.2998615
0.05	5	0.005	-1.01	-0.019	-0.1718874	0.9167328	0.5156622	85.83483798	0.76776372	5.30559108
0.06	6	0.005	-1.01	-0.019	-0.286479	1.0313244	0.4010706	85.8291084	0.76203414	5.31705024
0.07	7	0.001	-1.01	-0.018	-0.3437748	0.6875496	0.286479	85.82337882	0.75630456	5.32277982
0.08	8	0	-1.009	-0.02	-0.4010706	0.4583664	0.1718874	85.82337882	0.75630456	5.3285094
0.09	9	0	-1.008	-0.019	-0.3437748	0.4010706	0.0572958	85.81764924	0.75630456	5.33423898
0.1	10	0.002	-1.009	-0.018	-0.3437748	0.2291832	0.0572958	85.92651126	0.73911582	5.33423898
0.11	11	0.003	-1.008	-0.018	-0.4010706	0.2291832	0	85.92651126	0.73911582	5.33423898
0.12	12	0.004	-1.009	-0.017	-0.3437748	0.4010706	0	85.92078168	0.73911582	5.33996856
0.13	13	0.004	-1.009	-0.018	-0.4010706	0.4583664	-0.0572958	85.9150521	0.73911582	5.33996856
0.14	14	0.002	-1.008	-0.016	-0.4010706	0.4010706	-0.1145916	85.90932252	0.73911582	5.34569814
0.15	15	0	-1.006	-0.016	-0.3437748	0.4583664	-0.0572958	86.01818454	0.7161975	5.34569814
0.16	16	0	-1.006	-0.015	-0.2291832	0.5156622	0	86.01818454	0.7161975	5.35142772
0.17	17	0.001	-1.004	-0.016	-0.286479	0.572958	-0.0572958	86.01245496	0.72192708	5.3571573
0.18	18	0.001	-1.003	-0.016	-0.1718874	0.7448454	-0.0572958	86.01245496	0.72192708	5.36861646
0.19	19	0.002	-1.005	-0.016	-0.1145916	0.8021412	-0.0572958	86.01245496	0.72192708	5.37434604
0.2	20	0.003	-1.006	-0.017	0	0.859437	-0.1145916	86.08120992	0.7161975	5.38007562
0.21	21	0.003	-1.007	-0.015	0.0572958	0.9167328	-0.1718874	86.08120992	0.7161975	5.39153478
0.22	22	0.003	-1.006	-0.018	0.1145916	0.859437	-0.1718874	86.08120992	0.72192708	5.39726436
0.23	23	0.003	-1.007	-0.017	0.1718874	0.859437	-0.1718874	86.0869395	0.72192708	5.40872352
0.24	24	0.003	-1.007	-0.018	0.1145916	0.7448454	-0.1718874	86.0869395	0.72765666	5.4144531
0.25	25	0.003	-1.006	-0.018	0.1145916	0.6875496	-0.1145916	86.15569446	0.7161975	5.42018268
0.26	26	0.004	-1.006	-0.018	0.286479	0.6302538	-0.0572958	86.16142404	0.72192708	5.42591226
0.27	27	0.004	-1.007	-0.018	0.2291832	0.7448454	-0.0572958	86.16142404	0.72192708	5.43164184
0.28	28	0.004	-1.007	-0.02	0.2291832	0.8021412	-0.0572958	86.16715362	0.72192708	5.443101
0.29	29	0.005	-1.008	-0.02	0.1145916	0.8021412	-0.0572958	86.16715362	0.72192708	5.44883058
0.3	30	0.006	-1.009	-0.02	0.1145916	0.8021412	-0.0572958	86.230179	0.72192708	5.45456016
0.31	31	0.007	-1.007	-0.021	0.0572958	0.8021412	-0.0572958	86.230179	0.72192708	5.46601932
0.32	32	0.007	-1.008	-0.021	0	0.859437	-0.0572958	86.230179	0.72192708	5.4717489
0.33	33	0.007	-1.008	-0.022	-0.1718874	0.9167328	0	86.230179	0.72192708	5.48320806
0.34	34	0.007	-1.008	-0.021	-0.1718874	0.8021412	-0.0572958	86.22444942	0.72192708	5.48893764
0.35	35	0.006	-1.008	-0.018	-0.1145916	0.6302538	-0.1145916	86.29893396	0.72765666	5.49466722
0.36	36	0.007	-1.006	-0.018	-0.2291832	0.8021412	-0.1718874	86.29893396	0.72765666	5.5003968
0.37	37	0.008	-1.006	-0.02	-0.1718874	0.0572958	-0.0572958	86.29320438	0.72765666	5.5003968
0.38	38	0.008	-1.007	-0.019	-0.0572958	0.0572958	-0.0572958	86.29320438	0.72765666	5.5003968
0.39	39	0.008	-1.007	-0.019	-0.0572958	0.1145916	-0.1145916	86.29320438	0.73338624	5.50612638
0.4	40	0.009	-1.006	-0.019	0	0.1145916	-0.1145916	86.4020664	0.75057498	5.5003968
0.41	41	0.011	-1.007	-0.018	0.1145916	0.2291832	0	86.40779598	0.75057498	5.5003968
0.42	42	0.011	-1.005	-0.018	0.0572958	0.0572958	0.0572958	86.40779598	0.75057498	5.5003968
0.43	43	0.011	-1.005	-0.016	0.1145916	-0.1145916	0.0572958	86.40779598	0.75057498	5.5003968
0.44	44	0.01	-1.006	-0.016	0.1145916	-0.1718874	0.0572958	86.40779598	0.75057498	5.5003968
0.45	45	0.01	-1.006	-0.017	0.1718874	-0.286479	0.1145916	86.49373968	0.7448454	5.48893764
0.46	46	0.008	-1.007	-0.018	0.286479	-0.1145916	0.1718874	86.49946926	0.7448454	5.48893764
0.47	47	0.008	-1.006	-0.017	0.1718874	0.0572958	0.1145916	86.49946926	0.7448454	5.48893764
0.48	48	0.008	-1.008	-0.017	0.3437748	0.1718874	0.1145916	86.50519884	0.7448454	5.49466722
0.49	49	0.008	-1.006	-0.018	0.286479	0	0.1145916	86.50519884	0.73911582	5.49466722
0.5	50	0.009	-1.005	-0.017	0.3437748	-0.1718874	0.1718874	86.55676506	0.7448454	5.48893764
0.51	51	0.008	-1.005	-0.017	0.286479	-0.286479	0.2291832	86.55676506	0.73911582	5.48893764
0.52	52	0.01	-1.006	-0.016	0.286479	-0.1718874	0.2291832	86.56249464	0.73911582	5.48320806
0.53	53	0.009	-1.006	-0.018	0.4010706	-0.0572958	0.286479	86.56822422	0.73338624	5.48320806
0.54	54	0.008	-1.009	-0.018	0.4010706	-0.4010706	0.286479	86.5739538	0.73338624	5.48320806
0.55	55	0.007	-1.014	-0.016	0.2291832	-0.7448454	0.286479	86.61979044	0.72192708	5.4717489
0.56	56	0.008	-1.016	-0.014	-0.0572958	-0.8021412	0.4010706	86.61406086	0.72192708	5.46601932
0.57	57	0.009	-1.013	-0.016	-0.286479	-0.6302538	0.4010706	86.61406086	0.7161975	5.45456016
0.58	58	0.011	-1.01	-0.019	-0.286479	-0.4010706	0.4010706	86.60833128	0.71046792	5.45456016
0.59	59	0.01	-1.009	-0.018	-0.1145916	-0.3437748	0.4010706	86.60833128	0.70473834	5.44883058
0.6	60	0.009	-1.007	-0.017	0	-0.4010706	0.4583664	86.66562708	0.71046792	5.443101
0.61	61	0.008	-1.007	-0.016	-0.0572958	-0.5156622	0.3437748	86.66562708	0.70473834	5.43737142
0.62	62	0.007	-1.007	-0.015	-0.1718874	-0.6875496	0.3437748	86.6598975	0.69900876	5.43164184
0.63	63	0.005	-1.005	-0.016	-0.2291832	-0.572958	0.3437748	86.6598975	0.69900876	5.42591226
0.64	64	0.006	-1.005	-0.016	-0.286479	-0.5156622	0.286479	86.65416792	0.69327918	5.42018268
0.65	65	0.007	-1.006	-0.017	-0.3437748	-0.572958	0.286479	86.6885454	0.6875496	5.4144531
0.66	66	0.008	-1.006	-0.016	-0.2291832	-0.572958	0.286479	86.68281582	0.6875496	5.40872352
0.67	67	0.008	-1.006	-0.017	-0.1145916	-0.5156622	0.286479	86.68281582	0.68182002	5.40299394
0.68	68	0.006	-1.006	-0.017	0	-0.3437748	0.1718874	86.68281582	0.68182002	5.39726436
0.69	69	0.006	-1.005	-0.016	-0.0572958	-0.3437748	0.1718874	86.68281582	0.67609044	5.39153478
0.7	70	0.004	-1.006	-0.016	-0.0572958	-0.3437748	0.1718874	86.75730036	0.67036086	5.39153478
0.71	71	0.004	-1.007	-0.017	-0.0572958	-0.286479	0.1145916	86.75730036	0.66463128	5.3858052
0.72	72	0.005	-1.008	-0.016	-0.1145916	-0.286479	0.286479	86.75730036	0.66463128	5.38007562
0.73	73	0.006	-1.007	-0.017	-0.0572958	-0.4010706	0.3437748	86.75157078	0.6589017	5.38007562
0.74	74	0.005	-1.009	-0.015	-0.1145916	-0.2291832	0.286479	86.75157078	0.65317212	5.37434604
0.75	75	0.006	-1.009	-0.016	-0.0572958	-0.1145916	0.286479	86.8317849	0.6589017	5.36861646
0.76	76	0.007	-1.009	-0.018	-0.2291832	0	0.2291832	86.82605532	0.6589017	5.36861646
0.77	77	0.006	-1.01	-0.02	-0.2291832	-0.1145916	0.286479	86.82605532	0.65317212	5.36861646
0.78	78	0.006	-1.01	-0.02	-0.2291832	-0.1145916	0.0572958	86.82605532	0.65317212	5.36861646
0.79	79	0.006	-1.008	-0.018	-0.3437748	-0.0572958	0	86.82032574	0.65317212	5.36861646
0.8	80	0.007	-1.007	-0.019	-0.4583664	0.0572958	0	86.86616238	0.66463128	5.36288688
0.81	81	0.009	-1.006	-0.02	-0.5156622	0.1145916	0	86.8604328	0.66463128	5.36861646
0.82	82	0.011	-1.005	-0.022	-0.4010706	0	0.1145916	86.85470322	0.66463128	5.36861646
0.83	83	0.01	-1.005	-0.022	-0.286479	-0.2291832	0.1145916	86.85470322	0.66463128	5.36288688
0.84	84	0.008	-1.006	-0.022	-0.1145916	-0.286479	0.1145916	86.85470322	0.6589017	5.36288688
0.85	85	0.007	-1.005	-0.02	-0.1145916	-0.1145916	0	86.93491734	0.6589017	5.3571573
0.86	86	0.007	-1.004	-0.02	-0.0572958	-0.1718874	0	86.93491734	0.6589017	5.3571573
0.87	87	0.007	-1.004	-0.019	0.0572958	-0.1718874	0	86.93491734	0.6589017	5.35142772
0.88	88	0.007	-1.005	-0.019	0.1718874	-0.1145916	0	86.94064692	0.6589017	5.35142772
0.89	89	0.008	-1.006	-0.019	0	-0.1145916	0	86.94064692	0.6589017	5.35142772
0.9	90	0.008	-1.008	-0.017	-0.1145916	-0.286479	0	86.99221314	0.66463128	5.34569814
0.91	91	0.009	-1.009	-0.017	-0.1718874	-0.3437748	-0.0572958	86.99221314	0.66463128	5.33996856
0.92	92	0.008	-1.009	-0.018	-0.286479	-0.1145916	0	86.98648356	0.66463128	5.33996856
0.93	93	0.008	-1.008	-0.017	-0.3437748	-0.0572958	-0.0572958	86.98075398	0.66463128	5.33996856
0.94	94	0.008	-1.007	-0.017	-0.286479	0	0	86.98075398	0.66463128	5.33996856
0.95	95	0.009	-1.006	-0.017	-0.2291832	0	0	87.04950894	0.68182002	5.33423898
0.96	96	0.009	-1.005	-0.018	-0.1145916	0.0572958	0.0572958	87.04950894	0.68182002	5.33423898
0.97	97	0.009	-1.004	-0.018	0.0572958	-0.0572958	0.1718874	87.04950894	0.68182002	5.33423898
0.98	98	0.008	-1.004	-0.018	0.286479	-0.2291832	0.1718874	87.04950894	0.68182002	5.33423898
0.99	99	0.007	-1.005	-0.019	0.4010706	-0.4010706	0.2291832	87.05523852	0.67609044	5.3285094
1	100	0.007	-1.006	-0.018	0.6302538	-0.4010706	0.286479	87.07815684	0.67609044	5.32277982
1.01	101	0.007	-1.006	-0.017	0.8021412	-0.4010706	0.286479	87.08388642	0.67036086	5.32277982
1.02	102	0.006	-1.007	-0.019	0.9167328	-0.286479	0.3437748	87.09534558	0.67036086	5.31705024
1.03	103	0.007	-1.006	-0.018	0.9740286	-0.2291832	0.3437748	87.10680474	0.66463128	5.31705024
1.04	104	0.007	-1.006	-0.018	0.9740286	-0.1145916	0.3437748	87.11253432	0.6589017	5.31705024
1.05	105	0.006	-1.006	-0.019	1.0886202	-0.1145916	0.4010706	87.13545264	0.6589017	5.31132066
1.06	106	0.007	-1.006	-0.022	1.0313244	0	0.4010706	87.1469118	0.65317212	5.31132066
1.07	107	0.006	-1.006	-0.024	1.0886202	-0.0572958	0.4010706	87.15837096	0.65317212	5.31132066
1.08	108	0.006	-1.006	-0.021	1.0313244	-0.0572958	0.4010706	87.16983012	0.64744254	5.31132066
1.09	109	0.006	-1.006	-0.021	1.0313244	-0.0572958	0.3437748	87.18128928	0.64171296	5.31132066
1.1	110	0.007	-1.007	-0.019	0.9740286	0	0.4010706	87.19847802	0.63598338	5.31132066
1.11	111	0.007	-1.006	-0.022	0.859437	0	0.4010706	87.20993718	0.63598338	5.31132066
1.12	112	0.007	-1.005	-0.02	0.9740286	-0.1718874	0.4583664	87.22139634	0.6302538	5.31132066
1.13	113	0.006	-1.004	-0.019	1.0886202	-0.4010706	0.4583664	87.2328555	0.62452422	5.30559108
1.14	114	0.006	-1.005	-0.019	1.145916	-0.4010706	0.3437748	87.24431466	0.61879464	5.2998615
1.15	115	0.005	-1.005	-0.018	1.0886202	-0.1718874	0.1145916	87.26723298	0.61879464	5.2998615
1.16	116	0.004	-1.007	-0.019	1.145916	0	0.1145916	87.27869214	0.61879464	5.2998615
1.17	117	0.005	-1.009	-0.017	1.145916	-0.0572958	0.0572958	87.2901513	0.61879464	5.2998615
1.18	118	0.005	-1.007	-0.018	1.145916	-0.1718874	0.1718874	87.30161046	0.61306506	5.2998615
1.19	119	0.005	-1.005	-0.015	1.145916	-0.4010706	0.286479	87.31306962	0.61306506	5.29413192
1.2	120	0.004	-1.007	-0.014	1.145916	-0.286479	0.1718874	87.34171752	0.60733548	5.28840234
1.21	121	0.004	-1.008	-0.014	1.2605076	-0.0572958	0.3437748	87.35317668	0.60733548	5.28840234
1.22	122	0.005	-1.01	-0.013	1.145916	0	0.286479	87.36463584	0.6016059	5.28840234
1.23	123	0.006	-1.014	-0.012	1.145916	-0.1145916	0.286479	87.376095	0.6016059	5.28840234
1.24	124	0.006	-1.013	-0.012	1.0313244	-0.286479	0.3437748	87.38755416	0.59587632	5.28840234
1.25	125	0.006	-1.01	-0.012	0.9740286	-0.572958	0.286479	87.41620206	0.59587632	5.28267276
1.26	126	0.006	-1.007	-0.012	0.9740286	-0.5156622	0.286479	87.42193164	0.59014674	5.27694318
1.27	127	0.007	-1.007	-0.011	1.0313244	-0.5156622	0.3437748	87.4333908	0.58441716	5.2712136
1.28	128	0.006	-1.007	-0.01	1.0886202	-0.4583664	0.4010706	87.44484996	0.57868758	5.26548402
1.29	129	0.005	-1.008	-0.01	1.145916	-0.3437748	0.4583664	87.45630912	0.57868758	5.26548402
1.3	130	0.003	-1.01	-0.009	1.0886202	-0.2291832	0.5156622	87.48495702	0.56722842	5.25975444
1.31	131	0.005	-1.009	-0.009	0.9740286	-0.1718874	0.572958	87.49641618	0.56149884	5.25975444
1.32	132	0.004	-1.01	-0.01	0.859437	-0.2291832	0.4010706	87.50214576	0.55576926	5.25975444
1.33	133	0.004	-1.008	-0.01	0.9167328	-0.2291832	0.3437748	87.51360492	0.55576926	5.25402486
1.34	134	0.005	-1.009	-0.009	0.9167328	-0.286479	0.3437748	87.52506408	0.55003968	5.25402486
1.35	135	0.004	-1.008	-0.009	0.6302538	-0.1145916	0.1718874	87.5766303	0.5443101	5.24829528
1.36	136	0.004	-1.007	-0.011	-0.286479	0.1145916	-0.1145916	87.5766303	0.55003968	5.24829528
1.37	137	0.004	-1.006	-0.011	-0.2291832	0	-0.1145916	87.57090072	0.55003968	5.24829528
1.38	138	0.003	-1.005	-0.011	-0.2291832	0.0572958	-0.2291832	87.57090072	0.55003968	5.25402486
1.39	139	0.003	-1.007	-0.01	-0.1718874	0.1145916	-0.1718874	87.56517114	0.55576926	5.25402486
1.4	140	0.003	-1.006	-0.011	-0.1718874	0.1145916	-0.1718874	87.59954862	0.55576926	5.25402486
1.41	141	0.002	-1.008	-0.011	-0.1145916	0.2291832	-0.1145916	87.59381904	0.55576926	5.25402486
1.42	142	0.004	-1.007	-0.011	-0.1145916	0.0572958	0	87.59381904	0.55576926	5.25402486
1.43	143	0.003	-1.009	-0.009	-0.1718874	0	0	87.59381904	0.55576926	5.25975444
1.44	144	0.003	-1.01	-0.009	-0.1718874	0.286479	0	87.58808946	0.55576926	5.25975444
1.45	145	0.004	-1.01	-0.008	-0.286479	0.5156622	0	87.61100778	0.55003968	5.26548402
1.46	146	0.003	-1.012	-0.01	-0.4010706	0.5156622	-0.0572958	87.6052782	0.55576926	5.2712136
1.47	147	0.002	-1.01	-0.011	-0.4583664	0.4583664	-0.1145916	87.59954862	0.55576926	5.27694318
1.48	148	0.002	-1.008	-0.011	-0.4583664	0.286479	-0.1145916	87.59381904	0.55576926	5.27694318
1.49	149	0.001	-1.009	-0.011	-0.572958	0.286479	-0.1718874	87.58808946	0.55576926	5.28267276
1.5	150	0.002	-1.009	-0.011	-0.572958	0.4583664	-0.1718874	87.59381904	0.55576926	5.28840234
1.51	151	0.004	-1.008	-0.012	-0.6302538	0.4583664	-0.1718874	87.58808946	0.55576926	5.28840234
1.52	152	0.005	-1.007	-0.01	-0.6875496	0.4010706	-0.2291832	87.58235988	0.56149884	5.29413192
1.53	153	0.005	-1.008	-0.011	-0.6302538	0.1718874	-0.1718874	87.5766303	0.56149884	5.2998615
1.54	154	0.005	-1.007	-0.012	-0.572958	0	-0.1718874	87.57090072	0.56149884	5.2998615
1.55	155	0.003	-1.006	-0.011	-0.6875496	0.0572958	-0.2291832	87.58235988	0.55576926	5.2998615
1.56	156	0.003	-1.006	-0.009	-0.4583664	0	-0.1718874	87.58235988	0.56149884	5.2998615
1.57	157	0.003	-1.006	-0.009	-0.4583664	-0.0572958	-0.1718874	87.5766303	0.56149884	5.29413192
1.58	158	0.002	-1.008	-0.012	-0.572958	0.0572958	-0.2291832	87.57090072	0.56149884	5.2998615
1.59	159	0.002	-1.008	-0.01	-0.6302538	0	-0.286479	87.56517114	0.56722842	5.2998615
1.6	160	0.004	-1.008	-0.01	-0.6302538	0.1718874	-0.1718874	87.58235988	0.56722842	5.2998615
1.61	161	0.004	-1.009	-0.01	-0.5156622	0.2291832	-0.1718874	87.5766303	0.56722842	5.2998615
1.62	162	0.003	-1.009	-0.008	-0.5156622	0.286479	-0.1718874	87.57090072	0.572958	5.30559108
1.63	163	0.003	-1.009	-0.011	-0.5156622	0.286479	-0.1718874	87.56517114	0.572958	5.30559108
1.64	164	0.003	-1.009	-0.01	-0.5156622	0.1718874	-0.1718874	87.55944156	0.572958	5.31132066
1.65	165	0.003	-1.007	-0.01	-0.4583664	0.1145916	-0.1718874	87.58808946	0.572958	5.31132066
1.66	166	0.002	-1.007	-0.011	-0.2291832	0	-0.2291832	87.58235988	0.572958	5.31132066
1.67	167	0.003	-1.008	-0.008	-0.2291832	0.0572958	-0.1718874	87.58235988	0.57868758	5.31132066
1.68	168	0.004	-1.007	-0.009	-0.2291832	0	-0.1145916	87.5766303	0.57868758	5.31132066
1.69	169	0.004	-1.008	-0.011	-0.1145916	0	-0.1145916	87.5766303	0.57868758	5.31132066
1.7	170	0.004	-1.008	-0.011	-0.2291832	-0.1145916	-0.1145916	87.6052782	0.572958	5.31132066
1.71	171	0.004	-1.008	-0.009	-0.2291832	-0.2291832	-0.1145916	87.6052782	0.572958	5.30559108
1.72	172	0.003	-1.007	-0.01	-0.286479	-0.1145916	-0.1145916	87.59954862	0.57868758	5.30559108
1.73	173	0.003	-1.007	-0.011	-0.3437748	0	-0.0572958	87.59381904	0.57868758	5.30559108
1.74	174	0.004	-1.008	-0.01	-0.3437748	0.0572958	-0.0572958	87.59381904	0.57868758	5.30559108
1.75	175	0.001	-1.008	-0.01	-0.286479	0	-0.0572958	87.6339261	0.56149884	5.30559108
1.76	176	0	-1.008	-0.01	-0.1718874	0.1145916	-0.1145916	87.6339261	0.56149884	5.30559108
1.77	177	0	-1.008	-0.011	-0.0572958	0.286479	-0.1145916	87.6339261	0.56149884	5.31132066
1.78	178	0.001	-1.008	-0.009	-0.0572958	0.4010706	-0.0572958	87.6339261	0.56149884	5.31705024
1.79	179	0.002	-1.008	-0.009	-0.0572958	0.286479	-0.0572958	87.62819652	0.56722842	5.31705024
1.8	180	0.005	-1.007	-0.011	-0.0572958	0.1718874	-0.1145916	87.68549232	0.56722842	5.31705024
1.81	181	0.005	-1.008	-0.009	-0.0572958	0	-0.1145916	87.68549232	0.572958	5.31705024
1.82	182	0.005	-1.008	-0.009	-0.0572958	-0.1145916	-0.1145916	87.67976274	0.572958	5.31705024
1.83	183	0.003	-1.009	-0.012	-0.1718874	-0.1145916	-0.0572958	87.67976274	0.572958	5.31705024
1.84	184	0.002	-1.009	-0.011	-0.1718874	-0.1145916	-0.1145916	87.67976274	0.572958	5.31705024
1.85	185	0.001	-1.008	-0.01	-0.2291832	-0.1718874	-0.0572958	87.71414022	0.56149884	5.31132066
1.86	186	0.001	-1.008	-0.01	-0.1718874	-0.1145916	-0.0572958	87.70841064	0.56149884	5.31132066
1.87	187	0.001	-1.008	-0.009	0	0	-0.0572958	87.70841064	0.56149884	5.31132066
1.88	188	0.002	-1.009	-0.01	0	0	-0.0572958	87.70841064	0.56149884	5.31132066
1.89	189	0.001	-1.007	-0.01	-0.0572958	0	-0.1718874	87.70841064	0.56149884	5.31132066
1.9	190	0.001	-1.007	-0.01	-0.0572958	-0.0572958	-0.1718874	87.74278812	0.56149884	5.31132066
1.91	191	0.003	-1.007	-0.01	0.0572958	0	-0.1145916	87.7485177	0.56149884	5.31132066
1.92	192	0.003	-1.007	-0.01	0	0	-0.1718874	87.7485177	0.56149884	5.31132066
1.93	193	0.002	-1.007	-0.009	0	0.0572958	-0.2291832	87.7485177	0.56722842	5.31132066
1.94	194	0.002	-1.005	-0.009	-0.0572958	0	-0.1718874	87.74278812	0.56722842	5.31132066
1.95	195	0.002	-1.005	-0.009	-0.0572958	0.1145916	-0.1145916	87.77143602	0.56149884	5.31132066
1.96	196	0.002	-1.007	-0.01	0	0.2291832	-0.1718874	87.77143602	0.56149884	5.31705024
1.97	197	0.003	-1.007	-0.01	0	0.2291832	-0.1718874	87.77143602	0.56149884	5.31705024
1.98	198	0.005	-1.009	-0.009	0	0.1718874	-0.1145916	87.77143602	0.56722842	5.31705024
1.99	199	0.005	-1.01	-0.01	-0.0572958	-0.1145916	-0.0572958	87.77143602	0.56722842	5.31705024
2	200	0.005	-1.008	-0.01	-0.0572958	-0.286479	0	87.78862476	0.56149884	5.31705024
2.01	201	0.004	-1.008	-0.013	0	-0.2291832	0.0572958	87.78862476	0.56149884	5.31132066
2.02	202	0.004	-1.007	-0.013	0	-0.286479	0.0572958	87.78862476	0.55576926	5.31132066
2.03	203	0.004	-1.006	-0.011	0	-0.4010706	0	87.78862476	0.55576926	5.30559108
2.04	204	0.003	-1.006	-0.012	0	-0.4583664	0	87.78862476	0.55576926	5.2998615
2.05	205	0.002	-1.009	-0.011	0	-0.5156622	-0.1145916	87.8058135	0.55576926	5.29413192
2.06	206	0.002	-1.008	-0.01	0.0572958	-0.5156622	-0.1718874	87.8058135	0.56149884	5.28840234
2.07	207	0.003	-1.007	-0.011	0.0572958	-0.3437748	-0.2291832	87.8058135	0.56149884	5.28267276
2.08	208	0.004	-1.007	-0.011	0.1718874	-0.2291832	-0.1145916	87.8058135	0.56149884	5.28267276
2.09	209	0.005	-1.007	-0.011	0.2291832	-0.2291832	-0.1145916	87.81154308	0.56149884	5.28267276
2.1	210	0.005	-1.008	-0.011	0.1718874	-0.2291832	-0.1145916	87.8344614	0.56722842	5.27694318
2.11	211	0.005	-1.007	-0.01	0.1718874	-0.0572958	0	87.84019098	0.56722842	5.27694318
2.12	212	0.004	-1.007	-0.011	0.1718874	0	-0.0572958	87.84019098	0.56722842	5.27694318
2.13	213	0.003	-1.006	-0.011	0.2291832	0	-0.1145916	87.84019098	0.56722842	5.27694318
2.14	214	0.002	-1.005	-0.012	0.2291832	0	-0.1145916	87.84592056	0.56722842	5.27694318
2.15	215	0.002	-1.003	-0.012	0.2291832	0	-0.1145916	87.85165014	0.56149884	5.27694318
2.16	216	0.002	-1.004	-0.011	0.286479	-0.0572958	0	87.85165014	0.56149884	5.27694318
2.17	217	0.003	-1.006	-0.01	0.2291832	-0.3437748	0	87.85737972	0.56149884	5.2712136
2.18	218	0.003	-1.007	-0.011	0.1145916	-0.4583664	0	87.85737972	0.56149884	5.2712136
2.19	219	0.004	-1.008	-0.011	0.1145916	-0.4583664	0	87.85737972	0.56149884	5.26548402
2.2	220	0.002	-1.01	-0.009	0.1145916	-0.286479	0	87.90321636	0.53858052	5.25975444
2.21	221	0.002	-1.01	-0.007	0	0	-0.0572958	87.90321636	0.53858052	5.25975444
2.22	222	0.002	-1.011	-0.008	-0.0572958	0.1145916	-0.0572958	87.89748678	0.53858052	5.25975444
2.23	223	0.003	-1.01	-0.01	0	0	0	87.89748678	0.53858052	5.26548402
2.24	224	0.002	-1.009	-0.01	0.0572958	0.0572958	-0.1145916	87.90321636	0.5443101	5.26548402
2.25	225	0.003	-1.008	-0.01	0.0572958	0.1718874	-0.1718874	87.9204051	0.53858052	5.26548402
2.26	226	0.003	-1.007	-0.01	0.0572958	0.1145916	-0.1718874	87.9204051	0.5443101	5.26548402
2.27	227	0.004	-1.007	-0.01	0.0572958	0.0572958	-0.1718874	87.9204051	0.5443101	5.26548402
2.28	228	0.004	-1.007	-0.01	0.1145916	0.1145916	-0.1145916	87.9204051	0.5443101	5.2712136
2.29	229	0.004	-1.008	-0.01	0.1718874	0.0572958	-0.0572958	87.92613468	0.5443101	5.2712136
2.3	230	0.004	-1.008	-0.009	0.2291832	0.0572958	-0.0572958	87.94332342	0.5443101	5.2712136
2.31	231	0.004	-1.009	-0.009	0.1718874	0.0572958	-0.0572958	87.949053	0.5443101	5.2712136
2.32	232	0.003	-1.007	-0.008	0.0572958	0	-0.1718874	87.949053	0.5443101	5.2712136
2.33	233	0.003	-1.007	-0.006	0	0	-0.1718874	87.949053	0.55003968	5.2712136
2.34	234	0.004	-1.007	-0.008	0.0572958	0.1145916	-0.1718874	87.949053	0.55003968	5.2712136
2.35	235	0.006	-1.007	-0.009	0	0.2291832	-0.2291832	87.95478258	0.56149884	5.27694318
2.36	236	0.006	-1.007	-0.009	0	0.1718874	-0.1145916	87.95478258	0.56149884	5.27694318
2.37	237	0.005	-1.007	-0.008	0	0.2291832	-0.0572958	87.95478258	0.56149884	5.27694318
2.38	238	0.005	-1.007	-0.007	0	0.1145916	0	87.95478258	0.56149884	5.28267276
2.39	239	0.004	-1.008	-0.008	0	0.1718874	0	87.95478258	0.56149884	5.28267276
2.4	240	0.005	-1.008	-0.008	0	0.286479	-0.0572958	87.9777009	0.56149884	5.28267276
2.41	241	0.006	-1.007	-0.008	0	0.1145916	0	87.9777009	0.56149884	5.28840234
2.42	242	0.006	-1.006	-0.008	0	0	-0.0572958	87.9777009	0.56722842	5.28840234
2.43	243	0.005	-1.006	-0.008	0	0.0572958	-0.1145916	87.9777009	0.56722842	5.28840234
2.44	244	0.004	-1.008	-0.009	0.1145916	0	-0.0572958	87.9777009	0.56722842	5.28840234
2.45	245	0.004	-1.008	-0.01	0.0572958	0	-0.1718874	87.98343048	0.56722842	5.28840234
2.46	246	0.003	-1.009	-0.012	0.0572958	0	-0.1718874	87.98343048	0.572958	5.28840234
2.47	247	0.004	-1.007	-0.007	0.0572958	-0.0572958	-0.2291832	87.98343048	0.572958	5.28840234
2.48	248	0.004	-1.006	-0.008	0.1145916	-0.0572958	-0.2291832	87.98343048	0.57868758	5.28267276
2.49	249	0.004	-1.006	-0.009	0	0	-0.2291832	87.98343048	0.57868758	5.28267276
2.5	250	0.006	-1.007	-0.009	0	0.0572958	-0.2291832	87.99488964	0.59014674	5.28267276
2.51	251	0.007	-1.007	-0.01	0.1145916	0.0572958	-0.1145916	88.00061922	0.59014674	5.28840234
2.52	252	0.006	-1.007	-0.009	0.1145916	0.1145916	-0.1145916	88.00061922	0.59014674	5.28840234
2.53	253	0.006	-1.006	-0.01	0.1145916	0.286479	-0.1145916	88.00061922	0.59587632	5.28840234
2.54	254	0.004	-1.01	-0.008	0.1145916	0.286479	0	88.00061922	0.59587632	5.29413192
2.55	255	0.004	-1.008	-0.01	0.0572958	0.2291832	0	88.01780796	0.59587632	5.29413192
2.56	256	0.003	-1.007	-0.01	0.1145916	0.1145916	0	88.01780796	0.59587632	5.29413192
2.57	257	0.003	-1.007	-0.01	0.2291832	0.1145916	-0.0572958	88.01780796	0.59587632	5.2998615
2.58	258	0.004	-1.007	-0.01	0.2291832	0.1718874	-0.1145916	88.02353754	0.59587632	5.2998615
2.59	259	0.006	-1.009	-0.009	0.1145916	0.1718874	0	88.02353754	0.59587632	5.2998615
2.6	260	0.006	-1.006	-0.008	0.1718874	0.1718874	0	88.0349967	0.59587632	5.30559108
2.61	261	0.007	-1.008	-0.009	0.1718874	0.1145916	0.0572958	88.0349967	0.59587632	5.30559108
2.62	262	0.006	-1.008	-0.008	0.1145916	0.1718874	0.0572958	88.0349967	0.59587632	5.30559108
2.63	263	0.006	-1.009	-0.008	0.1145916	0.1145916	0	88.04072628	0.59587632	5.31132066
2.64	264	0.005	-1.009	-0.009	0.1145916	0.1145916	0.0572958	88.04072628	0.59587632	5.31132066
2.65	265	0.004	-1.009	-0.008	0.1145916	0.0572958	0	88.05791502	0.59014674	5.31132066
2.66	266	0.004	-1.01	-0.007	0.0572958	0	0.0572958	88.05791502	0.59014674	5.31132066
2.67	267	0.005	-1.011	-0.006	-0.0572958	0.0572958	0	88.05791502	0.59014674	5.31132066
2.68	268	0.006	-1.011	-0.006	0	0.1718874	0	88.05791502	0.59014674	5.31132066
2.69	269	0.008	-1.01	-0.003	-0.0572958	0.0572958	0	88.05791502	0.59014674	5.31705024
2.7	270	0.008	-1.009	-0.004	-0.1718874	0.1145916	0	88.06937418	0.59587632	5.31705024
2.71	271	0.007	-1.009	-0.005	-0.1718874	0.286479	0	88.06937418	0.59587632	5.31705024
2.72	272	0.007	-1.008	-0.003	-0.1718874	0.286479	-0.0572958	88.06937418	0.59587632	5.32277982
2.73	273	0.006	-1.008	-0.002	-0.286479	0.1145916	0	88.0636446	0.59587632	5.32277982
2.74	274	0.005	-1.008	-0.003	-0.3437748	0.0572958	0	88.0636446	0.59587632	5.32277982
2.75	275	0.006	-1.009	-0.003	-0.4010706	0.1145916	0	88.08656292	0.6016059	5.32277982
2.76	276	0.007	-1.009	-0.002	-0.4583664	0.1145916	0.0572958	88.08083334	0.6016059	5.3285094
2.77	277	0.008	-1.008	-0.005	-0.5156622	0.1718874	0.0572958	88.07510376	0.6016059	5.3285094
2.78	278	0.008	-1.009	-0.006	-0.5156622	0.2291832	0	88.06937418	0.6016059	5.33423898
2.79	279	0.009	-1.007	-0.005	-0.4583664	0.1145916	0.1145916	88.0636446	0.59587632	5.33423898
2.8	280	0.008	-1.008	-0.005	-0.5156622	0.1145916	0.0572958	88.07510376	0.6016059	5.33423898
2.81	281	0.008	-1.008	-0.004	-0.5156622	0.1145916	0.0572958	88.06937418	0.6016059	5.33423898
2.82	282	0.008	-1.011	-0.005	-0.4583664	0.0572958	0.0572958	88.0636446	0.6016059	5.33423898
2.83	283	0.008	-1.012	-0.006	-0.572958	0	0	88.05791502	0.6016059	5.33423898
2.84	284	0.007	-1.012	-0.005	-0.6875496	0.0572958	0	88.05218544	0.6016059	5.33423898
2.85	285	0.007	-1.011	-0.005	-0.7448454	0.0572958	0	88.05218544	0.6016059	5.33996856
2.86	286	0.007	-1.008	-0.004	-0.8021412	0.2291832	0.1145916	88.04645586	0.6016059	5.33996856
2.87	287	0.007	-1.007	-0.004	-1.0313244	0.4583664	0.2291832	88.0349967	0.6016059	5.34569814
2.88	288	0.007	-1.007	-0.004	-1.0886202	0.572958	0.2291832	88.02353754	0.59587632	5.35142772
2.89	289	0.008	-1.011	-0.006	-1.0313244	0.6875496	0.1145916	88.01207838	0.59587632	5.3571573
2.9	290	0.01	-1.012	-0.008	-0.9167328	0.4010706	0.1718874	88.0063488	0.6016059	5.36288688
2.91	291	0.01	-1.012	-0.005	-1.0313244	0.1145916	0.286479	87.99488964	0.59587632	5.36288688
2.92	292	0.008	-1.012	-0.005	-1.2032118	0	0.3437748	87.98343048	0.59014674	5.36288688
2.93	293	0.009	-1.011	-0.008	-1.2032118	0.1145916	0.4010706	87.97197132	0.59014674	5.36288688
2.94	294	0.009	-1.01	-0.009	-1.145916	0	0.4010706	87.96051216	0.58441716	5.36288688
2.95	295	0.009	-1.008	-0.007	-0.9167328	0	0.4583664	87.95478258	0.58441716	5.36288688
2.96	296	0.009	-1.008	-0.007	-0.9167328	0	0.4010706	87.949053	0.57868758	5.36288688
2.97	297	0.008	-1.006	-0.008	-0.9167328	-0.0572958	0.4583664	87.93759384	0.572958	5.36288688
2.98	298	0.006	-1.006	-0.008	-0.859437	-0.1145916	0.4010706	87.93186426	0.56722842	5.36288688
2.99	299	0.006	-1.004	-0.008	-0.859437	0	0.286479	87.9204051	0.56722842	5.36288688
3	300	0.007	-1.003	-0.01	-0.8021412	0.2291832	0.1718874	87.91467552	0.572958	5.36288688
3.01	301	0.009	-1.002	-0.013	-0.6875496	0.286479	0.286479	87.90894594	0.56722842	5.36861646
3.02	302	0.01	-1.003	-0.012	-0.5156622	0.2291832	0.286479	87.90321636	0.56722842	5.36861646
3.03	303	0.01	-1.004	-0.013	-0.4583664	0.2291832	0.3437748	87.89748678	0.56149884	5.37434604
3.04	304	0.008	-1.004	-0.012	-0.3437748	0.1718874	0.4010706	87.8917572	0.55576926	5.37434604
3.05	305	0.007	-1.005	-0.012	-0.4010706	0.3437748	0.4583664	87.8917572	0.55576926	5.38007562
3.06	306	0.007	-1.005	-0.012	-0.3437748	0.3437748	0.4010706	87.88602762	0.55003968	5.38007562
3.07	307	0.005	-1.006	-0.014	-0.3437748	0.286479	0.4583664	87.88602762	0.5443101	5.3858052
3.08	308	0.005	-1.006	-0.015	-0.286479	0.286479	0.5156622	87.88029804	0.53858052	5.3858052
3.09	309	0.006	-1.007	-0.014	-0.2291832	0.2291832	0.5156622	87.88029804	0.53285094	5.39153478
3.1	310	0.006	-1.008	-0.014	-0.2291832	0.1145916	0.5156622	87.87456846	0.53858052	5.39153478
3.11	311	0.007	-1.008	-0.013	-0.286479	0.1718874	0.5156622	87.86883888	0.53285094	5.39153478
3.12	312	0.005	-1.008	-0.015	0.2291832	0.1718874	0.2291832	87.87456846	0.52712136	5.39726436
3.13	313	0.006	-1.007	-0.014	0.2291832	0.2291832	0.1718874	87.87456846	0.52712136	5.39726436
3.14	314	0.006	-1.008	-0.014	0.286479	0.2291832	0.1718874	87.88029804	0.52712136	5.40299394
3.15	315	0.007	-1.009	-0.014	0.286479	0	0.2291832	87.88602762	0.5443101	5.40299394
3.16	316	0.008	-1.008	-0.015	0.0572958	0	0.1145916	87.88602762	0.5443101	5.40299394
3.17	317	0.009	-1.006	-0.015	0	0.1145916	0.0572958	87.88602762	0.5443101	5.40299394
3.18	318	0.011	-1.004	-0.015	0	0.2291832	0.1145916	87.88602762	0.53858052	5.40299394
3.19	319	0.013	-1.002	-0.017	0	0.1718874	0.2291832	87.88602762	0.53858052	5.40872352
3.2	320	0.014	-1.001	-0.018	0.1718874	0.0572958	0.4010706	87.88029804	0.55576926	5.40872352
3.21	321	0.014	-1.003	-0.019	0.3437748	-0.0572958	0.6302538	87.88029804	0.55003968	5.40872352
3.22	322	0.011	-1.004	-0.021	0.5156622	-0.1718874	0.6875496	87.88602762	0.5443101	5.40299394
3.23	323	0.006	-1.007	-0.017	0.572958	-0.286479	0.572958	87.8917572	0.53858052	5.40299394
3.24	324	0.004	-1.009	-0.015	0.4583664	0	0.5156622	87.89748678	0.53285094	5.40299394
3.25	325	0.001	-1.012	-0.015	0.2291832	0	0.3437748	87.90321636	0.52139178	5.40299394
3.26	326	0	-1.012	-0.009	0.286479	-0.286479	0.286479	87.90894594	0.5156622	5.39726436
3.27	327	0.001	-1.009	-0.012	0.2291832	-0.2291832	0.1718874	87.90894594	0.5156622	5.39726436
3.28	328	0.002	-1.006	-0.013	0.0572958	-0.1718874	0	87.90894594	0.5156622	5.39726436
3.29	329	0.003	-1.006	-0.009	0	-0.0572958	-0.0572958	87.90894594	0.5156622	5.39153478
3.3	330	0.003	-1.01	-0.009	-0.1718874	-0.0572958	-0.1145916	87.92613468	0.5156622	5.39153478
3.31	331	0.004	-1.014	-0.006	-0.4583664	-0.286479	-0.1145916	87.9204051	0.5156622	5.39153478
3.32	332	0.003	-1.017	-0.002	-0.9740286	-0.4010706	-0.0572958	87.91467552	0.5156622	5.3858052
3.33	333	0.003	-1.017	-0.003	-1.6615782	-0.3437748	0	87.89748678	0.5156622	5.38007562
3.34	334	0.003	-1.017	-0.003	-2.1199446	-0.4010706	0	87.87456846	0.5156622	5.37434604
3.35	335	0.001	-1.017	-0.003	-2.4064236	-0.572958	0	87.85737972	0.50993262	5.36861646
3.36	336	0.001	-1.017	-0.003	-2.7501984	-0.4583664	-0.0572958	87.82873182	0.5156622	5.36861646
3.37	337	0	-1.019	-0.004	-2.9793816	0	-0.286479	87.80008392	0.5156622	5.36288688
3.38	338	0.002	-1.018	-0.007	-3.151269	0.2291832	-0.4010706	87.76570644	0.52139178	5.36861646
3.39	339	0.004	-1.016	-0.009	-3.3231564	0.1145916	-0.3437748	87.73132896	0.52139178	5.36861646
3.4	340	0.006	-1.013	-0.011	-3.3804522	0.1145916	-0.286479	87.70268106	0.52712136	5.36861646
3.41	341	0.005	-1.01	-0.012	-3.437748	0.1718874	-0.286479	87.662574	0.53285094	5.36861646
3.42	342	0.005	-1.008	-0.015	-3.3231564	0.1718874	-0.1718874	87.6339261	0.53285094	5.37434604
3.43	343	0.005	-1.007	-0.02	-3.0939732	0.1718874	-0.1145916	87.59954862	0.53285094	5.37434604
3.44	344	0.006	-1.005	-0.024	-2.7501984	0.4010706	-0.1145916	87.57090072	0.53285094	5.38007562
3.45	345	0.007	-1.003	-0.031	-2.1199446	0.8021412	-0.1145916	87.54225282	0.53858052	5.3858052
3.46	346	0.009	-0.998	-0.036	-1.5469866	1.2605076	-0.1718874	87.52506408	0.53858052	5.39726436
3.47	347	0.01	-0.992	-0.041	-0.6302538	1.8907614	-0.1145916	87.5193345	0.5443101	5.4144531
3.48	348	0.011	-0.986	-0.048	0.3437748	2.578311	-0.1145916	87.5193345	0.5443101	5.443101
3.49	349	0.011	-0.981	-0.058	1.3750992	3.2085648	0	87.53652324	0.5443101	5.4717489
3.5	350	0.011	-0.978	-0.067	2.4637194	4.010706	0.0572958	87.54225282	0.5443101	5.51185596
3.51	351	0.011	-0.978	-0.075	3.7815228	4.6409598	0.1718874	87.58235988	0.5443101	5.56342218
3.52	352	0.011	-0.985	-0.077	4.7555514	4.9847346	0.1718874	87.62819652	0.5443101	5.60925882
3.53	353	0.012	-0.991	-0.074	5.0993262	5.0993262	0.4010706	87.67976274	0.53858052	5.66082504
3.54	354	0.015	-1.007	-0.064	4.5263682	5.2139178	0.572958	87.72559938	0.53858052	5.71239126
3.55	355	0.016	-1.019	-0.05	2.578311	5.2712136	0.859437	87.7485177	0.53285094	5.76968706
3.56	356	0.011	-1.028	-0.032	-0.1145916	4.7555514	1.145916	87.74278812	0.52139178	5.8155237
3.57	357	0.006	-1.035	-0.014	-3.437748	4.583664	1.3178034	87.70841064	0.50993262	5.86136034
3.58	358	0.01	-1.042	-0.008	-6.9327918	5.2712136	1.6615782	87.63965568	0.49274388	5.91292656
3.59	359	0.023	-1.046	0.001	-10.313244	5.0993262	1.8907614	87.53079366	0.46982556	5.96449278
3.6	360	0.028	-1.044	0.004	-13.464513	3.4950438	2.1772404	87.39901332	0.45263682	5.99887026
3.61	361	0.019	-1.05	-0.016	-16.1001198	1.6615782	2.1199446	87.2328555	0.4297185	6.016059
3.62	362	0.004	-1.056	-0.021	-17.7044022	1.718874	1.7761698	87.05523852	0.41252976	6.02751816
3.63	363	-0.004	-1.064	-0.012	-18.7930224	2.4064236	0.859437	86.86616238	0.4010706	6.05043648
3.64	364	-0.01	-1.075	-0.003	-19.7097552	2.005353	-0.2291832	86.66562708	0.4010706	6.06762522
3.65	365	-0.018	-1.086	0.008	-21.4286292	1.2605076	-1.432395	86.44790304	0.41252976	6.07908438
3.66	366	-0.025	-1.098	0.016	-23.6631654	1.2032118	-2.4064236	86.20726068	0.43544808	6.09054354
3.67	367	-0.022	-1.097	0.023	-26.642547	1.4896908	-3.0366774	85.93797042	0.46409598	6.09627312
3.68	368	-0.01	-1.09	0.024	-29.507337	0.7448454	-3.0939732	85.64003226	0.49274388	6.1020027
3.69	369	0	-1.079	0.015	-31.9710564	-0.7448454	-2.86479	85.3134462	0.5156622	6.08481396
3.7	370	0.001	-1.078	0.004	-33.1742682	-0.7448454	-2.7501984	84.98113056	0.5443101	6.0733548
3.71	371	0.001	-1.069	-0.003	-35.236917	0.2291832	-2.5210152	84.6258966	0.56149884	6.06762522
3.72	372	0	-1.07	-0.005	-36.382833	1.0313244	-2.6929026	84.2534739	0.59014674	6.0733548
3.73	373	0.001	-1.071	0.001	-37.8725238	1.0886202	-3.0939732	83.86959204	0.61879464	6.07908438
3.74	374	0	-1.062	0	-39.8778768	0.4010706	-3.5523396	83.46279186	0.64744254	6.0733548
3.75	375	0.001	-1.056	-0.003	-40.966497	-0.2291832	-3.8961144	83.05599168	0.68182002	6.06189564
3.76	376	0.001	-1.048	-0.012	-43.2010332	-1.0886202	-4.010706	82.61481402	0.7161975	6.03897732
3.77	377	0.003	-1.041	-0.012	-44.977203	-1.7761698	-4.2398892	82.15644762	0.75630456	6.01032942
3.78	378	0.009	-1.04	-0.019	-46.3523022	-2.1772404	-4.1825934	81.68662206	0.79068204	5.98168152
3.79	379	-0.002	-1.044	-0.032	-47.841993	-2.6356068	-4.0680018	81.19960776	0.81932994	5.94157446
3.8	380	0.003	-1.065	-0.034	-50.5348956	-3.3231564	-5.443101	80.68967514	0.86516658	5.89573782
3.81	381	0.006	-1.066	-0.041	-54.0299394	-4.0680018	-6.016059	80.14536504	0.91100322	5.8441716
3.82	382	0.005	-1.06	-0.059	-56.5509546	-4.8128472	-6.589017	79.56667746	0.96829902	5.77541664
3.83	383	0.004	-1.06	-0.06	-58.6708992	-5.443101	-7.5057498	78.97080114	1.02559482	5.70666168
3.84	384	0.006	-1.065	-0.063	-61.1346186	-6.2452422	-8.0787078	78.3520065	1.0886202	5.62071798
3.85	385	0.002	-1.066	-0.068	-64.9161414	-7.0473834	-9.1100322	77.6931048	1.15737516	5.5290447
3.86	386	-0.004	-1.066	-0.072	-68.8695516	-7.1046792	-10.2559482	76.99409604	1.23758928	5.43164184
3.87	387	-0.005	-1.063	-0.082	-71.333271	-6.4171296	-11.0007936	76.26643938	1.32353298	5.33996856
3.88	388	-0.01	-1.079	-0.088	-73.5678072	-5.6722842	-11.4018642	75.52159398	1.40947668	5.24829528
3.89	389	-0.005	-1.083	-0.105	-77.8076964	-5.0420304	-11.4018642	74.73091194	1.50114996	5.16235158
3.9	390	0.001	-1.079	-0.119	-81.7611066	-5.2139178	-11.0580894	73.90012284	1.58709366	5.07640788
3.91	391	0.006	-1.069	-0.121	-85.084263	-5.443101	-10.886202	73.03495626	1.66730778	4.9847346
3.92	392	0.014	-1.071	-0.13	-87.5479824	-5.443101	-10.886202	72.14687136	1.74179232	4.89306132
3.93	393	0.018	-1.061	-0.14	-91.5013926	-4.9274388	-10.7143146	71.21294982	1.82200644	4.80711762
3.94	394	0.015	-1.053	-0.159	-93.965112	-4.1825934	-10.599723	70.25610996	1.89649098	4.7269035
3.95	395	0.017	-1.047	-0.172	-96.1996482	-3.8961144	-10.0840608	69.28208136	1.96524594	4.64668938
3.96	396	0.017	-1.044	-0.192	-97.2882684	-3.437748	-9.6256944	68.2965936	2.0340009	4.57220484
3.97	397	0.011	-1.059	-0.196	-98.835255	-2.578311	-8.1932994	67.28818752	2.0912967	4.50917946
3.98	398	0.009	-1.034	-0.217	-101.5281576	-1.9480572	-7.0473834	66.25686312	2.13713334	4.45761324
3.99	399	0.009	-1.004	-0.237	-102.273003	-1.5469866	-6.589017	65.21407956	2.1772404	4.40604702
4	400	0.011	-0.989	-0.273	-102.1011156	-1.4896908	-6.2452422	64.18275516	2.21161788	4.36021038
4.01	401	0.02	-0.968	-0.298	-102.4448904	-1.432395	-6.1879464	63.1399716	2.25172494	4.31437374
4.02	402	0.021	-0.94	-0.313	-101.700045	-1.7761698	-6.302538	62.1086472	2.28610242	4.26280752
4.03	403	0.025	-0.908	-0.334	-99.981171	-2.291832	-6.0733548	61.08878196	2.31475032	4.20551172
4.04	404	0.032	-0.897	-0.361	-97.8612264	-2.2345362	-6.4744254	60.09183504	2.3491278	4.14821592
4.05	405	0.029	-0.878	-0.392	-97.0017894	-1.6042824	-7.6776372	59.11207686	2.39496444	4.09092012
4.06	406	0.031	-0.879	-0.433	-94.3088868	-1.2605076	-8.59437	58.14950742	2.45226024	4.02789474
4.07	407	0.032	-0.893	-0.449	-92.0743506	-1.2605076	-8.9954406	57.2098563	2.50955604	3.96486936
4.08	408	0.033	-0.859	-0.497	-91.4440968	-2.4064236	-8.7089616	56.28166434	2.55539268	3.8961144
4.09	409	0.032	-0.85	-0.51	-86.3447706	-3.8388186	-7.9068204	55.39930902	2.58977016	3.8101707
4.1	410	0.032	-0.848	-0.534	-84.1675302	-4.2398892	-8.0787078	54.5456016	2.61841806	3.72995658
4.11	411	0.061	-0.791	-0.569	-83.938347	-4.2398892	-9.1100322	53.69189418	2.65852512	3.6382833
4.12	412	0.053	-0.857	-0.591	-77.5785132	-3.8961144	-7.734933	52.90121214	2.68717302	3.5523396
4.13	413	0.055	-0.866	-0.63	-79.5265704	-3.8388186	-5.5003968	52.08761178	2.69863218	3.48931422
4.14	414	0.054	-0.843	-0.67	-77.5212174	-4.2398892	-3.9534102	51.29692974	2.6929026	3.42628884
4.15	415	0.052	-0.841	-0.688	-74.6564274	-4.583664	-3.151269	50.54062518	2.68144344	3.36899304
4.16	416	0.054	-0.834	-0.708	-72.3072996	-4.297185	-3.0366774	49.80150936	2.66998428	3.31169724
4.17	417	0.058	-0.829	-0.733	-70.5884256	-3.4950438	-3.3231564	49.08531186	2.6642547	3.26013102
4.18	418	0.066	-0.824	-0.759	-69.5571012	-3.4950438	-3.0939732	48.37484394	2.65279554	3.2085648
4.19	419	0.07	-0.818	-0.782	-68.8695516	-3.151269	-2.86479	47.67583518	2.64706596	3.16272816
4.2	420	0.076	-0.806	-0.791	-67.609044	-3.2658606	-2.7501984	46.982556	2.6356068	3.11689152
4.21	421	0.082	-0.794	-0.808	-66.8641986	-3.7815228	-2.4637194	46.30646556	2.61841806	3.07105488
4.22	422	0.085	-0.778	-0.826	-66.1193532	-4.010706	-2.5210152	45.63037512	2.60122932	3.02521824
4.23	423	0.086	-0.76	-0.846	-65.1453246	-4.583664	-2.4064236	44.96574384	2.578311	2.96792244
4.24	424	0.07	-0.737	-0.855	-63.884817	-5.0993262	-2.4637194	44.3183013	2.5496631	2.91635622
4.25	425	0.054	-0.718	-0.857	-61.2492102	-4.870143	-2.005353	43.6880475	2.52674478	2.86479
4.26	426	0.049	-0.704	-0.865	-59.587632	-4.9847346	-1.5469866	43.0864416	2.4923673	2.81895336
4.27	427	0.049	-0.68	-0.883	-57.582279	-4.7555514	-1.145916	42.49629486	2.45798982	2.77311672
4.28	428	0.041	-0.679	-0.881	-53.9153478	-4.2398892	-0.572958	41.95198476	2.42361234	2.73873924
4.29	429	0.044	-0.665	-0.88	-51.9099948	-3.724227	-0.0572958	41.4248634	2.38923486	2.71582092
4.3	430	0.042	-0.651	-0.875	-48.6441342	-3.4950438	0.2291832	40.92066036	2.35485738	2.6929026
4.31	431	0.037	-0.638	-0.875	-45.4355694	-2.8074942	0.4583664	40.46229396	2.32620948	2.67571386
4.32	432	0.028	-0.625	-0.871	-41.7113424	-1.8334656	0.5156622	40.03830504	2.30329116	2.6642547
4.33	433	0.018	-0.619	-0.864	-37.4714532	-0.5156622	0.3437748	39.65442318	2.291832	2.6642547
4.34	434	0.007	-0.618	-0.867	-34.6066632	0.4583664	0.3437748	39.3049188	2.28610242	2.66998428
4.35	435	-0.001	-0.619	-0.866	-32.2002396	1.0886202	0.7448454	38.96687358	2.28037284	2.68144344
4.36	436	-0.007	-0.619	-0.856	-29.7365202	2.005353	1.3178034	38.66893542	2.28610242	2.70436176
4.37	437	-0.007	-0.615	-0.849	-27.9030546	3.2658606	1.718874	38.388186	2.29756158	2.73873924
4.38	438	-0.003	-0.609	-0.844	-26.356068	4.583664	2.0626488	38.11889574	2.31475032	2.78457588
4.39	439	0.001	-0.6	-0.836	-24.6944898	5.5003968	2.1199446	37.8725238	2.33766864	2.8361421
4.4	440	0.009	-0.591	-0.831	-23.1475032	7.0473834	2.1199446	37.63188144	2.37204612	2.89916748
4.41	441	0.016	-0.58	-0.825	-21.199446	8.8235532	2.005353	37.4141574	2.42361234	2.96792244
4.42	442	0.024	-0.571	-0.827	-19.767051	9.8548776	1.9480572	37.21935168	2.48663772	3.04813656
4.43	443	0.027	-0.562	-0.821	-18.1627686	10.599723	2.1199446	37.03600512	2.55539268	3.12835068
4.44	444	0.033	-0.557	-0.815	-16.3865988	10.9434978	2.3491278	36.8698473	2.61841806	3.21429438
4.45	445	0.034	-0.553	-0.811	-15.1260912	10.886202	2.7501984	36.70941906	2.68717302	3.30596766
4.46	446	0.035	-0.548	-0.8	-13.5791046	10.599723	3.2085648	36.57763872	2.74446882	3.39764094
4.47	447	0.036	-0.549	-0.791	-12.1467096	10.3705398	3.4950438	36.45731754	2.8074942	3.48931422
4.48	448	0.04	-0.548	-0.781	-11.2872726	10.2559482	3.437748	36.34272594	2.86479	3.57525792
4.49	449	0.043	-0.548	-0.768	-10.2559482	10.4851314	3.3804522	36.2395935	2.9220858	3.6669312
4.5	450	0.048	-0.548	-0.765	-9.8548776	10.886202	2.9220858	36.14219064	2.99084076	3.75860448
4.51	451	0.05	-0.549	-0.764	-9.5683986	11.2299768	2.4064236	36.04478778	3.05959572	3.84454818
4.52	452	0.053	-0.552	-0.757	-8.9954406	11.5164558	1.7761698	35.95884408	3.13980984	3.93049188
4.53	453	0.054	-0.549	-0.745	-8.4797784	12.032118	1.0886202	35.87290038	3.22575354	4.010706
4.54	454	0.056	-0.553	-0.744	-7.8495246	12.318597	0.3437748	35.79841584	3.3231564	4.09092012
4.55	455	0.058	-0.551	-0.747	-7.9068204	12.2613012	-0.0572958	35.71820172	3.41482968	4.15967508
4.56	456	0.064	-0.546	-0.757	-7.8495246	11.9175264	-0.4583664	35.6379876	3.51223254	4.22843004
4.57	457	0.069	-0.536	-0.747	-7.2192708	11.5164558	-0.4010706	35.56923264	3.60390582	4.297185
4.58	458	0.078	-0.528	-0.744	-6.4744254	11.0007936	-0.572958	35.50620726	3.6955791	4.3544808
4.59	459	0.083	-0.526	-0.745	-5.9014674	9.9121734	-0.8021412	35.44891146	3.77579322	4.40604702
4.6	460	0.084	-0.527	-0.741	-5.0993262	8.9381448	-0.9740286	35.39161566	3.85600734	4.45188366
4.61	461	0.081	-0.528	-0.742	-4.6409598	8.307891	-1.2605076	35.34577902	3.93049188	4.49199072
4.62	462	0.079	-0.532	-0.747	-4.4117766	7.734933	-1.5469866	35.29994238	3.99924684	4.5263682
4.63	463	0.069	-0.535	-0.741	-4.1252976	7.1046792	-1.6042824	35.25983532	4.06227222	4.5550161
4.64	464	0.061	-0.537	-0.741	-3.5523396	6.7609044	-1.432395	35.22545784	4.1252976	4.583664
4.65	465	0.061	-0.538	-0.739	-3.3231564	5.7868758	-1.3178034	35.18535078	4.17686382	4.60658232
4.66	466	0.061	-0.535	-0.741	-3.151269	5.443101	-1.2032118	35.15670288	4.22843004	4.62950064
4.67	467	0.064	-0.541	-0.744	-2.9220858	5.3858052	-1.145916	35.12805498	4.27426668	4.65241896
4.68	468	0.068	-0.549	-0.74	-2.8074942	4.870143	-1.0313244	35.09940708	4.32010332	4.6696077
4.69	469	0.067	-0.55	-0.734	-3.3231564	4.7555514	-0.572958	35.0650296	4.36021038	4.69252602
4.7	470	0.061	-0.55	-0.73	-3.9534102	4.1252976	0.1145916	35.03065212	4.38885828	4.72117392
4.71	471	0.053	-0.546	-0.727	-4.5263682	3.6096354	0.9740286	34.98481548	4.4117766	4.74982182
4.72	472	0.042	-0.544	-0.73	-4.7555514	4.010706	1.8334656	34.93897884	4.43469492	4.78992888
4.73	473	0.04	-0.546	-0.735	-4.8128472	4.8128472	2.578311	34.8931422	4.45761324	4.8414951
4.74	474	0.04	-0.55	-0.72	-4.1825934	4.6409598	3.3804522	34.85303514	4.47480198	4.89306132
4.75	475	0.037	-0.557	-0.709	-4.1825934	4.0680018	3.6669312	34.82438724	4.47480198	4.95035712
4.76	476	0.031	-0.561	-0.709	-4.8128472	4.1825934	3.9534102	34.7785506	4.48626114	5.00765292
4.77	477	0.023	-0.557	-0.704	-5.5576926	4.0680018	4.3544808	34.72698438	4.49199072	5.06494872
4.78	478	0.019	-0.557	-0.701	-5.443101	3.8388186	4.583664	34.67541816	4.4977203	5.1279741
4.79	479	0.019	-0.56	-0.691	-5.5576926	4.4117766	4.297185	34.62385194	4.50344988	5.19099948
4.8	480	0.026	-0.568	-0.679	-6.1879464	5.3285094	4.0680018	34.5780153	4.51490904	5.25402486
4.81	481	0.029	-0.58	-0.684	-7.2192708	5.9014674	4.1825934	34.50926034	4.53782736	5.32277982
4.82	482	0.027	-0.588	-0.692	-8.5370742	6.9900876	4.4117766	34.42331664	4.56647526	5.40299394
4.83	483	0.025	-0.59	-0.689	-9.6829902	8.021412	4.7555514	34.33164336	4.60658232	5.48893764
4.84	484	0.021	-0.588	-0.686	-11.0580894	8.1932994	5.2139178	34.22851092	4.6409598	5.58061092
4.85	485	0.016	-0.58	-0.677	-12.7769634	8.4224826	5.6149884	34.11391932	4.6696077	5.6722842
4.86	486	0.018	-0.569	-0.674	-14.2093584	8.1932994	6.1306506	33.9764094	4.6982556	5.77541664
4.87	487	0.018	-0.564	-0.674	-15.2979786	8.307891	6.4171296	33.82744032	4.7269035	5.8728195
4.88	488	0.015	-0.558	-0.665	-16.1001198	8.307891	6.7036086	33.67274166	4.7555514	5.97595194
4.89	489	0.017	-0.564	-0.667	-16.902261	8.9381448	7.1046792	33.50658384	4.7841993	6.08481396
4.9	490	0.025	-0.574	-0.685	-18.1054728	10.0840608	7.448454	33.34042602	4.81857678	6.20513514
4.91	491	0.032	-0.581	-0.699	-18.5638392	11.3445684	8.3651868	33.16280904	4.85868384	6.34264506
4.92	492	0.032	-0.591	-0.698	-18.621135	12.4904844	9.453807	32.98519206	4.91025006	6.49161414
4.93	493	0.029	-0.595	-0.698	-19.4232762	12.8342592	10.4851314	32.8018455	4.95035712	6.65204238
4.94	494	0.022	-0.594	-0.699	-20.340009	13.6364004	11.9175264	32.60703978	4.99619376	6.82965936
4.95	495	0.012	-0.59	-0.683	-20.3973048	15.4125702	13.0061466	32.42369322	5.0420304	7.02446508
4.96	496	0.004	-0.595	-0.692	-20.8556712	17.7044022	13.6364004	32.2288875	5.11651494	7.23645954
4.97	497	0.01	-0.598	-0.71	-22.1734746	20.3973048	14.4958374	32.02262262	5.20245864	7.4771019
4.98	498	0.013	-0.596	-0.708	-22.4599536	20.6837838	15.5844576	31.81062816	5.28840234	7.71774426
4.99	499	0.015	-0.596	-0.705	-22.058883	21.6005166	16.6730778	31.61009286	5.37434604	7.98130494
5	500	0.021	-0.597	-0.703	-21.9442914	23.2620948	17.6471064	31.42101672	5.46601932	8.25632478
5.01	501	0.028	-0.599	-0.699	-22.2307704	24.8090814	18.621135	31.22048142	5.57488134	8.54853336
5.02	502	0.034	-0.594	-0.684	-22.5745452	25.6685184	19.8243468	31.01421654	5.68374336	8.85793068
5.03	503	0.034	-0.588	-0.667	-22.9756158	26.1268848	21.0848544	30.81368124	5.7868758	9.17878716
5.04	504	0.04	-0.583	-0.665	-23.6058696	27.3873924	22.2307704	30.60168678	5.9014674	9.5111028
5.05	505	0.049	-0.583	-0.673	-25.0382646	28.8770832	23.8350528	30.38969232	6.016059	9.87206634
5.06	506	0.058	-0.587	-0.689	-26.5852512	29.793816	25.2674478	30.15477954	6.13638018	10.24448904
5.07	507	0.072	-0.595	-0.697	-28.7051958	30.9970278	26.7571386	29.90267802	6.26243094	10.63983006
5.08	508	0.088	-0.6	-0.712	-30.7105488	31.6845774	28.4187168	29.63338776	6.38275212	11.05235982
5.09	509	0.101	-0.602	-0.714	-32.2575354	30.9970278	30.2521824	29.34690876	6.49161414	11.47634874
5.1	510	0.107	-0.6	-0.724	-33.8618178	30.2521824	31.9137606	29.05470018	6.589017	11.90606724
5.11	511	0.112	-0.597	-0.738	-34.7785506	30.0229992	33.1169724	28.75103244	6.68069028	12.3472449
5.12	512	0.114	-0.597	-0.75	-35.5806918	29.507337	33.804522	28.44163512	6.76663398	12.79415214
5.13	513	0.117	-0.593	-0.741	-35.4661002	28.934379	33.9191136	28.12650822	6.8468481	13.2353298
5.14	514	0.126	-0.597	-0.755	-36.2682414	28.7051958	33.8618178	27.81138132	6.9327918	13.67650746
5.15	515	0.134	-0.596	-0.773	-36.8984952	26.4133638	34.2055926	27.49052484	6.99581718	14.11195554
5.16	516	0.144	-0.576	-0.771	-36.0390582	22.8610242	34.7212548	27.17539794	7.03019466	14.53021488
5.17	517	0.154	-0.562	-0.799	-34.8931422	21.8296998	35.3515086	26.86600062	7.05311298	14.94847422
5.18	518	0.163	-0.558	-0.808	-34.1482968	20.7983754	36.2109456	26.57379204	7.07030172	15.37246314
5.19	519	0.16	-0.551	-0.806	-33.2888598	19.0795014	36.8984952	26.28158346	7.06457214	15.79072248
5.2	520	0.151	-0.55	-0.816	-32.3148312	17.9335854	37.0703826	26.0122932	7.05884256	16.20898182
5.21	521	0.136	-0.554	-0.815	-30.3094782	17.7044022	36.7266078	25.7544621	7.0473834	16.62151158
5.22	522	0.133	-0.555	-0.818	-28.7624916	18.2200644	35.6379876	25.50809016	7.05311298	17.02831176
5.23	523	0.136	-0.56	-0.816	-27.2728008	19.0795014	34.1482968	25.27890696	7.07030172	17.42365278
5.24	524	0.135	-0.567	-0.819	-25.8977016	18.5638392	32.5440144	25.06118292	7.09322004	17.80180506
5.25	525	0.129	-0.568	-0.813	-24.923673	17.1314442	31.1689152	24.86064762	7.11040878	18.1627686
5.26	526	0.122	-0.561	-0.8	-23.7204612	16.329303	30.0229992	24.66011232	7.12186794	18.5065434
5.27	527	0.112	-0.547	-0.799	-23.0329116	16.902261	28.934379	24.4653066	7.15051584	18.84458862
5.28	528	0.096	-0.528	-0.8	-21.8869956	18.048177	27.4446882	24.28196004	7.19635248	19.17690426
5.29	529	0.076	-0.518	-0.795	-20.1681216	20.1681216	25.2674478	24.11580222	7.27083702	19.49203116
5.3	530	0.063	-0.512	-0.792	-19.0222056	22.7464326	22.5745452	23.96683314	7.37396946	19.80142848
5.31	531	0.053	-0.505	-0.782	-18.5638392	25.7258142	20.4546006	23.81213448	7.51720896	20.09936664
5.32	532	0.031	-0.502	-0.777	-17.9908812	27.788463	18.621135	23.66889498	7.68909636	20.38584564
5.33	533	0.009	-0.496	-0.752	-17.5898106	29.507337	17.1314442	23.5199259	7.88390208	20.67232464
5.34	534	-0.011	-0.484	-0.742	-17.8762896	32.085648	16.1001198	23.3766864	8.10162612	20.95880364
5.35	535	-0.023	-0.473	-0.719	-17.475219	35.3515086	15.0114996	23.24490606	8.34799806	21.24528264
5.36	536	-0.03	-0.47	-0.696	-17.0168526	38.674665	13.9228794	23.10739614	8.64020664	21.53749122
5.37	537	-0.036	-0.475	-0.68	-16.9595568	43.0291458	13.0634424	22.9756158	8.97252228	21.83542938
5.38	538	-0.049	-0.478	-0.657	-17.0741484	46.1804148	12.8342592	22.84956504	9.33348582	22.15055628
5.39	539	-0.063	-0.481	-0.625	-17.3606274	50.0765292	13.4072172	22.7177847	9.72882684	22.48287192
5.4	540	-0.076	-0.479	-0.588	-17.761698	54.6028974	14.4385416	22.6031931	10.15281576	22.84383546
5.41	541	-0.076	-0.477	-0.547	-17.6471064	59.014674	15.5271618	22.4886015	10.62264132	23.2334469
5.42	542	-0.075	-0.474	-0.503	-17.761698	62.2805346	16.9595568	22.37973948	11.12111478	23.64597666
5.43	543	-0.074	-0.471	-0.458	-18.3919518	64.457775	18.3919518	22.27087746	11.6310474	24.08142474
5.44	544	-0.085	-0.458	-0.41	-19.2513888	66.6350154	19.0795014	22.15628586	12.15816876	24.53406156
5.45	545	-0.106	-0.45	-0.36	-20.05353	70.473834	18.7930224	22.05315342	12.71393802	24.99815754
5.46	546	-0.122	-0.443	-0.307	-20.6837838	74.7137232	18.1627686	21.9442914	13.3212735	25.47944226
5.47	547	-0.097	-0.465	-0.261	-21.2567418	78.7244292	16.2720072	21.8296998	13.96871604	25.94926782
5.48	548	-0.075	-0.479	-0.198	-23.6058696	81.360036	13.8082878	21.69218988	14.65626564	26.4133638
5.49	549	-0.056	-0.468	-0.138	-26.7571386	82.0475856	12.4331886	21.52603206	15.34954482	26.86600062
5.5	550	-0.017	-0.45	-0.047	-29.507337	82.3913604	9.9121734	21.34841508	16.06001274	27.29571912
5.51	551	0.014	-0.413	0.008	-33.6326346	82.219473	7.6776372	21.10777272	16.77621024	27.69678972
5.52	552	0.047	-0.409	0.037	-35.3515086	81.7611066	3.2658606	20.84421204	17.5038669	28.05775326
5.53	553	0.105	-0.373	0.108	-40.3362432	80.5578948	-0.0572958	20.51762598	18.23725314	28.37288016
5.54	554	0.112	-0.301	0.133	-43.544808	81.1881486	-1.8334656	20.16239202	18.98209854	28.6765479
5.55	555	0.111	-0.285	0.172	-44.9199072	82.2767688	-5.0420304	19.7956989	19.75559184	28.94583816
5.56	556	0.134	-0.258	0.222	-47.269035	85.370742	-8.9381448	19.38889872	20.56346262	29.18648052
5.57	557	0.103	-0.219	0.195	-54.9466722	92.9337876	-14.037471	18.89042526	21.46300668	29.3927454
5.58	558	0.136	-0.203	0.121	-57.0666168	101.413566	-19.8816426	18.3633039	22.4599536	29.57036238
5.59	559	0.166	-0.212	-0.013	-60.3324774	108.575541	-25.78311	17.7903459	23.54284422	29.70214272
5.6	560	0.209	-0.213	-0.153	-66.176649	85.5426294	-28.4187168	17.11425546	24.41946996	29.71360188
5.61	561	0.394	-0.295	-0.431	-68.9268474	62.0513514	-33.8618178	16.34649174	25.0955604	29.57609196
5.62	562	0.547	-0.346	-0.633	-86.803137	45.83664	-39.6486936	15.34381524	25.62268176	29.31253128
5.63	563	0.643	-0.398	-0.754	-99.1790298	36.669312	-47.4409224	14.16352176	26.08104816	28.92291984
5.64	564	0.686	-0.499	-0.869	-113.5602756	34.7785506	-55.9779966	12.78269298	26.5279554	28.42444638
5.65	565	0.604	-0.569	-0.968	-126.5664222	41.3675676	-61.7075766	11.24716554	27.03788802	27.8744067
5.66	566	0.384	-0.546	-1.211	-138.0255822	74.8856106	-63.9421128	9.5970465	27.86294754	27.35301492
5.67	567	0.134	-0.427	-1.513	-138.5985402	104.7367224	-62.2805346	7.94692746	28.95729732	26.87745978
5.68	568	-0.276	-0.319	-1.659	-117.2845026	107.3150334	-56.9520252	6.52026204	30.06310626	26.43055254
5.69	569	-0.514	-0.341	-1.966	-94.7099574	113.3310924	-65.3745078	5.25402486	31.23194058	25.85186496
5.7	570	-0.687	-0.077	-2.152	-87.0323202	112.6435428	-72.3645954	3.98778768	32.38358616	25.15858578
5.71	571	-0.554	0.062	-1.834	-77.8649922	107.3150334	-75.0002022	2.76165756	33.47793594	24.39082206
5.72	572	-0.038	0.155	-1.625	-78.6671334	99.7519878	-75.2866812	1.4896908	34.48061244	23.57149212
5.73	573	0.406	0.488	-1.488	-61.6502808	94.3661826	-78.1514712	0.33804522	35.42026356	22.68340722
5.74	574	1.272	0.864	-1.354	-60.5616606	99.121734	-72.9375534	-0.78495246	36.39429216	21.82397022
5.75	575	2.185	1.132	-1.285	-35.0650296	96.543423	-54.8893764	-1.55844576	37.33394328	21.15360936
5.76	576	2.226	1.459	-1.214	-8.6516658	68.4111852	-11.9175264	-1.7475219	38.01003372	20.9989107
5.77	577	1.728	1.477	-1.03	34.091001	37.528749	26.9863218	-1.19748222	38.388186	21.33695592
5.78	578	1.56	1.095	-0.616	52.4829528	34.091001	46.696077	-0.29793816	38.73769038	21.93283224
5.79	579	1.667	0.616	-0.409	53.571573	39.1330314	44.8626114	0.6016059	39.12730182	22.5172494
5.8	580	1.691	0.119	-0.641	45.263682	68.1247062	33.6899304	1.35218088	39.80339226	22.98707496
5.81	581	1.438	-0.459	-1.001	50.8786704	93.0483792	25.8977016	2.11421502	40.72012506	23.38814556
5.82	582	0.973	-0.836	-1.176	43.0291458	92.5900128	32.7159018	2.87624916	41.61966912	23.89807818
5.83	583	0.31	-0.628	-1.129	19.0795014	86.4593622	52.4829528	3.59244666	42.44472864	24.6944898
5.84	584	-0.499	0.075	-0.843	-14.7250206	116.0812908	47.6701056	3.97059894	43.55053758	25.49090142
5.85	585	-0.956	0.161	-0.597	-3.437748	172.5176538	38.4454818	4.45188366	45.20065662	26.26439472
5.86	586	-0.716	0.198	-0.247	-5.2139178	217.151082	29.4500412	4.91597964	47.30914206	27.02642886
5.87	587	-0.391	0.343	-0.233	-32.8304934	246.2000526	15.5844576	5.0420304	49.70983608	27.67960098
5.88	588	-0.282	0.559	-0.139	-48.6441342	274.0458114	1.2605076	4.91597964	52.39127952	28.20099276
5.89	589	0.408	0.737	-0.225	-65.603691	307.105488	-23.1475032	4.34875122	55.42222734	28.37860974
5.9	590	0.986	0.777	-0.34	-44.4615408	319.2521976	-45.0917946	3.63255372	58.59068508	28.11504906
5.91	591	1.77	0.943	-0.455	-24.350715	315.6425622	-81.4173318	2.36631654	61.74195408	26.99778096
5.92	592	3.268	0.954	-0.931	-0.4583664	253.1901402	-117.45639	0.28074942	64.27442844	24.71167854
5.93	593	3.945	1.116	-0.823	-19.6524594	151.83387	-143.5832748	-2.97365202	65.74120092	21.35987424
5.94	594	3.961	1.43	-0.235	-90.7565472	107.3150334	-162.2617056	-7.68909636	66.64647456	17.23457664
5.95	595	3.175	1.951	0.115	-65.7755784	101.8719324	-148.96908	-12.1467096	67.38559038	13.13219736
5.96	596	2.242	1.524	0.29	122.2119414	97.9185222	-120.0919968	-14.2666542	68.07313998	9.51683238
5.97	597	2.124	0.59	-0.573	155.7872802	62.5097178	-83.4799806	-15.10890246	68.47994016	6.92133264
5.98	598	1.921	0.225	-0.969	59.7595194	24.2361234	-52.8840234	-15.9568803	68.5830726	5.36288688
5.99	599	1.471	0.128	-0.375	37.5860448	26.7571386	-27.6165756	-16.43816502	68.76641916	4.4404245
6	600	1.486	-0.074	-0.034	6.3598338	40.10706	4.1825934	-16.53556788	69.16748976	4.2685371
6.01	601	1.494	0.225	0.022	-27.9603504	38.3308902	18.5065434	-16.61005242	69.5857491	4.50344988
6.02	602	1.346	0.465	-0.079	-25.5539268	28.9916748	14.5531332	-16.69026654	69.900876	4.6982556
6.03	603	1.125	0.435	-0.113	-16.7876694	11.1153852	12.605076	-16.60432284	70.03838592	4.96754586
6.04	604	0.914	0.308	-0.029	-9.6256944	-4.6409598	16.7876694	-16.22617056	70.0441155	5.47747848
6.05	605	0.77	0.233	0.065	-9.453807	-12.7196676	19.480572	-15.79072248	69.99827886	6.0447069
6.06	606	0.64	0.241	0.155	-12.1467096	-10.1413566	16.2720072	-15.41829978	69.94098306	6.57755784
6.07	607	0.557	0.25	0.239	-17.0168526	0.2291832	9.167328	-15.34381524	69.96963096	6.83538894
6.08	608	0.489	0.29	0.278	-27.215505	16.1001198	4.8128472	-15.59018718	70.13578878	6.86976642
6.09	609	0.42	0.403	0.288	-33.2888598	37.7006364	3.0939732	-16.1001198	70.5024819	6.69787902
6.1	610	0.423	0.474	0.305	-35.2942128	52.4829528	4.4690724	-16.80485814	71.02960326	6.34264506
6.11	611	0.54	0.543	0.285	-36.955791	64.2858876	5.3285094	-17.5325148	71.65412748	5.98168152
6.12	612	0.812	0.472	0.244	-28.2468294	70.0727634	7.9641162	-18.18568692	72.3359475	5.60925882
6.13	613	0.93	0.363	0.182	-18.7930224	73.1667366	10.599723	-18.72999702	73.06360416	5.24829528
6.14	614	1.03	0.286	0.066	-12.1467096	71.333271	11.5164558	-19.19982258	73.77407208	4.89306132
6.15	615	1.134	0.233	-0.02	-10.886202	58.2698286	13.2353298	-19.53213822	74.3699484	4.67533728
6.16	616	1.237	0.247	-0.032	-11.2299768	42.2270046	15.6990492	-19.57797486	74.82258522	4.74982182
6.17	617	1.333	0.266	0	-4.7555514	26.6998428	19.3086846	-19.25711838	75.13198254	5.13943326
6.18	618	1.389	0.252	0.003	2.005353	14.2666542	23.2620948	-18.56956878	75.343977	5.83271244
6.19	619	1.406	0.231	-0.032	6.016059	2.3491278	27.1009134	-17.54970354	75.44710944	6.8182002
6.2	620	1.383	0.169	-0.076	11.172681	-10.1986524	32.3148312	-16.16887476	75.45283902	8.13027402
6.21	621	1.366	0.126	-0.115	13.2926256	-21.2567418	36.1536498	-14.51302614	75.343977	9.69444936
6.22	622	1.299	0.074	-0.174	16.329303	-31.1689152	36.7266078	-12.75404508	75.12625296	11.33310924
6.23	623	1.182	0.017	-0.216	18.2200644	-39.4768062	33.9764094	-11.08100772	74.81112606	12.87436626
6.24	624	1.084	-0.037	-0.204	20.7410796	-43.6593996	28.8770832	-9.60277608	74.43870336	14.1807105
6.25	625	1.009	-0.086	-0.184	25.4393352	-40.966497	21.0848544	-8.39956428	74.07773982	15.1547391
6.26	626	0.978	-0.12	-0.182	26.2414764	-33.6899304	13.3499214	-7.55158644	73.7683425	15.756345
6.27	627	0.95	-0.139	-0.182	24.5798982	-26.4706596	5.6722842	-7.02446508	73.51624098	16.03709442
6.28	628	0.964	-0.117	-0.192	20.9702628	-22.0015872	0	-6.74944524	73.30424652	16.1001198
6.29	629	0.972	-0.08	-0.218	17.18874	-19.5951636	-3.6096354	-6.64058322	73.1094408	16.03136484
6.3	630	0.99	-0.041	-0.242	14.0947668	-18.334656	-5.6149884	-6.60620574	72.92609424	15.91104366
6.31	631	1.011	-0.005	-0.272	10.6570188	-17.4179232	-6.4171296	-6.65204238	72.74847726	15.74488584
6.32	632	1.008	0.019	-0.289	7.9068204	-17.0741484	-5.7868758	-6.70933818	72.57658986	15.60164634
6.33	633	0.993	0.037	-0.301	4.870143	-17.9335854	-4.9847346	-6.76663398	72.3932433	15.48705474
6.34	634	0.973	0.058	-0.3	2.291832	-19.8816426	-4.7555514	-6.82965936	72.192708	15.38965188
6.35	635	0.934	0.056	-0.3	0.8021412	-22.2307704	-4.7555514	-6.92133264	71.9635248	15.28651944
6.36	636	0.895	0.033	-0.297	0.3437748	-24.5798982	-2.9793816	-6.9327918	71.71715286	15.26360112
6.37	637	0.891	0.009	-0.307	-1.6615782	-27.6165756	-0.4010706	-6.88122558	71.4478626	15.33235608
6.38	638	0.883	0	-0.318	-4.870143	-30.9970278	1.7761698	-6.7895523	71.14419486	15.47559558
6.39	639	0.871	0	-0.328	-7.3911582	-31.8564648	2.8074942	-6.69787902	70.82906796	15.64748298
6.4	640	0.867	-0.002	-0.35	-9.167328	-31.1116194	3.0939732	-6.60620574	70.51967064	15.83655912
6.41	641	0.865	-0.005	-0.378	-10.313244	-29.9657034	2.86479	-6.55463952	70.22173248	16.00271694
6.42	642	0.863	-0.013	-0.388	-10.0840608	-28.3041252	2.291832	-6.52026204	69.94671264	16.14022686
6.43	643	0.859	-0.017	-0.397	-8.880849	-26.4706596	0.8021412	-6.52026204	69.68888154	16.23190014
6.44	644	0.862	-0.038	-0.407	-8.1932994	-24.0069402	-1.0886202	-6.57755784	69.44823918	16.26627762
6.45	645	0.861	-0.05	-0.404	-8.8235532	-20.7983754	-3.6669312	-6.66350154	69.22478556	16.25481846
6.46	646	0.865	-0.052	-0.406	-10.6570188	-16.3865988	-6.7036086	-6.9041439	69.05289816	16.11157896
6.47	647	0.871	-0.041	-0.402	-13.178034	-10.886202	-9.9694692	-7.26510744	68.93257698	15.8709366
6.48	648	0.889	-0.021	-0.401	-15.6990492	-5.2712136	-12.7196676	-7.734933	68.86382202	15.53862096
6.49	649	0.911	0.013	-0.397	-16.5584862	-0.572958	-14.6677248	-8.26778394	68.83517412	15.14327994
6.5	650	0.934	0.045	-0.398	-15.756345	1.0313244	-15.5271618	-8.82928278	68.8122558	14.71929102
6.51	651	0.954	0.078	-0.396	-14.2093584	1.2605076	-15.2979786	-9.36213372	68.80079664	14.30103168
6.52	652	0.958	0.105	-0.39	-11.745639	1.3178034	-14.5531332	-9.84914802	68.78933748	13.90569066
6.53	653	0.959	0.129	-0.378	-9.6256944	1.718874	-13.2353298	-10.29032568	68.7836079	13.54472712
6.54	654	0.949	0.148	-0.363	-7.5057498	2.1772404	-11.745639	-10.66847796	68.7836079	13.21814106
6.55	655	0.93	0.158	-0.347	-4.8128472	2.1772404	-9.9694692	-11.10392604	68.77214874	12.82280004
6.56	656	0.91	0.158	-0.331	-1.6615782	1.8907614	-7.9068204	-11.32737966	68.77787832	12.59934642
6.57	657	0.9	0.15	-0.319	1.2032118	1.718874	-5.9587632	-11.47061916	68.7836079	12.4331886
6.58	658	0.897	0.137	-0.315	3.0366774	1.4896908	-4.2398892	-11.55656286	68.78933748	12.31286742
6.59	659	0.897	0.121	-0.312	3.9534102	1.3750992	-2.7501984	-11.59094034	68.80079664	12.22692372
6.6	660	0.902	0.115	-0.311	3.724227	1.6042824	-1.5469866	-11.75709816	68.81798538	12.032118
6.61	661	0.911	0.114	-0.309	3.4950438	1.8907614	-0.6302538	-11.75136858	68.83517412	12.0034701
6.62	662	0.919	0.114	-0.308	3.2658606	2.0626488	0	-11.72845026	68.85809244	11.99201094
6.63	663	0.93	0.115	-0.307	2.9793816	2.2345362	0.7448454	-11.6883432	68.88101076	11.99774052
6.64	664	0.938	0.113	-0.308	2.3491278	2.4637194	1.4896908	-11.63677698	68.90965866	12.02638842
6.65	665	0.946	0.109	-0.313	1.5469866	3.0366774	2.2345362	-11.72845026	68.9554953	11.94044472
6.66	666	0.954	0.104	-0.318	0.7448454	3.5523396	2.86479	-11.6596953	69.00133194	11.99774052
6.67	667	0.96	0.099	-0.323	0.0572958	3.9534102	3.3231564	-11.59666992	69.041439	12.07222506
6.68	668	0.964	0.094	-0.329	-0.4583664	3.7815228	3.6669312	-11.52218538	69.08727564	12.15243918
6.69	669	0.967	0.09	-0.331	-0.6302538	3.3231564	3.9534102	-11.44197126	69.1273827	12.24411246
6.7	670	0.966	0.084	-0.333	-0.572958	2.5210152	4.1252976	-11.4305121	69.16748976	12.27848994
6.71	671	0.966	0.081	-0.328	-0.6875496	1.718874	4.297185	-11.33310924	69.19613766	12.38735196
6.72	672	0.965	0.077	-0.326	-0.9167328	1.0886202	4.4117766	-11.2299768	69.2133264	12.50767314
6.73	673	0.963	0.075	-0.328	-1.2032118	1.0313244	4.583664	-11.13257394	69.23051514	12.62799432
6.74	674	0.96	0.073	-0.331	-1.145916	0.859437	4.6982556	-11.02371192	69.24770388	12.75404508
6.75	675	0.956	0.068	-0.332	-0.9167328	0.4583664	4.6982556	-10.96641612	69.2706222	12.8342592
6.76	676	0.951	0.065	-0.331	-0.859437	0.1718874	4.583664	-10.8575541	69.28208136	12.96030996
6.77	677	0.948	0.059	-0.329	-0.8021412	0	4.3544808	-10.75442166	69.28781094	13.08063114
6.78	678	0.946	0.056	-0.325	-1.145916	0.1718874	4.1252976	-10.6570188	69.2992701	13.19522274
6.79	679	0.947	0.053	-0.318	-1.5469866	0.5156622	3.724227	-10.57680468	69.31072926	13.29835518
6.8	680	0.949	0.054	-0.317	-1.7761698	0.6875496	3.2085648	-10.55388636	69.34510674	13.3499214
6.81	681	0.952	0.055	-0.315	-1.7761698	0.3437748	2.8074942	-10.49659056	69.3565659	13.43013552
6.82	682	0.959	0.054	-0.312	-1.6615782	-0.4010706	2.3491278	-10.45075392	69.3565659	13.49889048
6.83	683	0.965	0.054	-0.305	-1.6042824	-1.0313244	1.9480572	-10.41064686	69.34510674	13.55618628
6.84	684	0.97	0.054	-0.299	-1.8907614	-1.3178034	1.5469866	-10.38199896	69.33364758	13.6077525
6.85	685	0.973	0.053	-0.297	-2.3491278	-1.2605076	1.0313244	-10.4278356	69.3852138	13.59056376
6.86	686	0.976	0.055	-0.297	-2.9220858	-1.2032118	0.3437748	-10.44502434	69.37375464	13.6077525
6.87	687	0.975	0.058	-0.298	-3.3231564	-1.2605076	-0.286479	-10.47940182	69.3565659	13.6077525
6.88	688	0.972	0.06	-0.301	-3.5523396	-1.3750992	-0.9167328	-10.53096804	69.34510674	13.58483418
6.89	689	0.969	0.06	-0.305	-3.6096354	-1.7761698	-1.432395	-10.599723	69.32218842	13.55618628
6.9	690	0.967	0.062	-0.307	-3.724227	-2.1772404	-1.8334656	-10.72004418	69.32218842	13.47597216
6.91	691	0.963	0.062	-0.309	-3.437748	-2.8074942	-2.005353	-10.79452872	69.28781094	13.43013552
6.92	692	0.962	0.067	-0.307	-3.437748	-3.437748	-2.2345362	-10.86901326	69.25343346	13.38429888
6.93	693	0.959	0.069	-0.311	-3.2658606	-3.9534102	-2.3491278	-10.94922738	69.20759682	13.33846224
6.94	694	0.955	0.071	-0.313	-3.0366774	-4.583664	-2.4637194	-11.02371192	69.1560306	13.2926256
6.95	695	0.951	0.073	-0.318	-2.8074942	-4.9274388	-2.6929026	-11.13830352	69.11592354	13.20095232
6.96	696	0.947	0.073	-0.321	-2.4637194	-4.8128472	-2.86479	-11.21851764	69.06435732	13.14365652
6.97	697	0.942	0.074	-0.326	-2.2345362	-4.4117766	-3.0366774	-11.29873176	69.0127911	13.08063114
6.98	698	0.938	0.077	-0.329	-1.9480572	-4.0680018	-3.0939732	-11.37894588	68.96695446	13.01760576
6.99	699	0.935	0.08	-0.333	-1.5469866	-3.6096354	-2.9793816	-11.45343042	68.9268474	12.95458038
7	700	0.933	0.085	-0.338	-1.145916	-3.3804522	-2.6929026	-11.6023995	68.88101076	12.81707046
7.01	701	0.934	0.091	-0.338	-0.8021412	-2.8074942	-2.4064236	-11.6596953	68.85236286	12.76550424
7.02	702	0.932	0.094	-0.34	-0.1718874	-2.2345362	-2.005353	-11.69980236	68.82371496	12.72539718
7.03	703	0.931	0.091	-0.342	0.0572958	-1.5469866	-1.4896908	-11.72845026	68.80652622	12.6910197
7.04	704	0.93	0.087	-0.343	0	-0.7448454	-1.0313244	-11.75136858	68.79506706	12.66810138
7.05	705	0.928	0.082	-0.344	-0.1145916	0.0572958	-0.7448454	-12.0894138	68.75496	12.35297448
7.06	706	0.928	0.079	-0.346	-0.286479	0.572958	-0.6875496	-12.11233212	68.76068958	12.33005616
7.07	707	0.929	0.078	-0.348	-0.286479	0.859437	-0.572958	-12.13525044	68.76641916	12.30713784
7.08	708	0.93	0.078	-0.351	0	0.859437	-0.5156622	-12.15243918	68.77214874	12.2899491
7.09	709	0.931	0.078	-0.353	0.4010706	0.859437	-0.4583664	-12.16389834	68.7836079	12.27276036
7.1	710	0.931	0.079	-0.354	0.7448454	1.0313244	-0.3437748	-12.30713784	68.74923042	12.13525044
7.11	711	0.931	0.078	-0.35	0.9740286	1.2032118	-0.1718874	-12.30713784	68.76068958	12.1180617
7.12	712	0.928	0.079	-0.346	1.0313244	1.3750992	-0.1145916	-12.30713784	68.77787832	12.11233212
7.13	713	0.928	0.079	-0.339	1.0886202	1.7761698	-0.0572958	-12.30713784	68.79506706	12.09514338
7.14	714	0.931	0.08	-0.335	1.145916	2.005353	-0.0572958	-12.30713784	68.8122558	12.08368422
7.15	715	0.936	0.08	-0.332	1.2032118	2.0626488	0	-12.41027028	68.8409037	11.9748222
7.16	716	0.942	0.079	-0.329	1.2032118	1.9480572	0	-12.41027028	68.85809244	11.96336304
7.17	717	0.948	0.08	-0.329	1.3750992	1.6042824	0.1718874	-12.39881112	68.87528118	11.96336304
7.18	718	0.951	0.078	-0.326	1.6042824	1.2605076	0.2291832	-12.38162238	68.88674034	11.96336304
7.19	719	0.956	0.077	-0.324	1.6042824	0.859437	0.2291832	-12.36443364	68.8981995	11.96336304
7.2	720	0.958	0.078	-0.322	1.6042824	0.7448454	0.286479	-12.48475482	68.94976572	11.8315827
7.21	721	0.96	0.079	-0.319	1.4896908	0.859437	0.286479	-12.46756608	68.96122488	11.83731228
7.22	722	0.962	0.08	-0.314	1.4896908	0.9167328	0.3437748	-12.45037734	68.97268404	11.84304186
7.23	723	0.965	0.08	-0.313	1.3178034	0.859437	0.4583664	-12.42745902	68.97841362	11.84877144
7.24	724	0.969	0.08	-0.31	1.3178034	0.8021412	0.6875496	-12.39881112	68.98987278	11.86596018
7.25	725	0.969	0.079	-0.308	1.145916	0.4583664	0.8021412	-12.5477802	69.07581648	11.7169911
7.26	726	0.968	0.079	-0.309	1.0886202	-0.1718874	0.9740286	-12.51340272	69.07581648	11.745639
7.27	727	0.967	0.074	-0.307	1.0886202	-0.8021412	1.0313244	-12.46756608	69.0700869	11.7742869
7.28	728	0.966	0.071	-0.305	0.6875496	-1.0886202	0.859437	-12.4331886	69.06435732	11.80866438
7.29	729	0.964	0.073	-0.303	0.3437748	-0.8021412	0.8021412	-12.4045407	69.05862774	11.8315827
7.3	730	0.96	0.073	-0.307	0.1718874	-0.5156622	0.572958	-12.59934642	69.16748976	11.64823614
7.31	731	0.958	0.072	-0.312	0.3437748	-0.8021412	0.5156622	-12.58215768	69.16176018	11.67115446
7.32	732	0.955	0.073	-0.317	0.572958	-1.5469866	0.4010706	-12.55350978	69.14457144	11.6883432
7.33	733	0.952	0.072	-0.321	0.7448454	-2.3491278	0.1718874	-12.53059146	69.12165312	11.70553194
7.34	734	0.95	0.07	-0.323	0.6875496	-2.8074942	0.1145916	-12.50767314	69.0987348	11.72272068
7.35	735	0.949	0.071	-0.321	0.572958	-2.9793816	-0.0572958	-12.5477802	69.08727564	11.68261362
7.36	736	0.948	0.071	-0.322	0.6302538	-3.151269	-0.3437748	-12.53632104	69.05862774	11.6883432
7.37	737	0.948	0.07	-0.323	0.6302538	-3.0939732	-0.4583664	-12.52486188	69.02425026	11.6883432
7.38	738	0.948	0.071	-0.324	0.4583664	-3.0366774	-0.6875496	-12.52486188	68.99560236	11.6883432
7.39	739	0.948	0.073	-0.328	0.1718874	-2.8074942	-0.8021412	-12.53059146	68.96695446	11.67688404
7.4	740	0.947	0.075	-0.33	0.1145916	-2.6356068	-0.859437	-12.61080558	68.94976572	11.59666992
7.41	741	0.945	0.075	-0.332	0.1718874	-2.8074942	-0.859437	-12.61653516	68.92111782	11.59094034
7.42	742	0.943	0.076	-0.332	0.2291832	-2.8074942	-0.7448454	-12.62226474	68.89246992	11.58521076
7.43	743	0.941	0.077	-0.334	0.3437748	-2.8074942	-0.7448454	-12.62226474	68.86382202	11.57948118
7.44	744	0.937	0.076	-0.334	0.572958	-2.6356068	-0.6875496	-12.62226474	68.83517412	11.5737516
7.45	745	0.933	0.073	-0.335	0.6302538	-2.4064236	-0.6302538	-12.67956054	68.8122558	11.51072622
7.46	746	0.932	0.073	-0.338	0.6302538	-2.1772404	-0.572958	-12.67383096	68.78933748	11.50499664
7.47	747	0.932	0.075	-0.341	0.572958	-2.005353	-0.4583664	-12.67383096	68.76641916	11.50499664
7.48	748	0.933	0.078	-0.34	0.572958	-1.4896908	-0.4010706	-12.66810138	68.74923042	11.49926706
7.49	749	0.935	0.078	-0.342	0.572958	-1.0886202	-0.4010706	-12.66810138	68.73777126	11.49353748
7.5	750	0.937	0.077	-0.341	0.4583664	-0.572958	-0.286479	-12.86863668	68.7263121	11.29873176
7.51	751	0.937	0.078	-0.34	0.572958	-0.286479	-0.1145916	-12.86863668	68.7263121	11.29873176
7.52	752	0.936	0.078	-0.339	0.9167328	-0.2291832	0	-12.85717752	68.72058252	11.29873176
7.53	753	0.934	0.077	-0.337	1.0313244	-0.2291832	0.1718874	-12.83998878	68.72058252	11.31019092
7.54	754	0.934	0.076	-0.337	1.2032118	-0.2291832	0.3437748	-12.81707046	68.72058252	11.3159205
7.55	755	0.935	0.076	-0.336	1.2032118	-0.0572958	0.4010706	-12.93739164	68.7263121	11.19559932
7.56	756	0.938	0.076	-0.335	1.2605076	0	0.4010706	-12.91447332	68.7263121	11.20705848
7.57	757	0.941	0.076	-0.334	1.4896908	0	0.3437748	-12.891555	68.7263121	11.21851764
7.58	758	0.944	0.075	-0.332	1.6042824	0	0.3437748	-12.8629071	68.7263121	11.22424722
7.59	759	0.947	0.074	-0.33	1.5469866	0.1145916	0.286479	-12.83998878	68.73204168	11.2299768
7.6	760	0.948	0.073	-0.328	1.5469866	0	0.2291832	-12.92593248	68.77214874	11.1440331
7.61	761	0.947	0.075	-0.327	1.5469866	0.286479	0.286479	-12.90301416	68.77787832	11.14976268
7.62	762	0.947	0.075	-0.328	1.5469866	0.5156622	0.2291832	-12.88582542	68.7836079	11.14976268
7.63	763	0.948	0.075	-0.328	1.6615782	0.572958	0.286479	-12.8629071	68.78933748	11.15549226
7.64	764	0.949	0.075	-0.326	1.6042824	0.5156622	0.286479	-12.83998878	68.79506706	11.16122184
7.65	765	0.947	0.076	-0.327	1.6042824	0.4583664	0.286479	-12.92593248	68.83517412	11.06381898
7.66	766	0.948	0.075	-0.326	1.6615782	0.4010706	0.3437748	-12.90301416	68.8409037	11.07527814
7.67	767	0.948	0.074	-0.325	1.5469866	0.3437748	0.2291832	-12.88009584	68.8409037	11.07527814
7.68	768	0.95	0.073	-0.325	1.718874	0.0572958	0.286479	-12.85717752	68.84663328	11.0867373
7.69	769	0.95	0.072	-0.324	1.5469866	-0.1145916	0.1718874	-12.8342592	68.84663328	11.09246688
7.7	770	0.949	0.07	-0.325	1.4896908	-0.286479	0.0572958	-12.91447332	68.89246992	11.00652318
7.71	771	0.949	0.07	-0.324	1.5469866	-0.4010706	0.0572958	-12.891555	68.88674034	11.01225276
7.72	772	0.948	0.069	-0.325	1.3178034	-0.4010706	0	-12.87436626	68.88101076	11.01225276
7.73	773	0.95	0.069	-0.324	1.0313244	-0.4010706	-0.1145916	-12.86863668	68.87528118	11.01225276
7.74	774	0.95	0.07	-0.325	0.8021412	-0.3437748	-0.1718874	-12.8629071	68.87528118	11.00652318
7.75	775	0.954	0.07	-0.326	0.6302538	-0.1718874	-0.2291832	-13.02906492	68.94976572	10.84609494
7.76	776	0.954	0.072	-0.329	0.6302538	-0.4010706	-0.286479	-13.02906492	68.94403614	10.84036536
7.77	777	0.954	0.074	-0.329	0.8021412	-0.9167328	-0.2291832	-13.01760576	68.93830656	10.84036536
7.78	778	0.951	0.072	-0.328	1.0313244	-1.4896908	-0.0572958	-13.0061466	68.92111782	10.84609494
7.79	779	0.95	0.073	-0.327	1.145916	-1.718874	-0.0572958	-12.98322828	68.90392908	10.85182452
7.8	780	0.949	0.07	-0.327	0.9740286	-1.8334656	-0.0572958	-13.01187618	68.90965866	10.81744704
7.81	781	0.948	0.07	-0.327	0.8021412	-1.6615782	-0.1718874	-13.00041702	68.89246992	10.81744704
7.82	782	0.947	0.071	-0.33	0.572958	-1.432395	-0.1718874	-12.99468744	68.88101076	10.82317662
7.83	783	0.947	0.071	-0.331	0.6302538	-1.2032118	-0.1718874	-12.98322828	68.86382202	10.82317662
7.84	784	0.946	0.071	-0.333	0.6302538	-1.0886202	-0.1718874	-12.9774987	68.85236286	10.82317662
7.85	785	0.944	0.072	-0.333	0.6875496	-1.145916	-0.1145916	-13.0347945	68.85809244	10.76015124
7.86	786	0.941	0.073	-0.334	0.8021412	-1.145916	-0.0572958	-13.02333534	68.84663328	10.76588082
7.87	787	0.942	0.073	-0.333	0.9167328	-1.145916	-0.0572958	-13.01187618	68.83517412	10.7716104
7.88	788	0.941	0.074	-0.333	0.9167328	-1.145916	-0.0572958	-13.00041702	68.82371496	10.7716104
7.89	789	0.942	0.075	-0.332	0.9740286	-1.0886202	-0.0572958	-12.98322828	68.8122558	10.77733998
7.9	790	0.941	0.074	-0.33	0.859437	-0.9740286	0	-13.07490156	68.83517412	10.6856667
7.91	791	0.943	0.072	-0.331	0.572958	-0.7448454	0.0572958	-13.0634424	68.82371496	10.69139628
7.92	792	0.944	0.072	-0.334	0.6875496	-0.6875496	0.1718874	-13.04625366	68.81798538	10.70285544
7.93	793	0.946	0.07	-0.333	0.859437	-1.0886202	0.4010706	-13.02333534	68.8122558	10.72004418
7.94	794	0.944	0.068	-0.331	0.7448454	-1.4896908	0.3437748	-12.99468744	68.79506706	10.73723292
7.95	795	0.941	0.068	-0.33	0.572958	-1.4896908	0.3437748	-13.02333534	68.80652622	10.70858502
7.96	796	0.937	0.068	-0.33	0.3437748	-1.0886202	0.286479	-13.00041702	68.79506706	10.72577376
7.97	797	0.934	0.07	-0.331	0.4010706	-0.6302538	0.2291832	-12.98895786	68.78933748	10.73723292
7.98	798	0.932	0.071	-0.338	0.6302538	-0.4010706	0.0572958	-12.9774987	68.78933748	10.73723292
7.99	799	0.93	0.07	-0.341	1.0313244	-0.4583664	0	-12.96603954	68.7836079	10.7429625
8	800	0.932	0.069	-0.339	1.3750992	-0.6302538	-0.0572958	-12.98322828	68.77787832	10.7143146
8.01	801	0.933	0.069	-0.337	1.2605076	-0.572958	-0.1718874	-12.97176912	68.77214874	10.70858502
8.02	802	0.935	0.071	-0.334	1.0313244	-0.2291832	-0.1145916	-12.96603954	68.76641916	10.70858502
8.03	803	0.938	0.072	-0.332	0.9740286	0.1718874	-0.2291832	-12.96030996	68.76641916	10.69712586
8.04	804	0.94	0.072	-0.331	0.859437	0.6302538	-0.1718874	-12.96030996	68.77214874	10.69139628
8.05	805	0.941	0.071	-0.332	0.8021412	0.859437	-0.1145916	-13.04052408	68.80079664	10.60545258
8.06	806	0.942	0.072	-0.332	0.7448454	0.859437	-0.1145916	-13.04052408	68.8122558	10.599723
8.07	807	0.947	0.07	-0.329	0.5156622	0.8021412	0	-13.04052408	68.81798538	10.59399342
8.08	808	0.947	0.071	-0.328	0.286479	0.5156622	0.0572958	-13.0347945	68.82371496	10.59399342
8.09	809	0.947	0.071	-0.327	0.286479	0.4583664	0.0572958	-13.0347945	68.82944454	10.59399342
8.1	810	0.948	0.07	-0.328	0.4010706	0.4010706	0.1145916	-13.1493861	68.89246992	10.47940182
8.11	811	0.949	0.069	-0.328	0.3437748	0.4010706	0.1145916	-13.14365652	68.8981995	10.47940182
8.12	812	0.949	0.067	-0.327	0.1718874	0.4583664	0.1145916	-13.14365652	68.90392908	10.4851314
8.13	813	0.948	0.068	-0.329	0.1145916	0.4010706	0.0572958	-13.14365652	68.90965866	10.4851314
8.14	814	0.945	0.069	-0.33	0.0572958	0.4010706	0	-13.14365652	68.91538824	10.47940182
8.15	815	0.944	0.069	-0.327	0	0.4010706	-0.0572958	-13.30981434	69.0127911	10.32470316
8.16	816	0.944	0.07	-0.328	0	0.4010706	-0.1718874	-13.31554392	69.01852068	10.31897358
8.17	817	0.946	0.069	-0.329	0	0.5156622	-0.2291832	-13.3212735	69.02425026	10.30751442
8.18	818	0.946	0.068	-0.331	0.0572958	0.2291832	-0.286479	-13.33273266	69.02425026	10.30178484
8.19	819	0.946	0.069	-0.33	0.0572958	-0.1718874	-0.4010706	-13.33846224	69.01852068	10.29032568
8.2	820	0.947	0.068	-0.329	0.1718874	-0.4010706	-0.4010706	-13.43013552	69.05862774	10.20438198
8.21	821	0.95	0.068	-0.327	0.1145916	-0.3437748	-0.4010706	-13.4358651	69.05289816	10.19292282
8.22	822	0.949	0.07	-0.325	-0.1145916	-0.2291832	-0.5156622	-13.44732426	69.04716858	10.18146366
8.23	823	0.949	0.071	-0.324	-0.1145916	-0.1145916	-0.5156622	-13.464513	69.04716858	10.1700045
8.24	824	0.948	0.07	-0.327	0	-0.1718874	-0.5156622	-13.47597216	69.041439	10.15281576
8.25	825	0.948	0.069	-0.326	-0.0572958	-0.2291832	-0.572958	-13.56764544	69.0987348	10.06687206
8.26	826	0.947	0.07	-0.328	-0.1718874	-0.1145916	-0.5156622	-13.58483418	69.09300522	10.0554129
8.27	827	0.947	0.072	-0.327	-0.2291832	-0.1718874	-0.5156622	-13.60202292	69.09300522	10.03822416
8.28	828	0.945	0.071	-0.328	-0.286479	-0.1145916	-0.572958	-13.61921166	69.08727564	10.026765
8.29	829	0.945	0.071	-0.329	-0.2291832	-0.0572958	-0.5156622	-13.6364004	69.08727564	10.00957626
8.3	830	0.944	0.072	-0.329	-0.286479	0	-0.5156622	-13.73380326	69.11019396	9.91790298
8.31	831	0.941	0.071	-0.329	-0.2291832	0	-0.5156622	-13.750992	69.11019396	9.90644382
8.32	832	0.939	0.072	-0.33	-0.4010706	0.0572958	-0.5156622	-13.76818074	69.11019396	9.88925508
8.33	833	0.939	0.072	-0.331	-0.4583664	0.1145916	-0.3437748	-13.78536948	69.11019396	9.87779592
8.34	834	0.938	0.072	-0.332	-0.4583664	0.1145916	-0.286479	-13.79682864	69.11019396	9.86633676
8.35	835	0.939	0.072	-0.333	-0.4583664	0.1718874	-0.286479	-13.85985402	69.11019396	9.80904096
8.36	836	0.939	0.07	-0.332	-0.4010706	0.3437748	-0.1718874	-13.87131318	69.11592354	9.80331138
8.37	837	0.939	0.071	-0.332	-0.4010706	0.572958	-0.1718874	-13.88277234	69.12165312	9.7975818
8.38	838	0.94	0.072	-0.332	-0.3437748	0.8021412	0	-13.8942315	69.1273827	9.79185222
8.39	839	0.939	0.073	-0.333	-0.3437748	0.9167328	-0.0572958	-13.90569066	69.13884186	9.78039306
8.4	840	0.942	0.071	-0.334	-0.4010706	1.145916	0	-13.94006814	69.15030102	9.75174516
8.41	841	0.942	0.07	-0.332	-0.3437748	1.2605076	0	-13.9515273	69.16176018	9.74601558
8.42	842	0.944	0.07	-0.332	-0.2291832	1.145916	0.0572958	-13.95725688	69.17321934	9.740286
8.43	843	0.946	0.07	-0.331	-0.2291832	0.9740286	0.1145916	-13.96298646	69.17894892	9.740286
8.44	844	0.949	0.07	-0.329	-0.1718874	0.9167328	0.1145916	-13.96871604	69.19040808	9.740286
8.45	845	0.949	0.07	-0.329	-0.0572958	0.6302538	0.0572958	-14.0088231	69.22478556	9.70017894
8.46	846	0.951	0.07	-0.329	-0.0572958	0.572958	0	-14.01455268	69.23051514	9.69444936
8.47	847	0.951	0.068	-0.326	-0.0572958	0.4583664	0	-14.01455268	69.23624472	9.69444936
8.48	848	0.95	0.07	-0.324	-0.286479	0.4583664	-0.0572958	-14.02028226	69.2419743	9.68871978
8.49	849	0.951	0.07	-0.322	-0.3437748	0.4010706	-0.1145916	-14.03174142	69.24770388	9.6829902
8.5	850	0.951	0.071	-0.321	-0.4010706	0.5156622	-0.2291832	-14.0947668	69.28781094	9.6256944
8.51	851	0.951	0.072	-0.322	-0.4583664	0.572958	-0.2291832	-14.11195554	69.29354052	9.61996482
8.52	852	0.95	0.071	-0.321	-0.4010706	0.5156622	-0.1718874	-14.1234147	69.2992701	9.60850566
8.53	853	0.949	0.072	-0.322	-0.4010706	0.4010706	-0.3437748	-14.14060344	69.2992701	9.5970465
8.54	854	0.949	0.072	-0.32	-0.4010706	0.2291832	-0.3437748	-14.1520626	69.30499968	9.58558734
8.55	855	0.949	0.072	-0.322	-0.5156622	0.286479	-0.4010706	-14.22081756	69.33364758	9.52829154
8.56	856	0.948	0.073	-0.323	-0.5156622	0.1718874	-0.4583664	-14.2380063	69.33364758	9.51683238
8.57	857	0.948	0.074	-0.324	-0.3437748	-0.1145916	-0.6302538	-14.25519504	69.33364758	9.49964364
8.58	858	0.95	0.071	-0.322	-0.4010706	-0.2291832	-0.572958	-14.27238378	69.327918	9.4824549
8.59	859	0.951	0.071	-0.323	-0.6302538	-0.3437748	-0.5156622	-14.2953021	69.32218842	9.47099574
8.6	860	0.952	0.072	-0.322	-0.9740286	-0.2291832	-0.4010706	-14.33540916	69.34510674	9.43661826
8.61	861	0.95	0.071	-0.322	-1.0886202	-0.3437748	-0.4583664	-14.35832748	69.33937716	9.4251591
8.62	862	0.948	0.07	-0.325	-0.859437	-0.6875496	-0.5156622	-14.37551622	69.33364758	9.41942952
8.63	863	0.946	0.07	-0.326	-0.6875496	-0.9167328	-0.572958	-14.39270496	69.32218842	9.40797036
8.64	864	0.946	0.07	-0.326	-0.859437	-0.8021412	-0.572958	-14.4098937	69.31072926	9.3965112
8.65	865	0.946	0.072	-0.327	-1.0313244	-0.572958	-0.6302538	-14.45000076	69.31072926	9.3678633
8.66	866	0.946	0.072	-0.328	-1.0313244	-0.4010706	-0.6875496	-14.47291908	69.30499968	9.35640414
8.67	867	0.947	0.072	-0.328	-0.8021412	-0.4010706	-0.6302538	-14.4958374	69.2992701	9.3392154
8.68	868	0.948	0.072	-0.328	-0.6875496	-0.572958	-0.572958	-14.51875572	69.29354052	9.32775624
8.69	869	0.948	0.073	-0.329	-0.9740286	-0.6302538	-0.6302538	-14.54167404	69.28781094	9.3105675
8.7	870	0.949	0.073	-0.328	-1.0886202	-0.572958	-0.572958	-14.58751068	69.28781094	9.27619002
8.71	871	0.949	0.075	-0.326	-1.0313244	-0.6875496	-0.4583664	-14.60469942	69.27635178	9.27046044
8.72	872	0.948	0.074	-0.326	-0.9740286	-0.7448454	-0.572958	-14.62188816	69.2706222	9.25900128
8.73	873	0.947	0.074	-0.328	-0.859437	-0.572958	-0.5156622	-14.64480648	69.25916304	9.24754212
8.74	874	0.948	0.075	-0.327	-0.859437	-0.572958	-0.4583664	-14.66199522	69.25343346	9.23608296
8.75	875	0.947	0.075	-0.328	-0.7448454	-0.572958	-0.4583664	-14.70210228	69.25916304	9.20170548
8.76	876	0.947	0.075	-0.328	-0.8021412	-0.4583664	-0.4010706	-14.71929102	69.25343346	9.1959759
8.77	877	0.947	0.076	-0.327	-0.7448454	-0.4010706	-0.4010706	-14.73647976	69.24770388	9.18451674
8.78	878	0.945	0.075	-0.326	-0.7448454	-0.286479	-0.4010706	-14.7536685	69.2419743	9.17878716
8.79	879	0.944	0.074	-0.326	-0.6302538	-0.1718874	-0.4583664	-14.77085724	69.23624472	9.167328
8.8	880	0.943	0.075	-0.326	-0.6875496	-0.1145916	-0.3437748	-14.82242346	69.25343346	9.12149136
8.81	881	0.943	0.074	-0.327	-0.8021412	0	-0.3437748	-14.8396122	69.25343346	9.1100322
8.82	882	0.942	0.073	-0.33	-0.6875496	0	-0.1718874	-14.85107136	69.25343346	9.10430262
8.83	883	0.946	0.074	-0.328	-0.572958	-0.1718874	-0.0572958	-14.86253052	69.24770388	9.10430262
8.84	884	0.946	0.079	-0.326	-0.6302538	0	-0.2291832	-14.87398968	69.24770388	9.09857304
8.85	885	0.949	0.077	-0.329	-0.1145916	0	-0.286479	-14.97712212	69.28781094	9.00117018
8.86	886	0.949	0.075	-0.327	-0.1145916	0	-0.1718874	-14.9828517	69.28781094	8.9954406
8.87	887	0.949	0.076	-0.326	-0.1718874	-0.0572958	-0.1145916	-14.98858128	69.28781094	8.9954406
8.88	888	0.947	0.075	-0.327	0	-0.3437748	-0.1145916	-14.98858128	69.28208136	8.9954406
8.89	889	0.946	0.074	-0.326	0.0572958	-0.572958	-0.0572958	-14.98858128	69.27635178	8.9954406
8.9	890	0.945	0.074	-0.324	0.0572958	-0.572958	-0.0572958	-15.0114996	69.31072926	8.9667927
8.91	891	0.945	0.074	-0.324	0.3437748	-0.1718874	0	-15.00577002	69.31072926	8.97252228
8.92	892	0.945	0.074	-0.324	0.572958	0.0572958	0.1145916	-15.00004044	69.31072926	8.97252228
8.93	893	0.946	0.075	-0.324	0.5156622	0.2291832	0.0572958	-14.99431086	69.31072926	8.97252228
8.94	894	0.945	0.075	-0.326	0.6302538	0.1145916	0	-14.98858128	69.31645884	8.97252228
8.95	895	0.947	0.076	-0.325	0.6875496	-0.0572958	0.1145916	-15.00577002	69.33937716	8.94960396
8.96	896	0.948	0.075	-0.326	0.6875496	-0.1145916	0.1718874	-14.99431086	69.33937716	8.95533354
8.97	897	0.948	0.075	-0.326	0.7448454	-0.2291832	0.1145916	-14.9828517	69.33364758	8.96106312
8.98	898	0.948	0.072	-0.327	0.9740286	-0.4010706	0.2291832	-14.95993338	69.33364758	8.97252228
8.99	899	0.951	0.077	-0.324	0.4583664	-0.0572958	0.1718874	-14.94847422	69.33364758	8.97825186
9	900	0.949	0.076	-0.326	0.6875496	0	0.1145916	-14.96566296	69.35083632	8.95533354
9.01	901	0.948	0.073	-0.325	0.6302538	0	0.0572958	-14.95993338	69.35083632	8.95533354
9.02	902	0.947	0.076	-0.325	0.3437748	-0.0572958	0	-14.9542038	69.35083632	8.95533354
9.03	903	0.945	0.075	-0.327	0.4583664	-0.2291832	0	-14.94847422	69.34510674	8.96106312
9.04	904	0.945	0.074	-0.327	0.572958	-0.3437748	0.0572958	-14.93701506	69.34510674	8.9667927
9.05	905	0.946	0.074	-0.326	0.572958	-0.4583664	0.0572958	-14.9542038	69.35083632	8.94387438
9.06	906	0.945	0.074	-0.326	0.5156622	-0.286479	0	-14.94847422	69.35083632	8.94387438
9.07	907	0.945	0.075	-0.326	0.3437748	-0.1145916	-0.0572958	-14.94847422	69.35083632	8.9381448
9.08	908	0.946	0.074	-0.326	0.3437748	-0.0572958	-0.0572958	-14.94274464	69.34510674	8.9381448
9.09	909	0.944	0.074	-0.326	0.3437748	-0.0572958	-0.0572958	-14.94274464	69.34510674	8.9381448
9.1	910	0.948	0.074	-0.326	0.2291832	-0.4583664	0	-15.00004044	69.37375464	8.880849
9.11	911	0.949	0.078	-0.324	0.0572958	-0.1718874	0	-15.00004044	69.36802506	8.880849
9.12	912	0.948	0.076	-0.327	0.1145916	-0.2291832	-0.0572958	-15.00004044	69.36802506	8.880849
9.13	913	0.947	0.076	-0.325	0.1145916	-0.4010706	0	-14.99431086	69.36229548	8.880849
9.14	914	0.947	0.076	-0.326	0.286479	-0.572958	0	-14.98858128	69.3565659	8.88657858
9.15	915	0.948	0.076	-0.326	0.3437748	-0.6302538	0.0572958	-15.0114996	69.36229548	8.85793068
9.16	916	0.947	0.075	-0.326	0.4010706	-0.6302538	0.1145916	-15.00004044	69.3565659	8.86938984
9.17	917	0.946	0.076	-0.327	0.5156622	-0.6302538	0	-14.98858128	69.35083632	8.87511942
9.18	918	0.946	0.076	-0.327	0.4583664	-0.4583664	0.0572958	-14.9828517	69.34510674	8.880849
9.19	919	0.945	0.076	-0.328	0.4583664	-0.3437748	0	-14.97139254	69.34510674	8.880849
9.2	920	0.944	0.075	-0.328	0.4010706	-0.1145916	0.1718874	-14.97139254	69.35083632	8.880849
9.21	921	0.946	0.074	-0.327	0.2291832	-0.1718874	0.2291832	-14.95993338	69.35083632	8.88657858
9.22	922	0.947	0.077	-0.326	-0.1718874	0.1145916	0.1718874	-14.95993338	69.35083632	8.89230816
9.23	923	0.946	0.076	-0.327	0.1718874	0.1145916	0.2291832	-14.9542038	69.3565659	8.89803774
9.24	924	0.945	0.076	-0.327	0.1718874	0	0.2291832	-14.94274464	69.3565659	8.90376732
9.25	925	0.943	0.076	-0.328	0.1718874	0	0.286479	-14.99431086	69.3565659	8.85793068
9.26	926	0.943	0.077	-0.327	0.3437748	0	0.4010706	-14.97712212	69.3565659	8.86938984
9.27	927	0.945	0.075	-0.328	0.3437748	0	0.3437748	-14.96566296	69.3565659	8.880849
9.28	928	0.945	0.075	-0.328	0.286479	0	0.4583664	-14.94847422	69.36229548	8.89230816
9.29	929	0.946	0.074	-0.329	0.2291832	0	0.3437748	-14.93701506	69.36229548	8.90376732
9.3	930	0.946	0.074	-0.328	0.3437748	0	0.3437748	-14.94274464	69.36802506	8.89803774
9.31	931	0.945	0.074	-0.328	0.3437748	0	0.3437748	-14.93128548	69.37375464	8.90376732
9.32	932	0.944	0.074	-0.327	0.286479	0.1718874	0.2291832	-14.91982632	69.37375464	8.9094969
9.33	933	0.944	0.074	-0.328	0.1145916	0.3437748	0.1718874	-14.91409674	69.37948422	8.91522648
9.34	934	0.944	0.071	-0.329	0	0.4010706	0.1145916	-14.91409674	69.3852138	8.91522648
9.35	935	0.946	0.075	-0.328	-0.1718874	0.5156622	0	-14.96566296	69.40240254	8.87511942
9.36	936	0.947	0.074	-0.33	0.0572958	0.6302538	0	-14.96566296	69.40813212	8.86938984
9.37	937	0.947	0.074	-0.328	0.1145916	0.5156622	0	-14.97139254	69.4138617	8.86366026
9.38	938	0.948	0.074	-0.326	0.1145916	0.3437748	-0.0572958	-14.97139254	69.4138617	8.85793068
9.39	939	0.949	0.073	-0.325	0.1145916	0.286479	-0.0572958	-14.97712212	69.41959128	8.8522011
9.4	940	0.95	0.075	-0.327	0.1718874	0.1718874	-0.1145916	-15.03441792	69.4425096	8.7949053
9.41	941	0.949	0.074	-0.327	0.1718874	0.1145916	-0.1145916	-15.0401475	69.4425096	8.78917572
9.42	942	0.949	0.075	-0.328	0.2291832	0.1718874	-0.1718874	-15.0401475	69.44823918	8.78344614
9.43	943	0.949	0.075	-0.327	0.3437748	0.1718874	-0.1145916	-15.04587708	69.44823918	8.77771656
9.44	944	0.948	0.075	-0.327	0.4010706	0.1145916	-0.1718874	-15.04587708	69.44823918	8.77198698
9.45	945	0.948	0.075	-0.328	0.572958	0	-0.1718874	-15.05733624	69.44823918	8.75479824
9.46	946	0.948	0.074	-0.328	0.6875496	-0.2291832	-0.1718874	-15.05160666	69.4425096	8.74906866
9.47	947	0.948	0.073	-0.328	0.6875496	-0.286479	-0.1718874	-15.04587708	69.4425096	8.74906866
9.48	948	0.948	0.074	-0.327	0.5156622	-0.2291832	-0.2291832	-15.04587708	69.43678002	8.74333908
9.49	949	0.948	0.076	-0.327	0.4010706	0	-0.3437748	-15.05160666	69.43678002	8.73187992
9.5	950	0.95	0.076	-0.33	0.6875496	0.0572958	-0.4010706	-15.0687954	69.43678002	8.7089616
9.51	951	0.951	0.076	-0.33	0.8021412	-0.1145916	-0.286479	-15.0687954	69.43105044	8.70323202
9.52	952	0.949	0.075	-0.326	0.8021412	-0.6302538	-0.2291832	-15.06306582	69.42532086	8.69750244
9.53	953	0.946	0.075	-0.324	0.5156622	-0.9740286	-0.2291832	-15.05733624	69.4138617	8.69750244
9.54	954	0.944	0.075	-0.323	0.6302538	-0.859437	-0.2291832	-15.05160666	69.40813212	8.69750244
9.55	955	0.944	0.075	-0.324	0.6875496	-0.8021412	-0.1718874	-15.05160666	69.40813212	8.68604328
9.56	956	0.946	0.074	-0.328	0.4583664	-0.6302538	-0.3437748	-15.05160666	69.39667296	8.6803137
9.57	957	0.947	0.074	-0.328	0.3437748	-0.3437748	-0.3437748	-15.05733624	69.39667296	8.67458412
9.58	958	0.947	0.073	-0.33	0.3437748	-0.1718874	-0.286479	-15.05733624	69.39094338	8.66885454
9.59	959	0.945	0.074	-0.332	0.572958	-0.286479	-0.2291832	-15.05733624	69.39094338	8.66312496
9.6	960	0.944	0.074	-0.332	0.7448454	-0.8021412	-0.286479	-15.05160666	69.37375464	8.65739538
9.61	961	0.944	0.076	-0.332	0.9167328	-1.145916	-0.1718874	-15.0401475	69.36229548	8.66312496
9.62	962	0.944	0.077	-0.332	1.2032118	-1.3178034	-0.1145916	-15.02295876	69.35083632	8.66885454
9.63	963	0.945	0.075	-0.332	1.3178034	-1.2605076	-0.1145916	-15.00577002	69.33937716	8.66885454
9.64	964	0.947	0.074	-0.332	1.3750992	-1.0886202	-0.0572958	-14.98858128	69.327918	8.67458412
9.65	965	0.946	0.073	-0.332	1.2605076	-0.9740286	0	-14.96566296	69.31645884	8.6803137
9.66	966	0.945	0.073	-0.33	1.0313244	-0.7448454	0	-14.9542038	69.31072926	8.68604328
9.67	967	0.944	0.074	-0.33	0.8021412	-0.4010706	-0.0572958	-14.94274464	69.30499968	8.68604328
9.68	968	0.943	0.075	-0.331	0.7448454	-0.2291832	-0.1718874	-14.94274464	69.2992701	8.6803137
9.69	969	0.942	0.075	-0.331	0.859437	-0.286479	-0.1718874	-14.93701506	69.2992701	8.6803137
9.7	970	0.943	0.074	-0.332	0.9740286	-0.3437748	0	-14.9255559	69.29354052	8.67458412
9.71	971	0.943	0.072	-0.331	0.9167328	-0.4010706	0	-14.91409674	69.29354052	8.6803137
9.72	972	0.945	0.073	-0.331	0.859437	-0.4010706	0	-14.90263758	69.28781094	8.6803137
9.73	973	0.944	0.073	-0.331	0.8021412	-0.286479	0	-14.89117842	69.28208136	8.68604328
9.74	974	0.944	0.073	-0.332	0.859437	-0.3437748	0.0572958	-14.87971926	69.28208136	8.68604328
9.75	975	0.942	0.074	-0.331	0.859437	-0.2291832	0	-14.87971926	69.28208136	8.6803137
9.76	976	0.942	0.073	-0.331	0.9167328	-0.1718874	0	-14.8682601	69.27635178	8.6803137
9.77	977	0.944	0.074	-0.333	0.859437	0	-0.1145916	-14.86253052	69.27635178	8.67458412
9.78	978	0.944	0.073	-0.333	0.8021412	0.0572958	-0.0572958	-14.85680094	69.27635178	8.67458412
9.79	979	0.944	0.073	-0.333	0.8021412	0	0	-14.85107136	69.27635178	8.67458412
9.8	980	0.944	0.072	-0.333	0.859437	-0.286479	-0.0572958	-14.8396122	69.2706222	8.67458412
9.81	981	0.944	0.073	-0.332	0.9740286	-0.5156622	-0.1145916	-14.82815304	69.26489262	8.67458412
9.82	982	0.945	0.072	-0.329	0.286479	0	0	-14.82815304	69.26489262	8.67458412
9.83	983	0.945	0.071	-0.33	-0.2291832	0.3437748	0	-14.83388262	69.2706222	8.66885454
9.84	984	0.947	0.072	-0.328	-0.3437748	0.572958	-0.0572958	-14.8396122	69.27635178	8.66312496
9.85	985	0.947	0.072	-0.329	-0.286479	0.572958	-0.2291832	-14.85680094	69.29354052	8.6516658
9.86	986	0.947	0.072	-0.33	-0.286479	0.4583664	-0.2291832	-14.8682601	69.2992701	8.64020664
9.87	987	0.948	0.073	-0.331	-0.2291832	0.286479	-0.286479	-14.87971926	69.2992701	8.62874748
9.88	988	0.948	0.074	-0.33	-0.286479	0.2291832	-0.286479	-14.89117842	69.2992701	8.6230179
9.89	989	0.948	0.074	-0.331	-0.2291832	0.2291832	-0.2291832	-14.90263758	69.30499968	8.61155874
9.9	990	0.949	0.073	-0.331	-0.1145916	0.1145916	-0.2291832	-14.93701506	69.31645884	8.58291084
9.91	991	0.949	0.073	-0.331	-0.1145916	0.0572958	-0.2291832	-14.94274464	69.31645884	8.57718126
9.92	992	0.947	0.074	-0.331	-0.0572958	-0.1145916	-0.1145916	-14.94847422	69.31645884	8.57145168
9.93	993	0.947	0.073	-0.333	-0.1718874	-0.1145916	-0.1718874	-14.9542038	69.31645884	8.5657221
9.94	994	0.945	0.073	-0.333	-0.286479	0	-0.1718874	-14.96566296	69.31645884	8.55999252
9.95	995	0.944	0.074	-0.333	-0.286479	0.1145916	-0.1145916	-14.9828517	69.2992701	8.54853336
9.96	996	0.942	0.074	-0.335	-0.2291832	0.0572958	-0.1145916	-14.98858128	69.2992701	8.54280378
9.97	997	0.941	0.074	-0.335	-0.1145916	0	0	-14.98858128	69.2992701	8.54280378
9.98	998	0.94	0.073	-0.334	0	-0.1145916	0	-14.98858128	69.2992701	8.54280378
9.99	999	0.942	0.072	-0.333	-0.0572958	-0.0572958	0	-14.98858128	69.2992701	8.54853336
10	1000	0.941	0.073	-0.334	-0.1145916	0.1145916	0.1718874	-14.9828517	69.28781094	8.55426294
10.01	1001	0.941	0.073	-0.334	-0.0572958	0.2291832	0.1145916	-14.97712212	69.28781094	8.55999252
10.02	1002	0.941	0.072	-0.336	-0.0572958	0.2291832	0.0572958	-14.97712212	69.29354052	8.55999252
10.03	1003	0.942	0.072	-0.336	0	0.2291832	0.0572958	-14.97712212	69.29354052	8.55999252
10.04	1004	0.942	0.072	-0.336	0	0.2291832	0.1145916	-14.97712212	69.2992701	8.55999252
10.05	1005	0.942	0.072	-0.337	0	0.1718874	0.0572958	-14.93701506	69.2706222	8.60009958
10.06	1006	0.942	0.072	-0.337	0	0.1145916	0.1145916	-14.93128548	69.2706222	8.60009958
