TimeStamp(s)	FrameCounter	AccX	AccY	AccZ	GyrX	GyrY	GyrZ	EulerX	EulerY	EulerZ
0.01	1	0.005	-1.004	0.064	0.6875496	1.0886202	0	93.47236812	0.29220858	6.20513514
0.02	2	0.007	-1.004	0.062	0.6875496	1.3178034	0	93.48382728	0.29220858	6.22232388
0.03	3	0.005	-1.005	0.067	0.859437	1.4896908	0	93.48955686	0.286479	6.23378304
0.04	4	0.006	-1.005	0.065	1.2032118	1.432395	0.0572958	93.5067456	0.286479	6.25097178
0.05	5	0.007	-1.008	0.073	1.3750992	1.3178034	0.0572958	93.50101602	0.29793816	6.26243094
0.06	6	0.007	-1.009	0.076	1.145916	0.7448454	0.1718874	93.51247518	0.29220858	6.2738901
0.07	7	0.011	-1.01	0.082	0.7448454	0.1718874	0.0572958	93.51820476	0.29220858	6.2738901
0.08	8	0.012	-1.01	0.083	0.5156622	0	0	93.52393434	0.29220858	6.2738901
0.09	9	0.013	-1.01	0.084	0.286479	0	-0.1145916	93.52966392	0.29220858	6.2738901
0.1	10	0.013	-1.008	0.082	0.2291832	-0.0572958	-0.1718874	93.52966392	0.36096354	6.26243094
0.11	11	0.013	-1.009	0.082	0.2291832	-0.2291832	-0.286479	93.52966392	0.36096354	6.26243094
0.12	12	0.013	-1.008	0.081	0.1145916	-0.2291832	-0.286479	93.52966392	0.36669312	6.25670136
0.13	13	0.012	-1.008	0.08	0	-0.286479	-0.2291832	93.52966392	0.36669312	6.25670136
0.14	14	0.013	-1.007	0.078	-0.1718874	-0.4010706	-0.1145916	93.52966392	0.3724227	6.25097178
0.15	15	0.013	-1.009	0.075	-0.4010706	-0.5156622	0	93.5067456	0.40680018	6.2452422
0.16	16	0.013	-1.008	0.073	-0.572958	-0.572958	0	93.50101602	0.40680018	6.23951262
0.17	17	0.012	-1.005	0.07	-0.572958	-0.9167328	0.0572958	93.49528644	0.40680018	6.22805346
0.18	18	0.01	-1.003	0.071	-0.572958	-1.2605076	0.0572958	93.48955686	0.40680018	6.2165943
0.19	19	0.008	-1.002	0.073	-0.6875496	-1.3178034	0.0572958	93.4780977	0.40680018	6.19940556
0.2	20	0.007	-1.001	0.074	-0.7448454	-1.432395	0	93.46090896	0.41825934	6.1879464
0.21	21	0.006	-1.001	0.075	-0.9167328	-1.3178034	-0.0572958	93.4494498	0.41825934	6.17075766
0.22	22	0.007	-1.001	0.075	-1.0313244	-1.2605076	-0.1145916	93.43799064	0.42398892	6.1592985
0.23	23	0.009	-1.001	0.077	-1.0886202	-1.2605076	-0.0572958	93.42653148	0.42398892	6.14783934
0.24	24	0.011	-1.004	0.077	-1.0313244	-1.2605076	0	93.41507232	0.42398892	6.13638018
0.25	25	0.012	-1.006	0.078	-0.9740286	-1.4896908	0	93.40361316	0.44117766	6.11919144
0.26	26	0.012	-1.008	0.078	-0.859437	-1.8334656	0.0572958	93.392154	0.44117766	6.1020027
0.27	27	0.01	-1.006	0.079	-0.859437	-2.1772404	0	93.38642442	0.44117766	6.07908438
0.28	28	0.01	-1.003	0.08	-0.9167328	-2.1772404	0.0572958	93.37496526	0.44117766	6.05616606
0.29	29	0.01	-1.001	0.081	-0.8021412	-2.0626488	0	93.3635061	0.44690724	6.03324774
0.3	30	0.008	-1.002	0.081	-0.6302538	-1.9480572	0	93.35777652	0.45263682	6.016059
0.31	31	0.006	-1.003	0.079	-0.4010706	-1.8907614	0	93.35777652	0.45263682	5.99314068
0.32	32	0.005	-1.004	0.077	-0.4010706	-1.9480572	-0.0572958	93.35204694	0.4583664	5.97595194
0.33	33	0.006	-1.006	0.076	-0.286479	-1.8334656	0	93.34631736	0.4583664	5.9587632
0.34	34	0.009	-1.006	0.077	-0.2291832	-1.7761698	0.0572958	93.34631736	0.4583664	5.94157446
0.35	35	0.01	-1.006	0.077	-0.2291832	-1.6615782	0.0572958	93.34058778	0.47555514	5.91865614
0.36	36	0.012	-1.003	0.078	-0.2291832	-1.8334656	0.1145916	93.3348582	0.47555514	5.9014674
0.37	37	0.013	-1	0.078	-0.286479	-1.8334656	0.1718874	93.3348582	0.47555514	5.88427866
0.38	38	0.012	-0.999	0.077	-0.2291832	-1.7761698	0.2291832	93.32912862	0.47555514	5.86708992
0.39	39	0.011	-1	0.076	-0.2291832	-1.4896908	0.2291832	93.32912862	0.46982556	5.84990118
0.4	40	0.011	-1.001	0.075	-0.1145916	-1.3750992	0.1718874	93.31766946	0.4870143	5.83844202
0.41	41	0.011	-1.002	0.074	0.2291832	-1.432395	0.0572958	93.31766946	0.4870143	5.82125328
0.42	42	0.01	-1.002	0.075	0.286479	-1.4896908	0	93.32339904	0.49274388	5.80406454
0.43	43	0.008	-1.002	0.076	0.286479	-1.718874	0	93.32339904	0.49274388	5.7868758
0.44	44	0.008	-1.002	0.077	0.3437748	-1.8334656	0	93.32912862	0.49274388	5.76968706
0.45	45	0.008	-1.003	0.079	0.5156622	-1.6615782	0.0572958	93.3348582	0.49847346	5.75249832
0.46	46	0.009	-1.005	0.078	0.5156622	-1.4896908	0.1718874	93.34058778	0.49847346	5.73530958
0.47	47	0.009	-1.009	0.075	0.6302538	-1.3750992	0.1718874	93.34631736	0.49847346	5.72385042
0.48	48	0.008	-1.009	0.075	0.6302538	-1.3178034	0.3437748	93.35204694	0.49847346	5.71239126
0.49	49	0.01	-1.007	0.076	0.6302538	-1.3178034	0.4010706	93.35777652	0.49274388	5.69520252
0.5	50	0.009	-1.006	0.076	0.6302538	-1.2032118	0.4583664	93.35777652	0.49847346	5.68374336
0.51	51	0.008	-1.002	0.076	0.6302538	-1.145916	0.4010706	93.3635061	0.49847346	5.6722842
0.52	52	0.008	-1.001	0.074	0.6302538	-0.859437	0.286479	93.36923568	0.49274388	5.66082504
0.53	53	0.007	-1.002	0.073	0.5156622	-0.6875496	0.2291832	93.37496526	0.49274388	5.65509546
0.54	54	0.006	-1.004	0.072	0.5156622	-0.6875496	0.286479	93.38069484	0.4870143	5.64936588
0.55	55	0.008	-1.004	0.074	0.572958	-0.6302538	0.3437748	93.36923568	0.49847346	5.6436363
0.56	56	0.01	-1.005	0.073	0.4010706	-0.5156622	0.3437748	93.37496526	0.49847346	5.63790672
0.57	57	0.013	-1.005	0.072	0.3437748	-0.4583664	0.4010706	93.37496526	0.49274388	5.63217714
0.58	58	0.014	-1.005	0.07	0.4583664	-0.5156622	0.4583664	93.38069484	0.4870143	5.62644756
0.59	59	0.015	-1.006	0.071	0.6302538	-0.5156622	0.4010706	93.38642442	0.48128472	5.62071798
0.6	60	0.013	-1.005	0.071	0.7448454	-0.6302538	0.3437748	93.37496526	0.50420304	5.60925882
0.61	61	0.011	-1.005	0.072	0.7448454	-0.7448454	0.4010706	93.38642442	0.49847346	5.60352924
0.62	62	0.01	-1.005	0.072	0.7448454	-0.6875496	0.3437748	93.392154	0.49274388	5.59779966
0.63	63	0.01	-1.005	0.073	0.8021412	-0.6302538	0.286479	93.40361316	0.49274388	5.59207008
0.64	64	0.01	-1.005	0.071	0.7448454	-0.572958	0.2291832	93.40934274	0.49274388	5.5863405
0.65	65	0.011	-1.006	0.07	0.7448454	-0.5156622	0.3437748	93.38642442	0.50993262	5.57488134
0.66	66	0.011	-1.006	0.07	0.859437	-0.5156622	0.3437748	93.39788358	0.50420304	5.56915176
0.67	67	0.011	-1.007	0.07	0.859437	-0.6302538	0.4010706	93.40361316	0.50420304	5.56342218
0.68	68	0.011	-1.007	0.07	0.7448454	-0.6302538	0.286479	93.41507232	0.49847346	5.5576926
0.69	69	0.011	-1.006	0.07	0.6875496	-0.5156622	0.4010706	93.4208019	0.49847346	5.55196302
0.7	70	0.012	-1.005	0.072	0.572958	-0.4583664	0.3437748	93.40361316	0.5156622	5.54623344
0.71	71	0.01	-1.004	0.069	0.5156622	-0.572958	0.4010706	93.40934274	0.50993262	5.54050386
0.72	72	0.01	-1.003	0.068	0.5156622	-0.6302538	0.3437748	93.41507232	0.50420304	5.53477428
0.73	73	0.01	-1.003	0.068	0.572958	-0.6302538	0.3437748	93.4208019	0.50420304	5.5290447
0.74	74	0.011	-1.004	0.066	0.6875496	-0.8021412	0.3437748	93.43226106	0.49847346	5.51758554
0.75	75	0.011	-1.003	0.068	0.6875496	-0.8021412	0.286479	93.41507232	0.5156622	5.51185596
0.76	76	0.011	-1.005	0.069	0.7448454	-0.6875496	0.286479	93.4208019	0.50993262	5.50612638
0.77	77	0.011	-1.006	0.068	0.6875496	-0.7448454	0.2291832	93.42653148	0.50993262	5.49466722
0.78	78	0.012	-1.007	0.067	0.6302538	-0.7448454	0.2291832	93.43799064	0.50993262	5.48893764
0.79	79	0.012	-1.008	0.068	0.6875496	-0.8021412	0.286479	93.44372022	0.50420304	5.48320806
0.8	80	0.011	-1.008	0.067	0.8021412	-0.859437	0.3437748	93.42653148	0.5156622	5.4717489
0.81	81	0.011	-1.009	0.067	0.8021412	-1.145916	0.2291832	93.43226106	0.50993262	5.46028974
0.82	82	0.01	-1.009	0.069	0.7448454	-1.3178034	0.1718874	93.43799064	0.50993262	5.44883058
0.83	83	0.01	-1.008	0.07	0.0572958	-0.8021412	-0.0572958	93.44372022	0.5156622	5.43737142
0.84	84	0.011	-1.007	0.069	-0.1718874	-0.4583664	-0.1145916	93.43799064	0.5156622	5.43164184
0.85	85	0.011	-1.006	0.068	-0.5156622	-0.2291832	-0.1145916	93.37496526	0.5443101	5.43164184
0.86	86	0.01	-1.005	0.068	-0.572958	-0.0572958	-0.0572958	93.36923568	0.5443101	5.43164184
0.87	87	0.009	-1.007	0.069	-0.572958	0	0	93.3635061	0.5443101	5.43164184
0.88	88	0.008	-1.006	0.07	-0.572958	0.0572958	0	93.35777652	0.5443101	5.43164184
0.89	89	0.006	-1.009	0.071	-0.5156622	0	0	93.35204694	0.5443101	5.43164184
0.9	90	0.005	-1.009	0.071	-0.4010706	0	-0.1145916	93.3062103	0.55003968	5.43164184
0.91	91	0.006	-1.008	0.071	-0.3437748	-0.2291832	-0.1145916	93.3062103	0.55003968	5.43164184
0.92	92	0.008	-1.007	0.072	-0.4583664	-0.5156622	-0.1718874	93.30048072	0.55576926	5.42591226
0.93	93	0.011	-1.006	0.072	-0.5156622	-0.572958	-0.1718874	93.29475114	0.55576926	5.42018268
0.94	94	0.012	-1.006	0.071	-0.5156622	-0.6302538	-0.1145916	93.28902156	0.55576926	5.4144531
0.95	95	0.012	-1.007	0.07	-0.572958	-0.6875496	0	93.26037366	0.57868758	5.40299394
0.96	96	0.011	-1.009	0.068	-0.6875496	-0.6875496	0	93.25464408	0.57868758	5.39726436
0.97	97	0.01	-1.006	0.068	-0.6302538	-0.572958	0	93.2489145	0.57868758	5.39153478
0.98	98	0.009	-1.004	0.067	-0.6302538	-0.4010706	-0.0572958	93.23745534	0.57868758	5.3858052
0.99	99	0.008	-1.002	0.067	-0.572958	-0.3437748	-0.1145916	93.23172576	0.58441716	5.3858052
1	100	0.007	-1.001	0.068	-0.4583664	-0.286479	-0.1145916	93.20880744	0.58441716	5.38007562
1.01	101	0.006	-1.003	0.067	-0.2291832	-0.5156622	-0.2291832	93.20307786	0.59014674	5.37434604
1.02	102	0.007	-1.004	0.07	-0.1718874	-0.572958	-0.2291832	93.20307786	0.59014674	5.36861646
1.03	103	0.009	-1.007	0.07	-0.1718874	-0.5156622	-0.286479	93.19734828	0.59587632	5.36861646
1.04	104	0.009	-1.007	0.072	-0.1145916	-0.1718874	-0.3437748	93.19734828	0.59587632	5.36288688
1.05	105	0.008	-1.009	0.072	-0.286479	-0.0572958	-0.2291832	93.16870038	0.61306506	5.36288688
1.06	106	0.008	-1.008	0.073	-0.3437748	-0.1718874	-0.2291832	93.16870038	0.61879464	5.36288688
1.07	107	0.008	-1.007	0.073	-0.4010706	-0.1718874	-0.1718874	93.1629708	0.61879464	5.3571573
1.08	108	0.008	-1.006	0.073	-0.5156622	-0.1145916	-0.1718874	93.15724122	0.61879464	5.3571573
1.09	109	0.007	-1.007	0.073	-0.4010706	-0.1718874	-0.1145916	93.15151164	0.62452422	5.3571573
1.1	110	0.007	-1.006	0.073	-0.572958	-0.1145916	-0.1718874	93.12859332	0.6302538	5.3571573
1.11	111	0.007	-1.006	0.073	-0.5156622	-0.3437748	-0.1145916	93.12286374	0.6302538	5.35142772
1.12	112	0.007	-1.004	0.074	-0.5156622	-0.6302538	-0.2291832	93.11713416	0.63598338	5.34569814
1.13	113	0.009	-1.002	0.074	-0.572958	-0.8021412	-0.4010706	93.11140458	0.64171296	5.33423898
1.14	114	0.009	-1.003	0.073	-0.3437748	-0.5156622	-0.3437748	93.105675	0.64171296	5.33423898
1.15	115	0.01	-1.005	0.073	-0.2291832	-0.5156622	-0.3437748	93.09421584	0.66463128	5.32277982
1.16	116	0.009	-1.006	0.073	-0.2291832	-0.4010706	-0.2291832	93.09421584	0.67036086	5.32277982
1.17	117	0.009	-1.006	0.072	-0.1145916	-0.2291832	-0.1718874	93.09421584	0.67036086	5.31705024
1.18	118	0.009	-1.006	0.071	-0.1145916	-0.1718874	0	93.08848626	0.67036086	5.31705024
1.19	119	0.009	-1.006	0.072	-0.1145916	-0.0572958	0	93.08848626	0.67036086	5.31705024
1.2	120	0.009	-1.003	0.071	0	-0.1145916	0	93.0483792	0.69900876	5.31132066
1.21	121	0.009	-1.004	0.071	0	-0.2291832	0	93.0483792	0.69900876	5.31132066
1.22	122	0.01	-1.002	0.073	0	-0.0572958	0	93.0483792	0.69900876	5.31132066
1.23	123	0.009	-1.001	0.072	0.1718874	0.1145916	0	93.0483792	0.69900876	5.31132066
1.24	124	0.008	-1.002	0.073	0.4583664	0.2291832	0	93.05410878	0.69900876	5.31132066
1.25	125	0.007	-1.002	0.075	0.4583664	0.4583664	0	93.05410878	0.69900876	5.31705024
1.26	126	0.007	-1.003	0.076	0.6875496	0.6875496	0.0572958	93.06556794	0.69900876	5.32277982
1.27	127	0.005	-1.004	0.077	0.7448454	0.859437	0.1145916	93.07129752	0.69327918	5.33423898
1.28	128	0.004	-1.005	0.077	0.6875496	1.0313244	0.1718874	93.0770271	0.69327918	5.34569814
1.29	129	0.005	-1.007	0.077	0.6302538	1.0886202	0.1718874	93.08848626	0.6875496	5.3571573
1.3	130	0.007	-1.008	0.078	0.6302538	1.145916	0.1718874	93.09994542	0.6875496	5.36861646
1.31	131	0.009	-1.007	0.076	0.6875496	1.0886202	0.2291832	93.105675	0.6875496	5.38007562
1.32	132	0.011	-1.006	0.074	0.7448454	1.0313244	0.286479	93.11140458	0.68182002	5.3858052
1.33	133	0.012	-1.007	0.072	0.6302538	0.8021412	0.2291832	93.11713416	0.68182002	5.39726436
1.34	134	0.011	-1.007	0.074	0.7448454	0.572958	0.1718874	93.12859332	0.67609044	5.40299394
1.35	135	0.01	-1.006	0.074	0.6302538	0.4010706	0.2291832	93.12859332	0.68182002	5.40299394
1.36	136	0.01	-1.005	0.074	0.5156622	0.2291832	0.286479	93.1343229	0.67609044	5.40872352
1.37	137	0.008	-1.005	0.075	0.5156622	0.4583664	0.4583664	93.14005248	0.67609044	5.4144531
1.38	138	0.007	-1.005	0.073	0.3437748	0.7448454	0.4583664	93.14005248	0.67036086	5.42018268
1.39	139	0.007	-1.004	0.071	0.3437748	0.8021412	0.4583664	93.14578206	0.66463128	5.42591226
1.4	140	0.006	-1.005	0.072	0.4583664	0.572958	0.4583664	93.14578206	0.65317212	5.43164184
1.41	141	0.008	-1.005	0.072	0.3437748	0.5156622	0.4583664	93.14578206	0.65317212	5.43737142
1.42	142	0.008	-1.003	0.072	0.4583664	0.4010706	0.5156622	93.15151164	0.64744254	5.443101
1.43	143	0.009	-1.004	0.074	0.4583664	0.4583664	0.5156622	93.15724122	0.64171296	5.44883058
1.44	144	0.008	-1.005	0.074	0.286479	0.6875496	0.572958	93.15724122	0.6302538	5.45456016
1.45	145	0.006	-1.007	0.073	0.286479	0.9167328	0.6875496	93.15724122	0.62452422	5.46601932
1.46	146	0.003	-1.009	0.073	0.1718874	1.145916	0.6302538	93.15724122	0.61879464	5.47747848
1.47	147	0.002	-1.01	0.074	0	1.432395	0.5156622	93.15724122	0.60733548	5.48893764
1.48	148	0.002	-1.01	0.073	0	1.5469866	0.3437748	93.15724122	0.60733548	5.50612638
1.49	149	0.005	-1.007	0.072	0.1718874	1.3178034	0.3437748	93.1629708	0.6016059	5.51758554
1.5	150	0.008	-1.003	0.074	0.3437748	0.6302538	0.1718874	93.15724122	0.60733548	5.52331512
1.51	151	0.012	-1.001	0.075	0.4010706	0.4010706	0.1145916	93.1629708	0.60733548	5.5290447
1.52	152	0.013	-1.002	0.075	0.4010706	0.1718874	0.0572958	93.16870038	0.60733548	5.5290447
1.53	153	0.015	-1.004	0.075	0.2291832	0.2291832	0	93.16870038	0.60733548	5.5290447
1.54	154	0.014	-1.005	0.073	0.1145916	0.4583664	0.0572958	93.17442996	0.60733548	5.53477428
1.55	155	0.014	-1.006	0.07	0	0.4583664	0.1145916	93.1343229	0.64171296	5.54050386
1.56	156	0.012	-1.006	0.068	0	0.286479	0	93.14005248	0.63598338	5.54050386
1.57	157	0.009	-1.005	0.066	0.3437748	0.1145916	0	93.14005248	0.63598338	5.54623344
1.58	158	0.007	-1.005	0.067	0.6302538	-0.1718874	-0.1145916	93.14578206	0.64171296	5.54050386
1.59	159	0.007	-1.003	0.07	0.7448454	-0.3437748	-0.2291832	93.15724122	0.64171296	5.54050386
1.6	160	0.007	-1.002	0.071	0.859437	-0.5156622	-0.4010706	93.15724122	0.64744254	5.53477428
1.61	161	0.008	-1.003	0.073	0.8021412	-0.4583664	-0.572958	93.1629708	0.65317212	5.5290447
1.62	162	0.008	-1.003	0.072	0.8021412	-0.4010706	-0.6875496	93.17442996	0.6589017	5.52331512
1.63	163	0.008	-1.004	0.072	0.859437	-0.4010706	-0.6875496	93.18015954	0.67036086	5.52331512
1.64	164	0.007	-1.004	0.071	0.9740286	-0.4010706	-0.6875496	93.1916187	0.67609044	5.51758554
1.65	165	0.008	-1.005	0.071	1.0313244	-0.286479	-0.6875496	93.1916187	0.6875496	5.51758554
1.66	166	0.007	-1.006	0.07	1.0313244	-0.1718874	-0.572958	93.20307786	0.69327918	5.51758554
1.67	167	0.006	-1.006	0.072	0.9167328	-0.0572958	-0.572958	93.21453702	0.69900876	5.51185596
1.68	168	0.006	-1.007	0.073	0.859437	0.1145916	-0.572958	93.2202666	0.70473834	5.51758554
1.69	169	0.005	-1.006	0.073	0.7448454	0.1145916	-0.6302538	93.23172576	0.71046792	5.51758554
1.7	170	0.005	-1.006	0.072	0.7448454	0.1145916	-0.7448454	93.22599618	0.7161975	5.52331512
1.71	171	0.005	-1.005	0.071	0.7448454	0.0572958	-0.8021412	93.23745534	0.72192708	5.52331512
1.72	172	0.007	-1.005	0.071	0.7448454	0	-0.9740286	93.24318492	0.73338624	5.52331512
1.73	173	0.007	-1.007	0.072	0.6875496	0.2291832	-0.9167328	93.2489145	0.73911582	5.5290447
1.74	174	0.009	-1.008	0.074	0.7448454	0.2291832	-0.9167328	93.26037366	0.75057498	5.5290447
1.75	175	0.01	-1.008	0.074	0.572958	0.286479	-0.7448454	93.25464408	0.76203414	5.53477428
1.76	176	0.009	-1.009	0.073	0.3437748	0.3437748	-0.6302538	93.26037366	0.76776372	5.53477428
1.77	177	0.009	-1.007	0.073	0.2291832	0.5156622	-0.572958	93.26037366	0.7734933	5.54050386
1.78	178	0.01	-1.008	0.073	0.4583664	0.6302538	-0.5156622	93.26610324	0.77922288	5.55196302
1.79	179	0.01	-1.006	0.073	0.6302538	0.6875496	-0.572958	93.27183282	0.78495246	5.5576926
1.8	180	0.011	-1.005	0.073	0.7448454	0.7448454	-0.572958	93.27183282	0.79068204	5.56342218
1.81	181	0.01	-1.005	0.075	0.6875496	0.7448454	-0.572958	93.28329198	0.79641162	5.57488134
1.82	182	0.012	-1.006	0.074	0.6302538	0.7448454	-0.6302538	93.28902156	0.8021412	5.58061092
1.83	183	0.011	-1.008	0.074	0.5156622	0.6875496	-0.5156622	93.29475114	0.80787078	5.5863405
1.84	184	0.009	-1.006	0.074	0.4010706	0.4583664	-0.4583664	93.29475114	0.81360036	5.59207008
1.85	185	0.01	-1.005	0.073	0.286479	0.4010706	-0.4583664	93.2775624	0.81932994	5.59779966
1.86	186	0.011	-1.004	0.073	0.286479	0.4583664	-0.4010706	93.28329198	0.82505952	5.60352924
1.87	187	0.012	-1.004	0.074	0.3437748	0.572958	-0.286479	93.28902156	0.82505952	5.60925882
1.88	188	0.012	-1.004	0.074	0.286479	0.7448454	-0.3437748	93.28902156	0.8307891	5.6149884
1.89	189	0.013	-1.004	0.074	0.4010706	0.7448454	-0.4010706	93.29475114	0.83651868	5.62644756
1.9	190	0.012	-1.004	0.074	0.4010706	0.6302538	-0.2291832	93.28329198	0.84224826	5.63217714
1.91	191	0.011	-1.003	0.074	0	0.4583664	0.2291832	93.28329198	0.84224826	5.63790672
1.92	192	0.013	-1.004	0.074	0	0.5156622	0.2291832	93.28329198	0.83651868	5.6436363
1.93	193	0.012	-1.003	0.074	-0.0572958	0.6302538	0.1145916	93.28329198	0.83651868	5.64936588
1.94	194	0.012	-1.004	0.074	0	0.6302538	0.286479	93.28329198	0.8307891	5.65509546
1.95	195	0.012	-1.003	0.073	0.0572958	0.8021412	0.286479	93.26610324	0.84224826	5.66082504
1.96	196	0.013	-1.005	0.073	0.2291832	0.859437	0.286479	93.27183282	0.83651868	5.6722842
1.97	197	0.012	-1.006	0.073	0.1718874	0.6875496	0.286479	93.27183282	0.8307891	5.67801378
1.98	198	0.012	-1.005	0.072	0.2291832	0.7448454	0.3437748	93.2775624	0.8307891	5.68374336
1.99	199	0.013	-1.004	0.074	0.1718874	0.6302538	0.3437748	93.2775624	0.82505952	5.68947294
2	200	0.013	-1.004	0.073	0.1718874	0.5156622	0.3437748	93.26610324	0.8307891	5.69520252
2.01	201	0.012	-1.006	0.075	0.2291832	0.0572958	0.1718874	93.26610324	0.8307891	5.69520252
2.02	202	0.013	-1.006	0.078	0.1718874	0.1718874	0.1718874	93.27183282	0.82505952	5.69520252
2.03	203	0.012	-1.006	0.076	0.0572958	0.3437748	0.2291832	93.27183282	0.82505952	5.7009321
2.04	204	0.013	-1.007	0.076	0	0.1718874	0.2291832	93.27183282	0.81932994	5.7009321
2.05	205	0.013	-1.006	0.075	0	-0.1145916	0.2291832	93.25464408	0.83651868	5.7009321
2.06	206	0.014	-1.006	0.075	0	-0.2291832	0.286479	93.25464408	0.83651868	5.7009321
2.07	207	0.016	-1.006	0.074	-0.1145916	-0.2291832	0.3437748	93.25464408	0.8307891	5.69520252
2.08	208	0.015	-1.006	0.074	-0.2291832	-0.0572958	0.3437748	93.2489145	0.82505952	5.69520252
2.09	209	0.014	-1.006	0.073	-0.286479	0.1145916	0.5156622	93.2489145	0.82505952	5.69520252
2.1	210	0.013	-1.007	0.074	-0.3437748	0.286479	0.572958	93.23745534	0.81932994	5.69520252
2.11	211	0.012	-1.008	0.074	-0.4010706	0.286479	0.4583664	93.23172576	0.81932994	5.7009321
2.12	212	0.012	-1.008	0.076	-0.3437748	0.1718874	0.3437748	93.22599618	0.81360036	5.7009321
2.13	213	0.012	-1.007	0.076	-0.286479	0	0.3437748	93.22599618	0.80787078	5.7009321
2.14	214	0.013	-1.005	0.075	-0.1718874	-0.6875496	0.286479	93.22599618	0.80787078	5.69520252
2.15	215	0.015	-1.004	0.074	-0.2291832	-0.9740286	0.2291832	93.21453702	0.81932994	5.68374336
2.16	216	0.017	-1.003	0.076	-0.286479	-1.0886202	0.286479	93.21453702	0.81932994	5.6722842
2.17	217	0.018	-1.003	0.074	-0.286479	-1.2032118	0.3437748	93.20880744	0.81360036	5.66082504
2.18	218	0.019	-1.006	0.072	-0.286479	-1.0886202	0.4583664	93.20880744	0.80787078	5.64936588
2.19	219	0.016	-1.007	0.072	-0.1145916	-1.0886202	0.572958	93.20307786	0.80787078	5.63790672
2.2	220	0.015	-1.009	0.073	-0.1718874	-1.0313244	0.572958	93.1916187	0.80787078	5.62644756
2.21	221	0.015	-1.007	0.074	-0.1718874	-0.9740286	0.5156622	93.1916187	0.80787078	5.6149884
2.22	222	0.015	-1.005	0.074	0	-1.145916	0.572958	93.1916187	0.8021412	5.60352924
2.23	223	0.014	-1.003	0.074	0.1145916	-1.145916	0.572958	93.1916187	0.79641162	5.59207008
2.24	224	0.014	-1.003	0.075	0.3437748	-1.2605076	0.572958	93.19734828	0.79068204	5.58061092
2.25	225	0.014	-1.003	0.076	0.4010706	-1.2605076	0.5156622	93.19734828	0.79068204	5.56342218
2.26	226	0.013	-1.003	0.078	0.5156622	-1.0313244	0.4583664	93.20307786	0.79068204	5.55196302
2.27	227	0.013	-1.004	0.078	0.572958	-0.9167328	0.3437748	93.20880744	0.78495246	5.54623344
2.28	228	0.012	-1.005	0.078	0.572958	-0.859437	0.3437748	93.21453702	0.78495246	5.53477428
2.29	229	0.012	-1.006	0.075	0.5156622	-0.6302538	0.4010706	93.2202666	0.77922288	5.5290447
2.3	230	0.013	-1.006	0.074	0.4010706	-0.3437748	0.3437748	93.21453702	0.79068204	5.52331512
2.31	231	0.014	-1.005	0.074	0.4010706	-0.1718874	0.4583664	93.21453702	0.78495246	5.52331512
2.32	232	0.015	-1.004	0.074	0.4010706	-0.1145916	0.572958	93.2202666	0.77922288	5.52331512
2.33	233	0.016	-1.004	0.073	0.3437748	-0.0572958	0.6302538	93.22599618	0.7734933	5.51758554
2.34	234	0.016	-1.004	0.072	0.4583664	-0.1718874	0.6875496	93.23172576	0.76776372	5.51758554
2.35	235	0.015	-1.003	0.071	0.572958	-0.3437748	0.6875496	93.22599618	0.7734933	5.51185596
2.36	236	0.014	-1.003	0.073	0.572958	-0.5156622	0.6302538	93.23172576	0.76203414	5.50612638
2.37	237	0.016	-1.003	0.074	0.572958	-0.572958	0.6875496	93.23745534	0.75630456	5.5003968
2.38	238	0.017	-1.004	0.075	0.5156622	-0.4010706	0.6302538	93.24318492	0.75057498	5.49466722
2.39	239	0.017	-1.004	0.076	0.4583664	-0.2291832	0.6875496	93.2489145	0.7448454	5.49466722
2.4	240	0.015	-1.006	0.077	0.3437748	0	0.8021412	93.2489145	0.75630456	5.48893764
2.41	241	0.016	-1.005	0.077	0.3437748	0	0.859437	93.25464408	0.7448454	5.48893764
2.42	242	0.016	-1.005	0.078	0.4010706	-0.0572958	0.9167328	93.25464408	0.73338624	5.48893764
2.43	243	0.016	-1.006	0.077	0.4583664	-0.286479	1.0313244	93.26037366	0.72765666	5.48320806
2.44	244	0.017	-1.006	0.077	0.5156622	-0.286479	1.145916	93.26610324	0.7161975	5.48320806
2.45	245	0.018	-1.007	0.079	0.6302538	-0.4583664	1.0886202	93.27183282	0.7161975	5.47747848
2.46	246	0.017	-1.007	0.078	0.6302538	-0.6302538	1.145916	93.2775624	0.70473834	5.46601932
2.47	247	0.015	-1.006	0.077	0.6875496	-0.6875496	1.145916	93.28329198	0.69327918	5.46028974
2.48	248	0.013	-1.007	0.078	0.6302538	-0.6302538	1.0886202	93.29475114	0.6875496	5.45456016
2.49	249	0.013	-1.006	0.076	0.4583664	-0.5156622	1.0886202	93.29475114	0.67609044	5.44883058
2.5	250	0.013	-1.004	0.075	0.4583664	-0.4583664	1.145916	93.29475114	0.67609044	5.443101
2.51	251	0.011	-1.005	0.076	0.4583664	-0.4583664	1.145916	93.30048072	0.66463128	5.43737142
2.52	252	0.013	-1.003	0.077	0.286479	-0.4010706	1.2032118	93.3062103	0.65317212	5.43164184
2.53	253	0.013	-1.003	0.078	0.1718874	-0.1718874	1.145916	93.3062103	0.64171296	5.42591226
2.54	254	0.013	-1.003	0.076	0.3437748	0.0572958	1.2032118	93.31193988	0.6302538	5.42591226
2.55	255	0.013	-1.004	0.077	0.1145916	0.4583664	0.572958	93.3062103	0.64744254	5.43164184
2.56	256	0.013	-1.004	0.075	0.0572958	0.572958	0.4010706	93.3062103	0.64171296	5.43737142
2.57	257	0.013	-1.004	0.076	0.1145916	0.572958	0.4010706	93.31193988	0.63598338	5.443101
2.58	258	0.014	-1.003	0.075	0.1718874	0.572958	0.4010706	93.31193988	0.63598338	5.44883058
2.59	259	0.014	-1.004	0.075	0.2291832	0.572958	0.4010706	93.31193988	0.6302538	5.45456016
2.6	260	0.014	-1.005	0.077	0.2291832	0.6302538	0.4583664	93.31193988	0.64171296	5.46028974
2.61	261	0.013	-1.005	0.079	0.2291832	0.6302538	0.6302538	93.31193988	0.63598338	5.46601932
2.62	262	0.012	-1.006	0.078	0.2291832	0.6875496	0.572958	93.31766946	0.62452422	5.4717489
2.63	263	0.012	-1.007	0.079	0.1718874	0.6875496	0.572958	93.31766946	0.61879464	5.48320806
2.64	264	0.012	-1.007	0.078	0	0.6875496	0.5156622	93.31766946	0.61306506	5.48893764
2.65	265	0.011	-1.008	0.077	0	0.572958	0.4583664	93.31193988	0.6302538	5.49466722
2.66	266	0.012	-1.008	0.077	0	0.2291832	0.4010706	93.31193988	0.62452422	5.49466722
2.67	267	0.013	-1.006	0.075	-0.1145916	0.2291832	0.286479	93.31193988	0.62452422	5.49466722
2.68	268	0.013	-1.005	0.075	-0.1145916	0.1145916	0.286479	93.3062103	0.61879464	5.5003968
2.69	269	0.011	-1.004	0.076	-0.1145916	-0.1145916	0.286479	93.3062103	0.61879464	5.49466722
2.7	270	0.012	-1.005	0.077	0	-0.2291832	0.2291832	93.29475114	0.64744254	5.49466722
2.71	271	0.011	-1.007	0.076	-0.0572958	-0.2291832	0.1718874	93.29475114	0.64171296	5.48893764
2.72	272	0.012	-1.005	0.077	-0.1145916	-0.3437748	0.1145916	93.29475114	0.64171296	5.48320806
2.73	273	0.009	-1.004	0.078	-0.0572958	-0.1718874	0.1145916	93.28902156	0.64171296	5.48320806
2.74	274	0.011	-1.004	0.077	0.0572958	-0.1145916	0.1718874	93.29475114	0.63598338	5.48320806
2.75	275	0.01	-1.004	0.078	0.1145916	-0.2291832	0	93.29475114	0.66463128	5.47747848
2.76	276	0.009	-1.004	0.078	0.1145916	-0.2291832	-0.0572958	93.30048072	0.66463128	5.47747848
2.77	277	0.01	-1.005	0.081	0	-0.2291832	-0.0572958	93.30048072	0.66463128	5.4717489
2.78	278	0.011	-1.006	0.082	-0.286479	0.1718874	-0.1145916	93.29475114	0.66463128	5.47747848
2.79	279	0.011	-1.006	0.081	-0.5156622	0.3437748	0	93.28902156	0.66463128	5.47747848
2.8	280	0.01	-1.007	0.082	-0.572958	0.4010706	0.0572958	93.28902156	0.67036086	5.48320806
2.81	281	0.009	-1.008	0.079	-0.6875496	0.572958	0.0572958	93.2775624	0.67036086	5.48893764
2.82	282	0.008	-1.009	0.079	-0.572958	0.6302538	0.1145916	93.27183282	0.67036086	5.49466722
2.83	283	0.007	-1.009	0.078	-0.572958	0.6302538	0	93.26610324	0.67036086	5.5003968
2.84	284	0.007	-1.008	0.08	-0.4583664	0.4583664	0	93.26037366	0.67036086	5.50612638
2.85	285	0.01	-1.005	0.079	-0.4010706	0.2291832	0	93.26037366	0.69327918	5.50612638
2.86	286	0.014	-1.002	0.081	-0.3437748	0	0	93.26037366	0.69327918	5.50612638
2.87	287	0.016	-1	0.08	-0.286479	0	0.1145916	93.25464408	0.69327918	5.50612638
2.88	288	0.015	-1.001	0.08	-0.286479	0.1145916	0.2291832	93.2489145	0.6875496	5.50612638
2.89	289	0.013	-1.004	0.078	-0.1145916	0.1718874	0.3437748	93.2489145	0.6875496	5.51185596
2.9	290	0.009	-1.007	0.079	-0.286479	0.2291832	0.4010706	93.24318492	0.68182002	5.51185596
2.91	291	0.006	-1.007	0.077	-0.4010706	0.1145916	0.4010706	93.24318492	0.67609044	5.51185596
2.92	292	0.006	-1.005	0.076	-0.3437748	0	0.286479	93.23745534	0.67036086	5.51185596
2.93	293	0.006	-1.002	0.076	-0.1718874	-0.1718874	0	93.23745534	0.67036086	5.51185596
2.94	294	0.008	-1.002	0.078	-0.1145916	-0.4583664	-0.1718874	93.23172576	0.67609044	5.50612638
2.95	295	0.009	-1.002	0.078	-0.1145916	-0.572958	-0.2291832	93.23172576	0.68182002	5.5003968
2.96	296	0.009	-1.002	0.081	0	-0.6302538	-0.286479	93.23172576	0.6875496	5.49466722
2.97	297	0.008	-1.003	0.082	-0.1145916	-0.572958	-0.286479	93.23172576	0.6875496	5.48893764
2.98	298	0.007	-1.004	0.083	-0.1718874	-0.3437748	-0.2291832	93.23172576	0.69327918	5.48320806
2.99	299	0.007	-1.004	0.084	-0.286479	-0.1718874	-0.1718874	93.22599618	0.69327918	5.48320806
3	300	0.007	-1.004	0.085	-0.3437748	0	-0.1718874	93.26037366	0.69900876	5.48320806
3.01	301	0.006	-1.006	0.083	-0.4583664	0.2291832	-0.1718874	93.25464408	0.69900876	5.48320806
3.02	302	0.006	-1.006	0.082	-0.4583664	0.3437748	-0.1145916	93.2489145	0.69900876	5.48893764
3.03	303	0.006	-1.008	0.081	-0.572958	0.286479	-0.0572958	93.24318492	0.70473834	5.49466722
3.04	304	0.007	-1.006	0.08	-0.6302538	0.1718874	-0.0572958	93.23745534	0.70473834	5.49466722
3.05	305	0.007	-1.007	0.078	-0.6875496	0.0572958	-0.0572958	93.22599618	0.70473834	5.49466722
3.06	306	0.006	-1.004	0.078	-0.4583664	-0.1718874	-0.0572958	93.2202666	0.70473834	5.49466722
3.07	307	0.007	-1.003	0.078	-0.3437748	-0.1718874	-0.0572958	93.2202666	0.71046792	5.48893764
3.08	308	0.007	-1.001	0.078	-0.3437748	-0.1718874	0	93.21453702	0.71046792	5.48893764
3.09	309	0.008	-1	0.08	-0.4583664	-0.0572958	-0.0572958	93.20880744	0.71046792	5.48893764
3.1	310	0.007	-1.003	0.081	-0.6302538	0.1718874	-0.0572958	93.20880744	0.71046792	5.48893764
3.11	311	0.007	-1.005	0.08	-0.6302538	0.286479	0	93.20307786	0.71046792	5.49466722
3.12	312	0.006	-1.004	0.081	-0.7448454	0.3437748	0	93.1916187	0.71046792	5.49466722
3.13	313	0.008	-1.004	0.081	-0.6875496	0.4010706	0	93.18588912	0.71046792	5.5003968
3.14	314	0.008	-1.006	0.08	-0.4583664	0.2291832	0	93.18015954	0.71046792	5.50612638
3.15	315	0.007	-1.005	0.081	-0.2291832	0.1145916	0.0572958	93.19734828	0.7161975	5.50612638
3.16	316	0.007	-1.006	0.082	0	-0.0572958	0.0572958	93.19734828	0.7161975	5.50612638
3.17	317	0.007	-1.004	0.082	0.2291832	-0.1718874	0	93.19734828	0.7161975	5.5003968
3.18	318	0.007	-1.005	0.083	0.2291832	-0.2291832	-0.1145916	93.20307786	0.7161975	5.5003968
3.19	319	0.006	-1.004	0.083	0.2291832	-0.3437748	-0.2291832	93.20307786	0.72192708	5.49466722
3.2	320	0.006	-1.004	0.081	0.1718874	-0.4010706	-0.4010706	93.21453702	0.72192708	5.49466722
3.21	321	0.007	-1.004	0.079	0.4010706	-0.5156622	-0.3437748	93.2202666	0.72765666	5.48893764
3.22	322	0.006	-1.003	0.079	0.4010706	-0.572958	-0.4583664	93.2202666	0.73338624	5.48320806
3.23	323	0.006	-1.002	0.078	0.3437748	-0.572958	-0.5156622	93.22599618	0.73911582	5.47747848
3.24	324	0.005	-1.003	0.079	0.572958	-0.4583664	-0.5156622	93.23172576	0.7448454	5.4717489
3.25	325	0.006	-1.001	0.077	0.6302538	-0.3437748	-0.5156622	93.23745534	0.75057498	5.46601932
3.26	326	0.004	-1.003	0.078	0.7448454	-0.3437748	-0.5156622	93.24318492	0.75630456	5.46601932
3.27	327	0.005	-1.002	0.08	0.6875496	-0.1145916	-0.286479	93.2489145	0.75630456	5.46601932
3.28	328	0.006	-1.002	0.081	0.859437	-0.286479	-0.4010706	93.26037366	0.76203414	5.46028974
3.29	329	0.007	-1.001	0.081	1.0313244	-0.286479	-0.4583664	93.27183282	0.76776372	5.46028974
3.3	330	0.007	-1.003	0.08	1.145916	-0.3437748	-0.4583664	93.28329198	0.7734933	5.45456016
3.31	331	0.007	-1.003	0.081	1.2605076	-0.5156622	-0.4010706	93.29475114	0.77922288	5.44883058
3.32	332	0.006	-1.003	0.082	1.2605076	-0.6302538	-0.4583664	93.31193988	0.78495246	5.443101
3.33	333	0.005	-1.003	0.082	1.3178034	-0.572958	-0.4010706	93.32339904	0.79068204	5.43737142
3.34	334	0.005	-1.004	0.083	1.3750992	-0.8021412	-0.4010706	93.3348582	0.79641162	5.43164184
3.35	335	0.005	-1.004	0.081	1.4896908	-0.8021412	-0.4010706	93.35204694	0.79641162	5.42591226
3.36	336	0.004	-1.005	0.081	1.432395	-0.859437	-0.4010706	93.36923568	0.79641162	5.4144531
3.37	337	0.003	-1.004	0.08	1.3750992	-0.859437	-0.3437748	93.38069484	0.8021412	5.40872352
3.38	338	0.005	-1.004	0.081	1.432395	-0.8021412	-0.286479	93.39788358	0.80787078	5.39726436
3.39	339	0.004	-1.005	0.083	1.2605076	-0.6302538	-0.2291832	93.40934274	0.80787078	5.39153478
3.4	340	0.003	-1.007	0.082	0.9167328	-0.5156622	-0.1718874	93.41507232	0.80787078	5.3858052
3.41	341	0.004	-1.008	0.08	0.4583664	-0.859437	-0.0572958	93.4208019	0.80787078	5.38007562
3.42	342	0.005	-1.012	0.081	0.0572958	-1.8334656	0	93.42653148	0.80787078	5.36288688
3.43	343	0.006	-1.017	0.085	-0.572958	-2.6929026	-0.0572958	93.41507232	0.81360036	5.33423898
3.44	344	0.007	-1.021	0.091	-1.6615782	-3.0939732	-0.1718874	93.39788358	0.81932994	5.30559108
3.45	345	0.004	-1.025	0.093	-2.7501984	-3.0366774	-0.3437748	93.37496526	0.81932994	5.2712136
3.46	346	0.003	-1.028	0.095	-4.297185	-2.578311	-0.6875496	93.3348582	0.8307891	5.24829528
3.47	347	0.003	-1.03	0.091	-5.9014674	-2.0626488	-0.9740286	93.27183282	0.84224826	5.22537696
3.48	348	0.003	-1.033	0.082	-7.161975	-1.7761698	-1.2032118	93.19734828	0.85370742	5.20818822
3.49	349	0.003	-1.038	0.076	-8.307891	-1.7761698	-1.6042824	93.11713416	0.87089616	5.19099948
3.5	350	0.001	-1.04	0.07	-9.2819196	-2.2345362	-1.7761698	93.0197313	0.8880849	5.16808116
3.51	351	0	-1.038	0.065	-10.1986524	-2.8074942	-1.7761698	92.91659886	0.90527364	5.13943326
3.52	352	0	-1.035	0.062	-11.3445684	-3.2658606	-1.8907614	92.79627768	0.92819196	5.10505578
3.53	353	0.003	-1.031	0.059	-12.5477802	-3.4950438	-2.005353	92.67022692	0.95111028	5.0706783
3.54	354	0.004	-1.025	0.052	-13.8082878	-3.437748	-2.1772404	92.532717	0.9740286	5.03630082
3.55	355	0.005	-1.022	0.046	-14.9542038	-3.151269	-2.1199446	92.37228876	0.99694692	5.00765292
3.56	356	0	-1.02	0.036	-16.2147114	-2.9793816	-2.3491278	92.21186052	1.01986524	4.97327544
3.57	357	-0.006	-1.016	0.026	-17.4179232	-3.0366774	-2.6929026	92.03424354	1.04851314	4.94462754
3.58	358	-0.012	-1.01	0.016	-18.907614	-3.151269	-3.151269	91.83943782	1.07716104	4.91025006
3.59	359	-0.015	-1.005	0.009	-19.8816426	-3.0366774	-3.8388186	91.63890252	1.1172681	4.88160216
3.6	360	-0.016	-0.999	0.004	-20.5691922	-2.6929026	-4.583664	91.42117848	1.15737516	4.85295426
3.61	361	-0.015	-0.996	0	-21.199446	-2.1199446	-5.3285094	91.20918402	1.20894138	4.83003594
3.62	362	-0.014	-0.996	-0.006	-21.8869956	-1.5469866	-5.8441716	90.9857304	1.26623718	4.8128472
3.63	363	-0.014	-0.997	-0.011	-22.7464326	-1.0886202	-6.4744254	90.7565472	1.33499214	4.80138804
3.64	364	-0.014	-1.002	-0.019	-24.064236	-0.6302538	-7.161975	90.51017526	1.4037471	4.78992888
3.65	365	-0.012	-1.002	-0.027	-25.8977016	-0.1145916	-8.307891	90.240885	1.47823164	4.78992888
3.66	366	-0.011	-0.991	-0.036	-28.5333084	1.432395	-9.740286	89.94867642	1.5756345	4.80138804
3.67	367	-0.012	-0.981	-0.044	-30.5959572	2.8074942	-11.2299768	89.6392791	1.68449652	4.82430636
3.68	368	-0.015	-0.972	-0.053	-32.1429438	3.8388186	-12.7769634	89.31269304	1.8048177	4.85868384
3.69	369	-0.007	-0.962	-0.058	-33.5753388	4.6982556	-14.2666542	88.97464782	1.94232762	4.8987909
3.7	370	0	-0.953	-0.064	-34.7785506	5.72958	-15.6990492	88.61368428	2.09702628	4.95035712
3.71	371	0.005	-0.946	-0.069	-36.0390582	7.161975	-17.0741484	88.25272074	2.2631841	5.0133825
3.72	372	0.009	-0.936	-0.077	-37.2995658	8.8235532	-18.2200644	87.87456846	2.44080108	5.08786704
3.73	373	0.02	-0.923	-0.086	-39.1903272	10.7143146	-18.907614	87.47922744	2.62414764	5.1852699
3.74	374	0.028	-0.907	-0.091	-42.0551172	13.178034	-18.4492476	87.05523852	2.8074942	5.2998615
3.75	375	0.045	-0.89	-0.1	-44.6334282	14.9542038	-16.7303736	86.6026017	2.97365202	5.43737142
3.76	376	0.061	-0.866	-0.108	-47.3836266	15.756345	-13.8655836	86.12704656	3.11689152	5.58061092
3.77	377	0.084	-0.846	-0.121	-50.0192334	16.329303	-9.6256944	85.6285731	3.21429438	5.72958
3.78	378	0.108	-0.827	-0.138	-51.9099948	15.9282324	-4.2398892	85.10718132	3.26013102	5.87854908
3.79	379	0.122	-0.817	-0.151	-53.6861646	13.9228794	1.9480572	84.5686008	3.24294228	6.01032942
3.8	380	0.125	-0.816	-0.172	-54.6601932	10.7143146	8.1932994	84.01283154	3.16845774	6.11919144
3.81	381	0.117	-0.828	-0.198	-53.571573	6.5317212	14.1520626	83.46852144	3.03094782	6.19367598
3.82	382	0.102	-0.846	-0.225	-52.0818822	1.8334656	17.4179232	82.94140008	2.85333084	6.22805346
3.83	383	0.079	-0.868	-0.232	-50.5921914	-2.291832	18.1054728	82.43146746	2.66998428	6.22232388
3.84	384	0.06	-0.9	-0.214	-49.6181628	-5.5003968	15.6417534	81.92726442	2.50382646	6.18221682
3.85	385	0.035	-0.927	-0.195	-48.414951	-8.021412	10.6570188	81.42879096	2.38350528	6.11346186
3.86	386	0.009	-0.941	-0.156	-46.8679644	-9.7975818	3.9534102	80.94750624	2.32620948	6.02178858
3.87	387	-0.012	-0.935	-0.109	-46.982556	-10.7716104	-2.9793816	80.4719511	2.33766864	5.9014674
3.88	388	-0.027	-0.909	-0.074	-50.420304	-11.4018642	-8.7089616	79.9562889	2.40069402	5.76968706
3.89	389	-0.027	-0.878	-0.073	-57.9833496	-10.4851314	-12.7196676	79.36041258	2.50382646	5.6436363
3.9	390	-0.026	-0.846	-0.101	-63.9421128	-8.59437	-13.6936962	78.70724046	2.61841806	5.52331512
3.91	391	-0.013	-0.839	-0.138	-69.4998054	-6.2452422	-12.3758928	78.00250212	2.7215505	5.43164184
3.92	392	0	-0.84	-0.174	-74.771019	-3.4950438	-9.6256944	77.24046798	2.80176462	5.37434604
3.93	393	0.012	-0.842	-0.201	-78.2660628	-1.0886202	-6.6463128	76.44405636	2.85333084	5.33996856
3.94	394	0.026	-0.844	-0.227	-80.7297822	-0.1145916	-4.4117766	75.61899684	2.88770832	5.31705024
3.95	395	0.035	-0.852	-0.248	-82.792431	0.1145916	-2.4637194	74.77674858	2.90489706	5.30559108
3.96	396	0.04	-0.85	-0.242	-84.5686008	0.7448454	-1.145916	73.91731158	2.90489706	5.30559108
3.97	397	0.04	-0.862	-0.227	-88.522011	1.0886202	-1.432395	73.01776752	2.91635622	5.2998615
3.98	398	0.048	-0.868	-0.236	-90.9284346	1.5469866	-2.291832	72.09530514	2.93354496	5.30559108
3.99	399	0.044	-0.897	-0.286	-91.4440968	0.6875496	-4.010706	71.16711318	2.96219286	5.28840234
4	400	0.043	-0.944	-0.346	-91.2722094	0.1718874	-5.7868758	70.23892122	3.00229992	5.26548402
4.01	401	0.035	-0.993	-0.386	-90.240885	0.2291832	-6.6463128	69.32218842	3.05959572	5.23683612
4.02	402	0.033	-1.028	-0.406	-89.4387438	0.0572958	-6.7036086	68.4111852	3.11116194	5.20818822
4.03	403	0.019	-1.039	-0.43	-88.0063488	0.4583664	-7.6776372	67.51737072	3.17418732	5.17381074
4.04	404	-0.01	-1.059	-0.472	-84.9123756	2.7501984	-8.307891	66.65220414	3.24867186	5.16235158
4.05	405	-0.023	-1.091	-0.483	-81.932994	2.5210152	-8.8235532	65.82141504	3.32888598	5.14516284
4.06	406	-0.007	-1.108	-0.412	-83.1935016	-5.3285094	-9.7975818	64.96770762	3.38618178	5.04775998
4.07	407	0.031	-1.106	-0.35	-86.803137	-11.5737516	-10.313244	64.07962272	3.42055926	4.89306132
4.08	408	0.08	-1.113	-0.386	-88.4647152	-13.0634424	-10.2559482	63.17434908	3.44920716	4.7269035
4.09	409	0.106	-1.095	-0.428	-86.6885454	-12.4904844	-9.6256944	62.28626418	3.4663959	4.56647526
4.1	410	0.096	-1.103	-0.459	-81.7038108	-9.2819196	-8.8235532	61.45547508	3.4950438	4.43469492
4.11	411	0.06	-1.139	-0.517	-77.6931048	-4.870143	-8.59437	60.65906346	3.53515086	4.34875122
4.12	412	-0.042	-1.229	-0.571	-72.9375534	-3.151269	-8.7662574	59.91421806	3.59244666	4.27426668
4.13	413	-0.087	-1.242	-0.498	-74.2553568	-3.4950438	-9.7975818	59.1579135	3.64974246	4.18832298
4.14	414	-0.12	-1.179	-0.426	-82.1048814	-4.6409598	-12.9488508	58.31566524	3.724227	4.07946096
4.15	415	-0.105	-1.109	-0.438	-87.2042076	-3.9534102	-15.8136408	57.42758034	3.82162986	3.9534102
4.16	416	-0.036	-1.099	-0.442	-86.9177286	-1.7761698	-17.8189938	56.53949544	3.9534102	3.8388186
4.17	417	0.045	-1.137	-0.45	-87.5479824	-0.8021412	-18.2200644	55.63995138	4.08519054	3.724227
4.18	418	0.094	-1.152	-0.425	-87.5479824	-2.6356068	-16.5011904	54.74040732	4.19405256	3.60390582
4.19	419	0.125	-1.112	-0.389	-93.1629708	-1.9480572	-14.32395	53.78929704	4.28572584	3.50077338
4.2	420	0.12	-1.011	-0.438	-97.3455642	-2.578311	-12.5477802	52.7980797	4.36021038	3.40337052
4.21	421	0.094	-0.961	-0.52	-91.7878716	-2.6929026	-10.5424272	51.85842858	4.41750618	3.31169724
4.22	422	0.024	-1.002	-0.563	-83.938347	-1.0313244	-7.3911582	51.00472116	4.45761324	3.25440144
4.23	423	-0.032	-1.047	-0.524	-85.4853336	-0.859437	-4.1825934	50.133825	4.4690724	3.22002396
4.24	424	-0.052	-1.014	-0.546	-89.4960396	-3.2658606	-1.9480572	49.22282178	4.45188366	3.1799169
4.25	425	-0.046	-0.924	-0.567	-87.6052782	-5.2139178	-1.4896908	48.33473688	4.41750618	3.12835068
4.26	426	-0.017	-0.857	-0.616	-81.9902898	-5.0420304	-2.1199446	47.4982182	4.38885828	3.07105488
4.27	427	0.017	-0.854	-0.624	-73.7396946	-3.0366774	-2.6929026	46.74764322	4.37739912	3.02521824
4.28	428	0.043	-0.917	-0.61	-69.4425096	-0.859437	-1.9480572	46.04290488	4.37739912	3.0080295
4.29	429	0.062	-0.981	-0.605	-67.0933818	1.6042824	-2.0626488	45.36108486	4.39458786	3.00229992
4.3	430	0.069	-0.946	-0.607	-72.5364828	3.2085648	-0.7448454	44.6334282	4.4117766	3.01948866
4.31	431	0.058	-0.866	-0.627	-69.900876	2.6929026	0.9740286	43.92296028	4.4117766	3.04240698
4.32	432	0.032	-0.851	-0.586	-63.884817	4.1825934	2.0626488	43.27551774	4.41750618	3.08824362
4.33	433	0.011	-0.84	-0.594	-63.9421128	6.5317212	2.2345362	42.63380478	4.4404245	3.14553942
4.34	434	-0.002	-0.838	-0.624	-61.1346186	9.0527364	3.2658606	42.01501014	4.47480198	3.23148312
4.35	435	-0.006	-0.823	-0.633	-58.8427866	10.7143146	5.5576926	41.43632256	4.50344988	3.34607472
4.36	436	0	-0.814	-0.64	-57.4103916	12.6623718	7.2765666	40.86336456	4.53782736	3.48358464
4.37	437	0.009	-0.797	-0.658	-56.149884	15.0114996	9.740286	40.30186572	4.57793442	3.66120162
4.38	438	0.018	-0.785	-0.66	-55.003968	17.6471064	11.6883432	39.7632852	4.62377106	3.86173692
4.39	439	0.023	-0.784	-0.66	-55.576926	18.5638392	12.7769634	39.21324552	4.67533728	4.07946096
4.4	440	0.028	-0.783	-0.682	-55.5196302	18.907614	13.6936962	38.674665	4.72117392	4.30864416
4.41	441	0.034	-0.784	-0.677	-55.8061092	19.2513888	14.0947668	38.12462532	4.77274014	4.54355694
4.42	442	0.035	-0.784	-0.665	-56.149884	19.480572	14.3812458	37.56885606	4.82430636	4.77846972
4.43	443	0.029	-0.774	-0.67	-57.0666168	19.9389384	14.0947668	37.00735722	4.88733174	5.0133825
4.44	444	0.024	-0.763	-0.687	-57.9260538	20.9702628	13.3499214	36.4401288	4.96181628	5.24829528
4.45	445	0.024	-0.76	-0.691	-58.5563076	22.4026578	13.2353298	35.8671708	5.04775998	5.49466722
4.46	446	0.018	-0.736	-0.703	-58.7854908	23.8350528	14.1520626	35.2942128	5.14516284	5.75249832
4.47	447	0.01	-0.722	-0.709	-58.0406454	25.3247436	15.6990492	34.72698438	5.24829528	6.02751816
4.48	448	0.007	-0.709	-0.712	-57.8114622	27.1009134	17.9335854	34.16548554	5.3571573	6.33691548
4.49	449	0.004	-0.691	-0.706	-56.9520252	28.934379	20.4546006	33.61544586	5.46601932	6.66923112
4.5	450	0.004	-0.681	-0.704	-56.0352924	30.7105488	22.5745452	33.08259492	5.58061092	7.03592424
4.51	451	0.001	-0.67	-0.711	-55.290447	32.4294228	24.4653066	32.55547356	5.70666168	7.4198061
4.52	452	0.001	-0.659	-0.709	-53.858052	33.3461556	26.069589	32.04554094	5.83271244	7.82660628
4.53	453	0.01	-0.657	-0.703	-52.425657	34.7212548	27.3873924	31.55279706	5.97022236	8.2505952
4.54	454	0.021	-0.653	-0.7	-51.9672906	35.6379876	28.0176462	31.06578276	6.11346186	8.6803137
4.55	455	0.033	-0.644	-0.696	-51.4516284	36.1536498	28.4187168	30.59022762	6.25670136	9.11576178
4.56	456	0.041	-0.636	-0.697	-50.6494872	36.669312	28.9916748	30.12040206	6.41140002	9.56266902
4.57	457	0.047	-0.631	-0.688	-50.1911208	37.1849742	29.7365202	29.65630608	6.57182826	10.01530584
4.58	458	0.05	-0.622	-0.681	-49.847346	37.815228	30.653253	29.20366926	6.7322565	10.47367224
4.59	459	0.045	-0.612	-0.674	-49.6181628	38.6173692	31.5699858	28.75103244	6.9041439	10.94922738
4.6	460	0.034	-0.6	-0.662	-49.5035712	39.7632852	32.4294228	28.30985478	7.08176088	11.4305121
4.61	461	0.02	-0.588	-0.642	-49.6754586	41.9405256	33.231564	27.86294754	7.2765666	11.93471514
4.62	462	0.006	-0.572	-0.636	-49.9046418	44.2896534	33.9191136	27.4160403	7.49429064	12.45037734
4.63	463	-0.004	-0.555	-0.625	-49.560867	45.83664	34.37748	26.97486264	7.72920342	12.9774987
4.64	464	-0.008	-0.544	-0.62	-49.1597964	47.3836266	35.0077338	26.54514414	7.97557536	13.51607922
4.65	465	-0.001	-0.536	-0.627	-49.0452048	49.9619376	35.523396	26.1268848	8.24486562	14.07184848
4.66	466	0.013	-0.525	-0.622	-48.8733174	52.3110654	35.9244666	25.70862546	8.54280378	14.6390769
4.67	467	0.031	-0.516	-0.625	-48.3576552	53.9726436	36.096354	25.2960957	8.8522011	15.2120349
4.68	468	0.058	-0.51	-0.614	-47.3263308	55.0612638	36.096354	24.90075468	9.17878716	15.79072248
4.69	469	0.084	-0.512	-0.606	-46.409598	55.863405	35.7525792	24.51687282	9.51683238	16.36368048
4.7	470	0.098	-0.513	-0.59	-45.8939358	57.1239126	35.2942128	24.14445012	9.87206634	16.94236806
4.71	471	0.1	-0.509	-0.586	-46.0085274	58.7854908	34.8358464	23.77202742	10.25021862	17.51532606
4.72	472	0.103	-0.501	-0.594	-45.8939358	60.3324774	34.3201842	23.4053343	10.64555964	18.09401364
4.73	473	0.103	-0.488	-0.6	-45.0344988	61.3638018	33.9764094	23.05010034	11.0580894	18.67270122
4.74	474	0.108	-0.474	-0.606	-44.3469492	62.8534926	33.5753388	22.70059596	11.4878079	19.24565922
4.75	475	0.127	-0.464	-0.624	-42.2270046	63.5410422	33.4034514	22.39119864	11.92325598	19.8243468
4.76	476	0.143	-0.465	-0.612	-40.10706	63.4264506	33.6326346	22.09326048	12.36443364	20.40303438
4.77	477	0.161	-0.461	-0.619	-39.1330314	62.7961968	34.4347758	21.81824064	12.79988172	20.98172196
4.78	478	0.182	-0.463	-0.624	-37.24227	62.165943	35.1223254	21.56040954	13.22960022	21.56613912
4.79	479	0.2	-0.471	-0.643	-36.955791	62.5097178	35.4088044	21.3140376	13.6650483	22.15055628
4.8	480	0.225	-0.48	-0.673	-36.7266078	63.1399716	35.2942128	21.07912482	14.11195554	22.74070302
4.81	481	0.237	-0.489	-0.691	-36.4974246	62.6243094	34.8931422	20.84421204	14.5531332	23.3193906
4.82	482	0.241	-0.503	-0.7	-36.1536498	61.5356892	34.37748	20.61502884	14.98858128	23.8923486
4.83	483	0.253	-0.523	-0.706	-35.8671708	58.7854908	33.5753388	20.39157522	15.40684062	24.44238828
4.84	484	0.239	-0.533	-0.703	-36.6120162	56.0925882	32.6013102	20.15666244	15.80218164	24.97523922
4.85	485	0.228	-0.537	-0.711	-36.955791	54.2591226	31.7418732	19.92747924	16.1860635	25.49090142
4.86	486	0.208	-0.54	-0.724	-37.24227	52.3683612	30.9970278	19.6811073	16.5584862	25.98937488
4.87	487	0.201	-0.569	-0.725	-36.669312	50.8786704	28.5906042	19.44046494	16.92517932	26.45920044
4.88	488	0.196	-0.587	-0.729	-39.0184398	50.2484166	26.069589	19.1654451	17.29760202	26.90610768
4.89	489	0.187	-0.6	-0.72	-41.5967508	50.706783	23.6631654	18.86177736	17.68148388	27.32436702
4.9	490	0.169	-0.62	-0.723	-43.7739912	52.0818822	21.1421502	18.55238004	18.08828406	27.72543762
4.91	491	0.161	-0.646	-0.709	-47.3263308	53.571573	17.8762896	18.17995734	18.52373214	28.09786032
4.92	492	0.137	-0.661	-0.694	-50.5921914	54.5456016	15.469866	17.76742758	18.97636896	28.44163512
4.93	493	0.098	-0.662	-0.668	-54.8893764	56.5509546	15.0687954	17.32052034	19.4519241	28.7911395
4.94	494	0.067	-0.652	-0.649	-59.2438572	57.3530958	15.756345	16.82777646	19.93320882	29.14637346
4.95	495	0.052	-0.641	-0.631	-62.5670136	58.7854908	16.6730778	16.329303	20.4259527	29.51879616
4.96	496	0.057	-0.635	-0.607	-65.6609868	60.16059	16.902261	15.7849929	20.93588532	29.88548928
4.97	497	0.071	-0.622	-0.584	-69.9581718	61.5356892	16.1574156	15.19484616	21.46300668	30.24645282
4.98	498	0.073	-0.597	-0.541	-74.48454	63.1972674	14.8396122	14.56459236	22.01304636	30.5959572
4.99	499	0.078	-0.567	-0.498	-78.2660628	64.457775	13.178034	13.88277234	22.58600436	30.92254326
5	500	0.087	-0.54	-0.436	-80.8443738	66.176649	11.45916	13.18949316	23.1761511	31.23767016
5.01	501	0.103	-0.503	-0.389	-85.2561504	66.9214944	8.8235532	12.42745902	23.78348658	31.51841958
5.02	502	0.102	-0.461	-0.366	-89.8971102	66.749607	6.1879464	11.6023995	24.40228122	31.75906194
5.03	503	0.084	-0.426	-0.335	-92.819196	67.7809314	2.6356068	10.73723292	25.0382646	31.95386766
5.04	504	0.071	-0.416	-0.288	-93.678633	69.4998054	-1.145916	9.83768886	25.70289588	32.10856632
5.05	505	0.05	-0.4	-0.226	-95.6266902	71.1613836	-5.6722842	8.9094969	26.3847159	32.20596918
5.06	506	0.019	-0.373	-0.225	-97.40286	73.5678072	-10.2559482	7.92973872	27.10664298	32.24034666
5.07	507	0	-0.324	-0.221	-96.256944	82.9643184	-14.610429	6.93852138	27.92597292	32.2288875
5.08	508	-0.05	-0.198	-0.236	-97.9185222	91.3295052	-16.6730778	5.91292656	28.82551698	32.19451002
5.09	509	-0.159	-0.03	-0.301	-92.3035338	100.2103542	-17.9335854	4.93316838	29.81673432	32.13721422
5.1	510	-0.222	0.118	-0.39	-81.073557	110.3517108	-19.0795014	4.05081306	30.89389536	32.05127052
5.11	511	-0.223	0.268	-0.526	-70.8176088	119.0033766	-18.5065434	3.27159018	32.06845926	31.9710564
5.12	512	-0.18	0.413	-0.675	-55.8061092	121.9827582	-16.7876694	2.64133638	33.27167106	31.89084228
5.13	513	-0.056	0.486	-0.744	-39.4195104	121.0660254	-16.5584862	2.17151082	34.46915328	31.79343942
5.14	514	0.073	0.497	-0.709	-27.3873924	116.2531782	-19.7097552	1.79335854	35.62079886	31.64447034
5.15	515	0.225	0.492	-0.658	-21.6005166	116.8261362	-25.6685184	1.39801752	36.77244444	31.3980984
5.16	516	0.365	0.466	-0.658	-18.7357266	123.1286742	-32.658606	0.99121734	37.99284498	31.06578276
5.17	517	0.422	0.488	-0.659	-19.9962342	139.801752	-36.955791	0.52139178	39.37940334	30.67044174
5.18	518	0.441	0.459	-0.644	-19.6524594	156.0737592	-37.6433406	0.0286479	40.92066036	30.2521824
5.19	519	0.457	0.386	-0.66	-21.8296998	167.0745528	-37.24227	-0.50420304	42.5707794	29.81100474
5.2	520	0.544	0.277	-0.696	-22.8610242	175.038669	-35.3515086	-1.07716104	44.2896534	29.35836792
5.21	521	0.681	0.125	-0.696	-23.7204612	180.48177	-33.7472262	-1.67303736	46.0658232	28.89427194
5.22	522	0.848	0.015	-0.644	-28.5906042	182.8881936	-32.7731976	-2.3491278	47.85918174	28.40152806
5.23	523	1.052	-0.012	-0.662	-32.085648	180.4244742	-31.6845774	-3.0939732	49.62389238	27.8744067
5.24	524	1.252	0.044	-0.73	-29.5646328	166.6734822	-27.3873924	-3.8101707	51.25682268	27.36447408
5.25	525	1.382	0.225	-0.76	-19.0795014	138.4839486	-16.2147114	-4.30291458	52.60900356	27.00924012
5.26	526	1.403	0.439	-0.702	-4.5263682	121.9254624	-1.5469866	-4.4690724	53.81221536	26.88318936
5.27	527	1.24	0.567	-0.666	8.7089616	125.3632104	14.0947668	-4.28572584	55.0612638	27.02069928
5.28	528	1.043	0.569	-0.616	20.5118964	132.8689602	25.3820394	-3.8101707	56.39625594	27.36447408
5.29	529	0.927	0.457	-0.553	30.7105488	137.4526242	30.2521824	-3.1226211	57.77135514	27.82857006
5.3	530	0.77	0.352	-0.56	36.0390582	138.8850192	32.4294228	-2.31475032	59.1579135	28.37288016
5.31	531	0.491	0.228	-0.516	40.4508348	141.0622596	31.7418732	-1.39801752	60.56739018	28.98021564
5.32	532	0.102	0.15	-0.284	43.3156248	146.10429	23.3193906	-0.53285094	62.0227035	29.49014826
5.33	533	-0.117	0.184	0.036	29.6219286	172.746837	0.6875496	-0.1718874	63.73011834	29.58182154
5.34	534	-0.086	0.294	0.234	8.7662574	212.567418	-24.923673	-0.5443101	65.8328742	29.1062664
5.35	535	0.107	0.474	0.313	-5.5003968	257.0289588	-50.706783	-1.81627686	68.37107814	27.83429964
5.36	536	0.307	0.61	0.298	-2.5210152	294.9014826	-74.771019	-4.09092012	71.2473273	25.47944226
5.37	537	0.608	0.684	0.236	8.7662574	318.1635774	-98.0331138	-7.95838662	74.28973428	21.38852214
5.38	538	1.108	0.945	-0.021	-13.9801752	308.0795166	-123.0140826	-14.8682601	77.05712142	14.45000076
5.39	539	1.832	1.457	-0.429	-37.0703826	265.7952162	-162.433593	-26.44774128	78.9822603	3.04240698
5.4	540	3.643	1.796	-1.16	-18.1054728	196.5818898	-189.649098	-40.43364606	79.60105494	-10.96068654
5.41	541	3.995	2.004	-1.015	-109.6641612	1.9480572	-202.0822866	-48.86185824	78.20303742	-18.40914054
5.42	542	3.502	1.953	2.386	-44.977203	198.4153554	-159.282324	-61.17472566	78.07125708	-30.49855434
5.43	543	3.273	2.278	3.065	226.7194806	275.1917274	-111.72681	-72.92036466	78.15720078	-44.81677476
5.44	544	3.045	0.458	-0.771	381.1889574	108.575541	-24.6944898	-74.53037664	78.22595574	-50.39738568
5.45	545	2.55	0.022	-0.437	36.096354	103.418919	-17.1314442	-79.15987728	78.3233586	-55.48525272
5.46	546	2.389	1.085	0.27	-32.658606	114.4770084	-12.2613012	-84.99258972	78.39211356	-61.08305238
5.47	547	1.842	0.394	0.614	95.111028	124.3891818	8.9381448	-90.0976455	78.55827138	-67.2652692
5.48	548	1.632	0.173	0.437	-12.891555	107.2577376	7.3338624	-95.50636902	78.61556718	-72.63388566
5.49	549	1.73	0.451	0.419	-28.074942	88.6938984	10.4278356	-100.1931655	78.62129676	-77.10868764
5.5	550	1.494	0.43	0.548	-16.042824	67.9528188	20.340009	-103.9002037	78.6957813	-80.71259346
5.51	551	1.21	0.401	0.554	-14.9542038	53.6288688	20.4546006	-106.9082332	78.77026584	-83.61749052
5.52	552	1.032	0.272	0.5	-9.3965112	46.1804148	17.3606274	-109.4808146	78.80464332	-86.13850572
5.53	553	0.785	0.276	0.427	-8.307891	44.8053156	10.9434978	-111.8757791	78.75880668	-88.48763352
5.54	554	0.511	0.254	0.446	-3.437748	51.3370368	2.86479	-114.3280393	78.59837844	-90.94562334
5.55	555	0.438	0.254	0.466	-7.1046792	53.6288688	1.145916	-116.9235391	78.3806544	-93.5067456
5.56	556	0.448	0.226	0.441	-7.3911582	64.0567044	3.2658606	-119.7997882	78.1228233	-96.36007644
5.57	557	0.687	0.184	0.323	-12.1467096	65.317212	6.2452422	-122.7161444	77.85926262	-99.2076777
5.58	558	0.676	0.171	0.272	-8.7662574	59.4730404	6.9900876	-125.2715371	77.60143152	-101.7229633
5.59	559	0.731	0.148	0.244	-5.3858052	47.7274014	7.3338624	-127.2768901	77.38943706	-103.7168572
5.6	560	0.773	0.211	0.289	-4.4117766	39.820581	6.4171296	-128.9441979	77.18890176	-105.3727058
5.61	561	0.767	0.286	0.351	-2.1199446	34.8358464	5.3858052	-130.3078379	77.01701436	-106.7420754
5.62	562	0.858	0.313	0.365	0.4583664	29.6219286	6.2452422	-131.4594835	76.87950444	-107.9280985
5.63	563	0.976	0.308	0.347	-0.1145916	26.069589	10.9434978	-132.6168587	76.79356074	-109.1083919
5.64	564	1.047	0.281	0.306	1.0313244	19.194093	19.480572	-133.7799634	76.8050199	-110.3116037
5.65	565	1.07	0.262	0.308	4.297185	6.5317212	28.5333084	-134.7940991	76.95398898	-111.4002239
5.66	566	1.138	0.244	0.344	6.6463128	-2.6356068	33.5753388	-135.6764544	77.2060905	-112.3742525
5.67	567	1.182	0.2	0.356	7.3911582	-9.5683986	37.7006364	-136.4957843	77.53267656	-113.2967149
5.68	568	1.219	0.149	0.339	7.7922288	-15.2406828	40.966497	-137.292196	77.91655842	-114.1905294
5.69	569	1.257	0.146	0.339	4.870143	-20.1108258	41.1956802	-138.014123	78.33481776	-114.986941
5.7	570	1.28	0.157	0.344	3.6096354	-23.7204612	38.8465524	-138.6157289	78.75880668	-115.6401131
5.71	571	1.265	0.176	0.341	3.0939732	-26.356068	34.7212548	-139.0053404	79.17706602	-116.0698316
5.72	572	1.227	0.211	0.308	3.5523396	-27.215505	30.080295	-139.1944165	79.57240704	-116.3047444
5.73	573	1.209	0.202	0.249	7.1046792	-30.8824362	26.5852512	-139.0798249	79.96774806	-116.2703669
5.74	574	1.179	0.208	0.246	9.453807	-32.3148312	23.777757	-138.7589684	80.3573595	-116.0411837
5.75	575	1.152	0.193	0.243	15.0687954	-34.7785506	21.3140376	-138.1344442	80.74124136	-115.5713582
5.76	576	1.13	0.194	0.221	15.3552744	-34.950438	18.4492476	-137.3208439	81.11366406	-114.9124565
5.77	577	1.099	0.138	0.209	19.9389384	-35.523396	17.5325148	-136.3296265	81.48035718	-114.1160449
5.78	578	1.078	0.097	0.163	15.4125702	-33.804522	17.0168526	-135.3613275	81.82986156	-113.3024445
5.79	579	1.054	0.062	0.108	10.9434978	-36.7266078	16.902261	-134.1982228	82.19655468	-112.2482018
5.8	580	1.021	0.039	0.083	7.734933	-39.534102	13.9228794	-132.6626953	82.5632478	-110.7814293
5.81	581	0.979	0.03	0.04	8.59437	-46.982556	10.8289062	-130.3250267	82.94140008	-108.5239748
5.82	582	0.975	0.028	0.026	7.5057498	-51.0505578	9.7975818	-127.4144	83.31955236	-105.6706439
5.83	583	0.95	-0.023	0.017	7.3338624	-51.1651494	10.0840608	-124.1714578	83.68624548	-102.490727
5.84	584	0.966	-0.014	0.004	2.7501984	-49.847346	10.1986524	-120.7107914	84.0242907	-99.04151988
5.85	585	0.946	-0.021	-0.007	0.1718874	-47.0398518	10.3705398	-117.1183448	84.34514718	-95.44334364
5.86	586	0.896	-0.082	-0.035	-1.0886202	-43.6021038	12.3758928	-113.5774643	84.63162618	-91.87954488
5.87	587	0.908	-0.009	-0.061	-7.5057498	-41.539455	13.2926256	-109.9678289	84.89518686	-88.18396578
5.88	588	0.884	-0.031	-0.056	-5.0420304	-37.9298196	14.037471	-106.3753823	85.13582922	-84.52849374
5.89	589	0.883	-0.034	-0.08	-3.151269	-33.231564	13.0061466	-102.9433639	85.33636452	-81.05636826
5.9	590	0.879	-0.048	-0.075	-1.8907614	-31.51269	11.4018642	-99.24778476	85.5139815	-77.33787084
5.91	591	0.92	-0.029	-0.086	-2.5210152	-29.5646328	8.307891	-95.64387894	85.62284352	-73.70531712
5.92	592	0.917	-0.024	-0.09	-1.0886202	-26.8144344	5.3285094	-92.20613094	85.6858689	-70.25038038
5.93	593	0.925	-0.01	-0.09	-0.9740286	-23.4339822	2.4064236	-89.12934648	85.70878722	-67.15640718
5.94	594	0.935	0.007	-0.083	-0.7448454	-21.0848544	0.0572958	-86.36195934	85.69732806	-64.3718313
5.95	595	0.939	0.014	-0.073	-0.7448454	-18.8503182	-2.005353	-83.66905674	85.66295058	-61.66746954
5.96	596	0.941	0.011	-0.057	-2.0626488	-15.6990492	-3.6669312	-81.7324587	85.60565478	-59.70795318
5.97	597	0.95	0.008	-0.053	-4.2398892	-10.6570188	-5.5003968	-80.54070606	85.53117024	-58.4703639
5.98	598	0.969	0.004	-0.055	-6.302538	-6.589017	-7.5057498	-79.93910016	85.44522654	-57.80573262
5.99	599	0.974	0.011	-0.057	-7.2765666	-4.7555514	-9.3392154	-79.63543242	85.3420941	-57.42758034
6	600	0.973	0.021	-0.067	-7.0473834	-3.6669312	-11.5164558	-79.27446888	85.23323208	-56.99213226
6.01	601	0.963	0.034	-0.08	-6.7609044	-2.578311	-13.464513	-79.33749426	85.09572216	-56.98640268
6.02	602	0.95	0.047	-0.097	-6.9327918	-1.718874	-14.5531332	-79.50938166	84.94675308	-57.08953512
6.03	603	0.933	0.065	-0.105	-7.2192708	-1.6615782	-14.6677248	-79.68699864	84.80351358	-57.19266756
6.04	604	0.92	0.085	-0.099	-6.589017	-2.005353	-14.4385416	-79.8130494	84.66027408	-57.25569294
6.05	605	0.915	0.098	-0.088	-5.2712136	-2.6356068	-14.1520626	-79.65835074	84.49984584	-57.04942806
6.06	606	0.923	0.109	-0.07	-3.8388186	-2.8074942	-13.9228794	-79.6698099	84.36233592	-57.02078016
6.07	607	0.942	0.115	-0.055	-2.291832	-2.7501984	-13.5218088	-79.66408032	84.224826	-56.99213226
6.08	608	0.962	0.118	-0.036	-0.9740286	-2.7501984	-12.9488508	-79.641162	84.09304566	-56.9520252
6.09	609	0.986	0.121	-0.02	0.4010706	-2.6356068	-12.2040054	-79.60105494	83.9669949	-56.91764772
6.1	610	1.009	0.126	0.001	1.7761698	-2.6356068	-11.2872726	-79.62397326	83.83521456	-56.95775478
6.11	611	1.022	0.134	0.024	3.3231564	-3.151269	-10.3705398	-79.48646334	83.73208212	-56.85462234
6.12	612	1.033	0.14	0.046	5.0420304	-3.8961144	-9.6256944	-79.25728014	83.62894968	-56.67700536
6.13	613	1.043	0.138	0.049	5.9587632	-5.156622	-8.7089616	-78.90777576	83.53154682	-56.39052636
6.14	614	1.054	0.135	0.042	6.302538	-6.589017	-7.7922288	-78.43222062	83.43987354	-55.97226702
6.15	615	1.065	0.136	0.039	6.3598338	-7.5057498	-7.1046792	-77.99677254	83.34820026	-55.59984432
6.16	616	1.076	0.139	0.039	6.1879464	-8.2505952	-6.302538	-77.3779779	83.26798614	-55.03834548
6.17	617	1.087	0.142	0.045	6.016059	-8.9381448	-5.3858052	-76.70188746	83.1935016	-54.42528042
6.18	618	1.088	0.14	0.045	5.72958	-9.6829902	-4.1825934	-75.95704206	83.12474664	-53.73200124
6.19	619	1.082	0.14	0.033	5.2139178	-10.5424272	-2.6929026	-75.13198254	83.06745084	-52.95850794
6.2	620	1.067	0.139	0.012	4.6409598	-11.5737516	-1.3178034	-74.30119344	83.01588462	-52.1678259
6.21	621	1.054	0.135	0	4.3544808	-12.8342592	0.1718874	-73.26986904	82.98150714	-51.17660856
6.22	622	1.044	0.13	-0.011	4.2398892	-13.5791046	1.2032118	-72.16978968	82.94712966	-50.11090668
6.23	623	1.036	0.126	-0.019	4.010706	-13.9228794	2.1199446	-71.02960326	82.91848176	-49.01082732
6.24	624	1.027	0.122	-0.025	3.9534102	-14.1520626	2.9793816	-69.86076894	82.89556344	-47.8706409
6.25	625	1.016	0.118	-0.031	3.8388186	-14.037471	3.6669312	-68.6976642	82.8783747	-46.74191364
6.26	626	1.004	0.11	-0.043	3.437748	-14.0947668	4.3544808	-67.51164114	82.86118596	-45.58453848
6.27	627	0.991	0.097	-0.055	3.2085648	-14.7250206	4.6409598	-66.27978144	82.84399722	-44.3755971
6.28	628	0.979	0.088	-0.059	2.9793816	-15.1260912	4.4117766	-65.030733	82.81534932	-43.15519656
6.29	629	0.977	0.079	-0.064	2.6356068	-15.2406828	3.7815228	-63.81033246	82.78097184	-41.95198476
6.3	630	0.966	0.078	-0.063	2.0626488	-15.5844576	3.2085648	-62.55555444	82.74086478	-40.71439548
6.31	631	0.968	0.077	-0.061	2.1772404	-14.2666542	2.2345362	-61.48985256	82.68929856	-39.66015276
6.32	632	0.973	0.071	-0.071	1.5469866	-13.464513	1.432395	-60.52728312	82.63200276	-38.70904248
6.33	633	0.981	0.068	-0.083	0.8021412	-12.5477802	0.3437748	-59.69076444	82.57470696	-37.8725238
6.34	634	0.986	0.067	-0.095	-0.0572958	-11.45916	-0.6302538	-58.98029652	82.505952	-37.1563263
6.35	635	0.989	0.071	-0.096	-0.6875496	-10.8289062	-1.5469866	-58.20680322	82.43146746	-36.37710342
6.36	636	1.019	0.075	-0.102	-1.6042824	-10.9434978	-2.1772404	-57.62811564	82.35698292	-35.7812271
6.37	637	0.988	0.089	-0.094	-2.291832	-11.745639	-2.8074942	-57.05515764	82.26530964	-35.17389162
6.38	638	0.982	0.093	-0.079	-0.9740286	-10.5424272	-3.0366774	-56.5509546	82.17936594	-34.65822942
6.39	639	0.986	0.09	-0.081	-0.4583664	-9.5683986	-3.0939732	-56.1212361	82.09915182	-34.21705176
6.4	640	0.989	0.088	-0.092	-1.0313244	-8.4797784	-3.0366774	-55.64568096	82.0189377	-33.73003746
6.41	641	0.988	0.091	-0.101	-1.8334656	-7.1046792	-3.151269	-55.38212028	81.95591232	-33.44928804
6.42	642	0.992	0.093	-0.104	-1.9480572	-5.7868758	-3.151269	-55.19877372	81.89288694	-33.24875274
6.43	643	0.975	0.098	-0.104	-2.4064236	-4.6409598	-2.9220858	-55.07845254	81.84132072	-33.09978366
6.44	644	0.962	0.102	-0.101	-2.3491278	-3.437748	-2.6356068	-55.01542716	81.80121366	-33.00811038
6.45	645	0.961	0.105	-0.095	-2.291832	-2.4637194	-2.4064236	-54.88364682	81.74964744	-32.8591413
6.46	646	0.959	0.104	-0.1	-2.4637194	-2.3491278	-1.7761698	-54.84926934	81.72099954	-32.79611592
6.47	647	0.961	0.107	-0.1	-2.86479	-2.1199446	-1.432395	-54.81489186	81.69808122	-32.73309054
6.48	648	0.967	0.11	-0.095	-2.86479	-1.432395	-1.2605076	-54.81489186	81.6751629	-32.70444264
6.49	649	0.97	0.111	-0.096	-2.6929026	-0.8021412	-1.0313244	-54.83781018	81.66370374	-32.69871306
6.5	650	0.97	0.11	-0.095	-2.1772404	-0.3437748	-1.0313244	-54.67738194	81.6178671	-32.52109608
6.51	651	0.972	0.108	-0.098	-2.005353	0	-0.8021412	-54.73467774	81.61213752	-32.54974398
6.52	652	0.975	0.107	-0.102	-2.0626488	0.3437748	-0.572958	-54.79197354	81.60640794	-32.59558062
6.53	653	0.975	0.109	-0.104	-1.8907614	0.4010706	-0.3437748	-54.84926934	81.60640794	-32.6299581
6.54	654	0.978	0.108	-0.105	-1.3750992	0.5156622	-0.1718874	-54.90083556	81.60640794	-32.66433558
6.55	655	0.981	0.109	-0.105	-1.145916	0.5156622	0.1718874	-54.43101	81.53765298	-32.18878044
6.56	656	0.983	0.11	-0.104	-0.9740286	0.2291832	0.4583664	-54.43673958	81.54338256	-32.18305086
6.57	657	0.984	0.11	-0.1	-0.3437748	-0.1145916	0.9167328	-54.39663252	81.54911214	-32.1429438
6.58	658	0.986	0.109	-0.093	0.1145916	-0.5156622	1.2605076	-54.3164184	81.55484172	-32.06272968
6.59	659	0.99	0.105	-0.086	0.4583664	-0.6302538	1.432395	-54.22474512	81.56630088	-31.9710564
6.6	660	0.995	0.104	-0.081	0.6302538	-0.4010706	1.6042824	-54.07577604	81.56630088	-31.8278169
6.61	661	0.998	0.102	-0.077	0.8021412	0.1145916	1.6042824	-54.01275066	81.58348962	-31.7705211
6.62	662	0.999	0.102	-0.073	0.6875496	0.9167328	1.7761698	-53.97837318	81.60067836	-31.74760278
6.63	663	1	0.101	-0.07	0.6302538	1.6615782	1.8334656	-53.98983234	81.62359668	-31.76479152
6.64	664	0.999	0.099	-0.071	0.572958	2.1199446	1.7761698	-54.0299394	81.65224458	-31.81062816
6.65	665	0.997	0.098	-0.073	0.572958	2.4637194	1.7761698	-54.0585873	81.69235164	-31.84500564
6.66	666	0.998	0.094	-0.077	0.572958	2.6356068	1.7761698	-54.12161268	81.72099954	-31.91949018
6.67	667	1	0.093	-0.083	0.286479	2.5210152	1.8334656	-54.18463806	81.74964744	-31.98251556
6.68	668	0.998	0.091	-0.085	-0.1718874	2.578311	1.6042824	-54.2591226	81.77829534	-32.0570001
6.69	669	0.997	0.086	-0.084	-0.6302538	2.6356068	1.432395	-54.35079588	81.80694324	-32.1429438
6.7	670	0.994	0.085	-0.084	-1.432395	3.0366774	1.145916	-54.35079588	81.83559114	-32.12575506
6.71	671	0.99	0.089	-0.086	-1.8334656	3.0939732	0.859437	-54.50549454	81.86423904	-32.26326498
6.72	672	0.988	0.091	-0.085	-2.0626488	2.8074942	0.6302538	-54.64873404	81.88715736	-32.38931574
6.73	673	0.989	0.089	-0.082	-2.5210152	2.3491278	0.6875496	-54.78051438	81.9043461	-32.49244818
6.74	674	0.992	0.087	-0.08	-2.9220858	2.1199446	0.8021412	-54.89510598	81.92726442	-32.57839188
6.75	675	0.997	0.086	-0.074	-3.0366774	1.8334656	0.7448454	-54.90656514	81.95591232	-32.56120314
6.76	676	0.999	0.081	-0.073	-3.0939732	1.3178034	0.4583664	-54.99250884	81.96737148	-32.61276936
6.77	677	1.004	0.089	-0.068	-3.2658606	1.145916	0	-55.08418212	81.97310106	-32.67579474
6.78	678	1.002	0.087	-0.066	-3.2085648	1.5469866	-0.286479	-55.21596246	81.98456022	-32.7731976
6.79	679	1.001	0.09	-0.067	-3.3804522	1.6615782	-0.5156622	-55.36493154	81.9902898	-32.8877892
6.8	680	1	0.092	-0.068	-3.6096354	1.718874	-0.6875496	-55.48525272	82.00174896	-32.9737329
6.81	681	1.001	0.093	-0.069	-3.6669312	1.4896908	-0.7448454	-55.6342218	82.00174896	-33.0883245
6.82	682	1.002	0.094	-0.067	-3.2085648	0.859437	-0.8021412	-55.7488134	82.00174896	-33.16853862
6.83	683	1.004	0.097	-0.063	-2.7501984	0.286479	-0.9167328	-55.82902752	81.99601938	-33.22583442
6.84	684	1.005	0.098	-0.06	-2.1772404	-0.0572958	-0.859437	-55.88059374	81.98456022	-33.25448232
6.85	685	1.01	0.101	-0.059	-2.1199446	0.286479	-0.9167328	-56.0639403	81.99601938	-33.41491056
6.86	686	1.01	0.099	-0.06	-2.005353	0.6302538	-0.9740286	-56.16134316	81.9902898	-33.4893951
6.87	687	1.01	0.099	-0.062	-2.2345362	1.145916	-1.0886202	-56.2931235	81.98456022	-33.59825712
6.88	688	1.01	0.099	-0.065	-2.3491278	1.6042824	-1.0313244	-56.44782216	81.98456022	-33.73576704
6.89	689	1.009	0.1	-0.069	-2.4064236	1.6615782	-1.0313244	-56.6082504	81.9902898	-33.86754738
6.9	690	1.008	0.1	-0.071	-2.291832	1.5469866	-0.9740286	-56.70565326	81.98456022	-33.94203192
6.91	691	1.008	0.099	-0.073	-2.0626488	1.2032118	-0.8021412	-56.82597444	81.9902898	-34.04516436
6.92	692	1.008	0.1	-0.072	-2.005353	0.6875496	-0.6875496	-56.91191814	81.98456022	-34.11391932
6.93	693	1.007	0.098	-0.073	-1.3178034	-0.1718874	-0.286479	-56.92910688	81.98456022	-34.11391932
6.94	694	1.008	0.1	-0.07	-1.145916	-0.6875496	-0.1718874	-56.90045898	81.97310106	-34.07381226
6.95	695	1.006	0.099	-0.071	-0.572958	-1.2032118	-0.1718874	-56.69992368	81.97310106	-33.86754738
6.96	696	1.003	0.098	-0.07	-0.286479	-1.432395	0	-56.61970956	81.96737148	-33.78733326
6.97	697	1.002	0.098	-0.069	-0.1145916	-1.6615782	0	-56.5223067	81.95591232	-33.68420082
6.98	698	1.003	0.098	-0.069	-0.2291832	-1.7761698	0.1145916	-56.41344468	81.94445316	-33.5753388
6.99	699	1.003	0.1	-0.072	-0.2291832	-1.8907614	0.2291832	-56.29885308	81.93872358	-33.44928804
7	700	1.001	0.096	-0.072	-0.1145916	-2.0626488	0.4583664	-56.01810366	81.93872358	-33.1742682
7.01	701	0.997	0.091	-0.071	-0.1718874	-2.291832	0.4583664	-55.86913458	81.92726442	-33.01956954
7.02	702	0.999	0.095	-0.074	-0.5156622	-2.1199446	0.4583664	-55.73735424	81.92153484	-32.88205962
7.03	703	0.999	0.095	-0.074	-0.5156622	-2.0626488	0.4010706	-55.61130348	81.91007568	-32.7445497
7.04	704	0.998	0.094	-0.076	-0.7448454	-1.9480572	0.286479	-55.4909823	81.9043461	-32.62422852
7.05	705	0.995	0.092	-0.075	-0.9740286	-1.718874	0.1145916	-55.26752868	81.89861652	-32.38358616
7.06	706	0.992	0.09	-0.078	-1.2032118	-1.4896908	0.1718874	-55.18731456	81.89288694	-32.29191288
7.07	707	0.992	0.093	-0.078	-1.718874	-1.145916	0	-55.13574834	81.88142778	-32.22315792
7.08	708	0.992	0.093	-0.081	-1.7761698	-0.7448454	0.0572958	-55.10710044	81.88142778	-32.17732128
7.09	709	0.992	0.087	-0.081	-1.7761698	-0.6875496	-0.1718874	-55.0899117	81.8756982	-32.1429438
7.1	710	0.992	0.093	-0.08	-2.1772404	-0.6875496	-0.1718874	-54.9180243	81.86423904	-31.9424085
7.11	711	0.994	0.092	-0.082	-1.8907614	-0.5156622	-0.1145916	-54.90656514	81.85850946	-31.91949018
7.12	712	0.996	0.09	-0.082	-1.7761698	-0.4583664	-0.1718874	-54.90656514	81.85850946	-31.89657186
7.13	713	0.997	0.091	-0.082	-1.8334656	-0.1145916	-0.2291832	-54.92375388	81.85277988	-31.89657186
7.14	714	1	0.092	-0.082	-1.6042824	0.0572958	-0.2291832	-54.95813136	81.85277988	-31.9137606
7.15	715	1	0.092	-0.08	-1.6042824	0.2291832	-0.3437748	-54.7461369	81.85850946	-31.69030698
7.16	716	1.001	0.091	-0.08	-1.4896908	0.3437748	-0.3437748	-54.79770312	81.85850946	-31.72468446
7.17	717	0.999	0.092	-0.081	-1.145916	0.2291832	-0.4010706	-54.83781018	81.85850946	-31.75333236
7.18	718	1.001	0.092	-0.078	-1.145916	0.1145916	-0.4010706	-54.87791724	81.85277988	-31.77625068
7.19	719	1.001	0.093	-0.076	-1.0313244	0.1718874	-0.4583664	-54.9180243	81.85277988	-31.80489858
7.2	720	1	0.093	-0.073	-0.8021412	0.286479	-0.6302538	-54.79770312	81.86996862	-31.6845774
7.21	721	0.999	0.092	-0.073	-0.7448454	0.5156622	-0.6302538	-54.8607285	81.86423904	-31.7418732
7.22	722	1.001	0.093	-0.074	-0.6875496	0.4583664	-0.8021412	-54.92948346	81.86423904	-31.799169
7.23	723	1.001	0.094	-0.076	-0.572958	0.5156622	-0.6875496	-54.99250884	81.85850946	-31.8564648
7.24	724	1.003	0.095	-0.076	-0.4583664	0.3437748	-0.8021412	-55.04980464	81.85277988	-31.9137606
7.25	725	1.002	0.094	-0.075	-0.3437748	0.2291832	-0.6875496	-54.84353976	81.8756982	-31.70749572
7.26	726	1.001	0.095	-0.073	-0.286479	0.1718874	-0.6875496	-54.88364682	81.86996862	-31.74760278
7.27	727	0.999	0.095	-0.074	-0.2291832	0.2291832	-0.6302538	-54.92948346	81.86423904	-31.78770984
7.28	728	0.998	0.094	-0.075	-0.3437748	0.1718874	-0.6302538	-54.96959052	81.86423904	-31.82208732
7.29	729	0.998	0.095	-0.075	-0.3437748	0.0572958	-0.6302538	-55.003968	81.85850946	-31.8564648
7.3	730	0.997	0.094	-0.075	-0.2291832	0	-0.6302538	-54.70030026	81.86996862	-31.55279706
7.31	731	0.998	0.094	-0.073	-0.2291832	0	-0.572958	-54.72894816	81.86423904	-31.58144496
7.32	732	0.998	0.095	-0.075	-0.1145916	0	-0.5156622	-54.75186648	81.85850946	-31.5986337
7.33	733	0.999	0.096	-0.075	0.1718874	-0.2291832	-0.4583664	-54.75759606	81.85277988	-31.60436328
7.34	734	1.001	0.095	-0.075	0.2291832	-0.286479	-0.2291832	-54.7461369	81.8470503	-31.5986337
7.35	735	0.999	0.095	-0.075	0.0572958	-0.1145916	-0.0572958	-53.85232242	81.89861652	-30.71627838
7.36	736	1	0.096	-0.074	0	0	-0.1145916	-53.858052	81.89861652	-30.72200796
7.37	737	1	0.097	-0.074	0.0572958	0.1718874	0	-53.87524074	81.89861652	-30.73346712
7.38	738	1.003	0.096	-0.076	0	0.1718874	0.1145916	-53.87524074	81.9043461	-30.7391967
7.39	739	1.002	0.093	-0.074	-0.1145916	0	0.1718874	-53.86951116	81.9043461	-30.73346712
7.4	740	1.002	0.092	-0.07	-0.2291832	-0.0572958	0.1145916	-53.78929704	81.95591232	-30.64752342
7.41	741	1.004	0.092	-0.069	-0.1718874	-0.4010706	0.0572958	-53.76637872	81.95591232	-30.6246051
7.42	742	1.004	0.09	-0.067	-0.1145916	-0.5156622	0	-53.73773082	81.95018274	-30.59022762
7.43	743	1.003	0.091	-0.065	-0.4010706	-0.3437748	-0.1145916	-53.72627166	81.95018274	-30.57876846
7.44	744	1.002	0.091	-0.068	-0.5156622	-0.1145916	-0.1145916	-53.73200124	81.94445316	-30.57876846
7.45	745	0.999	0.09	-0.071	-0.6875496	0	-0.1718874	-53.55438426	81.97883064	-30.3954219
7.46	746	0.997	0.091	-0.076	-0.4010706	-0.3437748	-0.1718874	-53.54865468	81.97310106	-30.38396274
7.47	747	0.997	0.091	-0.077	-0.1718874	-0.6302538	-0.3437748	-53.52573636	81.96737148	-30.36104442
7.48	748	0.998	0.092	-0.076	0	-0.8021412	-0.4010706	-53.49708846	81.95591232	-30.33239652
7.49	749	1.001	0.094	-0.074	0.1145916	-0.6875496	-0.3437748	-53.47417014	81.95018274	-30.3094782
7.5	750	1	0.092	-0.073	0.1145916	-0.6875496	-0.3437748	-53.40541518	81.95591232	-30.24645282
7.51	751	1.002	0.092	-0.073	0.1718874	-0.6875496	-0.3437748	-53.38249686	81.95018274	-30.21780492
7.52	752	1.004	0.092	-0.075	0.1718874	-0.6875496	-0.4010706	-53.35957854	81.94445316	-30.20061618
7.53	753	1.003	0.093	-0.076	0.286479	-0.572958	-0.5156622	-53.34811938	81.932994	-30.18915702
7.54	754	1.002	0.093	-0.076	0.3437748	-0.572958	-0.4583664	-53.33093064	81.92726442	-30.17769786
7.55	755	1.001	0.093	-0.073	0.3437748	-0.5156622	-0.4583664	-53.27363484	81.932994	-30.12613164
7.56	756	1	0.093	-0.073	0.286479	-0.286479	-0.3437748	-53.26790526	81.92726442	-30.12040206
7.57	757	0.999	0.093	-0.073	0.1718874	-0.2291832	-0.0572958	-53.25071652	81.92726442	-30.1089429
7.58	758	0.999	0.092	-0.074	0.1718874	-0.0572958	0.0572958	-53.23925736	81.92726442	-30.10321332
7.59	759	1.001	0.091	-0.074	0.1145916	-0.1145916	0.0572958	-53.2277982	81.92726442	-30.08602458
7.6	760	1.001	0.09	-0.075	0	-0.0572958	0	-52.76370222	81.99601938	-29.63338776
7.61	761	1	0.091	-0.076	0.1145916	0	0	-52.76370222	81.99601938	-29.63338776
7.62	762	0.998	0.092	-0.075	0.3437748	0	-0.0572958	-52.76370222	81.99601938	-29.63911734
7.63	763	0.998	0.093	-0.076	0.3437748	-0.0572958	-0.0572958	-52.76370222	81.99601938	-29.63911734
7.64	764	0.996	0.091	-0.079	0.4583664	-0.2291832	0	-52.7407839	81.9902898	-29.6219286
7.65	765	0.995	0.09	-0.078	0.4583664	-0.2291832	0	-52.43138658	82.00747854	-29.32399044
7.66	766	0.997	0.09	-0.077	0.5156622	-0.4583664	0	-52.40273868	82.00174896	-29.29534254
7.67	767	0.998	0.091	-0.077	0.5156622	-0.572958	0	-52.3683612	82.00174896	-29.26669464
7.68	768	1	0.09	-0.075	0.4583664	-0.5156622	0	-52.33398372	81.99601938	-29.23804674
7.69	769	0.999	0.09	-0.074	0.1718874	-0.286479	-0.1145916	-52.32252456	81.99601938	-29.22658758
7.7	770	1	0.091	-0.074	0	-0.0572958	-0.1145916	-52.1678259	82.03039686	-29.0776185
7.71	771	1.001	0.09	-0.076	0	-0.0572958	-0.2291832	-52.17928506	82.02466728	-29.08334808
7.72	772	0.999	0.091	-0.075	0.2291832	-0.0572958	-0.1718874	-52.17928506	82.02466728	-29.09480724
7.73	773	0.999	0.092	-0.075	0.286479	-0.1145916	-0.286479	-52.18501464	82.02466728	-29.10053682
7.74	774	0.997	0.092	-0.076	0.4583664	-0.3437748	-0.3437748	-52.17355548	82.0189377	-29.09480724
7.75	775	0.997	0.092	-0.076	0.5156622	-0.3437748	-0.286479	-52.09907094	82.0189377	-29.02605228
7.76	776	1	0.092	-0.075	0.5156622	-0.4583664	-0.2291832	-52.07615262	82.01320812	-29.00886354
7.77	777	1.002	0.091	-0.075	0.4010706	-0.286479	-0.1718874	-52.06469346	82.00747854	-29.00313396
7.78	778	1.002	0.091	-0.075	0.2291832	0.0572958	-0.0572958	-52.07042304	82.00747854	-29.00886354
7.79	779	1	0.091	-0.075	0.1718874	0.3437748	-0.0572958	-52.09334136	82.01320812	-29.03178186
7.8	780	1	0.092	-0.077	0.286479	0.4010706	-0.1718874	-51.99020892	82.0189377	-28.934379
7.81	781	1	0.091	-0.077	0.286479	0.1145916	-0.1145916	-52.00166808	82.0189377	-28.95156774
7.82	782	1.001	0.092	-0.075	0.2291832	-0.2291832	-0.0572958	-51.98447934	82.01320812	-28.94010858
7.83	783	1.002	0.092	-0.074	0.2291832	-0.286479	0	-51.9672906	82.01320812	-28.92291984
7.84	784	1.003	0.092	-0.075	0.2291832	-0.1718874	0	-51.95583144	82.01320812	-28.91146068
7.85	785	0.999	0.091	-0.076	0.1145916	0	0	-51.7094595	82.03039686	-28.66508874
7.86	786	0.997	0.091	-0.077	0	0.1145916	0.1145916	-51.7094595	82.03039686	-28.67081832
7.87	787	0.994	0.09	-0.077	0	0.2291832	0.0572958	-51.71518908	82.03039686	-28.6765479
7.88	788	0.997	0.09	-0.076	-0.1718874	0.1718874	0.0572958	-51.72664824	82.03612644	-28.68800706
7.89	789	0.998	0.092	-0.079	-0.1718874	0.1145916	0.0572958	-51.73237782	82.03612644	-28.68800706
7.9	790	1	0.092	-0.08	-0.0572958	0.0572958	0.1145916	-51.23963394	82.02466728	-28.19526318
7.91	791	1.001	0.093	-0.079	0	0	0.1718874	-51.22817478	82.02466728	-28.1895336
7.92	792	1	0.092	-0.079	0.1718874	-0.0572958	0.3437748	-51.20525646	82.02466728	-28.16661528
7.93	793	1.001	0.09	-0.077	0.286479	-0.2291832	0.4010706	-51.17087898	82.02466728	-28.1322378
7.94	794	0.999	0.089	-0.076	0.1718874	-0.1718874	0.4010706	-51.1365015	82.03039686	-28.1035899
7.95	795	0.999	0.089	-0.077	0	-0.1145916	0.4010706	-50.97607326	82.04185602	-27.94889124
7.96	796	0.999	0.089	-0.077	-0.1718874	-0.1718874	0.286479	-50.95315494	82.0475856	-27.92024334
7.97	797	0.997	0.089	-0.078	-0.3437748	0	0.1718874	-50.94742536	82.0475856	-27.90878418
7.98	798	0.998	0.09	-0.077	-0.286479	0.0572958	0.2291832	-50.94169578	82.0475856	-27.9030546
7.99	799	0.997	0.089	-0.077	-0.1145916	0.1145916	0.2291832	-50.94169578	82.05331518	-27.89732502
8	800	0.996	0.088	-0.08	0	-0.1145916	0.1718874	-50.74689006	82.05331518	-27.70824888
8.01	801	0.998	0.089	-0.078	0	-0.1145916	0.1145916	-50.7354309	82.05331518	-27.69106014
8.02	802	1	0.091	-0.079	0	0	0.1718874	-50.72970132	82.05331518	-27.68533056
8.03	803	1	0.092	-0.078	-0.0572958	0.0572958	0	-50.7354309	82.05331518	-27.69106014
8.04	804	1	0.091	-0.076	-0.0572958	0	0.0572958	-50.7354309	82.05331518	-27.69106014
8.05	805	0.997	0.09	-0.074	-0.2291832	0.1718874	0.1718874	-50.7354309	82.07050392	-27.69106014
8.06	806	0.999	0.089	-0.077	-0.1145916	0.1718874	0.1718874	-50.7354309	82.0762335	-27.69106014
8.07	807	1	0.087	-0.077	-0.2291832	-0.2291832	0.1718874	-50.71824216	82.0762335	-27.66814182
8.08	808	1.002	0.085	-0.076	-0.4010706	-0.6302538	0.1145916	-50.6781351	82.07050392	-27.62230518
8.09	809	1.002	0.087	-0.072	-0.6302538	-0.5156622	0	-50.66094636	82.06477434	-27.59938686
8.1	810	1	0.088	-0.071	-0.859437	0	-0.1718874	-50.69532384	82.0762335	-27.62230518
8.11	811	0.996	0.089	-0.079	-0.859437	0.5156622	-0.2291832	-50.74689006	82.0762335	-27.66814182
8.12	812	0.991	0.088	-0.086	-0.7448454	0.572958	-0.286479	-50.79845628	82.08196308	-27.71397846
8.13	813	0.991	0.088	-0.088	-0.3437748	-0.1145916	-0.286479	-50.80991544	82.0762335	-27.71970804
8.14	814	0.994	0.089	-0.083	-0.1718874	-0.4583664	-0.3437748	-50.80418586	82.07050392	-27.70824888
8.15	815	0.997	0.091	-0.079	-0.2291832	-0.4583664	-0.4010706	-50.76980838	82.06477434	-27.6738714
8.16	816	0.998	0.091	-0.078	-0.3437748	-0.286479	-0.286479	-50.76980838	82.05904476	-27.66814182
8.17	817	0.998	0.09	-0.079	-0.4583664	-0.1145916	-0.286479	-50.78126754	82.05331518	-27.6738714
8.18	818	1	0.089	-0.081	-0.4583664	0	-0.286479	-50.79845628	82.05331518	-27.69106014
8.19	819	1	0.089	-0.08	-0.3437748	0.2291832	-0.2291832	-50.82710418	82.05331518	-27.71397846
8.2	820	1	0.089	-0.08	-0.3437748	0.286479	-0.2291832	-50.76980838	82.0475856	-27.65668266
8.21	821	0.998	0.089	-0.079	-0.286479	0.2291832	-0.1718874	-50.79845628	82.0475856	-27.67960098
8.22	822	0.999	0.089	-0.078	-0.3437748	0.1145916	-0.2291832	-50.8213746	82.0475856	-27.69678972
8.23	823	0.998	0.088	-0.078	-0.4010706	0.2291832	-0.2291832	-50.8500225	82.0475856	-27.72543762
8.24	824	0.998	0.088	-0.077	-0.6302538	0.286479	-0.1718874	-50.88439998	82.0475856	-27.75408552
8.25	825	0.997	0.089	-0.078	-0.6875496	0.3437748	-0.1718874	-50.86721124	82.05331518	-27.7311672
8.26	826	0.998	0.089	-0.079	-0.7448454	0.3437748	-0.1145916	-50.90158872	82.05331518	-27.75408552
8.27	827	0.997	0.088	-0.08	-0.6875496	0.3437748	-0.2291832	-50.94169578	82.05331518	-27.788463
8.28	828	0.997	0.088	-0.081	-0.572958	0.4010706	-0.2291832	-50.98180284	82.05904476	-27.82284048
8.29	829	0.998	0.089	-0.079	-0.286479	0.286479	-0.1145916	-51.00472116	82.05904476	-27.8457588
8.3	830	0.998	0.091	-0.081	-0.3437748	0.2291832	-0.1718874	-50.90158872	82.05331518	-27.73689678
8.31	831	0.999	0.089	-0.081	-0.1145916	0.1145916	-0.1145916	-50.91877746	82.05331518	-27.75408552
8.32	832	1.001	0.087	-0.08	0	0.1718874	-0.2291832	-50.94169578	82.05331518	-27.77127426
8.33	833	1.001	0.086	-0.079	-0.1718874	0.1145916	-0.2291832	-50.95888452	82.05331518	-27.79419258
8.34	834	1.003	0.089	-0.08	-0.1145916	0.0572958	-0.2291832	-50.97607326	82.05331518	-27.81138132
8.35	835	1.003	0.088	-0.078	-0.1718874	0	-0.2291832	-50.89585914	82.06477434	-27.72543762
8.36	836	1.002	0.088	-0.076	-0.3437748	0.2291832	-0.3437748	-50.93023662	82.06477434	-27.7598151
8.37	837	1	0.088	-0.076	-0.4010706	0.4010706	-0.3437748	-50.97607326	82.06477434	-27.79992216
8.38	838	0.999	0.089	-0.078	-0.5156622	0.3437748	-0.4010706	-51.0219099	82.06477434	-27.84002922
8.39	839	0.997	0.089	-0.08	-0.286479	0.1145916	-0.2291832	-51.03909864	82.06477434	-27.85721796
8.4	840	0.998	0.089	-0.08	-0.1145916	0	-0.1718874	-50.89012956	82.06477434	-27.70824888
8.41	841	0.998	0.089	-0.08	-0.0572958	0.0572958	-0.2291832	-50.90158872	82.06477434	-27.71970804
8.42	842	0.999	0.09	-0.08	0.0572958	0.0572958	-0.1718874	-50.91304788	82.06477434	-27.7311672
8.43	843	0.999	0.09	-0.08	0.0572958	0	-0.1718874	-50.92450704	82.05904476	-27.74262636
8.44	844	0.999	0.089	-0.08	0.1145916	0	-0.1718874	-50.93023662	82.05904476	-27.74835594
8.45	845	0.999	0.09	-0.079	0	0	-0.0572958	-50.80991544	82.05331518	-27.62803476
8.46	846	0.998	0.091	-0.079	-0.1145916	0.1718874	0	-50.8213746	82.05904476	-27.63949392
8.47	847	0.998	0.091	-0.08	-0.1145916	0.1718874	0	-50.83856334	82.05904476	-27.65668266
8.48	848	0.999	0.091	-0.081	-0.0572958	0.1145916	0	-50.8500225	82.05904476	-27.66241224
8.49	849	0.998	0.09	-0.08	-0.0572958	0	0.0572958	-50.84429292	82.05904476	-27.65668266
8.5	850	0.998	0.089	-0.079	0	-0.0572958	0.1145916	-50.74116048	82.07050392	-27.5592798
8.51	851	0.997	0.088	-0.079	-0.1718874	-0.0572958	0.1718874	-50.72970132	82.07050392	-27.54209106
8.52	852	0.996	0.09	-0.08	-0.1718874	0.0572958	0.1145916	-50.72970132	82.07050392	-27.53636148
8.53	853	0.997	0.088	-0.083	-0.1718874	0.0572958	0.1145916	-50.72397174	82.07050392	-27.53636148
8.54	854	0.997	0.089	-0.083	-0.1718874	0	0	-50.72970132	82.07050392	-27.53636148
8.55	855	0.997	0.089	-0.082	-0.1145916	0.0572958	0	-50.32290114	82.07050392	-27.1295613
8.56	856	0.998	0.088	-0.082	-0.1145916	0.1145916	0	-50.32863072	82.07050392	-27.13529088
8.57	857	0.998	0.089	-0.081	-0.1718874	0.1145916	0	-50.3343603	82.07050392	-27.14102046
8.58	858	0.998	0.089	-0.082	-0.1718874	0.1718874	0	-50.34581946	82.07050392	-27.15247962
8.59	859	0.998	0.089	-0.08	-0.1145916	0.1718874	0	-50.3630082	82.07050392	-27.16393878
8.6	860	0.998	0.088	-0.081	-0.1718874	0.2291832	0	-50.2770645	82.0762335	-27.07799508
8.61	861	0.996	0.088	-0.081	-0.1145916	0.2291832	-0.0572958	-50.29425324	82.0762335	-27.09518382
8.62	862	0.998	0.088	-0.081	-0.1718874	0.286479	-0.1145916	-50.32290114	82.0762335	-27.11810214
8.63	863	1	0.088	-0.08	-0.1145916	0.1718874	-0.1718874	-50.34008988	82.0762335	-27.14102046
8.64	864	1.002	0.089	-0.08	-0.0572958	0	-0.1718874	-50.35154904	82.0762335	-27.15247962
8.65	865	1.001	0.089	-0.079	-0.0572958	0	-0.1718874	-50.11663626	82.07050392	-26.91756684
8.66	866	1.001	0.09	-0.079	-0.0572958	0.0572958	-0.1718874	-50.133825	82.07050392	-26.929026
8.67	867	1	0.09	-0.078	-0.0572958	0.1145916	-0.1718874	-50.15101374	82.07050392	-26.94621474
8.68	868	1	0.09	-0.077	-0.1718874	0.1718874	-0.1718874	-50.16820248	82.07050392	-26.96340348
8.69	869	0.999	0.09	-0.08	-0.2291832	0.2291832	-0.1145916	-50.19685038	82.07050392	-26.9863218
8.7	870	0.999	0.09	-0.079	-0.1718874	0.1718874	-0.0572958	-50.1051771	82.0762335	-26.89464852
8.71	871	0.998	0.09	-0.079	-0.1145916	0.1145916	-0.1145916	-50.11663626	82.0762335	-26.91183726
8.72	872	0.999	0.09	-0.079	0	0	-0.0572958	-50.12236584	82.0762335	-26.91183726
8.73	873	0.999	0.09	-0.08	0.1718874	-0.2291832	-0.0572958	-50.11090668	82.0762335	-26.9003781
8.74	874	0.999	0.09	-0.079	0.1718874	-0.1718874	0	-50.09371794	82.07050392	-26.88891894
8.75	875	1	0.09	-0.079	-0.1145916	0	-0.0572958	-50.0478813	82.07050392	-26.8430823
8.76	876	0.999	0.091	-0.079	-0.4010706	0.1718874	-0.1145916	-50.07079962	82.07050392	-26.86027104
8.77	877	0.998	0.091	-0.081	-0.286479	0.4010706	-0.1718874	-50.11090668	82.07050392	-26.89464852
8.78	878	0.999	0.09	-0.083	-0.2291832	0.3437748	-0.1145916	-50.13955458	82.0762335	-26.92329642
8.79	879	0.997	0.089	-0.083	-0.286479	0.1718874	-0.0572958	-50.15674332	82.0762335	-26.93475558
8.8	880	0.997	0.088	-0.081	-0.286479	0	0	-50.0478813	82.07050392	-26.82589356
8.81	881	0.997	0.09	-0.08	0	-0.4583664	-0.0572958	-50.02496298	82.06477434	-26.80297524
8.82	882	0.999	0.09	-0.078	0	-0.4583664	-0.1145916	-50.00777424	82.06477434	-26.7857865
8.83	883	1	0.09	-0.077	-0.2291832	-0.0572958	-0.1145916	-50.01350382	82.05904476	-26.7857865
8.84	884	0.998	0.091	-0.079	-0.4583664	0.4010706	-0.1145916	-50.04215172	82.06477434	-26.8144344
8.85	885	0.997	0.09	-0.081	-0.286479	0.3437748	-0.1718874	-49.9905855	82.05331518	-26.76286818
8.86	886	0.996	0.089	-0.083	0.0572958	-0.0572958	-0.1145916	-49.99631508	82.05331518	-26.76286818
8.87	887	0.997	0.09	-0.084	0.1718874	-0.4583664	-0.1145916	-49.97339676	82.0475856	-26.74567944
8.88	888	0.999	0.092	-0.083	0.2291832	-0.572958	-0.0572958	-49.94474886	82.04185602	-26.72276112
8.89	889	1.001	0.092	-0.08	0.3437748	-0.4583664	-0.0572958	-49.92183054	82.04185602	-26.69411322
8.9	890	1.002	0.093	-0.08	0.5156622	-0.286479	-0.0572958	-49.88745306	82.03612644	-26.6711949
8.91	891	1.001	0.091	-0.08	0.572958	-0.286479	0	-49.86453474	82.03612644	-26.65400616
8.92	892	1.001	0.091	-0.079	0.2291832	-0.3437748	0	-49.84161642	82.03039686	-26.63108784
8.93	893	1	0.092	-0.078	-0.0572958	-0.2291832	0	-49.83015726	82.03039686	-26.61962868
8.94	894	0.999	0.092	-0.077	-0.1145916	-0.2291832	0	-49.8186981	82.03039686	-26.60816952
8.95	895	1	0.092	-0.078	-0.1145916	-0.286479	0.0572958	-49.80150936	82.03039686	-26.59098078
8.96	896	1	0.091	-0.079	-0.0572958	-0.1718874	0.1718874	-49.78432062	82.03039686	-26.56806246
8.97	897	0.999	0.09	-0.08	-0.1145916	-0.2291832	0.1718874	-49.7614023	82.03039686	-26.54514414
8.98	898	1	0.09	-0.08	-0.1145916	-0.2291832	0.1145916	-49.74421356	82.03039686	-26.5279554
8.99	899	1	0.09	-0.08	-0.1145916	-0.286479	0.1718874	-49.72129524	82.03039686	-26.50503708
9	900	1	0.092	-0.08	-0.0572958	-0.1718874	0.1145916	-49.61243322	82.0189377	-26.39617506
9.01	901	0.998	0.091	-0.082	0	0	0.1718874	-49.60670364	82.0189377	-26.3847159
9.02	902	0.999	0.092	-0.08	0	-0.1718874	0.1718874	-49.58378532	82.0189377	-26.36752716
9.03	903	0.999	0.092	-0.082	0	-0.1718874	0.2291832	-49.560867	82.0189377	-26.34460884
9.04	904	0.999	0.092	-0.082	0	-0.0572958	0.286479	-49.54367826	82.02466728	-26.32169052
9.05	905	0.998	0.091	-0.082	0	0	0.286479	-49.46346414	82.01320812	-26.2414764
9.06	906	0.998	0.089	-0.081	0	0	0.286479	-49.45200498	82.0189377	-26.23001724
9.07	907	0.999	0.09	-0.082	0.1718874	-0.2291832	0.2291832	-49.42335708	82.0189377	-26.20136934
9.08	908	0.998	0.089	-0.081	0	-0.2291832	0.1718874	-49.40043876	82.0189377	-26.1841806
9.09	909	0.998	0.09	-0.079	0	-0.0572958	0.1718874	-49.38325002	82.0189377	-26.16699186
9.1	910	0.998	0.091	-0.079	-0.1718874	0.1145916	0.0572958	-49.3889796	82.0189377	-26.17272144
9.11	911	0.996	0.09	-0.08	-0.286479	0.3437748	0	-49.41189792	82.0189377	-26.18991018
9.12	912	0.995	0.09	-0.081	-0.2291832	0.3437748	0	-49.43481624	82.02466728	-26.2128285
9.13	913	0.995	0.091	-0.082	-0.1145916	0.286479	-0.0572958	-49.45200498	82.02466728	-26.23001724
9.14	914	0.996	0.091	-0.082	-0.0572958	0.1718874	-0.0572958	-49.46919372	82.02466728	-26.2414764
9.15	915	0.997	0.089	-0.085	-0.0572958	0.1718874	0	-49.2457401	82.01320812	-26.01802278
9.16	916	0.996	0.083	-0.084	0.0572958	-0.1718874	0.1718874	-49.22282178	82.01320812	-26.00083404
9.17	917	1.002	0.097	-0.079	-0.9167328	0.2291832	0	-49.2457401	82.01320812	-26.0122932
9.18	918	1.002	0.093	-0.082	-0.1718874	0.5156622	0	-49.28011758	82.0189377	-26.0409411
9.19	919	1.001	0.093	-0.081	-0.1718874	0.3437748	-0.0572958	-49.3030359	82.0189377	-26.06385942
9.2	920	1	0.095	-0.081	-0.1145916	0.286479	0	-49.37179086	81.99601938	-26.13261438
9.21	921	0.998	0.091	-0.081	0.1145916	-0.1718874	0.1145916	-49.35460212	81.99601938	-26.11542564
9.22	922	0.997	0.09	-0.081	0.1718874	-0.6302538	0.1718874	-49.3030359	81.9902898	-26.069589
9.23	923	0.999	0.094	-0.078	0.0572958	-0.8021412	0.286479	-49.2457401	81.9902898	-26.0122932
9.24	924	0.998	0.091	-0.079	0.286479	-1.0313244	0.3437748	-49.17125556	81.98456022	-25.93780866
9.25	925	0.999	0.091	-0.079	0.286479	-1.145916	0.2291832	-49.10823018	81.97883064	-25.87478328
9.26	926	0.999	0.091	-0.082	0.3437748	-1.0886202	0.1145916	-49.03947522	81.97310106	-25.8117579
9.27	927	0.999	0.09	-0.082	0.3437748	-1.0313244	0.1145916	-48.97644984	81.96737148	-25.74873252
9.28	928	0.998	0.09	-0.083	0.3437748	-0.859437	0.0572958	-48.92488362	81.9616419	-25.70289588
9.29	929	0.997	0.09	-0.084	0.286479	-0.6875496	0.0572958	-48.87904698	81.95591232	-25.66278882
9.3	930	0.996	0.091	-0.083	0.3437748	-0.7448454	0	-48.82748076	81.94445316	-25.6112226
9.31	931	0.998	0.09	-0.082	0.286479	-0.6875496	0	-48.7873737	81.94445316	-25.57684512
9.32	932	0.999	0.092	-0.083	0.3437748	-0.7448454	0	-48.74153706	81.93872358	-25.53100848
9.33	933	1	0.09	-0.085	0.5156622	-0.6875496	0	-48.70143	81.932994	-25.496631
9.34	934	1	0.09	-0.084	0.5156622	-0.572958	0	-48.66705252	81.92726442	-25.4679831
9.35	935	1	0.089	-0.084	0.572958	-0.4583664	0	-48.60975672	81.92726442	-25.41641688
9.36	936	0.998	0.091	-0.084	0.5156622	-0.4010706	-0.1145916	-48.5868384	81.92153484	-25.40495772
9.37	937	0.999	0.091	-0.083	0.5156622	-0.286479	-0.1718874	-48.57537924	81.91580526	-25.39349856
9.38	938	0.999	0.09	-0.084	0.4010706	-0.286479	-0.1718874	-48.56392008	81.91580526	-25.38776898
9.39	939	1	0.091	-0.084	0.4010706	-0.3437748	-0.1145916	-48.54673134	81.91007568	-25.37630982
9.4	940	1	0.092	-0.084	0.4583664	-0.5156622	-0.1145916	-48.51808344	81.9043461	-25.3533915
9.41	941	1	0.092	-0.083	0.4583664	-0.4010706	-0.1145916	-48.5008947	81.9043461	-25.33620276
9.42	942	1	0.093	-0.084	0.4583664	-0.3437748	-0.0572958	-48.47797638	81.89861652	-25.3247436
9.43	943	1	0.091	-0.084	0.4010706	-0.4010706	-0.1145916	-48.46078764	81.89288694	-25.30755486
9.44	944	1	0.092	-0.083	0.4010706	-0.286479	-0.1145916	-48.44932848	81.89288694	-25.2960957
9.45	945	0.999	0.092	-0.085	0.3437748	-0.286479	-0.0572958	-48.414951	81.88142778	-25.2674478
9.46	946	0.999	0.092	-0.085	0.4010706	-0.2291832	-0.0572958	-48.40349184	81.88142778	-25.26171822
9.47	947	0.999	0.093	-0.084	0.4010706	-0.2291832	0	-48.3863031	81.8756982	-25.25025906
9.48	948	0.999	0.092	-0.084	0.5156622	-0.4010706	0	-48.3576552	81.8756982	-25.22734074
9.49	949	1	0.092	-0.084	0.7448454	-0.5156622	0.0572958	-48.31754814	81.86996862	-25.19296326
9.5	950	1.001	0.092	-0.084	0.8021412	-0.572958	0.1145916	-48.27744108	81.86996862	-25.16431536
9.51	951	0.999	0.092	-0.085	0.8021412	-0.6875496	0.1145916	-48.23160444	81.86423904	-25.1242083
9.52	952	0.998	0.092	-0.084	0.7448454	-0.8021412	0.1145916	-48.17430864	81.85850946	-25.07264208
9.53	953	0.998	0.092	-0.085	0.7448454	-0.8021412	0.1145916	-48.11701284	81.85277988	-25.02680544
9.54	954	0.999	0.091	-0.085	0.859437	-1.0886202	0.1718874	-48.04825788	81.8470503	-24.96378006
9.55	955	0.998	0.092	-0.085	0.859437	-1.0313244	0.1718874	-47.96804376	81.84132072	-24.8950251
9.56	956	0.998	0.091	-0.086	0.4010706	-0.572958	0.1718874	-47.9279367	81.83559114	-24.85491804
9.57	957	0.998	0.092	-0.086	0.1718874	-0.5156622	0.1145916	-47.89355922	81.83559114	-24.82054056
9.58	958	0.998	0.091	-0.088	0.2291832	-0.4010706	0.1145916	-47.85918174	81.82986156	-24.79189266
9.59	959	0.996	0.091	-0.089	0.2291832	-0.3437748	0.0572958	-47.83626342	81.82986156	-24.77470392
9.6	960	0.996	0.09	-0.089	0.3437748	-0.286479	0.0572958	-47.72167182	81.81267282	-24.66011232
9.61	961	0.994	0.09	-0.089	0.3437748	-0.2291832	0	-47.6987535	81.81267282	-24.64292358
9.62	962	0.994	0.09	-0.089	0.4010706	-0.286479	0	-47.68156476	81.81267282	-24.63146442
9.63	963	0.997	0.09	-0.09	0.4583664	-0.3437748	-0.0572958	-47.66437602	81.80694324	-24.62000526
9.64	964	0.998	0.091	-0.089	0.5156622	-0.2291832	0	-47.6414577	81.80694324	-24.60281652
9.65	965	0.997	0.09	-0.089	0.6875496	-0.4010706	0	-47.57843232	81.79548408	-24.54552072
9.66	966	0.996	0.09	-0.088	0.5156622	-0.4583664	0	-47.54978442	81.79548408	-24.5226024
9.67	967	0.998	0.089	-0.088	0.4583664	-0.4010706	0	-47.5268661	81.7897545	-24.49968408
9.68	968	0.997	0.09	-0.09	0.3437748	-0.286479	-0.1145916	-47.50967736	81.7897545	-24.4939545
9.69	969	0.998	0.091	-0.09	0.2291832	-0.1145916	-0.1145916	-47.50967736	81.78402492	-24.4939545
9.7	970	0.996	0.091	-0.091	0.286479	0	-0.1145916	-47.3549787	81.7611066	-24.34498542
9.71	971	0.995	0.091	-0.091	0.286479	0	-0.0572958	-47.3549787	81.7611066	-24.34498542
9.72	972	0.996	0.09	-0.088	0.4010706	-0.1145916	0	-47.34924912	81.75537702	-24.33925584
9.73	973	0.995	0.088	-0.089	0.2291832	-0.286479	-0.0572958	-47.33778996	81.75537702	-24.33352626
9.74	974	0.996	0.089	-0.089	0	-0.4010706	-0.1718874	-47.3263308	81.74964744	-24.3220671
9.75	975	0.993	0.089	-0.09	-0.0572958	-0.1718874	-0.3437748	-47.23465752	81.73818828	-24.23039382
9.76	976	0.994	0.09	-0.095	-0.1145916	0.1718874	-0.4583664	-47.27476458	81.73818828	-24.2647713
9.77	977	0.996	0.092	-0.099	0	0.2291832	-0.5156622	-47.30914206	81.7324587	-24.30487836
9.78	978	1	0.092	-0.098	0.0572958	0	-0.4583664	-47.33206038	81.7324587	-24.32779668
9.79	979	1.001	0.094	-0.093	0.1718874	-0.0572958	-0.2291832	-47.33778996	81.72672912	-24.33352626
9.8	980	1.001	0.093	-0.089	0.2291832	0.6302538	-0.2291832	-47.40654492	81.7324587	-24.40228122
9.81	981	1.002	0.093	-0.086	-0.1718874	1.2605076	-0.1718874	-47.48102946	81.73818828	-24.47676576
9.82	982	1.003	0.095	-0.088	-0.572958	1.8334656	-0.1145916	-47.5841619	81.74964744	-24.57416862
9.83	983	1.004	0.094	-0.089	-0.7448454	2.005353	-0.1145916	-47.6987535	81.7611066	-24.68303064
9.84	984	1.003	0.094	-0.09	-0.5156622	1.5469866	0	-47.77896762	81.77256576	-24.76324476
9.85	985	1.002	0.092	-0.09	-0.286479	0.8021412	0	-47.75031972	81.77829534	-24.72886728
9.86	986	1.002	0.092	-0.087	-0.1718874	0.2291832	0	-47.76177888	81.77829534	-24.74032644
9.87	987	1.004	0.093	-0.083	0	-0.3437748	0.0572958	-47.73886056	81.77256576	-24.71740812
9.88	988	1.007	0.093	-0.078	0	-1.0313244	0.1718874	-47.68156476	81.76683618	-24.65438274
9.89	989	1.013	0.092	-0.079	-0.286479	-1.0886202	0.1718874	-47.61853938	81.7611066	-24.59135736
9.9	990	1.008	0.09	-0.081	-0.5156622	-1.145916	0.0572958	-47.57270274	81.7611066	-24.53979114
