TimeStamp(s)	FrameCounter	AccX	AccY	AccZ	GyrX	GyrY	GyrZ	EulerX	EulerY	EulerZ
0.01	1	0.024	-1.003	0.108	1.7761698	0.0572958	-1.8907614	95.25999708	2.01108258	-58.56203718
0.02	2	0.02	-1.004	0.108	2.86479	1.6615782	-3.3231564	95.28864498	2.03973048	-58.53911886
0.03	3	0.022	-1.007	0.108	2.9793816	2.3491278	-2.86479	95.31729288	2.0626488	-58.51620054
0.04	4	0.025	-1.009	0.111	2.9793816	2.86479	-2.3491278	95.35167036	2.08556712	-58.48182306
0.05	5	0.026	-1.01	0.114	2.86479	3.2658606	-1.8334656	95.38031826	2.09702628	-58.45317516
0.06	6	0.027	-1.008	0.117	2.5210152	3.4950438	-1.3750992	95.40896616	2.10848544	-58.4130681
0.07	7	0.026	-1.006	0.116	2.1772404	3.437748	-1.0313244	95.43188448	2.11421502	-58.37869062
0.08	8	0.026	-1.003	0.114	1.5469866	3.2085648	-0.7448454	95.44907322	2.11421502	-58.34431314
0.09	9	0.027	-0.999	0.112	1.2605076	3.0366774	-0.4583664	95.46053238	2.1199446	-58.31566524
0.1	10	0.029	-0.998	0.11	1.145916	2.86479	-0.2291832	95.46626196	2.11421502	-58.28701734
0.11	11	0.03	-0.998	0.108	1.0313244	3.0366774	0	95.47772112	2.11421502	-58.25263986
0.12	12	0.029	-0.998	0.106	1.2605076	3.0939732	0.286479	95.49490986	2.10275586	-58.22399196
0.13	13	0.028	-0.999	0.106	1.432395	3.3231564	0.5156622	95.50636902	2.09702628	-58.18961448
0.14	14	0.026	-1.002	0.106	1.7761698	3.3231564	0.6875496	95.52928734	2.08556712	-58.16096658
0.15	15	0.026	-1.004	0.108	2.005353	3.3804522	0.8021412	95.54647608	2.06837838	-58.1265891
0.16	16	0.025	-1.006	0.111	2.1199446	3.2658606	0.7448454	95.5693944	2.05691922	-58.0979412
0.17	17	0.026	-1.007	0.114	1.9480572	3.2085648	0.6875496	95.58658314	2.04546006	-58.06356372
0.18	18	0.028	-1.005	0.116	1.718874	3.0366774	0.6302538	95.60377188	2.0340009	-58.03491582
0.19	19	0.028	-1.002	0.117	1.6615782	2.7501984	0.6302538	95.62096062	2.02827132	-58.00626792
0.2	20	0.029	-1	0.116	1.3178034	2.3491278	0.4010706	95.63241978	2.02254174	-57.9833496
0.21	21	0.031	-0.998	0.115	1.3750992	1.8907614	0.286479	95.64960852	2.01681216	-57.96616086
0.22	22	0.034	-0.998	0.117	1.6042824	1.0886202	0.2291832	95.66679726	2.01108258	-57.9547017
0.23	23	0.036	-0.998	0.116	1.6042824	0.572958	0.1718874	95.683986	2.01108258	-57.94897212
0.24	24	0.034	-0.999	0.116	1.7761698	0	0.1145916	95.70117474	2.005353	-57.94897212
0.25	25	0.032	-0.999	0.116	1.8334656	-0.286479	0.0572958	95.7126339	2.01681216	-57.94324254
0.26	26	0.03	-0.999	0.116	2.0626488	-0.5156622	0.0572958	95.72982264	2.01681216	-57.94897212
0.27	27	0.028	-1	0.114	2.4637194	-0.7448454	0	95.75847054	2.01681216	-57.9547017
0.28	28	0.024	-1	0.112	2.9220858	-1.0313244	0	95.78711844	2.01681216	-57.96616086
0.29	29	0.021	-1.001	0.112	3.0939732	-1.145916	-0.0572958	95.81576634	2.02254174	-57.97762002
0.3	30	0.018	-1.001	0.113	3.437748	-1.3178034	-0.1145916	95.84441424	2.01108258	-57.99480876
0.31	31	0.017	-1.002	0.114	3.4950438	-1.2605076	-0.286479	95.87879172	2.01681216	-58.00626792
0.32	32	0.017	-1.002	0.116	3.724227	-1.145916	-0.4583664	95.91889878	2.02254174	-58.01772708
0.33	33	0.016	-1.001	0.119	3.7815228	-0.859437	-0.572958	95.95900584	2.0340009	-58.02918624
0.34	34	0.017	-1.002	0.12	3.8388186	-0.859437	-0.6302538	95.9991129	2.03973048	-58.03491582
0.35	35	0.017	-1	0.121	3.8961144	-0.7448454	-0.6302538	96.03349038	2.0340009	-58.05210456
0.36	36	0.015	-1	0.124	4.010706	-0.6302538	-0.6302538	96.07359744	2.03973048	-58.05783414
0.37	37	0.014	-1	0.126	4.1252976	-0.286479	-0.6302538	96.11943408	2.05118964	-58.05783414
0.38	38	0.015	-1.001	0.127	4.1825934	-0.0572958	-0.572958	96.15954114	2.05691922	-58.05783414
0.39	39	0.016	-1.003	0.127	4.2398892	0.0572958	-0.4583664	96.20537778	2.0626488	-58.05783414
0.4	40	0.019	-1.003	0.126	4.1825934	0.572958	-0.4583664	96.24548484	2.05118964	-58.05783414
0.41	41	0.02	-1.001	0.128	4.1825934	0.7448454	-0.3437748	96.29132148	2.05691922	-58.04637498
0.42	42	0.02	-1	0.127	4.1825934	1.0886202	-0.2291832	96.33142854	2.05691922	-58.03491582
0.43	43	0.017	-1	0.126	4.1825934	1.2605076	-0.1718874	96.37726518	2.05691922	-58.02345666
0.44	44	0.014	-1.002	0.128	4.1825934	1.5469866	-0.1145916	96.41737224	2.05691922	-58.00626792
0.45	45	0.011	-1.003	0.128	4.1825934	1.8907614	-0.2291832	96.4574793	2.03973048	-58.00053834
0.46	46	0.011	-1.004	0.13	4.297185	2.1772404	-0.4010706	96.50331594	2.03973048	-57.97762002
0.47	47	0.014	-1.005	0.134	4.297185	2.6356068	-0.6875496	96.54915258	2.04546006	-57.94897212
0.48	48	0.017	-1.006	0.136	4.1252976	3.2085648	-0.7448454	96.58925964	2.04546006	-57.91459464
0.49	49	0.022	-1.006	0.138	4.010706	3.5523396	-0.8021412	96.63509628	2.05118964	-57.88021716
0.5	50	0.029	-1.003	0.14	4.0680018	3.8961144	-0.6875496	96.67520334	2.05118964	-57.8401101
0.51	51	0.035	-1.001	0.14	4.1825934	4.010706	-0.4583664	96.72103998	2.05118964	-57.80000304
0.52	52	0.039	-1	0.14	4.297185	4.297185	-0.3437748	96.76687662	2.05118964	-57.7541664
0.53	53	0.042	-0.999	0.141	4.4690724	4.4690724	-0.2291832	96.81271326	2.04546006	-57.70832976
0.54	54	0.04	-0.998	0.143	4.583664	4.5263682	-0.2291832	96.8585499	2.04546006	-57.66249312
0.55	55	0.038	-0.999	0.142	4.4117766	4.5263682	-0.1718874	96.90438654	2.04546006	-57.61665648
0.56	56	0.035	-0.998	0.142	4.4690724	3.9534102	-0.2291832	96.95022318	2.03973048	-57.57654942
0.57	57	0.032	-0.997	0.146	4.583664	3.4950438	-0.5156622	97.0017894	2.03973048	-57.54217194
0.58	58	0.029	-0.997	0.151	4.6409598	2.9793816	-0.6302538	97.04762604	2.04546006	-57.50779446
0.59	59	0.029	-0.996	0.159	4.5263682	2.3491278	-0.9740286	97.09346268	2.05118964	-57.48487614
0.6	60	0.034	-0.995	0.168	4.6409598	2.1772404	-1.2032118	97.15648806	2.0626488	-57.46195782
0.61	61	0.045	-1	0.177	4.5263682	2.5210152	-1.432395	97.2023247	2.07410796	-57.43330992
0.62	62	0.053	-1.011	0.178	3.9534102	2.8074942	-1.2605076	97.24243176	2.07983754	-57.40466202
0.63	63	0.057	-1.017	0.178	3.3231564	3.0366774	-1.145916	97.27680924	2.0912967	-57.37028454
0.64	64	0.059	-1.023	0.181	2.4637194	3.0366774	-1.0886202	97.30545714	2.09702628	-57.34163664
0.65	65	0.059	-1.029	0.18	1.2605076	3.2658606	-1.3178034	97.33410504	2.12567418	-57.29007042
0.66	66	0.056	-1.034	0.177	-0.1718874	3.4950438	-1.6042824	97.33410504	2.13713334	-57.25569294
0.67	67	0.046	-1.035	0.173	-1.8907614	3.8388186	-2.0626488	97.3169163	2.15432208	-57.21558588
0.68	68	0.04	-1.034	0.171	-3.4950438	4.5263682	-2.4064236	97.28253882	2.17151082	-57.16974924
0.69	69	0.034	-1.03	0.168	-5.0420304	5.443101	-2.6356068	97.2309726	2.18869956	-57.11245344
0.7	70	0.03	-1.025	0.164	-6.7036086	6.3598338	-2.8074942	97.16794722	2.2058883	-57.04942806
0.71	71	0.029	-1.018	0.159	-8.4797784	7.5630456	-3.151269	97.08200352	2.22307704	-56.97494352
0.72	72	0.035	-1.01	0.154	-10.026765	8.4797784	-3.5523396	96.98460066	2.24599536	-56.88327024
0.73	73	0.043	-1.006	0.148	-11.172681	9.167328	-3.9534102	96.87000906	2.26891368	-56.79159696
0.74	74	0.051	-1.003	0.139	-11.9175264	9.6829902	-4.297185	96.74968788	2.29756158	-56.6941941
0.75	75	0.057	-1.005	0.13	-12.4904844	9.9121734	-4.583664	96.62363712	2.33193906	-56.59106166
0.76	76	0.063	-1.004	0.124	-12.7769634	10.4278356	-4.6409598	96.49758636	2.36631654	-56.48219964
0.77	77	0.067	-1.002	0.119	-12.7196676	10.7716104	-4.5263682	96.3715356	2.39496444	-56.37333762
0.78	78	0.07	-0.997	0.12	-12.7196676	11.2299768	-4.4117766	96.24548484	2.42361234	-56.25874602
0.79	79	0.071	-0.991	0.121	-12.7196676	11.2872726	-4.2398892	96.11943408	2.44653066	-56.14415442
0.8	80	0.068	-0.986	0.12	-13.0061466	11.45916	-4.0680018	95.99338332	2.48090814	-56.02383324
0.81	81	0.066	-0.983	0.12	-13.1207382	10.9434978	-3.7815228	95.86160298	2.50382646	-55.91497122
0.82	82	0.066	-0.979	0.124	-13.0061466	10.599723	-3.4950438	95.72982264	2.5210152	-55.81183878
0.83	83	0.068	-0.98	0.124	-12.8342592	10.3705398	-3.4950438	95.60377188	2.54393352	-55.70297676
0.84	84	0.068	-0.984	0.125	-12.5477802	10.599723	-3.6669312	95.47772112	2.56685184	-55.59984432
0.85	85	0.073	-0.988	0.128	-12.2040054	11.1153852	-3.5523396	95.36312952	2.59549974	-55.48525272
0.86	86	0.073	-0.992	0.13	-12.0894138	11.9175264	-3.2658606	95.24280834	2.61268848	-55.36493154
0.87	87	0.075	-0.994	0.133	-11.8602306	12.7196676	-2.8074942	95.12821674	2.62414764	-55.23888078
0.88	88	0.072	-0.996	0.139	-12.5477802	12.2040054	-2.1772404	95.00216598	2.62987722	-55.1185596
0.89	89	0.064	-0.999	0.148	-13.9228794	10.026765	-1.4896908	94.86465606	2.6356068	-55.02115674
0.9	90	0.055	-0.997	0.162	-15.5844576	7.5630456	-0.859437	94.72141656	2.6356068	-54.9466722
0.91	91	0.051	-0.99	0.166	-16.042824	6.2452422	-0.4010706	94.56098832	2.6356068	-54.88364682
0.92	92	0.053	-0.98	0.149	-14.896908	5.9014674	0	94.40628966	2.62414764	-54.82635102
0.93	93	0.06	-0.966	0.116	-12.032118	5.156622	0.6875496	94.28596848	2.61268848	-54.78051438
0.94	94	0.063	-0.947	0.106	-7.734933	2.3491278	1.5469866	94.21148394	2.59549974	-54.75759606
0.95	95	0.059	-0.93	0.122	-4.870143	-2.4064236	2.005353	94.17710646	2.58404058	-54.78051438
0.96	96	0.056	-0.913	0.139	-4.5263682	-6.7609044	1.7761698	94.12554024	2.57258142	-54.84926934
0.97	97	0.055	-0.903	0.145	-4.583664	-9.7975818	1.0886202	94.07397402	2.57258142	-54.9466722
0.98	98	0.052	-0.893	0.145	-3.9534102	-12.4331886	0	94.03386696	2.58404058	-55.07272296
0.99	99	0.044	-0.894	0.146	-2.578311	-14.2666542	-1.3750992	93.99948948	2.61268848	-55.21023288
1	100	0.039	-0.903	0.146	-1.432395	-15.9282324	-3.2658606	93.9937599	2.65852512	-55.36493154
1.01	101	0.033	-0.92	0.154	-1.0886202	-16.7876694	-4.9847346	93.97657116	2.7215505	-55.53108936
1.02	102	0.029	-0.94	0.166	-1.2605076	-17.0741484	-6.4171296	93.95938242	2.80176462	-55.6915176
1.03	103	0.026	-0.964	0.176	-1.2032118	-16.7876694	-7.448454	93.9364641	2.8934379	-55.85194584
1.04	104	0.03	-0.995	0.177	-1.0313244	-16.042824	-7.5057498	93.92500494	2.98511118	-56.0066445
1.05	105	0.036	-1.025	0.176	-0.6875496	-15.6417534	-7.1046792	93.92500494	3.0653253	-56.16134316
1.06	106	0.046	-1.054	0.176	-0.1145916	-15.6990492	-6.2452422	93.91927536	3.13980984	-56.31031224
1.07	107	0.052	-1.079	0.173	0.4583664	-16.5011904	-5.0420304	93.91354578	3.2085648	-56.47074048
1.08	108	0.052	-1.096	0.169	1.0886202	-17.6471064	-3.437748	93.91927536	3.26013102	-56.64262788
1.09	109	0.047	-1.1	0.165	1.8334656	-18.621135	-1.718874	93.93073452	3.2945085	-56.82597444
1.1	110	0.03	-1.087	0.16	2.5210152	-19.194093	-0.1145916	93.95938242	3.30596766	-57.02078016
1.11	111	0.009	-1.061	0.161	3.2658606	-19.480572	0.859437	93.98230074	3.31169724	-57.2098563
1.12	112	-0.01	-1.028	0.168	3.437748	-19.194093	1.0313244	94.01094864	3.3231564	-57.40466202
1.13	113	-0.025	-0.994	0.172	3.0366774	-18.1627686	0.5156622	94.03386696	3.33461556	-57.582279
1.14	114	-0.032	-0.967	0.176	2.3491278	-16.902261	-0.1718874	94.0510557	3.3518043	-57.74843682
1.15	115	-0.036	-0.949	0.182	1.432395	-15.469866	-0.6302538	94.09116276	3.34034514	-57.92032422
1.16	116	-0.038	-0.94	0.188	0.5156622	-14.0947668	-0.6302538	94.08543318	3.36326346	-58.06356372
1.17	117	-0.037	-0.942	0.202	-0.1718874	-12.2613012	-0.1718874	94.0797036	3.37472262	-58.1838849
1.18	118	-0.034	-0.947	0.217	-0.572958	-9.8548776	0.572958	94.06824444	3.3804522	-58.28128776
1.19	119	-0.03	-0.961	0.231	-0.0572958	-6.875496	1.3750992	94.06824444	3.36899304	-58.35004272
1.2	120	-0.022	-0.982	0.248	0.6875496	-3.8388186	2.291832	94.20002478	3.27159018	-58.44744558
1.21	121	-0.016	-1.008	0.258	0.4010706	-1.9480572	3.3804522	94.20575436	3.2372127	-58.4703639
1.22	122	-0.007	-1.033	0.248	-0.8021412	-1.4896908	4.9847346	94.1942952	3.19137606	-58.48755264
1.23	123	0.007	-1.055	0.228	-2.4637194	-2.578311	6.7609044	94.1656473	3.1226211	-58.52193012
1.24	124	0.021	-1.065	0.198	-3.6669312	-4.4117766	8.2505952	94.12554024	3.04813656	-58.56776676
1.25	125	0.031	-1.057	0.177	-4.4690724	-6.9900876	9.167328	94.09689234	2.95646328	-58.65371046
1.26	126	0.035	-1.029	0.162	-4.8128472	-9.2819196	9.2246238	94.03959654	2.87051958	-58.75111332
1.27	127	0.031	-0.993	0.155	-5.0420304	-11.0007936	8.4797784	93.98803032	2.80176462	-58.86570492
1.28	128	0.022	-0.955	0.152	-4.7555514	-12.1467096	7.161975	93.9364641	2.73873924	-58.99175568
1.29	129	0.009	-0.924	0.151	-4.5263682	-12.4904844	6.016059	93.88489788	2.6929026	-59.11780644
1.3	130	-0.007	-0.908	0.152	-4.4690724	-12.2040054	5.0993262	93.8505204	2.6356068	-59.25531636
1.31	131	-0.023	-0.905	0.154	-5.0420304	-11.1153852	4.5263682	93.7932246	2.60122932	-59.36990796
1.32	132	-0.04	-0.908	0.152	-5.443101	-9.2819196	4.1825934	93.7359288	2.56685184	-59.46158124
1.33	133	-0.052	-0.921	0.15	-5.2139178	-7.1046792	4.1252976	93.68436258	2.53247436	-59.53606578
1.34	134	-0.065	-0.931	0.155	-4.3544808	-5.0420304	3.8961144	93.63279636	2.49809688	-59.587632
1.35	135	-0.075	-0.935	0.168	-3.151269	-2.6929026	3.437748	93.66144426	2.3777757	-59.6735757
1.36	136	-0.078	-0.934	0.18	-2.1772404	-0.286479	2.7501984	93.64425552	2.3491278	-59.67930528
1.37	137	-0.078	-0.929	0.195	-1.432395	1.9480572	1.718874	93.62706678	2.33193906	-59.66211654
1.38	138	-0.081	-0.919	0.214	-0.3437748	4.0680018	0.572958	93.62706678	2.3204799	-59.62200948
1.39	139	-0.083	-0.914	0.23	0.286479	6.5317212	-0.3437748	93.62706678	2.3204799	-59.55325452
1.4	140	-0.09	-0.916	0.246	0.4010706	9.5111028	-1.0886202	93.71301048	2.25172494	-59.50741788
1.41	141	-0.089	-0.922	0.257	0	12.605076	-1.5469866	93.71301048	2.25745452	-59.38136712
1.42	142	-0.09	-0.936	0.266	0.1718874	15.2979786	-1.8334656	93.72446964	2.25745452	-59.22666846
1.43	143	-0.085	-0.951	0.278	0	18.6784308	-2.005353	93.72446964	2.2631841	-59.0433219
1.44	144	-0.088	-0.968	0.29	-0.0572958	21.2567418	-2.4064236	93.73019922	2.26891368	-58.83132744
1.45	145	-0.087	-0.979	0.304	0.0572958	23.491278	-2.5210152	93.78176544	2.24026578	-58.61933298
1.46	146	-0.085	-0.998	0.315	-0.2291832	25.6112226	-2.6929026	93.78749502	2.24026578	-58.36723146
1.47	147	-0.074	-1.011	0.326	-1.2032118	27.788463	-2.9793816	93.78176544	2.24599536	-58.08648204
1.48	148	-0.058	-1.024	0.327	-1.9480572	29.5646328	-3.3804522	93.77030628	2.25172494	-57.79427346
1.49	149	-0.044	-1.032	0.324	-2.6929026	30.7678446	-4.0680018	93.74738796	2.2631841	-57.49060572
1.5	150	-0.027	-1.043	0.317	-3.724227	31.6272816	-5.156622	93.74738796	2.27464326	-57.1812084
1.51	151	-0.02	-1.041	0.316	-5.6722842	33.0596766	-7.161975	93.69582174	2.31475032	-56.85462234
1.52	152	-0.033	-1.039	0.307	-7.5057498	34.4347758	-9.2819196	93.62706678	2.3777757	-56.51084754
1.53	153	-0.043	-1.038	0.306	-8.9954406	35.809875	-10.9434978	93.54685266	2.45226024	-56.149884
1.54	154	-0.07	-1.032	0.298	-10.6570188	37.7006364	-12.605076	93.4494498	2.54393352	-55.77173172
1.55	155	-0.09	-1.023	0.286	-11.2872726	39.6486936	-13.8082878	93.3635061	2.62987722	-55.38212028
1.56	156	-0.109	-1.003	0.29	-11.172681	41.4821592	-15.0114996	93.26610324	2.74446882	-54.96386094
1.57	157	-0.126	-0.985	0.32	-10.1413566	43.1437374	-16.4438946	93.18015954	2.87051958	-54.53414244
1.58	158	-0.132	-0.98	0.375	-8.0787078	45.550161	-17.8762896	93.11140458	3.0080295	-54.07577604
1.59	159	-0.124	-1.009	0.39	-8.7662574	49.4462754	-18.9649098	93.04264962	3.15699858	-53.57730258
1.6	160	-0.091	-1.173	0.263	-18.9649098	52.2537696	-17.6471064	92.8764918	3.28877892	-53.0559108
1.61	161	0.062	-1.288	0.198	-32.4867186	53.7434604	-11.0580894	92.57282406	3.3518043	-52.52305986
1.62	162	0.249	-1.419	-0.097	-38.0444112	25.78311	-0.6302538	92.19467178	3.34034514	-52.27095834
1.63	163	0.442	-1.509	-0.191	-21.485925	-9.2246238	7.734933	91.97121816	3.2658606	-52.3683612
1.64	164	0.549	-1.556	-0.019	-5.0993262	-23.4339822	7.9641162	91.90819278	3.20283522	-52.60327398
1.65	165	0.455	-1.413	0.205	-5.5003968	-21.9442914	1.8907614	91.85089698	3.2085648	-52.81526844
1.66	166	0.232	-1.233	0.273	-11.6310474	-22.4599536	-4.6982556	91.72484622	3.2658606	-53.03872206
1.67	167	0.012	-1.134	0.216	-14.896908	-19.0795014	-8.7662574	91.56441798	3.36326346	-53.22206862
1.68	168	-0.131	-1.155	0.159	-11.2299768	-12.032118	-6.0733548	91.4440968	3.43201842	-53.3423898
1.69	169	-0.182	-1.252	0.093	-11.6883432	-8.9381448	-1.2032118	91.31804604	3.44347758	-53.43406308
1.7	170	-0.152	-1.32	0.012	-20.6837838	-4.7555514	1.5469866	91.10605158	3.42055926	-53.49135888
1.71	171	-0.093	-1.362	-0.087	-30.2521824	6.9900876	2.6929026	90.80238384	3.38618178	-53.42260392
1.72	172	-0.006	-1.332	-0.198	-37.1849742	19.5951636	3.2658606	90.42996114	3.34607472	-53.23352778
1.73	173	0.109	-1.269	-0.283	-37.8725238	26.0122932	2.86479	90.05753844	3.30596766	-52.98142626
1.74	174	0.226	-1.152	-0.284	-34.0337052	23.6058696	1.432395	89.7252228	3.28304934	-52.75224306
1.75	175	0.248	-1.008	-0.279	-27.6165756	17.1314442	0.4010706	89.4100959	3.30596766	-52.56316692
1.76	176	0.21	-0.869	-0.245	-20.912967	12.0894138	0.6875496	89.20383102	3.2945085	-52.44284574
1.77	177	0.139	-0.771	-0.221	-14.610429	6.016059	2.3491278	89.05486194	3.27159018	-52.38554994
1.78	178	0.077	-0.725	-0.171	-12.032118	1.145916	4.0680018	88.93454076	3.22575354	-52.37409078
1.79	179	0.04	-0.735	-0.117	-12.2040054	-3.3804522	5.9587632	88.80849	3.16845774	-52.40846826
1.8	180	0.012	-0.781	-0.112	-13.750992	-6.9900876	7.7922288	88.64806176	3.08251404	-52.4829528
1.81	181	0.019	-0.869	-0.136	-15.2406828	-8.021412	8.880849	88.4933631	2.99657034	-52.55743734
1.82	182	0.064	-0.969	-0.157	-16.2720072	-7.2192708	7.734933	88.32720528	2.91635622	-52.63192188
1.83	183	0.121	-1.048	-0.145	-15.4125702	-5.2139178	3.151269	88.16677704	2.88197874	-52.6834881
1.84	184	0.149	-1.073	-0.132	-15.2979786	-2.86479	-2.1772404	88.01207838	2.90489706	-52.71786558
1.85	185	0.155	-1.059	-0.111	-14.9542038	-0.2291832	-7.7922288	87.84019098	3.0080295	-52.70640642
1.86	186	0.124	-1.017	-0.095	-13.9801752	1.432395	-12.6623718	87.69695148	3.13408026	-52.70067684
1.87	187	0.085	-0.976	-0.085	-12.318597	4.297185	-16.7876694	87.57090072	3.30023808	-52.66629936
1.88	188	0.048	-0.93	-0.074	-11.6310474	8.8235532	-19.2513888	87.45630912	3.48931422	-52.58608524
1.89	189	0.03	-0.882	-0.06	-11.6883432	14.32395	-19.194093	87.34171752	3.68411994	-52.4543049
1.9	190	0.031	-0.839	-0.049	-12.2613012	19.0222056	-17.18874	87.22712592	3.85027776	-52.27668792
1.91	191	0.04	-0.8	-0.036	-13.1207382	22.2307704	-13.750992	87.10107516	3.99351726	-52.06469346
1.92	192	0.056	-0.782	-0.029	-13.8082878	22.7464326	-10.4851314	86.9750244	4.10237928	-51.84123984
1.93	193	0.083	-0.765	-0.031	-15.1260912	22.8610242	-7.734933	86.8317849	4.1825934	-51.6235158
1.94	194	0.12	-0.757	-0.027	-15.8709366	21.6578124	-6.016059	86.68281582	4.24561878	-51.41152134
1.95	195	0.143	-0.761	-0.014	-14.7823164	18.907614	-5.3858052	86.5453059	4.32010332	-51.2224452
1.96	196	0.173	-0.775	-0.002	-14.2093584	15.4125702	-5.72958	86.41352556	4.3831287	-51.07347612
1.97	197	0.196	-0.799	-0.007	-14.32395	13.0634424	-7.2765666	86.27601564	4.45761324	-50.95315494
1.98	198	0.209	-0.851	-0.005	-13.4072172	11.1153852	-8.0787078	86.1442353	4.53782736	-50.84429292
1.99	199	0.204	-0.9	0.001	-14.8396122	8.2505952	-7.448454	85.99526622	4.61804148	-50.76980838
2	200	0.192	-0.921	0.021	-15.0114996	6.4171296	-6.9900876	85.86348588	4.71544434	-50.70105342
2.01	201	0.171	-0.937	0.041	-14.1520626	4.0680018	-6.5317212	85.72024638	4.7841993	-50.66094636
2.02	202	0.143	-0.936	0.054	-13.178034	2.1772404	-5.9587632	85.58846604	4.8414951	-50.6494872
2.03	203	0.122	-0.931	0.058	-12.9488508	0.4583664	-4.2398892	85.4566857	4.88160216	-50.6494872
2.04	204	0.107	-0.903	0.051	-13.4072172	-1.718874	-2.005353	85.31917578	4.8987909	-50.66667594
2.05	205	0.099	-0.873	0.054	-11.5164558	-4.5263682	0.286479	85.22177292	4.90452048	-50.706783
2.06	206	0.108	-0.861	0.057	-8.7089616	-8.1360036	2.005353	85.13009964	4.88160216	-50.78699712
2.07	207	0.124	-0.861	0.051	-6.1306506	-12.6623718	2.86479	85.0556151	4.8414951	-50.91304788
2.08	208	0.143	-0.855	0.048	-3.6669312	-15.8709366	3.4950438	85.00977846	4.80138804	-51.06774654
2.09	209	0.159	-0.846	0.045	-0.0572958	-20.2827132	3.0366774	84.99258972	4.7555514	-51.26828184
2.1	210	0.161	-0.852	0.058	4.583664	-24.7517856	2.8074942	85.04415594	4.73263308	-51.50319462
2.11	211	0.161	-0.872	0.067	8.1360036	-28.8197874	3.0939732	85.10718132	4.68679644	-51.78394404
2.12	212	0.176	-0.864	0.089	7.9068204	-32.3148312	3.437748	85.16447712	4.63523022	-52.09907094
2.13	213	0.157	-0.894	0.122	12.3758928	-36.2682414	2.6356068	85.26760956	4.58939358	-52.4543049
2.14	214	0.153	-0.935	0.162	15.4125702	-40.7946096	1.8907614	85.39366032	4.54928652	-52.8553755
2.15	215	0.156	-0.993	0.204	18.334656	-46.2950064	0.8021412	85.57700688	4.5263682	-53.30801232
2.16	216	0.169	-1.052	0.234	18.7930224	-49.847346	-0.1718874	85.73743512	4.50917946	-53.8007562
2.17	217	0.171	-1.112	0.262	19.3086846	-51.7954032	-1.2032118	85.89786336	4.4977203	-54.31068882
2.18	218	0.172	-1.17	0.3	18.6784308	-54.3164184	-1.7761698	86.05256202	4.4977203	-54.84926934
2.19	219	0.182	-1.22	0.319	15.469866	-57.3530958	-1.2032118	86.1728832	4.48626114	-55.41649776
2.2	220	0.207	-1.262	0.312	9.9121734	-60.16059	0.6875496	86.24736774	4.46334282	-56.01237408
2.21	221	0.227	-1.298	0.291	4.6982556	-63.4264506	4.6409598	86.2588269	4.39458786	-56.6368983
2.22	222	0.25	-1.355	0.25	0.6302538	-66.9787902	9.167328	86.22444942	4.27999626	-57.2958
2.23	223	0.243	-1.373	0.195	-5.2139178	-69.7289886	14.037471	86.13277614	4.10810886	-57.97762002
2.24	224	0.21	-1.365	0.145	-7.5057498	-68.6403684	16.1001198	86.01818454	3.9247623	-58.64798088
2.25	225	0.139	-1.365	0.121	-8.4224826	-63.9421128	15.0114996	85.90359294	3.74714532	-59.2725051
2.26	226	0.058	-1.359	0.137	-12.3758928	-54.4883058	11.0580894	85.74889428	3.6096354	-59.80535604
2.27	227	-0.019	-1.34	0.159	-19.5951636	-39.9351726	5.3285094	85.53117024	3.53515086	-60.19496748
2.28	228	-0.071	-1.29	0.161	-27.3873924	-25.3247436	0.1718874	85.23896166	3.51796212	-60.45279858
2.29	229	-0.079	-1.207	0.099	-32.7159018	-11.9748222	-1.8334656	84.90091644	3.52942128	-60.57311976
2.3	230	-0.015	-1.084	-0.067	-31.5699858	-4.3544808	-0.286479	84.5686008	3.51796212	-60.62468598
2.31	231	0.05	-0.99	-0.174	-20.912967	-7.5630456	4.4117766	84.35660634	3.4663959	-60.69344094
2.32	232	0.077	-0.919	-0.223	-12.7769634	-15.2979786	8.2505952	84.21909642	3.37472262	-60.84241002
2.33	233	0.077	-0.876	-0.26	-8.5370742	-24.1788276	10.0840608	84.12169356	3.25440144	-61.07159322
2.34	234	0.067	-0.843	-0.255	-8.0787078	-31.1116194	10.026765	84.03002028	3.13408026	-61.36953138
2.35	235	0.062	-0.813	-0.266	-7.734933	-31.0543236	7.7922288	83.9096991	3.0366774	-61.66173996
2.36	236	0.038	-0.761	-0.297	-5.8441716	-28.934379	5.0420304	83.83521456	2.96219286	-61.94248938
2.37	237	0.022	-0.699	-0.31	-4.2398892	-25.7258142	2.578311	83.78364834	2.91635622	-62.1945909
2.38	238	0.01	-0.66	-0.336	-2.5210152	-22.1734746	0.5156622	83.74927086	2.8934379	-62.41231494
2.39	239	0.007	-0.675	-0.392	-2.1772404	-18.7357266	-1.145916	83.72062296	2.88770832	-62.60139108
2.4	240	-0.02	-0.742	-0.441	-2.5210152	-14.3812458	-3.5523396	83.57738346	2.89916748	-62.73317142
2.41	241	-0.08	-0.871	-0.516	-3.724227	-7.3338624	-6.875496	83.5372764	2.96219286	-62.81338554
2.42	242	-0.165	-1.027	-0.591	-5.3858052	2.2345362	-11.9175264	83.4799806	3.08251404	-62.80765596
2.43	243	-0.258	-1.156	-0.592	-5.2712136	12.4331886	-18.334656	83.42841438	3.27159018	-62.70452352
2.44	244	-0.306	-1.227	-0.513	-2.2345362	21.3713334	-24.5798982	83.41695522	3.53515086	-62.52117696
2.45	245	-0.268	-1.218	-0.396	-0.1718874	24.923673	-27.1009134	83.41122564	3.80444112	-62.3091825
2.46	246	-0.159	-1.189	-0.319	1.3750992	25.9549974	-23.1475032	83.43987354	4.05081306	-62.0799993
2.47	247	0.003	-1.193	-0.314	2.0626488	25.3247436	-16.2720072	83.47425102	4.23415962	-61.8508161
2.48	248	0.161	-1.217	-0.318	4.9847346	20.7410796	-8.1360036	83.5372764	4.33729206	-61.6502808
2.49	249	0.275	-1.25	-0.289	9.6829902	15.2406828	-0.0572958	83.64040884	4.34875122	-61.50131172
2.5	250	0.317	-1.274	-0.226	14.610429	9.9694692	6.0733548	83.78937792	4.31437374	-61.38672012
2.51	251	0.303	-1.253	-0.205	14.7823164	5.0993262	8.9381448	83.94407658	4.23415962	-61.32369474
2.52	252	0.219	-1.19	-0.181	14.7250206	-0.2291832	9.3392154	84.09877524	4.14248634	-61.31796516
2.53	253	0.143	-1.114	-0.156	13.750992	-4.8128472	7.5630456	84.23628516	4.06227222	-61.35234264
2.54	254	0.049	-1.043	-0.13	12.0894138	-7.448454	4.0680018	84.35087676	4.02216516	-61.4210976
2.55	255	-0.003	-0.989	-0.11	13.0634424	-7.734933	0.7448454	84.47119794	3.9820581	-61.5070413
2.56	256	-0.036	-0.949	-0.096	12.891555	-5.9587632	-2.4064236	84.60297828	3.99924684	-61.57006668
2.57	257	-0.074	-0.918	-0.096	11.5737516	-3.4950438	-4.3544808	84.71756988	4.04508348	-61.60444416
2.58	258	-0.108	-0.893	-0.087	10.3705398	0.1145916	-5.3858052	84.82070232	4.0966497	-61.61017374
2.59	259	-0.131	-0.863	-0.067	10.2559482	4.870143	-5.7868758	84.92956434	4.15967508	-61.5643371
2.6	260	-0.149	-0.834	-0.047	10.599723	10.7143146	-5.5003968	85.04415594	4.17686382	-61.4783934
2.61	261	-0.178	-0.835	-0.034	11.4018642	16.2147114	-4.5263682	85.1702067	4.22843004	-61.32369474
2.62	262	-0.203	-0.852	-0.032	13.8655836	21.8296998	-3.2658606	85.32490536	4.27426668	-61.1059707
2.63	263	-0.155	-0.854	-0.033	14.0947668	29.793816	-2.0626488	85.4853336	4.31437374	-60.81376212
2.64	264	-0.106	-0.864	-0.015	14.9542038	36.0390582	-0.6875496	85.66295058	4.34302164	-60.45279858
2.65	265	-0.086	-0.853	-0.001	15.8709366	41.6540466	1.0886202	85.85202672	4.33156248	-60.0459984
2.66	266	-0.059	-0.837	0.015	17.4179232	45.9512316	2.9793816	86.0582916	4.32010332	-59.587632
2.67	267	-0.012	-0.812	0.023	18.907614	48.987909	4.8128472	86.28174522	4.297185	-59.09488812
2.68	268	0.02	-0.787	0.032	19.1367972	51.9099948	5.9587632	86.51092842	4.25707794	-58.57349634
2.69	269	0.053	-0.763	0.035	18.3919518	54.0299394	5.6722842	86.72865246	4.21697088	-58.03491582
2.7	270	0.084	-0.742	0.03	15.2979786	54.7747848	2.7501984	86.92345818	4.2112413	-57.49060572
2.71	271	0.082	-0.72	0.019	11.172681	53.858052	-0.4583664	87.06669768	4.22843004	-56.9520252
2.72	272	0.087	-0.722	0.015	8.6516658	51.4516284	-2.86479	87.18701886	4.2685371	-56.44209258
2.73	273	0.084	-0.73	0.013	4.9274388	48.0138804	-4.9847346	87.26723298	4.3258329	-55.96653744
2.74	274	0.057	-0.752	0.009	0	45.7220484	-6.3598338	87.29588088	4.40031744	-55.5196302
2.75	275	0.034	-0.786	-0.008	-4.9847346	44.5761324	-6.6463128	87.27296256	4.4690724	-55.08418212
2.76	276	0.005	-0.832	-0.043	-8.1360036	45.7220484	-5.9587632	87.21566676	4.53782736	-54.6315453
2.77	277	-0.015	-0.873	-0.069	-7.7922288	48.0138804	-3.8388186	87.16983012	4.583664	-54.15599016
2.78	278	-0.031	-0.896	-0.064	-4.4690724	49.3316838	-1.3750992	87.15264138	4.6123119	-53.66897586
2.79	279	-0.051	-0.902	-0.006	2.4064236	48.8160216	1.9480572	87.21566676	4.60085274	-53.18196156
2.8	280	-0.026	-0.867	0.072	6.9327918	47.2117392	4.010706	87.33025836	4.56074568	-52.71786558
2.81	281	0.006	-0.84	0.189	10.599723	46.3523022	4.9274388	87.46776828	4.52063862	-52.2537696
2.82	282	0.044	-0.814	0.309	12.3758928	49.2170922	5.5003968	87.62819652	4.47480198	-51.76102572
2.83	283	0.123	-0.795	0.382	16.5011904	51.1078536	7.734933	87.82873182	4.40604702	-51.2510931
2.84	284	0.142	-0.825	0.479	20.2827132	50.993262	13.2353298	88.0636446	4.27999626	-50.74116048
2.85	285	0.115	-0.866	0.522	20.340009	46.123119	17.0741484	88.34439402	4.11383844	-50.27133492
2.86	286	0.093	-0.948	0.527	18.6784308	38.388186	20.5118964	88.55638848	3.91330314	-49.88172348
2.87	287	0.067	-1.079	0.527	14.037471	31.6845774	21.9442914	88.71681672	3.6955791	-49.560867
2.88	288	0.037	-1.199	0.529	5.0993262	33.5753388	20.1681216	88.78557168	3.4950438	-49.22855136
2.89	289	0.007	-1.313	0.481	-4.4117766	35.6952834	16.1001198	88.75692378	3.32888598	-48.86758782
2.9	290	-0.007	-1.467	0.355	-15.6417534	31.3408026	11.2872726	88.61941386	3.21429438	-48.5581905
2.91	291	0.026	-1.583	0.174	-28.7624916	20.340009	6.589017	88.33293486	3.14553942	-48.3576552
2.92	292	0.158	-1.679	-0.04	-30.1375908	4.4117766	5.6722842	88.02926712	3.08824362	-48.31754814
2.93	293	0.384	-1.724	-0.206	-22.9756158	-16.2720072	8.9954406	87.78862476	2.99084076	-48.47797638
2.94	294	0.587	-1.665	-0.268	-13.0634424	-31.1689152	12.032118	87.64538526	2.87051958	-48.78164412
2.95	295	0.64	-1.513	-0.267	-9.1100322	-38.5027776	11.0007936	87.53652324	2.76738714	-49.15406682
2.96	296	0.561	-1.338	-0.262	-14.4958374	-43.0864416	3.9534102	87.376095	2.71582092	-49.58378532
2.97	297	0.367	-1.225	-0.277	-16.5584862	-47.0398518	-3.8961144	87.18701886	2.74446882	-50.05361088
2.98	298	0.179	-1.21	-0.293	-14.5531332	-53.1132066	-11.9748222	87.02086104	2.85333084	-50.58646182
2.99	299	0.036	-1.215	-0.312	-11.2299768	-55.4623344	-17.6471064	86.8890807	3.01375908	-51.14223108
3	300	-0.054	-1.247	-0.302	-7.448454	-57.582279	-20.7410796	86.7744891	3.19710564	-51.72664824
3.01	301	-0.134	-1.261	-0.31	-3.4950438	-57.009321	-22.058883	86.7171933	3.39764094	-52.30533582
3.02	302	-0.206	-1.255	-0.28	1.432395	-50.5348956	-21.0275586	86.70573414	3.59244666	-52.81526844
3.03	303	-0.262	-1.228	-0.289	3.151269	-37.2995658	-16.4438946	86.7171933	3.74714532	-53.19342072
3.04	304	-0.272	-1.147	-0.327	2.2345362	-26.8717302	-9.740286	86.72865246	3.83308902	-53.46844056
3.05	305	-0.242	-1.037	-0.319	0.0572958	-20.7410796	-3.7815228	86.64270876	3.77579322	-53.70335334
3.06	306	-0.184	-0.938	-0.294	-2.4637194	-17.3033316	-0.572958	86.60833128	3.77579322	-53.88097032
3.07	307	-0.129	-0.872	-0.292	-5.3858052	-15.183387	0.9167328	86.5453059	3.75860448	-54.0299394
3.08	308	-0.059	-0.84	-0.315	-8.880849	-11.5737516	1.7761698	86.44790304	3.73568616	-54.144531
3.09	309	0.015	-0.863	-0.322	-11.5164558	-6.4171296	2.1772404	86.32758186	3.71276784	-54.20755638
3.1	310	0.068	-0.937	-0.311	-11.9748222	-1.3750992	2.1772404	86.08120992	3.70130868	-54.20755638
3.11	311	0.072	-1.008	-0.285	-11.745639	3.8388186	1.8334656	85.96661832	3.68411994	-54.16744932
3.12	312	0.068	-1.033	-0.272	-11.6883432	6.6463128	0.5156622	85.85202672	3.68411994	-54.10442394
3.13	313	0.047	-1.019	-0.248	-9.453807	6.7609044	-1.8334656	85.75462386	3.70130868	-54.04139856
3.14	314	0.036	-0.971	-0.227	-7.5630456	6.1306506	-4.297185	85.68013932	3.74714532	-53.98410276
3.15	315	0.045	-0.916	-0.215	-7.6776372	6.1306506	-6.1879464	85.55408856	3.8101707	-53.92680696
3.16	316	0.058	-0.851	-0.191	-7.8495246	6.4171296	-7.5630456	85.47960402	3.89038482	-53.86951116
3.17	317	0.106	-0.81	-0.167	-5.3858052	6.302538	-9.9121734	85.4280378	3.98778768	-53.81221536
3.18	318	0.152	-0.783	-0.158	-2.291832	4.8128472	-12.318597	85.40511948	4.11383844	-53.77783788
3.19	319	0.192	-0.752	-0.157	-0.2291832	1.2605076	-13.2353298	85.40511948	4.24561878	-53.7721083
3.2	320	0.232	-0.727	-0.158	1.8334656	-3.6096354	-12.7196676	85.39366032	4.41750618	-53.8007562
3.21	321	0.255	-0.721	-0.156	5.2139178	-10.7716104	-10.3705398	85.43949696	4.51490904	-53.9153478
3.22	322	0.257	-0.709	-0.151	9.9121734	-18.334656	-6.589017	85.52544066	4.57220484	-54.09869436
3.23	323	0.256	-0.708	-0.131	16.1001198	-24.9809688	-2.578311	85.67440974	4.583664	-54.3450663
3.24	324	0.295	-0.773	-0.112	20.340009	-31.8564648	1.0313244	85.86348588	4.56074568	-54.6601932
3.25	325	0.275	-0.815	-0.053	21.5432208	-39.534102	4.1825934	86.0582916	4.53209778	-55.03834548
3.26	326	0.224	-0.883	0.015	23.3193906	-47.9565846	4.1252976	86.26455648	4.47480198	-55.50817104
3.27	327	0.191	-0.934	0.05	21.0275586	-52.4829528	3.5523396	86.44217346	4.41750618	-56.02383324
3.28	328	0.151	-0.965	0.055	21.0848544	-52.7694318	2.7501984	86.62552002	4.37739912	-56.54522502
3.29	329	0.11	-0.977	0.059	20.8556712	-51.3943326	-1.6042824	86.803137	4.37739912	-57.04942806
3.3	330	0.064	-0.975	0.082	22.9756158	-47.4409224	-4.5263682	87.02086104	4.4117766	-57.5249832
3.31	331	-0.001	-0.959	0.097	22.8037284	-42.2843004	-5.7868758	87.22712592	4.46334282	-57.94324254
3.32	332	-0.034	-0.964	0.124	20.1681216	-36.4401288	-7.9068204	87.41047248	4.53782736	-58.30420608
3.33	333	-0.055	-0.933	0.131	14.8396122	-29.6219286	-10.2559482	87.53652324	4.63523022	-58.60214424
3.34	334	-0.073	-0.909	0.121	8.1360036	-21.8296998	-11.6310474	87.6052782	4.74982182	-58.81986828
3.35	335	-0.077	-0.912	0.091	2.3491278	-13.5218088	-11.9175264	87.65111484	4.8128472	-58.98029652
3.36	336	-0.048	-0.91	0.046	-2.86479	-8.4797784	-11.2299768	87.61100778	4.92170922	-59.06624022
3.37	337	0.011	-0.926	-0.021	-7.5057498	-5.5003968	-9.2246238	87.53079366	5.0133825	-59.1292656
3.38	338	0.083	-0.939	-0.078	-9.5683986	-5.2139178	-6.6463128	87.42766122	5.07640788	-59.1865614
3.39	339	0.132	-0.913	-0.059	-5.3285094	-8.5370742	-3.7815228	87.37036542	5.11651494	-59.2725051
3.4	340	0.131	-0.887	0.073	4.6982556	-17.9335854	-2.291832	87.4333908	5.15089242	-59.4443925
3.41	341	0.146	-0.859	0.229	6.9900876	-30.5386614	-3.6096354	87.48495702	5.17954032	-59.74806024
3.42	342	0.142	-0.811	0.35	0.6302538	-43.7166954	-7.3338624	87.45630912	5.24829528	-60.1892379
3.43	343	0.183	-0.717	0.421	-0.4010706	-53.571573	-10.8289062	87.41047248	5.34569814	-60.72208884
3.44	344	0.204	-0.739	0.447	7.3911582	-56.4936588	-14.8396122	87.43912038	5.48320806	-61.28931726
3.45	345	0.213	-0.845	0.466	12.3758928	-56.5509546	-18.2773602	87.55371198	5.66655462	-61.85654568
3.46	346	0.208	-0.994	0.487	9.6256944	-55.1758554	-18.2200644	87.6052782	5.83844202	-62.41231494
3.47	347	0.19	-1.124	0.481	0.6875496	-55.6342218	-13.8655836	87.55944156	5.97022236	-62.9680842
3.48	348	0.172	-1.215	0.406	-10.599723	-56.8947294	-6.9900876	87.4047429	6.02751816	-63.53531262
3.49	349	0.164	-1.314	0.266	-20.340009	-55.4050386	0.859437	87.1469118	6.01032942	-64.09108188
3.5	350	0.14	-1.393	0.141	-25.6112226	-47.7846972	8.0787078	86.84897364	5.91292656	-64.56663702
3.51	351	0.057	-1.494	-0.005	-26.8144344	-25.6685184	10.8289062	86.55103548	5.79260538	-64.81873854
3.52	352	-0.08	-1.564	-0.099	-22.8037284	2.8074942	6.4744254	86.32185228	5.72958	-64.79009064
3.53	353	-0.222	-1.553	-0.157	-14.7250206	19.0222056	0.3437748	86.19007194	5.72958	-64.6010145
3.54	354	-0.324	-1.434	-0.271	-6.7036086	21.6005166	-1.8334656	86.13850572	5.7582279	-64.38902004
3.55	355	-0.363	-1.286	-0.348	-0.7448454	15.5271618	1.718874	86.12131698	5.70666168	-64.24578054
3.56	356	-0.31	-1.134	-0.334	1.145916	9.453807	8.880849	86.1442353	5.62071798	-64.1426481
3.57	357	-0.147	-1.06	-0.329	0.1718874	6.0733548	17.18874	86.15569446	5.44883058	-64.07389314
3.58	358	0.005	-1.074	-0.296	4.9847346	5.156622	21.6005166	86.20726068	5.23683612	-64.00513818
3.59	359	0.163	-1.162	-0.298	11.9175264	6.4171296	21.485925	86.33904102	5.03057124	-63.93065364
3.6	360	0.273	-1.218	-0.292	13.2353298	6.0733548	18.7357266	86.4593622	4.86441342	-63.84470994
3.61	361	0.349	-1.217	-0.302	13.0634424	2.3491278	16.615782	86.59687212	4.70398518	-63.81033246
3.62	362	0.386	-1.16	-0.324	12.605076	-4.297185	14.2093584	86.72292288	4.56074568	-63.84470994
3.63	363	0.355	-1.065	-0.335	13.178034	-8.880849	9.9121734	86.84897364	4.46334282	-63.92492406
3.64	364	0.26	-0.96	-0.318	14.7250206	-10.1986524	4.4117766	86.99221314	4.41750618	-64.0280565
3.65	365	0.12	-0.862	-0.263	15.8136408	-9.8548776	-1.0886202	87.09534558	4.42896534	-64.1140002
3.66	366	-0.007	-0.811	-0.232	11.3445684	-6.4171296	-5.7868758	87.20993718	4.48626114	-64.18275516
3.67	367	-0.12	-0.806	-0.244	5.8441716	0.1718874	-10.1413566	87.26723298	4.58939358	-64.18275516
3.68	368	-0.154	-0.834	-0.265	4.5263682	6.0733548	-14.5531332	87.3187992	4.73263308	-64.12545936
3.69	369	-0.133	-0.916	-0.266	4.2398892	10.5424272	-17.6471064	87.36463584	4.91025006	-64.0280565
3.7	370	-0.072	-1	-0.256	4.6982556	13.6936962	-16.4438946	87.376095	5.04775998	-63.90773532
3.71	371	0.009	-1.073	-0.213	5.443101	14.6677248	-12.5477802	87.44484996	5.17954032	-63.76449582
3.72	372	0.1	-1.121	-0.174	7.5630456	13.464513	-6.6463128	87.53079366	5.24829528	-63.63271548
3.73	373	0.153	-1.116	-0.129	9.2819196	11.0007936	0.0572958	87.6339261	5.24829528	-63.52385346
3.74	374	0.171	-1.077	-0.099	10.2559482	8.3651868	6.1879464	87.74278812	5.19099948	-63.43790976
3.75	375	0.153	-1.016	-0.074	11.8602306	6.5317212	10.3705398	87.85737972	5.10505578	-63.35769564
3.76	376	0.088	-0.978	-0.061	14.2093584	5.6149884	13.4072172	88.0063488	4.97327544	-63.29467026
3.77	377	0.012	-0.929	-0.04	15.9855282	5.72958	15.2406828	88.17250662	4.81857678	-63.23164488
3.78	378	-0.053	-0.882	-0.013	18.334656	6.5317212	15.0687954	88.36158276	4.67533728	-63.16288992
3.79	379	-0.132	-0.873	-0.001	18.8503182	6.8182002	14.7823164	88.56211806	4.5263682	-63.08840538
3.8	380	-0.15	-0.853	-0.004	19.5951636	10.1986524	13.8082878	88.76838294	4.3544808	-62.9967321
3.81	381	-0.158	-0.84	0.022	21.2567418	13.4072172	11.3445684	88.99183656	4.2398892	-62.85922218
3.82	382	-0.14	-0.852	0.019	22.1734746	17.6471064	7.9068204	89.23247892	4.15967508	-62.6816052
3.83	383	-0.101	-0.877	0.029	22.8037284	20.5691922	4.9274388	89.47312128	4.11383844	-62.46961074
3.84	384	-0.063	-0.896	0.043	22.5172494	22.4026578	3.0366774	89.71376364	4.07946096	-62.24615712
3.85	385	-0.027	-0.933	0.06	21.1421502	24.2934192	2.5210152	89.954406	4.03362432	-62.01124434
3.86	386	0.001	-0.95	0.064	18.907614	26.2414764	3.8388186	90.16067088	3.98778768	-61.74768366
3.87	387	0.007	-0.939	0.066	17.9335854	27.215505	5.9014674	90.3554766	3.9247623	-61.47266382
3.88	388	0.014	-0.9	0.064	16.2720072	27.1582092	8.1932994	90.53882316	3.83308902	-61.20337356
3.89	389	0.006	-0.841	0.056	15.469866	26.2414764	9.2819196	90.71071056	3.72995658	-60.94554246
3.9	390	-0.012	-0.796	0.06	15.1260912	25.7258142	8.8235532	90.88259796	3.62109456	-60.69344094
3.91	391	-0.035	-0.774	0.066	14.9542038	26.5279554	6.7609044	91.04875578	3.54661002	-60.42988026
3.92	392	-0.042	-0.756	0.073	14.9542038	28.4187168	3.724227	91.20918402	3.4950438	-60.14913084
3.93	393	-0.044	-0.737	0.081	15.2406828	30.5386614	0.286479	91.38107142	3.47785506	-59.8454631
3.94	394	-0.07	-0.736	0.089	16.4438946	32.085648	-2.8074942	91.56441798	3.48931422	-59.52460662
3.95	395	-0.073	-0.719	0.118	17.8189938	34.091001	-5.6722842	91.77068286	3.51796212	-59.1865614
3.96	396	-0.069	-0.7	0.139	18.5638392	36.4974246	-8.7089616	91.97694774	3.5809875	-58.81986828
3.97	397	-0.063	-0.678	0.161	21.6578124	39.6486936	-10.886202	92.2175901	3.6669312	-58.42452726
3.98	398	-0.057	-0.651	0.199	26.5279554	43.3729206	-12.1467096	92.50979868	3.75860448	-57.9833496
3.99	399	-0.051	-0.633	0.29	32.945085	46.4668938	-12.7196676	92.86503264	3.85600734	-57.51352404
4	400	-0.059	-0.638	0.371	35.4088044	48.8160216	-12.7196676	93.28329198	3.93049188	-57.02650974
4.01	401	-0.089	-0.679	0.4	33.8618178	52.139178	-13.2353298	93.65571468	4.02216516	-56.49938838
4.02	402	-0.079	-0.706	0.355	32.0283522	56.0352924	-13.750992	94.01094864	4.10810886	-55.93215996
4.03	403	-0.083	-0.746	0.352	31.3980984	61.7648724	-13.5791046	94.37191218	4.1825934	-55.30763574
4.04	404	-0.122	-0.771	0.375	30.939732	68.468481	-15.6417534	94.72714614	4.2685371	-54.61435656
4.05	405	-0.184	-0.828	0.354	27.6738714	74.0261736	-18.5065434	95.07092094	4.34302164	-53.87524074
4.06	406	-0.237	-0.877	0.303	20.340009	78.7244292	-20.3973048	95.32875204	4.45761324	-53.07882912
4.07	407	-0.248	-0.861	0.293	18.3919518	83.2507974	-19.9389384	95.5693944	4.5550161	-52.23658086
4.08	408	-0.204	-0.831	0.309	22.5745452	82.4486562	-17.5898106	95.8558734	4.62377106	-51.40579176
4.09	409	-0.117	-0.787	0.337	25.0955604	76.6617804	-14.2093584	96.15954114	4.6696077	-50.63229846
4.1	410	-0.009	-0.772	0.341	23.5485738	69.2706222	-9.2819196	96.46893846	4.66387812	-49.93901928
4.11	411	0.12	-0.779	0.313	20.7983754	60.6762522	-3.8961144	96.72103998	4.61804148	-49.33741338
4.12	412	0.236	-0.815	0.242	21.0275586	47.8992888	1.8907614	96.96168234	4.53209778	-48.86758782
4.13	413	0.372	-0.915	0.14	23.204799	34.7212548	7.9068204	97.21951344	4.40031744	-48.53527218
4.14	414	0.505	-1.029	0.055	22.058883	23.7204612	12.318597	97.4601558	4.24561878	-48.31754814
4.15	415	0.625	-1.195	-0.103	11.9175264	12.3758928	16.615782	97.56901782	4.0966497	-48.20295654
4.16	416	0.718	-1.361	-0.313	-4.6409598	-1.2032118	23.4339822	97.5174516	3.8674665	-48.24879318
4.17	417	0.779	-1.456	-0.511	-19.7097552	-18.6784308	32.658606	97.30545714	3.56952834	-48.47797638
4.18	418	0.798	-1.454	-0.61	-17.475219	-35.236917	45.4355694	97.11065142	3.17418732	-48.87904698
4.19	419	0.726	-1.39	-0.582	-0.572958	-40.5654264	57.2958	97.0877331	2.66998428	-49.34887254
4.2	420	0.583	-1.264	-0.529	14.3812458	-33.0023808	62.452422	97.2023247	2.12567418	-49.74421356
4.21	421	0.332	-1.072	-0.553	26.7571386	-25.78311	64.2285918	97.46588538	1.53552744	-50.0765292
4.22	422	0.01	-0.867	-0.447	49.1025006	-30.7678446	64.8015498	97.96435884	0.9453807	-50.45468148
4.23	423	-0.293	-0.73	-0.213	61.4210976	-41.9405256	60.7908438	98.58888306	0.42398892	-50.94742536
4.24	424	-0.477	-0.686	-0.032	59.7022236	-47.3836266	56.149884	99.19621854	-0.0286479	-51.48600588
4.25	425	-0.543	-0.684	0.053	48.70143	-40.2216516	52.3683612	99.70042158	-0.50993262	-51.97302018
4.26	426	-0.486	-0.757	0.083	38.4454818	-23.0902074	48.9306132	100.0957626	-0.93965112	-52.27668792
4.27	427	-0.303	-0.918	0.099	26.8144344	-2.86479	45.6647526	100.3707824	-1.3750992	-52.37982036
4.28	428	-0.095	-1.062	0.025	11.3445684	11.2299768	41.825934	100.485374	-1.81054728	-52.35117246
4.29	429	0.173	-1.269	-0.081	-0.5156622	15.756345	38.388186	100.4739149	-2.21734746	-52.26522876
4.3	430	0.394	-1.508	-0.18	-11.5164558	6.6463128	40.9092012	100.3478641	-2.61841806	-52.27095834
4.31	431	0.545	-1.717	-0.286	-17.2460358	-8.5370742	52.3683612	100.1874359	-3.11689152	-52.4543049
4.32	432	0.682	-1.779	-0.292	-16.6730778	-21.8296998	71.333271	100.0441964	-3.77006364	-52.79235012
4.33	433	0.793	-1.718	-0.243	-20.2254174	-29.793816	90.8711388	99.87230898	-4.60085274	-53.24498694
4.34	434	0.775	-1.563	-0.208	-32.8304934	-45.2063862	105.4815678	99.60301872	-5.54623344	-53.86951116
4.35	435	0.575	-1.21	-0.248	-41.0810886	-74.48454	104.9659056	99.28216224	-6.41140002	-54.76332564
4.36	436	0.267	-0.809	-0.279	-28.1895336	-111.4976268	85.2561504	99.15611148	-7.0473834	-55.99518534
4.37	437	-0.011	-0.466	-0.113	-5.7868758	-142.1508798	56.3217714	99.29935098	-7.3338624	-57.47914656
4.38	438	-0.158	-0.328	0.095	17.1314442	-161.574156	10.9434978	99.70042158	-7.1333271	-59.07769938
4.39	439	-0.169	-0.363	0.346	28.4187168	-159.7979862	-26.9863218	100.1931655	-6.54890994	-60.58457892
4.4	440	0.003	-0.53	0.467	32.1429438	-140.0309352	-49.2170922	100.6859093	-5.77541664	-61.8508161
4.41	441	0.194	-0.727	0.412	35.0650296	-117.6855732	-51.4516284	101.1557349	-5.01911208	-62.89359966
4.42	442	0.1	-0.9	0.419	45.3209778	-104.4502434	-38.101707	101.7057746	-4.4117766	-63.82179162
4.43	443	-0.016	-1.142	0.32	42.5134836	-109.721457	-16.3865988	102.2214368	-3.99351726	-64.83592728
4.44	444	0.06	-1.498	0.086	25.1528562	-128.4571836	10.5424272	102.5824003	-3.78725238	-66.0907053
4.45	445	0.147	-1.442	0.175	7.0473834	-139.1714982	27.9030546	102.7600173	-3.71276784	-67.48299324
4.46	446	0.09	-1.067	0.2	-39.1903272	-114.1905294	22.6891368	102.45062	-3.65547204	-68.63463882
4.47	447	-0.018	-0.823	-0.023	-77.4639216	-87.662574	13.8655836	101.7344225	-3.58671708	-69.52272372
4.48	448	-0.139	-0.569	-0.218	-99.2363256	-71.5051584	6.5317212	100.7833122	-3.50077338	-70.23892122
4.49	449	-0.186	-0.279	-0.427	-104.0491728	-69.1560306	1.6615782	99.77490612	-3.38618178	-70.92647082
4.5	450	-0.143	0.013	-0.553	-93.2202666	-76.9482594	-1.7761698	98.85244374	-3.23148312	-71.67131622
4.51	451	-0.007	0.186	-0.552	-79.9849368	-80.7297822	-5.2712136	98.0904096	-3.04240698	-72.46199826
4.52	452	0.126	0.317	-0.459	-68.5257768	-75.5731602	-8.9954406	97.44296706	-2.84187168	-73.1953845
4.53	453	0.201	0.435	-0.119	-52.2537696	-73.625103	-20.2254174	96.95595276	-2.53247436	-73.89439326
4.54	454	0.197	0.402	0.073	-41.539455	-69.7862844	-39.7632852	96.5720709	-2.03973048	-74.53610622
4.55	455	0.143	0.265	0.06	-41.3675676	-60.9054354	-56.9520252	96.1710003	-1.38655836	-75.06895716
4.56	456	0.109	0.08	-0.166	-37.3568616	-44.7480198	-66.2912406	95.80430718	-0.67609044	-75.44137986
4.57	457	0.078	-0.182	-0.509	-20.3973048	-45.0344988	-60.0459984	95.60377188	-0.0286479	-75.82526172
4.58	458	-0.064	-0.391	-0.98	-11.4018642	-57.2958	-39.3622146	95.49490986	0.42398892	-76.3466535
4.59	459	-0.252	-1.082	-1.321	-0.859437	-37.1849742	-26.7571386	95.48918028	0.73338624	-76.6904283
4.6	460	-0.233	-1.911	-1.102	-35.8671708	51.3370368	-24.5798982	95.12248716	0.91100322	-76.16330694
4.61	461	-0.783	-2.583	0.256	-50.9359662	80.0422326	-48.1857678	94.60682496	1.29488508	-75.343977
4.62	462	-0.986	-1.944	0.916	-79.0109082	4.4117766	-63.884817	93.80468376	1.9194093	-75.2580333
4.63	463	-0.462	-0.721	-0.013	-139.9736394	-11.5737516	-44.4615408	92.37801834	2.36058696	-75.36689532
4.64	464	-0.189	-0.183	-0.6	-33.0023808	-9.6256944	-28.7624916	92.03997312	2.64706596	-75.45283902
4.65	465	0.196	-0.561	-0.304	86.4020664	9.2819196	-20.2254174	92.91086928	2.87051958	-75.33251784
4.66	466	0.485	-1.179	-0.122	108.9193158	15.2979786	-20.6837838	94.0224078	3.07105488	-75.15490086
4.67	467	0.571	-1.57	-0.359	68.468481	23.8923486	-21.6578124	94.72714614	3.2658606	-74.89134018
4.68	468	0.447	-1.649	-0.338	11.2299768	28.5906042	-32.2002396	94.85892648	3.55806918	-74.58194286
4.69	469	0.177	-1.209	-0.359	-29.4500412	7.9068204	-42.398892	94.5667179	3.96486936	-74.47308084
4.7	470	0.164	-0.576	-0.413	-47.9565846	-27.501984	-37.7006364	94.0224078	4.37739912	-74.70799362
4.71	471	0.26	-0.459	-0.385	-9.0527364	-36.2109456	-32.6013102	93.9078162	4.73836266	-75.04603884
4.72	472	0.387	-0.763	-0.311	27.3873924	-35.8671708	-37.1849742	94.1656473	5.13943326	-75.36689532
4.73	473	0.482	-1.061	-0.356	41.4821592	-27.9030546	-50.1911208	94.5667179	5.6722842	-75.6018081
4.74	474	0.417	-1.173	-0.427	38.7892566	-18.7357266	-61.9940556	94.94487018	6.30826758	-75.72785886
4.75	475	0.263	-1.107	-0.391	32.085648	-15.6417534	-66.5204238	95.23134918	6.99581718	-75.81380256
4.76	476	0.105	-0.925	-0.314	27.4446882	-17.4179232	-61.7075766	95.49490986	7.62607098	-75.92266458
4.77	477	-0.079	-0.781	-0.276	37.7006364	-18.1054728	-50.993262	95.86160298	8.15892192	-76.04298576
4.78	478	-0.217	-0.705	-0.207	46.8679644	-15.183387	-38.5027776	96.32569896	8.55999252	-76.1461182
4.79	479	-0.297	-0.588	-0.188	51.6235158	-10.1986524	-31.9710564	96.84136116	8.89230816	-76.203414
4.8	480	-0.298	-0.464	-0.21	61.1346186	-5.5576926	-29.9657034	97.43723748	9.17305758	-76.22060274
4.81	481	-0.217	-0.37	-0.207	71.6770458	-3.3231564	-32.3148312	98.17062372	9.50537322	-76.19768442
4.82	482	-0.11	-0.272	-0.182	79.8703452	-1.718874	-37.9871154	98.98995366	9.8835255	-76.1461182
4.83	483	-0.017	-0.192	-0.138	89.8971102	-0.1145916	-45.1490904	99.91814562	10.33043274	-76.0601745
4.84	484	0.064	-0.109	-0.106	99.5801004	0.3437748	-52.139178	100.9437404	10.84609494	-75.9455829
4.85	485	0.131	-0.007	-0.06	111.9559932	0.286479	-58.6708992	102.1011156	11.44197126	-75.8023434
4.86	486	0.238	0.07	-0.052	129.488508	-1.145916	-63.1399716	103.4418373	12.0607659	-75.65337432
4.87	487	0.337	0.133	-0.042	144.0416412	-3.7815228	-63.4264506	104.9372577	12.6910197	-75.5158644
4.88	488	0.362	0.019	0.024	165.6994536	-5.72958	-58.155237	106.6446725	13.26970728	-75.38408406
4.89	489	0.313	-0.248	0.079	185.351913	-7.3911582	-46.0658232	108.5468931	13.73953284	-75.2866812
4.9	490	0.188	-0.605	0.312	203.113611	-3.6096354	-31.8564648	110.6439194	14.04893016	-75.18354876
4.91	491	-0.017	-1.169	0.62	225.458973	9.6829902	-18.9649098	112.9758584	14.19216966	-74.98874304
4.92	492	-0.182	-2.016	0.951	245.9135736	28.6479	-8.4224826	115.5484399	14.1520626	-74.6564274
4.93	493	-0.445	-3.075	1.574	246.4865316	45.4355694	-7.2192708	118.1611283	14.0088231	-74.18087226
4.94	494	-0.609	-3.445	2.153	231.761511	62.2805346	8.4797784	120.6305773	13.61921166	-73.64802132
4.95	495	-0.682	-2.996	2.66	219.5575056	77.2347384	40.5654264	122.9567868	12.85717752	-73.17819576
4.96	496	-0.124	-2.827	2.611	242.7050088	71.1040878	71.61975	125.4548837	11.8602306	-72.97193088
4.97	497	0.809	-2.613	2.676	232.04799	69.7862844	61.0773228	127.8441185	10.94922738	-72.75993642
4.98	498	0.991	-1.805	2.56	271.1810214	50.4775998	27.9603504	130.634424	10.40491728	-72.51356448
4.99	499	1.576	-1.354	2.605	389.6687358	25.3247436	-12.4331886	134.64513	10.313244	-72.18697842
5	500	0.984	-1.299	2.486	593.3553048	34.8931422	-33.2888598	140.7585919	10.26167778	-71.62547958
5.01	501	0.257	-0.434	1.374	470.3412222	32.4867186	-7.0473834	145.5828982	10.02103542	-71.31608226
5.02	502	0.22	-0.147	1.258	392.7054132	-22.2307704	-5.156622	149.5706859	10.21584114	-71.32754142
5.03	503	-0.085	-0.256	1.419	325.440144	-15.756345	-8.1360036	152.8823831	10.37626938	-71.28743436
5.04	504	0.003	-0.169	1.206	271.4102046	-4.1252976	-13.0061466	155.6612294	10.45075392	-71.15565402
5.05	505	-0.052	-0.151	0.89	239.0953734	2.3491278	-15.5271618	158.1306784	10.46221308	-70.97230746
5.06	506	-0.018	-0.123	0.822	215.3749122	1.5469866	-16.6730778	160.3480259	10.4851314	-70.78323132
5.07	507	0.005	-0.085	0.814	165.7567494	-0.859437	-13.0061466	162.0554407	10.52523846	-70.6457214
5.08	508	0.086	-0.127	0.599	132.6970728	-6.016059	-10.313244	163.4190808	10.599723	-70.54831854
5.09	509	0.154	-0.067	0.55	125.3632104	-13.6936962	-9.6829902	164.7082363	10.74869208	-70.473834
5.1	510	0.177	0.023	0.527	117.2272068	-18.621135	-7.448454	165.9171776	10.93776822	-70.42799736
5.11	511	0.163	0.055	0.629	102.273003	-23.0902074	-6.016059	166.9599612	11.16695142	-70.40507904
5.12	512	0.068	-0.026	0.793	83.7664596	-19.8816426	-9.453807	167.8251278	11.3732163	-70.34205366
5.13	513	0.061	-0.136	0.969	70.1300592	-18.6784308	-8.7089616	168.5527844	11.56229244	-70.27902828
5.14	514	0.144	-0.157	1.042	78.781725	-19.4232762	-11.745639	169.3721144	11.76855732	-70.187355
5.15	515	0.196	-0.1	1.154	90.0689976	-21.2567418	-15.5271618	170.3289542	11.99201094	-70.05557466
5.16	516	0.282	-0.126	1.401	95.970465	-13.9801752	-14.037471	171.3316307	12.14098002	-69.92379432
5.17	517	0.274	-0.167	1.484	94.4234784	-5.9014674	-12.3758928	172.3171185	12.20973498	-69.79201398
5.18	518	0.257	-0.164	1.486	96.4861272	1.9480572	-12.318597	173.3255246	12.19254624	-69.66023364
5.19	519	0.291	-0.136	1.55	90.2981808	5.3858052	-13.5791046	174.2709053	12.1467096	-69.51126456
5.2	520	0.316	-0.127	1.586	85.084263	7.5057498	-14.2093584	175.1647198	12.07795464	-69.35083632
5.21	521	0.324	-0.139	1.607	82.792431	5.9014674	-13.464513	176.0356159	12.02065884	-69.20759682
5.22	522	0.33	-0.054	1.603	75.8596392	2.4064236	-11.6310474	176.8320275	11.99201094	-69.08154606
5.23	523	0.268	0.015	1.509	71.333271	-0.4583664	-8.8235532	177.5768729	11.99201094	-68.9841432
5.24	524	0.299	0.03	1.47	66.9214944	-3.2658606	-6.589017	178.2701521	12.02065884	-68.90965866
5.25	525	0.302	0.029	1.435	59.874111	-4.9847346	-5.6149884	178.8946763	12.06649548	-68.84663328
5.26	526	0.368	0.122	1.358	54.2591226	-6.9900876	-3.0366774	179.4561752	12.12952086	-68.8122558
5.27	527	0.291	0.121	1.268	51.56622	-6.0733548	-2.7501984	179.9890261	12.18108708	-68.77787832
5.28	528	0.262	0.024	1.204	49.9619376	-5.8441716	-0.9167328	-179.4962822	12.2326533	-68.76068958
5.29	529	0.267	0.085	1.106	47.0398518	-7.9068204	-0.9740286	-179.0149975	12.30713784	-68.74350084
5.3	530	0.227	0.031	1.057	37.1849742	-10.886202	-1.5469866	-178.6253861	12.4045407	-68.72058252
5.31	531	0.223	-0.054	1.005	32.5440144	-13.178034	-5.9587632	-178.2816113	12.53059146	-68.65182756
5.32	532	0.189	-0.163	0.893	20.340009	-16.5584862	-9.453807	-178.0466985	12.68529012	-68.54296554
5.33	533	0.168	-0.07	0.876	13.2926256	-16.7303736	-13.9228794	-177.8748111	12.84571836	-68.38826688
5.34	534	0.153	-0.128	0.803	-14.5531332	-10.8289062	-13.1207382	-177.9894027	12.9488508	-68.25075696
5.35	535	0.13	0.031	0.744	-35.0650296	-6.9327918	-14.9542038	-178.3274479	13.0061466	-68.10178788
5.36	536	0.217	0.454	0.579	-26.2987722	-5.5576926	-7.0473834	-178.5795494	13.0634424	-68.02730334
5.37	537	0.115	-0.007	0.673	-22.5745452	-1.432395	3.4950438	-178.8144622	13.08063114	-68.06168082
5.38	538	0.141	-0.109	0.812	-41.8832298	-0.2291832	-3.2085648	-179.2327216	13.0920903	-68.03303292
5.39	539	0.169	0.126	0.667	-33.2888598	3.4950438	3.8388186	-179.5822259	13.05771282	-68.07886956
5.4	540	0.165	-0.025	0.787	-32.4867186	5.156622	3.3804522	-179.9260007	13.0061466	-68.11897662
5.41	541	0.169	-0.003	0.845	-33.4034514	6.0733548	3.4950438	179.7197359	12.9488508	-68.15908368
5.42	542	0.158	0.013	0.868	-34.4920716	5.8441716	3.2658606	179.3587723	12.89728458	-68.19346116
5.43	543	0.178	0.048	0.919	-34.37748	5.443101	2.0626488	179.0035384	12.84571836	-68.22210906
5.44	544	0.192	0.065	0.912	-35.4088044	5.5003968	0.9167328	178.6425748	12.79415214	-68.23356822
5.45	545	0.231	0.005	0.94	-34.950438	5.3285094	0.1145916	178.2816113	12.7483155	-68.2392978
5.46	546	0.211	-0.031	1.004	-32.6013102	6.875496	-0.7448454	177.9492956	12.68529012	-68.23356822
5.47	547	0.213	-0.069	1.039	-32.1429438	9.3965112	-0.8021412	177.6227096	12.59361684	-68.22783864
5.48	548	0.235	-0.11	1.045	-31.8564648	11.8029348	0.8021412	177.2961235	12.48475482	-68.23356822
5.49	549	0.298	-0.042	1.085	-27.3300966	13.750992	2.86479	177.0153741	12.3472449	-68.26221612
5.5	550	0.293	0.104	1.144	-27.9030546	15.8136408	0.6875496	176.7460838	12.19827582	-68.2679457
5.51	551	0.221	0.022	1.134	-25.3247436	16.902261	0	176.4882527	12.032118	-68.26221612
5.52	552	0.231	-0.02	1.056	-20.7983754	22.631841	-0.3437748	176.2762583	11.80866438	-68.25648654
5.53	553	0.265	-0.14	1.028	-16.5584862	31.8564648	-1.718874	176.1043709	11.49926706	-68.22783864
5.54	554	0.195	-0.271	1.031	-9.6829902	38.2162986	-0.5156622	176.006968	11.12111478	-68.20492032
5.55	555	0.144	-0.277	1.019	-2.9793816	39.9924684	-0.0572958	175.9267539	10.72004418	-68.19346116
5.56	556	0.106	-0.206	0.949	2.1199446	38.5027776	-1.9480572	175.9496722	10.3418919	-68.1533541
5.57	557	0.074	-0.186	0.877	8.2505952	35.7525792	-3.2085648	176.0356159	9.98665794	-68.10751746
5.58	558	0.199	-0.139	0.93	17.761698	25.4393352	-3.3804522	176.2189625	9.73455642	-68.06168082
5.59	559	0.145	-0.07	0.968	22.2307704	17.9908812	-2.1772404	176.4481457	9.55693944	-68.02730334
5.6	560	0.184	-0.079	1.046	28.074942	9.6829902	-1.3178034	176.7346247	9.45953658	-68.0101146
5.61	561	0.172	-0.035	1.078	26.9863218	4.4117766	-1.2032118	177.0153741	9.41369994	-67.99292586
5.62	562	0.214	-0.051	1.047	21.0848544	1.432395	-1.2605076	177.2273686	9.40224078	-67.97573712
5.63	563	0.19	-0.013	1.009	13.8655836	-1.0313244	-1.2032118	177.3706081	9.40797036	-67.96427796
5.64	564	0.161	-0.031	0.955	6.2452422	-2.5210152	-0.9167328	177.439363	9.43088868	-67.9528188
5.65	565	0.165	-0.066	0.94	0.9167328	-3.3231564	-0.859437	177.3648785	9.50537322	-67.94135964
5.66	566	0.161	-0.088	0.946	-2.578311	-3.3231564	-1.0886202	177.3419602	9.5397507	-67.92990048
5.67	567	0.161	-0.075	0.953	-4.870143	-2.2345362	-0.572958	177.2961235	9.56266902	-67.9241709
5.68	568	0.152	-0.081	0.964	-6.9327918	0.1718874	-0.3437748	177.221639	9.55693944	-67.91844132
5.69	569	0.142	-0.066	0.972	-8.9381448	3.724227	-0.2291832	177.1356953	9.52256196	-67.91844132
5.7	570	0.15	-0.045	0.986	-10.599723	5.5003968	-0.1145916	177.0211037	9.47099574	-67.91844132
5.71	571	0.154	-0.077	1.008	-10.7143146	6.3598338	-0.1718874	176.9122417	9.40797036	-67.91271174
5.72	572	0.142	-0.105	1.039	-8.7089616	6.5317212	-0.1718874	176.8205684	9.34494498	-67.91271174
5.73	573	0.142	-0.091	1.044	-6.8182002	6.1879464	-0.1718874	176.7518134	9.2819196	-67.90698216
5.74	574	0.138	-0.092	1.04	-5.6149884	5.9587632	0	176.6945176	9.2246238	-67.90698216
5.75	575	0.138	-0.089	1.039	-5.3285094	5.72958	0.0572958	176.6143035	9.15013926	-67.91271174
5.76	576	0.134	-0.085	1.033	-5.3285094	5.6722842	0.1145916	176.5627373	9.09284346	-67.91271174
5.77	577	0.128	-0.085	1.028	-5.156622	5.2712136	0.1145916	176.5054415	9.04127724	-67.91271174
5.78	578	0.134	-0.07	1.022	-5.2712136	4.870143	0.0572958	176.4538753	8.98971102	-67.91271174
5.79	579	0.142	-0.059	1.011	-5.6722842	4.297185	0.0572958	176.3965795	8.94960396	-67.91271174
5.8	580	0.145	-0.064	0.999	-5.72958	3.3804522	0	176.3220949	8.9094969	-67.91271174
5.81	581	0.147	-0.082	0.995	-5.3858052	2.1772404	0.1718874	176.2647991	8.89230816	-67.91271174
5.82	582	0.137	-0.096	0.998	-3.8388186	0.5156622	0.286479	176.2246921	8.88657858	-67.91844132
5.83	583	0.138	-0.106	1.001	-2.1772404	-0.4010706	0.286479	176.2017737	8.89230816	-67.91844132
5.84	584	0.128	-0.121	0.998	-0.6302538	-0.7448454	0.3437748	176.1960442	8.89803774	-67.9241709
5.85	585	0.145	-0.112	0.987	0.7448454	-2.0626488	0.4583664	176.1101005	8.91522648	-67.92990048
5.86	586	0.146	-0.087	0.976	1.5469866	-4.0680018	0.572958	176.1272892	8.95533354	-67.94135964
5.87	587	0.146	-0.069	0.981	2.0626488	-5.9014674	0.5156622	176.1502075	9.01262934	-67.94708922
5.88	588	0.138	-0.068	0.996	2.5210152	-7.3911582	0.572958	176.1731258	9.08711388	-67.9528188
5.89	589	0.153	-0.068	1.004	2.86479	-8.4797784	0.6875496	176.2017737	9.167328	-67.96427796
5.9	590	0.161	-0.064	1.004	2.7501984	-8.9954406	0.5156622	176.2304216	9.25900128	-67.97573712
5.91	591	0.165	-0.063	1.005	2.5210152	-8.59437	0.4010706	176.25334	9.34494498	-67.9814667
5.92	592	0.164	-0.066	1.008	2.3491278	-7.7922288	0.3437748	176.2819879	9.41942952	-67.98719628
5.93	593	0.162	-0.066	1.011	2.005353	-6.6463128	0.2291832	176.2991766	9.48818448	-67.99292586
5.94	594	0.165	-0.062	1.011	1.5469866	-5.5003968	0.1718874	176.3163653	9.5397507	-67.99865544
5.95	595	0.166	-0.067	1.014	1.0313244	-4.0680018	0.0572958	176.3049062	9.57412818	-67.99865544
5.96	596	0.165	-0.071	1.02	0.7448454	-2.4637194	0	176.3163653	9.60277608	-67.99865544
5.97	597	0.165	-0.076	1.023	0.6302538	-0.9740286	-0.1145916	176.3220949	9.60850566	-67.99865544
5.98	598	0.163	-0.079	1.019	0.4010706	0.286479	-0.1145916	176.3278245	9.60850566	-67.99865544
5.99	599	0.164	-0.08	1.011	0	1.2032118	-0.1145916	176.3278245	9.5970465	-67.99865544
6	600	0.163	-0.083	1	-0.8021412	1.9480572	-0.2291832	176.25334	9.57412818	-67.99865544
6.01	601	0.161	-0.081	0.994	-1.6042824	2.4637194	-0.2291832	176.2361512	9.55120986	-67.99292586
6.02	602	0.159	-0.079	0.988	-2.5210152	3.0939732	-0.1145916	176.2075033	9.51683238	-67.98719628
6.03	603	0.158	-0.076	0.984	-3.3231564	3.437748	-0.0572958	176.1731258	9.4824549	-67.98719628
6.04	604	0.159	-0.075	0.984	-4.1252976	3.6669312	-0.0572958	176.1330188	9.44807742	-67.98719628
6.05	605	0.161	-0.077	0.983	-4.5263682	3.6669312	0	176.0699934	9.41369994	-67.98719628
6.06	606	0.16	-0.079	0.987	-4.583664	3.5523396	0	176.0184272	9.37932246	-67.9814667
6.07	607	0.155	-0.083	0.992	-4.2398892	3.3804522	0	175.9783201	9.34494498	-67.9814667
6.08	608	0.156	-0.088	0.998	-3.4950438	3.0939732	0	175.9382131	9.3105675	-67.9814667
6.09	609	0.153	-0.09	1.006	-2.3491278	2.6929026	0	175.9152947	9.28764918	-67.9814667
6.1	610	0.158	-0.09	1.015	-0.9740286	2.2345362	0	175.8236215	9.2532717	-67.9814667
6.11	611	0.154	-0.09	1.02	0.4583664	1.6042824	-0.0572958	175.829351	9.23608296	-67.9814667
6.12	612	0.152	-0.09	1.025	1.8907614	1.145916	-0.1145916	175.8465398	9.2246238	-67.9814667
6.13	613	0.153	-0.087	1.026	3.0366774	0.6875496	-0.1145916	175.8809173	9.21889422	-67.97573712
6.14	614	0.153	-0.084	1.022	3.6669312	0.4583664	-0.1145916	175.9152947	9.21316464	-67.97573712
6.15	615	0.153	-0.083	1.017	3.6669312	0.4010706	-0.1718874	175.9210243	9.1959759	-67.9814667
6.16	616	0.152	-0.082	1.012	3.4950438	0.4010706	-0.1145916	175.9554018	9.19024632	-67.97573712
6.17	617	0.151	-0.081	1.007	3.0939732	0.5156622	-0.1145916	175.9840497	9.18451674	-67.97573712
6.18	618	0.149	-0.082	1	2.291832	0.9167328	-0.1145916	176.0126976	9.17305758	-67.97000754
6.19	619	0.149	-0.081	0.998	1.5469866	1.0313244	-0.0572958	176.0241568	9.16159842	-67.97000754
6.2	620	0.148	-0.082	0.993	0.6875496	1.2605076	0	175.9382131	9.11576178	-67.9814667
6.21	621	0.146	-0.083	0.992	-0.4010706	1.5469866	0	175.9382131	9.10430262	-67.9814667
6.22	622	0.146	-0.082	0.991	-1.2605076	1.6615782	0.0572958	175.9210243	9.08711388	-67.9814667
6.23	623	0.145	-0.082	0.992	-1.9480572	1.8334656	0	175.9038356	9.06992514	-67.9814667
6.24	624	0.146	-0.081	0.994	-2.5210152	1.9480572	0.0572958	175.8751877	9.04700682	-67.9814667
6.25	625	0.148	-0.081	0.997	-2.86479	1.7761698	0.1145916	175.8236215	9.01835892	-67.98719628
6.26	626	0.148	-0.08	1.001	-3.0939732	1.6042824	0.0572958	175.789244	9.00689976	-67.98719628
6.27	627	0.148	-0.08	1.004	-2.9220858	1.3750992	0.0572958	175.7605961	8.98971102	-67.98719628
6.28	628	0.149	-0.08	1.007	-2.6929026	1.0886202	0.1718874	175.7319482	8.97825186	-67.98719628
6.29	629	0.15	-0.082	1.011	-2.2345362	0.6875496	0	175.7090299	8.97252228	-67.98719628
6.3	630	0.15	-0.082	1.014	-1.718874	0.2291832	0	175.6460045	8.94960396	-67.99292586
6.31	631	0.15	-0.083	1.014	-1.2032118	-0.1718874	0	175.6288157	8.95533354	-67.99292586
6.32	632	0.149	-0.084	1.014	-0.6302538	-0.6302538	0.0572958	175.6230862	8.96106312	-67.99865544
6.33	633	0.148	-0.085	1.013	-0.1145916	-0.9167328	0	175.6230862	8.9667927	-67.99865544
6.34	634	0.149	-0.085	1.011	0.286479	-1.2032118	0	175.6288157	8.97825186	-67.99865544
6.35	635	0.15	-0.085	1.008	0.6875496	-1.432395	0	175.5887087	8.98398144	-68.00438502
6.36	636	0.149	-0.085	1.007	1.0313244	-1.3750992	0	175.6001678	8.9954406	-68.00438502
6.37	637	0.149	-0.084	1.005	1.3178034	-1.5469866	0	175.611627	9.01262934	-68.00438502
6.38	638	0.152	-0.084	1.001	1.432395	-1.4896908	0	175.6288157	9.0240885	-68.00438502
6.39	639	0.152	-0.084	1	1.5469866	-1.3178034	0	175.6460045	9.04127724	-68.00438502
6.4	640	0.152	-0.083	1.002	1.3750992	-1.0886202	0	175.6173566	9.03554766	-68.0101146
6.41	641	0.154	-0.083	1.002	0.859437	-0.859437	0	175.6230862	9.04700682	-68.0101146
6.42	642	0.154	-0.081	1.002	0.4010706	-0.9167328	0	175.6288157	9.05846598	-68.0101146
6.43	643	0.154	-0.081	1.002	0.286479	-0.859437	0.0572958	175.6288157	9.06419556	-68.01584418
6.44	644	0.154	-0.083	1.002	0.286479	-0.6302538	0.0572958	175.6345453	9.06992514	-68.01584418
6.45	645	0.154	-0.084	1.002	0	-0.3437748	0	175.4511988	9.0527364	-68.02730334
6.46	646	0.156	-0.083	1.002	-0.2291832	-0.0572958	0	175.4454692	9.0527364	-68.02730334
6.47	647	0.155	-0.083	1.002	-0.3437748	0.2291832	0.0572958	175.4454692	9.0527364	-68.02730334
6.48	648	0.154	-0.083	1.003	-0.572958	0.4583664	0	175.43401	9.04700682	-68.02730334
6.49	649	0.153	-0.082	1.003	-0.6875496	0.6875496	0	175.4282804	9.04127724	-68.02730334
6.5	650	0.154	-0.083	1.005	-0.859437	0.8021412	0	175.3824438	9.0240885	-68.02730334
6.51	651	0.152	-0.083	1.004	-0.859437	0.8021412	0	175.3709846	9.01835892	-68.02730334
6.52	652	0.152	-0.085	1.004	-0.8021412	0.859437	0	175.3652551	9.01262934	-68.02730334
6.53	653	0.151	-0.084	1.005	-0.7448454	0.9167328	0	175.3537959	9.00117018	-68.02730334
6.54	654	0.15	-0.084	1.004	-0.5156622	0.9167328	0	175.3480663	8.98971102	-68.02730334
6.55	655	0.15	-0.085	1.004	-0.286479	0.9167328	0	175.2793114	8.95533354	-68.03303292
6.56	656	0.15	-0.085	1.005	-0.2291832	0.9167328	0	175.2793114	8.94387438	-68.03303292
6.57	657	0.15	-0.085	1.005	-0.1718874	0.9167328	-0.0572958	175.2735818	8.9381448	-68.03303292
6.58	658	0.15	-0.086	1.005	-0.1145916	0.9167328	0	175.2735818	8.92668564	-68.03303292
6.59	659	0.149	-0.086	1.003	0	0.8021412	-0.1145916	175.2735818	8.92095606	-68.02730334
6.6	660	0.149	-0.085	1.003	0.1145916	0.6875496	0	175.216286	8.88657858	-68.0387625
6.61	661	0.149	-0.085	1.003	0.4010706	0.572958	0	175.2220156	8.880849	-68.0387625
6.62	662	0.149	-0.085	1.002	0.4583664	0.5156622	0	175.2277451	8.87511942	-68.0387625
6.63	663	0.149	-0.086	1.001	0.5156622	0.4583664	0	175.2334747	8.86938984	-68.03303292
6.64	664	0.15	-0.084	1.001	0.5156622	0.4583664	0	175.2392043	8.86366026	-68.03303292
6.65	665	0.15	-0.085	1.002	0.4010706	0.572958	0	175.216286	8.84074194	-68.0387625
6.66	666	0.149	-0.083	1.005	0.2291832	0.572958	0	175.216286	8.83501236	-68.0387625
6.67	667	0.15	-0.083	1.006	0.1145916	0.4583664	0	175.216286	8.82928278	-68.0387625
6.68	668	0.149	-0.084	1.007	0	0.4583664	0	175.216286	8.8235532	-68.0387625
6.69	669	0.15	-0.084	1.006	-0.2291832	0.4583664	0	175.216286	8.81782362	-68.0387625
6.7	670	0.15	-0.083	1.006	-0.1718874	0.286479	0	175.1532606	8.77771656	-68.05022166
6.71	671	0.149	-0.084	1.006	-0.1145916	0.286479	0	175.147531	8.77771656	-68.05022166
6.72	672	0.149	-0.084	1.006	-0.1145916	0.286479	0	175.147531	8.77198698	-68.05022166
6.73	673	0.149	-0.084	1.005	0	0.2291832	0	175.147531	8.77198698	-68.05022166
6.74	674	0.149	-0.084	1.004	0	0.1145916	0	175.147531	8.77198698	-68.05022166
6.75	675	0.149	-0.084	1.004	0	0.1718874	0	175.0845056	8.7376095	-68.06168082
6.76	676	0.149	-0.084	1.004	0	0.0572958	0	175.0845056	8.7376095	-68.06168082
6.77	677	0.148	-0.084	1.003	0.1145916	-0.0572958	0	175.0845056	8.7376095	-68.06168082
6.78	678	0.148	-0.084	1.004	0.2291832	-0.0572958	0	175.0902352	8.7376095	-68.06168082
6.79	679	0.15	-0.086	1.004	0.4010706	-0.1718874	0	175.0902352	8.7376095	-68.06168082
6.8	680	0.15	-0.085	1.005	0.5156622	-0.1718874	0	175.0673169	8.74333908	-68.06168082
6.81	681	0.15	-0.085	1.004	0.572958	-0.2291832	0	175.0730465	8.74333908	-68.06168082
6.82	682	0.149	-0.085	1.005	0.8021412	-0.3437748	0	175.0845056	8.74906866	-68.06168082
6.83	683	0.15	-0.085	1.005	0.8021412	-0.4010706	0	175.0902352	8.74906866	-68.06168082
6.84	684	0.151	-0.085	1.005	0.8021412	-0.286479	0	175.1016944	8.75479824	-68.06168082
6.85	685	0.15	-0.085	1.005	0.6302538	-0.6875496	-0.0572958	175.0959648	8.75479824	-68.06168082
6.86	686	0.15	-0.084	1.005	0.5156622	-0.572958	0	175.1016944	8.7662574	-68.06168082
6.87	687	0.15	-0.084	1.004	0.4583664	-0.5156622	0	175.1016944	8.7662574	-68.06168082
6.88	688	0.15	-0.084	1.005	0.4010706	-0.4583664	0	175.107424	8.77198698	-68.0674104
6.89	689	0.149	-0.084	1.003	0.2291832	-0.3437748	0	175.1131535	8.77771656	-68.0674104
6.9	690	0.15	-0.083	1.004	0.0572958	-0.2291832	0	175.0787761	8.7662574	-68.0674104
6.91	691	0.151	-0.084	1.004	0	-0.1718874	0	175.0787761	8.7662574	-68.0674104
6.92	692	0.15	-0.084	1.004	-0.1145916	0	0	175.0787761	8.7662574	-68.0674104
6.93	693	0.15	-0.084	1.004	-0.1718874	0	0	175.0787761	8.7662574	-68.0674104
6.94	694	0.15	-0.084	1.004	-0.1718874	0.0572958	0	175.0730465	8.7662574	-68.0674104
6.95	695	0.15	-0.084	1.004	-0.2291832	0.286479	0	175.038669	8.75479824	-68.07313998
6.96	696	0.149	-0.083	1.003	-0.2291832	0.3437748	0	175.038669	8.74906866	-68.07313998
6.97	697	0.15	-0.084	1.004	-0.1718874	0.286479	0	175.0329394	8.74333908	-68.07313998
6.98	698	0.149	-0.083	1.005	-0.2291832	0.286479	0	175.0329394	8.74333908	-68.07313998
6.99	699	0.149	-0.084	1.006	-0.2291832	0.286479	0	175.0329394	8.7376095	-68.07313998
7	700	0.149	-0.083	1.006	-0.1718874	0.286479	0	175.0100211	8.72042076	-68.07313998
7.01	701	0.149	-0.084	1.005	-0.0572958	0.286479	0	175.0100211	8.71469118	-68.07313998
7.02	702	0.149	-0.084	1.005	0	0.2291832	0	175.0100211	8.71469118	-68.07313998
7.03	703	0.149	-0.084	1.004	0.0572958	0.1718874	0	175.0100211	8.71469118	-68.07313998
7.04	704	0.148	-0.083	1.005	0.1718874	0.286479	0	175.0157507	8.7089616	-68.07313998
7.05	705	0.149	-0.082	1.006	0.1145916	0.286479	0	174.9985619	8.69750244	-68.07886956
7.06	706	0.149	-0.082	1.008	0	0.286479	0	174.9985619	8.69177286	-68.07313998
7.07	707	0.149	-0.083	1.005	0	0.1718874	-0.0572958	174.9985619	8.69177286	-68.07313998
7.08	708	0.148	-0.085	1.004	0.1718874	0.1145916	0	174.9985619	8.68604328	-68.07313998
7.09	709	0.148	-0.084	1.002	0.2291832	0	0	175.0042915	8.68604328	-68.07313998
7.1	710	0.149	-0.084	1.006	0.0572958	0.1145916	-0.0572958	174.9756436	8.66885454	-68.07886956
7.11	711	0.149	-0.084	1.007	-0.1145916	0	0	174.969914	8.66885454	-68.07886956
7.12	712	0.149	-0.083	1.007	-0.286479	-0.0572958	0	174.969914	8.67458412	-68.07886956
7.13	713	0.148	-0.084	1.007	-0.286479	-0.1718874	0	174.9641845	8.67458412	-68.07886956
7.14	714	0.148	-0.085	1.007	-0.2291832	-0.1145916	0	174.9641845	8.67458412	-68.07886956
7.15	715	0.149	-0.085	1.006	-0.2291832	-0.1145916	0	174.9469957	8.6803137	-68.07886956
7.16	716	0.149	-0.084	1.004	-0.0572958	-0.1145916	0.0572958	174.9412661	8.6803137	-68.07886956
7.17	717	0.148	-0.083	1.004	0.0572958	-0.1718874	0.1145916	174.9412661	8.6803137	-68.07886956
7.18	718	0.148	-0.084	1.002	0	-0.0572958	0	174.9412661	8.68604328	-68.07886956
7.19	719	0.148	-0.082	1.003	0.0572958	-0.1145916	0	174.9469957	8.68604328	-68.07886956
7.2	720	0.148	-0.083	1.004	0.0572958	-0.2291832	0.0572958	174.9240774	8.66885454	-68.09032872
7.21	721	0.149	-0.083	1.003	0	-0.1145916	0	174.9240774	8.66885454	-68.09032872
7.22	722	0.149	-0.084	1.004	0	-0.1718874	0	174.9240774	8.67458412	-68.09032872
7.23	723	0.148	-0.084	1.005	0	-0.1145916	0	174.9240774	8.67458412	-68.09032872
7.24	724	0.149	-0.083	1.005	0.0572958	-0.2291832	0	174.9240774	8.67458412	-68.09032872
7.25	725	0.15	-0.084	1.004	0.0572958	-0.2291832	0	174.9183478	8.68604328	-68.09032872
7.26	726	0.149	-0.083	1.007	0.1718874	-0.1718874	0	174.9240774	8.69177286	-68.09032872
7.27	727	0.149	-0.083	1.006	0.1718874	-0.1718874	-0.0572958	174.9240774	8.69177286	-68.08459914
7.28	728	0.15	-0.083	1.006	0.2291832	-0.1718874	0	174.929807	8.69177286	-68.08459914
7.29	729	0.15	-0.083	1.005	0.1718874	-0.1718874	0	174.929807	8.69750244	-68.08459914
7.3	730	0.149	-0.084	1.006	0.1145916	-0.1718874	0	174.9183478	8.68604328	-68.09032872
7.31	731	0.149	-0.083	1.007	0.1145916	-0.1145916	0	174.9183478	8.68604328	-68.09032872
7.32	732	0.149	-0.083	1.005	0.0572958	-0.1145916	-0.0572958	174.9240774	8.68604328	-68.09032872
7.33	733	0.148	-0.083	1.003	0	0	-0.0572958	174.9240774	8.68604328	-68.09032872
7.34	734	0.149	-0.083	1.001	0.0572958	0	0	174.9240774	8.68604328	-68.09032872
7.35	735	0.148	-0.084	1.003	0.0572958	0	0	174.9240774	8.67458412	-68.09032872
7.36	736	0.149	-0.083	1.004	0	0.1718874	0	174.9240774	8.67458412	-68.09032872
7.37	737	0.148	-0.082	1.004	-0.1145916	0.2291832	0.0572958	174.9240774	8.66885454	-68.09032872
7.38	738	0.149	-0.083	1.005	-0.0572958	0.0572958	0	174.9183478	8.66885454	-68.09032872
7.39	739	0.149	-0.083	1.006	-0.1145916	0.0572958	0	174.9183478	8.66885454	-68.09032872
7.4	740	0.147	-0.083	1.005	-0.0572958	0.0572958	0	174.9068887	8.62874748	-68.0960583
7.41	741	0.149	-0.082	1.007	-0.0572958	0.1145916	0	174.9011591	8.62874748	-68.0960583
7.42	742	0.149	-0.083	1.005	0	0	0	174.9011591	8.62874748	-68.10178788
7.43	743	0.148	-0.083	1.006	0	0	0	174.9011591	8.62874748	-68.10178788
7.44	744	0.148	-0.083	1.006	0	0.1145916	0	174.9011591	8.62874748	-68.10178788
7.45	745	0.148	-0.082	1.004	0	0.1145916	0	174.8954295	8.6230179	-68.10178788
7.46	746	0.148	-0.083	1.005	0	0	0	174.8954295	8.6230179	-68.10178788
7.47	747	0.149	-0.082	1.004	0	0	0	174.8954295	8.6230179	-68.10178788
7.48	748	0.148	-0.083	1.005	0	0	0	174.8954295	8.6230179	-68.10178788
7.49	749	0.148	-0.082	1.003	0	0	0	174.8954295	8.6230179	-68.10178788
7.5	750	0.148	-0.082	1.005	-0.0572958	0	0	174.9183478	8.6230179	-68.10178788
7.51	751	0.148	-0.081	1.005	-0.0572958	-0.0572958	0	174.9183478	8.6230179	-68.10178788
7.52	752	0.148	-0.082	1.004	-0.0572958	0	0	174.9183478	8.6230179	-68.10178788
7.53	753	0.148	-0.083	1.005	-0.0572958	0	0	174.9126182	8.6230179	-68.10178788
7.54	754	0.148	-0.082	1.006	0	0	0	174.9126182	8.6230179	-68.10178788
7.55	755	0.148	-0.083	1.006	-0.0572958	-0.0572958	0	174.9126182	8.61155874	-68.10178788
7.56	756	0.148	-0.083	1.007	0	-0.0572958	0	174.9126182	8.61155874	-68.10178788
7.57	757	0.149	-0.083	1.006	-0.0572958	-0.1145916	0	174.9126182	8.61728832	-68.10178788
7.58	758	0.149	-0.083	1.005	-0.1145916	-0.1145916	-0.0572958	174.9126182	8.61728832	-68.10178788
7.59	759	0.148	-0.082	1.004	-0.0572958	-0.0572958	0	174.9126182	8.61728832	-68.10178788
7.6	760	0.148	-0.082	1.006	-0.0572958	-0.0572958	-0.0572958	174.9068887	8.61155874	-68.10178788
7.61	761	0.148	-0.083	1.005	-0.0572958	-0.0572958	0	174.9068887	8.61155874	-68.10178788
7.62	762	0.148	-0.083	1.005	-0.1145916	0	0	174.9068887	8.61155874	-68.10178788
7.63	763	0.149	-0.082	1.005	-0.0572958	-0.0572958	0	174.9068887	8.61728832	-68.10178788
7.64	764	0.148	-0.083	1.003	-0.1145916	-0.0572958	0.0572958	174.9011591	8.61728832	-68.10178788
7.65	765	0.148	-0.083	1.004	-0.0572958	-0.0572958	0.0572958	174.8954295	8.60582916	-68.10751746
7.66	766	0.148	-0.083	1.004	-0.0572958	-0.1145916	0	174.8954295	8.61155874	-68.10751746
7.67	767	0.149	-0.083	1.005	-0.1145916	-0.1145916	0	174.8954295	8.61155874	-68.10751746
7.68	768	0.148	-0.082	1.006	-0.1718874	0	0	174.8896999	8.61155874	-68.10751746
7.69	769	0.149	-0.083	1.005	-0.286479	0	0	174.8896999	8.61155874	-68.10751746
7.7	770	0.148	-0.083	1.006	-0.2291832	0	0	174.8954295	8.60582916	-68.10751746
7.71	771	0.148	-0.083	1.004	-0.2291832	0	0	174.8954295	8.60582916	-68.10751746
7.72	772	0.148	-0.083	1.002	-0.1718874	0	0	174.8896999	8.60582916	-68.10751746
7.73	773	0.148	-0.082	1.003	-0.1718874	0	0	174.8896999	8.60582916	-68.10751746
7.74	774	0.148	-0.082	1.005	-0.286479	0.1718874	0	174.8839703	8.60582916	-68.10751746
7.75	775	0.149	-0.082	1.006	-0.3437748	0.0572958	0	174.8839703	8.60582916	-68.10751746
7.76	776	0.148	-0.082	1.005	-0.4010706	0	0	174.8782408	8.60582916	-68.10751746
7.77	777	0.148	-0.084	1.003	-0.2291832	0	0	174.8782408	8.60582916	-68.10751746
7.78	778	0.147	-0.084	1.002	0	0	0.0572958	174.8782408	8.60582916	-68.10751746
7.79	779	0.148	-0.083	1.005	-0.0572958	0.0572958	0.0572958	174.8782408	8.60582916	-68.10751746
7.8	780	0.149	-0.084	1.007	-0.3437748	0.1718874	0.0572958	174.8782408	8.60582916	-68.11324704
7.81	781	0.148	-0.083	1.009	-0.5156622	0	0	174.8725112	8.60582916	-68.11324704
7.82	782	0.149	-0.083	1.009	-0.5156622	-0.1145916	0.0572958	174.8667816	8.60582916	-68.11324704
7.83	783	0.149	-0.083	1.009	-0.4583664	-0.0572958	0.0572958	174.861052	8.60582916	-68.11324704
7.84	784	0.149	-0.084	1.008	-0.3437748	0	0	174.8553224	8.60582916	-68.11324704
7.85	785	0.148	-0.083	1.007	-0.286479	0	0	174.8553224	8.60582916	-68.11324704
7.86	786	0.149	-0.083	1.005	-0.1718874	0.1718874	0	174.8553224	8.60582916	-68.11324704
7.87	787	0.147	-0.083	1.003	0	0.0572958	0.0572958	174.8553224	8.60582916	-68.11324704
7.88	788	0.147	-0.082	1.002	0.1145916	0	0	174.8553224	8.60582916	-68.11324704
7.89	789	0.147	-0.083	1.003	0.0572958	0.0572958	0	174.8553224	8.60009958	-68.11324704
7.9	790	0.148	-0.083	1.003	0	0.0572958	0	174.8553224	8.59437	-68.11897662
7.91	791	0.147	-0.084	1.002	0	0	0	174.8553224	8.59437	-68.11897662
7.92	792	0.147	-0.083	1.002	-0.0572958	0.0572958	0	174.8495929	8.59437	-68.11897662
7.93	793	0.147	-0.084	1.004	0	0.0572958	0	174.8495929	8.59437	-68.11897662
7.94	794	0.147	-0.083	1.004	0	0.0572958	0	174.8495929	8.59437	-68.11897662
7.95	795	0.147	-0.084	1.006	-0.0572958	0	0	174.8553224	8.58864042	-68.11897662
7.96	796	0.148	-0.083	1.008	0	0	0	174.8553224	8.58864042	-68.11897662
7.97	797	0.149	-0.083	1.007	0	0	0	174.8553224	8.58864042	-68.11897662
7.98	798	0.148	-0.083	1.007	0	0	0	174.8553224	8.58864042	-68.11897662
7.99	799	0.148	-0.084	1.006	0	-0.0572958	0	174.8553224	8.58864042	-68.11897662
8	800	0.148	-0.083	1.007	0	-0.1145916	-0.0572958	174.8667816	8.59437	-68.11897662
8.01	801	0.148	-0.085	1.007	0.0572958	-0.0572958	0	174.8667816	8.59437	-68.11324704
8.02	802	0.147	-0.083	1.004	0	0	-0.0572958	174.8667816	8.59437	-68.11324704
8.03	803	0.148	-0.084	1.002	0	0.0572958	-0.0572958	174.8667816	8.59437	-68.11324704
8.04	804	0.148	-0.085	1.002	0	0	0	174.8667816	8.59437	-68.11324704
8.05	805	0.147	-0.083	1.003	0	0.0572958	0	174.8553224	8.57718126	-68.11897662
8.06	806	0.147	-0.084	1.004	-0.0572958	0.0572958	0	174.8553224	8.57718126	-68.11897662
8.07	807	0.147	-0.084	1.004	-0.1145916	0	0	174.8495929	8.57718126	-68.11897662
8.08	808	0.147	-0.085	1.004	-0.0572958	0	0	174.8495929	8.57145168	-68.11897662
8.09	809	0.148	-0.085	1.005	-0.1145916	-0.0572958	0	174.8495929	8.57718126	-68.11897662
8.1	810	0.148	-0.085	1.006	-0.0572958	-0.0572958	0	174.8381337	8.55999252	-68.11897662
8.11	811	0.148	-0.084	1.007	-0.0572958	-0.1145916	0	174.8324041	8.5657221	-68.11897662
8.12	812	0.149	-0.084	1.007	0	-0.1145916	0	174.8324041	8.5657221	-68.11897662
8.13	813	0.148	-0.084	1.005	0	-0.0572958	0	174.8324041	8.5657221	-68.11897662
8.14	814	0.148	-0.083	1.005	0	-0.0572958	0	174.8324041	8.5657221	-68.11897662
8.15	815	0.148	-0.084	1.005	0	0	0	174.8438633	8.57145168	-68.11897662
8.16	816	0.147	-0.084	1.005	0	0	0	174.8438633	8.57145168	-68.11897662
8.17	817	0.147	-0.084	1.005	0	0	0	174.8438633	8.57145168	-68.11897662
8.18	818	0.147	-0.084	1.005	0	0	0	174.8438633	8.57145168	-68.11897662
8.19	819	0.148	-0.085	1.003	0.0572958	0	0	174.8438633	8.57145168	-68.11897662
8.2	820	0.148	-0.085	1.005	0.0572958	0	0	174.8438633	8.5657221	-68.11897662
8.21	821	0.147	-0.084	1.004	0.1145916	0	0	174.8438633	8.5657221	-68.11897662
8.22	822	0.148	-0.085	1.004	0.0572958	0	0	174.8438633	8.57145168	-68.11897662
8.23	823	0.148	-0.086	1.004	0.1145916	0	0	174.8438633	8.57145168	-68.11897662
8.24	824	0.148	-0.085	1.005	0.0572958	0	0	174.8438633	8.57145168	-68.11897662
8.25	825	0.148	-0.085	1.004	0	0	0	174.8266745	8.57145168	-68.11897662
8.26	826	0.148	-0.085	1.006	0	0	0	174.8266745	8.57145168	-68.11897662
8.27	827	0.148	-0.085	1.006	0	0	0	174.8266745	8.57145168	-68.11897662
8.28	828	0.148	-0.086	1.006	0	0	0	174.8266745	8.57145168	-68.11897662
8.29	829	0.148	-0.085	1.007	0	0	0	174.8266745	8.57145168	-68.11897662
8.3	830	0.148	-0.085	1.005	0	0	0	174.7980266	8.55426294	-68.1247062
8.31	831	0.147	-0.085	1.005	0	0	0	174.7980266	8.54853336	-68.11897662
8.32	832	0.147	-0.085	1.005	0	0	-0.0572958	174.7980266	8.55426294	-68.11897662
8.33	833	0.148	-0.085	1.004	0	0	0	174.7980266	8.54853336	-68.11897662
8.34	834	0.148	-0.085	1.005	0	0	0	174.7980266	8.55426294	-68.11897662
8.35	835	0.147	-0.085	1.005	0.0572958	0	0	174.7980266	8.54853336	-68.11897662
8.36	836	0.147	-0.085	1.006	0.0572958	0.0572958	0	174.7980266	8.54853336	-68.11897662
8.37	837	0.147	-0.086	1.004	0	0.0572958	0	174.7980266	8.54853336	-68.11897662
8.38	838	0.148	-0.085	1.005	0	0	0	174.7980266	8.54853336	-68.11897662
8.39	839	0.147	-0.085	1.004	0.0572958	0	0	174.7980266	8.54853336	-68.11897662
8.4	840	0.147	-0.085	1.003	0.1145916	0	0	174.7922971	8.54853336	-68.11897662
8.41	841	0.148	-0.085	1.003	0.1145916	0	0	174.7980266	8.54853336	-68.11897662
8.42	842	0.147	-0.085	1.004	0.0572958	-0.0572958	0	174.7980266	8.54853336	-68.11897662
8.43	843	0.147	-0.085	1.005	0.0572958	0	0	174.7980266	8.54853336	-68.11897662
8.44	844	0.148	-0.084	1.004	0.1145916	0	0	174.7980266	8.54853336	-68.11897662
8.45	845	0.147	-0.085	1.005	0.0572958	0	0	174.8037562	8.5370742	-68.1247062
8.46	846	0.148	-0.086	1.005	0	0	0	174.8037562	8.5370742	-68.1247062
8.47	847	0.148	-0.086	1.005	0	0	0	174.8037562	8.5370742	-68.11897662
8.48	848	0.147	-0.086	1.006	0	0	-0.0572958	174.8037562	8.5370742	-68.11897662
8.49	849	0.146	-0.085	1.006	-0.0572958	0.0572958	0	174.8037562	8.5370742	-68.11897662
8.5	850	0.147	-0.085	1.005	-0.0572958	0.0572958	0	174.7922971	8.54280378	-68.11897662
8.51	851	0.147	-0.085	1.003	0	0.0572958	-0.0572958	174.7980266	8.54280378	-68.11897662
8.52	852	0.146	-0.086	1.003	0.1145916	0	0	174.7980266	8.54280378	-68.11897662
8.53	853	0.148	-0.086	1.004	0.0572958	0.1145916	0	174.7980266	8.54280378	-68.11897662
8.54	854	0.149	-0.086	1.006	-0.1145916	0.1145916	0	174.7980266	8.5370742	-68.11897662
8.55	855	0.147	-0.086	1.006	-0.2291832	0	0	174.7922971	8.54280378	-68.11897662
8.56	856	0.148	-0.086	1.005	-0.1718874	-0.1718874	0.0572958	174.7865675	8.54280378	-68.11897662
8.57	857	0.147	-0.086	1.005	-0.1145916	-0.1145916	0	174.7865675	8.54280378	-68.11897662
8.58	858	0.148	-0.086	1.006	0	-0.0572958	0	174.7865675	8.54853336	-68.11897662
8.59	859	0.148	-0.085	1.006	0.0572958	-0.0572958	0.0572958	174.7865675	8.54853336	-68.11897662
8.6	860	0.148	-0.087	1.005	0.0572958	-0.1145916	0	174.7808379	8.54853336	-68.1247062
8.61	861	0.147	-0.086	1.004	0	-0.0572958	0	174.7808379	8.54853336	-68.1247062
8.62	862	0.147	-0.085	1.003	0	0	0	174.7808379	8.54853336	-68.1247062
8.63	863	0.147	-0.086	1.002	0	0	0	174.7808379	8.54853336	-68.1247062
8.64	864	0.147	-0.086	1.004	0	-0.0572958	0	174.7808379	8.54853336	-68.1247062
8.65	865	0.148	-0.086	1.005	-0.0572958	-0.0572958	0	174.7636492	8.54853336	-68.1247062
8.66	866	0.147	-0.086	1.004	0	0	0.0572958	174.7636492	8.54853336	-68.1247062
8.67	867	0.147	-0.086	1.005	0	-0.0572958	0	174.7636492	8.54853336	-68.1247062
8.68	868	0.148	-0.085	1.004	0	0	0	174.7636492	8.54853336	-68.1247062
8.69	869	0.147	-0.086	1.005	0.1145916	0	0	174.7693787	8.54853336	-68.1247062
8.7	870	0.147	-0.086	1.006	0.1718874	0	0	174.7579196	8.54853336	-68.1247062
8.71	871	0.147	-0.086	1.006	0.1718874	0	0	174.7636492	8.54853336	-68.1247062
8.72	872	0.147	-0.087	1.006	0.1145916	0	0	174.7636492	8.54853336	-68.1247062
8.73	873	0.148	-0.085	1.005	0.0572958	0	0	174.7636492	8.54853336	-68.1247062
8.74	874	0.147	-0.086	1.004	0.1145916	0	0	174.7693787	8.54853336	-68.1247062
8.75	875	0.147	-0.087	1.004	0.1145916	0	0	174.7579196	8.54853336	-68.1247062
8.76	876	0.147	-0.086	1.003	0.1145916	0	0	174.7579196	8.54853336	-68.1247062
8.77	877	0.147	-0.086	1.004	0.0572958	0	0	174.7579196	8.54853336	-68.1247062
8.78	878	0.147	-0.087	1.004	0.1145916	0.0572958	-0.0572958	174.7636492	8.54853336	-68.1247062
8.79	879	0.147	-0.087	1.004	0.0572958	0.0572958	0	174.7636492	8.54853336	-68.1247062
8.8	880	0.148	-0.086	1.005	0	0.0572958	0	174.7407308	8.55426294	-68.1247062
8.81	881	0.147	-0.087	1.004	-0.0572958	0	0	174.7407308	8.55426294	-68.1247062
8.82	882	0.147	-0.087	1.004	-0.0572958	-0.0572958	0	174.7407308	8.55426294	-68.1247062
8.83	883	0.147	-0.088	1.006	0	0	0	174.7407308	8.55426294	-68.1247062
8.84	884	0.148	-0.087	1.006	0	0	0	174.7407308	8.55426294	-68.1247062
8.85	885	0.147	-0.086	1.006	0	0	0	174.7350013	8.54853336	-68.1247062
8.86	886	0.147	-0.086	1.006	0	0	0	174.7350013	8.54853336	-68.1247062
8.87	887	0.146	-0.086	1.004	0.0572958	0	0	174.7350013	8.54853336	-68.1247062
8.88	888	0.147	-0.087	1.005	0	0	0	174.7350013	8.54853336	-68.1247062
8.89	889	0.147	-0.086	1.003	0.0572958	0.0572958	0	174.7350013	8.54280378	-68.1247062
8.9	890	0.147	-0.086	1.005	0.0572958	0.0572958	0	174.7350013	8.54280378	-68.1247062
8.91	891	0.147	-0.086	1.004	0	0.0572958	0	174.7350013	8.54280378	-68.1247062
8.92	892	0.146	-0.086	1.004	0	0.1145916	0	174.7350013	8.54280378	-68.1247062
8.93	893	0.147	-0.087	1.004	-0.0572958	0.1145916	0	174.7350013	8.5370742	-68.1247062
8.94	894	0.146	-0.088	1.004	0	0.0572958	0	174.7350013	8.5370742	-68.1247062
8.95	895	0.147	-0.087	1.003	0	-0.0572958	0	174.7235421	8.53134462	-68.13043578
8.96	896	0.146	-0.086	1.004	0.1145916	-0.1145916	0	174.7235421	8.5370742	-68.13043578
8.97	897	0.146	-0.087	1.004	0.1718874	-0.0572958	0	174.7292717	8.5370742	-68.13043578
