TimeStamp(s)	FrameCounter	AccX	AccY	AccZ	GyrX	GyrY	GyrZ	EulerX	EulerY	EulerZ
0.01	1	0.109	-1.002	-0.001	-8.7089616	8.2505952	-1.3178034	98.8639029	14.84534178	108.5984593
0.02	2	0.126	-0.983	-0.032	-8.1360036	0.3437748	-2.1772404	98.78368878	14.8682601	108.6041889
0.03	3	0.119	-0.984	-0.031	-8.1932994	0.4010706	-2.1199446	98.70347466	14.88544884	108.6099185
0.04	4	0.117	-0.986	-0.029	-7.9068204	1.0313244	-2.005353	98.62326054	14.90836716	108.6271072
0.05	5	0.116	-0.988	-0.022	-7.2192708	1.3750992	-2.005353	98.42272524	14.85680094	108.6271072
0.06	6	0.118	-0.992	-0.015	-6.3598338	1.2605076	-2.005353	98.35969986	14.87398968	108.644296
0.07	7	0.121	-0.998	-0.007	-5.9014674	0.8021412	-2.2345362	98.30240406	14.89117842	108.6557551
0.08	8	0.125	-1.004	-0.002	-5.9014674	0.0572958	-2.4637194	98.24510826	14.91409674	108.6557551
0.09	9	0.127	-1.011	0	-6.1306506	-0.5156622	-2.9793816	98.18208288	14.94847422	108.6557551
0.1	10	0.128	-1.016	0	-6.0733548	-0.8021412	-3.4950438	98.01019548	14.91409674	108.6328368
0.11	11	0.129	-1.015	0.004	-5.9587632	-0.859437	-4.1825934	97.95289968	14.9542038	108.6328368
0.12	12	0.131	-1.015	0.01	-6.302538	-0.3437748	-4.8128472	97.88414472	15.00577002	108.6328368
0.13	13	0.132	-1.017	0.017	-7.0473834	0.6302538	-5.5576926	97.81538976	15.05733624	108.6500255
0.14	14	0.133	-1.025	0.02	-7.734933	2.4637194	-6.2452422	97.7466348	15.11463204	108.684403
0.15	15	0.134	-1.033	0.015	-8.8235532	4.7555514	-6.6463128	97.62631362	15.13182078	108.7245101
0.16	16	0.134	-1.036	0.01	-9.7975818	6.7609044	-6.7036086	97.5460995	15.18911658	108.8047242
0.17	17	0.131	-1.036	0.002	-11.0580894	8.4224826	-6.7036086	97.4601558	15.2406828	108.8963975
0.18	18	0.132	-1.025	-0.01	-12.1467096	10.1413566	-6.4744254	97.36275294	15.28651944	109.0052595
0.19	19	0.142	-1.003	-0.028	-12.6623718	11.6883432	-6.0733548	97.26535008	15.3266265	109.1313103
0.2	20	0.154	-0.983	-0.036	-12.891555	12.605076	-5.5003968	97.12211058	15.34954482	109.2688202
0.21	21	0.164	-0.966	-0.033	-12.9488508	12.8342592	-4.6409598	97.02470772	15.37819272	109.4006005
0.22	22	0.174	-0.957	-0.025	-13.1207382	12.0894138	-3.9534102	96.92157528	15.39538146	109.5266513
0.23	23	0.186	-0.955	-0.016	-13.2353298	10.5424272	-3.3804522	96.81271326	15.4125702	109.6355133
0.24	24	0.193	-0.962	-0.009	-13.2926256	8.5370742	-3.2658606	96.70385124	15.43548852	109.7271866
0.25	25	0.192	-0.983	-0.006	-13.6364004	6.302538	-3.5523396	96.53196384	15.44694768	109.7959415
0.26	26	0.184	-1.003	-0.006	-13.8082878	4.1252976	-4.1252976	96.4001835	15.48132516	109.8360486
0.27	27	0.173	-1.013	-0.01	-13.3499214	2.5210152	-4.9847346	96.27413274	15.5271618	109.8704261
0.28	28	0.161	-1.014	-0.01	-12.4904844	1.4896908	-5.9014674	96.15381156	15.57872802	109.8876148
0.29	29	0.151	-1.008	-0.005	-11.9175264	0.9740286	-6.7036086	96.03349038	15.64748298	109.9048036
0.3	30	0.145	-0.998	0.003	-11.6883432	1.0886202	-7.0473834	95.8845213	15.6704013	109.9048036
0.31	31	0.146	-0.993	0.013	-12.2613012	1.4896908	-7.1046792	95.76420012	15.73915626	109.9277219
0.32	32	0.147	-0.991	0.021	-13.4072172	2.291832	-7.0473834	95.63814936	15.80218164	109.9563698
0.33	33	0.146	-0.996	0.026	-14.4958374	3.151269	-7.1046792	95.50063944	15.8709366	109.9964768
0.34	34	0.146	-1.006	0.032	-15.183387	4.010706	-7.2765666	95.35739994	15.93396198	110.0423135
0.35	35	0.149	-1.012	0.036	-15.6990492	4.7555514	-7.5630456	95.1969717	15.96260988	110.076691
0.36	36	0.157	-1.005	0.037	-15.183387	5.0993262	-7.7922288	95.05946178	16.03709442	110.1397163
0.37	37	0.165	-0.996	0.035	-14.4958374	4.9847346	-8.021412	94.92768144	16.10584938	110.1912826
0.38	38	0.172	-0.991	0.032	-14.2666542	4.9847346	-7.9068204	94.7959011	16.18033392	110.2485784
0.39	39	0.177	-0.988	0.027	-14.037471	5.2139178	-7.5630456	94.66985034	16.24908888	110.3116037
0.4	40	0.175	-0.987	0.026	-13.750992	4.8128472	-7.161975	94.52661084	16.28346636	110.3459812
0.41	41	0.18	-0.985	0.024	-13.464513	3.6669312	-6.7036086	94.40056008	16.34076216	110.3918179
0.42	42	0.184	-0.984	0.015	-13.4072172	2.2345362	-6.3598338	94.27450932	16.40378754	110.4147362
0.43	43	0.194	-0.982	0.008	-13.4072172	1.145916	-6.2452422	94.14272898	16.46108334	110.4319249
0.44	44	0.201	-0.982	0.004	-13.2353298	-0.1145916	-6.2452422	94.00521906	16.52410872	110.4319249
0.45	45	0.206	-0.978	-0.002	-12.9488508	-0.859437	-6.2452422	93.83906124	16.56421578	110.4204658
0.46	46	0.204	-0.979	-0.003	-12.5477802	-1.2032118	-6.1879464	93.7072809	16.62724116	110.4090066
0.47	47	0.2	-0.977	-0.001	-12.3758928	-1.718874	-6.016059	93.58123014	16.68453696	110.3918179
0.48	48	0.198	-0.976	-0.001	-12.2613012	-2.1772404	-5.6149884	93.4494498	16.74183276	110.3746291
0.49	49	0.201	-0.971	-0.002	-12.5477802	-2.6929026	-5.0993262	93.31193988	16.79339898	110.3459812
0.5	50	0.208	-0.972	-0.007	-13.1207382	-3.3804522	-4.6409598	93.14005248	16.82204688	110.3058742
0.51	51	0.213	-0.974	-0.02	-13.3499214	-4.297185	-4.1825934	92.9910834	16.86215394	110.2600375
0.52	52	0.223	-0.975	-0.033	-13.464513	-5.0420304	-4.1252976	92.84211432	16.90799058	110.2084713
0.53	53	0.239	-0.964	-0.053	-13.1207382	-4.9847346	-4.3544808	92.69314524	16.95382722	110.1569051
0.54	54	0.25	-0.946	-0.068	-11.6310474	-4.6409598	-4.3544808	92.5613649	16.99966386	110.1110684
0.55	55	0.254	-0.932	-0.075	-10.2559482	-5.156622	-4.0680018	92.37801834	17.05695966	110.0709614
0.56	56	0.253	-0.92	-0.069	-8.880849	-6.8182002	-3.3231564	92.26915632	17.09133714	110.0022064
0.57	57	0.255	-0.91	-0.059	-6.6463128	-9.0527364	-2.4637194	92.17175346	17.12571462	109.9048036
0.58	58	0.261	-0.91	-0.049	-4.2398892	-11.6883432	-1.5469866	92.09726892	17.14863294	109.7844824
0.59	59	0.266	-0.909	-0.033	-1.9480572	-14.8396122	-0.4010706	92.03424354	17.1600921	109.6355133
0.6	60	0.275	-0.906	-0.015	2.1199446	-19.4232762	1.145916	91.97694774	17.17155126	109.4407076
0.61	61	0.287	-0.903	0.009	6.7609044	-24.0069402	2.9220858	91.97694774	17.15436252	109.1886061
0.62	62	0.301	-0.908	0.037	10.7716104	-27.8457588	4.870143	92.00559564	17.12571462	108.9021271
0.63	63	0.313	-0.919	0.068	14.5531332	-31.6845774	7.161975	92.05716186	17.0741484	108.575541
0.64	64	0.32	-0.944	0.097	17.7044022	-36.096354	9.6256944	92.1316464	17.00539344	108.1973887
0.65	65	0.317	-0.985	0.104	19.9389384	-41.9405256	11.0580894	92.2175901	16.91944974	107.7619406
0.66	66	0.288	-1.107	0.03	17.3033316	-46.982556	10.2559482	92.26342674	16.85069478	107.2749263
0.67	67	0.192	-1.292	-0.11	10.1413566	-45.9512316	3.7815228	92.23477884	16.8449652	106.8051008
0.68	68	0.089	-1.337	-0.118	11.745639	-33.1742682	-4.3544808	92.25769716	16.91372016	106.461326
0.69	69	0.023	-1.305	-0.078	17.6471064	-20.7983754	-7.161975	92.37801834	16.99966386	106.2550611
0.7	70	0.044	-1.212	-0.075	16.042824	-15.8136408	-4.6409598	92.48115078	17.0168526	106.0774441
0.71	71	0.092	-1.087	-0.088	14.9542038	-16.2147114	2.6929026	92.5900128	16.99966386	105.9112863
0.72	72	0.138	-0.985	-0.088	14.1520626	-18.9649098	12.3758928	92.6759565	16.89080184	105.710751
0.73	73	0.179	-0.948	-0.122	13.0634424	-25.2674478	20.340009	92.7332523	16.71318486	105.4414607
0.74	74	0.197	-0.977	-0.151	12.3758928	-33.7472262	24.064236	92.7619002	16.49546082	105.0804972
0.75	75	0.193	-1.002	-0.164	12.605076	-41.6540466	23.491278	92.74471146	16.29492552	104.6450491
0.76	76	0.175	-1.003	-0.174	14.1520626	-47.6128098	18.9649098	92.75617062	16.14022686	104.1523052
0.77	77	0.124	-0.964	-0.177	16.2147114	-51.279741	12.3758928	92.78481852	16.06001274	103.6194543
0.78	78	0.059	-0.908	-0.171	18.5638392	-51.2224452	6.302538	92.83065516	16.03709442	103.0923329
0.79	79	0.014	-0.888	-0.162	18.048177	-49.0452048	2.291832	92.88222138	16.05428316	102.5881299
0.8	80	-0.025	-0.892	-0.149	13.8082878	-45.3209778	-0.2291832	92.8764918	16.05428316	102.1183043
0.81	81	-0.07	-0.906	-0.13	9.1100322	-39.9351726	-2.0626488	92.86503264	16.10584938	101.7115042
0.82	82	-0.112	-0.93	-0.121	4.7555514	-33.4034514	-3.0366774	92.82492558	16.16314518	101.3677294
0.83	83	-0.14	-0.969	-0.13	0.8021412	-26.929026	-2.5210152	92.75617062	16.20898182	101.0927095
0.84	84	-0.135	-1	-0.136	-1.3178034	-21.8869956	-0.5156622	92.68168608	16.23190014	100.8692559
0.85	85	-0.107	-1.011	-0.124	-1.432395	-18.3919518	2.291832	92.57855364	16.08293106	100.6286135
0.86	86	-0.066	-1.025	-0.11	-1.2605076	-14.896908	5.5003968	92.52125784	16.03709442	100.4739149
0.87	87	-0.02	-1.043	-0.098	-1.8907614	-10.2559482	9.0527364	92.4754212	15.95115072	100.3650529
0.88	88	0.013	-1.057	-0.095	-1.7761698	-5.7868758	12.605076	92.44104372	15.83082954	100.2962979
0.89	89	0.039	-1.058	-0.088	0.4010706	-2.1199446	15.9855282	92.43531414	15.67613088	100.26765
0.9	90	0.052	-1.054	-0.076	3.6096354	0.7448454	18.907614	92.44104372	15.42402936	100.2504613
0.91	91	0.059	-1.033	-0.066	5.3858052	2.7501984	21.3140376	92.5040691	15.2120349	100.26765
0.92	92	0.051	-1.006	-0.057	5.6149884	3.151269	22.4026578	92.56709448	14.98858128	100.2905683
0.93	93	0.038	-0.981	-0.055	4.5263682	2.8074942	21.8296998	92.6186607	14.77085724	100.3077571
0.94	94	0.024	-0.968	-0.056	2.8074942	1.9480572	20.340009	92.6473086	14.57032194	100.3192162
0.95	95	0.014	-0.964	-0.059	0.572958	0.7448454	18.3919518	92.61293112	14.28957252	100.2905683
0.96	96	0.011	-0.96	-0.06	-1.7761698	0.1145916	16.329303	92.59574238	14.1234147	100.2791092
0.97	97	0.007	-0.959	-0.059	-4.1825934	0.286479	14.7250206	92.54990574	13.9801752	100.2791092
0.98	98	0.004	-0.961	-0.062	-6.1879464	1.0313244	13.5218088	92.49260994	13.84266528	100.2791092
0.99	99	0	-0.964	-0.066	-7.3338624	1.718874	12.7769634	92.4181254	13.71088494	100.2905683
1	100	-0.005	-0.966	-0.059	-8.4224826	3.3231564	12.5477802	92.31499296	13.51034964	100.2962979
1.01	101	-0.01	-0.968	-0.047	-9.5111028	5.9587632	12.318597	92.22904926	13.38429888	100.3478641
1.02	102	-0.018	-0.968	-0.041	-9.8548776	8.59437	11.9748222	92.14883514	13.25824812	100.4280782
1.03	103	-0.023	-0.965	-0.029	-9.9121734	10.886202	11.45916	92.06862102	13.13792694	100.5369403
1.04	104	-0.026	-0.962	-0.016	-9.8548776	13.178034	10.599723	91.99413648	13.02333534	100.662991
1.05	105	-0.024	-0.967	-0.006	-9.7975818	14.8396122	9.453807	91.9311111	12.85717752	100.7833122
1.06	106	-0.022	-0.973	0.008	-10.6570188	15.9282324	8.1360036	91.85662656	12.76550424	100.9437404
1.07	107	-0.017	-0.976	0.019	-11.4018642	16.7876694	6.6463128	91.77068286	12.68529012	101.1098983
1.08	108	-0.008	-0.977	0.022	-11.9175264	17.8762896	5.2139178	91.69046874	12.62226474	101.2875152
1.09	109	-0.003	-0.967	0.011	-12.7769634	18.5065434	3.437748	91.59879546	12.5764281	101.4708618
1.1	110	0.005	-0.959	-0.016	-13.9801752	18.7930224	1.7761698	91.48420386	12.50194356	101.6427492
1.11	111	0.018	-0.954	-0.056	-14.610429	18.2773602	0.572958	91.37534184	12.48475482	101.8260958
1.12	112	0.024	-0.93	-0.087	-13.4072172	16.7303736	-0.3437748	91.2722094	12.47902524	101.9922536
1.13	113	0.021	-0.916	-0.1	-10.9434978	15.6417534	-1.432395	91.19199528	12.48475482	102.1526818
1.14	114	0.008	-0.917	-0.081	-7.734933	15.8709366	-2.6356068	91.14615864	12.50194356	102.3073805
1.15	115	0.004	-0.946	-0.051	-5.6722842	16.9595568	-3.2085648	91.11178116	12.45610692	102.4563496
1.16	116	0.015	-0.977	-0.018	-3.3804522	18.8503182	-2.2345362	91.11751074	12.46756608	102.6454257
1.17	117	0.028	-1.007	0.026	-0.0572958	21.199446	-0.4583664	91.1576178	12.4618365	102.8631497
1.18	118	0.031	-1.034	0.053	4.0680018	22.4026578	1.7761698	91.2435615	12.4331886	103.0866034
1.19	119	0.041	-1.062	0.076	8.59437	20.9702628	4.297185	91.37534184	12.38162238	103.2985978
1.2	120	0.051	-1.089	0.106	12.7769634	18.1054728	6.2452422	91.57014756	12.26703078	103.4590261
1.21	121	0.05	-1.089	0.145	15.9855282	15.5844576	6.6463128	91.76495328	12.19254624	103.6194543
1.22	122	0.032	-1.066	0.19	19.194093	14.5531332	5.3858052	91.9884069	12.13525044	103.7684234
1.23	123	0	-1.075	0.201	21.0848544	15.6417534	3.0366774	92.23477884	12.09514338	103.923122
1.24	124	0.03	-1.273	0.05	12.7769634	17.5898106	3.0939732	92.40093666	12.05503632	104.100739
1.25	125	0.106	-1.473	-0.119	-1.4896908	9.9121734	11.1153852	92.39520708	11.92898556	104.1981419
1.26	126	0.149	-1.283	-0.037	12.032118	-1.9480572	14.2666542	92.50979868	11.78574606	104.169494
1.27	127	0.104	-1.345	-0.087	16.7876694	-4.583664	15.0114996	92.6759565	11.64250656	104.1179278
1.28	128	0	-1.288	-0.132	17.5325148	-0.572958	12.9488508	92.8478439	11.5164558	104.1121982
1.29	129	-0.034	-1.167	-0.217	18.1054728	9.6829902	4.0680018	93.05410878	11.47061916	104.209601
1.3	130	-0.036	-1.168	-0.261	13.2926256	19.767051	-2.6356068	93.18015954	11.45343042	104.4101363
1.31	131	-0.058	-1.1	-0.218	14.4958374	22.2307704	-7.2192708	93.36923568	11.50499664	104.6393195
1.32	132	-0.064	-1.098	-0.212	15.9282324	28.0176462	-10.4278356	93.58695972	11.58521076	104.9315281
1.33	133	-0.014	-1.061	-0.232	13.8655836	36.096354	-11.1153852	93.7932246	11.66542488	105.3039508
1.34	134	0.074	-0.99	-0.277	11.8602306	45.7220484	-11.3445684	94.00521906	11.73417984	105.7680468
1.35	135	0.12	-0.913	-0.338	10.7143146	54.6028974	-8.4224826	94.15418814	11.7742869	106.3467344
1.36	136	0.068	-0.859	-0.34	9.453807	53.858052	-0.9167328	94.35472344	11.73417984	106.8853149
1.37	137	-0.019	-0.86	-0.294	5.6149884	50.0192334	7.3911582	94.50369252	11.60812908	107.3837884
1.38	138	-0.056	-0.857	-0.236	-1.8334656	47.0398518	13.3499214	94.57244748	11.42478252	107.8478843
1.39	139	-0.03	-0.86	-0.21	-10.313244	44.2896534	14.896908	94.54379958	11.2299768	108.2776028
1.4	140	0.039	-0.9	-0.199	-13.6936962	41.8832298	11.6883432	94.43493756	11.06381898	108.6901326
1.41	141	0.117	-0.963	-0.185	-10.6570188	39.247623	6.016059	94.3948305	10.96641612	109.079744
1.42	142	0.163	-0.998	-0.158	-4.583664	36.8411994	0.1718874	94.41201924	10.92630906	109.4464372
1.43	143	0.172	-0.99	-0.127	-0.3437748	33.804522	-4.870143	94.46931504	10.93776822	109.790212
1.44	144	0.172	-0.967	-0.11	2.4064236	31.9137606	-8.9381448	94.55525874	10.99506402	110.116798
1.45	145	0.168	-0.952	-0.097	4.5263682	31.3980984	-12.2613012	94.61828412	11.09246688	110.4548432
1.46	146	0.164	-0.95	-0.08	5.443101	31.226211	-15.0114996	94.73287572	11.20705848	110.7814293
1.47	147	0.162	-0.951	-0.069	4.8128472	31.1116194	-16.6730778	94.84173774	11.33883882	111.1080154
1.48	148	0.162	-0.946	-0.069	2.8074942	30.4813656	-16.615782	94.92768144	11.46488958	111.4288718
1.49	149	0.168	-0.946	-0.074	0.8021412	29.2781538	-14.7823164	94.99070682	11.57948118	111.7325396
1.5	150	0.181	-0.948	-0.08	-1.5469866	27.3873924	-12.0894138	94.97924766	11.68261362	112.0304777
1.51	151	0.191	-0.947	-0.081	-3.8388186	24.350715	-9.3392154	94.99070682	11.745639	112.2825793
1.52	152	0.192	-0.946	-0.078	-5.8441716	20.4546006	-7.1046792	94.9677885	11.79720522	112.4945737
1.53	153	0.191	-0.95	-0.08	-8.0787078	16.4438946	-6.1879464	94.92195186	11.83731228	112.6664611
1.54	154	0.192	-0.951	-0.088	-10.6570188	13.0061466	-6.589017	94.83600816	11.8888785	112.803971
1.55	155	0.19	-0.953	-0.1	-12.891555	10.0840608	-8.021412	94.65839118	11.9748222	112.9242922
1.56	156	0.184	-0.954	-0.111	-15.9855282	5.5576926	-10.3705398	94.5094221	12.06649548	112.9873176
1.57	157	0.174	-0.937	-0.122	-16.3865988	2.6356068	-12.1467096	94.34899386	12.18681666	113.0216951
1.58	158	0.165	-0.925	-0.119	-14.2093584	0.8021412	-13.2353298	94.20575436	12.31286742	113.0388838
1.59	159	0.15	-0.919	-0.1	-10.026765	-1.2032118	-13.750992	94.10262192	12.45037734	113.0388838
1.6	160	0.148	-0.923	-0.071	-5.6722842	-4.3544808	-13.8082878	93.98230074	12.58215768	113.0045063
1.61	161	0.137	-0.919	-0.049	-1.7761698	-7.7922288	-13.5218088	93.95365284	12.72539718	112.9357514
1.62	162	0.131	-0.909	-0.022	3.7815228	-10.6570188	-13.0634424	93.97084158	12.8629071	112.8383485
1.63	163	0.112	-0.919	0.013	9.5683986	-12.7196676	-13.464513	94.04532612	13.01187618	112.7180273
1.64	164	0.086	-0.936	0.031	15.469866	-14.0947668	-15.2406828	94.17137688	13.178034	112.5919766
1.65	165	0.08	-0.948	0.031	18.621135	-13.464513	-16.2720072	94.33180512	13.32700308	112.4544667
1.66	166	0.085	-0.96	0.042	21.6578124	-13.2353298	-15.3552744	94.52661084	13.4931609	112.3398751
1.67	167	0.102	-0.966	0.05	23.0329116	-13.0061466	-12.7769634	94.73287572	13.6364004	112.2195539
1.68	168	0.114	-0.963	0.058	22.8037284	-13.464513	-8.6516658	94.9391406	13.73953284	112.0935031
1.69	169	0.131	-0.955	0.07	22.0015872	-14.7823164	-4.010706	95.12821674	13.79682864	111.9502636
1.7	170	0.151	-0.948	0.082	21.1421502	-17.3606274	0.3437748	95.30010414	13.79682864	111.7726466
1.71	171	0.175	-0.952	0.085	20.9702628	-19.8816426	3.724227	95.47199154	13.78536948	111.5663818
1.72	172	0.201	-0.965	0.101	22.5745452	-23.5485738	6.6463128	95.64387894	13.750992	111.3257394
1.73	173	0.224	-0.982	0.121	23.9496444	-27.1582092	7.5057498	95.8272255	13.71088494	111.04499
1.74	174	0.218	-1.002	0.156	25.3820394	-31.2835068	7.8495246	96.01057206	13.67650746	110.7241335
1.75	175	0.195	-1.019	0.19	25.6112226	-35.9244666	8.9381448	96.1996482	13.62494124	110.3517108
1.76	176	0.173	-1.028	0.208	24.8663772	-39.7632852	10.886202	96.36007644	13.57337502	109.939181
1.77	177	0.166	-1.029	0.218	24.4653066	-43.4875122	13.3499214	96.50904552	13.50462006	109.4922738
1.78	178	0.164	-1.031	0.217	24.2934192	-47.6701056	15.6990492	96.64655544	13.41867636	108.9938003
1.79	179	0.163	-1.042	0.206	23.2620948	-50.8213746	17.18874	96.7726062	13.3212735	108.466679
1.8	180	0.156	-1.068	0.174	21.3713334	-51.0505578	16.7876694	96.87573864	13.21814106	107.9280985
1.81	181	0.14	-1.113	0.123	21.4286292	-48.2430636	14.7250206	96.98460066	13.1493861	107.429625
1.82	182	0.11	-1.164	0.075	22.1161788	-43.6021038	12.1467096	97.116381	13.0920903	106.9769882
1.83	183	0.078	-1.196	0.012	21.772404	-37.9298196	10.026765	97.25389092	13.05198324	106.5873767
1.84	184	0.042	-1.204	-0.054	19.3086846	-33.1742682	8.7662574	97.3742121	13.01760576	106.2436019
1.85	185	0	-1.215	-0.123	15.6990492	-30.1948866	7.3911582	97.43723748	12.97176912	105.928475
1.86	186	-0.039	-1.225	-0.199	10.2559482	-25.496631	4.9847346	97.4888037	12.96030996	105.6649144
1.87	187	-0.067	-1.232	-0.297	2.6929026	-18.5638392	2.9793816	97.47734454	12.96030996	105.4758382
1.88	188	-0.089	-1.199	-0.392	-0.5156622	-11.8029348	0.6302538	97.44296706	12.97176912	105.355517
1.89	189	-0.115	-1.118	-0.458	4.1252976	-11.2872726	-2.1772404	97.4601558	13.01187618	105.246655
1.9	190	-0.118	-1.023	-0.48	8.3651868	-15.9855282	-4.3544808	97.36848252	13.04052408	105.0976859
1.91	191	-0.084	-0.935	-0.44	9.1100322	-22.345362	-5.2139178	97.41431916	13.12646778	104.8856915
1.92	192	-0.01	-0.881	-0.362	6.4171296	-25.4393352	-4.5263682	97.42577832	13.21241148	104.63359
1.93	193	0.091	-0.866	-0.301	0.6875496	-25.8977016	-3.4950438	97.37994168	13.28689602	104.3814884
1.94	194	0.187	-0.873	-0.235	-5.2139178	-26.929026	-2.8074942	97.26535008	13.35565098	104.1121982
1.95	195	0.262	-0.916	-0.161	-8.9954406	-26.1841806	-3.4950438	97.02470772	13.47024258	103.883015
1.96	196	0.28	-0.983	-0.137	-14.2666542	-22.345362	-4.9847346	96.83563158	13.5504567	103.6595614
1.97	197	0.232	-1.055	-0.15	-17.7044022	-18.7930224	-4.583664	96.61217796	13.62494124	103.4762148
1.98	198	0.148	-1.105	-0.157	-18.2200644	-15.6417534	-2.0626488	96.39445392	13.6650483	103.3157866
1.99	199	0.056	-1.128	-0.148	-16.042824	-12.3758928	1.9480572	96.1996482	13.65931872	103.1897358
2	200	-0.032	-1.116	-0.124	-12.8342592	-8.307891	6.302538	95.99338332	13.53326796	103.0751442
2.01	201	-0.1	-1.087	-0.098	-10.886202	-4.7555514	10.026765	95.86733256	13.44159468	103.0121188
2.02	202	-0.151	-1.066	-0.073	-10.026765	-1.5469866	13.1207382	95.75847054	13.30981434	102.9834709
2.03	203	-0.168	-1.05	-0.062	-9.6256944	1.5469866	15.6417534	95.66106768	13.15511568	102.9834709
2.04	204	-0.142	-1.039	-0.043	-8.9381448	6.9327918	16.7303736	95.58085356	12.9774987	103.0350371
2.05	205	-0.092	-1.042	-0.027	-9.167328	12.2613012	16.4438946	95.48918028	12.73112676	103.1152513
2.06	206	-0.046	-1.041	-0.022	-10.3705398	16.329303	16.1001198	95.41469574	12.55350978	103.2642203
2.07	207	-0.009	-1.033	-0.011	-10.7716104	19.2513888	15.756345	95.3402112	12.3758928	103.4418373
2.08	208	0.025	-1.027	0.008	-11.2872726	21.7151082	15.4125702	95.26572666	12.19254624	103.6423726
2.09	209	0.057	-1.019	0.027	-13.0061466	23.2620948	15.2406828	95.17978296	12.01492926	103.8600967
2.1	210	0.074	-1.007	0.026	-15.0687954	23.2620948	15.469866	95.0537322	11.81439396	104.0720911
2.11	211	0.076	-0.975	0.014	-15.0114996	22.4026578	15.756345	94.9391406	11.6310474	104.2840856
2.12	212	0.071	-0.947	0.009	-13.464513	21.0275586	15.8709366	94.84173774	11.44770084	104.4788913
2.13	213	0.056	-0.92	0.005	-13.0634424	20.9702628	15.2406828	94.74433488	11.27581344	104.673697
2.14	214	0.042	-0.9	0.005	-13.5791046	22.1161788	14.2666542	94.64120244	11.10965562	104.8799619
2.15	215	0.022	-0.891	0.009	-14.7823164	24.8090814	13.2926256	94.52661084	10.92057948	105.1091451
2.16	216	0.005	-0.889	0.007	-16.329303	28.5333084	12.5477802	94.40628966	10.76588082	105.3784354
2.17	217	-0.01	-0.892	0.001	-17.761698	31.7418732	12.1467096	94.2802389	10.61118216	105.6878327
2.18	218	-0.023	-0.896	0.006	-19.2513888	33.6326346	12.1467096	94.14272898	10.4564835	106.0086892
2.19	219	-0.026	-0.912	0.007	-20.5118964	34.7785506	12.605076	93.98803032	10.29605526	106.3467344
2.2	220	-0.025	-0.927	0.003	-22.345362	34.0337052	13.6364004	93.81041334	10.10124954	106.6675909
2.21	221	-0.016	-0.939	0.009	-23.0329116	32.0283522	14.610429	93.62706678	9.92363256	106.9712586
2.22	222	-0.005	-0.944	0.01	-24.5226024	30.0229992	14.7250206	93.4208019	9.75174516	107.2634672
2.23	223	0.005	-0.938	0.011	-25.8977016	29.220858	13.464513	93.20307786	9.58558734	107.5442166
2.24	224	0.014	-0.929	0.003	-27.5592798	28.7051958	11.3445684	92.9624355	9.44807742	107.8192364
2.25	225	0.017	-0.903	-0.017	-28.7624916	26.8144344	9.167328	92.69887482	9.31629708	108.071338
2.26	226	0.016	-0.869	-0.033	-28.074942	24.2361234	7.0473834	92.45250288	9.23035338	108.3119803
2.27	227	0.014	-0.835	-0.039	-25.7258142	22.5745452	4.1825934	92.22331968	9.167328	108.5297044
2.28	228	0.016	-0.816	-0.01	-19.0222056	22.6891368	0.3437748	92.05716186	9.15013926	108.753158
2.29	229	0.026	-0.822	0.033	-14.32395	24.2361234	-2.6929026	91.94829984	9.16159842	108.9938003
2.3	230	0.032	-0.837	0.083	-10.3705398	26.6998428	-4.9274388	91.9024632	9.16159842	109.2516314
2.31	231	0.026	-0.857	0.122	-6.9327918	29.6219286	-5.6722842	91.8738153	9.20170548	109.5495696
2.32	232	0.002	-0.882	0.16	-4.010706	32.6013102	-4.9847346	91.87954488	9.23035338	109.8761557
2.33	233	-0.012	-0.907	0.175	-1.4896908	35.236917	-3.6096354	91.91965194	9.24754212	110.22566
2.34	234	-0.018	-0.934	0.174	2.1199446	36.096354	-2.5210152	91.99413648	9.24754212	110.5923532
2.35	235	-0.009	-0.974	0.182	5.3858052	36.4401288	-2.4637194	92.14883514	9.20170548	110.9303984
2.36	236	0	-0.995	0.198	8.307891	38.961144	-4.010706	92.28634506	9.21316464	111.3200098
2.37	237	0.007	-1.004	0.213	10.2559482	42.7999626	-6.3598338	92.45823246	9.24754212	111.7497283
2.38	238	0.012	-0.993	0.211	13.2926256	47.6128098	-8.3651868	92.66449734	9.29910834	112.231013
2.39	239	0.028	-1.009	0.195	16.2720072	50.9359662	-9.3392154	92.9051397	9.35640414	112.7524048
2.4	240	0.054	-1.056	0.134	16.1001198	50.8213746	-8.307891	93.15151164	9.37932246	113.2566079
2.41	241	0.1	-1.12	0.059	15.6417534	45.0917946	-4.6982556	93.38069484	9.39078162	113.7092447
2.42	242	0.163	-1.217	0	14.3812458	36.0390582	1.0313244	93.58123014	9.35067456	114.0702082
2.43	243	0.229	-1.272	-0.023	13.0061466	26.356068	7.3338624	93.75311754	9.2532717	114.3337689
2.44	244	0.255	-1.291	-0.041	14.7823164	14.037471	12.3758928	93.91927536	9.12149136	114.4655492
2.45	245	0.239	-1.316	-0.106	14.3812458	5.7868758	14.7823164	94.0510557	8.97825186	114.522845
2.46	246	0.214	-1.314	-0.217	11.4018642	0.0572958	15.8136408	94.1656473	8.8235532	114.5113859
2.47	247	0.191	-1.281	-0.311	8.307891	-3.0366774	15.183387	94.24586142	8.67458412	114.4712788
2.48	248	0.159	-1.228	-0.369	6.2452422	-4.297185	13.4072172	94.30315722	8.54853336	114.4197126
2.49	249	0.12	-1.167	-0.372	3.4950438	-7.448454	10.2559482	94.32607554	8.4511305	114.3337689
2.5	250	0.076	-1.085	-0.353	0.4583664	-9.7975818	5.9587632	94.10262192	8.41102344	114.2707435
2.51	251	0.03	-1.015	-0.339	0.0572958	-7.7922288	1.6042824	94.09116276	8.39956428	114.1905294
2.52	252	0.016	-0.984	-0.342	-2.291832	-1.718874	-1.4896908	94.06824444	8.41675302	114.1733407
2.53	253	0.004	-0.973	-0.338	-4.8128472	2.9220858	-1.718874	94.0224078	8.42821218	114.2019886
2.54	254	-0.024	-0.993	-0.345	-7.161975	5.6722842	0.4010706	93.95365284	8.4224826	114.2592844
2.55	255	-0.066	-1.011	-0.356	-10.5424272	5.7868758	3.8388186	93.69582174	8.31935016	114.3108506
2.56	256	-0.092	-1.018	-0.357	-14.037471	2.1772404	7.734933	93.55258224	8.23913604	114.3280393
2.57	257	-0.088	-1.013	-0.351	-16.5011904	-3.3231564	9.8548776	93.38069484	8.14173318	114.2822027
2.58	258	-0.034	-1.019	-0.335	-16.7303736	-9.6256944	9.6256944	93.19734828	8.05578948	114.1790702
2.59	259	0.04	-1.017	-0.301	-15.756345	-14.7823164	5.443101	93.01400172	8.00995284	114.0301012
2.6	260	0.1	-1.008	-0.263	-11.0580894	-19.5378678	-2.7501984	92.78481852	8.06724864	113.8524842
2.61	261	0.126	-0.994	-0.221	-7.2192708	-21.8296998	-10.5424272	92.68741566	8.18756982	113.6404897
2.62	262	0.128	-0.99	-0.187	-3.8961144	-24.1788276	-17.3033316	92.61293112	8.37664596	113.4055769
2.63	263	0.118	-0.998	-0.163	-1.718874	-25.6685184	-22.5172494	92.5613649	8.61728832	113.1649346
2.64	264	0.099	-1.013	-0.136	-0.1718874	-25.3247436	-26.356068	92.52698742	8.89803774	112.9242922
2.65	265	0.084	-1.019	-0.119	0.6302538	-23.1475032	-29.220858	92.46969162	9.1959759	112.7065682
2.66	266	0.074	-1.025	-0.11	0.4583664	-19.480572	-31.1116194	92.4467733	9.51683238	112.5232216
2.67	267	0.065	-1.018	-0.095	0.0572958	-16.615782	-31.1689152	92.42385498	9.83768886	112.3742525
2.68	268	0.069	-1.012	-0.086	-1.6042824	-15.1260912	-29.220858	92.38374792	10.13562702	112.2367426
2.69	269	0.07	-0.999	-0.079	-3.5523396	-15.8709366	-26.6998428	92.32645212	10.41637644	112.0877735
2.7	270	0.071	-0.989	-0.076	-6.4171296	-17.1314442	-24.6944898	92.20613094	10.65128922	111.9216157
2.71	271	0.066	-0.985	-0.086	-9.8548776	-18.1627686	-23.5485738	92.0743506	10.89766116	111.7439987
2.72	272	0.062	-0.976	-0.096	-13.464513	-18.5638392	-23.6058696	91.9024632	11.13830352	111.5663818
2.73	273	0.071	-0.971	-0.106	-16.5584862	-19.1367972	-24.9809688	91.7019279	11.39613462	111.3773056
2.74	274	0.08	-0.967	-0.116	-19.480572	-20.340009	-27.3873924	91.46701512	11.68261362	111.1824999
2.75	275	0.089	-0.968	-0.137	-21.7151082	-21.3713334	-29.9657034	91.18053612	11.9748222	110.9705054
2.76	276	0.112	-0.966	-0.146	-24.9809688	-22.7464326	-31.8564648	90.88259796	12.30140826	110.7413222
2.77	277	0.144	-0.963	-0.137	-27.6165756	-23.3193906	-33.0596766	90.55028232	12.63945348	110.5064095
2.78	278	0.174	-0.961	-0.133	-29.0489706	-23.5485738	-33.804522	90.20650752	12.9774987	110.2714967
2.79	279	0.192	-0.972	-0.118	-28.7051958	-24.8090814	-34.3201842	89.85700314	13.32700308	110.0136656
2.8	280	0.178	-0.98	-0.097	-27.0436176	-26.929026	-34.5493674	89.51322834	13.6650483	109.7329162
2.81	281	0.156	-0.982	-0.075	-25.2674478	-28.934379	-33.518043	89.18664228	14.00309352	109.434978
2.82	282	0.139	-0.986	-0.052	-24.064236	-30.653253	-31.6845774	88.8657858	14.31822042	109.1141215
2.83	283	0.137	-0.992	-0.038	-23.777757	-32.945085	-29.3927454	88.54492932	14.610429	108.7703467
2.84	284	0.16	-0.993	-0.049	-24.064236	-34.950438	-26.642547	88.2068841	14.87398968	108.4036536
2.85	285	0.188	-0.996	-0.07	-24.2934192	-35.809875	-23.8350528	87.8631093	15.0974433	108.0197717
2.86	286	0.203	-0.985	-0.08	-24.0069402	-37.24227	-20.5691922	87.5193345	15.29224902	107.6301603
2.87	287	0.197	-0.971	-0.083	-23.0902074	-40.8519054	-17.3033316	87.1755597	15.45840684	107.2004418
2.88	288	0.185	-0.949	-0.075	-22.345362	-45.0917946	-14.7823164	86.82605532	15.59018718	106.7306162
2.89	289	0.181	-0.921	-0.065	-20.9702628	-49.9619376	-13.2353298	86.48228052	15.70477878	106.2034949
2.9	290	0.183	-0.904	-0.044	-18.9649098	-55.4623344	-12.605076	86.13850572	15.80218164	105.6190777
2.91	291	0.187	-0.912	-0.002	-16.8449652	-61.0773228	-12.2040054	85.8004605	15.89385492	104.9830943
2.92	292	0.2	-0.921	0.02	-14.32395	-68.1247062	-10.886202	85.46814486	15.96833946	104.2726264
2.93	293	0.223	-0.916	0.024	-12.5477802	-73.052145	-8.7089616	85.1415588	16.0141761	103.5163219
2.94	294	0.241	-0.902	0.033	-10.4851314	-78.495246	-5.7868758	84.82070232	16.02563526	102.7027215
2.95	295	0.245	-0.883	0.035	-8.1932994	-84.1675302	-2.3491278	84.52276416	15.99125778	101.8318253
2.96	296	0.241	-0.856	0.044	-5.5003968	-90.240885	1.432395	84.224826	15.91104366	100.909363
2.97	297	0.232	-0.835	0.063	-3.0366774	-95.970465	5.3858052	83.94407658	15.7849929	99.92960478
2.98	298	0.222	-0.836	0.084	-2.1772404	-102.6167778	9.167328	83.651868	15.6131055	98.8925508
2.99	299	0.205	-0.883	0.06	-3.2658606	-108.2317662	11.45916	83.34247068	15.4125702	97.79820102
3	300	0.176	-0.941	0.002	-3.6669312	-111.9559932	11.745639	83.03307336	15.183387	96.66374418
3.01	301	0.137	-0.98	-0.046	-2.578311	-111.8986974	11.5737516	82.72940562	14.95993338	95.53501692
3.02	302	0.095	-0.979	-0.07	0.3437748	-111.8986974	12.8342592	82.46011536	14.7250206	94.41774882
3.03	303	0.052	-0.966	-0.083	3.724227	-113.2165008	15.5844576	82.22520258	14.45000076	93.28902156
3.04	304	0.015	-0.978	-0.081	2.86479	-113.5602756	17.9908812	81.99601938	14.1520626	92.1602943
3.05	305	-0.024	-1.009	-0.082	-2.4064236	-108.1171746	19.480572	81.7324587	13.81401738	91.08313326
3.06	306	-0.081	-1.047	-0.135	-9.167328	-97.689339	19.9389384	81.42879096	13.49889048	90.1262934
3.07	307	-0.168	-1.082	-0.228	-14.32395	-87.5479824	19.480572	81.09647532	13.20095232	89.27258598
3.08	308	-0.259	-1.082	-0.249	-17.761698	-74.6564274	18.1054728	80.76415968	12.92593248	88.54492932
3.09	309	-0.279	-1.037	-0.267	-21.3713334	-63.7129296	16.2720072	80.42038488	12.67956054	87.93186426
3.1	310	-0.232	-0.985	-0.288	-23.0329116	-54.144531	14.610429	80.0708805	12.41027028	87.39901332
3.11	311	-0.155	-0.957	-0.254	-23.3193906	-44.5188366	13.1207382	79.74429444	12.20973498	86.9750244
3.12	312	-0.068	-0.943	-0.254	-23.8350528	-35.9244666	13.2353298	79.4406267	12.02638842	86.63697918
3.13	313	0.003	-0.938	-0.275	-22.7464326	-29.2781538	14.896908	79.1541477	11.8315827	86.3734185
3.14	314	0.048	-0.947	-0.255	-20.1108258	-23.8923486	17.3033316	78.91350534	11.61958824	86.16142404
3.15	315	0.07	-0.962	-0.202	-19.767051	-18.2200644	19.8243468	78.68432214	11.3732163	86.01245496
3.16	316	0.052	-0.944	-0.164	-19.8816426	-9.9121734	22.4599536	78.47232768	11.13830352	85.96088874
3.17	317	-0.014	-0.933	-0.146	-18.3919518	-3.2658606	23.6631654	78.28898112	10.89766116	85.9723479
3.18	318	-0.107	-0.932	-0.128	-17.3033316	4.9847346	24.1215318	78.13428246	10.66847796	86.06975076
3.19	319	-0.208	-0.948	-0.094	-17.8762896	15.8136408	23.6058696	77.98531338	10.46794266	86.27028606
3.2	320	-0.294	-0.956	-0.074	-19.480572	29.3354496	21.8296998	77.87645136	10.23302988	86.58541296
3.21	321	-0.364	-0.95	-0.061	-21.1421502	45.8939358	19.7097552	77.74467102	10.12416786	87.07815684
3.22	322	-0.434	-0.944	-0.042	-23.2620948	63.2545632	18.907614	77.61862026	10.0554129	87.73705854
3.23	323	-0.467	-0.908	-0.039	-24.2361234	76.3753014	19.8816426	77.49829908	10.00384668	88.53347016
3.24	324	-0.45	-0.887	-0.044	-27.6738714	95.9131692	21.2567418	77.3779779	9.97519878	89.51895792
3.25	325	-0.4	-0.874	-0.011	-32.085648	111.2111478	21.1421502	77.25765672	9.9408213	90.6419556
3.26	326	-0.313	-0.861	0.046	-35.9817624	123.758928	19.5951636	77.0914989	9.98092836	91.9024632
3.27	327	-0.211	-0.873	0.081	-40.6227222	135.4472712	17.0741484	76.89669318	10.07833122	93.27183282
3.28	328	-0.136	-0.876	0.057	-43.7739912	147.0210228	14.4385416	76.69615788	10.2273003	94.74433488
3.29	329	-0.093	-0.855	0.048	-44.977203	158.9385492	11.3445684	76.50135216	10.43356518	96.33142854
3.3	330	-0.049	-0.834	0.048	-43.544808	168.3923562	7.9641162	76.36384224	10.6856667	97.99300674
3.31	331	0.01	-0.826	0.093	-43.6593996	174.5230068	4.6982556	76.22060274	10.99506402	99.71761032
3.32	332	0.067	-0.8	0.114	-47.1544434	180.48177	1.0313244	76.0601745	11.36175714	101.4937801
3.33	333	0.11	-0.742	0.06	-52.9413192	189.1334358	-1.2605076	75.87109836	11.76855732	103.350164
3.34	334	0.107	-0.684	-0.038	-55.003968	197.7278058	-2.5210152	75.6877518	12.21546456	105.2867621
3.35	335	0.054	-0.686	-0.107	-52.3110654	203.7438648	-2.5210152	75.56743062	12.67383096	107.2863855
3.36	336	0.037	-0.726	-0.13	-49.4462754	200.1915252	-1.3178034	75.47575734	13.1207382	109.257361
3.37	337	0.075	-0.75	-0.165	-52.4829528	188.7323652	-0.859437	75.34970658	13.54472712	111.1194745
3.38	338	0.185	-0.749	-0.248	-55.003968	173.2052034	-1.8334656	75.1720896	13.94579772	112.8268894
3.39	339	0.309	-0.756	-0.298	-52.8840234	155.5008012	-4.2398892	74.98874304	14.33540916	114.3509576
3.4	340	0.428	-0.736	-0.36	-47.8992888	132.5824812	-5.3858052	74.78820774	14.71356144	115.6573019
3.41	341	0.546	-0.653	-0.313	-40.3362432	109.8360486	-4.0680018	74.63923866	15.00577002	116.7344629
3.42	342	0.654	-0.513	-0.229	-28.5906042	88.4647152	-1.7761698	74.56475412	15.22922364	117.6053591
3.43	343	0.698	-0.38	-0.187	-14.4385416	66.2912406	1.0886202	74.58194286	15.37246314	118.2699904
3.44	344	0.631	-0.256	-0.064	-2.6929026	42.5707794	4.8128472	74.66788656	15.42975894	118.7054384
3.45	345	0.478	-0.155	0.005	6.875496	20.8556712	8.021412	74.79393732	15.45267726	118.95754
3.46	346	0.336	-0.111	0.1	16.6730778	4.583664	9.3392154	74.98301346	15.37819272	119.0320245
3.47	347	0.211	-0.15	0.143	20.9702628	-2.578311	7.1046792	75.19500792	15.30370818	119.0262949
3.48	348	0.153	-0.164	0.141	21.8296998	-3.5523396	0.859437	75.40700238	15.29224902	118.9919174
3.49	349	0.081	-0.196	0.143	20.7410796	9.453807	-8.3651868	75.63618558	15.39538146	119.066402
3.5	350	0.007	-0.309	0.003	11.3445684	35.0077338	-20.9702628	75.8309913	15.65321256	119.3643401
3.51	351	-0.163	-0.391	-0.194	-4.1825934	62.738901	-32.0283522	75.92839416	16.1001198	119.9086502
3.52	352	-0.461	-0.469	-0.387	-17.5325148	88.7511942	-37.528749	75.96277164	16.65015948	120.7107914
3.53	353	-0.843	-0.428	-0.593	-19.5378678	105.0232014	-33.7472262	76.0315266	17.19446958	121.68482
3.54	354	-1.14	-0.222	-0.723	-3.9534102	114.9353748	-22.1161788	76.31227602	17.6471064	122.790629
3.55	355	-0.92	0.072	-0.783	-9.1100322	126.7956054	-17.0168526	76.5471888	18.0195291	124.0110295
3.56	356	-0.524	0.001	-0.58	-40.8519054	135.3899754	-15.4125702	76.53000006	18.43778844	125.3460217
3.57	357	-0.197	-0.139	-0.442	-67.5517482	137.223441	-11.6310474	76.26643938	18.82739988	126.7153913
3.58	358	0.096	-0.23	-0.214	-86.2874748	156.131055	-7.6776372	75.87682794	19.2227409	128.2795666
3.59	359	0.157	-0.501	0.017	-103.3616232	185.1227298	-5.0420304	75.42419112	19.66391856	130.1531393
3.6	360	0.112	-1.132	-0.043	-134.5305384	208.4994162	-2.1772404	74.75955984	20.13374412	132.2616247
3.61	361	-0.018	-1.757	-0.221	-146.6199522	192.9722544	6.8182002	73.93450032	20.5118964	134.2383298
3.62	362	0.178	-1.741	-0.427	-116.1385866	161.8033392	8.3651868	73.32143526	20.83275288	135.9056376
3.63	363	0.531	-1.279	-0.547	-114.4770084	124.9621398	-2.9220858	72.5937786	21.17652768	137.1661452
3.64	364	0.636	-1.028	-0.655	-129.6603954	82.9643184	-19.0222056	71.54526546	21.56613912	137.9339089
3.65	365	0.702	-0.781	-0.688	-128.7436626	32.6013102	-48.128472	70.2732987	22.12190838	138.0943372
3.66	366	0.67	-0.847	-0.165	-129.6603954	-11.0007936	-90.0117018	68.7836079	22.91259042	137.6359708
3.67	367	0.726	-1.132	0.22	-188.3312946	-23.1475032	-132.066819	66.55480128	24.01839936	136.8452887
3.68	368	0.729	-1.186	-0.009	-252.5025906	-27.7311672	-165.6421578	63.55250136	25.37630982	135.791046
3.69	369	0.792	-1.079	-0.197	-263.7898632	-45.263682	-182.6017146	60.25799286	26.73994986	134.3815693
3.7	370	0.957	-1.126	-0.224	-269.863218	-73.9688778	-180.3671784	56.71711242	27.8744067	132.6053995
3.71	371	0.891	-1.061	-0.033	-289.5729732	-89.0376732	-159.9698736	52.89548256	28.65362958	130.7260973
3.72	372	0.748	-0.845	-0.003	-301.4332038	-104.278356	-131.8376358	48.93634278	29.00313396	128.8410655
3.73	373	0.458	-0.579	0.183	-285.3903798	-108.289062	-113.732163	45.1777383	29.08334808	127.0362478
3.74	374	0.134	-0.485	0.4	-260.0083404	-93.5067456	-100.840608	41.78009736	29.08907766	125.4491541
3.75	375	-0.2	-0.39	0.309	-235.6003296	-67.2079734	-86.2874748	38.80644534	29.10053682	124.1943761
3.76	376	-0.343	-0.248	0.214	-205.4627388	-32.1429438	-76.9482594	36.27397098	29.28961296	123.2661841
3.77	377	-0.241	0.044	0.076	-188.6177736	17.761698	-80.4433032	34.04516436	29.86830054	122.6359303
3.78	378	-0.108	0.422	-0.203	-178.762896	66.9787902	-93.105675	31.98824514	30.89389536	122.1775639
3.79	379	0.198	0.924	-0.793	-169.1944974	104.5075392	-106.7420754	30.04018794	32.29191288	121.7650342
3.8	380	1.124	1.479	-1.928	-138.7704276	122.7276036	-113.6175714	28.37288016	33.86754738	121.3353157
3.81	381	0.464	1.297	-2.225	-118.2585312	68.1247062	-109.2630906	26.7284907	34.93897884	120.5675519
3.82	382	0.861	1.2	-2.938	-107.6588082	14.7250206	-137.4526242	24.81481098	35.64944676	119.1523457
3.83	383	3.613	1.536	-3.729	-113.2165008	-32.085648	-192.6284796	22.29952536	36.11927232	116.8261362
3.84	384	3.994	1.371	-3.843	-139.9736394	-71.046792	-206.1502884	19.29722544	36.1822977	114.1332336
3.85	385	2.613	1.11	-2.913	-211.8798684	-75.5158644	-182.2579398	15.72196752	35.99895114	111.7096213
3.86	386	0.924	0.431	-3.041	-214.6873626	-75.1720896	-161.9179308	12.2899491	35.64944676	109.5552992
3.87	387	0.477	0.372	-2.547	-204.6605976	-101.1843828	-140.1455268	9.11576178	34.91033094	107.6358899
3.88	388	0.474	0.295	-2.286	-167.8193982	-77.1201468	-130.634424	6.45150708	34.31445462	105.9342046
3.89	389	0.699	0.192	-2.328	-149.0836716	-69.9581718	-110.4090066	4.15967508	33.71284872	104.5304575
3.9	390	0.889	0.276	-2.06	-142.1508798	-61.7075766	-88.80849	2.11421502	33.13989072	103.4246486
3.91	391	0.975	0.428	-1.724	-134.5305384	-39.4768062	-73.6823988	0.27501984	32.75027928	102.5422933
3.92	392	1.003	0.514	-1.621	-110.8100772	-23.2620948	-62.9680842	-1.24331886	32.50390734	101.808907
3.93	393	0.944	0.464	-1.493	-86.3447706	-15.9282324	-50.1911208	-2.42934192	32.32056078	101.2244899
3.94	394	0.823	0.396	-1.366	-79.927641	-8.880849	-37.8725238	-3.47212548	32.20596918	100.7947714
3.95	395	0.611	0.319	-1.224	-80.500599	-2.4637194	-30.8824362	-4.49199072	32.1429438	100.4338078
3.96	396	0.377	0.367	-1.023	-85.3134462	8.8235532	-33.231564	-5.56342218	32.19451002	100.049926
3.97	397	0.214	0.502	-0.819	-85.4280378	18.4492476	-38.7319608	-6.68069028	32.32629036	99.58582998
3.98	398	0.178	0.701	-0.699	-76.3180056	24.0069402	-45.4928652	-7.75212174	32.49817776	99.0357903
3.99	399	0.265	0.781	-0.686	-71.2186794	25.1528562	-47.841993	-8.7949053	32.67579474	98.45137314
4	400	0.368	0.75	-0.626	-73.911582	22.345362	-43.544808	-9.9121734	32.81903424	97.90133346
4.01	401	0.434	0.557	-0.558	-78.6098376	21.1421502	-33.1742682	-10.93776822	32.96227374	97.4888037
4.02	402	0.417	0.397	-0.573	-83.07891	19.2513888	-22.0015872	-11.94044472	33.09978366	97.2023247
4.03	403	0.325	0.308	-0.56	-79.1827956	13.1207382	-14.4958374	-12.85144794	33.18572736	97.01324856
4.04	404	0.278	0.317	-0.506	-75.4585686	5.0993262	-10.886202	-13.68796662	33.20864568	96.8871978
4.05	405	0.252	0.374	-0.5	-74.198061	-2.1772404	-9.740286	-14.53594446	33.1456203	96.7726062
4.06	406	0.184	0.415	-0.459	-78.4379502	-10.7716104	-11.4018642	-15.37819272	33.00811038	96.6866625
4.07	407	0.151	0.424	-0.5	-83.0216142	-15.9855282	-15.756345	-16.28919594	32.8018455	96.56061174
4.08	408	0.161	0.421	-0.558	-84.7404882	-13.750992	-20.05353	-17.24030622	32.60703978	96.38872434
4.09	409	0.158	0.362	-0.587	-85.5999252	-6.6463128	-21.9442914	-18.2200644	32.46952986	96.17672988
4.1	410	0.12	0.307	-0.682	-84.1675302	-1.2032118	-21.2567418	-19.194093	32.3434791	95.9418171
4.11	411	0.049	0.277	-0.691	-80.21412	-1.145916	-19.5378678	-20.11655538	32.26326498	95.7412818
4.12	412	0.043	0.279	-0.675	-72.8229618	-2.2345362	-18.621135	-20.95880364	32.1715917	95.55220566
4.13	413	0.137	0.331	-0.713	-66.176649	-5.156622	-17.4179232	-21.7151082	32.0570001	95.39177742
4.14	414	0.235	0.402	-0.757	-58.3271244	-11.3445684	-15.0687954	-22.36255074	31.89084228	95.2829154
4.15	415	0.303	0.482	-0.834	-48.0711762	-18.334656	-11.1153852	-22.89540168	31.63874076	95.23134918
4.16	416	0.336	0.611	-0.859	-35.2942128	-23.777757	-6.6463128	-23.22771732	31.39236882	95.26572666
4.17	417	0.338	0.721	-0.857	-21.1421502	-28.5333084	-2.1772404	-23.38814556	31.11734898	95.3688591
4.18	418	0.32	0.803	-0.806	-9.9694692	-33.804522	1.2605076	-23.4053343	30.81368124	95.52928734
4.19	419	0.304	0.805	-0.778	-1.0886202	-35.9244666	3.6096354	-23.31366102	30.49855434	95.71836348
4.2	420	0.311	0.787	-0.796	6.3598338	-36.096354	3.6669312	-23.2334469	30.14904996	95.8845213
4.21	421	0.304	0.743	-0.767	10.886202	-35.3515086	2.5210152	-23.0329116	29.83392306	96.0564087
4.22	422	0.297	0.682	-0.737	12.4904844	-35.6952834	1.145916	-22.82091714	29.507337	96.21683694
4.23	423	0.303	0.628	-0.748	13.0061466	-40.0497642	0.6875496	-22.6031931	29.14064388	96.38872434
4.24	424	0.282	0.609	-0.714	17.3033316	-48.0711762	1.718874	-22.3167141	28.7051958	96.59498922
4.25	425	0.262	0.583	-0.677	25.8404058	-52.7694318	4.297185	-21.97866888	28.2181815	96.83563158
4.26	426	0.252	0.559	-0.651	31.9137606	-54.5456016	8.2505952	-21.50884332	27.74262636	97.12784016
4.27	427	0.212	0.549	-0.653	35.523396	-52.7694318	12.9488508	-20.99318112	27.3014487	97.45442622
4.28	428	0.161	0.551	-0.675	38.9038482	-48.128472	16.5011904	-20.43168228	26.91183726	97.79820102
4.29	429	0.119	0.551	-0.71	39.0757356	-42.5134836	18.9649098	-19.87591302	26.57952162	98.14197582
4.3	430	0.117	0.564	-0.744	36.4401288	-37.9871154	19.9389384	-19.40035788	26.25293556	98.45710272
4.31	431	0.135	0.567	-0.739	33.1742682	-31.5699858	19.9962342	-18.91907316	26.02375236	98.76650004
4.32	432	0.171	0.578	-0.755	30.080295	-24.923673	19.3659804	-18.48935466	25.85186496	99.04724946
4.33	433	0.232	0.588	-0.781	29.6792244	-19.2513888	19.3659804	-18.07109532	25.73154378	99.31081014
4.34	434	0.289	0.61	-0.813	30.8251404	-16.042824	20.9702628	-17.64137682	25.64560008	99.57437082
4.35	435	0.337	0.64	-0.825	34.7212548	-16.1574156	23.777757	-17.2173879	25.55965638	99.86084982
4.36	436	0.378	0.653	-0.818	40.680018	-15.3552744	26.5852512	-16.66734822	25.49090142	100.1817063
4.37	437	0.389	0.643	-0.832	44.9199072	-14.3812458	28.4187168	-16.06001274	25.4393352	100.5140219
4.38	438	0.388	0.601	-0.859	46.3523022	-12.4904844	30.0229992	-15.4412181	25.40495772	100.8635263
4.39	439	0.354	0.546	-0.837	43.3156248	-11.1153852	31.0543236	-14.84534178	25.37630982	101.2130307
4.4	440	0.326	0.506	-0.814	44.117766	-9.7975818	31.1689152	-14.2953021	25.3533915	101.5568055
4.41	441	0.317	0.473	-0.853	49.2170922	-6.1879464	31.1116194	-13.64785956	25.37630982	101.8948507
4.42	442	0.327	0.459	-0.924	55.6342218	-4.6982556	31.6272816	-12.93739164	25.40495772	102.2386255
4.43	443	0.34	0.454	-0.942	61.9367598	-4.0680018	32.4294228	-12.15816876	25.4393352	102.5881299
4.44	444	0.344	0.458	-0.973	68.9841432	-0.8021412	33.4034514	-11.30446134	25.50809016	102.9433639
4.45	445	0.326	0.453	-0.99	75.630456	0.0572958	33.6899304	-10.41064686	25.55965638	103.2928682
4.46	446	0.283	0.424	-0.939	77.5785132	-0.4583664	33.4607472	-9.46526616	25.62268176	103.6481022
4.47	447	0.234	0.387	-0.879	76.3753014	-2.1772404	33.4607472	-8.5370742	25.65705924	104.0090657
4.48	448	0.213	0.344	-0.845	74.198061	-3.0366774	33.9191136	-7.6203414	25.67997756	104.3700293
4.49	449	0.224	0.293	-0.859	72.9375534	-7.2765666	34.091001	-6.72079734	25.65705924	104.742452
4.5	450	0.252	0.249	-0.875	72.479187	-13.2353298	33.9191136	-5.83271244	25.5539268	105.1148747
4.51	451	0.297	0.202	-0.991	74.2553568	-16.2147114	33.6326346	-4.91597964	25.43360562	105.4872974
4.52	452	0.336	0.165	-1.138	78.0941754	-23.9496444	34.663959	-3.9534102	25.23307032	105.8711792
4.53	453	0.34	0.138	-1.231	81.7038108	-33.9191136	36.5547204	-2.9507337	24.923673	106.2779794
4.54	454	0.34	0.124	-1.282	82.5632478	-42.8572584	39.7059894	-1.92513888	24.52833198	106.7076979
4.55	455	0.357	0.093	-1.259	77.5212174	-52.0818822	42.9145542	-0.9453807	24.01839936	107.1660643
4.56	456	0.348	0.073	-1.205	62.7961968	-63.598338	45.2063862	-0.10886202	23.39960472	107.6358899
4.57	457	0.355	0.089	-1.174	47.7274014	-74.198061	45.263682	0.56149884	22.67194806	108.0942563
4.58	458	0.399	0.142	-1.092	40.9092012	-78.781725	42.7999626	1.145916	21.8869956	108.5182452
4.59	459	0.479	0.24	-0.95	40.3362432	-75.1720896	37.9298196	1.70168526	21.1421502	108.8734792
4.6	460	0.489	0.282	-0.819	39.4768062	-69.7289886	30.9970278	2.17151082	20.47751892	109.1599582
4.61	461	0.468	0.239	-0.839	34.2055926	-61.8221682	24.1788276	2.59549974	19.85872428	109.366223
4.62	462	0.327	0.146	-0.906	34.663959	-49.560867	18.7357266	3.0080295	19.3659804	109.5209217
4.63	463	0.123	0.035	-0.905	38.5600734	-37.2995658	14.6677248	3.44347758	18.9935577	109.6412429
4.64	464	-0.034	-0.089	-0.87	37.9871154	-24.4080108	11.0007936	3.86173692	18.74718576	109.7329162
4.65	465	-0.12	-0.233	-0.956	29.220858	-12.7196676	7.448454	4.27999626	18.43778844	109.7386457
4.66	466	-0.108	-0.291	-0.988	12.8342592	6.4744254	4.4690724	4.42896534	18.50081382	109.790212
4.67	467	0.017	-0.262	-1.009	0.8021412	18.334656	2.291832	4.44615408	18.6784308	109.8360486
4.68	468	0.25	-0.185	-1.105	-6.7609044	19.5378678	-1.0313244	4.37739912	18.86750694	109.8475078
4.69	469	0.453	-0.116	-1.064	-9.9121734	11.745639	-3.6669312	4.2685371	18.98782812	109.8188599
4.7	470	0.594	-0.038	-1.023	-17.7044022	4.6982556	-7.0473834	4.03362432	19.10241972	109.7730232
4.71	471	0.706	0.08	-0.978	-20.5691922	1.5469866	-9.9121734	3.78725238	19.12533804	109.6698908
4.72	472	0.693	0.168	-0.987	-17.9908812	0.1145916	-10.5424272	3.56952834	19.13106762	109.5610288
4.73	473	0.536	0.213	-0.936	-12.4331886	-4.3544808	-9.8548776	3.4091001	19.09096056	109.4578963
4.74	474	0.31	0.195	-0.842	-4.6409598	-12.032118	-8.7662574	3.32888598	18.97636896	109.3547639
4.75	475	0.109	0.151	-0.742	0.5156622	-21.3713334	-5.6149884	3.27159018	18.7357266	109.2630906
4.76	476	0.02	0.102	-0.661	3.437748	-34.37748	-2.005353	3.2945085	18.39768138	109.2115244
4.77	477	-0.022	0.039	-0.677	6.4171296	-47.7274014	1.8907614	3.36326346	17.92785582	109.1886061
4.78	478	-0.01	-0.042	-0.747	7.2765666	-63.0826758	7.7922288	3.44920716	17.3033316	109.2115244
4.79	479	0.029	-0.13	-0.831	5.0420304	-75.916935	12.2613012	3.52942128	16.54702704	109.2688202
4.8	480	0.111	-0.252	-0.949	0.4583664	-84.224826	14.8396122	3.59817624	15.68759004	109.3375751
4.81	481	0.186	-0.367	-1.037	-5.5576926	-86.4020664	13.178034	3.56952834	14.82815304	109.3891414
4.82	482	0.225	-0.456	-1.047	-8.9954406	-77.8649922	6.9327918	3.48931422	14.05465974	109.3948709
4.83	483	0.252	-0.512	-1.066	-11.0007936	-59.301153	-5.7868758	3.35753388	13.47024258	109.2802793
4.84	484	0.23	-0.502	-1.061	-10.4851314	-40.680018	-19.8243468	3.20283522	13.08063114	109.0453666
4.85	485	0.171	-0.377	-0.988	-9.6829902	-30.1375908	-28.1895336	3.0939732	12.77123382	108.7187805
4.86	486	0.114	-0.246	-0.945	-9.0527364	-19.194093	-31.3980984	2.93354496	12.59361684	108.3864649
4.87	487	0.041	-0.134	-0.899	-8.4797784	-9.0527364	-31.7418732	2.77311672	12.52486188	108.0598788
4.88	488	-0.051	-0.033	-0.848	-5.9014674	-0.3437748	-29.507337	2.64706596	12.53059146	107.7562111
4.89	489	-0.155	0.073	-0.811	-0.6875496	6.5317212	-24.9809688	2.58404058	12.61080558	107.5098391
4.9	490	-0.188	0.153	-0.807	4.1252976	8.0787078	-19.2513888	2.51528562	12.55923936	107.2806559
4.91	491	-0.163	0.206	-0.835	5.0420304	5.156622	-13.1207382	2.53820394	12.61653516	107.1488756
4.92	492	-0.073	0.24	-0.87	1.6615782	0.9167328	-8.4797784	2.53820394	12.6337239	107.0629319
4.93	493	0.02	0.24	-0.903	1.2032118	-2.005353	-7.2192708	2.53247436	12.61653516	106.9884473
4.94	494	0.051	0.203	-0.928	3.6096354	-5.156622	-7.6776372	2.55539268	12.56496894	106.9025036
4.95	495	0.07	0.149	-0.957	8.4224826	-8.6516658	-8.880849	2.54393352	12.4331886	106.7993712
4.96	496	0.065	0.088	-0.991	14.3812458	-12.4904844	-9.2246238	2.66998428	12.318597	106.6905092
4.97	497	0.052	0.054	-1.034	17.9335854	-14.4958374	-7.5057498	2.83041252	12.18108708	106.6045655
4.98	498	0.011	0.047	-1.079	17.475219	-15.6417534	-4.1252976	3.00229992	12.032118	106.5472697
4.99	499	-0.055	0.082	-1.109	12.7196676	-16.1001198	0.572958	3.12835068	11.87168976	106.5415401
5	500	-0.106	0.138	-1.116	8.8235532	-16.2720072	3.3804522	3.16272816	11.61385866	106.5358105
5.01	501	-0.156	0.207	-1.107	7.0473834	-15.8136408	5.0420304	3.24867186	11.45343042	106.570188
5.02	502	-0.168	0.217	-1.089	6.1879464	-13.3499214	4.870143	3.31742682	11.32165008	106.6102951
5.03	503	-0.157	0.217	-1.061	6.302538	-9.3392154	4.4117766	3.39191136	11.22424722	106.6446725
5.04	504	-0.133	0.193	-1.038	6.7609044	-5.3858052	4.2398892	3.47212548	11.172681	106.6847796
5.05	505	-0.105	0.156	-1.019	5.3858052	-2.005353	4.1825934	3.30023808	10.8002583	106.638943
5.06	506	-0.073	0.109	-1.004	4.1252976	0.2291832	4.297185	3.3518043	10.8002583	106.6847796
5.07	507	-0.034	0.076	-0.98	3.437748	1.5469866	4.1825934	3.39764094	10.81744704	106.7248867
5.08	508	-0.005	0.054	-0.979	3.437748	2.4637194	4.010706	3.437748	10.83463578	106.7707233
5.09	509	0.014	0.049	-0.984	3.9534102	2.578311	3.0939732	3.48358464	10.86328368	106.7993712
5.1	510	0.025	0.05	-0.989	4.3544808	3.3231564	1.3750992	3.36899304	10.66847796	106.7649937
5.11	511	0.032	0.063	-0.993	3.5523396	4.8128472	-0.8021412	3.40337052	10.7143146	106.7592641
5.12	512	0.037	0.095	-0.996	1.6042824	7.1046792	-3.151269	3.41482968	10.78879914	106.7363458
5.13	513	0.042	0.136	-0.996	-0.5156622	9.8548776	-5.156622	3.39764094	10.89193158	106.6905092
5.14	514	0.053	0.188	-0.99	-1.718874	12.4904844	-5.9587632	3.36899304	11.01798234	106.6446725
5.15	515	0.071	0.231	-0.979	-2.1772404	14.037471	-5.156622	3.13980984	11.1153852	106.6045655
5.16	516	0.088	0.233	-0.971	-2.0626488	14.4385416	-2.6356068	3.11116194	11.2586247	106.5931063
5.17	517	0.1	0.209	-0.97	-1.8907614	14.3812458	0.1718874	3.0939732	11.39613462	106.6045655
5.18	518	0.12	0.167	-0.966	-1.0886202	14.6677248	2.6929026	3.08824362	11.53937412	106.6446725
5.19	519	0.135	0.117	-0.955	-0.6875496	15.183387	4.7555514	3.08824362	11.6883432	106.7076979
5.2	520	0.147	0.069	-0.955	-1.5469866	14.8396122	6.2452422	3.01948866	11.80866438	106.7821825
5.21	521	0.156	0.033	-0.961	-2.1199446	15.0687954	6.9900876	3.0080295	11.95763346	106.8623966
5.22	522	0.163	0.004	-0.972	-2.0626488	15.5271618	6.875496	3.00229992	12.10660254	106.9483403
5.23	523	0.159	-0.017	-0.985	-1.9480572	15.2406828	6.0733548	2.99657034	12.24984204	107.0228248
5.24	524	0.149	-0.021	-0.994	-1.8907614	14.32395	4.5263682	2.99084076	12.39308154	107.0801206
5.25	525	0.137	-0.016	-0.992	-1.6615782	13.0634424	3.2658606	2.94500412	12.45037734	107.1030389
5.26	526	0.129	-0.01	-0.987	-0.9740286	11.6883432	2.291832	2.93927454	12.56496894	107.1374164
5.27	527	0.128	-0.003	-0.983	-0.1718874	10.313244	1.5469866	2.93927454	12.6623718	107.1603347
5.28	528	0.129	-0.001	-0.979	0.4010706	9.0527364	1.2032118	2.9507337	12.75404508	107.1832531
5.29	529	0.132	-0.003	-0.98	0.572958	7.6203414	1.145916	2.95646328	12.82852962	107.2004418
5.3	530	0.136	-0.006	-0.981	0.6302538	5.8441716	1.432395	2.87624916	12.73112676	107.1775235
5.31	531	0.139	-0.009	-0.98	0.5156622	4.1252976	1.8334656	2.88770832	12.77123382	107.2004418
5.32	532	0.138	-0.007	-0.98	0.3437748	2.1199446	2.2345362	2.8934379	12.78842256	107.2233601
5.33	533	0.135	0	-0.978	0.1718874	0.6302538	2.291832	2.90489706	12.79415214	107.2462784
5.34	534	0.131	0.009	-0.977	0	-0.4010706	2.1772404	2.91062664	12.78842256	107.2691968
5.35	535	0.125	0.021	-0.975	0	-1.3178034	1.6615782	2.5496631	12.39308154	107.1889826
5.36	536	0.121	0.034	-0.974	0.3437748	-1.718874	0.9740286	2.55539268	12.3758928	107.2004418
5.37	537	0.116	0.044	-0.974	0.7448454	-1.5469866	0	2.56685184	12.35870406	107.2004418
5.38	538	0.114	0.055	-0.975	1.0886202	-1.0886202	-0.7448454	2.57258142	12.35297448	107.1889826
5.39	539	0.112	0.064	-0.978	1.3178034	-0.4010706	-1.432395	2.58404058	12.3472449	107.1775235
5.4	540	0.11	0.072	-0.983	1.3750992	0.2291832	-2.005353	2.19442914	12.06649548	107.0915798
5.41	541	0.109	0.079	-0.986	1.3750992	0.6302538	-2.2345362	2.2058883	12.07222506	107.074391
5.42	542	0.11	0.083	-0.988	1.3178034	0.9167328	-2.2345362	2.21161788	12.08368422	107.0514727
5.43	543	0.111	0.086	-0.99	1.145916	0.7448454	-2.1772404	2.22307704	12.09514338	107.0285544
5.44	544	0.114	0.089	-0.993	0.9740286	0.3437748	-1.8334656	2.22880662	12.10087296	107.0056361
5.45	545	0.115	0.09	-0.992	1.0313244	-0.0572958	-1.432395	1.61574156	11.72845026	106.925422
5.46	546	0.115	0.091	-0.993	1.2605076	-0.572958	-1.145916	1.62720072	11.72272068	106.9139628
5.47	547	0.111	0.092	-0.993	1.2032118	-0.9167328	-0.859437	1.63865988	11.7169911	106.9025036
5.48	548	0.106	0.093	-0.991	1.3178034	-1.3750992	-0.7448454	1.65011904	11.69980236	106.8910445
5.49	549	0.101	0.093	-0.991	1.3178034	-1.718874	-0.859437	1.6615782	11.68261362	106.8853149
5.5	550	0.096	0.092	-0.988	1.3750992	-2.1772404	-0.9740286	1.35218088	11.41905294	106.8222895
5.51	551	0.092	0.092	-0.987	1.2032118	-2.6356068	-1.145916	1.36364004	11.39040504	106.8108304
5.52	552	0.091	0.09	-0.987	1.145916	-2.9793816	-1.2032118	1.36936962	11.36175714	106.7936416
5.53	553	0.089	0.087	-0.987	1.0313244	-3.4950438	-1.3178034	1.38082878	11.32737966	106.7821825
5.54	554	0.085	0.082	-0.986	1.145916	-3.8961144	-1.2032118	1.39228794	11.29300218	106.7649937
5.55	555	0.082	0.075	-0.984	1.145916	-4.1825934	-1.2032118	1.22040054	11.06381898	106.7076979
5.56	556	0.078	0.067	-0.983	1.2032118	-4.297185	-1.145916	1.22613012	11.01798234	106.6962388
5.57	557	0.074	0.061	-0.983	1.2605076	-4.4690724	-1.145916	1.23758928	10.97787528	106.67905
5.58	558	0.071	0.058	-0.981	1.4896908	-4.4117766	-1.2605076	1.25477802	10.93203864	106.6675909
5.59	559	0.07	0.053	-0.981	1.6615782	-4.1825934	-1.3750992	1.26623718	10.89193158	106.6504021
5.6	560	0.071	0.05	-0.982	1.6042824	-3.8388186	-1.432395	1.145916	10.6570188	106.5873767
5.61	561	0.072	0.045	-0.981	1.432395	-3.2658606	-1.4896908	1.15737516	10.6283709	106.570188
5.62	562	0.075	0.042	-0.982	1.2032118	-2.578311	-1.5469866	1.16883432	10.599723	106.5529993
5.63	563	0.078	0.038	-0.984	1.0313244	-1.7761698	-1.5469866	1.1745639	10.58253426	106.5358105
5.64	564	0.081	0.034	-0.984	0.7448454	-0.9740286	-1.6615782	1.18029348	10.57680468	106.5186218
5.65	565	0.08	0.03	-0.986	0.572958	-0.4583664	-1.7761698	0.96256944	10.15854534	106.3983006
5.66	566	0.081	0.028	-0.985	0.4010706	-0.0572958	-1.8334656	0.96256944	10.15854534	106.3811119
5.67	567	0.081	0.028	-0.986	0.286479	0.0572958	-1.6615782	0.96256944	10.15854534	106.3639231
5.68	568	0.081	0.03	-0.985	0.1718874	0.3437748	-1.5469866	0.96256944	10.16427492	106.3467344
5.69	569	0.08	0.033	-0.987	0.0572958	0.5156622	-1.3178034	0.96256944	10.1700045	106.3352752
5.7	570	0.078	0.037	-0.987	0	0.4010706	-1.0886202	0.46982556	9.41369994	106.1519287
5.71	571	0.076	0.042	-0.986	-0.0572958	0.5156622	-0.7448454	0.46409598	9.41942952	106.1461991
5.72	572	0.074	0.047	-0.985	-0.4010706	0.5156622	-0.3437748	0.4583664	9.4251591	106.1404695
5.73	573	0.072	0.05	-0.985	-0.572958	0.572958	-0.2291832	0.45263682	9.43088868	106.1404695
5.74	574	0.073	0.053	-0.985	-0.572958	0.4583664	0	0.44690724	9.43661826	106.1404695
5.75	575	0.074	0.054	-0.985	-0.572958	0.2291832	0.1145916	-0.2291832	8.6230179	105.9915004
5.76	576	0.074	0.057	-0.986	-0.7448454	0.4583664	0.2291832	-0.23491278	8.62874748	105.9915004
5.77	577	0.073	0.061	-0.989	-0.6302538	0.7448454	0.286479	-0.24064236	8.64020664	105.99723
5.78	578	0.071	0.058	-0.982	-0.8021412	1.3178034	0.1145916	-0.25210152	8.6516658	105.99723
5.79	579	0.072	0.057	-0.978	-1.432395	1.6615782	-0.1145916	-0.26356068	8.66885454	105.99723
5.8	580	0.077	0.059	-0.982	-2.005353	1.6615782	-0.0572958	-0.46409598	8.49696714	105.9628525
5.81	581	0.082	0.062	-0.988	-1.7761698	1.4896908	0.0572958	-0.48128472	8.5084263	105.9685821
5.82	582	0.086	0.066	-0.992	-1.3178034	1.4896908	0.286479	-0.49274388	8.52561504	105.9685821
5.83	583	0.089	0.07	-0.997	-1.0313244	1.6615782	0.572958	-0.50420304	8.54280378	105.9743117
5.84	584	0.087	0.073	-1	-0.9167328	1.8334656	0.572958	-0.50993262	8.55999252	105.9800413
5.85	585	0.086	0.073	-0.998	-0.5156622	1.9480572	0.5156622	-0.75057498	8.38237554	105.9628525
5.86	586	0.086	0.07	-0.992	-0.1718874	1.8334656	0.3437748	-0.75057498	8.39956428	105.9685821
5.87	587	0.086	0.067	-0.988	-0.1718874	1.9480572	0.1145916	-0.75630456	8.4224826	105.9685821
5.88	588	0.087	0.065	-0.985	-0.286479	2.1199446	-0.0572958	-0.75630456	8.43967134	105.9685821
5.89	589	0.09	0.065	-0.984	-0.2291832	2.1199446	-0.1718874	-0.76203414	8.46258966	105.9628525
5.9	590	0.093	0.064	-0.983	-0.286479	2.1199446	-0.3437748	-0.99121734	8.30216142	105.9399342
5.91	591	0.096	0.062	-0.984	-0.1718874	2.0626488	-0.3437748	-0.99694692	8.32507974	105.9342046
5.92	592	0.098	0.058	-0.983	-0.1718874	1.6615782	-0.3437748	-0.99694692	8.3365389	105.9342046
5.93	593	0.1	0.053	-0.984	-0.2291832	1.3178034	-0.4010706	-1.0026765	8.35372764	105.928475
5.94	594	0.1	0.049	-0.986	-0.5156622	1.0313244	-0.4010706	-1.00840608	8.3651868	105.9227455
5.95	595	0.102	0.048	-0.988	-0.7448454	0.6875496	-0.4583664	-1.24331886	8.14173318	105.8826384
5.96	596	0.1	0.047	-0.988	-0.7448454	0.4010706	-0.5156622	-1.24904844	8.14746276	105.8769088
5.97	597	0.101	0.048	-0.989	-0.6302538	0.1718874	-0.6302538	-1.25477802	8.14746276	105.8711792
5.98	598	0.1	0.048	-0.989	-0.5156622	0	-0.6302538	-1.2605076	8.14746276	105.8654497
5.99	599	0.1	0.048	-0.989	-0.4010706	-0.1718874	-0.7448454	-1.26623718	8.14746276	105.8597201
6	600	0.099	0.048	-0.99	-0.4010706	-0.2291832	-0.6875496	-1.5183387	7.86671334	105.8081539
6.01	601	0.097	0.05	-0.99	-0.4010706	-0.1718874	-0.9167328	-1.52406828	7.86671334	105.7966947
6.02	602	0.095	0.05	-0.987	-0.4010706	-0.0572958	-0.9740286	-1.52979786	7.86671334	105.7852355
6.03	603	0.093	0.05	-0.984	-0.5156622	-0.1145916	-1.0313244	-1.53552744	7.86098376	105.779506
6.04	604	0.094	0.052	-0.982	-0.6875496	-0.286479	-1.0886202	-1.5469866	7.86098376	105.7680468
6.05	605	0.094	0.052	-0.983	-0.7448454	-0.4583664	-1.0886202	-1.70741484	7.70055552	105.7336693
6.06	606	0.092	0.056	-0.983	-0.572958	-0.6302538	-1.0886202	-1.71314442	7.68909636	105.7222102
6.07	607	0.092	0.057	-0.985	-0.3437748	-0.6302538	-1.0313244	-1.718874	7.68336678	105.710751
6.08	608	0.092	0.061	-0.987	-0.1718874	-0.7448454	-1.0313244	-1.72460358	7.6776372	105.6992918
6.09	609	0.09	0.061	-0.987	-0.1145916	-0.7448454	-0.9740286	-1.72460358	7.67190762	105.6878327
6.1	610	0.087	0.061	-0.988	-0.0572958	-0.7448454	-0.9167328	-1.95951636	7.40261736	105.641996
6.11	611	0.086	0.062	-0.987	0	-0.7448454	-0.859437	-1.96524594	7.39688778	105.6362665
6.12	612	0.083	0.061	-0.988	-0.0572958	-0.572958	-0.6875496	-1.96524594	7.38542862	105.6248073
6.13	613	0.081	0.062	-0.989	0	-0.572958	-0.6875496	-1.96524594	7.37969904	105.6190777
6.14	614	0.081	0.062	-0.987	-0.0572958	-0.3437748	-0.572958	-1.96524594	7.37969904	105.6133481
6.15	615	0.079	0.061	-0.989	0	-0.3437748	-0.5156622	-2.3491278	6.9041439	105.533134
6.16	616	0.079	0.061	-0.988	0	-0.2291832	-0.5156622	-2.3491278	6.89841432	105.5274044
6.17	617	0.078	0.06	-0.988	0	-0.1718874	-0.572958	-2.3491278	6.89841432	105.5216749
6.18	618	0.077	0.059	-0.986	0	0	-0.572958	-2.3491278	6.89841432	105.5159453
6.19	619	0.078	0.057	-0.986	-0.0572958	0	-0.572958	-2.3491278	6.89841432	105.5102157
6.2	620	0.077	0.056	-0.987	-0.1145916	0.0572958	-0.572958	-2.61841806	6.50880288	105.4357312
6.21	621	0.078	0.056	-0.986	-0.2291832	0.0572958	-0.5156622	-2.62414764	6.50880288	105.4300016
6.22	622	0.078	0.057	-0.987	-0.3437748	0.1145916	-0.4010706	-2.62414764	6.50880288	105.4300016
6.23	623	0.078	0.055	-0.987	-0.4010706	0.2291832	-0.3437748	-2.62987722	6.51453246	105.424272
6.24	624	0.079	0.055	-0.987	-0.5156622	0.4010706	-0.4010706	-2.6356068	6.51453246	105.4185424
6.25	625	0.079	0.056	-0.986	-0.4010706	0.4583664	-0.4010706	-2.76738714	6.3311859	105.3841649
6.26	626	0.079	0.054	-0.986	-0.4010706	0.5156622	-0.4010706	-2.77311672	6.33691548	105.3784354
6.27	627	0.081	0.055	-0.984	-0.4010706	0.4583664	-0.4583664	-2.7788463	6.34264506	105.3727058
6.28	628	0.082	0.055	-0.985	-0.3437748	0.5156622	-0.4583664	-2.78457588	6.34837464	105.3669762
6.29	629	0.083	0.056	-0.987	-0.3437748	0.6302538	-0.4583664	-2.78457588	6.35410422	105.3669762
6.3	630	0.083	0.055	-0.986	-0.1718874	0.6302538	-0.3437748	-2.95646328	6.13638018	105.3268691
6.31	631	0.084	0.054	-0.988	-0.1718874	0.4583664	-0.4583664	-2.96219286	6.14210976	105.3211396
6.32	632	0.083	0.054	-0.988	-0.1718874	0.6875496	-0.5156622	-2.96219286	6.14783934	105.31541
6.33	633	0.082	0.054	-0.986	-0.286479	0.859437	-0.572958	-2.96792244	6.1592985	105.3096804
6.34	634	0.083	0.052	-0.985	-0.4010706	0.859437	-0.572958	-2.97365202	6.16502808	105.3039508
6.35	635	0.084	0.056	-0.986	-0.572958	0.5156622	-0.6302538	-3.07105488	6.05616606	105.2810325
6.36	636	0.086	0.057	-0.985	-0.6302538	0.4010706	-0.6302538	-3.07678446	6.05616606	105.2753029
6.37	637	0.088	0.058	-0.987	-0.572958	0.3437748	-0.6302538	-3.08251404	6.06189564	105.2695733
6.38	638	0.09	0.056	-0.983	-0.7448454	0.4010706	-0.572958	-3.0939732	6.06762522	105.2638438
6.39	639	0.09	0.055	-0.978	-1.3178034	0.1145916	-0.572958	-3.10543236	6.06762522	105.2581142
6.4	640	0.091	0.056	-0.979	-1.8334656	-0.1145916	-0.572958	-3.1799169	6.016059	105.246655
6.41	641	0.091	0.057	-0.981	-1.4896908	-0.4010706	-0.4583664	-3.19710564	6.016059	105.2409254
6.42	642	0.09	0.055	-0.984	-1.0886202	-0.4583664	-0.4583664	-3.2085648	6.01032942	105.2409254
6.43	643	0.09	0.055	-0.989	-1.0313244	-0.3437748	-0.4010706	-3.22002396	6.00459984	105.2351959
6.44	644	0.09	0.058	-0.996	-0.8021412	-0.572958	-0.4583664	-3.22575354	5.99887026	105.2294663
6.45	645	0.088	0.06	-0.996	-0.3437748	-0.6302538	-0.6302538	-3.32888598	5.89000824	105.2122775
6.46	646	0.087	0.06	-0.996	0.0572958	-0.7448454	-0.6875496	-3.32888598	5.88427866	105.206548
6.47	647	0.086	0.06	-0.994	0.2291832	-0.7448454	-0.8021412	-3.32888598	5.8728195	105.2008184
6.48	648	0.083	0.06	-0.992	0.1718874	-0.572958	-0.8021412	-3.32888598	5.86708992	105.1893592
6.49	649	0.083	0.062	-0.99	0.0572958	-0.2291832	-0.7448454	-3.32888598	5.86708992	105.1836296
6.5	650	0.084	0.063	-0.988	-0.0572958	0	-0.7448454	-3.48358464	5.71812084	105.1664409
6.51	651	0.083	0.066	-0.988	0	0.1145916	-0.572958	-3.48358464	5.71812084	105.1607113
6.52	652	0.084	0.064	-0.989	0.2291832	0.1145916	-0.4583664	-3.48358464	5.71812084	105.1549817
6.53	653	0.083	0.063	-0.991	0.4583664	0.0572958	-0.4583664	-3.47785506	5.71812084	105.1492522
6.54	654	0.082	0.061	-0.993	0.572958	0.0572958	-0.4010706	-3.47212548	5.72385042	105.1435226
6.55	655	0.081	0.061	-0.996	0.5156622	0	-0.3437748	-3.59244666	5.5576926	105.1148747
6.56	656	0.08	0.059	-0.997	0.3437748	0.0572958	-0.4583664	-3.59244666	5.5576926	105.1148747
6.57	657	0.079	0.058	-0.997	0.2291832	0.4583664	-0.286479	-3.58671708	5.56342218	105.1091451
6.58	658	0.08	0.058	-0.997	0.3437748	0.572958	-0.2291832	-3.58671708	5.56915176	105.1091451
6.59	659	0.08	0.057	-0.997	0.4010706	0.6302538	-0.1718874	-3.5809875	5.57488134	105.1034155
6.6	660	0.078	0.056	-0.995	0.4010706	0.8021412	-0.1718874	-3.62682414	5.47747848	105.0804972
6.61	661	0.078	0.056	-0.994	0.4010706	0.859437	0	-3.62682414	5.48320806	105.0804972
6.62	662	0.078	0.057	-0.992	0.3437748	0.859437	0	-3.62109456	5.49466722	105.0804972
6.63	663	0.078	0.056	-0.989	0.3437748	0.9167328	0.1145916	-3.61536498	5.50612638	105.0804972
6.64	664	0.078	0.056	-0.986	0.2291832	0.859437	0	-3.61536498	5.51185596	105.0804972
6.65	665	0.077	0.056	-0.987	0.286479	0.6875496	0	-3.68984952	5.37434604	105.0575789
6.66	666	0.077	0.057	-0.986	0.4010706	0.6302538	0.1145916	-3.68411994	5.38007562	105.0575789
6.67	667	0.079	0.056	-0.986	0.4010706	0.6302538	0.1718874	-3.67839036	5.3858052	105.0633085
6.68	668	0.078	0.056	-0.987	0.3437748	0.8021412	0.286479	-3.67839036	5.39726436	105.0633085
6.69	669	0.079	0.055	-0.989	0.4010706	1.0313244	0.286479	-3.67266078	5.40872352	105.0633085
6.7	670	0.077	0.055	-0.99	0.572958	1.2605076	0.1718874	-3.68984952	5.3571573	105.0575789
6.71	671	0.078	0.053	-0.991	0.8021412	1.2605076	0.1718874	-3.68411994	5.36861646	105.0575789
6.72	672	0.077	0.054	-0.992	0.859437	1.432395	0.1145916	-3.67266078	5.3858052	105.0575789
6.73	673	0.079	0.055	-0.992	0.9167328	1.4896908	0.1718874	-3.66120162	5.40299394	105.0575789
6.74	674	0.082	0.055	-0.99	0.9167328	1.6615782	0.2291832	-3.65547204	5.42018268	105.0575789
6.75	675	0.084	0.055	-0.989	0.9740286	1.6042824	0.3437748	-3.66120162	5.40299394	105.0575789
6.76	676	0.086	0.055	-0.986	1.0313244	1.5469866	0.4583664	-3.65547204	5.42018268	105.0633085
6.77	677	0.088	0.054	-0.985	0.859437	1.5469866	0.5156622	-3.64401288	5.43737142	105.069038
6.78	678	0.088	0.055	-0.986	0.8021412	1.6042824	0.572958	-3.63255372	5.45456016	105.0747676
6.79	679	0.086	0.055	-0.986	0.8021412	1.5469866	0.5156622	-3.62682414	5.46601932	105.0747676
6.8	680	0.086	0.054	-0.985	0.7448454	1.4896908	0.5156622	-3.6382833	5.44883058	105.0747676
6.81	681	0.086	0.053	-0.984	0.6875496	1.432395	0.4583664	-3.63255372	5.46601932	105.0804972
6.82	682	0.086	0.053	-0.984	0.572958	1.6042824	0.5156622	-3.62109456	5.48320806	105.0862268
6.83	683	0.084	0.054	-0.985	0.4583664	1.6615782	0.572958	-3.62109456	5.5003968	105.0919564
6.84	684	0.084	0.053	-0.985	0.4583664	1.5469866	0.4583664	-3.61536498	5.51758554	105.0976859
6.85	685	0.085	0.051	-0.986	0.4583664	1.432395	0.3437748	-3.62682414	5.48320806	105.0919564
6.86	686	0.086	0.05	-0.985	0.4010706	1.3178034	0.1718874	-3.62109456	5.49466722	105.0919564
6.87	687	0.086	0.05	-0.985	0.3437748	1.145916	0.1718874	-3.62109456	5.51185596	105.0919564
6.88	688	0.087	0.05	-0.983	0.286479	0.9167328	0.0572958	-3.61536498	5.51758554	105.0919564
6.89	689	0.087	0.051	-0.983	0.3437748	0.9167328	0.0572958	-3.61536498	5.5290447	105.0919564
6.9	690	0.089	0.051	-0.985	0.3437748	0.859437	0.0572958	-3.64401288	5.48320806	105.0862268
6.91	691	0.09	0.05	-0.989	0.4583664	0.8021412	0.1718874	-3.6382833	5.49466722	105.0862268
6.92	692	0.089	0.049	-0.991	0.4010706	0.6302538	0.1145916	-3.63255372	5.5003968	105.0919564
6.93	693	0.087	0.05	-0.991	0.4583664	0.572958	0.1718874	-3.62682414	5.50612638	105.0919564
6.94	694	0.085	0.05	-0.988	0.4583664	0.6302538	0.1145916	-3.62109456	5.51185596	105.0919564
6.95	695	0.083	0.05	-0.986	0.4583664	0.859437	0	-3.64401288	5.44883058	105.0804972
6.96	696	0.084	0.051	-0.985	0.1718874	0.9167328	-0.1145916	-3.64401288	5.46028974	105.0747676
6.97	697	0.087	0.051	-0.984	-0.0572958	0.3437748	-0.1145916	-3.64401288	5.46601932	105.0747676
6.98	698	0.087	0.052	-0.985	-0.6302538	-0.572958	-0.2291832	-3.64974246	5.45456016	105.0747676
6.99	699	0.085	0.05	-0.985	-0.572958	-0.2291832	-0.1718874	-3.65547204	5.45456016	105.069038
7	700	0.084	0.048	-0.976	-0.7448454	0.0572958	-0.286479	-3.67839036	5.39153478	105.0518493
7.01	701	0.086	0.045	-0.975	-1.432395	0	-0.3437748	-3.6955791	5.39153478	105.0518493
7.02	702	0.089	0.047	-0.979	-1.7761698	-0.3437748	-0.286479	-3.71276784	5.39153478	105.0461197
7.03	703	0.092	0.049	-0.985	-1.5469866	-0.7448454	-0.1145916	-3.72995658	5.38007562	105.0461197
7.04	704	0.091	0.051	-0.99	-1.0313244	-0.6875496	0	-3.73568616	5.37434604	105.0461197
7.05	705	0.09	0.052	-0.997	-0.6875496	-0.6875496	0.0572958	-3.77006364	5.32277982	105.0403901
7.06	706	0.086	0.054	-1	-0.5156622	-0.6302538	0.0572958	-3.77579322	5.31705024	105.0403901
7.07	707	0.083	0.053	-0.997	-0.2291832	-0.6302538	-0.0572958	-3.77579322	5.31132066	105.0403901
7.08	708	0.081	0.051	-0.992	-0.286479	-0.6302538	-0.1718874	-3.7815228	5.30559108	105.0403901
7.09	709	0.079	0.051	-0.988	-0.286479	-0.572958	-0.3437748	-3.7815228	5.2998615	105.0346606
7.1	710	0.08	0.053	-0.984	-0.4583664	-0.3437748	-0.4583664	-3.82162986	5.23110654	105.0232014
7.11	711	0.082	0.056	-0.983	-0.5156622	-0.2291832	-0.4583664	-3.82735944	5.23110654	105.0174718
7.12	712	0.084	0.058	-0.982	-0.5156622	-0.1718874	-0.4583664	-3.83308902	5.22537696	105.0117422
7.13	713	0.086	0.058	-0.982	-0.4583664	-0.1718874	-0.4010706	-3.8388186	5.22537696	105.0060127
7.14	714	0.085	0.057	-0.983	-0.4583664	-0.286479	-0.4010706	-3.84454818	5.21964738	105.0060127
7.15	715	0.085	0.054	-0.985	-0.5156622	-0.4010706	-0.4010706	-3.87319608	5.17381074	104.9945535
7.16	716	0.085	0.053	-0.985	-0.6302538	-0.4010706	-0.4010706	-3.87892566	5.16808116	104.9888239
7.17	717	0.086	0.051	-0.987	-0.6875496	-0.4010706	-0.4583664	-3.88465524	5.16235158	104.9830943
7.18	718	0.086	0.048	-0.986	-0.7448454	-0.4583664	-0.3437748	-3.8961144	5.156622	104.9830943
7.19	719	0.085	0.046	-0.986	-0.7448454	-0.4010706	-0.286479	-3.90184398	5.156622	104.9773648
