TimeStamp(s)	FrameCounter	AccX	AccY	AccZ	GyrX	GyrY	GyrZ	EulerX	EulerY	EulerZ
0.01	1	0.069	-1.002	0.079	-5.5576926	-1.0313244	0.9167328	96.64655544	4.96754586	-58.20680322
0.02	2	0.07	-1.006	0.034	-8.5370742	-0.6875496	1.432395	96.56061174	4.95035712	-58.21826238
0.03	3	0.072	-1.011	0.03	-9.167328	-0.6875496	1.6042824	96.46320888	4.93889796	-58.22399196
0.04	4	0.076	-1.013	0.027	-9.740286	-0.859437	1.8334656	96.36580602	4.92170922	-58.23545112
0.05	5	0.081	-1.014	0.023	-9.9694692	-1.3750992	2.1772404	96.2282961	4.8987909	-58.25263986
0.06	6	0.085	-1.011	0.017	-10.2559482	-1.718874	2.1199446	96.11943408	4.88160216	-58.27555818
0.07	7	0.084	-1.004	0.012	-10.1413566	-2.3491278	1.718874	96.01630164	4.86441342	-58.30420608
0.08	8	0.081	-1.001	0.011	-9.7975818	-2.9793816	1.3178034	95.9131692	4.85868384	-58.33285398
0.09	9	0.084	-1.003	0.014	-10.1986524	-3.4950438	1.2032118	95.81003676	4.84722468	-58.37296104
0.1	10	0.087	-1.002	0.017	-10.7143146	-4.010706	1.3178034	95.66679726	4.84722468	-58.4130681
0.11	11	0.091	-1.003	0.021	-10.6570188	-4.4690724	1.4896908	95.55793524	4.83576552	-58.45890474
0.12	12	0.092	-1.005	0.018	-10.1413566	-4.6982556	1.8334656	95.44907322	4.81857678	-58.51047096
0.13	13	0.094	-1.009	0.012	-10.026765	-4.7555514	2.291832	95.34594078	4.80138804	-58.5563076
0.14	14	0.093	-1.009	0.011	-9.9694692	-4.8128472	2.86479	95.24280834	4.77846972	-58.60787382
0.15	15	0.088	-1.005	0.011	-10.026765	-4.9847346	3.5523396	95.111028	4.7555514	-58.66516962
0.16	16	0.08	-1	0.01	-10.1413566	-5.156622	4.1825934	95.00216598	4.71544434	-58.71673584
0.17	17	0.076	-1.003	0.009	-10.1986524	-5.72958	4.6409598	94.89330396	4.67533728	-58.77976122
0.18	18	0.077	-1.008	0.009	-10.313244	-6.1879464	5.0993262	94.78444194	4.62950064	-58.84851618
0.19	19	0.077	-1.011	0.006	-10.4278356	-6.8182002	5.72958	94.67557992	4.583664	-58.92300072
0.2	20	0.084	-1.015	0.002	-10.8289062	-8.2505952	6.302538	94.54379958	4.53209778	-59.00894442
0.21	21	0.091	-1.011	0.003	-11.0007936	-9.9121734	6.9327918	94.4234784	4.4690724	-59.11207686
0.22	22	0.096	-1.009	0.003	-10.8289062	-11.6883432	7.3338624	94.30315722	4.4117766	-59.23239804
0.23	23	0.095	-1.008	0.007	-10.6570188	-13.5218088	7.5630456	94.18856562	4.34875122	-59.37563754
0.24	24	0.089	-1.015	0.01	-10.8289062	-15.1260912	7.9068204	94.06824444	4.28572584	-59.5303362
0.25	25	0.078	-1.019	0.01	-12.032118	-17.5325148	8.2505952	93.92500494	4.21697088	-59.71368276
0.26	26	0.07	-1.02	0	-13.6364004	-19.767051	8.5370742	93.77603586	4.1539455	-59.91421806
0.27	27	0.066	-1.012	-0.017	-15.0687954	-22.7464326	8.8235532	93.60987804	4.08519054	-60.14913084
0.28	28	0.061	-1.002	-0.027	-15.6417534	-26.2987722	8.880849	93.43226106	4.01643558	-60.41269152
0.29	29	0.049	-0.99	-0.029	-16.1574156	-30.0229992	8.4797784	93.25464408	3.95913978	-60.71635926
0.3	30	0.03	-0.973	-0.016	-16.329303	-33.0596766	7.5057498	93.05983836	3.90184398	-61.05440448
0.31	31	0.007	-0.954	0.001	-16.2147114	-34.7785506	6.016059	92.8764918	3.8674665	-61.40390886
0.32	32	-0.015	-0.943	0.02	-16.2720072	-35.523396	3.9534102	92.69314524	3.85600734	-61.75914282
0.33	33	-0.03	-0.934	0.028	-16.6730778	-35.3515086	1.4896908	92.5040691	3.8674665	-62.1086472
0.34	34	-0.041	-0.927	0.038	-17.1314442	-34.3201842	-0.4010706	92.31499296	3.89038482	-62.452422
0.35	35	-0.05	-0.922	0.056	-16.902261	-32.0283522	-2.578311	92.12591682	3.9247623	-62.77327848
0.36	36	-0.052	-0.938	0.083	-16.3865988	-29.2781538	-4.4117766	91.94257026	3.9820581	-63.06548706
0.37	37	-0.043	-0.963	0.101	-17.0168526	-25.5539268	-5.7868758	91.75349412	4.05654264	-63.31758858
0.38	38	-0.024	-0.993	0.113	-17.1314442	-21.4286292	-6.0733548	91.57014756	4.1252976	-63.52958304
0.39	39	0	-1.031	0.116	-17.1314442	-17.9335854	-5.5003968	91.386801	4.18832298	-63.70720002
0.4	40	0.027	-1.085	0.11	-17.5898106	-15.8709366	-3.3804522	91.20345444	4.22270046	-63.87335784
0.41	41	0.054	-1.121	0.095	-17.3606274	-15.9855282	0.3437748	91.0143783	4.22270046	-64.03378608
0.42	42	0.071	-1.108	0.083	-15.1260912	-18.1054728	4.1825934	90.85395006	4.18832298	-64.21140306
0.43	43	0.07	-1.078	0.077	-12.5477802	-21.1421502	7.3338624	90.71071056	4.1252976	-64.42339752
0.44	44	0.053	-1.042	0.071	-11.45916	-23.9496444	9.5111028	90.5846598	4.0393539	-64.66403988
0.45	45	0.034	-1.012	0.069	-11.4018642	-25.9549974	10.313244	90.45287946	3.94195104	-64.92760056
0.46	46	0.016	-0.989	0.068	-12.2613012	-27.3300966	9.740286	90.31536954	3.85027776	-65.2026204
0.47	47	-0.003	-0.978	0.068	-13.2353298	-28.2468294	8.6516658	90.16640046	3.77006364	-65.48336982
0.48	48	-0.033	-0.979	0.063	-13.9228794	-28.1322378	7.2192708	90.0117018	3.70703826	-65.76411924
0.49	49	-0.059	-0.987	0.058	-15.6990492	-26.929026	5.2139178	89.8398144	3.66120162	-66.0334095
0.5	50	-0.076	-0.987	0.049	-17.8762896	-25.496631	3.6096354	89.65073826	3.6096354	-66.29697018
0.51	51	-0.091	-0.981	0.047	-18.7930224	-23.4339822	2.1199446	89.44447338	3.59244666	-66.53188296
0.52	52	-0.097	-0.976	0.055	-19.0222056	-19.8816426	0.859437	89.24393808	3.5809875	-66.73241826
0.53	53	-0.098	-0.971	0.066	-19.6524594	-15.5271618	-0.286479	89.0376732	3.58671708	-66.88711692
0.54	54	-0.095	-0.967	0.077	-19.9962342	-11.1153852	-1.3178034	88.82567874	3.59817624	-67.00170852
0.55	55	-0.088	-0.971	0.082	-20.05353	-6.7609044	-2.291832	88.6366026	3.58671708	-67.08765222
0.56	56	-0.077	-0.997	0.082	-20.1681216	-2.578311	-3.2658606	88.43033772	3.61536498	-67.11630012
0.57	57	-0.066	-1.024	0.063	-20.5691922	3.7815228	-4.5263682	88.22407284	3.66120162	-67.08192264
0.58	58	-0.069	-1.041	0.033	-20.912967	8.59437	-5.6722842	88.01207838	3.71849742	-67.00170852
0.59	59	-0.073	-1.045	0.002	-21.4286292	12.7196676	-6.7609044	87.80008392	3.7815228	-66.87565776
0.6	60	-0.079	-1.039	-0.007	-21.2567418	17.2460358	-7.448454	87.59954862	3.8388186	-66.7209591
0.61	61	-0.071	-1.034	0	-20.5118964	22.5172494	-8.021412	87.39901332	3.91903272	-66.50323506
0.62	62	-0.048	-1.031	0.022	-19.194093	28.361421	-8.4797784	87.22139634	4.010706	-66.22821522
0.63	63	-0.016	-1.034	0.047	-17.761698	34.4347758	-9.3392154	87.0609681	4.10810886	-65.89017
0.64	64	0.017	-1.043	0.066	-15.4125702	39.5913978	-9.5683986	86.92345818	4.2112413	-65.50628814
0.65	65	0.053	-1.065	0.076	-11.0580894	43.6021038	-8.2505952	86.84897364	4.30291458	-65.08229922
0.66	66	0.077	-1.081	0.092	-7.1046792	43.9458786	-6.016059	86.803137	4.37166954	-64.64685114
0.67	67	0.088	-1.09	0.114	-3.3231564	43.2010332	-3.5523396	86.79167784	4.41750618	-64.22286222
0.68	68	0.081	-1.083	0.133	0.1145916	41.7686382	-1.8334656	86.82032574	4.45188366	-63.81033246
0.69	69	0.057	-1.062	0.158	3.724227	40.3362432	-1.145916	86.88335112	4.47480198	-63.40926186
0.7	70	0.022	-1.044	0.189	6.875496	40.2216516	-1.6042824	87.0036723	4.49199072	-63.01392084
0.71	71	-0.008	-1.065	0.19	6.4744254	42.3415962	-3.2085648	87.09534558	4.53209778	-62.5956615
0.72	72	0.062	-1.32	-0.078	-3.9534102	45.263682	-2.578311	87.089616	4.56647526	-62.14875426
0.73	73	0.166	-1.448	-0.294	-24.6944898	30.3094782	7.6203414	86.85470322	4.4977203	-61.8508161
0.74	74	0.189	-1.247	-0.076	1.4896908	14.1520626	12.8342592	86.88335112	4.37166954	-61.70184702
0.75	75	0.119	-1.332	0.008	11.9748222	10.599723	17.18874	87.00940188	4.20551172	-61.58725542
0.76	76	0.029	-1.234	-0.066	6.1306506	11.9748222	17.0168526	87.08388642	4.0393539	-61.45547508
0.77	77	-0.005	-1.027	-0.148	4.9847346	15.469866	9.1100322	87.14118222	3.9534102	-61.30077642
0.78	78	-0.014	-0.926	-0.131	8.3651868	18.7357266	1.432395	87.23858508	3.94195104	-61.11170028
0.79	79	-0.021	-0.929	-0.112	12.2040054	23.3766864	-3.2658606	87.376095	3.9820581	-60.88251708
0.8	80	-0.011	-0.958	-0.094	13.6364004	30.1375908	-7.9641162	87.52506408	4.05654264	-60.58457892
0.81	81	0.018	-0.912	-0.089	10.1986524	42.398892	-13.178034	87.65111484	4.19405256	-60.17204916
0.82	82	0.046	-0.843	-0.106	12.318597	50.993262	-14.610429	87.8058135	4.34875122	-59.66784612
0.83	83	0.068	-0.804	-0.127	16.902261	57.009321	-11.2872726	88.01207838	4.4690724	-59.10634728
0.84	84	0.071	-0.799	-0.151	15.756345	58.5563076	-3.2085648	88.21261368	4.50344988	-58.52193012
0.85	85	0.049	-0.826	-0.199	7.448454	53.8007562	7.8495246	88.30428696	4.42323576	-57.98907918
0.86	86	0.002	-0.877	-0.242	-2.3491278	46.1804148	19.0795014	88.31001654	4.23415962	-57.5249832
0.87	87	-0.033	-0.933	-0.243	-8.9954406	39.3622146	26.8144344	88.24126158	3.97059894	-57.12964218
0.88	88	-0.043	-0.988	-0.219	-12.0894138	34.37748	28.8770832	88.13812914	3.68411994	-56.7801378
0.89	89	-0.006	-1.015	-0.198	-12.3758928	29.9084076	23.5485738	88.02926712	3.44920716	-56.47647006
0.9	90	0.051	-1.007	-0.182	-10.599723	28.361421	14.0947668	87.91467552	3.31742682	-56.19572064
0.91	91	0.109	-0.99	-0.167	-6.302538	28.361421	3.0366774	87.8631093	3.28877892	-55.90924164
0.92	92	0.154	-0.986	-0.151	-0.9740286	29.1635622	-6.6463128	87.86883888	3.35753388	-55.62276264
0.93	93	0.178	-0.984	-0.124	3.724227	29.6219286	-13.6364004	87.9204051	3.4950438	-55.33628364
0.94	94	0.187	-0.987	-0.107	6.3598338	29.6792244	-17.9335854	87.99488964	3.67266078	-55.04407506
0.95	95	0.186	-0.993	-0.097	7.7922288	29.1062664	-19.8243468	88.08083334	3.89038482	-54.75759606
0.96	96	0.166	-0.996	-0.092	8.4797784	27.501984	-19.9389384	88.18396578	4.09092012	-54.4883058
0.97	97	0.137	-0.984	-0.083	8.1932994	24.9809688	-18.3919518	88.28136864	4.27426668	-54.24766344
0.98	98	0.112	-0.967	-0.074	6.8182002	23.6631654	-16.4438946	88.36158276	4.4404245	-54.01275066
0.99	99	0.092	-0.948	-0.069	4.3544808	22.8610242	-14.4958374	88.42460814	4.583664	-53.78929704
1	100	0.084	-0.941	-0.07	1.6615782	22.2880662	-12.891555	88.44179688	4.71544434	-53.571573
1.01	101	0.095	-0.941	-0.073	-1.0886202	21.6578124	-11.8029348	88.44752646	4.83003594	-53.35957854
1.02	102	0.123	-0.947	-0.071	-3.6669312	20.2254174	-11.0007936	88.42460814	4.93889796	-53.15904324
1.03	103	0.16	-0.946	-0.065	-5.8441716	18.1054728	-10.599723	88.3787715	5.04775998	-52.98142626
1.04	104	0.191	-0.941	-0.064	-7.734933	15.469866	-10.313244	88.31001654	5.15089242	-52.83245718
1.05	105	0.216	-0.936	-0.063	-9.2819196	8.9381448	-10.0840608	88.2068841	5.28840234	-52.73505432
1.06	106	0.237	-0.929	-0.063	-10.3705398	2.86479	-9.8548776	88.10375166	5.3858052	-52.70640642
1.07	107	0.253	-0.921	-0.059	-11.3445684	-3.6669312	-9.2819196	87.98916006	5.47747848	-52.75224306
1.08	108	0.266	-0.915	-0.052	-12.3758928	-10.4851314	-8.4797784	87.85165014	5.5576926	-52.8553755
1.09	109	0.273	-0.917	-0.046	-12.0894138	-16.4438946	-7.2765666	87.71414022	5.62644756	-53.0272629
1.1	110	0.263	-0.926	-0.038	-12.605076	-22.058883	-6.0733548	87.56517114	5.71239126	-53.23925736
1.11	111	0.253	-0.938	-0.033	-14.6677248	-26.642547	-4.9274388	87.39328374	5.7582279	-53.50281804
1.12	112	0.226	-0.924	-0.036	-15.6990492	-29.5646328	-3.6096354	87.2042076	5.7868758	-53.8007562
1.13	113	0.196	-0.91	-0.026	-13.9228794	-33.231564	-1.8907614	87.03804978	5.79833496	-54.13307184
1.14	114	0.153	-0.893	-0.024	-11.6310474	-37.4714532	-0.6302538	86.88335112	5.79260538	-54.51122412
1.15	115	0.11	-0.876	-0.034	-7.6203414	-41.9978214	0.4010706	86.76875952	5.78114622	-54.92948346
1.16	116	0.075	-0.855	-0.041	-3.151269	-44.2896534	1.2605076	86.70000456	5.75249832	-55.36493154
1.17	117	0.059	-0.827	-0.008	2.0626488	-43.8885828	2.4064236	86.68281582	5.71812084	-55.80037962
1.18	118	0.052	-0.822	0.054	7.3338624	-46.1804148	3.8388186	86.7171933	5.66655462	-56.25874602
1.19	119	0.047	-0.854	0.089	12.8342592	-47.2117392	4.7555514	86.80886658	5.60352924	-56.722842
1.2	120	0.051	-0.939	0.097	14.8396122	-45.9512316	4.8128472	86.93491734	5.54050386	-57.17547882
1.21	121	0.063	-1.028	0.042	11.5737516	-41.1383844	3.7815228	87.01513146	5.49466722	-57.582279
1.22	122	0.063	-1.099	-0.017	9.167328	-32.4294228	1.7761698	87.08388642	5.4717489	-57.90313548
1.23	123	0.028	-1.154	-0.013	12.0894138	-25.210152	-0.1718874	87.18701886	5.46601932	-58.14950742
1.24	124	-0.01	-1.172	0.02	15.2979786	-17.4179232	-1.2605076	87.33025836	5.47747848	-58.32139482
1.25	125	-0.021	-1.132	0.077	17.0741484	-10.7143146	-0.5156622	87.51360492	5.46028974	-58.43598642
1.26	126	0.008	-1.078	0.13	17.9908812	-8.6516658	2.1199446	87.6912219	5.43737142	-58.52193012
1.27	127	0.069	-1.073	0.127	18.334656	-11.4018642	6.1306506	87.86883888	5.38007562	-58.63079214
1.28	128	0.089	-1.434	-0.182	1.432395	-19.8816426	7.3338624	87.86883888	5.30559108	-58.82559786
1.29	129	0.034	-1.5	-0.235	-8.021412	0.4583664	-2.578311	87.78862476	5.3285094	-58.81986828
1.3	130	-0.08	-1.468	-0.174	20.340009	7.2192708	-7.7922288	87.99488964	5.40299394	-58.75111332
1.31	131	0.034	-1.509	-0.067	29.6792244	-0.572958	-14.9542038	88.29855738	5.55196302	-58.7568429
1.32	132	0.186	-1.325	-0.122	27.2728008	3.4950438	-16.4438946	88.57357722	5.71812084	-58.72246542
1.33	133	0.294	-1.101	-0.186	25.8977016	3.6669312	-9.5111028	88.84286748	5.8155237	-58.68808794
1.34	134	0.299	-1.041	-0.213	28.7051958	-4.9847346	-3.0366774	89.12934648	5.84990118	-58.73392458
1.35	135	0.231	-1.09	-0.228	25.3820394	-12.7769634	-0.6875496	89.34707052	5.8728195	-58.85424576
1.36	136	0.101	-1.058	-0.286	13.8082878	-22.2307704	0.2291832	89.4673917	5.87854908	-59.0719698
1.37	137	-0.044	-0.988	-0.35	4.9847346	-39.3049188	1.2605076	89.48458044	5.8728195	-59.46158124
1.38	138	-0.149	-0.887	-0.346	5.6149884	-51.7954032	0.6302538	89.4960396	5.87854908	-59.97724344
1.39	139	-0.108	-0.809	-0.283	4.1825934	-50.2484166	-3.9534102	89.4960396	5.92438572	-60.4757169
1.4	140	-0.02	-0.805	-0.261	-4.3544808	-44.5188366	-11.2299768	89.38717758	6.03897732	-60.92262414
1.41	141	0.082	-0.818	-0.197	-14.5531332	-38.388186	-19.194093	89.20383102	6.23378304	-61.31223558
1.42	142	0.173	-0.849	-0.171	-19.194093	-31.3408026	-25.4393352	88.9803774	6.49161414	-61.62736248
1.43	143	0.237	-0.94	-0.182	-18.7357266	-23.0902074	-25.8977016	88.76265336	6.74944524	-61.86227526
1.44	144	0.26	-1.066	-0.182	-15.9282324	-16.042824	-19.0795014	88.58503638	6.9327918	-62.02843308
1.45	145	0.223	-1.109	-0.169	-10.4278356	-13.1207382	-7.3338624	88.4360673	7.0187355	-62.16021342
1.46	146	0.136	-1.109	-0.145	-5.7868758	-14.4385416	2.1199446	88.36158276	7.00154676	-62.30345292
1.47	147	0.038	-1.086	-0.131	-1.2032118	-15.6990492	10.3705398	88.33293486	6.89841432	-62.45815158
1.48	148	-0.039	-1.033	-0.106	2.9220858	-16.7303736	17.3606274	88.3501236	6.72652692	-62.61857982
1.49	149	-0.081	-0.978	-0.094	3.4950438	-17.9335854	21.3713334	88.36731234	6.51453246	-62.79046722
1.5	150	-0.084	-0.927	-0.104	1.3178034	-20.4546006	22.4026578	88.3501236	6.25670136	-63.00246168
1.51	151	-0.07	-0.886	-0.09	-0.572958	-22.5745452	20.912967	88.3214757	6.05043648	-63.22018572
1.52	152	-0.036	-0.878	-0.066	-2.578311	-23.0329116	17.475219	88.27563906	5.87854908	-63.44363934
1.53	153	0	-0.895	-0.043	-5.9587632	-21.5432208	12.7769634	88.20115452	5.74676874	-63.6556338
1.54	154	0.033	-0.916	-0.036	-9.5111028	-17.9908812	9.7975818	88.08656292	5.64936588	-63.83325078
1.55	155	0.053	-0.93	-0.045	-10.7143146	-13.2353298	8.9381448	87.96051216	5.55196302	-63.96503112
1.56	156	0.063	-0.937	-0.041	-10.4278356	-8.6516658	9.9121734	87.84592056	5.45456016	-64.05097482
1.57	157	0.06	-0.935	-0.043	-10.026765	-4.4117766	11.9748222	87.74278812	5.33423898	-64.09108188
1.58	158	0.04	-0.92	-0.046	-9.2246238	-0.572958	14.037471	87.65111484	5.19099948	-64.09108188
1.59	159	0.007	-0.902	-0.032	-8.3651868	2.9220858	15.5271618	87.56517114	5.03630082	-64.0567044
1.6	160	-0.036	-0.892	-0.019	-7.8495246	6.4171296	16.2147114	87.4906866	4.84722468	-63.9994086
1.61	161	-0.073	-0.886	-0.011	-7.7922288	10.8289062	16.1574156	87.42193164	4.68679644	-63.884817
1.62	162	-0.105	-0.876	0.003	-7.0473834	15.0114996	14.896908	87.35890626	4.54355694	-63.73011834
1.63	163	-0.116	-0.89	0.001	-6.875496	19.8816426	12.9488508	87.30161046	4.41750618	-63.52958304
1.64	164	-0.114	-0.923	-0.037	-8.59437	22.7464326	11.5164558	87.2328555	4.30864416	-63.30039984
1.65	165	-0.094	-0.935	-0.032	-7.0473834	23.3766864	10.886202	87.1755597	4.17686382	-63.07121664
1.66	166	-0.05	-0.945	0.004	-4.1252976	24.5226024	10.9434978	87.1469118	4.0680018	-62.8248447
1.67	167	0	-0.954	0.017	-3.7815228	25.210152	11.172681	87.12399348	3.96486936	-62.57274318
1.68	168	0.04	-0.947	0.016	-5.6722842	24.8663772	10.599723	87.08388642	3.86173692	-62.32064166
1.69	169	0.055	-0.927	-0.009	-7.5630456	22.8610242	9.5683986	87.01513146	3.77579322	-62.09145846
1.7	170	0.044	-0.919	-0.028	-7.9068204	19.9389384	7.8495246	86.9463765	3.6955791	-61.89092316
1.71	171	0.025	-0.935	-0.043	-8.3651868	17.8189938	5.3858052	86.87189196	3.64401288	-61.71330618
1.72	172	0.001	-0.95	-0.062	-9.2246238	16.4438946	2.6356068	86.78594826	3.62109456	-61.54714836
1.73	173	-0.032	-0.956	-0.05	-7.9641162	15.4125702	-0.0572958	86.71146372	3.62682414	-61.39817928
1.74	174	-0.06	-0.974	-0.001	-5.3858052	16.7303736	-2.6356068	86.66562708	3.66120162	-61.23202146
1.75	175	-0.075	-1.004	0.038	-3.5523396	20.1681216	-4.3544808	86.6598975	3.6669312	-61.0486749
1.76	176	-0.079	-1.052	0.061	-3.0366774	25.0382646	-5.2712136	86.63697918	3.72995658	-60.80230296
1.77	177	-0.071	-1.105	0.075	-1.0313244	31.1116194	-4.2398892	86.64270876	3.7815228	-60.49863522
1.78	178	-0.06	-1.165	0.086	1.8334656	34.091001	-1.0313244	86.68281582	3.80444112	-60.16059
1.79	179	-0.044	-1.22	0.114	4.583664	35.7525792	3.8388186	86.7458412	3.77579322	-59.80535604
1.8	180	-0.035	-1.256	0.164	6.4744254	36.669312	9.1100322	86.84324406	3.68984952	-59.43866292
1.81	181	-0.034	-1.283	0.186	5.0420304	36.8411994	13.5218088	86.9177286	3.56379876	-59.06624022
1.82	182	-0.032	-1.316	0.129	1.145916	35.4088044	16.1574156	86.9463765	3.4091001	-58.70527668
1.83	183	-0.006	-1.367	-0.011	-3.3804522	29.6219286	17.475219	86.92345818	3.24294228	-58.40160894
1.84	184	0.065	-1.425	-0.149	-5.6722842	19.194093	18.048177	86.87189196	3.07105488	-58.20680322
1.85	185	0.158	-1.43	-0.185	-3.437748	5.156622	16.7303736	86.83751448	2.91062664	-58.14377784
1.86	186	0.234	-1.372	-0.148	-1.0313244	-5.5003968	13.750992	86.82605532	2.77311672	-58.18961448
1.87	187	0.254	-1.26	-0.095	-1.5469866	-16.2147114	9.0527364	86.803137	2.67571386	-58.34431314
1.88	188	0.205	-1.122	-0.063	0.4010706	-22.8610242	3.7815228	86.803137	2.6356068	-58.57349634
1.89	189	0.13	-1.076	-0.088	6.875496	-18.9649098	-0.7448454	86.86616238	2.6356068	-58.7568429
1.9	190	0.059	-1.107	-0.136	6.2452422	-7.6776372	-4.870143	86.89481028	2.68144344	-58.83705702
1.91	191	-0.023	-1.149	-0.217	4.9274388	5.3858052	-10.313244	86.9463765	2.78457588	-58.79122038
1.92	192	-0.141	-1.204	-0.276	7.5057498	16.042824	-16.8449652	87.02659062	2.95646328	-58.63652172
1.93	193	-0.216	-1.181	-0.293	16.3865988	25.78311	-20.2827132	87.2042076	3.16272816	-58.39014978
1.94	194	-0.256	-1.126	-0.276	25.496631	30.7678446	-20.2254174	87.47349786	3.37472262	-58.09221162
1.95	195	-0.257	-1.021	-0.288	26.1268848	33.4034514	-17.2460358	87.73132896	3.51796212	-57.77708472
1.96	196	-0.22	-0.887	-0.319	19.6524594	33.6899304	-12.4904844	87.949053	3.64974246	-57.44476908
1.97	197	-0.133	-0.797	-0.352	11.1153852	34.2055926	-8.3651868	88.08083334	3.73568616	-57.10672386
1.98	198	-0.029	-0.769	-0.382	2.0626488	32.3148312	-5.5576926	88.11521082	3.79298196	-56.78586738
1.99	199	0.084	-0.783	-0.416	-6.1879464	26.6998428	-3.2658606	88.06937418	3.82735944	-56.5223067
2	200	0.248	-0.832	-0.437	-12.7196676	18.5065434	-0.2291832	87.85165014	3.90184398	-56.31604182
2.01	201	0.39	-0.839	-0.4	-14.32395	8.0787078	2.3491278	87.70841064	3.87892566	-56.24155728
2.02	202	0.463	-0.817	-0.342	-10.4278356	1.432395	2.1772404	87.6052782	3.85600734	-56.22436854
2.03	203	0.442	-0.79	-0.302	-4.6409598	-6.1306506	-1.0313244	87.55371198	3.8674665	-56.28739392
2.04	204	0.38	-0.787	-0.259	0.572958	-12.891555	-6.7609044	87.55371198	3.93049188	-56.41917426
2.05	205	0.292	-0.819	-0.213	4.010706	-18.9649098	-12.4904844	87.55371198	4.09092012	-56.59679124
2.06	206	0.195	-0.876	-0.191	3.7815228	-22.6891368	-17.5898106	87.5766303	4.26280752	-56.82597444
2.07	207	0.114	-0.937	-0.196	3.9534102	-22.8610242	-22.0015872	87.6052782	4.48053156	-57.0666168
2.08	208	0.035	-1.007	-0.193	3.3804522	-21.772404	-25.2674478	87.62246694	4.7269035	-57.29007042
2.09	209	-0.018	-1.027	-0.182	2.7501984	-20.8556712	-26.4133638	87.6339261	4.99046418	-57.50779446
2.1	210	-0.025	-1.018	-0.147	3.2085648	-20.05353	-25.1528562	87.6339261	5.21964738	-57.71978892
2.11	211	0.004	-0.988	-0.124	0.572958	-18.2200644	-22.5172494	87.62819652	5.43737142	-57.90886506
2.12	212	0.047	-0.951	-0.127	-2.2345362	-16.042824	-19.480572	87.58808946	5.63217714	-58.08075246
2.13	213	0.095	-0.944	-0.131	-3.3231564	-14.3812458	-16.9595568	87.54225282	5.79833496	-58.22972154
2.14	214	0.133	-0.952	-0.121	-4.7555514	-13.750992	-15.0114996	87.47922744	5.94157446	-58.37296104
2.15	215	0.16	-0.973	-0.109	-5.2712136	-14.4958374	-13.6936962	87.39328374	6.09054354	-58.51620054
2.16	216	0.172	-0.975	-0.106	-6.875496	-15.8709366	-13.0634424	87.30734004	6.2165943	-58.68235836
2.17	217	0.161	-0.961	-0.099	-8.0787078	-17.8762896	-13.0061466	87.20993718	6.34264506	-58.86570492
2.18	218	0.14	-0.945	-0.083	-8.1360036	-19.5951636	-13.0634424	87.10680474	6.46869582	-59.0719698
2.19	219	0.11	-0.928	-0.07	-8.8235532	-20.5691922	-13.4072172	86.99794272	6.59474658	-59.28396426
2.2	220	0.091	-0.914	-0.058	-9.6829902	-20.6837838	-14.1520626	86.87189196	6.72652692	-59.49595872
2.21	221	0.089	-0.915	-0.048	-11.745639	-20.1108258	-14.8396122	86.72865246	6.86976642	-59.70795318
2.22	222	0.097	-0.923	-0.056	-14.896908	-18.9649098	-15.0687954	86.55676506	7.01300592	-59.90848848
2.23	223	0.116	-0.927	-0.081	-17.8189938	-16.6730778	-15.2979786	86.35622976	7.15624542	-60.08037588
2.24	224	0.135	-0.933	-0.102	-19.4232762	-13.8082878	-15.4125702	86.13850572	7.3052145	-60.23507454
2.25	225	0.143	-0.942	-0.113	-20.1681216	-12.8342592	-15.469866	85.90932252	7.45418358	-60.37258446
2.26	226	0.143	-0.949	-0.118	-20.1681216	-14.4385416	-15.6990492	85.68013932	7.60315266	-60.5330127
2.27	227	0.147	-0.947	-0.111	-19.8816426	-15.9855282	-15.5844576	85.4566857	7.74639216	-60.7049001
2.28	228	0.156	-0.944	-0.101	-19.5951636	-16.5584862	-15.2979786	85.23896166	7.88963166	-60.88251708
2.29	229	0.159	-0.941	-0.092	-19.194093	-16.615782	-14.610429	85.02123762	8.021412	-61.06586364
2.3	230	0.148	-0.94	-0.067	-19.0222056	-16.2720072	-13.6936962	84.80351358	8.14746276	-61.23775104
2.31	231	0.117	-0.931	-0.032	-18.5638392	-15.469866	-12.1467096	84.59151912	8.25632478	-61.40390886
2.32	232	0.072	-0.914	-0.017	-18.6784308	-13.6936962	-9.7975818	84.38525424	8.34226848	-61.55287794
2.33	233	0.041	-0.888	-0.032	-18.6784308	-10.1413566	-6.875496	84.17898936	8.40529386	-61.66746954
2.34	234	0.03	-0.853	-0.047	-16.9595568	-6.5317212	-3.6669312	83.9956428	8.43394176	-61.7362245
2.35	235	0.034	-0.819	-0.019	-13.3499214	-3.5523396	-0.286479	83.86959204	8.41102344	-61.77633156
2.36	236	0.042	-0.796	0.02	-9.3965112	-2.6356068	2.9220858	83.77218918	8.37664596	-61.80497946
2.37	237	0.062	-0.784	0.051	-5.9587632	-3.3231564	5.9014674	83.7091638	8.31935016	-61.83362736
2.38	238	0.092	-0.774	0.089	-1.3750992	-4.5263682	8.307891	83.69197506	8.22767688	-61.86800484
2.39	239	0.131	-0.773	0.137	4.583664	-5.9587632	10.4278356	83.73208212	8.12454444	-61.91384148
2.4	240	0.182	-0.788	0.17	10.4278356	-7.6776372	12.3758928	83.86959204	8.01568242	-61.97113728
2.41	241	0.225	-0.806	0.186	15.0687954	-11.2872726	13.8082878	84.00710196	7.86671334	-62.06854014
2.42	242	0.255	-0.828	0.203	18.907614	-15.6417534	14.4958374	84.18471894	7.71774426	-62.20605006
2.43	243	0.269	-0.88	0.191	20.5118964	-19.6524594	14.32395	84.37379508	7.5630456	-62.38366704
2.44	244	0.271	-0.955	0.119	17.18874	-21.6005166	13.178034	84.52276416	7.4198061	-62.58420234
2.45	245	0.25	-1.053	0.032	11.745639	-20.2254174	10.6570188	84.63162618	7.31667366	-62.7675489
2.46	246	0.193	-1.182	-0.073	5.2139178	-14.4385416	6.7036086	84.67173324	7.24218912	-62.90505882
2.47	247	0.096	-1.317	-0.203	-2.2345362	-5.156622	1.432395	84.64308534	7.22500038	-62.95662504
2.48	248	-0.067	-1.42	-0.255	-6.4744254	6.4171296	-5.443101	84.58005996	7.28229618	-62.89932924
2.49	249	-0.212	-1.413	-0.277	-2.7501984	17.3606274	-8.8235532	84.57433038	7.37969904	-62.73317142
2.5	250	-0.235	-1.317	-0.323	2.5210152	21.4286292	-6.589017	84.60870786	7.43126526	-62.5383657
2.51	251	-0.112	-1.206	-0.309	1.432395	21.0275586	-1.145916	84.64881492	7.45991316	-62.32637124
2.52	252	0.084	-1.124	-0.264	-0.4583664	20.2827132	4.9847346	84.66600366	7.42553568	-62.12010636
2.53	253	0.281	-1.128	-0.263	0.4010706	19.8243468	12.7769634	84.69465156	7.31094408	-61.91384148
2.54	254	0.44	-1.191	-0.304	2.1199446	13.9801752	22.1161788	84.7404882	7.09894962	-61.75341324
2.55	255	0.52	-1.231	-0.305	5.3858052	3.724227	29.793816	84.79205442	6.82965936	-61.68465828
2.56	256	0.484	-1.184	-0.267	7.2192708	-6.9327918	32.1429438	84.86080938	6.50880288	-61.72476534
2.57	257	0.332	-1.067	-0.294	8.7662574	-23.9496444	28.2468294	84.92956434	6.2165943	-61.9367598
2.58	258	0.158	-0.934	-0.323	12.6623718	-38.101707	21.1421502	85.0269672	5.9874111	-62.29199376
2.59	259	0.04	-0.822	-0.288	15.8709366	-47.7274014	11.745639	85.14728838	5.8441716	-62.75608974
2.6	260	-0.001	-0.743	-0.223	15.8136408	-49.7900502	0.6875496	85.25042082	5.80406454	-63.24883362
2.61	261	0.006	-0.708	-0.201	9.5683986	-43.4875122	-10.7716104	85.30771662	5.88427866	-63.69001128
2.62	262	0.028	-0.704	-0.22	-1.0313244	-33.1169724	-20.7410796	85.26187998	6.0733548	-64.03378608
2.63	263	0.031	-0.747	-0.239	-11.745639	-23.6058696	-27.0436176	85.11864048	6.32545632	-64.29161718
2.64	264	0.019	-0.847	-0.263	-20.626488	-15.3552744	-27.7311672	84.88945728	6.589017	-64.46923416
2.65	265	-0.027	-0.989	-0.284	-27.0436176	-6.7609044	-21.0275586	84.58005996	6.76663398	-64.5723666
2.66	266	-0.078	-1.127	-0.297	-27.7311672	-1.8907614	-9.8548776	84.29358096	6.86403684	-64.6010145
2.67	267	-0.107	-1.212	-0.311	-24.7517856	-0.4583664	3.6096354	84.04147944	6.82392978	-64.60674408
2.68	268	-0.101	-1.203	-0.282	-20.8556712	0.1718874	15.1260912	83.83521456	6.66923112	-64.58955534
2.69	269	-0.059	-1.152	-0.247	-17.5898106	2.2345362	22.631841	83.65759758	6.4457775	-64.5437187
2.7	270	-0.018	-1.103	-0.223	-14.2093584	4.9847346	26.6998428	83.5086285	6.17075766	-64.47496374
2.71	271	0.004	-1.078	-0.212	-12.9488508	6.1306506	28.0176462	83.38830732	5.89573782	-64.38329046
2.72	272	0.034	-1.057	-0.224	-13.5218088	5.156622	26.642547	83.25652698	5.63790672	-64.30307634
2.73	273	0.082	-1.04	-0.236	-15.2979786	3.2658606	21.8296998	83.1075579	5.42018268	-64.24578054
2.74	274	0.136	-1.032	-0.242	-16.9595568	1.8334656	16.615782	82.9356705	5.25975444	-64.21140306
2.75	275	0.172	-1.027	-0.248	-16.5584862	0.7448454	11.5737516	82.7351352	5.17381074	-64.18275516
2.76	276	0.188	-1.024	-0.223	-13.9801752	-0.6875496	7.6776372	82.5918957	5.09359662	-64.18275516
2.77	277	0.181	-1.036	-0.182	-11.8029348	-3.2658606	5.7868758	82.47157452	5.03057124	-64.20567348
2.78	278	0.16	-1.045	-0.17	-11.0007936	-6.4744254	6.1879464	82.35698292	4.96181628	-64.26296928
2.79	279	0.129	-1.04	-0.151	-9.3392154	-8.8235532	8.2505952	82.25385048	4.870143	-64.3431834
2.8	280	0.109	-1.03	-0.13	-7.448454	-9.9694692	11.2872726	82.17363636	4.7555514	-64.42339752
2.81	281	0.084	-1.007	-0.117	-5.9014674	-10.1986524	15.5271618	82.1048814	4.59512316	-64.50361164
2.82	282	0.052	-0.985	-0.107	-4.5263682	-9.3965112	18.4492476	82.05904476	4.40031744	-64.5723666
2.83	283	0.02	-0.968	-0.099	-3.4950438	-7.8495246	20.626488	82.0189377	4.18832298	-64.62393282
2.84	284	-0.021	-0.957	-0.085	-2.1772404	-5.7868758	21.4286292	81.99601938	3.97059894	-64.65258072
2.85	285	-0.057	-0.958	-0.064	-1.6615782	-3.7815228	20.7410796	81.99601938	3.71276784	-64.67549904
2.86	286	-0.083	-0.96	-0.069	-2.6356068	-1.6042824	19.194093	81.96737148	3.5236917	-64.66403988
2.87	287	-0.089	-0.946	-0.082	-4.1252976	0.6302538	17.1314442	81.92726442	3.3518043	-64.63539198
2.88	288	-0.087	-0.931	-0.092	-5.72958	3.3804522	14.7250206	81.8756982	3.2085648	-64.58382576
2.89	289	-0.069	-0.916	-0.096	-7.3911582	6.7609044	12.0894138	81.80121366	3.09970278	-64.50361164
2.9	290	-0.05	-0.898	-0.101	-8.2505952	9.2246238	10.4851314	81.72672912	2.9793816	-64.40620878
2.91	291	-0.033	-0.875	-0.093	-8.307891	12.3758928	9.0527364	81.646515	2.90489706	-64.26869886
2.92	292	-0.016	-0.854	-0.09	-7.9068204	15.8136408	7.5630456	81.57203046	2.84760126	-64.10254104
2.93	293	-0.008	-0.839	-0.086	-6.9327918	19.5951636	5.9587632	81.50900508	2.81322378	-63.90200574
2.94	294	-0.009	-0.83	-0.072	-4.5263682	23.5485738	4.297185	81.46889802	2.79603504	-63.66709296
2.95	295	-0.024	-0.831	-0.034	-1.145916	27.1009134	2.4064236	81.48608676	2.79030546	-63.40353228
2.96	296	-0.041	-0.84	-0.004	2.5210152	30.8824362	0.9167328	81.52619382	2.81895336	-63.09413496
2.97	297	-0.056	-0.855	0.014	5.8441716	34.950438	-0.1145916	81.59494878	2.85906042	-62.75036016
2.98	298	-0.065	-0.869	0.027	7.1046792	37.6433406	0.1145916	81.68089248	2.90489706	-62.38366704
2.99	299	-0.06	-0.88	0.028	7.161975	39.1330314	1.145916	81.76683618	2.93927454	-61.9940556
3	300	-0.056	-0.896	0.026	8.7662574	39.6486936	3.2085648	81.89288694	2.93354496	-61.60444416
3.01	301	-0.046	-0.917	0.033	7.6776372	39.7632852	5.5576926	81.98456022	2.9220858	-61.20337356
3.02	302	-0.033	-0.928	0.04	6.0733548	39.1903272	7.2192708	82.06477434	2.8934379	-60.80803254
3.03	303	-0.017	-0.949	0.051	5.3285094	38.3308902	7.8495246	82.1335293	2.85906042	-60.4184211
3.04	304	-0.004	-0.976	0.065	4.6409598	37.6433406	7.5057498	82.19655468	2.82468294	-60.04026882
3.05	305	0.003	-1.006	0.067	2.1772404	37.528749	6.5317212	82.25958006	2.79603504	-59.66211654
3.06	306	0	-1.036	0.066	-0.1145916	37.5860448	5.9014674	82.27103922	2.77311672	-59.28396426
3.07	307	-0.002	-1.069	0.078	-2.1199446	37.2995658	6.0733548	82.26530964	2.75592798	-58.91154156
3.08	308	0	-1.122	0.081	-5.156622	36.1536498	7.5630456	82.22520258	2.71582092	-58.54484844
3.09	309	0.016	-1.183	0.052	-10.313244	34.0337052	9.7975818	82.1335293	2.65852512	-58.19534406
3.1	310	0.046	-1.259	-0.025	-16.615782	29.793816	12.6623718	81.97883064	2.56112226	-57.88594674
3.11	311	0.094	-1.325	-0.165	-20.9702628	21.485925	16.042824	81.77256576	2.42934192	-57.65676354
3.12	312	0.174	-1.344	-0.312	-22.345362	6.302538	21.0848544	81.54911214	2.22307704	-57.56509026
3.13	313	0.239	-1.298	-0.311	-17.9335854	-13.0634424	23.7204612	81.36576558	1.9767051	-57.66249312
3.14	314	0.274	-1.233	-0.302	-13.6364004	-27.0436176	22.2880662	81.22252608	1.718874	-57.8974059
3.15	315	0.277	-1.146	-0.326	-9.6256944	-34.3201842	16.6730778	81.10793448	1.54125702	-58.20107364
3.16	316	0.256	-1.067	-0.297	-4.8128472	-34.1482968	9.740286	81.05063868	1.39801752	-58.52193012
3.17	317	0.2	-1.023	-0.25	-0.2291832	-29.507337	4.4690724	81.05063868	1.3178034	-58.80267954
3.18	318	0.13	-1.013	-0.244	4.4690724	-21.772404	1.8907614	81.09074574	1.27196676	-59.014674
3.19	319	0.015	-1.088	-0.189	10.4278356	-13.5218088	0.859437	81.19960776	1.24904844	-59.14645434
3.2	320	-0.167	-1.21	-0.205	16.1001198	-2.86479	-2.8074942	81.35430642	1.24904844	-59.1865614
3.21	321	-0.389	-1.311	-0.226	22.7464326	9.6256944	-9.6256944	81.5892192	1.35791046	-59.1006177
3.22	322	-0.542	-1.376	-0.246	23.5485738	19.767051	-17.4179232	81.82986156	1.55271618	-58.9287303
3.23	323	-0.548	-1.345	-0.269	21.3140376	30.2521824	-23.6058696	82.0475856	1.82200644	-58.65944004
3.24	324	-0.422	-1.242	-0.302	17.8762896	41.0237928	-26.1841806	82.23666174	2.12567418	-58.29274692
3.25	325	-0.247	-1.13	-0.348	14.610429	49.274388	-24.1788276	82.37990124	2.39496444	-57.8401101
3.26	326	-0.082	-1.041	-0.392	11.8602306	56.436363	-19.5951636	82.51741116	2.64706596	-57.31298874
3.27	327	0.068	-0.954	-0.425	8.5370742	62.9107884	-13.2353298	82.62627318	2.84187168	-56.70565326
3.28	328	0.202	-0.881	-0.456	4.9274388	64.6869582	-3.6096354	82.70075772	2.94500412	-56.07539946
3.29	329	0.302	-0.804	-0.458	1.4896908	61.5356892	4.1252976	82.7351352	2.96219286	-55.4623344
3.3	330	0.347	-0.734	-0.434	-1.5469866	54.8893764	9.740286	82.70075772	2.96792244	-54.89510598
3.31	331	0.348	-0.673	-0.411	-2.5210152	45.4355694	12.5477802	82.68929856	2.88770832	-54.43101
3.32	332	0.311	-0.649	-0.385	-0.6302538	35.3515086	12.4904844	82.69502814	2.80176462	-54.07004646
3.33	333	0.239	-0.678	-0.369	2.6929026	27.1009134	9.9694692	82.7351352	2.72728008	-53.78929704
3.34	334	0.155	-0.762	-0.357	5.8441716	21.2567418	6.1879464	82.80389016	2.68717302	-53.571573
3.35	335	0.08	-0.871	-0.328	9.167328	18.2773602	0.9740286	82.83826764	2.69863218	-53.39395602
3.36	336	0.018	-0.981	-0.305	12.4331886	17.7044022	-6.302538	82.97004798	2.7788463	-53.22206862
3.37	337	-0.018	-1.038	-0.279	15.2406828	18.5638392	-12.4331886	83.13047622	2.9220858	-53.0559108
3.38	338	-0.001	-1.042	-0.241	18.334656	19.5951636	-16.3865988	83.32528194	3.09970278	-52.87829382
3.39	339	0.049	-1.034	-0.226	20.912967	20.8556712	-17.5325148	83.54300598	3.2945085	-52.68921768
3.4	340	0.11	-1.01	-0.21	21.485925	21.6578124	-16.329303	83.75500044	3.48931422	-52.48868238
3.41	341	0.164	-0.995	-0.204	21.9442914	21.0848544	-12.891555	83.98991322	3.63255372	-52.28814708
3.42	342	0.191	-0.987	-0.209	21.6578124	19.5378678	-8.59437	84.21909642	3.73568616	-52.10480052
3.43	343	0.191	-0.973	-0.194	21.199446	16.6730778	-4.8128472	84.44255004	3.79871154	-51.9386427
3.44	344	0.179	-0.969	-0.171	20.7410796	12.3758928	-2.1199446	84.6545445	3.82735944	-51.81832152
3.45	345	0.166	-0.982	-0.17	18.1627686	7.3338624	-1.3178034	84.80924316	3.89038482	-51.73237782
3.46	346	0.153	-0.98	-0.172	15.5271618	3.0366774	-1.9480572	84.9696714	3.91330314	-51.70372992
3.47	347	0.134	-0.989	-0.162	14.2093584	-0.6302538	-3.5523396	85.1129109	3.94768062	-51.7094595
3.48	348	0.105	-0.988	-0.151	12.4904844	-4.010706	-6.016059	85.23323208	4.00497642	-51.75529614
3.49	349	0.077	-0.981	-0.137	10.9434978	-6.589017	-9.0527364	85.3420941	4.09092012	-51.8240511
3.5	350	0.065	-0.954	-0.128	10.313244	-7.5630456	-12.6623718	85.42230822	4.21697088	-51.9099948
3.51	351	0.07	-0.926	-0.112	10.599723	-7.2192708	-15.9855282	85.52544066	4.37166954	-51.9959385
3.52	352	0.093	-0.916	-0.102	9.2819196	-7.1046792	-18.5065434	85.61711394	4.5550161	-52.07615262
3.53	353	0.121	-0.915	-0.103	7.1046792	-7.8495246	-19.1367972	85.68013932	4.73836266	-52.1678259
3.54	354	0.143	-0.91	-0.092	5.8441716	-8.1932994	-18.2200644	85.73170554	4.91597964	-52.26522876
3.55	355	0.161	-0.903	-0.075	5.2139178	-9.3965112	-16.4438946	85.7718126	5.10505578	-52.35690204
3.56	356	0.173	-0.899	-0.06	4.4690724	-11.6310474	-14.4958374	85.80619008	5.2425657	-52.4829528
3.57	357	0.177	-0.893	-0.05	3.3804522	-14.2666542	-13.1207382	85.8291084	5.36861646	-52.63765146
3.58	358	0.174	-0.896	-0.046	2.6929026	-17.3033316	-12.4904844	85.84056756	5.48320806	-52.81526844
3.59	359	0.164	-0.899	-0.039	2.6929026	-20.05353	-12.5477802	85.85202672	5.59779966	-53.02153332
3.6	360	0.146	-0.905	-0.032	2.6929026	-22.8610242	-13.178034	85.86348588	5.73530958	-53.2564461
3.61	361	0.132	-0.903	-0.029	2.7501984	-25.3820394	-13.9228794	85.86921546	5.86136034	-53.52000678
3.62	362	0.129	-0.9	-0.032	2.4637194	-26.2414764	-14.5531332	85.86921546	5.99314068	-53.78929704
3.63	363	0.133	-0.891	-0.023	2.4637194	-26.5852512	-14.7823164	85.86921546	6.1306506	-54.06431688
3.64	364	0.136	-0.888	-0.006	2.1772404	-27.5592798	-14.2093584	85.86348588	6.25670136	-54.3450663
3.65	365	0.141	-0.886	0.01	0.9740286	-29.793816	-12.4331886	85.85202672	6.37702254	-54.64873404
3.66	366	0.147	-0.88	0.023	-0.8021412	-33.0596766	-9.7975818	85.81191966	6.46296624	-54.98104968
3.67	367	0.159	-0.868	0.008	-2.578311	-36.2109456	-6.6463128	85.74889428	6.50880288	-55.3477428
3.68	368	0.171	-0.847	-0.003	-2.1772404	-39.3049188	-3.151269	85.6858689	6.52599162	-55.74308382
3.69	369	0.17	-0.83	-0.001	1.0886202	-42.7426668	-0.4583664	85.657221	6.50880288	-56.16707274
3.7	370	0.164	-0.804	0.006	5.6149884	-45.6074568	1.2032118	85.67440974	6.48588456	-56.61397998
3.71	371	0.165	-0.768	0.03	11.6310474	-47.6701056	1.9480572	85.74889428	6.4457775	-57.08380554
3.72	372	0.176	-0.739	0.057	16.8449652	-48.8160216	2.1199446	85.86921546	6.40567044	-57.56509026
3.73	373	0.194	-0.729	0.086	20.3973048	-50.3057124	1.6615782	86.0296437	6.37129296	-58.06356372
3.74	374	0.215	-0.73	0.12	22.4026578	-53.2277982	0.9740286	86.20726068	6.34264506	-58.59068508
3.75	375	0.221	-0.76	0.138	23.777757	-57.6395748	0.9740286	86.40779598	6.32545632	-59.15218392
3.76	376	0.212	-0.828	0.125	23.0329116	-62.9107884	2.005353	86.57968338	6.29107884	-59.77670814
3.77	377	0.192	-0.897	0.095	21.485925	-66.1193532	3.437748	86.74011162	6.23378304	-60.42988026
3.78	378	0.16	-0.935	0.09	22.5745452	-65.603691	4.7555514	86.90626944	6.17075766	-61.0773228
3.79	379	0.102	-0.973	0.105	24.8090814	-64.171296	5.5576926	87.10107516	6.1020027	-61.7075766
3.8	380	0.024	-1.012	0.11	24.2361234	-59.5303362	5.2139178	87.30734004	6.02751816	-62.29772334
3.81	381	-0.062	-1.03	0.089	21.0275586	-52.5975444	4.5263682	87.47349786	5.97595194	-62.81911512
3.82	382	-0.125	-1.035	0.064	17.3033316	-46.2950064	3.9534102	87.6052782	5.9301153	-63.27175194
3.83	383	-0.145	-1.04	0.035	14.5531332	-39.4195104	3.3804522	87.7198698	5.89573782	-63.66136338
3.84	384	-0.122	-1.038	0.023	14.5531332	-29.6219286	1.6615782	87.84019098	5.8728195	-63.95357196
3.85	385	-0.066	-1.052	0.022	16.4438946	-18.5638392	-1.5469866	88.00061922	5.85563076	-64.14837768
3.86	386	0.01	-1.091	0.015	17.7044022	-9.6829902	-6.4171296	88.17250662	5.91865614	-64.24578054
3.87	387	0.101	-1.137	-0.02	18.048177	-0.859437	-11.5737516	88.35585318	6.03324774	-64.25151012
3.88	388	0.178	-1.175	-0.051	17.5898106	7.1046792	-14.6677248	88.54492932	6.18221682	-64.18275516
3.89	389	0.202	-1.191	-0.065	17.4179232	13.0634424	-14.7823164	88.73400546	6.3311859	-64.0567044
3.9	390	0.18	-1.173	-0.054	19.4232762	17.8189938	-12.1467096	88.94027034	6.45723666	-63.87908742
3.91	391	0.116	-1.132	-0.01	22.8610242	19.6524594	-8.880849	89.19237186	6.54318036	-63.67855212
3.92	392	0.044	-1.106	0.031	26.1268848	19.6524594	-6.9327918	89.47885086	6.61193532	-63.4837464
3.93	393	0.016	-1.124	0.046	26.642547	18.907614	-7.6776372	89.76532986	6.68641986	-63.28894068
3.94	394	0.039	-1.162	0.029	25.8977016	19.1367972	-8.9381448	90.05180886	6.77236356	-63.09413496
3.95	395	0.092	-1.204	-0.024	25.9549974	19.5951636	-9.167328	90.3268287	6.85830726	-62.89932924
3.96	396	0.15	-1.227	-0.079	26.2987722	19.194093	-7.8495246	90.6133077	6.9327918	-62.70452352
3.97	397	0.203	-1.215	-0.12	25.3820394	15.9855282	-5.5576926	90.88832754	6.98435802	-62.5383657
3.98	398	0.231	-1.161	-0.131	23.7204612	10.1986524	-3.8961144	91.14615864	7.0187355	-62.43523326
3.99	399	0.225	-1.097	-0.132	22.8610242	2.291832	-3.724227	91.38107142	7.05884256	-62.40658536
4	400	0.18	-1.042	-0.149	21.6005166	-7.7922288	-5.7868758	91.54722924	7.1333271	-62.4810699
4.01	401	0.127	-0.998	-0.18	18.9649098	-18.4492476	-8.59437	91.71911664	7.23072996	-62.65868688
4.02	402	0.091	-0.949	-0.214	14.610429	-26.0122932	-11.0007936	91.83943782	7.35678072	-62.91651798
4.03	403	0.072	-0.883	-0.212	12.2613012	-32.0283522	-13.6364004	91.92538152	7.51147938	-63.2259153
4.04	404	0.06	-0.832	-0.169	12.2040054	-34.8931422	-16.8449652	92.01132522	7.70055552	-63.56396052
4.05	405	0.066	-0.822	-0.135	9.740286	-34.1482968	-19.8816426	92.0457027	7.91254998	-63.90200574
4.06	406	0.084	-0.836	-0.118	5.3858052	-32.1429438	-21.4286292	92.06289144	8.14746276	-64.21140306
4.07	407	0.092	-0.893	-0.098	2.9793816	-30.1948866	-20.912967	92.05143228	8.37664596	-64.50361164
4.08	408	0.077	-0.98	-0.093	2.0626488	-28.0176462	-18.048177	92.03997312	8.57145168	-64.77863148
4.09	409	0.044	-1.072	-0.096	0.8021412	-24.5798982	-13.4072172	92.01132522	8.72042076	-65.01927384
4.1	410	0.015	-1.11	-0.105	0.859437	-21.1421502	-9.5111028	91.95402942	8.78917572	-65.23699788
4.11	411	-0.012	-1.119	-0.109	2.9793816	-18.334656	-6.7609044	91.959759	8.86938984	-65.42034444
4.12	412	-0.017	-1.115	-0.106	4.870143	-15.756345	-5.2712136	91.9884069	8.93241522	-65.5750431
4.13	413	-0.002	-1.108	-0.085	5.9587632	-13.464513	-5.0420304	92.03424354	8.98971102	-65.70682344
4.14	414	0.028	-1.106	-0.061	5.9014674	-11.1153852	-6.0733548	92.0743506	9.05846598	-65.81568546
4.15	415	0.071	-1.11	-0.043	4.8128472	-9.2819196	-7.3338624	92.08008018	9.1100322	-65.91308832
4.16	416	0.105	-1.111	-0.046	2.6356068	-7.161975	-8.3651868	92.09726892	9.20170548	-65.98184328
4.17	417	0.137	-1.102	-0.057	0.1718874	-4.6409598	-8.59437	92.09153934	9.28764918	-66.02767992
4.18	418	0.152	-1.081	-0.062	-0.2291832	-2.291832	-8.1932994	92.09153934	9.37359288	-66.04486866
4.19	419	0.163	-1.057	-0.059	1.2605076	0.286479	-7.2765666	92.1029985	9.44234784	-66.03913908
4.2	420	0.162	-1.034	-0.045	3.3231564	2.8074942	-6.302538	92.0743506	9.50537322	-66.01622076
4.21	421	0.153	-1.02	-0.04	5.2139178	4.8128472	-4.5263682	92.13737598	9.54548028	-65.96465454
4.22	422	0.135	-0.995	-0.037	6.8182002	5.72958	-1.6615782	92.2175901	9.55693944	-65.90735874
4.23	423	0.101	-0.962	-0.026	9.2246238	4.8128472	1.2605076	92.32072254	9.54548028	-65.85579252
4.24	424	0.062	-0.928	-0.014	12.032118	3.724227	4.0680018	92.4467733	9.49964364	-65.82141504
4.25	425	0.025	-0.893	0	14.2093584	3.2658606	6.4744254	92.57855364	9.3965112	-65.79849672
4.26	426	0.008	-0.861	0.021	16.1001198	3.6669312	7.3911582	92.75044104	9.32202666	-65.76411924
4.27	427	0	-0.839	0.05	18.4492476	4.5263682	7.5630456	92.94524676	9.24181254	-65.7182826
4.28	428	-0.003	-0.82	0.075	20.8556712	5.156622	7.2192708	93.1629708	9.167328	-65.67244596
4.29	429	-0.005	-0.798	0.088	22.631841	6.1879464	6.8182002	93.40361316	9.09857304	-65.60942058
4.3	430	-0.005	-0.777	0.099	23.1475032	6.9327918	6.875496	93.65571468	9.00117018	-65.5463952
4.31	431	-0.011	-0.75	0.113	23.7204612	7.5630456	7.161975	93.9078162	8.92095606	-65.47191066
4.32	432	-0.017	-0.73	0.12	23.6631654	9.6829902	7.734933	94.15991772	8.84074194	-65.38023738
4.33	433	-0.017	-0.709	0.118	22.7464326	14.3812458	7.7922288	94.41201924	8.74906866	-65.23699788
4.34	434	-0.013	-0.685	0.11	22.5172494	19.2513888	7.448454	94.66412076	8.65739538	-65.05365132
4.35	435	-0.015	-0.661	0.101	23.6631654	22.7464326	6.9327918	94.9391406	8.54853336	-64.8301977
4.36	436	-0.015	-0.642	0.103	25.8977016	24.637194	6.6463128	95.23707876	8.45686008	-64.58955534
4.37	437	-0.014	-0.629	0.13	29.1062664	23.1475032	6.6463128	95.55793524	8.3651868	-64.36037214
4.38	438	-0.009	-0.637	0.195	33.804522	18.621135	6.016059	95.92462836	8.28497268	-64.17702558
4.39	439	0.013	-0.688	0.243	36.096354	14.8396122	4.0680018	96.3142398	8.22767688	-64.03378608
4.4	440	0.05	-0.742	0.236	35.236917	12.4331886	1.145916	96.70385124	8.1932994	-63.90773532
4.41	441	0.094	-0.791	0.222	35.5806918	8.9381448	-2.1772404	97.08200352	8.20475856	-63.81033246
4.42	442	0.12	-0.835	0.225	37.7579322	7.0473834	-4.6982556	97.47161496	8.23913604	-63.73011834
4.43	443	0.126	-0.856	0.238	40.6227222	5.443101	-6.875496	97.89560388	8.30216142	-63.66136338
4.44	444	0.111	-0.863	0.277	44.1750618	2.3491278	-8.59437	98.3482407	8.38810512	-63.62125632
4.45	445	0.08	-0.881	0.32	45.550161	-1.3178034	-9.5683986	98.84098458	8.47404882	-63.61552674
4.46	446	0.059	-0.893	0.344	44.8626114	-2.7501984	-9.3392154	99.29935098	8.57145168	-63.62125632
4.47	447	0.06	-0.913	0.339	44.5761324	-2.7501984	-7.7922288	99.74625822	8.65739538	-63.6269859
4.48	448	0.078	-0.937	0.337	45.6647526	-1.5469866	-5.9587632	100.2103542	8.72042076	-63.6269859
4.49	449	0.106	-0.952	0.339	47.0971476	0.2291832	-4.7555514	100.6916389	8.77198698	-63.60979716
4.5	450	0.123	-0.96	0.358	48.9306132	-0.4010706	-4.870143	101.2187603	8.81782362	-63.598338
4.51	451	0.135	-0.96	0.386	51.3370368	-4.1825934	-4.6409598	101.7344225	8.87511942	-63.62125632
4.52	452	0.161	-0.961	0.404	54.144531	-10.7716104	-3.3804522	102.273003	8.9381448	-63.7129296
4.53	453	0.203	-0.959	0.413	57.7541664	-18.5065434	-1.8334656	102.8345018	9.00117018	-63.87908742
4.54	454	0.26	-0.962	0.417	63.598338	-26.642547	-1.3750992	103.4418373	9.08711388	-64.13118894
4.55	455	0.289	-0.962	0.432	71.5051584	-36.7839036	-0.9167328	104.1351165	9.20743506	-64.46923416
4.56	456	0.268	-0.952	0.445	78.7244292	-49.560867	0	104.8627732	9.34494498	-64.93333014
4.57	457	0.227	-0.945	0.46	83.3080932	-61.0773228	1.3178034	105.6248073	9.5111028	-65.51201772
4.58	458	0.187	-0.935	0.478	87.0323202	-68.3538894	3.437748	106.4040302	9.68871978	-66.16518984
4.59	459	0.139	-0.911	0.481	87.1469118	-71.61975	4.870143	107.1832531	9.86633676	-66.84700986
4.6	460	0.081	-0.896	0.474	90.8711388	-71.5624542	4.9847346	108.0083126	10.04968332	-67.52882988
4.61	461	0.038	-0.893	0.451	94.3088868	-71.2186794	4.297185	108.8562904	10.2559482	-68.20492032
4.62	462	-0.013	-0.916	0.421	94.251591	-73.052145	3.3804522	109.6985387	10.4851314	-68.88674034
4.63	463	-0.046	-0.906	0.365	91.1576178	-77.8649922	2.4064236	110.5006799	10.74869208	-69.614397
4.64	464	-0.046	-0.919	0.299	82.9643184	-82.6205436	2.291832	111.2111478	11.04090066	-70.37643114
4.65	465	-0.054	-0.954	0.194	68.9268474	-82.9070226	3.724227	111.7554579	11.31019092	-71.15565402
4.66	466	-0.103	-0.958	0.013	52.1964738	-77.062851	7.6776372	112.1507989	11.55083328	-71.89476984
4.67	467	-0.161	-0.915	-0.192	33.7472262	-66.176649	13.6936962	112.368523	11.6883432	-72.55367154
4.68	468	-0.186	-0.861	-0.342	17.1314442	-55.0612638	20.7410796	112.4315483	11.7169911	-73.1380887
4.69	469	-0.147	-0.838	-0.412	0.9740286	-46.8106686	26.5852512	112.3398751	11.66542488	-73.67093964
4.7	470	-0.017	-0.833	-0.472	-20.912967	-43.831287	31.6272816	111.9502636	11.5451037	-74.20952016
4.71	471	0.168	-0.942	-0.474	-43.4875122	-50.2484166	37.4141574	111.3944944	11.39613462	-74.82258522
4.72	472	0.361	-1.222	-0.407	-69.614397	-63.8275212	45.3209778	110.5465165	11.21278806	-75.59607852
4.73	473	0.531	-1.544	-0.396	-100.554129	-76.8336678	54.6028974	109.3604935	10.97787528	-76.5185409
4.74	474	0.64	-1.726	-0.499	-125.1340272	-82.792431	63.8275212	107.9166393	10.6570188	-77.52694698
4.75	475	0.569	-1.542	-0.578	-144.958374	-84.9696714	71.2759752	106.2550611	10.25021862	-78.56973054
4.76	476	0.31	-0.984	-0.599	-145.7032194	-86.9177286	70.2446508	104.6049421	9.82050012	-79.6125141
4.77	477	0.026	-0.51	-0.576	-99.694692	-85.2561504	57.582279	103.4418373	9.48818448	-80.59227228
4.78	478	-0.22	-0.193	-0.594	-35.8671708	-81.932994	36.8411994	102.9433639	9.33348582	-81.4746276
4.79	479	-0.359	-0.059	-0.438	10.0840608	-83.5372764	11.9748222	102.9204455	9.4251591	-82.31114628
4.8	480	-0.374	-0.048	-0.313	22.0015872	-92.6473086	-8.1932994	102.9949301	9.7116381	-83.1935016
4.81	481	-0.366	-0.087	-0.173	17.9335854	-107.2577376	-17.4179232	103.0178484	10.14708618	-84.1961781
4.82	482	-0.318	-0.217	0.054	18.3919518	-103.13244	-19.5951636	103.0464963	10.59399342	-85.14728838
4.83	483	-0.224	-0.45	0.435	16.9595568	-88.0063488	-15.8136408	103.0808738	10.9721457	-85.96661832
4.84	484	-0.096	-0.682	0.594	14.3812458	-76.0888224	-6.1879464	103.0923329	11.21851764	-86.69427498
4.85	485	0.001	-0.891	0.434	1.3750992	-67.1506776	4.010706	103.0006597	11.32737966	-87.35890626
4.86	486	0.074	-1.05	0.25	-24.064236	-50.5921914	7.2765666	102.6626144	11.37894588	-87.87456846
4.87	487	0.071	-0.949	0.189	-44.117766	-39.0757356	2.0626488	102.1412227	11.45343042	-88.26990948
4.88	488	0.122	-0.713	0.149	-36.5547204	-55.863405	-11.8029348	101.6713971	11.69407278	-88.79703084
4.89	489	0.182	-0.58	0.061	-15.9855282	-68.9841432	-24.5226024	101.3906477	12.08368422	-89.42728464
4.9	490	0.2	-0.417	-0.094	-5.6149884	-78.3233586	-29.6219286	101.1786532	12.55923936	-90.13775256
4.91	491	0.183	-0.244	0.081	-12.318597	-75.9742308	-30.653253	100.909363	13.02333534	-90.83103174
4.92	492	0.13	-0.24	0.18	-7.5057498	-66.4058322	-32.085648	100.7030981	13.47597216	-91.42690806
4.93	493	0.029	-0.331	0.132	2.578311	-62.2232388	-25.8977016	100.6056952	13.85985402	-91.99986606
4.94	494	0.043	-0.406	0.109	10.8289062	-67.036086	-18.907614	100.5713177	14.1807105	-92.63011986
4.95	495	0.121	-0.345	0.067	23.6058696	-77.5785132	-13.9228794	100.6343431	14.49010782	-93.36923568
4.96	496	0.23	-0.308	0.025	43.544808	-88.9803774	-12.605076	100.8749855	14.79950514	-94.22867268
4.97	497	0.344	-0.245	0.019	59.8168152	-94.9964364	-14.1520626	101.2588673	15.14900952	-95.1396759
4.98	498	0.438	-0.174	0.12	69.7289886	-91.7878716	-18.5065434	101.7458816	15.53862096	-96.01057206
4.99	499	0.454	-0.182	0.185	71.7343416	-89.0376732	-25.8404058	102.2615438	15.99698736	-96.83563158
5	500	0.429	-0.205	0.166	59.5303362	-90.0689976	-35.0077338	102.6568849	16.58140452	-97.64350236
5.01	501	0.344	-0.171	0.081	47.7846972	-82.3340646	-46.5241896	102.9433639	17.23457664	-98.35397028
5.02	502	0.157	-0.2	-0.087	37.528749	-77.922288	-56.9520252	103.1438992	17.97942204	-98.98995366
5.03	503	-0.116	-0.21	-0.122	29.2781538	-73.8542862	-67.2652692	103.2642203	18.8216703	-99.56864124
5.04	504	-0.366	-0.222	-0.185	23.3193906	-74.0261736	-75.5731602	103.3272457	19.7384031	-100.1301401
5.05	505	-0.548	-0.234	-0.252	18.7930224	-66.6923112	-81.5892192	103.3387049	20.6551359	-100.6171544
5.06	506	-0.632	-0.257	-0.276	17.18874	-52.4829528	-87.6052782	103.4074598	21.63489408	-100.9322813
5.07	507	-0.488	-0.283	-0.375	29.0489706	-45.4928652	-95.5120986	103.6194543	22.67767764	-101.1557349
5.08	508	-0.085	-0.341	-0.336	46.982556	-40.2789474	-102.6740736	104.0434432	23.777757	-101.2989744
5.09	509	0.524	-0.499	-0.096	59.6449278	-10.5424272	-112.2424722	104.7367224	24.88356594	-101.0927095
5.1	510	1.358	-0.757	0.148	67.7236356	36.4401288	-119.1179682	105.7336693	25.93207908	-100.3535937
5.11	511	2.513	-1.489	0.498	87.089616	83.1362058	-107.429625	107.1488756	26.70557238	-99.12746358
5.12	512	3.686	-3.42	0.818	124.2172944	104.851314	2.9220858	108.8849383	26.33314968	-98.0331138
5.13	513	3.139	-3.999	0.678	-114.5916	95.7985776	170.0539344	107.8708027	24.4080108	-97.6606911
5.14	514	2.147	-3.992	2.492	303.954219	165.1837914	59.6449278	111.5377339	23.28501312	-96.15381156
5.15	515	-0.701	-1.563	3.025	269.1756684	99.4655088	-121.2952086	114.878079	23.97256272	-94.60682496
5.16	516	0.364	-1.809	1.047	152.1776448	-26.2987722	-205.8638094	116.7401925	25.93780866	-93.8505204
5.17	517	0.818	-2.553	1.304	103.5908064	-29.507337	-217.4948568	118.1840467	27.9889983	-92.99681298
5.18	518	1.504	-1.956	2.263	302.7510072	48.414951	-279.603504	122.2749668	30.1375908	-90.88259796
5.19	519	1.957	-1.16	2.001	224.3703528	-0.4583664	-274.9625442	125.4892612	32.40650448	-89.05486194
5.2	520	1.605	-0.622	0.338	175.7835144	-63.598338	-227.8081008	127.8555777	34.61812236	-87.99488964
5.21	521	1.129	-0.682	0.055	148.9117842	-31.2835068	-156.5321256	129.9067673	36.02759904	-87.05523852
5.22	522	0.465	-0.522	0.085	116.4823614	-47.7274014	-99.981171	131.3277032	37.09330092	-86.66562708
5.23	523	-0.059	-0.39	-0.213	133.785693	-60.9054354	-68.0674104	132.7199911	38.01003372	-86.61979044
5.24	524	-0.609	-0.914	-0.183	186.8988996	-68.3538894	-69.041439	134.64513	38.97833274	-86.58541296
5.25	525	-0.524	-0.999	0.261	165.5275662	-50.993262	-85.657221	136.5645393	39.9065247	-86.22444942
5.26	526	-0.082	-0.494	0.545	139.228794	9.3965112	-108.6328368	138.7188614	40.55396724	-85.07280384
5.27	527	0.123	-0.283	0.793	150.0577002	53.1132066	-124.7329566	141.3487386	40.92638994	-83.35965942
5.28	528	0.667	-0.429	0.688	169.6528638	43.9458786	-125.5923936	144.1734215	41.32173096	-81.66943332
5.29	529	0.842	-0.377	0.464	178.7056002	17.8189938	-126.910197	147.0095636	41.87177064	-80.11671714
5.3	530	0.834	0.014	0.689	189.5918022	15.9855282	-136.5931872	150.0863481	42.43899906	-78.4093023
5.31	531	1.013	-0.104	1.122	233.2512018	18.1054728	-139.228794	153.6787948	42.90882462	-76.59875502
5.32	532	0.881	-0.077	1.231	218.5261812	22.91832	-134.0148762	157.1280019	43.23541068	-74.78247816
5.33	533	0.773	-0.063	1.373	191.1960846	23.2620948	-129.202029	160.2907301	43.46459388	-73.00057878
5.34	534	0.914	0.019	1.552	153.4381524	28.6479	-127.8842256	163.0810355	43.57918548	-71.20149066
5.35	535	0.943	-0.071	1.517	101.700045	42.6280752	-127.6550424	165.3785971	43.49324178	-69.3565659
5.36	536	0.855	-0.18	1.403	54.2591226	62.0513514	-133.499214	167.2636289	43.2010332	-67.39704954
5.37	537	0.734	-0.257	1.145	18.9649098	83.5945722	-140.7757806	168.8507226	42.66818226	-65.32294158
5.38	538	0.68	-0.181	0.945	8.1360036	92.3608296	-139.9736394	170.2945768	42.01501014	-63.2832111
5.39	539	0.616	-0.188	0.842	7.2192708	98.6633676	-130.2333534	171.6066506	41.24724642	-61.40390886
5.4	540	0.649	-0.091	0.725	4.297185	97.116381	-118.029348	172.7239187	40.44510522	-59.7308715
5.41	541	0.681	0.045	0.64	12.032118	99.121734	-106.5128922	173.7896206	39.5913978	-58.2411807
5.42	542	0.625	-0.003	0.61	23.1475032	104.9659056	-94.3088868	174.8324041	38.6460171	-56.94056604
5.43	543	0.627	0.065	0.587	32.6013102	111.2111478	-91.8451674	175.9095652	37.6146927	-55.70870634
5.44	544	0.594	0.021	0.628	37.4141574	112.3570638	-86.8604328	176.9523487	36.54899082	-54.5742495
5.45	545	0.639	0.043	0.592	29.793816	110.1798234	-88.4074194	177.903459	35.50620726	-53.4569814
5.46	546	0.675	0.122	0.56	29.1635622	101.8719324	-83.938347	178.7686256	34.5207195	-52.43711616
5.47	547	0.677	0.268	0.602	28.0176462	88.6366026	-73.5678072	179.5306597	33.64982334	-51.56622
5.48	548	0.613	0.212	0.685	19.6524594	82.7351352	-58.155237	-179.908812	32.8304934	-50.89585914
5.49	549	0.566	0.15	0.757	4.870143	79.068204	-46.2377106	-179.5994147	32.03981136	-50.38019694
5.5	550	0.521	0.103	0.805	-0.572958	80.0995284	-38.5027776	-179.3874202	31.24912932	-49.9619376
5.51	551	0.468	0.113	0.831	-4.0680018	82.8497268	-30.9970278	-179.2728286	30.4240698	-49.64108112
5.52	552	0.448	0.15	0.84	-6.4171296	90.527364	-24.4653066	-179.2327216	29.53025532	-49.40043876
5.53	553	0.433	0.127	0.874	-7.734933	100.8979038	-20.1108258	-179.2384511	28.52757882	-49.2170922
5.54	554	0.396	0.098	0.874	-14.2666542	108.289062	-16.3865988	-179.335854	27.45614736	-49.08531186
5.55	555	0.377	0.075	0.893	-16.6730778	110.9246688	-13.0634424	-179.4733639	26.356068	-48.987909
5.56	556	0.37	0.062	0.919	-24.0069402	108.2317662	-10.8289062	-179.6968175	25.29036612	-48.91342446
5.57	557	0.383	0.062	0.921	-25.4393352	104.4502434	-9.740286	-179.9431895	24.25904172	-48.8446695
5.58	558	0.363	0.07	0.98	-26.9863218	100.3249458	-6.9327918	179.7827612	23.26782438	-48.79883286
5.59	559	0.335	0.038	1.003	-29.220858	95.1683238	-4.1252976	179.4790935	22.33390284	-48.77591454
5.6	560	0.308	0.025	1.014	-26.356068	85.0269672	-2.578311	179.2098032	21.48019542	-48.77018496
5.61	561	0.341	0.042	1.065	-25.496631	77.6931048	-2.2345362	178.9462426	20.71816128	-48.7587258
5.62	562	0.338	0.012	1.054	-23.5485738	74.1407652	-3.2085648	178.7056002	19.98477504	-48.7300779
5.63	563	0.299	0.004	1.068	-21.3140376	72.4218912	-3.8388186	178.4936057	19.27430712	-48.69570042
5.64	564	0.287	0.001	1.104	-19.5378678	72.8229618	-5.5003968	178.2988	18.55810962	-48.63840462
5.65	565	0.278	0.004	1.12	-15.8136408	72.0781164	-6.7609044	178.1555605	17.84191212	-48.56392008
5.66	566	0.241	0.014	1.115	-12.6623718	69.9581718	-7.5057498	178.0409689	17.15436252	-48.48370596
5.67	567	0.261	0.03	1.097	-9.0527364	66.0047616	-8.2505952	177.9664844	16.50691998	-48.39203268
5.68	568	0.242	-0.011	1.091	-7.734933	63.4837464	-7.8495246	177.903459	15.88239576	-48.30608898
5.69	569	0.217	-0.017	1.057	-7.448454	61.4210976	-7.6203414	177.8404336	15.27506028	-48.22587486
5.7	570	0.176	0.002	1.049	-8.6516658	57.9833496	-6.6463128	177.7716787	14.67918396	-48.1571199
5.71	571	0.205	0.012	1.048	-10.1413566	54.9466722	-5.9587632	177.6742758	14.14060344	-48.08836494
5.72	572	0.167	-0.017	1.025	-11.5737516	52.0245864	-5.5003968	177.5654138	13.63067082	-48.02533956
5.73	573	0.171	-0.032	1.017	-12.2613012	50.8786704	-5.5003968	177.4508222	13.13219736	-47.96231418
5.74	574	0.141	-0.037	0.979	-12.318597	48.8733174	-5.156622	177.330501	12.65091264	-47.8992888
5.75	575	0.194	-0.043	1.008	-8.1360036	47.6128098	-6.2452422	177.2560165	12.1753575	-47.83053384
5.76	576	0.179	-0.043	0.982	-10.313244	44.2896534	-4.6982556	177.152884	11.73990942	-47.77323804
5.77	577	0.151	-0.034	0.969	-8.5370742	41.539455	-4.1825934	177.0726699	11.33310924	-47.72167182
5.78	578	0.152	-0.035	1.004	-6.589017	38.7892566	-3.6669312	177.0096445	10.94922738	-47.67583518
5.79	579	0.14	-0.042	0.999	-4.9847346	35.4661002	-3.2085648	176.9638079	10.60545258	-47.63572812
5.8	580	0.12	-0.032	0.983	-2.9220858	32.2002396	-3.2085648	176.9408896	10.26167778	-47.60135064
5.81	581	0.138	-0.035	1.002	-1.6042824	28.8770832	-3.2085648	176.9294304	9.97519878	-47.56124358
5.82	582	0.139	-0.041	1.001	-1.5469866	24.5798982	-2.5210152	176.9122417	9.73455642	-47.5268661
5.83	583	0.141	-0.039	0.998	-1.2032118	20.626488	-2.005353	176.9007825	9.52829154	-47.50394778
5.84	584	0.13	-0.024	1.006	-1.2605076	16.902261	-1.6042824	176.8893233	9.36213372	-47.48102946
5.85	585	0.115	-0.025	1.011	-2.2345362	13.8082878	-1.3178034	176.8835938	9.19024632	-47.4695703
5.86	586	0.118	-0.03	1.004	-2.6929026	10.886202	-1.0313244	176.8549459	9.0813843	-47.45811114
5.87	587	0.132	-0.045	1.014	-4.3544808	7.0473834	-0.1718874	176.8148388	9.01262934	-47.45238156
5.88	588	0.131	-0.059	1.011	-5.3858052	3.437748	0.286479	176.757543	8.97825186	-47.45811114
5.89	589	0.116	-0.056	1.017	-5.6149884	0.1718874	1.0313244	176.7002472	8.97825186	-47.4695703
5.9	590	0.11	-0.05	1.021	-6.302538	-3.0366774	1.5469866	176.6314922	8.9667927	-47.49248862
5.91	591	0.114	-0.052	1.024	-6.5317212	-5.3285094	1.8334656	176.5627373	9.01835892	-47.51540694
5.92	592	0.117	-0.05	1.025	-6.7036086	-7.2192708	1.8907614	176.4882527	9.09284346	-47.53832526
5.93	593	0.121	-0.05	1.021	-6.2452422	-8.59437	1.9480572	176.4252274	9.17305758	-47.56124358
5.94	594	0.121	-0.052	1.022	-5.5576926	-9.8548776	1.9480572	176.362202	9.27046044	-47.5841619
5.95	595	0.127	-0.051	1.018	-5.0993262	-11.0007936	2.005353	176.3106358	9.35640414	-47.6128098
5.96	596	0.131	-0.058	1.012	-5.2139178	-12.032118	2.005353	176.2590695	9.47672532	-47.6414577
5.97	597	0.133	-0.058	1.002	-4.9274388	-12.9488508	2.0626488	176.2017737	9.60277608	-47.66437602
5.98	598	0.135	-0.06	0.996	-4.7555514	-13.9228794	1.9480572	176.1559371	9.740286	-47.69302392
5.99	599	0.138	-0.058	0.993	-4.2398892	-14.7250206	1.8334656	176.1101005	9.8835255	-47.71594224
6	600	0.138	-0.055	0.995	-3.3804522	-14.4385416	1.6042824	176.0699934	10.00957626	-47.74459014
6.01	601	0.138	-0.05	1.002	-2.3491278	-13.5218088	1.2605076	176.0470751	10.1413566	-47.76177888
6.02	602	0.141	-0.051	1.011	-1.2032118	-12.0894138	0.9740286	176.0356159	10.26167778	-47.77896762
6.03	603	0.143	-0.045	1.018	0.0572958	-10.1986524	0.859437	176.0356159	10.35908064	-47.79042678
6.04	604	0.141	-0.042	1.021	1.2032118	-8.307891	0.6302538	176.0470751	10.43929476	-47.80188594
6.05	605	0.148	-0.04	1.027	2.005353	-6.7036086	0.4583664	176.0929117	10.4564835	-47.8133451
6.06	606	0.145	-0.04	1.021	2.4637194	-5.443101	0.5156622	176.11583	10.50804972	-47.81907468
6.07	607	0.149	-0.038	1.012	2.6929026	-4.7555514	0.572958	176.1444779	10.55388636	-47.83053384
6.08	608	0.144	-0.038	0.999	2.9793816	-4.6409598	0.8021412	176.1731258	10.599723	-47.83626342
6.09	609	0.141	-0.039	0.989	3.2085648	-5.6149884	1.0313244	176.2075033	10.6570188	-47.85345216
6.1	610	0.155	-0.035	0.982	3.151269	-6.8182002	1.2032118	176.2590695	10.69139628	-47.86491132
6.11	611	0.163	-0.029	0.998	2.86479	-7.6776372	1.4896908	176.2877174	10.76588082	-47.88782964
6.12	612	0.174	-0.021	1.028	1.4896908	-8.7662574	1.8334656	176.2991766	10.85182452	-47.90501838
6.13	613	0.171	-0.019	1.036	-0.8021412	-10.2559482	2.2345362	176.2877174	10.95495696	-47.93366628
6.14	614	0.162	-0.027	1.017	-2.5210152	-12.2613012	2.5210152	176.2590695	11.07527814	-47.96231418
6.15	615	0.153	-0.037	0.996	-3.0939732	-13.8655836	2.7501984	176.2304216	11.18414016	-48.00242124
6.16	616	0.157	-0.043	0.981	-2.578311	-15.183387	2.86479	176.2017737	11.33310924	-48.03679872
6.17	617	0.163	-0.04	0.987	-2.1772404	-15.0687954	2.6929026	176.1731258	11.48207832	-48.0711762
6.18	618	0.17	-0.036	0.998	-2.1772404	-14.6677248	2.5210152	176.1502075	11.62531782	-48.0998241
6.19	619	0.176	-0.036	1.003	-2.578311	-13.8655836	2.3491278	176.11583	11.76282774	-48.128472
6.2	620	0.16	-0.04	1.005	-3.0366774	-13.0061466	2.1772404	176.0929117	11.84304186	-48.16857906
6.21	621	0.168	-0.037	1.002	-3.0366774	-11.8602306	1.8907614	176.0585342	11.96336304	-48.19149738
6.22	622	0.21	-0.039	0.999	-2.9220858	-11.5164558	1.9480572	176.0241568	12.07222506	-48.2144157
6.23	623	0.189	-0.041	0.996	-3.0939732	-10.4278356	1.8334656	175.9897793	12.1753575	-48.23733402
6.24	624	0.18	-0.044	1.001	-2.5210152	-8.7662574	1.5469866	175.9611314	12.2613012	-48.26025234
6.25	625	0.181	-0.041	1.002	-2.0626488	-7.3338624	1.2605076	175.966861	12.29567868	-48.27744108
6.26	626	0.19	-0.04	1.008	-1.5469866	-6.016059	0.9740286	175.9496722	12.35297448	-48.29462982
6.27	627	0.191	-0.039	1.01	-1.2605076	-4.4690724	0.6302538	175.9324835	12.39881112	-48.3003594
6.28	628	0.189	-0.04	1.012	-1.0313244	-2.9220858	0.4010706	175.9210243	12.42745902	-48.30608898
6.29	629	0.189	-0.038	1.012	-0.8021412	-1.3178034	0.0572958	175.9152947	12.43891818	-48.30608898
6.3	630	0.189	-0.039	1.009	-0.6875496	0.1718874	-0.1718874	176.0699934	12.24984204	-48.31181856
6.31	631	0.188	-0.038	1.008	-0.572958	1.4896908	-0.286479	176.0642638	12.23838288	-48.30608898
6.32	632	0.184	-0.04	1.004	-0.3437748	2.86479	-0.5156622	176.0585342	12.20973498	-48.3003594
6.33	633	0.183	-0.041	0.999	-0.5156622	3.6669312	-0.4583664	176.0585342	12.16962792	-48.29462982
6.34	634	0.182	-0.041	0.998	-0.6875496	3.9534102	-0.5156622	176.0470751	12.13525044	-48.28890024
6.35	635	0.179	-0.041	0.996	-0.9167328	4.010706	-0.4583664	176.0814526	12.02638842	-48.28317066
6.36	636	0.179	-0.041	0.993	-1.0886202	3.8961144	-0.4010706	176.0699934	11.98628136	-48.27744108
6.37	637	0.177	-0.042	0.992	-1.145916	3.7815228	-0.3437748	176.0585342	11.95190388	-48.2717115
6.38	638	0.174	-0.042	0.991	-1.145916	3.6096354	-0.286479	176.0470751	11.9175264	-48.26598192
6.39	639	0.173	-0.041	0.992	-1.2605076	3.151269	-0.1718874	176.0356159	11.88314892	-48.26598192
6.4	640	0.171	-0.041	0.992	-1.432395	2.5210152	-0.1145916	176.075723	11.76855732	-48.2717115
6.41	641	0.171	-0.041	0.992	-1.6615782	2.1772404	-0.0572958	176.0585342	11.745639	-48.2717115
6.42	642	0.172	-0.04	0.998	-1.7761698	2.1199446	0	176.0413455	11.72272068	-48.26598192
6.43	643	0.172	-0.039	1.003	-2.005353	1.9480572	-0.0572958	176.0184272	11.70553194	-48.26598192
6.44	644	0.171	-0.04	1.007	-2.4064236	1.8334656	0	175.9955089	11.6883432	-48.26598192
6.45	645	0.171	-0.039	1.007	-2.578311	1.6615782	0	176.0241568	11.59666992	-48.2717115
6.46	646	0.172	-0.041	1.008	-2.7501984	1.5469866	-0.0572958	175.9955089	11.57948118	-48.26598192
6.47	647	0.171	-0.042	1.008	-2.9220858	1.3750992	0	175.966861	11.56802202	-48.26598192
6.48	648	0.17	-0.041	1.006	-2.9220858	1.2605076	0	175.9382131	11.55656286	-48.26598192
6.49	649	0.17	-0.042	1.006	-2.8074942	1.2032118	-0.1145916	175.9095652	11.53937412	-48.26598192
6.5	650	0.169	-0.043	1.008	-2.6929026	1.2032118	-0.1145916	175.9324835	11.44770084	-48.2717115
6.51	651	0.169	-0.042	1.008	-2.4637194	1.0886202	-0.1718874	175.9095652	11.43624168	-48.26598192
6.52	652	0.17	-0.042	1.008	-2.3491278	1.0313244	-0.2291832	175.8866468	11.42478252	-48.26598192
6.53	653	0.169	-0.042	1.007	-2.005353	0.9740286	-0.2291832	175.8637285	11.41332336	-48.26025234
6.54	654	0.169	-0.043	1.005	-1.7761698	0.8021412	-0.286479	175.8465398	11.40759378	-48.26025234
6.55	655	0.169	-0.042	1.008	-1.5469866	0.7448454	-0.1718874	175.9267539	11.28154302	-48.26025234
6.56	656	0.167	-0.042	1.007	-1.4896908	0.572958	-0.2291832	175.9095652	11.27581344	-48.26025234
6.57	657	0.167	-0.043	1.003	-1.3178034	0.286479	-0.2291832	175.898106	11.27581344	-48.25452276
6.58	658	0.166	-0.042	1.002	-1.2032118	0.286479	-0.2291832	175.8866468	11.27008386	-48.25452276
6.59	659	0.167	-0.041	1.005	-1.0886202	0	-0.1145916	175.8751877	11.27008386	-48.25452276
6.6	660	0.167	-0.042	1.002	-1.2032118	-0.4583664	0	175.9783201	11.12684436	-48.26025234
6.61	661	0.166	-0.043	0.997	-1.145916	-0.859437	0	175.966861	11.13257394	-48.26025234
6.62	662	0.164	-0.044	0.993	-0.859437	-1.2032118	0.0572958	175.9554018	11.1440331	-48.26025234
6.63	663	0.167	-0.043	1.006	-0.6875496	-1.4896908	0.1145916	175.9496722	11.16122184	-48.26598192
6.64	664	0.169	-0.04	1.013	-1.2605076	-1.8907614	0.2291832	175.9382131	11.17841058	-48.26598192
6.65	665	0.168	-0.041	1.009	-1.432395	-2.291832	0.286479	175.9725905	11.1440331	-48.2717115
6.66	666	0.167	-0.043	1.003	-1.3178034	-2.8074942	0.4010706	175.9554018	11.172681	-48.27744108
6.67	667	0.167	-0.044	0.999	-1.2605076	-2.9220858	0.3437748	175.9439426	11.2013289	-48.28317066
6.68	668	0.168	-0.045	1	-1.2605076	-2.8074942	0.4010706	175.9267539	11.2299768	-48.28890024
6.69	669	0.167	-0.044	1.002	-1.0886202	-2.8074942	0.4010706	175.9152947	11.2586247	-48.29462982
6.7	670	0.169	-0.044	1	-1.0886202	-2.7501984	0.4583664	175.9554018	11.22424722	-48.30608898
6.71	671	0.169	-0.043	0.999	-1.2032118	-2.9220858	0.4583664	175.9439426	11.25289512	-48.31181856
6.72	672	0.17	-0.042	0.999	-1.3750992	-2.7501984	0.4583664	175.9267539	11.28154302	-48.31754814
6.73	673	0.17	-0.043	0.999	-1.3750992	-2.6929026	0.4583664	175.9095652	11.31019092	-48.32327772
6.74	674	0.171	-0.044	1.001	-1.432395	-2.4637194	0.4583664	175.898106	11.33310924	-48.3290073
6.75	675	0.172	-0.042	1.002	-1.4896908	-2.2345362	0.4010706	175.9324835	11.29873176	-48.33473688
6.76	676	0.172	-0.043	1.004	-1.432395	-2.1199446	0.4583664	175.9152947	11.32165008	-48.34046646
6.77	677	0.173	-0.042	1.005	-1.432395	-1.8334656	0.286479	175.898106	11.33883882	-48.34619604
6.78	678	0.173	-0.043	1.006	-1.3750992	-1.6615782	0.286479	175.8809173	11.35602756	-48.34619604
6.79	679	0.174	-0.043	1.005	-1.3750992	-1.3750992	0.2291832	175.8694581	11.36748672	-48.35192562
6.8	680	0.173	-0.044	1.005	-1.3750992	-1.145916	0.2291832	175.9324835	11.29300218	-48.3576552
6.81	681	0.173	-0.043	1.006	-1.3750992	-0.9740286	0.1145916	175.9152947	11.29873176	-48.3576552
6.82	682	0.173	-0.042	1.004	-1.3178034	-0.9167328	0.1145916	175.9038356	11.31019092	-48.36338478
6.83	683	0.173	-0.043	1.004	-1.3178034	-0.9167328	0.0572958	175.8923764	11.32165008	-48.36338478
6.84	684	0.173	-0.043	1.001	-1.145916	-0.859437	0.1145916	175.8751877	11.32737966	-48.36338478
6.85	685	0.173	-0.043	1	-1.0886202	-0.8021412	0	175.966861	11.23570638	-48.36338478
6.86	686	0.173	-0.044	1.001	-1.0886202	-0.5156622	0.0572958	175.9554018	11.24143596	-48.36338478
6.87	687	0.174	-0.042	1.003	-1.0886202	-0.4010706	0.0572958	175.9439426	11.24716554	-48.36911436
6.88	688	0.173	-0.042	1.003	-1.2032118	-0.4583664	0	175.9324835	11.25289512	-48.36911436
6.89	689	0.173	-0.043	1.002	-1.2605076	-0.4010706	0	175.9152947	11.25289512	-48.36911436
6.9	690	0.172	-0.043	1.002	-1.3178034	-0.3437748	0	176.0298863	11.13257394	-48.36911436
6.91	691	0.172	-0.043	1.002	-1.3178034	-0.1145916	0	176.0126976	11.13257394	-48.36911436
6.92	692	0.171	-0.044	1.002	-1.2605076	0	0.0572958	176.0012384	11.13257394	-48.36911436
6.93	693	0.171	-0.043	1.004	-1.3178034	0	0	175.9897793	11.13257394	-48.36911436
6.94	694	0.172	-0.043	1.005	-1.3750992	0	-0.0572958	175.9725905	11.13257394	-48.36911436
6.95	695	0.171	-0.043	1	-1.432395	0	-0.0572958	176.0642638	11.0294415	-48.36911436
6.96	696	0.171	-0.043	1.002	-1.3750992	0	-0.0572958	176.0470751	11.0294415	-48.36911436
6.97	697	0.17	-0.043	1.004	-1.3178034	0	-0.0572958	176.0356159	11.0294415	-48.36338478
6.98	698	0.17	-0.043	1.004	-1.3750992	0.1145916	-0.0572958	176.0241568	11.0294415	-48.36338478
6.99	699	0.17	-0.043	1.004	-1.432395	0.1718874	0	176.006968	11.02371192	-48.36338478
7	700	0.169	-0.045	1.003	-1.4896908	0.1718874	-0.0572958	176.0699934	10.93776822	-48.36338478
7.01	701	0.17	-0.044	1.002	-1.4896908	0.286479	-0.0572958	176.0528047	10.93776822	-48.36338478
7.02	702	0.17	-0.044	1.003	-1.5469866	0.2291832	0	176.0356159	10.93203864	-48.36338478
7.03	703	0.169	-0.044	1.004	-1.5469866	0.2291832	0	176.0184272	10.93203864	-48.36338478
7.04	704	0.168	-0.044	1.003	-1.6042824	0.1145916	-0.0572958	176.0012384	10.93203864	-48.36338478
7.05	705	0.168	-0.044	1.002	-1.5469866	0.1145916	0	176.0528047	10.84609494	-48.36911436
7.06	706	0.169	-0.045	1.001	-1.4896908	0.0572958	0	176.0413455	10.84609494	-48.36338478
7.07	707	0.169	-0.044	1	-1.432395	0	0	176.0241568	10.84609494	-48.36911436
7.08	708	0.168	-0.044	1.003	-1.432395	-0.0572958	0	176.006968	10.84609494	-48.36911436
7.09	709	0.167	-0.044	1.005	-1.3750992	-0.286479	0.0572958	175.9955089	10.85182452	-48.36911436
7.1	710	0.167	-0.042	1.006	-1.3178034	-0.2291832	0.0572958	176.0699934	10.76588082	-48.36911436
7.11	711	0.169	-0.043	1.008	-1.2605076	-0.5156622	0.0572958	176.0585342	10.7716104	-48.36911436
7.12	712	0.168	-0.043	1.006	-1.432395	-0.9740286	0.0572958	176.0413455	10.78306956	-48.36911436
7.13	713	0.167	-0.045	0.999	-1.2605076	-1.145916	0.1145916	176.0298863	10.79452872	-48.37484394
7.14	714	0.166	-0.046	0.999	-0.9167328	-1.145916	0.1145916	176.0184272	10.80598788	-48.37484394
7.15	715	0.169	-0.044	1.011	-1.0313244	-0.9167328	0.1145916	176.0699934	10.76015124	-48.37484394
7.16	716	0.169	-0.041	1.016	-1.4896908	-0.9740286	0.1145916	176.0585342	10.7716104	-48.37484394
7.17	717	0.169	-0.043	1.009	-1.6615782	-1.4896908	0.1718874	176.0356159	10.78306956	-48.38057352
7.18	718	0.169	-0.044	1.001	-1.6042824	-1.6042824	0.1718874	176.0241568	10.8002583	-48.38057352
7.19	719	0.168	-0.046	0.997	-1.432395	-1.432395	0.1718874	176.006968	10.81744704	-48.3863031
7.2	720	0.167	-0.045	0.997	-1.3750992	-1.3750992	0.1718874	176.0356159	10.77733998	-48.39203268
7.21	721	0.167	-0.045	0.998	-1.2605076	-1.2032118	0.1145916	176.0241568	10.78879914	-48.39203268
7.22	722	0.169	-0.044	1.001	-1.2032118	-1.2605076	0.1145916	176.0126976	10.80598788	-48.39203268
7.23	723	0.169	-0.044	1.002	-1.145916	-1.2605076	0.1718874	175.9955089	10.81744704	-48.39776226
7.24	724	0.168	-0.043	1.001	-1.145916	-1.3178034	0.1718874	175.9840497	10.8289062	-48.39776226
7.25	725	0.169	-0.043	1.003	-1.145916	-1.3178034	0.2291832	176.0241568	10.8002583	-48.40349184
7.26	726	0.169	-0.043	1.002	-1.145916	-1.2605076	0.1718874	176.0126976	10.81171746	-48.40349184
7.27	727	0.169	-0.043	1.005	-1.2032118	-1.2032118	0.2291832	175.9955089	10.82317662	-48.40922142
7.28	728	0.17	-0.043	1.006	-1.2032118	-1.2605076	0.2291832	175.9840497	10.83463578	-48.40922142
7.29	729	0.169	-0.043	1.006	-1.2605076	-1.0313244	0.1145916	175.9725905	10.84609494	-48.414951
7.3	730	0.17	-0.044	1.006	-1.3178034	-0.9167328	0.1145916	176.006968	10.81171746	-48.414951
7.31	731	0.17	-0.044	1.004	-1.2605076	-1.0313244	0.1145916	175.9955089	10.81744704	-48.414951
7.32	732	0.17	-0.045	1.003	-1.3750992	-0.9740286	0.1145916	175.9783201	10.8289062	-48.414951
7.33	733	0.171	-0.045	1.003	-1.3178034	-0.859437	0.1718874	175.966861	10.84036536	-48.42068058
7.34	734	0.17	-0.043	1.001	-1.3178034	-0.859437	0.1145916	175.9496722	10.84609494	-48.42068058
7.35	735	0.172	-0.045	1.001	-1.3750992	-0.859437	0.0572958	175.9955089	10.81171746	-48.42068058
7.36	736	0.171	-0.045	0.999	-1.2605076	-0.7448454	0.0572958	175.9840497	10.81744704	-48.42068058
7.37	737	0.17	-0.045	0.997	-1.2605076	-0.7448454	0.0572958	175.966861	10.82317662	-48.42641016
7.38	738	0.17	-0.044	1.001	-1.2605076	-0.6302538	0.1145916	175.9554018	10.8289062	-48.42641016
7.39	739	0.17	-0.044	1.005	-1.2605076	-0.6302538	0.0572958	175.9439426	10.84036536	-48.42641016
7.4	740	0.169	-0.045	1.006	-1.2032118	-0.7448454	0.0572958	175.9897793	10.78306956	-48.42641016
7.41	741	0.169	-0.045	1.005	-1.2605076	-0.6302538	0	175.9783201	10.78879914	-48.42641016
7.42	742	0.17	-0.045	1.003	-1.2032118	-0.6875496	0.0572958	175.966861	10.8002583	-48.42641016
7.43	743	0.17	-0.044	1.005	-1.0886202	-0.6875496	0.0572958	175.9554018	10.80598788	-48.43213974
7.44	744	0.169	-0.044	1.007	-0.9740286	-0.572958	0.0572958	175.9439426	10.81171746	-48.43213974
7.45	745	0.17	-0.044	1.006	-1.0313244	-0.6302538	0	176.0126976	10.75442166	-48.42641016
7.46	746	0.169	-0.044	1.005	-0.9740286	-0.7448454	0	176.0012384	10.76015124	-48.42641016
7.47	747	0.169	-0.044	1.003	-0.9167328	-0.6302538	0	175.9897793	10.76588082	-48.42641016
7.48	748	0.169	-0.045	1.002	0.2291832	0.4010706	-0.1145916	175.9955089	10.76588082	-48.42641016
7.49	749	0.168	-0.043	1.002	0.2291832	0.3437748	-0.1145916	175.9955089	10.76015124	-48.42641016
7.5	750	0.168	-0.043	1.001	0.286479	0.2291832	-0.0572958	176.1788554	10.58826384	-48.42068058
7.51	751	0.167	-0.043	1.002	0.1145916	0.2291832	-0.0572958	176.1788554	10.58826384	-48.42068058
7.52	752	0.167	-0.044	1.002	0	0.1145916	-0.0572958	176.1788554	10.58253426	-48.42068058
7.53	753	0.167	-0.045	1.001	-0.0572958	0.0572958	-0.0572958	176.1788554	10.58253426	-48.42068058
7.54	754	0.168	-0.044	1.001	-0.1145916	0.0572958	0	176.1788554	10.58253426	-48.42068058
7.55	755	0.169	-0.044	1.002	-0.2291832	0.0572958	-0.0572958	176.3335541	10.4564835	-48.40922142
7.56	756	0.169	-0.044	1.002	-0.2291832	0	0	176.3335541	10.4564835	-48.40922142
7.57	757	0.169	-0.044	1.003	-0.1718874	0	0	176.3278245	10.4564835	-48.40922142
7.58	758	0.169	-0.044	1.004	-0.1145916	-0.1145916	0	176.3278245	10.46221308	-48.40922142
7.59	759	0.169	-0.044	1.003	-0.0572958	-0.0572958	0.0572958	176.3278245	10.46221308	-48.40922142
7.6	760	0.169	-0.044	1.003	-0.0572958	-0.2291832	0	176.4424161	10.34762148	-48.40922142
7.61	761	0.169	-0.044	1.002	-0.1145916	-0.3437748	0.0572958	176.4424161	10.35335106	-48.40922142
7.62	762	0.169	-0.044	1.003	-0.0572958	-0.286479	0	176.4424161	10.35335106	-48.40922142
7.63	763	0.17	-0.042	1.005	0	-0.1718874	0	176.4424161	10.35908064	-48.40922142
7.64	764	0.169	-0.043	1.007	-0.1145916	-0.3437748	0	176.4424161	10.35908064	-48.40922142
7.65	765	0.169	-0.044	1.004	-0.0572958	-0.6302538	0	176.4997119	10.30178484	-48.40922142
7.66	766	0.168	-0.046	0.998	0.1718874	-0.6875496	0.0572958	176.5054415	10.30751442	-48.414951
7.67	767	0.17	-0.046	1.006	0.286479	-0.4010706	0	176.5054415	10.313244	-48.414951
7.68	768	0.172	-0.042	1.015	-0.1145916	-0.0572958	0	176.5054415	10.313244	-48.414951
7.69	769	0.171	-0.042	1.011	-0.3437748	-0.286479	0.0572958	176.4997119	10.313244	-48.414951
7.7	770	0.169	-0.044	1.002	-0.286479	-0.286479	0.0572958	176.5684669	10.26740736	-48.414951
7.71	771	0.169	-0.046	1	-0.1145916	-0.2291832	0.0572958	176.5684669	10.26740736	-48.414951
7.72	772	0.169	-0.045	0.999	0	0	0	176.5684669	10.26740736	-48.414951
7.73	773	0.169	-0.045	1.001	0.1718874	0.0572958	0	176.5684669	10.26740736	-48.414951
7.74	774	0.169	-0.044	1.001	0.1718874	0.0572958	0	176.5684669	10.26740736	-48.414951
7.75	775	0.17	-0.044	1	0.1145916	0.1145916	0	176.688788	10.17573408	-48.40922142
7.76	776	0.169	-0.044	0.999	0.0572958	0.0572958	0	176.688788	10.1700045	-48.40922142
7.77	777	0.169	-0.044	1	0.1145916	0.1145916	0	176.688788	10.1700045	-48.40922142
7.78	778	0.17	-0.044	1.004	0.0572958	0.1145916	0.0572958	176.688788	10.1700045	-48.40922142
7.79	779	0.17	-0.044	1.005	0.0572958	0.286479	0	176.688788	10.16427492	-48.40922142
7.8	780	0.169	-0.044	1.005	0	0.2291832	0.0572958	176.7919205	10.09551996	-48.40349184
7.81	781	0.169	-0.045	1.005	-0.0572958	0.2291832	0	176.7919205	10.09551996	-48.40349184
7.82	782	0.17	-0.043	1.004	-0.0572958	0.286479	0.0572958	176.7919205	10.08979038	-48.40349184
7.83	783	0.169	-0.044	1.004	-0.0572958	0.3437748	-0.0572958	176.7919205	10.08979038	-48.40349184
7.84	784	0.169	-0.045	1.003	-0.0572958	0.2291832	0	176.7919205	10.0840608	-48.40349184
7.85	785	0.169	-0.045	1.004	0	0.1145916	0	176.8434867	10.026765	-48.40349184
7.86	786	0.169	-0.045	1.004	0	0.1145916	0	176.8434867	10.026765	-48.40349184
7.87	787	0.169	-0.044	1.003	0	0.0572958	0	176.8434867	10.026765	-48.40349184
7.88	788	0.169	-0.044	1.002	-0.1145916	0.1145916	-0.0572958	176.8434867	10.02103542	-48.40349184
7.89	789	0.169	-0.045	1.001	0	0.0572958	0	176.8434867	10.02103542	-48.40349184
7.9	790	0.169	-0.046	1.001	0	0.0572958	0	176.9237008	9.9121734	-48.40349184
7.91	791	0.167	-0.045	1.002	0	0.0572958	0	176.9237008	9.9121734	-48.40349184
7.92	792	0.169	-0.045	1.005	-0.0572958	0.1145916	0	176.9237008	9.9121734	-48.40349184
7.93	793	0.169	-0.044	1.006	-0.0572958	0	0	176.9237008	9.9121734	-48.40349184
7.94	794	0.17	-0.044	1.004	-0.0572958	0	0	176.9237008	9.9121734	-48.40349184
7.95	795	0.169	-0.044	1.003	0	0	0	176.9695375	9.89498466	-48.39776226
7.96	796	0.17	-0.044	1.005	0.1718874	0	0	176.975267	9.89498466	-48.39776226
7.97	797	0.17	-0.043	1.007	0.1718874	-0.0572958	0	176.975267	9.90071424	-48.39776226
7.98	798	0.169	-0.044	1.003	0.0572958	-0.1145916	0	176.975267	9.90071424	-48.39776226
7.99	799	0.169	-0.043	1.001	0.0572958	-0.286479	0	176.975267	9.90071424	-48.39776226
8	800	0.17	-0.043	1.001	0.1718874	-0.2291832	0	176.9924558	9.89498466	-48.39203268
8.01	801	0.169	-0.044	1.003	0.1718874	-0.286479	0	176.9924558	9.90071424	-48.39203268
8.02	802	0.169	-0.045	1.001	0.286479	-0.286479	0	176.9981854	9.90644382	-48.39203268
8.03	803	0.17	-0.044	1	0.1145916	-0.1145916	0	176.9981854	9.90644382	-48.39203268
8.04	804	0.169	-0.044	1.002	0	0	0	176.9981854	9.90644382	-48.39203268
8.05	805	0.17	-0.044	1.004	0	0	0	177.0211037	9.8835255	-48.39203268
8.06	806	0.169	-0.043	1.004	0	0	0	177.0211037	9.8835255	-48.39203268
8.07	807	0.168	-0.044	1.002	-0.0572958	0	0	177.0211037	9.8835255	-48.39203268
8.08	808	0.169	-0.045	1.003	0.0572958	0	0	177.0211037	9.8835255	-48.39203268
8.09	809	0.17	-0.045	1.004	0	0.0572958	0	177.0211037	9.8835255	-48.39203268
8.1	810	0.17	-0.045	1.004	0	0.0572958	0	177.044022	9.87779592	-48.39203268
8.11	811	0.17	-0.044	1.004	0	0.1718874	-0.0572958	177.044022	9.87206634	-48.39203268
8.12	812	0.17	-0.044	1.003	0	0.1718874	0	177.044022	9.87206634	-48.39203268
8.13	813	0.17	-0.044	1.003	0	0.1145916	-0.0572958	177.044022	9.87206634	-48.3863031
8.14	814	0.169	-0.044	1.003	-0.1145916	0.1145916	0	177.044022	9.86633676	-48.3863031
8.15	815	0.169	-0.044	0.999	-0.1145916	0	0	177.0669403	9.86633676	-48.3863031
8.16	816	0.17	-0.044	1.001	0	0.1718874	0	177.0612107	9.86633676	-48.3863031
8.17	817	0.17	-0.042	1.005	-0.0572958	0.2291832	0	177.0612107	9.86060718	-48.3863031
8.18	818	0.169	-0.043	1.006	-0.1718874	0	0	177.0612107	9.86060718	-48.3863031
8.19	819	0.168	-0.045	0.997	-0.0572958	-0.1145916	0.0572958	177.0612107	9.86060718	-48.3863031
8.2	820	0.17	-0.047	0.994	0.3437748	-0.1145916	0	177.0554812	9.86633676	-48.3863031
8.21	821	0.172	-0.045	1.007	0.2291832	0	0.0572958	177.0612107	9.86633676	-48.3863031
8.22	822	0.172	-0.042	1.014	-0.1718874	0	0.0572958	177.0554812	9.86633676	-48.39203268
8.23	823	0.171	-0.043	1.009	-0.1145916	-0.2291832	0.0572958	177.0554812	9.86633676	-48.39203268
8.24	824	0.17	-0.044	1.006	0	-0.286479	0	177.0554812	9.87206634	-48.39203268
8.25	825	0.169	-0.046	1.002	0.0572958	-0.0572958	0	177.0612107	9.86060718	-48.39203268
8.26	826	0.169	-0.045	1.002	0.2291832	0	0	177.0612107	9.86060718	-48.39203268
8.27	827	0.169	-0.045	1.002	0.3437748	0	0	177.0669403	9.86060718	-48.39203268
8.28	828	0.169	-0.044	1.002	0.2291832	0.1145916	0	177.0669403	9.86060718	-48.39203268
8.29	829	0.169	-0.044	1.002	0.1145916	0.1718874	0	177.0726699	9.86060718	-48.39203268
8.3	830	0.169	-0.043	1.002	0.1145916	0.2291832	0	177.0841291	9.8548776	-48.39203268
8.31	831	0.169	-0.044	1.001	0.0572958	0.1145916	0	177.0841291	9.8548776	-48.39203268
8.32	832	0.17	-0.044	1.003	0	0.0572958	0	177.0841291	9.84914802	-48.39203268
8.33	833	0.17	-0.043	1.004	-0.1145916	0.0572958	0.0572958	177.0783995	9.84914802	-48.39203268
8.34	834	0.169	-0.044	1.004	-0.1145916	0	0	177.0783995	9.84914802	-48.39203268
8.35	835	0.17	-0.044	1.003	-0.286479	0.1145916	0	177.0841291	9.84341844	-48.39203268
8.36	836	0.169	-0.044	1.003	-0.2291832	0	0	177.0783995	9.84341844	-48.39203268
8.37	837	0.169	-0.044	1.003	-0.2291832	0.0572958	0	177.0783995	9.84341844	-48.39203268
8.38	838	0.168	-0.045	1.001	-0.1718874	0	0.0572958	177.0726699	9.84341844	-48.39203268
8.39	839	0.17	-0.045	1.001	-0.1145916	0	0	177.0726699	9.84341844	-48.39203268
8.4	840	0.17	-0.044	1.002	-0.0572958	-0.0572958	0	177.0841291	9.84341844	-48.39203268
8.41	841	0.17	-0.044	1.003	0	-0.1145916	0.0572958	177.0783995	9.84341844	-48.39203268
8.42	842	0.169	-0.044	1.003	0	-0.0572958	0	177.0783995	9.84341844	-48.39203268
8.43	843	0.169	-0.046	1.003	0.0572958	0	0	177.0841291	9.84341844	-48.39203268
8.44	844	0.168	-0.046	1.003	0.0572958	0	0	177.0841291	9.84341844	-48.39203268
8.45	845	0.169	-0.045	1.006	0	0	0	177.1013178	9.84341844	-48.39203268
8.46	846	0.17	-0.044	1.007	-0.0572958	0	0	177.0955882	9.84341844	-48.39203268
8.47	847	0.17	-0.045	1.004	-0.0572958	-0.0572958	0	177.0955882	9.84341844	-48.39203268
8.48	848	0.17	-0.045	1.003	0	0	0	177.0955882	9.84341844	-48.39203268
8.49	849	0.169	-0.045	1.002	0	0.1718874	0	177.0955882	9.83768886	-48.39203268
8.5	850	0.169	-0.044	1.003	0.1145916	0.2291832	0	177.1070474	9.83195928	-48.39203268
8.51	851	0.169	-0.043	1.004	0.1145916	0.2291832	-0.0572958	177.1070474	9.8262297	-48.39203268
8.52	852	0.169	-0.044	1.004	0.0572958	0.2291832	-0.1145916	177.1070474	9.8262297	-48.3863031
8.53	853	0.17	-0.043	1.003	0	0.1145916	-0.0572958	177.1070474	9.8262297	-48.3863031
8.54	854	0.169	-0.044	1.001	0.0572958	0.0572958	0	177.1070474	9.82050012	-48.3863031
8.55	855	0.168	-0.044	1.001	0.0572958	0	0	177.112777	9.82050012	-48.3863031
8.56	856	0.169	-0.045	1.002	0	0	-0.0572958	177.112777	9.82050012	-48.3863031
8.57	857	0.169	-0.044	1.003	0	-0.0572958	0	177.112777	9.82050012	-48.3863031
8.58	858	0.169	-0.044	1.003	0.0572958	-0.1145916	0	177.112777	9.82050012	-48.3863031
8.59	859	0.169	-0.044	1.004	0.1718874	-0.1718874	0	177.1185065	9.8262297	-48.3863031
8.6	860	0.17	-0.044	1.005	0.0572958	-0.1145916	0	177.112777	9.82050012	-48.3863031
8.61	861	0.169	-0.044	1.006	0.0572958	-0.1718874	0	177.112777	9.82050012	-48.3863031
8.62	862	0.17	-0.043	1.004	0	-0.2291832	0	177.112777	9.8262297	-48.3863031
8.63	863	0.17	-0.044	1.003	0.1145916	-0.2291832	0	177.1185065	9.8262297	-48.3863031
8.64	864	0.17	-0.045	1.002	0.1718874	-0.1718874	0	177.1185065	9.83195928	-48.3863031
8.65	865	0.17	-0.044	1.004	0.1145916	-0.1718874	0	177.1242361	9.83195928	-48.3863031
8.66	866	0.17	-0.043	1.005	0.1145916	-0.0572958	0	177.1242361	9.83195928	-48.3863031
8.67	867	0.17	-0.044	1.005	0.0572958	0	-0.0572958	177.1242361	9.83195928	-48.3863031
8.68	868	0.17	-0.043	1.002	0.0572958	0	-0.0572958	177.1242361	9.83195928	-48.3863031
8.69	869	0.17	-0.044	1.001	0	0.0572958	-0.0572958	177.1242361	9.83195928	-48.3863031
8.7	870	0.17	-0.044	1.004	0	0.0572958	-0.0572958	177.1185065	9.8262297	-48.3863031
8.71	871	0.169	-0.044	1.001	0	0.0572958	0	177.1185065	9.8262297	-48.3863031
8.72	872	0.17	-0.043	1.002	0	0.286479	0	177.1185065	9.82050012	-48.3863031
8.73	873	0.169	-0.043	1.005	-0.1145916	0.2291832	0	177.1185065	9.82050012	-48.3863031
8.74	874	0.17	-0.043	1.006	-0.2291832	0.1718874	0	177.1185065	9.81477054	-48.38057352
8.75	875	0.169	-0.044	1.001	-0.1718874	0.1718874	0	177.112777	9.81477054	-48.38057352
8.76	876	0.169	-0.046	0.995	0.1145916	0.1718874	-0.0572958	177.112777	9.81477054	-48.38057352
8.77	877	0.171	-0.044	1.007	0.1145916	0.3437748	-0.0572958	177.112777	9.80904096	-48.38057352
8.78	878	0.171	-0.044	1.014	-0.2291832	0.4583664	0	177.112777	9.80904096	-48.38057352
8.79	879	0.17	-0.044	1.009	-0.4583664	0.1718874	0	177.1070474	9.80331138	-48.38057352
8.8	880	0.169	-0.045	1.003	-0.4010706	0.2291832	0	177.0955882	9.80331138	-48.38057352
8.81	881	0.169	-0.045	1.001	-0.3437748	0.3437748	0	177.0955882	9.7975818	-48.38057352
8.82	882	0.168	-0.045	0.999	-0.2291832	0.3437748	-0.0572958	177.0898586	9.7975818	-48.38057352
8.83	883	0.167	-0.044	1	-0.1718874	0.286479	0	177.0898586	9.79185222	-48.38057352
8.84	884	0.168	-0.044	1.002	-0.1145916	0.3437748	-0.0572958	177.0898586	9.78612264	-48.38057352
