TimeStamp(s)	FrameCounter	AccX	AccY	AccZ	GyrX	GyrY	GyrZ	EulerX	EulerY	EulerZ
0.01	1	-0.029	-0.977	0.254	-0.3437748	-0.2291832	-0.0572958	103.1496287	-1.11153852	-34.44623496
0.02	2	-0.028	-0.975	0.259	-0.7448454	-0.0572958	0	103.1438992	-1.10580894	-34.44623496
0.03	3	-0.026	-0.976	0.259	-0.5156622	-0.286479	-0.0572958	103.1381696	-1.10580894	-34.45196454
0.04	4	-0.028	-0.977	0.259	-0.5156622	-0.4583664	-0.1145916	103.13244	-1.10580894	-34.45769412
0.05	5	-0.033	-0.98	0.261	-0.4583664	-0.7448454	-0.0572958	103.1496287	-1.1172681	-34.4634237
0.06	6	-0.035	-0.983	0.261	-0.3437748	-0.6302538	-0.2291832	103.1438992	-1.11153852	-34.46915328
0.07	7	-0.034	-0.983	0.258	-0.6875496	-0.3437748	-0.286479	103.1381696	-1.10580894	-34.46915328
0.08	8	-0.032	-0.98	0.26	-0.6875496	-0.0572958	-0.1145916	103.1267104	-1.10580894	-34.47488286
0.09	9	-0.028	-0.974	0.26	-0.5156622	0	-0.1145916	103.1209808	-1.10580894	-34.47488286
0.1	10	-0.028	-0.969	0.262	-0.572958	0.0572958	-0.1718874	103.1725471	-1.11153852	-34.47488286
0.11	11	-0.028	-0.967	0.26	-0.4010706	0.1145916	-0.2291832	103.1668175	-1.11153852	-34.46915328
0.12	12	-0.029	-0.968	0.261	-0.1145916	0.1145916	-0.2291832	103.1668175	-1.11153852	-34.46915328
0.13	13	-0.03	-0.973	0.261	0.0572958	0	-0.286479	103.1668175	-1.10580894	-34.46915328
0.14	14	-0.032	-0.976	0.26	0.1718874	-0.286479	-0.286479	103.1668175	-1.10007936	-34.46915328
0.15	15	-0.034	-0.978	0.257	0	-0.4583664	-0.1718874	103.1840062	-1.12299768	-34.47488286
0.16	16	-0.035	-0.978	0.257	0	-0.572958	-0.2291832	103.1840062	-1.1172681	-34.48061244
0.17	17	-0.035	-0.975	0.258	-0.0572958	-0.5156622	-0.286479	103.1840062	-1.11153852	-34.48634202
0.18	18	-0.032	-0.971	0.257	-0.0572958	-0.1718874	-0.4583664	103.1782766	-1.10580894	-34.48634202
0.19	19	-0.031	-0.968	0.256	0.1145916	0.0572958	-0.4010706	103.1840062	-1.10580894	-34.48061244
0.2	20	-0.031	-0.969	0.256	0.2291832	0.0572958	-0.3437748	103.2069245	-1.12299768	-34.48061244
0.21	21	-0.034	-0.972	0.257	0.4010706	0	-0.1145916	103.2126541	-1.1172681	-34.48061244
0.22	22	-0.034	-0.973	0.259	0.5156622	0	0.0572958	103.2183837	-1.1172681	-34.48061244
0.23	23	-0.034	-0.976	0.26	0.286479	-0.1145916	0	103.2241133	-1.1172681	-34.48061244
0.24	24	-0.034	-0.977	0.261	0.286479	0	-0.1718874	103.2241133	-1.1172681	-34.48061244
0.25	25	-0.035	-0.979	0.261	0.1145916	0	-0.2291832	103.2584908	-1.15164558	-34.48061244
0.26	26	-0.035	-0.98	0.261	0	0.1718874	-0.286479	103.2584908	-1.15164558	-34.48061244
0.27	27	-0.035	-0.982	0.261	-0.0572958	0.2291832	-0.2291832	103.2584908	-1.15164558	-34.47488286
0.28	28	-0.033	-0.983	0.258	0	0.3437748	-0.1718874	103.2584908	-1.145916	-34.46915328
0.29	29	-0.031	-0.983	0.259	-0.0572958	0.3437748	-0.0572958	103.2584908	-1.145916	-34.46915328
0.3	30	-0.028	-0.98	0.259	0	0.4583664	-0.1145916	103.2756795	-1.15164558	-34.4634237
0.31	31	-0.028	-0.978	0.259	0	0.4010706	-0.1145916	103.2756795	-1.15164558	-34.45769412
0.32	32	-0.03	-0.975	0.257	0	0.4010706	-0.1718874	103.2756795	-1.15164558	-34.45196454
0.33	33	-0.03	-0.974	0.259	0	0.4010706	-0.2291832	103.2756795	-1.15164558	-34.45196454
0.34	34	-0.031	-0.974	0.259	0	0.1718874	-0.3437748	103.2756795	-1.145916	-34.44623496
0.35	35	-0.031	-0.972	0.259	-0.0572958	0.0572958	-0.3437748	103.310057	-1.16310474	-34.44623496
0.36	36	-0.029	-0.971	0.259	0	0.0572958	-0.286479	103.310057	-1.15737516	-34.44623496
0.37	37	-0.028	-0.972	0.261	0	0.1718874	-0.2291832	103.310057	-1.15737516	-34.44050538
0.38	38	-0.028	-0.973	0.261	0	0.1145916	-0.286479	103.310057	-1.15737516	-34.44050538
0.39	39	-0.03	-0.975	0.26	0.1145916	0	-0.286479	103.310057	-1.15164558	-34.44050538
0.4	40	-0.03	-0.976	0.259	0.1145916	-0.1145916	-0.3437748	103.350164	-1.16883432	-34.44050538
0.41	41	-0.032	-0.976	0.257	0	-0.286479	-0.2291832	103.350164	-1.16310474	-34.44050538
0.42	42	-0.033	-0.976	0.258	0	-0.4010706	-0.1145916	103.350164	-1.16310474	-34.44623496
0.43	43	-0.034	-0.975	0.258	0.0572958	-0.4583664	0	103.350164	-1.16310474	-34.45196454
0.44	44	-0.035	-0.974	0.257	0.1145916	-0.6302538	-0.0572958	103.350164	-1.15737516	-34.45769412
0.45	45	-0.034	-0.973	0.26	0.286479	-0.6302538	0	103.3730824	-1.16883432	-34.4634237
0.46	46	-0.033	-0.973	0.261	0.3437748	-0.5156622	-0.0572958	103.3730824	-1.16883432	-34.46915328
0.47	47	-0.033	-0.975	0.261	0.2291832	-0.4583664	-0.1718874	103.3788119	-1.16310474	-34.47488286
0.48	48	-0.033	-0.976	0.26	0.1718874	-0.3437748	-0.1718874	103.3788119	-1.16310474	-34.47488286
0.49	49	-0.034	-0.974	0.261	0.286479	-0.2291832	-0.1718874	103.3845415	-1.15737516	-34.47488286
0.5	50	-0.035	-0.975	0.261	0.286479	-0.286479	-0.2291832	103.4017303	-1.1745639	-34.48061244
0.51	51	-0.035	-0.975	0.261	0.2291832	-0.286479	-0.1145916	103.4074598	-1.1745639	-34.48061244
0.52	52	-0.033	-0.974	0.263	0.286479	-0.1145916	-0.1718874	103.4074598	-1.16883432	-34.48061244
0.53	53	-0.031	-0.973	0.261	0.1145916	0	-0.2291832	103.4131894	-1.16883432	-34.48061244
0.54	54	-0.029	-0.974	0.26	0.286479	-0.1145916	-0.1718874	103.4131894	-1.16883432	-34.48061244
0.55	55	-0.027	-0.975	0.262	0.286479	-0.1718874	-0.1145916	103.4475669	-1.16883432	-34.48634202
0.56	56	-0.029	-0.976	0.26	0.1145916	-0.2291832	-0.1145916	103.4475669	-1.16883432	-34.48634202
0.57	57	-0.03	-0.976	0.26	0.286479	-0.2291832	-0.0572958	103.4475669	-1.16883432	-34.4920716
0.58	58	-0.03	-0.978	0.258	0.286479	0	0	103.4532965	-1.16883432	-34.4920716
0.59	59	-0.03	-0.978	0.26	0.0572958	-0.1145916	-0.0572958	103.4532965	-1.16310474	-34.4920716
0.6	60	-0.031	-0.976	0.262	0	0	-0.1145916	103.5105923	-1.18602306	-34.4920716
0.61	61	-0.029	-0.978	0.261	-0.0572958	0.1718874	-0.1145916	103.5105923	-1.18602306	-34.4920716
0.62	62	-0.029	-0.979	0.259	-0.1145916	0.1145916	0	103.5105923	-1.18602306	-34.48634202
0.63	63	-0.032	-0.983	0.259	-0.2291832	-0.1145916	0.0572958	103.5048627	-1.18602306	-34.4920716
0.64	64	-0.034	-0.985	0.256	-0.286479	-0.1718874	0	103.5048627	-1.18602306	-34.4920716
0.65	65	-0.031	-0.984	0.256	-0.3437748	-0.0572958	0.1145916	103.4934035	-1.19748222	-34.4920716
0.66	66	-0.029	-0.977	0.256	-0.3437748	0	0	103.4934035	-1.19748222	-34.4920716
0.67	67	-0.028	-0.974	0.26	-0.1718874	0.0572958	0.0572958	103.487674	-1.19748222	-34.4920716
0.68	68	-0.03	-0.971	0.259	-0.0572958	0.2291832	0.0572958	103.487674	-1.19748222	-34.4920716
0.69	69	-0.031	-0.969	0.258	0.0572958	0.2291832	0	103.487674	-1.19748222	-34.48634202
0.7	70	-0.032	-0.968	0.26	0.1145916	0.1145916	0	103.5335106	-1.24331886	-34.48634202
0.71	71	-0.033	-0.97	0.259	0.1145916	0.0572958	0	103.5335106	-1.24331886	-34.48634202
0.72	72	-0.033	-0.972	0.257	0.3437748	0	0.1145916	103.5392402	-1.24331886	-34.48634202
0.73	73	-0.031	-0.974	0.258	0.3437748	-0.1145916	0.0572958	103.5449698	-1.24331886	-34.48634202
0.74	74	-0.031	-0.973	0.257	0.4010706	0	0.1145916	103.5449698	-1.24331886	-34.48634202
0.75	75	-0.031	-0.974	0.26	0.572958	0.1718874	0	103.5678881	-1.25477802	-34.48634202
0.76	76	-0.031	-0.974	0.26	0.4583664	0.4010706	-0.0572958	103.5678881	-1.25477802	-34.48061244
0.77	77	-0.033	-0.974	0.26	0.572958	0.6875496	-0.0572958	103.5736177	-1.25477802	-34.47488286
0.78	78	-0.034	-0.975	0.259	0.572958	0.859437	-0.1145916	103.5793472	-1.25477802	-34.4634237
0.79	79	-0.032	-0.976	0.258	0.4010706	0.859437	-0.0572958	103.5850768	-1.2605076	-34.45769412
0.8	80	-0.032	-0.978	0.259	0.4010706	0.859437	0.0572958	103.5908064	-1.27196676	-34.44623496
0.81	81	-0.033	-0.977	0.257	0.1718874	0.6875496	0.0572958	103.5908064	-1.27196676	-34.44050538
0.82	82	-0.031	-0.977	0.258	0.2291832	0.5156622	0.1145916	103.596536	-1.27196676	-34.4347758
0.83	83	-0.03	-0.977	0.259	0.1718874	0.4583664	0.0572958	103.596536	-1.27769634	-34.42904622
0.84	84	-0.03	-0.979	0.26	0.2291832	0.2291832	0.0572958	103.6022656	-1.27769634	-34.42904622
0.85	85	-0.031	-0.982	0.258	0.1718874	0.1718874	0.1145916	103.6022656	-1.30061466	-34.42904622
0.86	86	-0.031	-0.983	0.258	0	0	0.1145916	103.6022656	-1.30061466	-34.42904622
0.87	87	-0.031	-0.981	0.258	-0.1145916	-0.0572958	0.1145916	103.6022656	-1.30061466	-34.42904622
0.88	88	-0.032	-0.979	0.26	-0.1145916	0	0.1145916	103.596536	-1.30061466	-34.42904622
0.89	89	-0.033	-0.975	0.258	-0.1145916	0.0572958	-0.0572958	103.596536	-1.30061466	-34.42904622
0.9	90	-0.032	-0.975	0.259	0	0.286479	-0.1145916	103.6079951	-1.31207382	-34.42331664
0.91	91	-0.031	-0.975	0.259	0	0.2291832	-0.1718874	103.6079951	-1.31207382	-34.41758706
0.92	92	-0.031	-0.974	0.258	0	0.0572958	-0.1718874	103.6079951	-1.30634424	-34.41758706
0.93	93	-0.031	-0.975	0.26	0.1145916	-0.0572958	-0.1718874	103.6137247	-1.30634424	-34.41758706
0.94	94	-0.028	-0.974	0.261	0.1718874	-0.1718874	0	103.6137247	-1.30634424	-34.42331664
0.95	95	-0.025	-0.973	0.263	0.1718874	-0.1145916	0	103.6481022	-1.28342592	-34.42331664
0.96	96	-0.025	-0.973	0.261	0.286479	-0.1718874	0	103.6538318	-1.28342592	-34.42904622
0.97	97	-0.026	-0.974	0.261	0.286479	-0.1718874	0	103.6538318	-1.28342592	-34.42904622
0.98	98	-0.028	-0.974	0.263	0.1718874	-0.1145916	0	103.6595614	-1.28342592	-34.42904622
0.99	99	-0.03	-0.974	0.262	0.286479	-0.2291832	0	103.6595614	-1.28342592	-34.4347758
1	100	-0.032	-0.974	0.26	0.286479	-0.286479	-0.0572958	103.6710205	-1.29488508	-34.4347758
1.01	101	-0.033	-0.972	0.262	0.3437748	-0.3437748	-0.0572958	103.6767501	-1.29488508	-34.44050538
1.02	102	-0.033	-0.974	0.264	0.6302538	-0.1718874	0	103.6824797	-1.29488508	-34.44050538
1.03	103	-0.032	-0.974	0.263	0.3437748	-0.0572958	0	103.6824797	-1.29488508	-34.44050538
1.04	104	-0.03	-0.974	0.263	0.286479	0	-0.0572958	103.6882093	-1.29488508	-34.44050538
1.05	105	-0.029	-0.976	0.262	0.3437748	0	0	103.705398	-1.29488508	-34.44050538
1.06	106	-0.029	-0.976	0.261	0.3437748	0	0	103.705398	-1.29488508	-34.44050538
1.07	107	-0.031	-0.977	0.26	0.4010706	0	0	103.7111276	-1.29488508	-34.44050538
1.08	108	-0.034	-0.977	0.26	0.3437748	-0.1718874	-0.0572958	103.7168572	-1.29488508	-34.44050538
1.09	109	-0.035	-0.977	0.262	0.286479	-0.286479	0	103.7168572	-1.29488508	-34.44623496
1.1	110	-0.035	-0.976	0.261	0.2291832	-0.3437748	-0.0572958	103.7225867	-1.30634424	-34.44623496
1.11	111	-0.032	-0.975	0.262	0.1718874	-0.1145916	0	103.7283163	-1.30634424	-34.44623496
1.12	112	-0.033	-0.975	0.261	0.1718874	-0.1145916	0	103.7283163	-1.30634424	-34.45196454
1.13	113	-0.032	-0.975	0.261	0.1145916	-0.0572958	0	103.7283163	-1.30634424	-34.45196454
1.14	114	-0.032	-0.978	0.262	0.0572958	-0.0572958	0	103.7340459	-1.30634424	-34.45196454
1.15	115	-0.032	-0.979	0.261	0.1145916	0	0	103.7455051	-1.33499214	-34.45196454
1.16	116	-0.031	-0.979	0.26	0.0572958	0.1718874	-0.0572958	103.7455051	-1.33499214	-34.45196454
1.17	117	-0.03	-0.978	0.263	-0.1718874	0.1718874	-0.2291832	103.7455051	-1.32926256	-34.44623496
1.18	118	-0.03	-0.977	0.264	-0.1718874	0.2291832	-0.1718874	103.7397755	-1.32926256	-34.44623496
1.19	119	-0.029	-0.977	0.264	-0.2291832	0.1718874	-0.1145916	103.7397755	-1.32926256	-34.44050538
1.2	120	-0.029	-0.978	0.264	-0.4583664	0.1145916	-0.0572958	103.7512346	-1.33499214	-34.44050538
1.21	121	-0.033	-0.978	0.263	-0.5156622	-0.0572958	0	103.7455051	-1.33499214	-34.44050538
1.22	122	-0.035	-0.978	0.262	-0.3437748	-0.1718874	0	103.7455051	-1.33499214	-34.44623496
1.23	123	-0.03	-0.975	0.262	-0.4583664	0	-0.0572958	103.7397755	-1.33499214	-34.44050538
1.24	124	-0.027	-0.972	0.263	-0.3437748	0.0572958	0	103.7340459	-1.33499214	-34.44050538
1.25	125	-0.025	-0.97	0.264	-0.0572958	0.1145916	-0.1145916	103.7569642	-1.3178034	-34.44050538
1.26	126	-0.025	-0.97	0.265	0.0572958	0.1718874	-0.2291832	103.7569642	-1.3178034	-34.44050538
1.27	127	-0.026	-0.972	0.265	0.1718874	0.1718874	-0.286479	103.7626938	-1.3178034	-34.4347758
1.28	128	-0.029	-0.974	0.266	0.1718874	0	-0.2291832	103.7626938	-1.31207382	-34.4347758
1.29	129	-0.032	-0.977	0.266	0.2291832	0	-0.1145916	103.7626938	-1.31207382	-34.4347758
1.3	130	-0.034	-0.976	0.263	-0.0572958	-0.1145916	-0.1145916	103.7798825	-1.34072172	-34.4347758
1.31	131	-0.036	-0.976	0.264	-0.3437748	-0.2291832	0	103.774153	-1.34072172	-34.44050538
1.32	132	-0.033	-0.973	0.263	-0.2291832	-0.2291832	0.1145916	103.774153	-1.34072172	-34.44050538
1.33	133	-0.03	-0.972	0.264	-0.1718874	-0.0572958	0.0572958	103.774153	-1.34072172	-34.44050538
1.34	134	-0.028	-0.969	0.264	0	0.0572958	0.0572958	103.774153	-1.34072172	-34.44050538
1.35	135	-0.029	-0.972	0.264	0.0572958	0.1145916	0	103.8028009	-1.34072172	-34.44050538
1.36	136	-0.03	-0.977	0.263	0	0.2291832	0.0572958	103.8028009	-1.3464513	-34.44050538
1.37	137	-0.031	-0.981	0.261	0.1145916	0.2291832	0	103.8028009	-1.3464513	-34.44050538
1.38	138	-0.033	-0.984	0.263	0.0572958	0.1718874	-0.1145916	103.8085304	-1.3464513	-34.4347758
1.39	139	-0.034	-0.983	0.264	-0.1145916	0.1145916	-0.1718874	103.8028009	-1.34072172	-34.4347758
1.4	140	-0.033	-0.979	0.262	-0.4010706	0.0572958	-0.1718874	103.8028009	-1.3464513	-34.4347758
1.41	141	-0.028	-0.975	0.264	-0.6302538	0.0572958	-0.2291832	103.7970713	-1.34072172	-34.42904622
1.42	142	-0.027	-0.974	0.264	-0.5156622	0	-0.1145916	103.7913417	-1.34072172	-34.42904622
1.43	143	-0.027	-0.977	0.264	-0.3437748	0	0	103.7856121	-1.34072172	-34.42904622
1.44	144	-0.027	-0.98	0.263	-0.4583664	-0.0572958	0.286479	103.7798825	-1.3464513	-34.4347758
1.45	145	-0.027	-0.982	0.262	-0.572958	-0.2291832	0.3437748	103.774153	-1.3464513	-34.4347758
1.46	146	-0.028	-0.98	0.263	-0.6875496	-0.286479	0.3437748	103.7684234	-1.3464513	-34.44050538
1.47	147	-0.03	-0.978	0.262	-0.6302538	-0.286479	0.286479	103.7569642	-1.35218088	-34.44623496
1.48	148	-0.03	-0.973	0.264	-0.572958	-0.1718874	0.1718874	103.7512346	-1.35218088	-34.44623496
1.49	149	-0.028	-0.97	0.264	-0.4583664	-0.1718874	0	103.7512346	-1.35218088	-34.44623496
1.5	150	-0.028	-0.969	0.261	-0.3437748	-0.1718874	-0.1718874	103.7512346	-1.3464513	-34.45196454
1.51	151	-0.028	-0.97	0.263	-0.1718874	-0.286479	-0.1145916	103.7512346	-1.3464513	-34.45196454
1.52	152	-0.026	-0.971	0.263	-0.286479	-0.3437748	-0.0572958	103.7455051	-1.3464513	-34.45769412
1.53	153	-0.028	-0.972	0.264	-0.3437748	-0.4010706	0	103.7455051	-1.3464513	-34.45769412
1.54	154	-0.03	-0.973	0.263	-0.1718874	-0.286479	0	103.7397755	-1.34072172	-34.4634237
1.55	155	-0.031	-0.976	0.263	0	-0.4010706	0.0572958	103.7512346	-1.35218088	-34.46915328
1.56	156	-0.031	-0.976	0.264	0	-0.4583664	0.1145916	103.7512346	-1.35218088	-34.47488286
1.57	157	-0.03	-0.976	0.264	-0.0572958	-0.4583664	0.2291832	103.7512346	-1.35791046	-34.47488286
1.58	158	-0.029	-0.976	0.264	0	-0.3437748	0.2291832	103.7512346	-1.35791046	-34.48061244
1.59	159	-0.029	-0.975	0.263	0	-0.286479	0.2291832	103.7512346	-1.35791046	-34.48634202
1.6	160	-0.027	-0.977	0.265	0.1718874	-0.2291832	0.1145916	103.774153	-1.35218088	-34.4920716
1.61	161	-0.028	-0.978	0.266	0	-0.2291832	0	103.774153	-1.35218088	-34.4920716
1.62	162	-0.029	-0.978	0.262	-0.0572958	-0.286479	0	103.774153	-1.35218088	-34.49780118
1.63	163	-0.029	-0.978	0.263	-0.1145916	-0.286479	0	103.7684234	-1.35218088	-34.49780118
1.64	164	-0.029	-0.976	0.264	-0.1718874	-0.286479	0	103.7684234	-1.35218088	-34.50353076
1.65	165	-0.03	-0.975	0.262	-0.0572958	-0.2291832	0	103.7856121	-1.35791046	-34.50353076
1.66	166	-0.03	-0.973	0.264	-0.1145916	-0.4010706	0	103.7856121	-1.35791046	-34.50926034
1.67	167	-0.032	-0.972	0.262	-0.1145916	-0.4010706	0.0572958	103.7798825	-1.35791046	-34.50926034
1.68	168	-0.031	-0.973	0.262	-0.0572958	-0.286479	0.1718874	103.7798825	-1.35791046	-34.51498992
1.69	169	-0.03	-0.974	0.265	-0.0572958	-0.1718874	0.1718874	103.7798825	-1.35791046	-34.5207195
1.7	170	-0.029	-0.975	0.263	-0.0572958	0	0.1145916	103.7970713	-1.35218088	-34.5207195
1.71	171	-0.029	-0.978	0.262	0.0572958	0	0.0572958	103.7970713	-1.35218088	-34.5207195
1.72	172	-0.028	-0.981	0.263	0	0.0572958	0	103.7970713	-1.35218088	-34.5207195
1.73	173	-0.029	-0.981	0.262	-0.0572958	0	0	103.7970713	-1.35218088	-34.5207195
1.74	174	-0.028	-0.98	0.261	-0.0572958	0.0572958	0	103.7970713	-1.35218088	-34.5207195
1.75	175	-0.027	-0.977	0.262	-0.1718874	0.1145916	0	103.7970713	-1.34072172	-34.5207195
1.76	176	-0.026	-0.975	0.265	-0.286479	0	-0.0572958	103.7970713	-1.33499214	-34.5207195
1.77	177	-0.025	-0.973	0.266	-0.4010706	-0.0572958	-0.1145916	103.7913417	-1.33499214	-34.5207195
1.78	178	-0.027	-0.972	0.266	-0.4583664	-0.1145916	0	103.7856121	-1.33499214	-34.5207195
1.79	179	-0.029	-0.973	0.264	-0.3437748	-0.3437748	0.2291832	103.7798825	-1.33499214	-34.52644908
1.8	180	-0.032	-0.974	0.264	-0.2291832	-0.3437748	0.286479	103.7856121	-1.3464513	-34.53217866
1.81	181	-0.03	-0.975	0.263	-0.1718874	-0.1145916	0.286479	103.7856121	-1.3464513	-34.53217866
1.82	182	-0.028	-0.973	0.261	-0.1145916	0.1145916	0.2291832	103.7856121	-1.35218088	-34.53217866
1.83	183	-0.028	-0.97	0.259	0	0	0.0572958	103.7856121	-1.35218088	-34.53217866
1.84	184	-0.03	-0.967	0.263	0.1718874	0.1145916	-0.0572958	103.7856121	-1.35218088	-34.52644908
1.85	185	-0.031	-0.965	0.263	0.286479	0.1145916	-0.286479	103.8028009	-1.35218088	-34.52644908
1.86	186	-0.032	-0.964	0.26	0.3437748	0.1145916	-0.2291832	103.8085304	-1.3464513	-34.52644908
1.87	187	-0.036	-0.969	0.257	0.6302538	-0.286479	0	103.81426	-1.3464513	-34.52644908
1.88	188	-0.038	-0.981	0.263	0.9167328	-0.3437748	0.2291832	103.8257192	-1.35218088	-34.53217866
1.89	189	-0.036	-0.993	0.264	0.7448454	0.2291832	0.1718874	103.8314488	-1.35218088	-34.53217866
1.9	190	-0.03	-0.991	0.259	0.2291832	1.2605076	0	103.8257192	-1.35791046	-34.51498992
1.91	191	-0.029	-0.988	0.259	0	1.5469866	-0.3437748	103.8257192	-1.35791046	-34.50353076
1.92	192	-0.033	-0.978	0.26	-0.2291832	1.3178034	-0.6302538	103.8199896	-1.35218088	-34.48634202
1.93	193	-0.037	-0.972	0.264	-0.2291832	0.9167328	-0.7448454	103.8199896	-1.3464513	-34.47488286
1.94	194	-0.034	-0.972	0.265	-0.286479	0.859437	-0.8021412	103.81426	-1.34072172	-34.4634237
1.95	195	-0.028	-0.975	0.26	0	1.2605076	-0.7448454	103.81426	-1.33499214	-34.45196454
1.96	196	-0.022	-0.986	0.262	0.5156622	1.6042824	-0.7448454	103.8199896	-1.32926256	-34.4347758
1.97	197	-0.012	-0.996	0.26	0.3437748	1.8907614	-0.6875496	103.8257192	-1.32926256	-34.41185748
1.98	198	-0.011	-0.994	0.259	-0.2291832	1.6042824	-0.572958	103.8199896	-1.32926256	-34.39466874
1.99	199	-0.013	-0.989	0.259	-1.145916	1.145916	-0.5156622	103.8085304	-1.32353298	-34.38320958
2	200	-0.019	-0.978	0.258	-1.6042824	0.572958	-0.5156622	103.7913417	-1.3178034	-34.37748
2.01	201	-0.027	-0.968	0.26	-1.6042824	-0.0572958	-0.572958	103.774153	-1.31207382	-34.37748
2.02	202	-0.032	-0.964	0.262	-1.3750992	-0.3437748	-0.4010706	103.7569642	-1.30634424	-34.38320958
2.03	203	-0.034	-0.961	0.263	-1.0886202	-0.3437748	-0.4010706	103.7455051	-1.30061466	-34.38320958
2.04	204	-0.032	-0.961	0.266	-0.8021412	0	-0.2291832	103.7397755	-1.30061466	-34.38320958
2.05	205	-0.028	-0.965	0.267	-0.6875496	0.4010706	-0.286479	103.7397755	-1.29488508	-34.37748
2.06	206	-0.028	-0.965	0.265	-0.572958	0.7448454	-0.286479	103.7340459	-1.29488508	-34.37175042
2.07	207	-0.031	-0.967	0.269	-0.4583664	0.9740286	-0.3437748	103.7283163	-1.29488508	-34.36029126
2.08	208	-0.033	-0.967	0.269	-0.4010706	1.0886202	-0.4010706	103.7283163	-1.29488508	-34.3488321
2.09	209	-0.035	-0.965	0.271	-0.3437748	1.2032118	-0.3437748	103.7225867	-1.2891555	-34.33737294
2.1	210	-0.035	-0.965	0.273	-0.1145916	1.3750992	-0.286479	103.7397755	-1.30061466	-34.3201842
2.11	211	-0.033	-0.967	0.274	0.1145916	1.6615782	-0.286479	103.7455051	-1.30061466	-34.30872504
2.12	212	-0.029	-0.972	0.27	0.286479	1.8334656	-0.1718874	103.7455051	-1.30634424	-34.28580672
2.13	213	-0.022	-0.974	0.263	-0.1718874	1.7761698	-0.1145916	103.7455051	-1.30634424	-34.26861798
2.14	214	-0.019	-0.981	0.261	-0.6302538	1.5469866	-0.3437748	103.7340459	-1.30634424	-34.25715882
2.15	215	-0.024	-0.99	0.259	-1.0886202	1.4896908	-0.572958	103.7225867	-1.30634424	-34.23997008
2.16	216	-0.028	-0.997	0.252	-1.7761698	1.4896908	-0.9167328	103.6996684	-1.30061466	-34.22278134
2.17	217	-0.031	-0.999	0.252	-2.0626488	1.145916	-1.0886202	103.6824797	-1.29488508	-34.21132218
2.18	218	-0.031	-0.997	0.257	-2.2345362	1.0886202	-1.2605076	103.6595614	-1.28342592	-34.19413344
2.19	219	-0.028	-0.994	0.261	-2.1199446	1.2032118	-1.3178034	103.636643	-1.27196676	-34.18267428
2.2	220	-0.029	-0.99	0.264	-2.1772404	1.2605076	-1.4896908	103.6137247	-1.2605076	-34.16548554
2.21	221	-0.03	-0.99	0.261	-2.291832	1.2032118	-1.432395	103.5908064	-1.25477802	-34.1482968
2.22	222	-0.029	-0.99	0.261	-2.291832	1.0313244	-1.3750992	103.5678881	-1.24331886	-34.13683764
2.23	223	-0.028	-0.988	0.26	-2.578311	0.9167328	-1.5469866	103.5392402	-1.22613012	-34.12537848
2.24	224	-0.026	-0.984	0.26	-3.151269	0.9740286	-1.8334656	103.5048627	-1.21467096	-34.11391932
2.25	225	-0.026	-0.977	0.258	-3.6096354	1.145916	-2.1772404	103.4704852	-1.19748222	-34.09673058
2.26	226	-0.027	-0.969	0.258	-3.7815228	1.0313244	-2.291832	103.4303782	-1.1745639	-34.07954184
2.27	227	-0.029	-0.967	0.259	-3.724227	0.9167328	-2.4637194	103.3902711	-1.15164558	-34.06808268
2.28	228	-0.028	-0.968	0.257	-3.724227	0.8021412	-2.4064236	103.3558936	-1.13445684	-34.05089394
2.29	229	-0.028	-0.972	0.255	-3.4950438	0.6875496	-2.3491278	103.3157866	-1.11153852	-34.03943478
2.3	230	-0.025	-0.974	0.251	-3.3231564	0.5156622	-2.1772404	103.2814091	-1.09434978	-34.0337052
2.31	231	-0.024	-0.974	0.251	-3.2085648	0.2291832	-2.0626488	103.2527612	-1.07143146	-34.02224604
2.32	232	-0.025	-0.972	0.255	-3.2658606	-0.0572958	-1.9480572	103.2183837	-1.05424272	-34.02224604
2.33	233	-0.024	-0.967	0.258	-3.0939732	-0.1145916	-1.8334656	103.1840062	-1.03705398	-34.01651646
2.34	234	-0.023	-0.962	0.259	-2.86479	-0.1718874	-1.9480572	103.1553583	-1.01413566	-34.01651646
2.35	235	-0.024	-0.962	0.258	-2.6356068	-0.1145916	-2.1772404	103.13244	-0.99694692	-34.01078688
2.36	236	-0.026	-0.965	0.257	-2.6929026	-0.1145916	-2.3491278	103.1037921	-0.9740286	-34.01078688
2.37	237	-0.027	-0.972	0.255	-2.7501984	-0.0572958	-2.6356068	103.0808738	-0.9453807	-34.0050573
2.38	238	-0.027	-0.978	0.254	-2.6929026	0.0572958	-2.8074942	103.0522259	-0.92246238	-33.99932772
2.39	239	-0.026	-0.985	0.256	-2.578311	-0.0572958	-2.9220858	103.023578	-0.89381448	-33.99359814
2.4	240	-0.029	-0.991	0.255	-2.291832	-0.2291832	-3.0366774	103.0006597	-0.86516658	-33.98786856
2.41	241	-0.025	-0.996	0.255	-2.1772404	-0.3437748	-3.151269	102.9777413	-0.8307891	-33.98213898
2.42	242	-0.019	-0.999	0.253	-2.578311	-0.1145916	-3.3231564	102.954823	-0.8021412	-33.9764094
2.43	243	-0.015	-0.996	0.248	-2.9220858	-0.2291832	-3.5523396	102.9261751	-0.76776372	-33.97067982
2.44	244	-0.014	-0.992	0.245	-3.151269	-0.5156622	-3.6669312	102.8917976	-0.72765666	-33.97067982
2.45	245	-0.01	-0.99	0.244	-3.3804522	-0.6875496	-3.724227	102.8574202	-0.6875496	-33.97067982
2.46	246	-0.009	-0.986	0.244	-3.6669312	-0.6875496	-3.724227	102.8173131	-0.65317212	-33.97067982
2.47	247	-0.011	-0.984	0.245	-3.7815228	-0.9740286	-3.6669312	102.777206	-0.61306506	-33.97067982
2.48	248	-0.012	-0.985	0.244	-4.0680018	-1.3178034	-3.6096354	102.737099	-0.572958	-33.9764094
2.49	249	-0.015	-0.984	0.241	-4.4690724	-1.6615782	-3.5523396	102.6912623	-0.53858052	-33.98786856
2.5	250	-0.017	-0.98	0.24	-4.8128472	-2.0626488	-3.5523396	102.6454257	-0.49847346	-33.99932772
2.51	251	-0.018	-0.978	0.238	-4.870143	-2.291832	-3.724227	102.5938595	-0.4583664	-34.01078688
2.52	252	-0.018	-0.976	0.237	-4.9274388	-2.291832	-3.9534102	102.5422933	-0.41252976	-34.02797562
2.53	253	-0.02	-0.973	0.239	-4.9274388	-2.2345362	-4.3544808	102.4964566	-0.36669312	-34.03943478
2.54	254	-0.021	-0.974	0.24	-4.870143	-2.1199446	-4.583664	102.4448904	-0.3151269	-34.05089394
2.55	255	-0.019	-0.975	0.237	-4.7555514	-1.718874	-4.6409598	102.3990538	-0.26929026	-34.05662352
2.56	256	-0.017	-0.976	0.235	-4.7555514	-1.6042824	-4.583664	102.3474875	-0.21772404	-34.0623531
2.57	257	-0.015	-0.978	0.235	-4.6982556	-1.6615782	-4.4117766	102.3016509	-0.1718874	-34.07381226
2.58	258	-0.015	-0.978	0.233	-4.4690724	-1.9480572	-4.2398892	102.2558143	-0.12605076	-34.07954184
2.59	259	-0.012	-0.977	0.235	-4.2398892	-2.005353	-4.1825934	102.2099776	-0.08021412	-34.091001
2.6	260	-0.013	-0.979	0.236	-4.297185	-2.1772404	-4.1825934	102.1698706	-0.04010706	-34.10246016
2.61	261	-0.017	-0.981	0.237	-4.2398892	-2.1199446	-4.297185	102.1240339	0	-34.1196489
2.62	262	-0.016	-0.981	0.239	-4.4117766	-1.8334656	-4.6982556	102.0839269	0.05156622	-34.12537848
2.63	263	-0.015	-0.983	0.237	-4.6982556	-1.2605076	-5.3285094	102.0323606	0.10886202	-34.12537848
2.64	264	-0.009	-0.985	0.233	-4.9847346	-0.6875496	-5.8441716	101.9807944	0.16615782	-34.1196489
2.65	265	-0.007	-0.987	0.232	-4.8128472	-0.6302538	-6.302538	101.9349578	0.2291832	-34.11391932
2.66	266	-0.004	-0.99	0.234	-4.7555514	-0.5156622	-6.4744254	101.8833916	0.29220858	-34.10818974
2.67	267	-0.003	-0.99	0.232	-4.7555514	-0.6302538	-6.6463128	101.8375549	0.35523396	-34.10246016
2.68	268	0.001	-0.99	0.233	-4.6982556	-0.6875496	-6.6463128	101.7917183	0.42398892	-34.09673058
2.69	269	0.005	-0.987	0.23	-4.8128472	-0.9167328	-6.5317212	101.7401521	0.4870143	-34.091001
2.7	270	0.005	-0.986	0.23	-4.6409598	-1.6042824	-6.2452422	101.6943154	0.55576926	-34.09673058
2.71	271	0.007	-0.983	0.229	-4.6982556	-1.7761698	-6.302538	101.6484788	0.61879464	-34.10246016
2.72	272	0.009	-0.983	0.231	-4.8128472	-1.9480572	-6.4744254	101.5969126	0.6875496	-34.10818974
2.73	273	0.008	-0.982	0.231	-5.0420304	-1.8907614	-6.6463128	101.5453463	0.75630456	-34.11391932
2.74	274	0.008	-0.983	0.228	-5.2712136	-1.6615782	-6.9327918	101.4937801	0.82505952	-34.11391932
2.75	275	0.006	-0.983	0.226	-5.5576926	-1.718874	-7.161975	101.4364843	0.89954406	-34.1196489
2.76	276	0.005	-0.984	0.225	-5.72958	-2.0626488	-7.1046792	101.3791885	0.9740286	-34.12537848
2.77	277	0.009	-0.984	0.224	-5.6722842	-2.4064236	-7.1046792	101.3218927	1.04851314	-34.13683764
2.78	278	0.012	-0.988	0.222	-5.5576926	-2.9220858	-7.161975	101.2645969	1.12299768	-34.1482968
2.79	279	0.012	-0.99	0.22	-5.5003968	-3.2085648	-7.1046792	101.2073011	1.19748222	-34.16548554
2.8	280	0.014	-0.992	0.216	-5.3858052	-3.151269	-7.2765666	101.1500053	1.27769634	-34.18267428
2.81	281	0.016	-0.991	0.217	-5.3858052	-2.8074942	-7.448454	101.0984391	1.35791046	-34.19986302
2.82	282	0.015	-0.99	0.218	-5.5576926	-2.6929026	-7.6203414	101.0411433	1.43812458	-34.21132218
2.83	283	0.014	-0.986	0.216	-5.5576926	-2.6356068	-7.6776372	100.9838475	1.5183387	-34.22278134
2.84	284	0.014	-0.987	0.215	-5.72958	-2.578311	-7.9068204	100.9265517	1.59855282	-34.2342405
2.85	285	0.016	-0.983	0.214	-5.8441716	-2.4637194	-8.1360036	100.8692559	1.68449652	-34.23997008
2.86	286	0.019	-0.984	0.218	-5.9014674	-2.578311	-8.2505952	100.8062305	1.77044022	-34.25142924
2.87	287	0.022	-0.982	0.218	-6.0733548	-2.6356068	-8.4797784	100.7432051	1.85638392	-34.2628884
2.88	288	0.025	-0.983	0.215	-6.2452422	-2.6929026	-8.7662574	100.6801798	1.9480572	-34.27434756
2.89	289	0.028	-0.985	0.214	-6.2452422	-2.86479	-8.8235532	100.6171544	2.03973048	-34.28580672
2.9	290	0.024	-0.987	0.215	-6.4744254	-3.3231564	-8.9381448	100.554129	2.13140376	-34.30299546
2.91	291	0.02	-0.985	0.217	-6.6463128	-3.7815228	-9.167328	100.485374	2.22880662	-34.32591378
2.92	292	0.021	-0.984	0.213	-6.4171296	-3.6669312	-9.3965112	100.4166191	2.32620948	-34.34310252
2.93	293	0.03	-0.989	0.208	-6.0733548	-2.86479	-9.3965112	100.3535937	2.42361234	-34.35456168
2.94	294	0.04	-0.993	0.203	-5.9014674	-1.9480572	-9.453807	100.2962979	2.5210152	-34.35456168
2.95	295	0.04	-0.992	0.205	-5.3285094	-1.6042824	-9.0527364	100.2447317	2.61268848	-34.35456168
2.96	296	0.04	-0.989	0.212	-5.3285094	-1.0886202	-8.4797784	100.1874359	2.69863218	-34.35456168
2.97	297	0.035	-0.978	0.205	-6.1306506	-0.4583664	-8.1932994	100.1301401	2.7788463	-34.34310252
2.98	298	0.041	-0.972	0.202	-6.016059	0.4583664	-8.1932994	100.0671147	2.85906042	-34.32591378
2.99	299	0.049	-0.979	0.206	-5.8441716	1.2032118	-8.1932994	100.0098189	2.93927454	-34.29726588
3	300	0.051	-0.984	0.191	-6.1879464	1.0886202	-8.59437	99.94106394	3.01948866	-34.27434756
3.01	301	0.052	-0.989	0.182	-5.6149884	0	-9.2246238	99.88949772	3.11116194	-34.2628884
3.02	302	0.057	-0.999	0.191	-5.7868758	-0.9740286	-9.9694692	99.82647234	3.2085648	-34.25142924
3.03	303	0.066	-0.999	0.194	-6.2452422	-1.9480572	-10.3705398	99.76344696	3.31169724	-34.25715882
3.04	304	0.065	-0.999	0.193	-5.72958	-3.151269	-10.3705398	99.70615116	3.42055926	-34.26861798
3.05	305	0.058	-0.999	0.198	-5.443101	-3.437748	-10.026765	99.64885536	3.5236917	-34.28580672
3.06	306	0.057	-0.997	0.204	-5.6149884	-2.86479	-9.7975818	99.59155956	3.62682414	-34.29726588
3.07	307	0.053	-0.992	0.197	-5.5576926	-2.1199446	-9.8548776	99.53426376	3.72995658	-34.30299546
3.08	308	0.049	-0.989	0.193	-5.6149884	-1.4896908	-10.2559482	99.47696796	3.83308902	-34.30299546
3.09	309	0.053	-0.986	0.191	-6.1879464	-1.2605076	-10.6570188	99.41967216	3.93622146	-34.29726588
3.1	310	0.064	-0.985	0.183	-6.589017	-1.6615782	-10.7716104	99.3509172	4.04508348	-34.29726588
3.11	311	0.075	-0.987	0.181	-6.4744254	-2.3491278	-10.5424272	99.28216224	4.1539455	-34.30299546
3.12	312	0.083	-0.989	0.187	-6.4171296	-2.9793816	-10.4851314	99.21913686	4.26280752	-34.31445462
3.13	313	0.089	-0.991	0.195	-6.7609044	-3.437748	-10.4278356	99.14465232	4.37166954	-34.33737294
3.14	314	0.083	-0.989	0.191	-7.3911582	-4.5263682	-10.1413566	99.07016778	4.48053156	-34.36602084
3.15	315	0.056	-0.986	0.195	-7.5630456	-5.5576926	-10.1413566	98.99568324	4.583664	-34.40039832
3.16	316	0.051	-0.979	0.201	-8.1360036	-5.2139178	-10.8289062	98.90973954	4.6982556	-34.4347758
3.17	317	0.065	-0.986	0.195	-8.307891	-4.5263682	-11.2872726	98.82379584	4.81857678	-34.4634237
3.18	318	0.077	-1.009	0.195	-8.880849	-3.3804522	-12.032118	98.73212256	4.94462754	-34.48061244
3.19	319	0.088	-1.021	0.187	-9.6829902	-2.8074942	-12.4331886	98.62899012	5.0706783	-34.4920716
3.2	320	0.09	-1.023	0.177	-9.7975818	-3.3231564	-12.4331886	98.53158726	5.19672906	-34.50353076
3.21	321	0.087	-1.025	0.186	-9.8548776	-3.9534102	-12.032118	98.42845482	5.32277982	-34.52644908
3.22	322	0.083	-1.017	0.186	-10.5424272	-4.0680018	-12.318597	98.3195928	5.44883058	-34.5493674
3.23	323	0.086	-1.01	0.177	-10.3705398	-4.010706	-12.9488508	98.21073078	5.58061092	-34.57228572
3.24	324	0.086	-1.011	0.172	-9.9121734	-3.7815228	-13.2926256	98.11332792	5.71812084	-34.58947446
3.25	325	0.088	-1.006	0.175	-10.2559482	-3.2658606	-13.178034	98.0044659	5.84990118	-34.6066632
3.26	326	0.093	-0.986	0.174	-11.0007936	-2.7501984	-13.0634424	97.89560388	5.98168152	-34.61812236
3.27	327	0.09	-0.97	0.173	-10.886202	-3.2658606	-12.8342592	97.78101228	6.11346186	-34.62958152
3.28	328	0.087	-0.957	0.18	-10.2559482	-3.6096354	-12.318597	97.67787984	6.23951262	-34.65249984
3.29	329	0.108	-0.953	0.17	-9.5683986	-3.437748	-12.032118	97.5747474	6.36556338	-34.66968858
3.3	330	0.121	-0.964	0.166	-8.4224826	-3.2085648	-11.9748222	97.49453328	6.49161414	-34.68687732
3.31	331	0.12	-0.976	0.161	-8.0787078	-3.4950438	-12.318597	97.40858958	6.6176649	-34.70406606
3.32	332	0.107	-0.983	0.156	-8.7089616	-4.010706	-12.7769634	97.3169163	6.74944524	-34.72698438
3.33	333	0.096	-0.976	0.157	-9.3965112	-4.6409598	-13.4072172	97.21951344	6.88695516	-34.76136186
3.34	334	0.091	-0.967	0.161	-9.5111028	-5.0993262	-14.037471	97.116381	7.03592424	-34.79000976
3.35	335	0.105	-0.964	0.16	-8.9954406	-4.8128472	-14.4385416	97.02470772	7.18489332	-34.82438724
3.36	336	0.124	-0.973	0.151	-8.0787078	-4.297185	-14.610429	96.93876402	7.3338624	-34.84730556
3.37	337	0.137	-0.985	0.149	-7.7922288	-3.724227	-14.610429	96.8585499	7.48283148	-34.87022388
3.38	338	0.14	-0.988	0.148	-8.2505952	-4.010706	-14.8396122	96.7726062	7.63180056	-34.8931422
3.39	339	0.132	-0.983	0.146	-8.7662574	-4.8128472	-14.896908	96.67520334	7.78649922	-34.9217901
3.4	340	0.121	-0.977	0.147	-9.1100322	-6.1306506	-14.9542038	96.58353006	7.94119788	-34.96762674
3.41	341	0.115	-0.967	0.146	-8.7662574	-7.5057498	-15.1260912	96.4861272	8.10162612	-35.02492254
3.42	342	0.127	-0.972	0.144	-7.7922288	-8.2505952	-15.2406828	96.39445392	8.26205436	-35.08794792
3.43	343	0.137	-0.987	0.149	-7.2765666	-8.3651868	-14.896908	96.3142398	8.4224826	-35.15670288
3.44	344	0.149	-0.997	0.153	-7.3338624	-8.880849	-14.7823164	96.2282961	8.57718126	-35.23118742
3.45	345	0.16	-1.002	0.148	-8.1932994	-9.740286	-15.0114996	96.13662282	8.7376095	-35.31140154
3.46	346	0.158	-1.006	0.142	-8.8235532	-10.7716104	-15.4125702	96.03349038	8.90376732	-35.40307482
3.47	347	0.152	-1.004	0.146	-9.453807	-11.6310474	-16.3865988	95.92462836	9.0813843	-35.50047768
3.48	348	0.139	-0.995	0.148	-10.313244	-12.3758928	-17.8189938	95.80430718	9.27619002	-35.60361012
3.49	349	0.131	-0.985	0.155	-10.1413566	-12.7196676	-19.194093	95.683986	9.47672532	-35.71247214
3.5	350	0.135	-0.983	0.152	-10.3705398	-12.318597	-19.767051	95.56366482	9.68871978	-35.81560458
3.51	351	0.139	-0.985	0.152	-10.4851314	-11.6310474	-19.9962342	95.44334364	9.90071424	-35.91300744
3.52	352	0.136	-0.99	0.164	-11.0007936	-10.599723	-19.9962342	95.31729288	10.10697912	-36.00468072
3.53	353	0.131	-0.982	0.162	-12.2613012	-10.3705398	-19.480572	95.17978296	10.313244	-36.09062442
3.54	354	0.138	-0.971	0.146	-13.0634424	-10.3705398	-18.9649098	95.03081388	10.50804972	-36.17656812
3.55	355	0.14	-0.972	0.154	-13.464513	-10.4278356	-18.621135	94.8818448	10.70285544	-36.2682414
3.56	356	0.143	-0.968	0.149	-13.9228794	-10.5424272	-18.621135	94.72714614	10.89766116	-36.35991468
3.57	357	0.146	-0.967	0.152	-14.2093584	-10.7716104	-19.0795014	94.56098832	11.09819646	-36.45158796
3.58	358	0.148	-0.969	0.153	-14.4385416	-11.0580894	-19.4232762	94.40056008	11.29873176	-36.54899082
3.59	359	0.151	-0.973	0.153	-14.610429	-10.6570188	-20.05353	94.23440226	11.51072622	-36.6406641
3.6	360	0.158	-0.978	0.152	-14.7823164	-10.3705398	-20.6837838	94.07397402	11.7169911	-36.73233738
3.61	361	0.159	-0.987	0.152	-15.183387	-10.313244	-21.3140376	93.90208662	11.94044472	-36.81828108
3.62	362	0.163	-0.99	0.143	-15.756345	-10.599723	-22.058883	93.71874006	12.16962792	-36.91568394
3.63	363	0.181	-0.976	0.134	-16.3865988	-11.2299768	-22.6891368	93.5353935	12.39881112	-37.0130868
3.64	364	0.181	-0.966	0.14	-16.902261	-11.5164558	-22.5745452	93.34058778	12.6337239	-37.11621924
3.65	365	0.169	-0.951	0.148	-16.9595568	-12.2040054	-22.5745452	93.15151164	12.8629071	-37.23081084
3.66	366	0.161	-0.939	0.159	-17.4179232	-12.8342592	-22.9756158	92.95097634	13.09781988	-37.34540244
3.67	367	0.156	-0.932	0.16	-17.9335854	-13.2353298	-23.4339822	92.73898188	13.34419182	-37.4714532
3.68	368	0.153	-0.934	0.158	-18.5065434	-13.6364004	-24.0069402	92.52125784	13.59056376	-37.59750396
3.69	369	0.152	-0.936	0.159	-19.5378678	-13.8655836	-24.350715	92.29780422	13.8369357	-37.7292843
3.7	370	0.145	-0.931	0.167	-20.7410796	-13.9228794	-24.5226024	92.06289144	14.08330764	-37.86106464
3.71	371	0.145	-0.929	0.168	-22.2307704	-13.9228794	-25.0382646	91.80506034	14.34113874	-37.99857456
3.72	372	0.143	-0.929	0.15	-24.1788276	-13.9228794	-26.0122932	91.52431092	14.60469942	-38.13608448
3.73	373	0.138	-0.93	0.134	-26.0122932	-13.9228794	-26.6998428	91.22637276	14.87398968	-38.2735944
3.74	374	0.127	-0.925	0.128	-28.1895336	-13.9801752	-26.8717302	90.90551628	15.14327994	-38.4168339
3.75	375	0.109	-0.907	0.132	-29.8511118	-13.750992	-27.0436176	90.57320064	15.40684062	-38.55434382
3.76	376	0.095	-0.882	0.137	-31.3980984	-12.4904844	-27.7311672	90.22369626	15.68759004	-38.68039458
3.77	377	0.087	-0.86	0.131	-33.0596766	-10.4851314	-28.9916748	89.85700314	15.97406904	-38.79498618
3.78	378	0.076	-0.842	0.123	-34.2055926	-8.4797784	-30.1375908	89.48458044	16.2720072	-38.88665946
3.79	379	0.066	-0.83	0.129	-34.7212548	-6.5317212	-30.939732	89.11215774	16.58140452	-38.961144
3.8	380	0.051	-0.815	0.131	-35.9244666	-5.5576926	-31.3408026	88.73400546	16.87934268	-39.02416938
3.81	381	0.041	-0.797	0.13	-38.3308902	-4.2398892	-31.7418732	88.32720528	17.18874	-39.08146518
3.82	382	0.036	-0.777	0.121	-40.680018	-1.4896908	-32.3148312	87.90894594	17.50959648	-39.11011308
3.83	383	0.016	-0.757	0.116	-42.4561878	0.7448454	-32.6013102	87.47349786	17.83045296	-39.12157224
3.84	384	-0.01	-0.745	0.119	-44.7480198	0.4583664	-32.4867186	87.00940188	18.14557986	-39.13876098
3.85	385	-0.034	-0.741	0.105	-48.128472	-0.2291832	-32.6013102	86.52238758	18.45497718	-39.1616793
3.86	386	-0.064	-0.731	0.089	-54.144531	1.8907614	-33.6326346	85.96661832	18.78156324	-39.16740888
3.87	387	-0.092	-0.699	0.117	-60.5043648	6.4744254	-35.3515086	85.36501242	19.13106762	-39.1330314
3.88	388	-0.123	-0.648	0.13	-64.8015498	15.4125702	-37.9871154	84.7404882	19.5092199	-39.01271022
3.89	389	-0.117	-0.618	0.015	-66.5777196	28.0176462	-42.97185	84.14461188	19.94466798	-38.77206786
3.9	390	-0.083	-0.617	-0.158	-61.879464	40.9092012	-48.5295426	83.63467926	20.44314144	-38.40537474
3.91	391	-0.063	-0.652	-0.23	-50.7640788	48.0138804	-53.6861646	83.26225656	21.01036986	-37.96419708
3.92	392	-0.047	-0.703	-0.236	-42.7426668	52.998615	-58.5563076	82.99869588	21.63489408	-37.48291236
3.93	393	-0.061	-0.746	-0.183	-41.9405256	58.728195	-62.7961968	82.7637831	22.30525494	-36.94433184
3.94	394	-0.076	-0.781	-0.126	-42.398892	65.8328742	-65.2026204	82.55751822	23.00999328	-36.33699636
3.95	395	-0.077	-0.815	-0.159	-42.6280752	73.1667366	-64.8015498	82.38563082	23.70327246	-35.64944676
3.96	396	-0.088	-0.827	-0.202	-39.3622146	80.0995284	-62.5670136	82.28822796	24.40228122	-34.88168304
3.97	397	-0.116	-0.818	-0.146	-30.3094782	86.4020664	-59.5303362	82.32260544	25.07837166	-34.0337052
3.98	398	-0.135	-0.832	-0.114	-21.8869956	93.9078162	-55.576926	82.48876326	25.72008462	-33.09405408
3.99	399	-0.133	-0.802	-0.115	-17.3606274	101.4708618	-52.5402486	82.75232394	26.33887926	-32.0570001
4	400	-0.124	-0.801	-0.111	-10.4278356	108.5182452	-50.6494872	83.1362058	26.92329642	-30.92827284
4.01	401	-0.101	-0.892	-0.088	-2.9220858	116.4823614	-49.7327544	83.651868	27.51344316	-29.70214272
4.02	402	-0.091	-0.908	-0.018	-1.0886202	123.8162238	-50.8786704	84.23628516	28.11504906	-28.38433932
4.03	403	-0.075	-0.771	-0.004	-0.6302538	130.5198324	-52.425657	84.8837277	28.71665496	-26.97486264
4.04	404	-0.078	-0.602	-0.019	2.86479	137.1088494	-53.5142772	85.62284352	29.32399044	-25.47371268
4.05	405	-0.122	-0.484	-0.008	11.172681	142.380063	-52.998615	86.49373968	29.89694844	-23.8923486
4.06	406	-0.135	-0.586	0.028	30.1948866	147.0783186	-57.2385042	87.61100778	30.50428392	-22.24222956
4.07	407	-0.095	-0.818	0.117	34.663959	150.8025456	-71.1040878	88.82567874	31.21475184	-20.52335556
4.08	408	0.027	-0.818	0.164	22.1734746	157.9072248	-84.797784	89.9830539	32.03408178	-18.69561954
4.09	409	0.193	-0.698	0.131	22.0015872	165.298383	-95.2829154	91.23210234	32.9164371	-16.74183276
4.1	410	0.307	-0.608	0.099	33.4607472	167.876694	-99.9238752	92.67022692	33.81025158	-14.70783186
4.11	411	0.381	-0.588	0.049	42.7426668	165.4129746	-99.3509172	94.23440226	34.65249984	-12.65664222
4.12	412	0.514	-0.62	0.047	50.0192334	160.6001274	-99.6373962	95.89025088	35.46037062	-10.61118216
4.13	413	0.665	-0.652	0.02	49.7900502	154.7559558	-105.0232014	97.56328824	36.27397098	-8.58291084
4.14	414	0.87	-0.688	0.03	51.4516284	147.1929102	-115.9666992	99.2649735	37.16778546	-6.57182826
4.15	415	1.09	-0.728	-0.01	56.2071798	134.358651	-124.7902524	100.9953067	38.12462532	-4.6409598
4.16	416	1.242	-0.726	-0.067	58.7854908	116.883432	-136.7077788	102.7027215	39.18459762	-2.83041252
4.17	417	1.415	-0.698	-0.085	60.9627312	95.2829154	-155.7299844	104.3757589	40.44510522	-1.16310474
4.18	418	1.63	-0.545	-0.031	60.447069	70.9894962	-181.2266154	105.9857708	41.98063266	0.3724227
4.19	419	1.769	-0.396	0.001	57.4103916	41.7686382	-211.5360936	107.49838	43.86566448	1.7475219
4.2	420	1.801	-0.383	0.077	61.7648724	16.1001198	-239.2672608	109.0281778	46.07155278	3.0366774
4.21	421	1.753	-0.502	0.191	73.8542862	-5.6722842	-258.2321706	110.6782969	48.5008947	4.26280752
4.22	422	1.673	-0.807	0.23	76.6617804	-24.4080108	-264.420117	112.3513342	51.03909864	5.43737142
4.23	423	1.524	-1.053	0.27	64.3431834	-40.680018	-250.7264208	113.8123771	53.49708846	6.46296624
4.24	424	1.446	-0.903	0.312	28.1322378	-67.6663398	-240.928839	114.6546254	55.96653744	7.13905668
4.25	425	1.468	-0.532	0.399	20.7983754	-79.5838662	-248.7210678	115.4223891	58.5563076	7.7922288
4.26	426	1.492	-0.138	0.421	23.4339822	-86.4020664	-270.0351054	116.4021473	61.35807222	8.64020664
4.27	427	1.534	0.109	0.35	25.3820394	-102.7313694	-298.511118	117.5767112	64.48069332	9.6543423
4.28	428	1.393	-0.04	0.731	44.1750618	-82.1048814	-306.5898258	119.7654107	67.55747778	11.55656286
4.29	429	1.485	-0.094	0.402	62.1086472	-75.8596392	-308.5951788	122.968246	70.58269602	14.30103168
4.3	430	1.812	-0.143	0.053	84.224826	-85.084263	-307.7357418	127.2367831	73.57926636	17.88201918
4.31	431	2.107	-0.026	0.589	81.0162612	-60.6762522	-308.4805872	133.8830959	76.30654644	23.90380776
4.32	432	2.207	0.086	0.94	92.9337876	-32.3148312	-292.7242422	143.7838101	78.4665981	33.08259492
4.33	433	1.916	0.069	1.176	76.6044846	-8.8235532	-270.436176	156.6180693	79.87607478	45.35535528
4.34	434	1.976	-0.158	0.748	69.041439	-7.2765666	-231.3604404	170.0768527	80.59227228	58.30420608
4.35	435	1.974	-0.288	0.445	47.9565846	-14.7250206	-188.6750694	-177.972214	80.85583296	69.91233516
4.36	436	1.624	-0.082	0.734	17.4179232	-25.8977016	-168.6788352	-167.1834148	80.89021044	80.66102724
4.37	437	1.584	-0.183	0.515	7.1046792	-50.0765292	-156.0737592	-156.88163	80.8730217	91.02010788
4.38	438	1.448	-0.29	0.436	-1.0886202	-52.2537696	-140.2601184	-147.7429499	80.6724864	100.2848387
4.39	439	1.366	0.117	0.316	-9.6829902	-45.7220484	-137.9109906	-139.6355942	80.21412	108.6041889
4.4	440	1.569	0.311	0.084	13.4072172	-60.6189564	-128.8582542	-131.8720133	79.73283528	116.3391219
4.41	441	1.397	0.227	0.083	34.7785506	-68.8695516	-106.7993712	-125.013706	79.30311678	122.9453276
4.42	442	1.175	0.244	0.109	46.6387812	-59.7022236	-79.5838662	-119.7138445	78.93069408	127.8555777
4.43	443	1.081	0.346	0.104	65.9474658	-47.3263308	-58.7854908	-115.5828173	78.61556718	131.3792694
4.44	444	0.84	0.282	0.052	67.4371566	-40.966497	-46.0658232	-112.1794468	78.34054734	134.1523861
4.45	445	0.897	0.36	0.048	37.8725238	-24.0069402	-39.1330314	-110.0251247	78.0368796	135.9514742
4.46	446	1.012	0.508	-0.001	26.069589	-23.8923486	-30.1375908	-108.2604141	77.82488514	137.4870017
4.47	447	0.834	0.512	-0.031	20.8556712	-32.3148312	-8.1932994	-106.5128922	77.83061472	139.051177
4.48	448	0.509	0.533	-0.012	25.0955604	-38.2735944	19.3659804	-104.782559	78.10563456	140.552327
4.49	449	0.258	0.619	0.014	24.923673	-40.8519054	45.9512316	-103.1438992	78.63275592	141.9618037
4.5	450	0.105	0.674	0.036	21.3713334	-36.5547204	61.592985	-101.7458816	79.26300972	143.1592859
4.51	451	0.25	0.727	-0.067	15.469866	-22.5172494	62.3951262	-101.0526025	79.91045226	143.6978664
4.52	452	0.284	0.613	-0.068	25.2674478	-11.6310474	58.0406454	-100.771853	80.48913984	143.7207847
4.53	453	0.35	0.526	-0.068	29.220858	-0.1145916	44.117766	-100.9838475	80.91885834	143.2051225
4.54	454	0.45	0.417	-0.065	28.074942	2.86479	29.4500412	-101.2474082	81.19960776	142.6493533
4.55	455	0.558	0.364	-0.037	23.6058696	-0.4583664	16.615782	-101.1385462	81.33711768	142.5118433
4.56	456	0.699	0.335	0.003	19.6524594	-6.589017	6.016059	-100.5942361	81.40587264	142.8613477
4.57	457	0.787	0.261	0.061	21.7151082	-12.7769634	3.0939732	-99.59155956	81.45170928	143.6463002
4.58	458	0.868	0.183	0.074	26.4133638	-17.2460358	7.2192708	-98.27948574	81.54338256	144.7005429
4.59	459	0.903	0.18	0.042	24.6944898	-18.907614	13.8655836	-96.90438654	81.69235164	145.8349997
4.6	460	0.934	0.281	-0.025	16.5584862	-19.7097552	14.8396122	-95.43761406	81.83559114	147.141344
4.61	461	1.016	0.376	-0.043	6.9900876	-24.2934192	10.599723	-93.74165838	81.95018274	148.7800039
4.62	462	1.06	0.437	-0.035	-0.4583664	-27.9030546	5.5003968	-91.79933076	82.01320812	150.7452498
4.63	463	1.109	0.415	-0.035	0	-31.3408026	2.6929026	-89.58771288	82.03612644	152.9740564
4.64	464	1.117	0.323	-0.034	3.2658606	-35.236917	4.1252976	-87.04950894	82.05331518	155.5008012
4.65	465	1.13	0.253	-0.038	3.6669312	-38.5600734	6.8182002	-84.23055558	82.0762335	158.3025658
4.66	466	1.137	0.203	-0.041	0.9167328	-40.9092012	9.0527364	-81.25117398	82.1048814	161.2934066
4.67	467	1.16	0.188	-0.029	-2.1199446	-40.966497	10.5424272	-78.2660628	82.12207014	164.3243544
4.68	468	1.187	0.166	-0.029	-4.4690724	-38.4454818	10.7143146	-75.46429818	82.1335293	167.194874
4.69	469	1.176	0.141	-0.046	-6.1879464	-36.382833	11.5737516	-72.80004348	82.1335293	169.9393428
4.7	470	1.151	0.136	-0.068	-6.016059	-32.945085	12.8342592	-70.31340576	82.14498846	172.5061946
4.71	471	1.123	0.145	-0.084	-4.010706	-31.2835068	14.037471	-67.90698216	82.15644762	174.969914
4.72	472	1.088	0.157	-0.059	-2.1199446	-29.793816	15.0114996	-65.55212478	82.16790678	177.3706081
4.73	473	1.05	0.164	-0.049	-1.2605076	-27.8457588	15.6417534	-63.2832111	82.18509552	179.6681696
4.74	474	1.031	0.155	-0.05	0.4010706	-23.9496444	15.9855282	-61.2205623	82.20801384	-178.2529634
4.75	475	1.008	0.146	-0.033	1.2605076	-19.8243468	16.4438946	-59.43866292	82.24239132	-176.471064
4.76	476	0.997	0.127	-0.013	1.3178034	-16.4438946	17.761698	-57.73697766	82.3054167	-174.7693787
4.77	477	1.007	0.114	-0.02	0.4583664	-12.605076	19.6524594	-56.16707274	82.39708998	-173.1880147
4.78	478	0.991	0.104	-0.037	0.1145916	-10.026765	21.1421502	-54.65446362	82.51168158	-171.6639464
4.79	479	0.97	0.088	-0.048	1.6615782	-9.2246238	22.345362	-53.07309954	82.63773234	-170.0940415
4.8	480	0.955	0.069	-0.053	2.2345362	-8.880849	22.2880662	-51.4516284	82.75805352	-168.4840295
4.81	481	0.945	0.055	-0.064	1.3178034	-8.8235532	21.0848544	-49.85307558	82.86118596	-166.8912062
4.82	482	0.918	0.058	-0.069	0	-9.3392154	19.9962342	-48.25452276	82.94712966	-165.2754647
4.83	483	0.87	0.065	-0.077	-1.4896908	-10.5424272	19.194093	-46.60440372	83.01588462	-163.6024273
4.84	484	0.841	0.066	-0.086	-2.291832	-11.172681	18.3919518	-44.94282552	83.06745084	-161.9064716
4.85	485	0.837	0.056	-0.095	-4.297185	-10.9434978	16.2720072	-43.37865018	83.09609874	-160.2907301
4.86	486	0.854	0.049	-0.092	-5.8441716	-9.3392154	14.4958374	-42.04938762	83.12474664	-158.886983
4.87	487	0.882	0.043	-0.108	-6.7036086	-6.7036086	12.9488508	-40.94930826	83.15912412	-157.7124191
4.88	488	0.92	0.033	-0.121	-7.9068204	-4.4690724	11.8602306	-40.03257546	83.19923118	-156.7097426
4.89	489	0.957	0.032	-0.122	-9.3965112	-3.6669312	10.7143146	-39.23616384	83.23933824	-155.8159281
4.9	490	0.996	0.026	-0.123	-9.9121734	-1.9480572	9.6829902	-38.46840012	83.2794453	-154.9450319
4.91	491	1.024	0.019	-0.119	-9.6829902	-0.3437748	8.59437	-37.96419708	83.33101152	-154.3319669
4.92	492	1.033	0.008	-0.11	-9.7975818	1.2032118	6.2452422	-37.68917724	83.37684816	-153.9595442
4.93	493	1.029	0	-0.116	-10.1986524	3.6096354	3.3231564	-37.74074346	83.42841438	-153.9022484
4.94	494	1.025	-0.002	-0.122	-11.4018642	6.4744254	0.6875496	-38.12462532	83.48571018	-154.1715386
4.95	495	1.018	0.003	-0.136	-12.1467096	7.9068204	-0.9740286	-38.55434382	83.5372764	-154.480936
4.96	496	1.003	0.018	-0.143	-12.5477802	8.1932994	-2.291832	-39.25908216	83.58311304	-155.0596235
4.97	497	0.996	0.038	-0.157	-13.2353298	7.6776372	-2.3491278	-39.9638205	83.62894968	-155.6325815
4.98	498	0.984	0.058	-0.157	-13.178034	6.7036086	-1.4896908	-40.55396724	83.66905674	-156.0966775
4.99	499	0.959	0.073	-0.151	-11.5737516	5.0420304	-0.2291832	-40.966497	83.7091638	-156.3888861
5	500	0.944	0.074	-0.148	-9.1100322	4.0680018	0.4583664	-41.12119566	83.7091638	-156.4461819
5.01	501	0.94	0.064	-0.136	-5.443101	3.8388186	0.9740286	-41.32173096	83.74927086	-156.595151
5.02	502	0.939	0.053	-0.122	-3.8961144	4.297185	0.6302538	-41.56237332	83.78364834	-156.8014159
5.03	503	0.943	0.041	-0.109	-2.4064236	5.156622	0.1718874	-41.87750022	83.8237554	-157.0878949
5.04	504	0.957	0.036	-0.103	-1.6042824	5.9587632	-0.6875496	-42.30148914	83.86386246	-157.494695
5.05	505	0.963	0.032	-0.099	-1.3750992	6.016059	-1.7761698	-42.58796814	83.89251036	-157.7697149
5.06	506	0.968	0.031	-0.085	-1.6042824	5.156622	-2.5210152	-43.09217118	83.91542868	-158.2624588
5.07	507	0.969	0.037	-0.081	-2.0626488	4.870143	-3.4950438	-43.6593996	83.92688784	-158.8067689
5.08	508	0.969	0.048	-0.07	-2.1772404	5.0420304	-4.3544808	-44.29538298	83.93261742	-159.4255635
5.09	509	0.971	0.058	-0.061	-2.5210152	4.7555514	-5.3858052	-44.977203	83.93261742	-160.0901948
5.1	510	0.984	0.065	-0.054	-2.5210152	5.156622	-5.9587632	-45.78507378	83.92688784	-160.8694177
5.11	511	1.005	0.072	-0.048	-2.5210152	5.9014674	-6.3598338	-46.60440372	83.92115826	-161.6715589
5.12	512	1.022	0.082	-0.047	-2.291832	5.9014674	-6.6463128	-47.44665198	83.91542868	-162.4908888
5.13	513	1.035	0.087	-0.049	-2.1199446	5.3285094	-6.9327918	-48.26025234	83.90396952	-163.2873004
5.14	514	1.046	0.092	-0.051	-1.7761698	4.6982556	-6.9327918	-49.02801606	83.8810512	-164.043605
5.15	515	1.052	0.098	-0.05	-1.4896908	4.010706	-6.8182002	-49.847346	83.8524033	-164.8457462
5.16	516	1.049	0.104	-0.049	-1.2032118	3.6096354	-6.6463128	-50.50051812	83.8237554	-165.4874591
5.17	517	1.046	0.112	-0.046	-0.7448454	3.4950438	-6.0733548	-51.1078536	83.80083708	-166.0947946
5.18	518	1.039	0.117	-0.039	0.0572958	3.8961144	-5.5576926	-51.69800034	83.78364834	-166.6849414
5.19	519	1.036	0.118	-0.043	1.0313244	4.4117766	-4.8128472	-52.27668792	83.77218918	-167.2750881
5.2	520	1.032	0.12	-0.043	1.9480572	4.8128472	-4.297185	-53.01007416	83.75500044	-168.0313927
5.21	521	1.03	0.114	-0.045	2.3491278	4.6409598	-3.8388186	-53.53146594	83.75500044	-168.5814323
5.22	522	1.032	0.112	-0.048	2.5210152	4.5263682	-3.2658606	-54.01275066	83.75500044	-169.091365
5.23	523	1.032	0.113	-0.04	2.6929026	3.9534102	-2.7501984	-54.42528042	83.75500044	-169.5325426
5.24	524	1.028	0.115	-0.033	2.578311	3.0939732	-2.1772404	-54.74040732	83.75500044	-169.8763174
5.25	525	1.025	0.114	-0.032	2.578311	2.6929026	-1.2032118	-55.30190616	83.74354128	-170.4607346
5.26	526	1.022	0.111	-0.033	2.6356068	2.005353	-0.3437748	-55.44514566	83.74927086	-170.632622
5.27	527	1.016	0.108	-0.039	2.5210152	0.9740286	0.4583664	-55.46806398	83.76073002	-170.6841882
5.28	528	1.015	0.106	-0.043	2.4064236	0.572958	1.2032118	-55.42795692	83.77791876	-170.6669995
5.29	529	1.015	0.105	-0.041	2.0626488	0.4583664	1.8334656	-55.3477428	83.7951075	-170.6097037
5.3	530	1.011	0.103	-0.048	2.0626488	0.6302538	2.2345362	-55.43941608	83.7951075	-170.7185657
5.31	531	1.003	0.094	-0.048	1.7761698	0.286479	2.578311	-55.30763574	83.81802582	-170.6097037
5.32	532	0.996	0.091	-0.057	1.2032118	-0.4010706	2.7501984	-55.1185596	83.83521456	-170.4320867
5.33	533	0.991	0.085	-0.051	0.4583664	-0.2291832	3.0939732	-54.92948346	83.85813288	-170.2430105
5.34	534	0.991	0.083	-0.052	-0.0572958	0.1145916	3.3231564	-54.76332564	83.88678078	-170.0768527
5.35	535	1.001	0.081	-0.063	-0.4583664	0.6875496	3.151269	-54.5456016	83.89823994	-169.8591287
5.36	536	1.004	0.079	-0.068	-1.0886202	0.4583664	3.2085648	-54.41955084	83.92688784	-169.7158892
5.37	537	1.007	0.079	-0.065	-1.5469866	-0.5156622	3.437748	-54.2018268	83.94980616	-169.4809764
5.38	538	1.011	0.082	-0.065	-1.6042824	-1.4896908	3.4950438	-53.9153478	83.97272448	-169.1715791
5.39	539	1.015	0.086	-0.066	-1.2032118	-1.4896908	3.3231564	-53.62313922	83.98991322	-168.8679113
5.4	540	1.014	0.084	-0.069	-0.8021412	-1.2032118	3.0366774	-53.29655316	83.98418364	-168.5355957
5.41	541	1.003	0.078	-0.068	-0.1145916	-1.4896908	3.2658606	-53.00434458	84.00137238	-168.2376575
5.42	542	0.999	0.074	-0.074	0	-1.7761698	3.3231564	-52.67775852	84.01283154	-167.9110715
5.43	543	0.998	0.071	-0.072	0	-1.8334656	3.0939732	-52.35690204	84.03002028	-167.590215
5.44	544	0.999	0.073	-0.068	0.2291832	-1.5469866	2.7501984	-52.07615262	84.04147944	-167.3094656
5.45	545	0.993	0.071	-0.06	0.286479	-1.8334656	2.1772404	-51.76102572	84.03574986	-166.9943387
5.46	546	0.99	0.07	-0.06	0.4010706	-2.0626488	1.7761698	-51.49746504	84.03574986	-166.7365076
5.47	547	0.992	0.069	-0.061	0.8021412	-2.4064236	1.4896908	-51.2224452	84.03002028	-166.4672173
5.48	548	0.998	0.069	-0.059	0.9167328	-2.86479	1.2032118	-50.9359662	84.0242907	-166.1864679
5.49	549	0.999	0.07	-0.055	1.2032118	-3.2085648	0.859437	-50.63802804	84.00710196	-165.9057185
5.5	550	0.998	0.069	-0.058	1.3750992	-3.2085648	0.6302538	-50.34008988	83.98418364	-165.6249691
5.51	551	1	0.067	-0.063	1.2032118	-2.6356068	0.1718874	-50.133825	83.97272448	-165.4244338
5.52	552	0.998	0.065	-0.064	1.2032118	-2.291832	-0.1718874	-49.96766718	83.95553574	-165.2754647
5.53	553	0.998	0.067	-0.066	0.9167328	-2.2345362	-0.6302538	-49.84161642	83.93261742	-165.1551435
5.54	554	1.004	0.069	-0.065	0.5156622	-1.9480572	-1.2032118	-49.77286146	83.9096991	-165.0921181
5.55	555	1.006	0.074	-0.062	0.3437748	-1.5469866	-1.6615782	-49.77286146	83.87532162	-165.0921181
5.56	556	1.011	0.076	-0.068	0.2291832	-1.3178034	-1.8907614	-49.7900502	83.8524033	-165.120766
5.57	557	1.009	0.078	-0.069	0.1145916	-1.145916	-2.1772404	-49.84161642	83.8237554	-165.1666027
5.58	558	1.001	0.076	-0.066	-0.1145916	-1.6042824	-2.1199446	-49.85880516	83.80083708	-165.1837914
5.59	559	1.001	0.077	-0.071	-0.4583664	-1.7761698	-2.1772404	-49.87026432	83.77218918	-165.189521
5.6	560	1	0.083	-0.073	-0.3437748	-2.005353	-2.1199446	-49.847346	83.71489338	-165.1608731
5.61	561	0.997	0.083	-0.079	-0.0572958	-2.2345362	-2.2345362	-49.82442768	83.6805159	-165.1436843
5.62	562	0.997	0.086	-0.084	0	-2.4637194	-2.2345362	-49.78432062	83.64613842	-165.1035773
5.63	563	0.997	0.088	-0.087	0.5156622	-2.5210152	-2.0626488	-49.7327544	83.61176094	-165.0577406
5.64	564	0.993	0.091	-0.079	0.9167328	-2.7501984	-1.6615782	-49.64108112	83.58311304	-164.9717969
5.65	565	0.993	0.093	-0.076	1.7761698	-3.0366774	-1.2032118	-49.53794868	83.53154682	-164.8915828
5.66	566	0.995	0.096	-0.07	2.2345362	-2.86479	-0.8021412	-49.38325002	83.50289892	-164.7540729
5.67	567	1	0.099	-0.066	2.6356068	-2.3491278	-0.4583664	-49.23428094	83.48571018	-164.6280221
5.68	568	1.006	0.097	-0.063	2.6356068	-2.005353	-0.0572958	-49.08531186	83.46852144	-164.507701
5.69	569	1.009	0.096	-0.063	2.6929026	-1.3178034	0.1145916	-48.96499068	83.46279186	-164.4217573
5.7	570	1.009	0.094	-0.062	2.6356068	-0.9740286	0.3437748	-49.06239354	83.43987354	-164.5420784
5.71	571	1.002	0.089	-0.066	2.005353	-0.6875496	0.6302538	-48.9592611	83.43987354	-164.4561347
5.72	572	0.997	0.087	-0.079	1.3178034	-0.859437	1.0313244	-48.83321034	83.43987354	-164.3415431
5.73	573	0.995	0.086	-0.092	1.0886202	-1.3750992	1.6042824	-48.63840462	83.44560312	-164.1581966
5.74	574	0.992	0.086	-0.092	1.145916	-2.2345362	1.7761698	-48.38057352	83.43987354	-163.9175542
5.75	575	0.991	0.086	-0.089	1.6042824	-2.3491278	2.0626488	-48.04825788	83.41695522	-163.5966977
5.76	576	0.992	0.084	-0.082	1.9480572	-1.8334656	2.0626488	-47.79615636	83.41695522	-163.361785
5.77	577	0.993	0.082	-0.08	2.4064236	-1.2605076	2.1199446	-47.56697316	83.4226848	-163.1612497
5.78	578	0.995	0.079	-0.084	2.6356068	-0.859437	2.1772404	-47.36070828	83.43414396	-162.9779031
5.79	579	0.996	0.079	-0.084	2.8074942	-0.9167328	2.2345362	-47.14298424	83.44560312	-162.788827
5.8	580	0.997	0.077	-0.08	2.7501984	-1.4896908	2.2345362	-46.85650524	83.43414396	-162.5309959
5.81	581	0.999	0.076	-0.079	2.5210152	-1.6042824	2.1772404	-46.60440372	83.43987354	-162.3018127
5.82	582	0.999	0.077	-0.078	2.4064236	-1.718874	2.005353	-46.35803178	83.43987354	-162.078359
5.83	583	0.998	0.075	-0.076	2.291832	-1.8334656	1.8334656	-46.11165984	83.43987354	-161.8549054
5.84	584	0.996	0.072	-0.075	2.1199446	-1.6615782	1.6615782	-45.88820622	83.43987354	-161.6543701
5.85	585	0.997	0.071	-0.072	1.8334656	-1.4896908	1.3178034	-45.68194134	83.43414396	-161.4595644
5.86	586	0.998	0.071	-0.074	1.5469866	-1.0886202	0.9167328	-45.54443142	83.43414396	-161.3392432
5.87	587	1.002	0.071	-0.076	1.2032118	-0.859437	0.6875496	-45.4355694	83.42841438	-161.2475699
5.88	588	1	0.074	-0.08	0.9167328	-1.0313244	0.5156622	-45.33243696	83.42841438	-161.1501671
5.89	589	0.996	0.073	-0.087	0.4583664	-1.0886202	0.4583664	-45.2350341	83.4226848	-161.0527642
5.9	590	0.992	0.074	-0.082	0.0572958	-1.6042824	0.4583664	-45.09752418	83.37684816	-160.9209839
5.91	591	0.994	0.075	-0.08	0	-1.4896908	0.572958	-44.97147342	83.37111858	-160.7949331
5.92	592	0.998	0.081	-0.078	0	-0.9167328	0.6875496	-44.87407056	83.37111858	-160.6975303
5.93	593	1.005	0.084	-0.075	0.0572958	-0.1718874	0.6302538	-44.82250434	83.37111858	-160.6402345
5.94	594	1.012	0.084	-0.074	0.286479	0.4010706	0.6875496	-44.79958602	83.38257774	-160.6230457
5.95	595	1.01	0.079	-0.071	0.4583664	0.4583664	0.9167328	-44.93709594	83.37111858	-160.7662852
5.96	596	1.004	0.072	-0.074	0.2291832	0	1.0313244	-44.86834098	83.37684816	-160.6975303
5.97	597	1.003	0.072	-0.075	-0.1718874	-0.286479	0.9167328	-44.79385644	83.38257774	-160.6230457
5.98	598	1.004	0.074	-0.078	-0.572958	0.0572958	0.572958	-44.76520854	83.38830732	-160.5886682
5.99	599	1.003	0.077	-0.082	-0.8021412	0.5156622	0.4010706	-44.78239728	83.3940369	-160.5943978
6	600	1	0.075	-0.083	-0.6302538	0.572958	0.4010706	-44.67353526	83.34247068	-160.4798062
6.01	601	0.996	0.076	-0.086	-0.4583664	0.3437748	0.4010706	-44.67353526	83.34820026	-160.4740766
6.02	602	0.997	0.076	-0.084	-0.1718874	0.1718874	0.3437748	-44.6620761	83.34820026	-160.4626175
6.03	603	0.996	0.078	-0.078	0	-0.1145916	0.3437748	-44.6334282	83.35392984	-160.4339696
6.04	604	0.999	0.078	-0.078	0.2291832	-0.2291832	0.4010706	-44.58759156	83.35392984	-160.3938625
6.05	605	0.997	0.078	-0.079	0.6302538	-0.4010706	0.4010706	-44.62196904	83.3080932	-160.4339696
6.06	606	0.995	0.075	-0.082	1.145916	-0.6302538	0.4583664	-44.5474845	83.3080932	-160.3652146
6.07	607	0.998	0.075	-0.083	1.2032118	-0.572958	0.4010706	-44.47299996	83.30236362	-160.3079188
6.08	608	1	0.078	-0.082	1.2032118	-0.286479	0.1718874	-44.43862248	83.30236362	-160.2792709
6.09	609	1.001	0.077	-0.079	1.2605076	-0.0572958	0.0572958	-44.41570416	83.30236362	-160.2735413
6.1	610	0.999	0.074	-0.077	1.145916	-0.0572958	0	-44.45008164	83.26798614	-160.319378
6.11	611	0.997	0.073	-0.08	0.9167328	-0.1145916	0	-44.4328929	83.26798614	-160.3136484
6.12	612	0.999	0.075	-0.081	0.7448454	0	0	-44.42716332	83.26798614	-160.3136484
6.13	613	0.999	0.076	-0.081	0.4583664	0.0572958	0	-44.4328929	83.26798614	-160.3251076
6.14	614	0.997	0.077	-0.084	0.2291832	0.0572958	0.0572958	-44.4328929	83.26798614	-160.3251076
6.15	615	0.996	0.077	-0.088	0.2291832	0.1145916	0.0572958	-44.04901104	83.07318042	-159.9469553
6.16	616	0.995	0.077	-0.087	0.3437748	0.1718874	0.1718874	-44.04328146	83.07891	-159.9469553
6.17	617	0.992	0.075	-0.084	0.3437748	0.4010706	0.1718874	-44.04901104	83.08463958	-159.9584144
6.18	618	0.994	0.072	-0.087	0.3437748	0.7448454	0.286479	-44.07192936	83.09036916	-159.9813328
6.19	619	0.996	0.073	-0.09	0.1145916	1.0886202	0.1718874	-44.117766	83.10182832	-160.032899
6.2	620	0.996	0.074	-0.09	0.1718874	1.0886202	0.1718874	-43.99171524	83.07318042	-159.9068482
6.21	621	0.996	0.071	-0.083	0.1145916	0.9740286	0	-44.04901104	83.07891	-159.964144
6.22	622	0.995	0.071	-0.08	-0.2291832	1.2032118	-0.0572958	-44.12349558	83.09036916	-160.0386286
6.23	623	0.996	0.072	-0.081	-0.4583664	1.6042824	-0.1718874	-44.2323576	83.10182832	-160.141761
6.24	624	0.996	0.072	-0.082	-0.7448454	1.718874	-0.2291832	-44.35267878	83.1075579	-160.2563526
6.25	625	0.995	0.073	-0.082	-0.8021412	1.718874	-0.2291832	-44.43862248	83.1075579	-160.3365667
6.26	626	0.998	0.073	-0.08	-1.0313244	1.718874	-0.286479	-44.56467324	83.11901706	-160.4568879
6.27	627	1.001	0.076	-0.08	-1.2605076	2.0626488	-0.4010706	-44.72510148	83.13047622	-160.6001274
6.28	628	1.004	0.077	-0.083	-1.145916	2.4064236	-0.5156622	-44.90271846	83.14193538	-160.7662852
6.29	629	1.002	0.076	-0.081	-1.0313244	2.2345362	-0.4010706	-45.06887628	83.15339454	-160.9209839
6.3	630	1	0.077	-0.081	-1.0886202	2.1199446	-0.4010706	-45.21784536	83.15339454	-161.0584938
6.31	631	1.002	0.078	-0.079	-1.0886202	1.9480572	-0.3437748	-45.36108486	83.1648537	-161.1960037
6.32	632	1.002	0.08	-0.078	-1.0886202	2.2345362	-0.286479	-45.5215131	83.17631286	-161.3449728
6.33	633	1.003	0.082	-0.078	-1.145916	2.1199446	-0.1718874	-45.6647526	83.1935016	-161.4767531
6.34	634	1.002	0.081	-0.077	-1.2032118	1.9480572	0	-45.79080336	83.20496076	-161.5913447
6.35	635	0.999	0.08	-0.075	-1.0886202	1.718874	0.2291832	-45.92831328	83.20496076	-161.7173955
6.36	636	1	0.078	-0.077	-0.9167328	1.7761698	0.4010706	-46.01998656	83.21641992	-161.7976096
6.37	637	1.001	0.078	-0.074	-0.9167328	1.8334656	0.3437748	-46.11738942	83.23360866	-161.8835533
6.38	638	1	0.076	-0.075	-1.0886202	1.8334656	0.2291832	-46.22052186	83.2507974	-161.9809562
6.39	639	1.003	0.078	-0.074	-0.9740286	1.7761698	0.2291832	-46.31792472	83.26225656	-162.0668999
6.4	640	1.005	0.078	-0.072	-0.859437	1.5469866	0.2291832	-46.4955417	83.26225656	-162.2387873
6.41	641	1.005	0.078	-0.07	-0.6875496	1.2605076	0.1718874	-46.56429666	83.27371572	-162.2960831
6.42	642	1.003	0.078	-0.074	-0.6302538	1.0886202	0.1718874	-46.62732204	83.28517488	-162.3533789
6.43	643	1.004	0.077	-0.075	-0.5156622	0.9167328	0.2291832	-46.6674291	83.29090446	-162.3877564
6.44	644	1.003	0.076	-0.075	-0.3437748	0.859437	0.4010706	-46.70180658	83.30236362	-162.4164043
6.45	645	1.003	0.077	-0.075	-0.5156622	0.7448454	0.286479	-46.7533728	83.28517488	-162.4622409
6.46	646	1.003	0.077	-0.071	-0.286479	0.6875496	0.4010706	-46.77629112	83.29090446	-162.4794296
6.47	647	1.003	0.077	-0.068	-0.2291832	0.572958	0.3437748	-46.78775028	83.30236362	-162.4966184
6.48	648	1.004	0.076	-0.073	-0.2291832	0.572958	0.4010706	-46.80493902	83.3080932	-162.5080775
6.49	649	1.006	0.074	-0.075	-0.1145916	0.6302538	0.2291832	-46.83358692	83.31382278	-162.5309959
6.5	650	1.003	0.073	-0.074	0	0.286479	0.1718874	-46.65024036	83.26225656	-162.3533789
6.51	651	1.001	0.072	-0.074	0	0.1145916	0.1718874	-46.65024036	83.26798614	-162.3533789
6.52	652	1.001	0.073	-0.075	-0.0572958	0.3437748	0	-46.67315868	83.26798614	-162.3762972
6.53	653	1.002	0.076	-0.073	-0.1145916	0.8021412	-0.1145916	-46.73045448	83.27371572	-162.433593
6.54	654	1	0.076	-0.071	-0.0572958	0.8021412	-0.0572958	-46.7820207	83.2794453	-162.4851592
6.55	655	1.001	0.074	-0.074	-0.4583664	0.8021412	0	-46.77056154	83.26798614	-162.4679705
6.56	656	1.004	0.076	-0.077	-0.6302538	1.0313244	-0.1145916	-46.85077566	83.27371572	-162.5367254
6.57	657	1.006	0.077	-0.075	-0.572958	0.8021412	-0.1145916	-46.91380104	83.2794453	-162.5940212
6.58	658	0.999	0.074	-0.073	-0.572958	0.4583664	-0.1145916	-46.9539081	83.2794453	-162.6341283
6.59	659	0.996	0.073	-0.073	-0.8021412	0.2291832	-0.1718874	-46.98828558	83.2794453	-162.6570466
6.6	660	0.998	0.072	-0.076	-0.9167328	0.3437748	-0.1718874	-46.93098978	83.26798614	-162.5940212
6.61	661	0.997	0.073	-0.081	-1.0313244	0.7448454	-0.286479	-47.00547432	83.27371572	-162.6570466
6.62	662	0.998	0.076	-0.081	-0.9167328	0.5156622	-0.3437748	-47.0684997	83.27371572	-162.7143424
6.63	663	0.999	0.077	-0.072	-0.859437	0.286479	-0.3437748	-47.12006592	83.27371572	-162.7487199
6.64	664	1.002	0.081	-0.074	-0.6302538	0.3437748	-0.3437748	-47.16590256	83.27371572	-162.7945565
6.65	665	1.003	0.082	-0.073	-0.4583664	0.5156622	-0.4010706	-47.3549787	83.24506782	-162.9779031
6.66	666	1.004	0.081	-0.071	-0.1718874	0.572958	-0.286479	-47.4122745	83.24506782	-163.0294693
6.67	667	1.003	0.08	-0.073	-0.0572958	0.4583664	-0.1145916	-47.45238156	83.24506782	-163.0695764
6.68	668	1.002	0.078	-0.074	-0.1145916	0.4583664	0	-47.48102946	83.2507974	-163.0982243
6.69	669	1	0.078	-0.073	-0.2291832	0.4583664	-0.0572958	-47.52113652	83.2507974	-163.1326018
6.7	670	0.999	0.079	-0.077	-0.286479	0.6875496	-0.0572958	-47.54978442	83.2221495	-163.1612497
6.71	671	0.998	0.078	-0.077	-0.286479	0.8021412	-0.0572958	-47.60708022	83.2221495	-163.2185455
6.72	672	0.995	0.077	-0.078	-0.3437748	0.4583664	0	-47.63572812	83.22787908	-163.2414638
6.73	673	0.996	0.078	-0.084	-0.2291832	0.4010706	0.1145916	-47.65864644	83.23360866	-163.2643821
6.74	674	0.997	0.078	-0.083	0	0.3437748	0.0572958	-47.67583518	83.23360866	-163.2815708
6.75	675	0.996	0.077	-0.078	0.1145916	0.286479	0.1145916	-47.49248862	83.17631286	-163.0982243
6.76	676	0.995	0.076	-0.078	0.3437748	0.2291832	0.1718874	-47.49248862	83.18204244	-163.1039539
6.77	677	0.998	0.075	-0.074	0.3437748	0.572958	0.286479	-47.50967736	83.18777202	-163.1211426
6.78	678	0.999	0.074	-0.072	0.0572958	0.572958	0.286479	-47.5268661	83.1935016	-163.1440609
6.79	679	1	0.075	-0.078	0.1145916	0.3437748	0.4010706	-47.5268661	83.19923118	-163.1440609
6.8	680	0.999	0.075	-0.075	0.2291832	0.1718874	0.4583664	-47.4695703	83.18204244	-163.0867651
6.81	681	1.001	0.074	-0.07	0.1718874	0.0572958	0.286479	-47.45811114	83.18204244	-163.075306
6.82	682	1.003	0.075	-0.071	0.1145916	0.5156622	0.1718874	-47.47529988	83.18777202	-163.0982243
6.83	683	1.006	0.075	-0.071	-0.0572958	0.9167328	0.0572958	-47.5268661	83.19923118	-163.1440609
6.84	684	1.002	0.075	-0.076	-0.286479	0.9740286	-0.0572958	-47.58989148	83.20496076	-163.2070863
6.85	685	1.001	0.076	-0.077	-0.4583664	0.6875496	0.0572958	-47.46384072	83.17631286	-163.075306
6.86	686	0.998	0.078	-0.074	-0.4583664	0.3437748	0.0572958	-47.48675904	83.18204244	-163.0924947
6.87	687	0.998	0.077	-0.075	-0.286479	0.4583664	0.0572958	-47.50967736	83.18777202	-163.1211426
6.88	688	0.998	0.076	-0.075	-0.0572958	0.572958	0	-47.54978442	83.18777202	-163.1555201
6.89	689	0.998	0.074	-0.074	0	0.6875496	-0.0572958	-47.60135064	83.1935016	-163.2070863
6.9	690	1	0.074	-0.071	0	0.5156622	-0.1145916	-47.62426896	83.18777202	-163.2300046
6.91	691	1.003	0.076	-0.07	0.0572958	0.286479	-0.0572958	-47.64718728	83.1935016	-163.2529229
6.92	692	1.002	0.078	-0.067	0	0.2291832	-0.1145916	-47.67583518	83.1935016	-163.2815708
6.93	693	1	0.078	-0.065	0	0.1145916	-0.1145916	-47.68729434	83.1935016	-163.2987596
6.94	694	1.001	0.078	-0.07	0	0.2291832	-0.1145916	-47.71594224	83.1935016	-163.3216779
6.95	695	1.002	0.079	-0.071	0	0.4010706	-0.1718874	-47.95085502	83.14766496	-163.5565907
6.96	696	1.002	0.078	-0.071	0	0.2291832	0	-47.96804376	83.15339454	-163.5737794
6.97	697	1.003	0.077	-0.07	0	0.1718874	-0.1145916	-47.9852325	83.15339454	-163.5909682
6.98	698	1.003	0.078	-0.07	-0.1145916	0.3437748	-0.1145916	-48.0138804	83.15339454	-163.6196161
6.99	699	1.004	0.078	-0.075	-0.0572958	0.4010706	-0.0572958	-48.0425283	83.15339454	-163.648264
7	700	1.003	0.079	-0.077	0.0572958	0.1145916	-0.0572958	-47.91074796	83.06172126	-163.5164836
7.01	701	1.002	0.08	-0.076	0.2291832	0	0	-47.91074796	83.06172126	-163.5164836
7.02	702	0.999	0.081	-0.074	0.286479	-0.2291832	0	-47.89355922	83.06172126	-163.5050245
7.03	703	0.998	0.079	-0.075	0.572958	-0.2291832	0.1145916	-47.86491132	83.05599168	-163.4821061
7.04	704	0.997	0.078	-0.074	0.7448454	-0.1718874	0.0572958	-47.841993	83.05599168	-163.4649174
7.05	705	0.996	0.077	-0.072	0.6875496	-0.0572958	0	-47.7846972	83.04453252	-163.4190808
7.06	706	0.997	0.076	-0.072	0.8021412	0	0.0572958	-47.76750846	83.0502621	-163.4133512
7.07	707	1	0.077	-0.071	0.8021412	0.3437748	0.0572958	-47.77896762	83.0502621	-163.4305399
7.08	708	1.002	0.076	-0.071	0.8021412	0.5156622	0	-47.80188594	83.05599168	-163.4591878
7.09	709	1.002	0.075	-0.072	0.7448454	0.6302538	0.0572958	-47.83053384	83.06172126	-163.4992949
7.1	710	1	0.076	-0.073	0.286479	0.6302538	0.0572958	-47.8706409	83.0502621	-163.5451315
7.11	711	1	0.08	-0.073	0.1718874	0.7448454	0.1718874	-47.90501838	83.06172126	-163.579509
7.12	712	0.997	0.078	-0.074	0.1718874	0.7448454	0.1718874	-47.93939586	83.06745084	-163.6138865
7.13	713	0.995	0.076	-0.077	0.1145916	0.6875496	0.2291832	-47.96231418	83.07318042	-163.6425344
7.14	714	0.994	0.074	-0.077	0.0572958	0.6302538	0.3437748	-47.97950292	83.07891	-163.6597231
7.15	715	0.993	0.075	-0.073	0.0572958	0.4583664	0.4010706	-47.97377334	83.08463958	-163.648264
7.16	716	0.994	0.075	-0.07	-0.0572958	0.2291832	0.286479	-47.96804376	83.09036916	-163.648264
7.17	717	0.997	0.076	-0.069	-0.1145916	0.2291832	0.286479	-47.96804376	83.09609874	-163.6425344
7.18	718	1.001	0.078	-0.066	0.0572958	0.1718874	0.1718874	-47.96804376	83.09609874	-163.648264
7.19	719	1.004	0.078	-0.064	0.286479	0.0572958	0.2291832	-47.9565846	83.09609874	-163.6368048
7.2	720	1.006	0.077	-0.065	0.2291832	0.1718874	0.1718874	-48.22587486	83.11328748	-163.9060951
7.21	721	1.006	0.076	-0.064	0.1145916	0.2291832	0.1145916	-48.23160444	83.11901706	-163.9175542
7.22	722	1.004	0.077	-0.065	0.1718874	0.1145916	0	-48.23733402	83.11901706	-163.9232838
7.23	723	1.004	0.076	-0.066	0.0572958	0.4010706	-0.0572958	-48.26598192	83.11901706	-163.9519317
7.24	724	1.002	0.077	-0.064	0	0.4010706	0	-48.29462982	83.12474664	-163.9805796
7.25	725	1.002	0.077	-0.066	0	0.1145916	0	-48.91342446	83.12474664	-164.5936447
7.26	726	1.001	0.076	-0.065	0	-0.1718874	0.0572958	-48.89623572	83.12474664	-164.5764559
7.27	727	1.001	0.076	-0.065	-0.1145916	-0.286479	0.0572958	-48.8733174	83.12474664	-164.5535376
7.28	728	1.003	0.074	-0.065	-0.1145916	-0.4010706	0.0572958	-48.8446695	83.12474664	-164.5191601
7.29	729	1.003	0.073	-0.063	-0.2291832	-0.4010706	-0.0572958	-48.82748076	83.11901706	-164.5019714
7.3	730	1.004	0.073	-0.062	-0.3437748	-0.1718874	-0.1718874	-48.85612866	83.12474664	-164.5248897
7.31	731	1.004	0.072	-0.065	-0.6875496	-0.1145916	-0.286479	-48.8733174	83.12474664	-164.5363489
7.32	732	1.006	0.075	-0.067	-0.9740286	0	-0.4010706	-48.90769488	83.11901706	-164.5592672
7.33	733	1.006	0.078	-0.066	-1.0313244	0	-0.6875496	-48.95353152	83.11328748	-164.5936447
7.34	734	1.005	0.078	-0.069	-0.9740286	0	-0.8021412	-49.01082732	83.1075579	-164.6394813
7.35	735	1.002	0.078	-0.069	-0.8021412	0	-0.7448454	-49.05093438	83.10182832	-164.6738588
7.36	736	0.999	0.076	-0.068	-0.6875496	-0.0572958	-0.7448454	-49.09104144	83.09609874	-164.7082363
7.37	737	0.999	0.077	-0.069	-0.6875496	-0.0572958	-0.572958	-49.12541892	83.09036916	-164.7311546
7.38	738	0.999	0.079	-0.068	-0.572958	0	-0.4010706	-49.15406682	83.08463958	-164.7598025
7.39	739	0.997	0.08	-0.065	-0.859437	-0.286479	-0.286479	-49.16552598	83.07891	-164.7598025
7.4	740	1	0.081	-0.069	-0.6302538	-0.286479	-0.0572958	-49.17698514	83.05599168	-164.7598025
7.41	741	1.003	0.082	-0.068	-0.1145916	-0.1718874	0.1718874	-49.15406682	83.06172126	-164.7426137
7.42	742	1.004	0.081	-0.067	0.2291832	-0.4583664	0.1718874	-49.11395976	83.05599168	-164.7025067
7.43	743	1.003	0.078	-0.066	0.572958	-0.6875496	0.2291832	-49.05093438	83.05599168	-164.6452109
7.44	744	1.002	0.076	-0.063	0.6875496	-0.4583664	0.1718874	-49.00509774	83.0502621	-164.6051038
7.45	745	1.002	0.076	-0.061	0.6302538	-0.286479	0.1145916	-49.05093438	83.06172126	-164.65667
7.46	746	1.003	0.076	-0.064	0.572958	-0.4010706	0	-49.02228648	83.06172126	-164.6337517
7.47	747	1.002	0.075	-0.067	0.5156622	-0.4010706	0	-48.987909	83.05599168	-164.6051038
7.48	748	1.003	0.077	-0.068	0.286479	-0.4010706	0.0572958	-48.95353152	83.05599168	-164.5764559
7.49	749	1.001	0.078	-0.065	0.0572958	-0.5156622	0.1718874	-48.91342446	83.05599168	-164.5306193
7.5	750	1.001	0.079	-0.061	0.0572958	-0.572958	0.1145916	-49.09104144	83.06745084	-164.7082363
7.51	751	1.001	0.079	-0.061	0.2291832	-0.3437748	0.1145916	-49.05666396	83.06745084	-164.6795884
7.52	752	1.003	0.074	-0.062	0	0.1718874	0	-49.0738527	83.06745084	-164.6967771
7.53	753	1.003	0.073	-0.061	-0.4010706	0.5156622	0.0572958	-49.10823018	83.07318042	-164.725425
7.54	754	1.003	0.075	-0.061	-0.4583664	0.6302538	-0.0572958	-49.15406682	83.07891	-164.7712616
7.55	755	1.002	0.076	-0.062	-0.286479	0.6302538	-0.1718874	-49.26292884	83.08463958	-164.8743941
7.56	756	1.002	0.077	-0.064	-0.3437748	1.0313244	-0.3437748	-49.34887254	83.09036916	-164.9546082
7.57	757	1.003	0.078	-0.066	-0.5156622	1.2032118	-0.2291832	-49.44054582	83.09609874	-165.0405519
7.58	758	1	0.08	-0.065	-0.2291832	0.7448454	0	-49.49211204	83.10182832	-165.0863885
7.59	759	1.003	0.082	-0.067	0.1718874	0.7448454	0.0572958	-49.5322191	83.1075579	-165.1322252
7.6	760	1.003	0.08	-0.063	0.4010706	0.859437	0	-49.6754586	83.11328748	-165.2754647
7.61	761	1.002	0.076	-0.064	0.5156622	0.5156622	-0.1145916	-49.70983608	83.11901706	-165.3213013
7.62	762	0.997	0.071	-0.064	0.6302538	0.286479	-0.2291832	-49.73848398	83.11901706	-165.3556788
7.63	763	0.995	0.072	-0.068	0.3437748	0	-0.3437748	-49.75567272	83.11328748	-165.3728675
7.64	764	1	0.077	-0.064	0.286479	0.1145916	-0.6302538	-49.79577978	83.11328748	-165.4187042
7.65	765	1.002	0.08	-0.063	0.286479	0.4010706	-0.7448454	-49.91037138	83.1075579	-165.5390254
7.66	766	1	0.081	-0.063	0.286479	0.4010706	-0.859437	-49.97912634	83.10182832	-165.6135099
7.67	767	0.999	0.081	-0.063	0.286479	0.3437748	-0.572958	-50.03069256	83.10182832	-165.6650761
7.68	768	0.998	0.081	-0.064	0.4010706	0.286479	-0.3437748	-50.07079962	83.10182832	-165.7051832
7.69	769	1.002	0.084	-0.063	0.5156622	0	-0.1718874	-50.0765292	83.10182832	-165.7223719
