TimeStamp(s)	FrameCounter	AccX	AccY	AccZ	GyrX	GyrY	GyrZ	EulerX	EulerY	EulerZ
0.01	1	-0.036	-1.01	0.051	-4.583664	0.3437748	1.432395	92.3608296	0.10313244	-19.97904546
0.02	2	-0.053	-1.013	0.046	-7.9641162	2.3491278	2.005353	92.28061548	0.08021412	-19.96185672
0.03	3	-0.054	-1.015	0.044	-8.4797784	4.1825934	2.5210152	92.1889422	0.05156622	-19.92174966
0.04	4	-0.052	-1.02	0.037	-9.0527364	4.9847346	3.3231564	92.09726892	0.01145916	-19.87018344
0.05	5	-0.046	-1.023	0.029	-9.3392154	4.7555514	4.3544808	91.99413648	-0.03437748	-19.8243468
0.06	6	-0.042	-1.023	0.023	-8.9954406	4.0680018	5.3858052	91.9024632	-0.09167328	-19.78423974
0.07	7	-0.04	-1.017	0.021	-8.8235532	3.3231564	6.2452422	91.8165195	-0.16042824	-19.75559184
0.08	8	-0.04	-1.01	0.024	-9.2819196	2.5210152	6.8182002	91.71911664	-0.2291832	-19.73267352
0.09	9	-0.044	-1.002	0.024	-9.6256944	1.432395	7.1046792	91.62171378	-0.30366774	-19.72694394
0.1	10	-0.047	-0.998	0.018	-9.8548776	-0.1145916	7.3911582	91.51858134	-0.38388186	-19.72694394
0.11	11	-0.047	-0.999	0.013	-9.9121734	-1.6042824	7.734933	91.4154489	-0.46409598	-19.74413268
0.12	12	-0.047	-1.001	0.009	-9.9121734	-2.86479	7.8495246	91.31231646	-0.53858052	-19.77851016
0.13	13	-0.051	-1.003	0.007	-9.7975818	-3.8388186	7.734933	91.2149136	-0.61306506	-19.81861722
0.14	14	-0.06	-1.002	0.009	-9.3392154	-4.6409598	7.2765666	91.12324032	-0.6875496	-19.86445386
0.15	15	-0.071	-0.999	0.011	-8.6516658	-5.6149884	6.6463128	91.03156704	-0.76203414	-19.92174966
0.16	16	-0.077	-0.997	0.014	-8.4224826	-6.6463128	6.0733548	90.94562334	-0.81932994	-19.98477504
0.17	17	-0.081	-0.999	0.02	-8.1932994	-8.1932994	5.72958	90.86540922	-0.87662574	-20.07071874
0.18	18	-0.081	-1.001	0.025	-8.1360036	-9.8548776	5.72958	90.7851951	-0.92819196	-20.1681216
0.19	19	-0.079	-1.002	0.025	-8.021412	-11.8029348	5.5576926	90.71071056	-0.97975818	-20.28844278
0.2	20	-0.077	-1.001	0.023	-7.5057498	-13.9228794	5.0993262	90.63622602	-1.03705398	-20.4259527
0.21	21	-0.074	-0.995	0.023	-6.589017	-15.8709366	4.4117766	90.57320064	-1.07143146	-20.58065136
0.22	22	-0.072	-0.988	0.026	-5.443101	-17.8762896	3.437748	90.52163442	-1.10007936	-20.75826834
0.23	23	-0.07	-0.976	0.031	-4.3544808	-20.05353	2.2345362	90.48725694	-1.1172681	-20.95880364
0.24	24	-0.067	-0.969	0.038	-3.151269	-22.5172494	1.145916	90.45860904	-1.12299768	-21.18225726
0.25	25	-0.067	-0.965	0.043	-2.6929026	-24.1215318	0.572958	90.4414203	-1.12872726	-21.41717004
0.26	26	-0.069	-0.961	0.046	-2.2345362	-25.6685184	0.2291832	90.42996114	-1.12299768	-21.67500114
0.27	27	-0.072	-0.961	0.05	-1.6042824	-27.0436176	0.1718874	90.41850198	-1.11153852	-21.93856182
0.28	28	-0.079	-0.967	0.053	-1.2032118	-28.3041252	0.3437748	90.41850198	-1.10580894	-22.21931124
0.29	29	-0.084	-0.973	0.053	-0.6875496	-29.3927454	0.3437748	90.41850198	-1.10007936	-22.51151982
0.3	30	-0.089	-0.979	0.051	0.0572958	-30.653253	0.1718874	90.43569072	-1.10007936	-22.80945798
0.31	31	-0.092	-0.988	0.052	0.9167328	-31.9137606	-0.286479	90.45287946	-1.0886202	-23.12458488
0.32	32	-0.092	-1.003	0.049	1.3178034	-33.518043	-1.0886202	90.47579778	-1.06570188	-23.45690052
0.33	33	-0.09	-1.012	0.039	0.9740286	-35.1796212	-1.8334656	90.4987161	-1.0313244	-23.8064049
0.34	34	-0.084	-1.018	0.031	0.2291832	-37.24227	-2.7501984	90.51590484	-0.99121734	-24.17309802
0.35	35	-0.072	-1.021	0.026	-0.4010706	-38.8465524	-4.0680018	90.52163442	-0.9453807	-24.55697988
0.36	36	-0.054	-1.024	0.037	-0.9740286	-40.3362432	-5.8441716	90.52163442	-0.87089616	-24.9523209
0.37	37	-0.044	-1.033	0.045	-2.005353	-41.6540466	-8.0787078	90.51017526	-0.7734933	-25.36485066
0.38	38	-0.043	-1.046	0.037	-2.86479	-42.4561878	-10.2559482	90.49298652	-0.6589017	-25.78311
0.39	39	-0.039	-1.054	0.009	-2.8074942	-41.4821592	-12.0894138	90.47579778	-0.52139178	-26.18991018
0.4	40	-0.038	-1.049	-0.016	-3.2085648	-36.5547204	-14.037471	90.44714988	-0.3724227	-26.55087372
0.41	41	-0.035	-1.039	-0.03	-4.8128472	-30.1375908	-15.2979786	90.40131324	-0.21199446	-26.84881188
0.42	42	-0.035	-1.018	-0.047	-7.3911582	-22.9756158	-15.469866	90.3268287	-0.04583664	-27.07799508
0.43	43	-0.029	-0.974	-0.063	-10.7143146	-15.8709366	-14.4958374	90.22369626	0.09167328	-27.23269374
0.44	44	-0.019	-0.921	-0.067	-13.0634424	-9.3965112	-12.4331886	90.09191592	0.21772404	-27.32436702
0.45	45	-0.013	-0.882	-0.068	-13.9801752	-5.156622	-9.3392154	89.93721726	0.30939732	-27.38166282
0.46	46	-0.015	-0.859	-0.064	-15.183387	-3.0939732	-5.72958	89.7825186	0.36669312	-27.41031072
0.47	47	-0.019	-0.877	-0.053	-15.0687954	-1.8907614	-1.5469866	89.62781994	0.38388186	-27.43322904
0.48	48	-0.036	-0.936	-0.022	-12.0894138	-0.6302538	2.5210152	89.50749876	0.35523396	-27.43895862
0.49	49	-0.037	-1.01	0.017	-6.016059	0.859437	5.443101	89.44447338	0.30366774	-27.43322904
0.5	50	-0.028	-1.082	0.062	0.6875496	2.0626488	6.589017	89.4673917	0.2291832	-27.41031072
0.51	51	-0.005	-1.125	0.104	4.9274388	2.005353	5.3858052	89.51322834	0.17761698	-27.3873924
0.52	52	0.038	-1.128	0.14	6.016059	1.145916	2.4064236	89.57625372	0.15469866	-27.37593324
0.53	53	0.092	-1.109	0.157	5.6149884	-1.5469866	-1.2032118	89.63354952	0.16615782	-27.3873924
0.54	54	0.152	-1.085	0.145	3.9534102	-5.3285094	-4.6982556	89.67365658	0.21199446	-27.43895862
0.55	55	0.202	-1.075	0.13	1.3750992	-9.0527364	-7.734933	89.70230448	0.33231564	-27.54209106
0.56	56	0.204	-1.071	0.103	-3.0366774	-14.0947668	-10.5424272	89.67365658	0.43544808	-27.68533056
0.57	57	0.179	-1.079	0.074	-6.2452422	-17.8189938	-13.1207382	89.6106312	0.572958	-27.86294754
0.58	58	0.124	-1.092	0.051	-9.2819196	-21.0848544	-15.8709366	89.51895792	0.73338624	-28.074942
0.59	59	0.063	-1.09	0.04	-10.886202	-22.7464326	-17.9335854	89.40436632	0.9167328	-28.29839562
0.6	60	0.013	-1.066	0.039	-11.0007936	-23.0329116	-19.0222056	89.2955043	1.10580894	-28.52757882
0.61	61	-0.024	-1.03	0.04	-10.313244	-23.0329116	-18.907614	89.18664228	1.29488508	-28.7624916
0.62	62	-0.039	-0.982	0.041	-9.6256944	-22.2880662	-18.3919518	89.08923942	1.47823164	-28.98594522
0.63	63	-0.029	-0.941	0.05	-8.5370742	-21.772404	-17.761698	88.99756614	1.65584862	-29.20366926
0.64	64	0.002	-0.917	0.054	-7.3338624	-20.7410796	-17.2460358	88.91735202	1.8334656	-29.41566372
0.65	65	0.037	-0.906	0.057	-7.448454	-19.767051	-17.0741484	88.84286748	2.005353	-29.61046944
0.66	66	0.073	-0.908	0.048	-7.6203414	-18.4492476	-17.0168526	88.76265336	2.17151082	-29.79954558
0.67	67	0.103	-0.917	0.05	-7.5630456	-17.4179232	-16.7876694	88.67670966	2.34339822	-29.97716256
0.68	68	0.119	-0.924	0.065	-8.1360036	-17.3033316	-16.329303	88.59076596	2.50382646	-30.15477954
0.69	69	0.118	-0.935	0.077	-8.880849	-17.6471064	-15.2406828	88.4933631	2.65279554	-30.33239652
0.7	70	0.102	-0.952	0.077	-9.5111028	-17.6471064	-13.6936962	88.39596024	2.79603504	-30.5100135
0.71	71	0.081	-0.964	0.081	-9.167328	-17.1314442	-11.745639	88.29855738	2.91635622	-30.68763048
0.72	72	0.057	-0.973	0.103	-7.9068204	-15.6417534	-9.5111028	88.21261368	3.0080295	-30.84232914
0.73	73	0.043	-0.976	0.118	-8.0787078	-14.5531332	-7.8495246	88.1209404	3.08251404	-30.99129822
0.74	74	0.035	-0.976	0.125	-9.3965112	-13.2926256	-6.1306506	88.02353754	3.14553942	-31.12880814
0.75	75	0.036	-0.975	0.12	-10.5424272	-12.7769634	-4.6409598	87.93186426	3.18564648	-31.2548589
0.76	76	0.042	-0.977	0.129	-11.2299768	-13.1207382	-3.151269	87.81154308	3.21429438	-31.38663924
0.77	77	0.057	-0.975	0.125	-13.2926256	-14.037471	-1.9480572	87.66830358	3.23148312	-31.52414916
0.78	78	0.074	-0.968	0.121	-13.5791046	-15.0687954	-1.145916	87.52506408	3.2372127	-31.67884782
0.79	79	0.087	-0.97	0.123	-13.9801752	-16.5011904	-0.5156622	87.376095	3.24294228	-31.84500564
0.8	80	0.1	-0.975	0.123	-13.5218088	-18.6784308	-0.286479	87.25004424	3.24867186	-32.0283522
0.81	81	0.106	-0.982	0.12	-12.8342592	-20.5118964	-0.3437748	87.11253432	3.24294228	-32.23461708
0.82	82	0.105	-0.99	0.123	-12.891555	-22.8610242	-0.3437748	86.96929482	3.24294228	-32.46380028
0.83	83	0.095	-0.99	0.135	-12.2040054	-24.1215318	-0.1718874	86.83751448	3.2372127	-32.70444264
0.84	84	0.075	-0.988	0.157	-9.9694692	-24.6944898	0	86.72292288	3.22575354	-32.95081458
0.85	85	0.051	-0.995	0.167	-8.2505952	-25.4393352	0.0572958	86.65416792	3.21429438	-33.19718652
0.86	86	0.033	-0.999	0.167	-7.161975	-25.8977016	-0.3437748	86.5739538	3.21429438	-33.45501762
0.87	87	0.014	-0.998	0.161	-6.6463128	-26.1268848	-0.859437	86.49373968	3.21429438	-33.7185783
0.88	88	0.016	-0.989	0.135	-4.9274388	-25.210152	-1.8334656	86.4307143	3.22002396	-33.97067982
0.89	89	0.03	-0.992	0.142	-2.578311	-22.5172494	-3.6096354	86.39633682	3.24867186	-34.19413344
0.9	90	0.045	-1.009	0.149	-0.859437	-18.7930224	-6.016059	86.41352556	3.30023808	-34.37748
0.91	91	0.048	-1.042	0.151	0.4583664	-15.4125702	-8.5370742	86.41352556	3.3804522	-34.53790824
0.92	92	0.033	-1.088	0.189	2.0626488	-14.8396122	-10.4278356	86.42498472	3.47785506	-34.6926069
0.93	93	0.019	-1.136	0.218	2.2345362	-15.3552744	-11.1153852	86.44217346	3.58671708	-34.84730556
0.94	94	0.011	-1.199	0.153	-1.6615782	-13.464513	-11.2872726	86.41352556	3.68984952	-34.99054506
0.95	95	0	-1.29	0.023	-6.1306506	-9.5111028	-12.891555	86.35050018	3.8101707	-35.08794792
0.96	96	-0.056	-1.416	-0.074	-9.453807	-2.0626488	-18.621135	86.25309732	3.99351726	-35.1223254
0.97	97	-0.131	-1.524	-0.097	-10.9434978	8.3651868	-26.4706596	86.1442353	4.25707794	-35.05930002
0.98	98	-0.203	-1.586	-0.048	-12.2040054	22.9756158	-35.1796212	86.0296437	4.61804148	-34.85303514
0.99	99	-0.223	-1.511	0.031	-12.318597	37.3568616	-40.4508348	85.93224084	5.03057124	-34.51498992
1	100	-0.127	-1.349	-0.003	-5.443101	46.123119	-38.1590028	85.90932252	5.42018268	-34.07954184
1.01	101	0.039	-1.19	-0.025	7.2192708	43.9458786	-29.7365202	86.01818454	5.73530958	-33.6612825
1.02	102	0.196	-1.072	0.003	15.9282324	31.9710564	-18.6784308	86.2015311	5.93584488	-33.35761476
1.03	103	0.337	-0.998	-0.011	16.1001198	15.8709366	-3.437748	86.37914808	5.97595194	-33.19718652
1.04	104	0.422	-0.952	-0.096	13.9801752	-3.0939732	8.307891	86.52238758	5.89573782	-33.22010484
1.05	105	0.437	-0.948	-0.165	16.8449652	-17.1314442	13.6936962	86.66562708	5.79260538	-33.39772182
1.06	106	0.408	-0.95	-0.233	13.750992	-27.5592798	13.5218088	86.78021868	5.64936588	-33.6612825
1.07	107	0.302	-0.912	-0.281	8.9381448	-33.9764094	9.2246238	86.84324406	5.54623344	-33.99359814
1.08	108	0.156	-0.87	-0.28	6.0733548	-36.8411994	2.005353	86.87762154	5.51758554	-34.35456168
1.09	109	0.026	-0.855	-0.257	4.9274388	-36.7839036	-7.1046792	86.89481028	5.58061092	-34.72698438
1.1	110	-0.046	-0.862	-0.219	2.8074942	-34.2055926	-16.1001198	86.88335112	5.71812084	-35.07075918
1.11	111	-0.065	-0.887	-0.195	-0.8021412	-28.7051958	-25.2674478	86.84324406	5.9587632	-35.36869734
1.12	112	-0.056	-0.926	-0.194	-3.0939732	-21.4286292	-29.507337	86.79167784	6.2452422	-35.59788054
1.13	113	-0.056	-0.965	-0.185	-1.5469866	-16.1574156	-28.074942	86.75730036	6.52026204	-35.77549752
1.14	114	-0.046	-1.008	-0.184	-0.0572958	-12.318597	-21.6005166	86.74011162	6.7322565	-35.90727786
1.15	115	-0.022	-1.031	-0.176	2.0626488	-9.5111028	-11.6310474	86.72292288	6.81247062	-36.00468072
1.16	116	0.006	-1.032	-0.159	3.8388186	-7.1046792	-0.859437	86.75157078	6.8182002	-36.07916526
1.17	117	0.028	-1.003	-0.139	5.156622	-4.5263682	8.6516658	86.803137	6.7322565	-36.11927232
1.18	118	0.03	-0.963	-0.117	6.589017	-2.9220858	16.042824	86.86616238	6.57182826	-36.13646106
1.19	119	0.021	-0.938	-0.108	7.0473834	-2.6356068	21.8869956	86.93491734	6.35410422	-36.1536498
1.2	120	0.006	-0.934	-0.147	6.2452422	-5.0420304	25.2674478	86.98075398	6.09054354	-36.18802728
1.21	121	0.008	-0.931	-0.146	5.443101	-7.8495246	26.2987722	87.0323202	5.82698286	-36.25105266
1.22	122	0.026	-0.907	-0.108	5.8441716	-8.5370742	24.0069402	87.08388642	5.5863405	-36.3255372
1.23	123	0.046	-0.867	-0.07	6.7609044	-6.8182002	19.194093	87.15264138	5.39726436	-36.382833
1.24	124	0.056	-0.827	-0.043	6.302538	-4.2398892	12.7769634	87.21566676	5.2712136	-36.41721048
1.25	125	0.056	-0.794	-0.028	6.9900876	-1.9480572	6.589017	87.28442172	5.19672906	-36.43439922
1.26	126	0.039	-0.789	-0.015	8.880849	-0.859437	2.6356068	87.37036542	5.17381074	-36.4401288
1.27	127	0.027	-0.802	-0.01	8.880849	-0.6302538	1.3750992	87.4620387	5.16235158	-36.44585838
1.28	128	0.01	-0.82	-0.018	8.307891	-1.3750992	2.0626488	87.5479824	5.13943326	-36.45731754
1.29	129	0	-0.843	-0.027	7.6203414	-2.4064236	2.86479	87.62246694	5.11078536	-36.48023586
1.3	130	-0.021	-0.87	-0.019	5.6722842	-2.6929026	4.3544808	87.67976274	5.03630082	-36.4974246
1.31	131	-0.029	-0.884	-0.003	3.2658606	-2.7501984	5.9014674	87.70841064	4.97900502	-36.52034292
1.32	132	-0.042	-0.892	0.01	1.2032118	-1.5469866	6.7609044	87.7198698	4.91025006	-36.53180208
1.33	133	-0.038	-0.902	0.017	0.0572958	-0.2291832	6.7609044	87.7198698	4.84722468	-36.53753166
1.34	134	-0.028	-0.914	0.038	0.0572958	0.859437	6.1306506	87.72559938	4.7841993	-36.5260725
1.35	135	-0.018	-0.928	0.057	-1.8907614	2.0626488	4.6409598	87.73705854	4.6982556	-36.48596544
1.36	136	0.002	-0.921	0.068	-4.3544808	3.4950438	2.578311	87.69695148	4.67533728	-36.45158796
1.37	137	0.016	-0.918	0.081	-4.583664	4.297185	0.6302538	87.65111484	4.6696077	-36.40575132
1.38	138	0.028	-0.913	0.091	-4.9274388	3.8961144	-1.145916	87.6052782	4.68106686	-36.37137384
1.39	139	0.029	-0.917	0.102	-4.8128472	2.7501984	-2.291832	87.55371198	4.70398518	-36.34272594
1.4	140	0.032	-0.905	0.13	-4.583664	2.0626488	-3.2658606	87.56517114	4.72117392	-36.31407804
1.41	141	0.029	-0.881	0.161	-4.1252976	3.0366774	-4.7555514	87.52506408	4.76701056	-36.28543014
1.42	142	0.014	-0.861	0.175	-1.6615782	5.8441716	-6.1306506	87.51360492	4.83003594	-36.22813434
1.43	143	-0.016	-0.84	0.184	2.578311	10.3705398	-6.875496	87.5479824	4.8987909	-36.13073148
1.44	144	-0.057	-0.833	0.201	8.59437	15.2406828	-5.443101	87.64538526	4.9560867	-35.9817624
1.45	145	-0.097	-0.847	0.207	13.2926256	17.18874	-1.3750992	87.82300224	4.94462754	-35.79268626
1.46	146	-0.108	-0.895	0.184	17.0741484	17.0168526	4.3544808	88.01207838	4.90452048	-35.62079886
1.47	147	-0.096	-0.975	0.159	20.340009	16.7303736	10.026765	88.22980242	4.80711762	-35.44891146
1.48	148	-0.064	-1.066	0.157	22.9756158	17.2460358	14.4958374	88.47617436	4.66387812	-35.27129448
1.49	149	-0.037	-1.148	0.16	22.6891368	17.3033316	17.5898106	88.71681672	4.49199072	-35.0936775
1.5	150	-0.025	-1.198	0.161	20.1108258	15.9855282	18.907614	88.94027034	4.297185	-34.92751968
1.51	151	-0.018	-1.203	0.189	18.1054728	14.4958374	18.5638392	89.13507606	4.11383844	-34.7785506
1.52	152	0.003	-1.17	0.254	18.621135	16.1574156	16.2147114	89.33561136	3.94768062	-34.61239278
1.53	153	0.018	-1.15	0.232	16.3865988	19.4232762	12.1467096	89.51322834	3.82735944	-34.41758706
1.54	154	0.061	-1.184	0.086	10.2559482	19.1367972	7.9068204	89.62781994	3.74141574	-34.22851092
1.55	155	0.07	-1.229	0.055	16.902261	11.0580894	7.2192708	89.8111665	3.67266078	-34.11391932
1.56	156	0.043	-1.289	0.135	28.934379	2.1199446	11.745639	90.10337508	3.55806918	-34.091001
1.57	157	0.074	-1.386	0.001	29.3927454	-0.4583664	20.1108258	90.40131324	3.35753388	-34.091001
1.58	158	0.132	-1.522	-0.24	22.2880662	-2.6929026	31.799169	90.63049644	3.04240698	-34.1196489
1.59	159	0.149	-1.632	-0.367	18.5065434	-12.7196676	48.6441342	90.813843	2.56685184	-34.25142924
1.6	160	0.14	-1.623	-0.376	24.9809688	-24.8090814	61.9940556	91.05448536	1.96524594	-34.50926034
1.61	161	0.13	-1.473	-0.354	33.0023808	-29.4500412	66.463128	91.386801	1.32353298	-34.81292808
1.62	162	0.073	-1.256	-0.359	33.231564	-28.4187168	60.2751816	91.72484622	0.7448454	-35.10513666
1.63	163	-0.01	-1.075	-0.323	24.7517856	-21.199446	44.977203	91.97694774	0.30939732	-35.32859028
1.64	164	-0.094	-0.938	-0.305	19.1367972	-9.1100322	26.356068	92.17748304	0.0572958	-35.42599314
1.65	165	-0.153	-0.883	-0.273	17.8189938	5.7868758	9.8548776	92.3035338	-0.06875496	-35.36869734
1.66	166	-0.2	-0.894	-0.299	15.1260912	19.6524594	-1.718874	92.45250288	-0.06302538	-35.16816204
1.67	167	-0.234	-0.945	-0.291	12.2613012	28.6479	-7.448454	92.57282406	-0.00572958	-34.88168304
1.68	168	-0.239	-1.047	-0.244	12.1467096	31.1116194	-5.2139178	92.69314524	0.01718874	-34.57228572
1.69	169	-0.2	-1.151	-0.203	7.8495246	30.0229992	1.145916	92.76762978	-0.01145916	-34.27434756
1.7	170	-0.114	-1.181	-0.175	2.9220858	27.5592798	9.0527364	92.77335936	-0.12605076	-34.0050573
1.71	171	-0.004	-1.155	-0.15	2.3491278	23.8923486	16.615782	92.79627768	-0.30939732	-33.78160368
1.72	172	0.077	-1.116	-0.118	4.1252976	19.9962342	21.8869956	92.83638474	-0.5443101	-33.59252754
1.73	173	0.117	-1.081	-0.098	7.161975	17.3606274	24.2361234	92.9051397	-0.79641162	-33.4320993
1.74	174	0.136	-1.013	-0.088	6.9327918	15.8709366	23.0329116	92.96816508	-1.03705398	-33.2888598
1.75	175	0.15	-0.952	-0.08	3.9534102	13.6364004	17.0741484	92.97962424	-1.1745639	-33.1742682
1.76	176	0.157	-0.911	-0.082	2.5210152	9.2819196	9.6829902	93.00254256	-1.28342592	-33.0883245
1.77	177	0.173	-0.892	-0.079	2.1772404	4.7555514	2.0626488	93.0197313	-1.30634424	-33.04248786
1.78	178	0.196	-0.877	-0.073	0.0572958	-0.286479	-5.2712136	93.02546088	-1.25477802	-33.04248786
1.79	179	0.208	-0.855	-0.077	-3.3804522	-5.5003968	-11.5164558	92.9910834	-1.13445684	-33.0883245
1.8	180	0.197	-0.843	-0.076	-6.2452422	-10.7143146	-16.042824	92.91086928	-0.93392154	-33.19718652
1.81	181	0.181	-0.83	-0.075	-8.2505952	-15.756345	-18.7357266	92.83065516	-0.73911582	-33.34042602
1.82	182	0.149	-0.825	-0.071	-7.5630456	-20.8556712	-19.480572	92.75617062	-0.52712136	-33.54096132
1.83	183	0.103	-0.82	-0.061	-7.2765666	-25.6685184	-17.9908812	92.68741566	-0.33231564	-33.78160368
1.84	184	0.072	-0.821	-0.065	-7.448454	-29.7365202	-14.5531332	92.6186607	-0.16615782	-34.07381226
1.85	185	0.048	-0.832	-0.069	-8.5370742	-31.799169	-11.6310474	92.52125784	-0.02291832	-34.38320958
1.86	186	0.023	-0.84	-0.065	-9.3392154	-32.0283522	-9.3965112	92.42958456	0.0859437	-34.6926069
1.87	187	0.002	-0.838	-0.066	-8.6516658	-31.3408026	-7.8495246	92.34937044	0.18907614	-35.00200422
1.88	188	-0.006	-0.846	-0.05	-7.161975	-30.1948866	-6.7609044	92.2748859	0.27501984	-35.29994238
1.89	189	-0.002	-0.856	-0.032	-7.0473834	-28.7624916	-5.9587632	92.20613094	0.34950438	-35.5806918
1.9	190	0	-0.864	-0.023	-5.72958	-26.6998428	-5.72958	92.13737598	0.42398892	-35.84425248
1.91	191	0.004	-0.882	0.002	-2.9220858	-24.4080108	-5.2139178	92.10872808	0.49274388	-36.08489484
1.92	192	0.002	-0.9	0.05	-1.718874	-22.5745452	-3.9534102	92.09726892	0.5443101	-36.30261888
1.93	193	0.007	-0.918	0.097	-3.9534102	-20.7410796	-2.2345362	92.05716186	0.57868758	-36.50888376
1.94	194	0.006	-0.934	0.108	-6.4744254	-20.5118964	0.6875496	91.9884069	0.58441716	-36.71514864
1.95	195	0.011	-0.924	0.104	-6.2452422	-21.485925	4.870143	91.93684068	0.55003968	-36.9271431
1.96	196	0.017	-0.893	0.117	-5.72958	-23.7204612	9.6256944	91.87954488	0.46982556	-37.16778546
1.97	197	0.026	-0.856	0.133	-3.9534102	-27.3873924	13.4072172	91.83943782	0.34950438	-37.4428053
1.98	198	0.033	-0.827	0.166	-1.3178034	-30.7105488	15.2406828	91.82797866	0.21772404	-37.75220262
1.99	199	0.046	-0.825	0.179	1.2605076	-31.6845774	15.1260912	91.8451674	0.0859437	-38.06732952
2	200	0.066	-0.852	0.157	1.6615782	-30.366774	13.4072172	91.87954488	-0.01145916	-38.37672684
2.01	201	0.075	-0.889	0.113	2.3491278	-28.3041252	11.4018642	91.90819278	-0.10886202	-38.65747626
2.02	202	0.074	-0.927	0.067	4.0680018	-26.642547	8.7089616	91.95402942	-0.17761698	-38.92103694
2.03	203	0.053	-0.965	0.068	5.3858052	-26.1268848	6.016059	92.01132522	-0.22345362	-39.18459762
2.04	204	0.015	-1	0.073	5.2712136	-28.1895336	4.583664	92.06862102	-0.25210152	-39.46534704
2.05	205	-0.022	-1.021	0.078	6.2452422	-30.9970278	4.3544808	92.14310556	-0.27501984	-39.76901478
2.06	206	-0.036	-1.056	0.086	8.1932994	-31.9137606	3.6669312	92.23477884	-0.29220858	-40.08414168
2.07	207	-0.04	-1.085	0.094	8.4224826	-28.7624916	1.6042824	92.32645212	-0.286479	-40.3648911
2.08	208	-0.048	-1.099	0.14	7.1046792	-24.2361234	-1.4896908	92.40093666	-0.2578311	-40.60553346
2.09	209	-0.052	-1.098	0.186	5.5003968	-22.7464326	-3.151269	92.45823246	-0.20626488	-40.82898708
2.1	210	-0.029	-1.11	0.195	4.4690724	-25.2674478	-3.5523396	92.52698742	-0.15469866	-41.07535902
2.11	211	-0.014	-1.165	0.112	2.1772404	-31.1689152	-4.2398892	92.54990574	-0.09167328	-41.37902676
2.12	212	-0.02	-1.224	0.061	2.5210152	-36.4974246	-6.1306506	92.58428322	-0.00572958	-41.73426072
2.13	213	-0.05	-1.259	0.157	2.4637194	-37.0703826	-8.880849	92.61293112	0.10313244	-42.09522426
2.14	214	-0.087	-1.284	0.157	2.1772404	-30.7105488	-11.8029348	92.63584944	0.24637194	-42.39316242
2.15	215	-0.127	-1.318	0.048	-1.4896908	-22.5172494	-15.9855282	92.6186607	0.41252976	-42.60515688
2.16	216	-0.147	-1.327	-0.071	-1.7761698	-15.8709366	-23.0902074	92.60147196	0.65317212	-42.75412596
2.17	217	-0.136	-1.342	-0.109	6.0733548	-10.7143146	-31.1689152	92.66449734	0.96829902	-42.84006966
2.18	218	-0.104	-1.341	-0.11	11.45916	-3.2658606	-39.3622146	92.77908894	1.36364004	-42.85152882
2.19	219	-0.071	-1.279	-0.156	15.6990492	3.3231564	-45.4355694	92.93951718	1.81627686	-42.79423302
2.2	220	-0.013	-1.176	-0.142	22.91832	5.8441716	-46.2950064	93.15724122	2.26891368	-42.70828932
2.21	221	0.075	-1.042	-0.173	25.0382646	1.2605076	-40.8519054	93.41507232	2.67571386	-42.66818226
2.22	222	0.167	-0.951	-0.198	21.8869956	-8.9381448	-31.9710564	93.63279636	3.00229992	-42.73693722
2.23	223	0.228	-0.919	-0.232	14.1520626	-23.6058696	-24.0069402	93.77030628	3.26013102	-42.94893168
2.24	224	0.235	-0.913	-0.27	8.1360036	-38.7892566	-18.2200644	93.83333166	3.47785506	-43.32135438
2.25	225	0.248	-0.906	-0.281	5.156622	-48.5868384	-14.1520626	93.83333166	3.68984952	-43.79690952
2.26	226	0.263	-0.923	-0.256	2.86479	-55.1185596	-12.891555	93.83333166	3.8674665	-44.33549004
2.27	227	0.25	-0.949	-0.223	0.859437	-59.301153	-15.5844576	93.81041334	4.07946096	-44.90844804
2.28	228	0.201	-0.98	-0.173	-0.8021412	-60.16059	-20.7410796	93.77030628	4.33729206	-45.48713562
2.29	229	0.127	-1.015	-0.126	-0.3437748	-56.6082504	-26.069589	93.73019922	4.64668938	-46.03144572
2.3	230	0.021	-1.056	-0.093	2.4637194	-49.9046418	-28.9916748	93.7072809	4.97327544	-46.50127128
2.31	231	-0.083	-1.105	-0.077	9.453807	-40.3362432	-27.4446882	93.77603586	5.28267276	-46.87942356
2.32	232	-0.165	-1.135	-0.074	15.4125702	-30.8251404	-21.199446	93.9078162	5.52331512	-47.17163214
2.33	233	-0.222	-1.128	-0.072	18.048177	-23.6631654	-12.2613012	94.07397402	5.6722842	-47.39508576
2.34	234	-0.26	-1.081	-0.058	19.1367972	-16.7303736	-2.3491278	94.25732058	5.71239126	-47.555514
2.35	235	-0.275	-1.025	-0.04	18.5638392	-8.7662574	7.0473834	94.41201924	5.58061092	-47.63572812
2.36	236	-0.27	-0.965	-0.027	17.6471064	-1.0313244	14.3812458	94.58963622	5.443101	-47.65291686
2.37	237	-0.254	-0.922	-0.015	17.0168526	5.2139178	19.2513888	94.7672532	5.2425657	-47.61853938
2.38	238	-0.212	-0.91	-0.005	15.5844576	10.4278356	22.7464326	94.93341102	5.00765292	-47.53259568
2.39	239	-0.17	-0.907	0.002	12.2040054	14.610429	25.0955604	95.06519136	4.74409224	-47.40654492
2.4	240	-0.133	-0.906	-0.001	8.4797784	17.4179232	25.6685184	95.15113506	4.44615408	-47.25757584
2.41	241	-0.116	-0.9	0	6.0733548	19.9389384	24.5226024	95.2256196	4.1825934	-47.07995886
2.42	242	-0.098	-0.89	0.012	3.6096354	24.350715	21.8296998	95.27145624	3.93622146	-46.86223482
2.43	243	-0.084	-0.88	0.016	0.572958	29.793816	18.621135	95.29437456	3.71849742	-46.58721498
2.44	244	-0.057	-0.869	0.018	-2.578311	34.663959	15.2406828	95.2829154	3.5236917	-46.26062892
2.45	245	-0.042	-0.87	0.016	-4.1825934	37.0130868	12.5477802	95.24853792	3.34607472	-45.90539496
2.46	246	-0.014	-0.878	0.008	-5.3858052	36.7839036	11.5164558	95.20843086	3.18564648	-45.55589058
2.47	247	0.018	-0.883	0.017	-3.8961144	33.4034514	12.2613012	95.17978296	3.02521824	-45.24076368
2.48	248	0.055	-0.898	0.027	-6.6463128	29.507337	13.178034	95.12248716	2.86479	-44.96001426
2.49	249	0.08	-0.906	0.045	-7.2765666	25.8404058	13.9228794	95.05946178	2.6929026	-44.7193719
2.5	250	0.084	-0.892	0.061	-5.9587632	22.5172494	13.8655836	95.00216598	2.53820394	-44.51310702
2.51	251	0.074	-0.891	0.077	-4.3544808	19.8816426	12.2613012	94.96205892	2.39496444	-44.32976046
2.52	252	0.058	-0.904	0.103	-4.1252976	17.1314442	9.6829902	94.92195186	2.28037284	-44.16933222
2.53	253	0.042	-0.92	0.122	-4.6409598	14.5531332	6.3598338	94.8818448	2.20015872	-44.03755188
2.54	254	0.022	-0.937	0.158	-5.5003968	12.6623718	2.5210152	94.824549	2.16005166	-43.91150112
2.55	255	0.006	-0.961	0.182	-6.6463128	12.5477802	-1.3178034	94.79017152	2.1485925	-43.78545036
2.56	256	-0.004	-0.985	0.189	-9.1100322	13.8655836	-4.2398892	94.69849824	2.17151082	-43.64221086
2.57	257	-0.018	-1.002	0.185	-10.313244	15.5271618	-6.1879464	94.5953658	2.21734746	-43.4875122
2.58	258	-0.016	-1.007	0.175	-11.5737516	17.3033316	-7.3911582	94.48650378	2.27464326	-43.3156248
2.59	259	-0.017	-0.999	0.151	-11.745639	18.9649098	-8.1932994	94.37191218	2.33193906	-43.12081908
2.6	260	-0.017	-0.975	0.132	-11.0007936	20.7983754	-9.3392154	94.26877974	2.39496444	-42.90882462
2.61	261	-0.022	-0.943	0.126	-9.6256944	23.2620948	-10.8289062	94.17710646	2.47517856	-42.67391184
2.62	262	-0.047	-0.914	0.13	-6.8182002	26.642547	-12.1467096	94.11408108	2.57258142	-42.398892
2.63	263	-0.09	-0.908	0.123	-2.5210152	31.5699858	-12.4904844	94.10262192	2.6642547	-42.07803552
2.64	264	-0.132	-0.912	0.118	1.8907614	36.669312	-11.45916	94.13126982	2.73873924	-41.7113424
2.65	265	-0.164	-0.916	0.14	4.0680018	41.6540466	-9.6829902	94.20002478	2.76738714	-41.28735348
2.66	266	-0.175	-0.93	0.169	4.2398892	48.3003594	-7.7922288	94.25732058	2.79603504	-40.80033918
2.67	267	-0.168	-0.948	0.182	3.0939732	56.0352924	-6.1879464	94.3088868	2.80176462	-40.24456992
2.68	268	-0.149	-0.968	0.181	1.8907614	62.2805346	-5.5576926	94.34899386	2.79030546	-39.62577528
2.69	269	-0.132	-0.991	0.189	1.718874	65.9474658	-5.156622	94.3948305	2.7788463	-38.97260316
2.7	270	-0.101	-1.025	0.186	2.0626488	66.749607	-4.8128472	94.44639672	2.74446882	-38.30797188
2.71	271	-0.066	-1.061	0.199	2.3491278	64.9734372	-4.6409598	94.49223336	2.7215505	-37.66625892
2.72	272	-0.004	-1.11	0.198	1.0313244	63.7702254	-5.0993262	94.52088126	2.70436176	-37.03600512
2.73	273	0.071	-1.187	0.104	-3.9534102	64.3431834	-4.9847346	94.50369252	2.68717302	-36.39429216
2.74	274	0.138	-1.301	-0.054	-6.6463128	62.5097178	-3.0939732	94.45785588	2.65279554	-35.7812271
2.75	275	0.205	-1.458	-0.168	-5.2139178	56.6655462	2.9220858	94.41201924	2.56685184	-35.22545784
2.76	276	0.292	-1.667	-0.262	-4.4117766	48.8160216	14.9542038	94.38337134	2.36631654	-34.75563228
2.77	277	0.353	-1.846	-0.345	-0.0572958	33.6899304	32.658606	94.38910092	2.01108258	-34.45196454
2.78	278	0.326	-1.816	-0.225	15.4125702	21.772404	47.6701056	94.54952916	1.5183387	-34.27434756
2.79	279	0.146	-1.585	-0.051	30.7105488	29.3927454	47.6128098	94.86465606	1.01413566	-34.02224604
2.8	280	-0.162	-1.288	0.017	27.8457588	44.117766	35.0077338	95.14540548	0.60733548	-33.61544586
2.81	281	-0.387	-1.027	0.002	21.3140376	59.9887026	18.4492476	95.35739994	0.35523396	-33.03675828
2.82	282	-0.485	-0.881	-0.051	20.2254174	75.057498	5.0993262	95.55793524	0.21772404	-32.30337204
2.83	283	-0.477	-0.833	-0.079	16.1574156	86.4020664	-3.5523396	95.7126339	0.1432395	-31.44966462
2.84	284	-0.385	-0.831	-0.1	9.1100322	96.6580146	-9.0527364	95.79284802	0.1145916	-30.49282476
2.85	285	-0.251	-0.854	-0.123	3.724227	105.7680468	-11.2299768	95.80430718	0.07448454	-29.43858204
2.86	286	-0.088	-0.89	-0.127	-2.6356068	111.3257394	-8.8235532	95.76420012	0.02291832	-28.33850268
2.87	287	0.073	-0.901	-0.109	-10.1986524	112.3570638	-2.005353	95.64387894	-0.09167328	-27.23842332
2.88	288	0.207	-0.894	-0.112	-17.8762896	107.0285544	7.0473834	95.44334364	-0.29793816	-26.19563976
2.89	289	0.284	-0.885	-0.127	-21.6005166	95.1683238	16.5584862	95.20843086	-0.57868758	-25.28463654
2.9	290	0.349	-0.904	-0.138	-20.6837838	79.9849368	24.2934192	94.96205892	-0.88235532	-24.52833198
2.91	291	0.406	-0.925	-0.127	-16.4438946	63.6556338	29.1062664	94.77298278	-1.24331886	-23.92672608
2.92	292	0.422	-0.944	-0.111	-10.4851314	47.8992888	29.1635622	94.6526616	-1.58709366	-23.47981884
2.93	293	0.397	-0.943	-0.094	-6.6463128	33.8618178	22.8037284	94.57244748	-1.85065434	-23.17042152
2.94	294	0.328	-0.951	-0.095	-5.72958	22.8037284	11.5737516	94.50369252	-1.98816426	-22.95269748
2.95	295	0.273	-0.962	-0.098	-4.6982556	14.2093584	-0.8021412	94.37764176	-1.8907614	-22.8323763
2.96	296	0.207	-0.976	-0.1	-3.9534102	7.448454	-11.2299768	94.3375347	-1.78189938	-22.75216218
2.97	297	0.17	-0.995	-0.102	-4.4117766	3.724227	-19.194093	94.28596848	-1.59855282	-22.70059596
2.98	298	0.147	-0.993	-0.107	-4.2398892	1.145916	-24.4653066	94.24586142	-1.35791046	-22.67194806
2.99	299	0.145	-0.978	-0.104	-2.6356068	-0.9167328	-26.8144344	94.21721352	-1.0886202	-22.6604889
3	300	0.149	-0.966	-0.097	-0.8021412	-2.9220858	-26.6998428	94.15991772	-0.77922288	-22.67767764
3.01	301	0.146	-0.96	-0.09	0.8021412	-4.297185	-24.7517856	94.17137688	-0.53285094	-22.70059596
3.02	302	0.127	-0.94	-0.065	2.4637194	-5.7868758	-20.5118964	94.20002478	-0.32085648	-22.7464326
3.03	303	0.092	-0.938	-0.04	2.9793816	-6.7609044	-15.8709366	94.22867268	-0.15469866	-22.79799882
3.04	304	0.059	-0.95	0.011	1.7761698	-8.021412	-12.7196676	94.24586142	-0.02291832	-22.86675378
3.05	305	0.007	-0.95	0.028	0.4010706	-7.2192708	-10.7143146	94.22867268	0.08021412	-22.92977916
3.06	306	-0.04	-0.962	0.035	-0.1718874	-4.010706	-8.9954406	94.22867268	0.1718874	-22.96415664
3.07	307	-0.086	-0.984	0.038	-2.6929026	0.859437	-8.1360036	94.20002478	0.25210152	-22.9469679
3.08	308	-0.088	-1.001	0.034	-5.2712136	5.3858052	-8.0787078	94.14272898	0.32658606	-22.8896721
3.09	309	-0.052	-1.016	0.029	-9.167328	9.8548776	-8.6516658	94.0510557	0.40680018	-22.78653966
3.1	310	0.024	-1.027	0.002	-13.4072172	12.605076	-8.880849	93.89635704	0.4870143	-22.6604889
3.11	311	0.109	-1.021	-0.021	-14.5531332	12.891555	-8.8235532	93.74738796	0.56149884	-22.52870856
3.12	312	0.179	-1.008	-0.034	-15.2979786	10.7716104	-8.307891	93.5926893	0.63598338	-22.41984654
3.13	313	0.216	-0.985	-0.036	-15.9855282	6.8182002	-7.161975	93.42653148	0.69900876	-22.35109158
3.14	314	0.231	-0.963	-0.036	-15.2979786	1.432395	-5.72958	93.27183282	0.75057498	-22.33390284
3.15	315	0.213	-0.951	-0.035	-14.5531332	-4.1252976	-4.6982556	93.09421584	0.86516658	-22.38546906
3.16	316	0.179	-0.944	-0.051	-13.2353298	-9.453807	-4.4690724	92.95670592	0.9167328	-22.47714234
3.17	317	0.153	-0.946	-0.063	-11.45916	-14.7823164	-5.2139178	92.84211432	0.97975818	-22.62038184
3.18	318	0.142	-0.949	-0.071	-11.0580894	-19.8243468	-6.5317212	92.72752272	1.05424272	-22.81518756
3.19	319	0.15	-0.943	-0.073	-11.6310474	-27.3873924	-8.6516658	92.60720154	1.16310474	-23.08447782
3.2	320	0.168	-0.932	-0.076	-11.0580894	-35.4088044	-10.5424272	92.4754212	1.31207382	-23.4339822
3.21	321	0.196	-0.921	-0.068	-10.4278356	-44.0031744	-11.9748222	92.3608296	1.4610429	-23.8637007
3.22	322	0.223	-0.92	-0.062	-10.9434978	-53.1705024	-12.891555	92.246238	1.62720072	-24.38509248
3.23	323	0.246	-0.918	-0.066	-9.9694692	-62.6243094	-13.0634424	92.1316464	1.79335854	-24.99815754
3.24	324	0.267	-0.921	-0.066	-9.0527364	-72.7083702	-12.3758928	92.02851396	1.96524594	-25.71435504
3.25	325	0.274	-0.926	-0.061	-6.9327918	-83.4226848	-11.6310474	91.9311111	2.1485925	-26.53941456
3.26	326	0.282	-0.929	-0.039	-5.0993262	-92.9337876	-10.1986524	91.85662656	2.30902074	-27.45041778
3.27	327	0.263	-0.926	-0.033	-3.9534102	-104.6794266	-8.4224826	91.7878716	2.45226024	-28.48174218
3.28	328	0.231	-0.924	-0.013	-1.0313244	-113.2165008	-6.8182002	91.74203496	2.58404058	-29.59901028
3.29	329	0.197	-0.937	0	1.2605076	-119.748222	-4.7555514	91.71338706	2.69863218	-30.77930376
3.3	330	0.162	-0.948	0.008	2.291832	-125.2486188	-2.578311	91.69619832	2.8074942	-32.01689304
3.31	331	0.136	-0.955	0.015	2.86479	-130.2333534	-0.9167328	91.67900958	2.88770832	-33.30604854
3.32	332	0.119	-0.966	0.035	3.8388186	-134.5878342	0.0572958	91.66755042	2.96219286	-34.6353111
3.33	333	0.109	-0.978	0.038	4.010706	-136.0202292	0.1145916	91.65609126	3.0366774	-35.9817624
3.34	334	0.107	-0.998	0.045	3.4950438	-134.931609	-0.3437748	91.63890252	3.11689152	-37.31102496
3.35	335	0.107	-1.016	0.022	4.1825934	-132.7543686	-0.1145916	91.62171378	3.19710564	-38.62309878
3.36	336	0.103	-1.035	0.023	5.5576926	-130.634424	0.4583664	91.62744336	3.2658606	-39.91798386
3.37	337	0.109	-1.032	0.031	4.0680018	-127.9415214	1.432395	91.61025462	3.3231564	-41.18422104
3.38	338	0.102	-1.018	0.032	6.1306506	-124.904844	2.4064236	91.6159842	3.36899304	-42.41608074
3.39	339	0.101	-0.986	0.047	11.0007936	-121.8108708	2.86479	91.67328	3.4091001	-43.61929254
3.4	340	0.097	-0.958	0.079	15.6417534	-119.461743	2.5210152	91.78214202	3.45493674	-44.79958602
3.41	341	0.095	-0.945	0.102	18.7357266	-117.3417984	1.8334656	91.91965194	3.50650296	-45.95696118
3.42	342	0.105	-0.938	0.072	19.2513888	-115.164558	0.6875496	92.05716186	3.56952834	-47.0971476
3.43	343	0.131	-0.974	0.055	22.2307704	-111.8986974	-1.145916	92.22904926	3.65547204	-48.19722696
3.44	344	0.158	-1.016	0.042	22.5745452	-110.6954856	-1.4896908	92.40666624	3.74714532	-49.29157674
3.45	345	0.153	-1.046	-0.004	21.485925	-112.4716554	-0.286479	92.5613649	3.8388186	-50.40311526
3.46	346	0.105	-1.114	-0.084	17.9908812	-118.1439396	1.3750992	92.6759565	3.90757356	-51.56622
3.47	347	0.027	-1.207	-0.164	11.5737516	-125.8215768	1.8907614	92.72752272	3.98778768	-52.80953886
3.48	348	-0.062	-1.319	-0.17	4.4690724	-128.9728458	-0.5156622	92.69887482	4.08519054	-54.08150562
3.49	349	-0.162	-1.429	-0.142	-0.1718874	-126.2226474	-6.5317212	92.62439028	4.24561878	-55.33055406
3.5	350	-0.246	-1.464	-0.055	-4.1252976	-124.5037734	-13.2926256	92.5040691	4.45761324	-56.5509546
3.51	351	-0.231	-1.359	-0.09	-9.740286	-128.2852962	-15.8136408	92.32072254	4.70398518	-57.81719178
3.52	352	-0.114	-1.213	-0.168	-11.3445684	-136.9942578	-14.2666542	92.10872808	4.93316838	-59.16937266
3.53	353	-0.016	-1.094	-0.135	-10.599723	-144.958374	-9.2246238	91.89673362	5.11651494	-60.60176766
3.54	354	0.055	-1.044	-0.1	-11.8029348	-147.7658682	-1.2032118	91.66182084	5.2139178	-62.06854014
3.55	355	0.072	-1.002	-0.1	-15.8709366	-146.3334732	6.589017	91.38107142	5.22537696	-63.52385346
3.56	356	0.041	-0.954	-0.133	-18.9649098	-142.0362882	10.886202	91.07740368	5.1852699	-64.93333014
3.57	357	-0.027	-0.939	-0.139	-18.048177	-137.9682864	11.2872726	90.79092468	5.1279741	-66.30842934
3.58	358	-0.098	-0.947	-0.138	-17.761698	-134.1294678	9.0527364	90.51017526	5.08786704	-67.64342148
3.59	359	-0.158	-0.954	-0.126	-17.761698	-126.6810138	5.0993262	90.23515542	5.08213746	-68.8981995
3.6	360	-0.205	-0.952	-0.119	-15.9855282	-117.9147564	1.8907614	89.97732432	5.07640788	-70.0727634
3.61	361	-0.233	-0.941	-0.125	-11.8602306	-108.1744704	0.1718874	89.77105944	5.0993262	-71.14419486
3.62	362	-0.245	-0.931	-0.129	-8.021412	-98.6060718	0.2291832	89.61636078	5.11651494	-72.12395304
3.63	363	-0.247	-0.925	-0.124	-4.0680018	-89.4387438	2.2345362	89.50749876	5.11651494	-73.01203794
3.64	364	-0.253	-0.931	-0.107	-0.286479	-80.6724864	5.6722842	89.44447338	5.0706783	-73.81417914
3.65	365	-0.251	-0.943	-0.07	1.5469866	-71.5624542	9.9694692	89.40436632	4.95035712	-74.51891748
3.66	366	-0.227	-0.958	-0.035	1.3750992	-61.7075766	14.32395	89.37571842	4.81857678	-75.13198254
3.67	367	-0.198	-0.972	-0.042	-0.1718874	-50.3630082	18.4492476	89.33561136	4.64668938	-75.630456
3.68	368	-0.172	-0.98	-0.058	-1.432395	-45.6074568	20.7410796	89.2955043	4.44615408	-76.08309282
3.69	369	-0.137	-0.992	-0.072	-1.7761698	-43.6021038	22.1734746	89.24966766	4.23415962	-76.51281132
3.7	370	-0.09	-1.01	-0.079	-2.4637194	-44.117766	22.4026578	89.18664228	3.99924684	-76.9482594
3.71	371	-0.037	-1.02	-0.089	-3.8961144	-46.1804148	21.0848544	89.1236169	3.79298196	-77.40089622
3.72	372	0.007	-1.028	-0.086	-4.9847346	-48.8733174	18.5638392	89.04913236	3.61536498	-77.88218094
3.73	373	0.026	-1.031	-0.077	-6.8182002	-52.0245864	15.5844576	88.95745908	3.4663959	-78.39784314
3.74	374	0.023	-1.016	-0.075	-8.307891	-55.4623344	12.4331886	88.84286748	3.34607472	-78.94788282
3.75	375	0.001	-0.992	-0.069	-8.3651868	-60.7908438	9.167328	88.72827588	3.25440144	-79.54948872
3.76	376	-0.023	-0.968	-0.069	-8.4224826	-63.598338	6.7036086	88.61368428	3.18564648	-80.17974252
3.77	377	-0.056	-0.95	-0.058	-7.9068204	-64.9734372	4.583664	88.50482226	3.14553942	-80.82145548
3.78	378	-0.094	-0.944	-0.047	-6.6463128	-64.2858876	3.0366774	88.41314898	3.11116194	-81.45743886
3.79	379	-0.133	-0.942	-0.037	-5.156622	-62.6816052	2.7501984	88.33293486	3.08251404	-82.08196308
3.8	380	-0.17	-0.946	-0.024	-4.4117766	-60.5616606	3.5523396	88.2641799	3.01948866	-82.6778394
3.81	381	-0.194	-0.951	-0.016	-3.3804522	-57.868758	4.6982556	88.2068841	2.96792244	-83.2507974
3.82	382	-0.206	-0.961	-0.014	-2.6929026	-54.9466722	5.7868758	88.16104746	2.91062664	-83.78937792
3.83	383	-0.207	-0.967	-0.016	-1.8334656	-52.0245864	6.4171296	88.1209404	2.84187168	-84.30504012
3.84	384	-0.192	-0.967	-0.023	-1.4896908	-50.4775998	5.72958	88.0922925	2.78457588	-84.80351358
3.85	385	-0.165	-0.963	-0.033	-1.3178034	-49.2170922	4.1825934	88.05791502	2.70436176	-85.2847983
3.86	386	-0.136	-0.962	-0.038	-1.2032118	-48.3576552	2.005353	88.02926712	2.68144344	-85.76608302
3.87	387	-0.115	-0.963	-0.047	-1.2605076	-47.2117392	-0.286479	88.00061922	2.68144344	-86.230179
3.88	388	-0.106	-0.965	-0.065	-1.432395	-46.6387812	-2.3491278	87.96624174	2.70436176	-86.69427498
3.89	389	-0.099	-0.96	-0.07	-1.2032118	-46.6387812	-4.4690724	87.93759384	2.74446882	-87.15837096
3.9	390	-0.084	-0.954	-0.075	-0.8021412	-46.5241896	-6.4744254	87.90894594	2.78457588	-87.62246694
3.91	391	-0.069	-0.953	-0.066	0.1145916	-45.9512316	-8.9381448	87.8917572	2.87051958	-88.08083334
3.92	392	-0.056	-0.959	-0.068	0.6302538	-44.8053156	-10.8289062	87.88029804	2.97365202	-88.52774058
3.93	393	-0.052	-0.961	-0.069	0.1145916	-43.831287	-12.891555	87.8631093	3.09970278	-88.96891824
3.94	394	-0.057	-0.96	-0.07	-0.3437748	-42.1697088	-15.0114996	87.84019098	3.24294228	-89.38717758
3.95	395	-0.071	-0.963	-0.075	0.4583664	-39.3622146	-16.5584862	87.82300224	3.38618178	-89.7825186
3.96	396	-0.084	-0.97	-0.071	2.6929026	-35.9244666	-17.3606274	87.82873182	3.5523396	-90.14921172
3.97	397	-0.091	-0.988	-0.068	4.870143	-31.3980984	-17.5325148	87.8631093	3.724227	-90.46433862
3.98	398	-0.097	-1.001	-0.064	5.8441716	-26.8144344	-17.5325148	87.90894594	3.8961144	-90.73362888
3.99	399	-0.105	-1.006	-0.074	5.8441716	-21.199446	-16.5584862	87.95478258	4.06227222	-90.95135292
4	400	-0.109	-1.02	-0.088	5.8441716	-18.4492476	-14.4385416	87.98916006	4.16540466	-91.14042906
4.01	401	-0.095	-1.042	-0.093	6.6463128	-16.5584862	-11.3445684	88.04645586	4.27999626	-91.30658688
4.02	402	-0.066	-1.067	-0.091	7.7922288	-15.3552744	-7.5057498	88.11521082	4.3544808	-91.46128554
4.03	403	-0.033	-1.082	-0.094	8.4224826	-14.8396122	-3.4950438	88.18969536	4.38885828	-91.61025462
4.04	404	-0.014	-1.083	-0.095	9.1100322	-15.0114996	0.4010706	88.27563906	4.3831287	-91.75349412
4.05	405	-0.016	-1.065	-0.095	9.5683986	-16.042824	3.6096354	88.33866444	4.3258329	-91.91965194
4.06	406	-0.025	-1.031	-0.097	9.5111028	-17.2460358	5.5003968	88.42460814	4.2685371	-92.08580976
4.07	407	-0.044	-0.998	-0.091	8.3651868	-17.9335854	5.5576926	88.49909268	4.21697088	-92.26342674
4.08	408	-0.059	-0.973	-0.081	7.3338624	-16.6730778	4.010706	88.56211806	4.17686382	-92.42385498
4.09	409	-0.071	-0.955	-0.074	6.6463128	-15.2979786	1.6615782	88.62514344	4.15967508	-92.57855364
4.1	410	-0.08	-0.948	-0.072	6.1306506	-14.037471	-0.7448454	88.65379134	4.11383844	-92.72179314
4.11	411	-0.088	-0.95	-0.068	5.8441716	-12.7769634	-2.6356068	88.70535756	4.14248634	-92.8478439
4.12	412	-0.099	-0.96	-0.064	5.6149884	-11.45916	-3.6669312	88.7511942	4.1825934	-92.9624355
4.13	413	-0.101	-0.969	-0.057	6.0733548	-9.740286	-3.3804522	88.80849	4.21697088	-93.05410878
4.14	414	-0.097	-0.976	-0.045	6.875496	-8.4224826	-2.291832	88.87724496	4.2398892	-93.14005248
4.15	415	-0.089	-0.984	-0.041	7.8495246	-6.7036086	-0.859437	88.92881118	4.16540466	-93.20880744
4.16	416	-0.08	-0.99	-0.037	8.7662574	-5.5003968	0.1718874	89.01475488	4.16540466	-93.26037366
4.17	417	-0.075	-0.998	-0.032	9.6256944	-4.4117766	1.145916	89.10642816	4.1539455	-93.30048072
4.18	418	-0.065	-1.007	-0.029	10.7143146	-3.2658606	1.8907614	89.21529018	4.13675676	-93.3348582
4.19	419	-0.059	-1.016	-0.026	11.5737516	-2.3491278	2.4637194	89.32988178	4.11383844	-93.35777652
4.2	420	-0.053	-1.02	-0.021	12.3758928	-1.7761698	2.6356068	89.4387438	4.02789474	-93.37496526
4.21	421	-0.045	-1.022	-0.016	12.8342592	-0.9740286	2.1772404	89.57052414	4.010706	-93.38069484
4.22	422	-0.039	-1.016	-0.012	13.3499214	0.2291832	1.2605076	89.70803406	3.99924684	-93.37496526
4.23	423	-0.029	-1.01	-0.004	13.178034	2.291832	0	89.84554398	3.99924684	-93.35204694
4.24	424	-0.023	-1.005	-0.008	12.318597	3.3231564	-0.7448454	89.97159474	4.00497642	-93.31766946
4.25	425	-0.017	-1.004	-0.011	11.9748222	4.1252976	-1.0886202	90.08045676	3.97632852	-93.2775624
4.26	426	-0.012	-1.004	-0.01	12.032118	4.9847346	-0.9167328	90.20077794	3.98778768	-93.22599618
4.27	427	-0.011	-1.008	-0.008	12.2040054	5.443101	-0.5156622	90.33255828	3.99351726	-93.16870038
4.28	428	-0.014	-1.011	-0.004	11.2872726	6.0733548	0.1145916	90.44714988	3.98778768	-93.11140458
4.29	429	-0.018	-1.009	-0.005	10.4278356	6.9327918	0.9740286	90.5560119	3.97632852	-93.03692004
4.3	430	-0.02	-1.008	-0.012	10.0840608	7.734933	1.8334656	90.64768518	3.9247623	-92.9624355
4.31	431	-0.02	-1.009	-0.018	10.313244	8.9381448	2.6356068	90.7565472	3.89038482	-92.8764918
4.32	432	-0.018	-1.009	-0.021	10.7143146	9.5683986	2.9220858	90.8711388	3.86173692	-92.77908894
4.33	433	-0.017	-1.009	-0.022	10.9434978	9.7975818	3.4950438	90.9857304	3.82162986	-92.68168608
4.34	434	-0.017	-1.005	-0.02	10.9434978	9.740286	4.1252976	91.10605158	3.77579322	-92.58428322
4.35	435	-0.014	-1.002	-0.015	11.0580894	9.7975818	4.5263682	91.20345444	3.70703826	-92.48688036
4.36	436	-0.011	-1.001	-0.01	11.4018642	10.2559482	4.6409598	91.32377562	3.65547204	-92.38374792
4.37	437	-0.007	-1.003	-0.004	11.8029348	10.7143146	4.583664	91.44982638	3.60390582	-92.28061548
4.38	438	-0.001	-1.005	-0.001	12.2613012	10.6570188	4.3544808	91.58160672	3.55806918	-92.17175346
4.39	439	0.002	-1.006	-0.002	12.4331886	10.313244	3.9534102	91.71338706	3.51223254	-92.06862102
4.4	440	0.006	-1.005	-0.001	12.6623718	9.9694692	3.6669312	91.82797866	3.45493674	-91.97694774
4.41	441	0.006	-1.002	0.002	12.7769634	9.2246238	3.5523396	91.959759	3.41482968	-91.88527446
4.42	442	0.005	-0.999	0.005	13.0061466	8.6516658	3.6669312	92.09726892	3.37472262	-91.79933076
4.43	443	0.009	-1	0.01	13.178034	8.1932994	4.010706	92.23477884	3.32888598	-91.71911664
4.44	444	0.009	-0.999	0.011	13.0634424	7.5630456	4.2398892	92.37228876	3.28304934	-91.6446321
4.45	445	0.009	-1.004	0.014	13.178034	6.8182002	4.5263682	92.48688036	3.22002396	-91.57587714
4.46	446	0.007	-1.011	0.018	12.9488508	5.8441716	4.6409598	92.62439028	3.16845774	-91.51858134
4.47	447	0.002	-1.012	0.017	12.4904844	4.8128472	4.6409598	92.75044104	3.11689152	-91.4727447
4.48	448	0	-1.012	0.012	12.032118	4.1825934	4.5263682	92.8764918	3.07105488	-91.43263764
4.49	449	-0.006	-1.012	0.011	11.5737516	3.8961144	4.297185	92.99681298	3.02521824	-91.39253058
4.5	450	-0.011	-1.011	0.009	11.3445684	3.8388186	4.0680018	93.08275668	2.95646328	-91.36388268
4.51	451	-0.013	-1.01	0.01	11.5164558	3.7815228	3.8388186	93.20307786	2.91635622	-91.32377562
4.52	452	-0.013	-1.007	0.009	11.8602306	4.010706	3.4950438	93.32339904	2.88197874	-91.28366856
4.53	453	-0.011	-1.005	0.01	12.0894138	4.2398892	3.3231564	93.4494498	2.84187168	-91.2435615
4.54	454	-0.009	-1.003	0.012	12.1467096	4.4690724	3.2085648	93.56977098	2.8074942	-91.20345444
4.55	455	-0.008	-1.001	0.013	12.2040054	4.9274388	3.151269	93.66717384	2.7501984	-91.1576178
4.56	456	-0.007	-1	0.015	12.2040054	5.5576926	3.2085648	93.7932246	2.71582092	-91.10605158
4.57	457	-0.007	-1.002	0.012	12.318597	6.1306506	3.2658606	93.91927536	2.68144344	-91.0430262
4.58	458	-0.007	-1.003	0.008	12.318597	6.5317212	3.3804522	94.04532612	2.64133638	-90.98000082
4.59	459	-0.008	-1.004	0.007	12.6623718	6.7609044	3.5523396	94.17710646	2.60122932	-90.91124586
4.6	460	-0.007	-1.002	0.01	13.0061466	7.2765666	3.6669312	94.2802389	2.53820394	-90.84822048
4.61	461	-0.007	-1.001	0.01	13.0634424	8.1932994	3.724227	94.41774882	2.4923673	-90.76800636
4.62	462	-0.005	-1.001	0.007	13.2353298	8.880849	3.7815228	94.55525874	2.44653066	-90.68206266
4.63	463	-0.005	-1	0.004	13.6364004	9.2819196	3.6669312	94.69276866	2.40069402	-90.59038938
4.64	464	-0.004	-0.997	0.003	14.1520626	9.5683986	3.724227	94.84173774	2.35485738	-90.4987161
4.65	465	-0.001	-0.993	0.004	14.610429	9.740286	3.8388186	94.96205892	2.29756158	-90.4127724
4.66	466	0.002	-0.99	0.007	14.896908	10.026765	3.8961144	95.11675758	2.25172494	-90.31536954
4.67	467	0.007	-0.987	0.01	15.1260912	10.1986524	4.1252976	95.27145624	2.20015872	-90.2122371
4.68	468	0.012	-0.985	0.014	15.5844576	10.0840608	4.297185	95.43188448	2.14286292	-90.11483424
4.69	469	0.016	-0.986	0.019	15.8709366	9.740286	4.297185	95.5980423	2.0912967	-90.02316096
4.7	470	0.018	-0.99	0.022	15.9282324	9.3965112	4.3544808	95.72982264	2.0340009	-89.93721726
4.71	471	0.017	-0.992	0.023	15.9282324	8.880849	4.4690724	95.89025088	1.9767051	-89.85700314
4.72	472	0.013	-0.994	0.023	16.1574156	8.59437	4.4690724	96.0564087	1.92513888	-89.77105944
4.73	473	0.008	-0.994	0.023	16.7303736	8.1932994	4.583664	96.2282961	1.86784308	-89.6965749
4.74	474	0.004	-0.991	0.023	17.1314442	8.1360036	4.6409598	96.40591308	1.81054728	-89.61636078
4.75	475	0	-0.988	0.019	17.4179232	8.021412	4.6409598	96.54915258	1.7475219	-89.54760582
4.76	476	0	-0.99	0.02	18.3919518	7.9641162	4.6409598	96.73822872	1.69595568	-89.47312128
4.77	477	0	-0.986	0.018	19.0795014	7.9641162	4.7555514	96.93303444	1.63865988	-89.39863674
4.78	478	0.001	-0.982	0.02	19.767051	7.7922288	4.8128472	97.13356974	1.5756345	-89.3241522
4.79	479	0.004	-0.978	0.023	20.5118964	7.448454	5.0420304	97.3455642	1.5183387	-89.25539724
4.8	480	0.005	-0.978	0.031	21.0275586	7.448454	5.2712136	97.52318118	1.45531332	-89.19237186
4.81	481	0.007	-0.979	0.035	21.3140376	7.3911582	5.5003968	97.74090522	1.38655836	-89.1236169
4.82	482	0.01	-0.981	0.038	21.0848544	7.3338624	5.9014674	97.95862926	1.3178034	-89.06059152
4.83	483	0.012	-0.984	0.034	20.9702628	7.161975	6.1879464	98.17062372	1.24904844	-88.99756614
4.84	484	0.01	-0.988	0.034	21.0275586	6.875496	6.4171296	98.38834776	1.1745639	-88.93454076
4.85	485	0.009	-0.991	0.035	21.199446	6.4171296	6.4171296	98.56596474	1.10007936	-88.88297454
4.86	486	0.006	-0.991	0.035	21.6578124	5.6149884	6.4744254	98.78368878	1.02559482	-88.8371379
4.87	487	0.003	-0.988	0.034	21.9442914	4.6982556	6.4171296	99.0071424	0.95683986	-88.79703084
4.88	488	0.002	-0.98	0.036	22.1734746	4.1252976	6.589017	99.2363256	0.8880849	-88.76838294
4.89	489	0.002	-0.973	0.036	22.6891368	3.6669312	6.875496	99.4655088	0.81360036	-88.73973504
4.9	490	0.003	-0.969	0.032	23.0329116	3.437748	7.2192708	99.65458494	0.73911582	-88.7225463
4.91	491	0.004	-0.965	0.029	23.4339822	3.2658606	7.6203414	99.8952273	0.6589017	-88.69962798
4.92	492	0.006	-0.965	0.029	23.777757	3.0366774	8.021412	100.1358697	0.572958	-88.68243924
4.93	493	0.008	-0.966	0.028	24.0069402	2.8074942	8.2505952	100.3822416	0.4870143	-88.6652505
4.94	494	0.012	-0.968	0.031	24.064236	3.0939732	8.4797784	100.622884	0.4010706	-88.64806176
4.95	495	0.016	-0.968	0.03	24.4080108	3.4950438	8.7662574	100.8291488	0.3151269	-88.6366026
4.96	496	0.016	-0.969	0.023	24.5226024	3.2085648	9.2819196	101.0755208	0.21772404	-88.61941386
4.97	497	0.016	-0.965	0.019	24.4653066	2.6929026	10.0840608	101.3218927	0.1145916	-88.6079547
4.98	498	0.016	-0.958	0.014	24.6944898	1.5469866	11.0580894	101.5739942	0.00572958	-88.61368428
4.99	499	0.017	-0.952	0.009	24.923673	0.3437748	12.0894138	101.8260958	-0.10886202	-88.63087302
5	500	0.017	-0.945	0.004	25.3247436	-0.8021412	12.7769634	102.0323606	-0.22345362	-88.67098008
5.01	501	0.016	-0.94	-0.003	25.496631	-1.7761698	13.2353298	102.2959213	-0.3437748	-88.71108714
5.02	502	0.018	-0.932	-0.012	25.5539268	-2.1772404	13.5791046	102.5537524	-0.46982556	-88.75692378
5.03	503	0.022	-0.921	-0.019	25.78311	-2.4637194	14.1520626	102.8173131	-0.59587632	-88.80849
5.04	504	0.032	-0.908	-0.026	26.0122932	-3.0939732	14.7823164	103.0808738	-0.73338624	-88.87151538
5.05	505	0.04	-0.892	-0.032	26.0122932	-3.724227	15.756345	103.2985978	-0.859437	-88.94599992
5.06	506	0.049	-0.876	-0.031	25.9549974	-4.4690724	17.4179232	103.5621585	-1.01413566	-89.02621404
5.07	507	0.054	-0.86	-0.028	25.0382646	-5.443101	19.3086846	103.8199896	-1.18602306	-89.1236169
5.08	508	0.051	-0.845	-0.028	24.1215318	-6.7036086	21.9442914	104.0663615	-1.38082878	-89.23247892
5.09	509	0.049	-0.834	-0.026	23.2620948	-7.9068204	24.9809688	104.3127335	-1.59855282	-89.36998884
5.1	510	0.048	-0.814	-0.027	22.4599536	-9.2819196	28.8197874	104.5075392	-1.83919518	-89.53041708
5.11	511	0.063	-0.793	-0.025	21.2567418	-11.2299768	32.945085	104.7367224	-2.1199446	-89.71949322
5.12	512	0.078	-0.774	-0.018	20.6837838	-14.1520626	36.4401288	104.9544464	-2.42934192	-89.94294684
5.13	513	0.097	-0.751	-0.018	19.9389384	-17.6471064	39.0184398	105.1721705	-2.75592798	-90.2122371
5.14	514	0.121	-0.738	-0.021	20.05353	-20.3973048	40.6227222	105.3956241	-3.08251404	-90.51017526
5.15	515	0.139	-0.737	-0.038	20.912967	-22.5745452	41.539455	105.601889	-3.39191136	-90.83676132
5.16	516	0.151	-0.741	-0.049	22.7464326	-23.4339822	41.5967508	105.8597201	-3.724227	-91.16907696
5.17	517	0.154	-0.756	-0.053	24.4080108	-23.5485738	40.8519054	106.1347399	-4.0393539	-91.5013926
5.18	518	0.153	-0.772	-0.051	25.6685184	-22.91832	39.4195104	106.4212189	-4.34302164	-91.82224908
5.19	519	0.145	-0.77	-0.022	24.637194	-22.2307704	38.9038482	106.7019683	-4.64668938	-92.14310556
5.2	520	0.142	-0.755	-0.002	21.772404	-22.8610242	39.3622146	106.925422	-4.92170922	-92.46969162
5.21	521	0.133	-0.755	0.02	18.7930224	-24.2361234	40.2216516	107.1488756	-5.22537696	-92.81346642
5.22	522	0.13	-0.736	0.014	14.9542038	-25.6685184	41.7113424	107.3436813	-5.54050386	-93.18015954
5.23	523	0.131	-0.717	-0.008	12.8342592	-28.1895336	44.3469492	107.5155687	-5.86708992	-93.57550056
5.24	524	0.132	-0.705	-0.031	13.0061466	-32.372127	46.123119	107.6989153	-6.19940556	-94.01667822
5.25	525	0.134	-0.683	-0.04	13.464513	-36.4974246	47.841993	107.8708027	-6.51453246	-94.5094221
5.26	526	0.133	-0.656	-0.023	16.1001198	-39.7059894	47.4982182	108.1057154	-6.82965936	-95.0250843
5.27	527	0.141	-0.65	-0.012	17.761698	-41.539455	43.6021038	108.3520874	-7.09894962	-95.55220566
5.28	528	0.136	-0.642	0.007	17.5898106	-40.7946096	37.8725238	108.6041889	-7.31667366	-96.05067912
5.29	529	0.135	-0.651	0.054	16.7876694	-41.539455	31.1689152	108.8448313	-7.46564274	-96.53769342
5.3	530	0.134	-0.64	0.116	14.4958374	-43.6021038	24.9809688	109.0453666	-7.52866812	-97.0304373
5.31	531	0.136	-0.645	0.112	10.7716104	-46.123119	20.2827132	109.2287131	-7.55731602	-97.52318118
5.32	532	0.138	-0.65	0.076	7.2192708	-50.5921914	18.2200644	109.3776822	-7.55158644	-98.05603212
5.33	533	0.142	-0.645	0.039	3.2085648	-56.6082504	18.2773602	109.4980034	-7.51720896	-98.64617886
5.34	534	0.136	-0.61	0	-2.0626488	-63.4264506	19.3086846	109.5724879	-7.47137232	-99.29935098
5.35	535	0.127	-0.535	-0.001	-8.6516658	-70.8176088	19.2513888	109.5724879	-7.38542862	-100.0270076
5.36	536	0.118	-0.447	0.01	-13.1207382	-73.1667366	17.0168526	109.54384	-7.28802576	-100.7661235
5.37	537	0.107	-0.375	0.04	-15.9282324	-72.3072996	13.2353298	109.4808146	-7.15051584	-101.482321
5.38	538	0.107	-0.321	0.103	-19.0795014	-70.9894962	8.6516658	109.3834118	-6.98435802	-102.1756001
5.39	539	0.104	-0.281	0.172	-22.1161788	-72.6510744	5.0993262	109.2516314	-6.77809314	-102.8688793
5.4	540	0.08	-0.249	0.17	-22.1734746	-75.6877518	3.6096354	109.1255807	-6.53745078	-103.5908064
5.41	541	0.044	-0.244	0.141	-20.9702628	-77.2920342	5.156622	109.0052595	-6.31399716	-104.3299222
5.42	542	0.033	-0.269	0.111	-22.2307704	-79.1254998	10.1413566	108.8734792	-6.13638018	-105.1034155
5.43	543	0.034	-0.284	0.037	-24.923673	-79.5265704	17.2460358	108.7130509	-6.02751816	-105.9055567
5.44	544	0.03	-0.279	0.004	-23.9496444	-78.9536124	22.4599536	108.5640818	-5.97022236	-106.7191571
5.45	545	0.004	-0.275	0.022	-22.4599536	-77.5785132	26.7571386	108.4265719	-5.9587632	-107.5270279
5.46	546	-0.026	-0.256	-0.01	-24.5798982	-73.625103	30.080295	108.2718733	-5.99314068	-108.3177099
5.47	547	-0.081	-0.229	-0.028	-23.3766864	-69.900876	33.0596766	108.1229042	-6.0733548	-109.079744
5.48	548	-0.104	-0.19	-0.004	-21.5432208	-65.603691	35.523396	107.9911238	-6.1879464	-109.8074007
5.49	549	-0.101	-0.113	0.026	-20.05353	-60.5043648	36.6120162	107.8708027	-6.33691548	-110.4892207
5.5	550	-0.06	-0.039	-0.008	-7.8495246	-54.5456016	36.096354	107.8650731	-6.51453246	-111.1137449
5.51	551	-0.053	0.024	0.083	8.4797784	-46.9252602	35.9817624	108.0197717	-6.69787902	-111.6637846
5.52	552	-0.053	0.057	0.168	16.2720072	-46.0085274	35.0650296	108.2546845	-6.875496	-112.2023651
5.53	553	-0.082	0.105	0.162	17.475219	-50.1911208	35.236917	108.5125156	-7.03592424	-112.7867823
5.54	554	-0.05	0.192	0.096	22.345362	-61.020027	35.809875	108.8333721	-7.161975	-113.4686023
5.55	555	0	0.253	0.077	30.7105488	-74.198061	37.815228	109.2688202	-7.25937786	-114.2822027
5.56	556	-0.056	0.351	0.055	36.3255372	-86.9177286	42.97185	109.7730232	-7.35105114	-115.2275834
5.57	557	-0.157	0.602	0.458	49.3316838	-100.0384668	51.4516284	110.4261953	-7.46564274	-116.3276627
5.58	558	-0.164	0.86	0.991	89.4387438	-112.9873176	58.155237	111.5148155	-7.57450476	-117.565252
5.59	559	-0.487	0.501	1.754	178.5910086	-133.8429888	50.8786704	113.5316277	-7.49429064	-118.95754
5.6	560	-0.683	-0.237	2.807	263.1023136	-142.666542	46.9252602	116.4078769	-7.28229618	-120.389935
5.61	561	-1.242	-2.608	3.247	286.6508874	-119.6909262	21.4286292	119.4674726	-6.88122558	-121.4842847
5.62	562	-3.565	-3.999	3.411	910.3156704	-19.8816426	-105.6534552	128.6519893	-5.9014674	-120.9858113
5.63	563	-0.882	0.852	2.284	1360.316884	-438.7712364	299.4851466	142.9702097	-4.76701056	-125.9017909
5.64	564	-0.969	1.446	3.49	726.510744	-130.061466	69.0987348	150.4473116	-4.10237928	-127.087814
5.65	565	-1.007	-0.86	1.284	-73.338624	208.556712	-0.286479	149.5936042	-5.90719698	-126.1080558
5.66	566	-0.732	-0.373	3.756	145.1875572	88.1782362	15.6990492	151.0202696	-6.7609044	-125.8101176
5.67	567	-0.245	-0.899	2.829	127.8842256	71.61975	33.9764094	152.3036956	-7.5630456	-125.7700106
5.68	568	-0.433	-0.758	1.441	154.7559558	53.3996856	34.2055926	153.8793301	-8.19902898	-125.8273064
5.69	569	-0.174	-0.512	0.842	178.762896	37.528749	39.5913978	155.7127957	-8.72042076	-126.0163825
5.7	570	-0.062	-0.162	0.636	207.8691624	13.8082878	46.3523022	157.8900361	-9.04700682	-126.3716165
5.71	571	-0.155	-0.048	0.743	231.9906942	-3.437748	52.1964738	160.319378	-9.21316464	-126.8471716
5.72	572	-0.262	0.128	1.1	253.4766192	-25.8404058	57.5249832	162.9893623	-9.167328	-127.4373184
5.73	573	-0.239	0.091	1.393	253.4193234	-24.7517856	53.1705024	165.653617	-9.09857304	-127.987358
5.74	574	-0.388	0.024	1.58	247.517856	-23.8350528	47.8992888	168.2491167	-8.9954406	-128.4801019
5.75	575	-0.383	-0.194	1.643	231.5896236	-12.2040054	36.669312	170.6555403	-8.9667927	-128.8353359
5.76	576	-0.413	-0.307	1.663	217.8959274	-9.5111028	28.0176462	172.9129948	-8.93241522	-129.1046261
5.77	577	-0.31	-0.543	1.6	207.3535002	-5.6149884	20.9702628	175.0443986	-8.92095606	-129.2994319
5.78	578	-0.356	-0.342	1.401	193.8316914	0.9740286	9.8548776	177.0268333	-8.96106312	-129.379646
5.79	579	-0.313	-0.005	1.168	174.2938236	-1.2032118	7.448454	178.8030031	-8.9667927	-129.4426714
5.8	580	-0.37	-0.044	1.18	163.6368048	-9.3965112	10.886202	-179.513471	-8.90376732	-129.5343446
5.81	581	-0.379	0.151	1.065	162.4908888	-14.896908	21.199446	-177.8289745	-8.77198698	-129.7291504
5.82	582	-0.252	-0.342	0.841	159.9125778	-13.464513	26.9863218	-176.1673963	-8.64593622	-129.9755223
5.83	583	-0.203	0.033	0.754	179.1066708	-19.3086846	30.9970278	-174.3052828	-8.4511305	-130.2505421
5.84	584	-0.091	0.202	0.683	179.2212624	-31.8564648	33.2888598	-172.4431693	-8.11881486	-130.525562
5.85	585	-0.095	0.181	0.877	164.2097628	-51.7954032	35.8671708	-170.7300248	-7.58023434	-130.7833931
5.86	586	-0.08	0.256	1.017	149.828517	-70.760313	32.8304934	-169.1773087	-6.85830726	-130.9552805
5.87	587	-0.1	0.214	1.094	149.7139254	-73.911582	27.3873924	-167.6360516	-6.10773228	-131.0469538
5.88	588	0.142	-0.843	1.169	85.1988546	-99.121734	22.4026578	-166.7594259	-5.12224452	-131.0125763
5.89	589	-0.095	-0.205	1.064	35.4661002	-105.137793	19.5378678	-166.3927328	-4.07373138	-130.9323622
5.9	590	-0.124	-0.186	0.912	-11.6310474	-94.4807742	8.7662574	-166.4958652	-3.16272816	-130.7719339
5.91	591	-0.182	0.293	0.757	-33.9191136	-88.235532	-22.2307704	-166.8510992	-2.37204612	-130.3307563
5.92	592	-0.239	0.072	0.813	-38.7319608	-76.203414	-24.1788276	-167.2521698	-1.6902261	-129.9124969
5.93	593	-0.22	0.231	0.636	-36.1536498	-66.463128	-26.6998428	-167.6188629	-1.10580894	-129.4942376
5.94	594	-0.265	0.829	0.53	-21.6005166	-57.009321	-23.3766864	-167.8365869	-0.60733548	-129.133274
5.95	595	-0.268	0.778	0.58	0.6302538	-50.7640788	-16.5584862	-167.7449137	-0.17761698	-128.8410655
5.96	596	-0.119	1.105	0.6	15.4125702	-46.9252602	0.0572958	-167.5787558	0.26356068	-128.7322034
5.97	597	-0.107	0.117	0.705	-34.37748	-46.8679644	-1.5469866	-167.9225306	0.7161975	-128.6061527
5.98	598	-0.02	0.72	0.711	-27.2728008	-42.6280752	0.6302538	-168.1918209	1.12872726	-128.5144794
5.99	599	-0.025	0.158	0.798	-38.2162986	-33.9764094	6.302538	-168.5757028	1.47250206	-128.5030202
6	600	-0.016	0.078	0.872	-52.6548402	-31.3980984	7.161975	-169.1085537	1.79335854	-128.5087498
6.01	601	-0.034	0.161	0.871	-66.8641986	-28.8770832	6.3598338	-169.7846441	2.0912967	-128.5144794
6.02	602	-0.038	0.185	0.896	-63.7129296	-25.0382646	5.6149884	-170.4320867	2.3491278	-128.5259386
6.03	603	0.029	0.13	0.961	-61.4210976	-23.6631654	6.6463128	-171.0508813	2.60122932	-128.5488569
6.04	604	-0.05	0.159	1.043	-62.3951262	-19.3659804	4.6982556	-171.6811351	2.80176462	-128.5660456
6.05	605	-0.023	0.202	1.125	-58.8427866	-16.1001198	3.8388186	-172.2655523	2.96792244	-128.5775048
6.06	606	0.029	0.292	1.194	-53.4569814	-11.1153852	2.86479	-172.8098624	3.08251404	-128.5946935
6.07	607	0.024	0.273	1.252	-54.7747848	-7.2192708	4.6409598	-173.3656316	3.16845774	-128.6348006
6.08	608	0.019	0.214	1.274	-57.6968706	-3.6096354	5.5576926	-173.9557784	3.22002396	-128.6863668
6.09	609	0.017	0.144	1.27	-61.9940556	0.286479	5.8441716	-174.5860322	3.22575354	-128.7493922
6.1	610	0.022	0.071	1.239	-63.884817	4.583664	4.9847346	-175.2449339	3.19137606	-128.8124176
6.11	611	-0.014	0.029	1.19	-60.5043648	8.3651868	3.8961144	-175.8637285	3.11689152	-128.8639838
6.12	612	-0.024	0.025	1.151	-53.2277982	11.4018642	2.1772404	-176.4080386	3.01375908	-128.8983613
6.13	613	-0.03	0.005	1.094	-44.8626114	15.9282324	-0.0572958	-176.866405	2.85906042	-128.91555
6.14	614	-0.046	-0.004	1.044	-34.37748	20.3973048	-0.8021412	-177.221639	2.6642547	-128.9270092
6.15	615	-0.057	0.01	1.047	-24.5798982	25.3820394	-1.8334656	-177.4851997	2.39496444	-128.9327387
6.16	616	-0.029	0.011	1.068	-18.4492476	28.7051958	-2.6929026	-177.6742758	2.11421502	-128.9270092
6.17	617	-0.045	-0.001	1.092	-17.18874	31.0543236	-3.2658606	-177.8518928	1.81054728	-128.91555
6.18	618	-0.045	0.013	1.104	-18.334656	33.9764094	-3.6669312	-178.0466985	1.47250206	-128.8983613
6.19	619	-0.036	-0.002	1.109	-19.5378678	36.8411994	-3.8961144	-178.2472338	1.11153852	-128.8811725
6.2	620	-0.079	0.05	1.126	-20.1108258	38.2735944	-4.0680018	-178.4534987	0.72765666	-128.8639838
6.21	621	-0.028	0.127	1.126	-19.3086846	38.2162986	-5.6149884	-178.654034	0.34950438	-128.8296063
6.22	622	-0.078	0.189	1.053	-18.5065434	36.1536498	-4.6982556	-178.8488397	0	-128.8009584
6.23	623	-0.099	0.166	0.935	-27.2728008	33.7472262	-5.5576926	-179.1295891	-0.33231564	-128.7665809
6.24	624	-0.176	-0.286	0.885	-26.8144344	29.6219286	-8.3651868	-179.404609	-0.62452422	-128.697826
6.25	625	-0.045	-0.165	0.859	-20.9702628	34.091001	-5.2712136	-179.6509809	-0.9453807	-128.6577189
6.26	626	-0.051	-0.107	0.724	-15.6990492	29.3927454	-1.3750992	-179.8171387	-1.23758928	-128.6577189
6.27	627	-0.223	-0.018	0.792	7.6776372	15.2406828	2.578311	-179.7369246	-1.38655836	-128.6863668
6.28	628	-0.12	-0.038	0.945	25.3247436	-3.3231564	6.2452422	-179.4790935	-1.35791046	-128.7436626
6.29	629	-0.053	-0.082	1.07	38.6173692	-16.329303	7.448454	-179.0837525	-1.19748222	-128.8124176
6.3	630	-0.084	-0.019	1.111	42.5707794	-18.8503182	4.870143	-178.6425748	-1.0313244	-128.846795
6.31	631	-0.098	0.077	1.127	35.6379876	-13.0061466	2.6929026	-178.2816113	-0.90527364	-128.8639838
6.32	632	-0.053	0.048	1.042	23.5485738	-4.010706	0.7448454	-178.0409689	-0.86516658	-128.8697134
6.33	633	-0.059	-0.032	0.999	15.1260912	2.5210152	-1.145916	-177.8862703	-0.89381448	-128.8582542
6.34	634	-0.109	-0.026	0.976	9.2819196	6.7036086	-2.0626488	-177.794597	-0.96256944	-128.8410655
6.35	635	-0.106	0.006	0.984	4.5263682	10.4278356	-2.3491278	-177.8003266	-1.14018642	-128.8296063
6.36	636	-0.101	-0.002	0.973	-1.718874	15.469866	-2.4064236	-177.8232449	-1.29488508	-128.8181471
6.37	637	-0.106	0.005	0.955	-5.443101	19.3086846	-3.0939732	-177.8805407	-1.48396122	-128.8009584
6.38	638	-0.119	-0.011	0.947	-8.021412	19.0795014	-2.86479	-177.9664844	-1.67303736	-128.7837697
6.39	639	-0.125	-0.001	0.956	-9.9121734	16.3865988	-2.578311	-178.0696168	-1.83919518	-128.7665809
6.4	640	-0.122	-0.004	0.964	-11.45916	14.2093584	-2.2345362	-178.2071267	-2.01108258	-128.7551218
6.41	641	-0.124	-0.009	0.968	-11.9748222	12.032118	-1.8907614	-178.3331775	-2.13140376	-128.7436626
6.42	642	-0.121	-0.006	0.981	-11.3445684	9.6256944	-1.3750992	-178.4477691	-2.22307704	-128.737933
6.43	643	-0.123	-0.002	1.005	-9.9121734	6.9900876	-0.9167328	-178.5509015	-2.291832	-128.7322034
6.44	644	-0.112	-0.008	1.033	-8.59437	4.1825934	-0.8021412	-178.6425748	-2.33193906	-128.7264739
6.45	645	-0.127	-0.006	1.04	-7.7922288	2.0626488	-0.572958	-178.7858143	-2.44080108	-128.7322034
6.46	646	-0.121	-0.013	1.034	-7.448454	0.286479	-0.286479	-178.8602989	-2.44080108	-128.7264739
6.47	647	-0.134	-0.011	1.022	-6.8182002	-1.9480572	0.1145916	-178.9290538	-2.42361234	-128.7322034
6.48	648	-0.128	-0.005	1.006	-6.4171296	-4.2398892	0.3437748	-178.9978088	-2.3777757	-128.7322034
6.49	649	-0.117	-0.018	0.984	-5.5003968	-7.0473834	0.859437	-179.049375	-2.30902074	-128.737933
6.5	650	-0.119	-0.013	0.983	-4.297185	-9.6256944	1.145916	-179.1353187	-2.27464326	-128.7493922
6.51	651	-0.109	-0.015	0.985	-2.8074942	-11.0007936	1.3750992	-179.158237	-2.16005166	-128.7608513
6.52	652	-0.097	-0.012	0.985	-1.9480572	-9.8548776	1.2605076	-179.1754258	-2.0626488	-128.7723105
6.53	653	-0.093	-0.003	0.981	-0.572958	-8.7662574	1.0886202	-179.1811553	-1.9767051	-128.7780401
6.54	654	-0.094	-0.005	0.997	1.3750992	-8.307891	0.9740286	-179.1696962	-1.89649098	-128.7837697
6.55	655	-0.098	0.002	1.019	4.010706	-7.5057498	1.0313244	-179.1410483	-1.87357266	-128.7952288
6.56	656	-0.101	-0.001	1.035	6.1306506	-6.6463128	0.9740286	-179.0780229	-1.81054728	-128.8009584
6.57	657	-0.104	0.008	1.04	6.8182002	-5.6149884	0.7448454	-179.0092679	-1.75325148	-128.806688
6.58	658	-0.101	0	1.035	6.1879464	-4.2398892	0.6875496	-178.9462426	-1.71314442	-128.8124176
6.59	659	-0.106	0.001	1.026	4.8128472	-2.86479	0.4583664	-178.8946763	-1.68449652	-128.8124176
6.6	660	-0.103	-0.001	1.015	2.9793816	-1.8334656	0.2291832	-178.9462426	-1.8621135	-128.8296063
6.61	661	-0.103	-0.001	1.019	1.0313244	-1.4896908	0.2291832	-178.9347834	-1.85065434	-128.8296063
6.62	662	-0.105	0	1.018	-0.5156622	-1.6042824	0.2291832	-178.940513	-1.8334656	-128.8353359
6.63	663	-0.102	-0.002	1.013	-1.8907614	-1.718874	0.1145916	-178.9577017	-1.81627686	-128.8353359
6.64	664	-0.102	-0.003	1.008	-2.9220858	-2.005353	0.0572958	-178.9920792	-1.79335854	-128.8353359
6.65	665	-0.102	-0.002	1.004	-4.010706	-2.3491278	0	-179.0722933	-1.87357266	-128.8410655
6.66	666	-0.098	-0.008	1.002	-4.9274388	-2.6929026	0	-179.1238595	-1.85065434	-128.8410655
6.67	667	-0.098	-0.007	1.003	-5.5576926	-2.9793816	0.1145916	-179.1811553	-1.81627686	-128.8410655
6.68	668	-0.096	-0.007	1.006	-5.5576926	-3.2085648	0.2291832	-179.2384511	-1.78762896	-128.8410655
6.69	669	-0.096	-0.011	1.011	-5.0993262	-3.3804522	0.286479	-179.2900174	-1.75325148	-128.846795
6.7	670	-0.095	-0.01	1.014	-3.6669312	-3.5523396	0.4583664	-179.3702315	-1.8048177	-128.8582542
6.71	671	-0.093	-0.011	1.019	-1.9480572	-3.5523396	0.6302538	-179.3931498	-1.77044022	-128.8639838
6.72	672	-0.094	-0.011	1.022	-0.1718874	-3.5523396	0.6875496	-179.3931498	-1.73606274	-128.8697134
6.73	673	-0.092	-0.012	1.024	1.6042824	-3.4950438	0.7448454	-179.3759611	-1.70168526	-128.8754429
6.74	674	-0.092	-0.012	1.024	3.3231564	-3.437748	0.7448454	-179.3415836	-1.66730778	-128.8811725
6.75	675	-0.09	-0.011	1.024	4.5263682	-3.3804522	0.859437	-179.3301244	-1.70168526	-128.8926317
6.76	676	-0.09	-0.009	1.02	5.3858052	-3.0366774	0.9167328	-179.2785582	-1.67303736	-128.8983613
6.77	677	-0.089	-0.008	1.015	5.72958	-2.7501984	0.7448454	-179.2155328	-1.64438946	-128.9040908
6.78	678	-0.089	-0.008	1.014	5.6722842	-2.291832	0.6875496	-179.158237	-1.62147114	-128.9098204
6.79	679	-0.088	-0.008	1.011	5.0993262	-1.8907614	0.572958	-179.1066708	-1.6042824	-128.91555
6.8	680	-0.089	-0.008	1.008	4.3544808	-1.5469866	0.4583664	-179.1238595	-1.69595568	-128.9327387
6.81	681	-0.088	-0.008	1.006	3.437748	-1.2032118	0.3437748	-179.0894821	-1.68449652	-128.9327387
6.82	682	-0.088	-0.008	1.006	2.578311	-1.0313244	0.286479	-179.0608342	-1.67303736	-128.9384683
6.83	683	-0.087	-0.007	1.004	1.718874	-0.859437	0.2291832	-179.0436454	-1.66730778	-128.9384683
6.84	684	-0.089	-0.008	1.001	0.859437	-0.8021412	0.0572958	-179.0379158	-1.65584862	-128.9384683
6.85	685	-0.089	-0.007	1.004	0.1718874	-0.859437	0.0572958	-179.2900174	-2.09702628	-128.9785754
6.86	686	-0.089	-0.008	1.006	-0.4583664	-0.859437	0.0572958	-179.2957469	-2.0912967	-128.9785754
6.87	687	-0.089	-0.007	1.008	-0.6302538	-0.572958	0	-179.3014765	-2.08556712	-128.9785754
6.88	688	-0.089	-0.007	1.01	-0.572958	-0.4583664	0	-179.3072061	-2.07983754	-128.9785754
6.89	689	-0.089	-0.007	1.013	-0.3437748	-0.5156622	0.0572958	-179.3129357	-2.07410796	-128.9785754
6.9	690	-0.089	-0.008	1.017	0	-0.4583664	0.1145916	-179.5879555	-2.578311	-129.0186824
6.91	691	-0.087	-0.007	1.018	0.4583664	-0.1718874	0.1145916	-179.5822259	-2.578311	-129.0186824
6.92	692	-0.088	-0.007	1.019	0.9167328	0	0.1718874	-179.5707668	-2.578311	-129.0186824
6.93	693	-0.088	-0.008	1.019	1.2605076	0.1145916	0.1145916	-179.5593076	-2.578311	-129.024412
6.94	694	-0.087	-0.007	1.018	1.6615782	0.1718874	0.1718874	-179.5421189	-2.58404058	-129.024412
6.95	695	-0.086	-0.009	1.016	1.7761698	0.3437748	0.1145916	-179.6108738	-2.7215505	-129.0358712
6.96	696	-0.086	-0.009	1.011	1.8334656	0.5156622	0.1145916	-179.5936851	-2.72728008	-129.0358712
6.97	697	-0.087	-0.007	1.008	1.8334656	0.572958	0.1718874	-179.5764964	-2.73300966	-129.0416008
6.98	698	-0.086	-0.007	1.007	1.718874	0.8021412	0.1718874	-179.5593076	-2.74446882	-129.0416008
6.99	699	-0.087	-0.007	1.008	1.4896908	0.6875496	0.1145916	-179.5421189	-2.7501984	-129.0416008
7	700	-0.087	-0.007	1.007	1.2032118	0.572958	0.1718874	-179.6395217	-2.93354496	-129.0587895
7.01	701	-0.087	-0.006	1.008	0.9740286	0.3437748	0.1145916	-179.6280626	-2.93354496	-129.0587895
7.02	702	-0.087	-0.006	1.008	0.7448454	0	0.2291832	-179.622333	-2.93354496	-129.0645191
7.03	703	-0.087	-0.007	1.009	0.3437748	-0.3437748	0.1718874	-179.6166034	-2.93354496	-129.0645191
7.04	704	-0.087	-0.008	1.009	0.1145916	-0.5156622	0.2291832	-179.6166034	-2.92781538	-129.0702487
7.05	705	-0.087	-0.007	1.009	0.0572958	-0.7448454	0.286479	-179.7426542	-3.10543236	-129.0817078
7.06	706	-0.086	-0.007	1.011	0.0572958	-0.9740286	0.3437748	-179.7369246	-3.09970278	-129.0874374
7.07	707	-0.086	-0.007	1.013	0.1718874	-1.2032118	0.3437748	-179.7369246	-3.08824362	-129.093167
7.08	708	-0.087	-0.008	1.011	0.4010706	-1.2605076	0.4010706	-179.731195	-3.07105488	-129.093167
7.09	709	-0.085	-0.007	1.011	0.8021412	-1.2032118	0.4010706	-179.7254654	-3.05959572	-129.0988966
7.1	710	-0.085	-0.007	1.013	1.0886202	-1.2605076	0.4583664	-179.7598429	-3.12835068	-129.1103557
7.11	711	-0.084	-0.006	1.015	1.2032118	-1.2032118	0.4583664	-179.7483838	-3.11689152	-129.1103557
7.12	712	-0.085	-0.006	1.016	1.0886202	-1.2032118	0.4583664	-179.7369246	-3.10543236	-129.1160853
7.13	713	-0.084	-0.006	1.015	0.9740286	-1.0313244	0.4010706	-179.7254654	-3.0939732	-129.1218149
7.14	714	-0.083	-0.005	1.015	0.9167328	-0.8021412	0.4010706	-179.7197359	-3.08251404	-129.1275445
7.15	715	-0.083	-0.006	1.014	0.9740286	-0.4583664	0.3437748	-179.7884908	-3.19710564	-129.1390036
7.16	716	-0.083	-0.006	1.011	0.9740286	-0.0572958	0.286479	-179.7770317	-3.19710564	-129.1390036
7.17	717	-0.082	-0.007	1.015	0.9167328	0.286479	0.2291832	-179.7713021	-3.19710564	-129.1447332
7.18	718	-0.083	-0.007	1.017	0.572958	0.3437748	0.286479	-179.7655725	-3.20283522	-129.1447332
7.19	719	-0.083	-0.006	1.019	0.1718874	0.0572958	0.2291832	-179.7598429	-3.20283522	-129.1504628
7.2	720	-0.082	-0.007	1.019	0.2291832	0	0.286479	-179.9030824	-3.36899304	-129.1619219
7.21	721	-0.083	-0.007	1.017	0.286479	-0.0572958	0.286479	-179.8973528	-3.36899304	-129.1676515
7.22	722	-0.082	-0.008	1.014	0.5156622	-0.1718874	0.3437748	-179.8916233	-3.36899304	-129.1733811
7.23	723	-0.082	-0.007	1.013	0.6875496	-0.286479	0.286479	-179.8858937	-3.36326346	-129.1733811
7.24	724	-0.082	-0.008	1.012	0.6875496	-0.1718874	0.2291832	-179.8744345	-3.36326346	-129.1733811
7.25	725	-0.081	-0.008	1.012	0.6875496	0	0.1718874	-179.977567	-3.50650296	-129.1905698
7.26	726	-0.082	-0.006	1.012	0.6875496	0.0572958	0.286479	-179.9718374	-3.50650296	-129.1905698
7.27	727	-0.081	-0.007	1.014	0.6875496	0.1145916	0.286479	-179.9661078	-3.51223254	-129.1962994
7.28	728	-0.082	-0.007	1.012	0.5156622	0.2291832	0.1718874	-179.9603782	-3.51223254	-129.1962994
7.29	729	-0.082	-0.007	1.013	0.4583664	0.2291832	0.1718874	-179.9546486	-3.51796212	-129.1962994
7.3	730	-0.082	-0.008	1.013	0.4583664	0.572958	0.1718874	179.9661078	-3.6096354	-129.2077586
7.31	731	-0.081	-0.008	1.013	0.572958	0.7448454	0.1145916	179.9718374	-3.61536498	-129.2077586
7.32	732	-0.082	-0.008	1.014	0.4583664	0.9167328	0.1145916	179.977567	-3.62682414	-129.2077586
7.33	733	-0.082	-0.007	1.018	0.5156622	0.859437	0.1718874	179.9832965	-3.63255372	-129.2134882
7.34	734	-0.082	-0.008	1.02	0.5156622	0.7448454	0.1718874	179.9890261	-3.6382833	-129.2134882
7.35	735	-0.083	-0.008	1.018	0.4583664	0.6302538	0.1718874	179.9317303	-3.71849742	-129.2192177
7.36	736	-0.082	-0.007	1.015	0.6302538	0.5156622	0.2291832	179.9374599	-3.724227	-129.2249473
7.37	737	-0.082	-0.008	1.014	0.5156622	0.4010706	0.1718874	179.9431895	-3.72995658	-129.2249473
7.38	738	-0.082	-0.008	1.013	0.4583664	0.3437748	0.1718874	179.9489191	-3.73568616	-129.2306769
7.39	739	-0.082	-0.009	1.01	0.5156622	0.2291832	0.1718874	179.9546486	-3.73568616	-129.2306769
7.4	740	-0.082	-0.009	1.01	0.572958	0.4010706	0.1718874	179.8744345	-3.82162986	-129.2364065
7.41	741	-0.083	-0.008	1.011	0.4583664	0.286479	0.1145916	179.8801641	-3.82162986	-129.2364065
7.42	742	-0.082	-0.008	1.014	0.2291832	0.286479	0.1145916	179.8801641	-3.82735944	-129.2421361
7.43	743	-0.082	-0.009	1.013	0.1145916	0.1718874	0.1145916	179.8801641	-3.82735944	-129.2421361
7.44	744	-0.082	-0.009	1.015	0.2291832	0.1145916	0.1718874	179.8858937	-3.82735944	-129.2421361
7.45	745	-0.081	-0.01	1.014	0.3437748	0	0.1718874	179.7884908	-3.91903272	-129.2535952
7.46	746	-0.081	-0.009	1.015	0.5156622	0	0.1718874	179.7942204	-3.91903272	-129.2535952
7.47	747	-0.081	-0.009	1.014	0.572958	0.1145916	0.1718874	179.79995	-3.91903272	-129.2535952
7.48	748	-0.082	-0.011	1.015	0.6302538	0	0.2291832	179.8114091	-3.91903272	-129.2593248
7.49	749	-0.081	-0.01	1.015	0.6875496	0	0.2291832	179.8171387	-3.91903272	-129.2593248
7.5	750	-0.08	-0.009	1.015	0.572958	-0.0572958	0.1718874	179.7369246	-3.98778768	-129.2650544
7.51	751	-0.08	-0.009	1.013	0.6302538	-0.1145916	0.286479	179.7426542	-3.98778768	-129.270784
7.52	752	-0.08	-0.009	1.014	0.572958	-0.1145916	0.286479	179.7483838	-3.9820581	-129.270784
7.53	753	-0.081	-0.009	1.013	0.572958	-0.0572958	0.2291832	179.7541133	-3.9820581	-129.2765135
7.54	754	-0.081	-0.01	1.013	0.4583664	0	0.2291832	179.7598429	-3.9820581	-129.2765135
7.55	755	-0.08	-0.01	1.014	0	-0.1145916	0	179.5650372	-4.13102718	-129.2879727
7.56	756	-0.081	-0.009	1.013	0	0	0.0572958	179.5650372	-4.13102718	-129.2879727
7.57	757	-0.081	-0.01	1.013	0.0572958	0	0.0572958	179.5650372	-4.13102718	-129.2879727
7.58	758	-0.08	-0.009	1.013	0.1718874	0	0	179.5650372	-4.13102718	-129.2879727
7.59	759	-0.08	-0.01	1.016	0.1718874	0	0.0572958	179.5707668	-4.13102718	-129.2879727
7.6	760	-0.08	-0.01	1.015	0.1145916	-0.1145916	0	179.444716	-4.21697088	-129.2937023
7.61	761	-0.08	-0.009	1.014	0.1145916	-0.1145916	0.0572958	179.444716	-4.21697088	-129.2937023
7.62	762	-0.08	-0.01	1.014	0.0572958	-0.1145916	0	179.444716	-4.21697088	-129.2937023
7.63	763	-0.08	-0.01	1.015	0.1718874	-0.1145916	0.0572958	179.4504456	-4.21697088	-129.2994319
7.64	764	-0.079	-0.01	1.014	0.1718874	-0.0572958	0.0572958	179.4504456	-4.2112413	-129.2994319
7.65	765	-0.079	-0.011	1.015	0.0572958	0	0.0572958	179.335854	-4.2685371	-129.2994319
7.66	766	-0.08	-0.011	1.015	0.1145916	0.0572958	0	179.335854	-4.2685371	-129.2994319
7.67	767	-0.08	-0.01	1.014	0.286479	0.0572958	0	179.3415836	-4.2685371	-129.2994319
7.68	768	-0.079	-0.01	1.014	0.3437748	0.1718874	0	179.3415836	-4.27426668	-129.2994319
7.69	769	-0.08	-0.011	1.013	0.286479	0.0572958	0	179.3473132	-4.27426668	-129.2994319
7.7	770	-0.08	-0.009	1.015	0.1718874	0.1145916	-0.0572958	179.3186653	-4.297185	-129.2994319
7.71	771	-0.079	-0.011	1.014	0.1145916	0.1718874	0	179.3186653	-4.297185	-129.2994319
7.72	772	-0.079	-0.01	1.014	0.286479	0.0572958	0	179.3186653	-4.297185	-129.2994319
7.73	773	-0.08	-0.01	1.011	0.3437748	0.0572958	0	179.3243948	-4.297185	-129.2994319
7.74	774	-0.079	-0.011	1.01	0.3437748	0.286479	0	179.3301244	-4.30291458	-129.2994319
7.75	775	-0.079	-0.01	1.012	0	0.286479	0	179.2842878	-4.33729206	-129.2994319
7.76	776	-0.079	-0.01	1.016	-0.2291832	0.1718874	0	179.2785582	-4.33729206	-129.2994319
7.77	777	-0.08	-0.01	1.019	-0.2291832	0	0	179.2785582	-4.33729206	-129.2994319
7.78	778	-0.08	-0.009	1.019	-0.0572958	-0.1145916	-0.0572958	179.2785582	-4.33729206	-129.2994319
7.79	779	-0.079	-0.011	1.016	0	-0.1718874	0	179.2785582	-4.33729206	-129.2994319
7.8	780	-0.078	-0.011	1.015	0	-0.0572958	0	179.2098032	-4.3544808	-129.2994319
7.81	781	-0.079	-0.009	1.015	0	0	-0.0572958	179.2098032	-4.3544808	-129.2994319
7.82	782	-0.079	-0.011	1.015	0	0	0	179.2155328	-4.3544808	-129.2994319
7.83	783	-0.078	-0.01	1.014	0	0.0572958	0	179.2155328	-4.3544808	-129.2994319
7.84	784	-0.078	-0.01	1.012	0	0.2291832	0	179.2098032	-4.36021038	-129.2994319
7.85	785	-0.079	-0.011	1.011	0	0.1145916	0	179.1238595	-4.37739912	-129.2994319
7.86	786	-0.079	-0.011	1.012	0.0572958	0.0572958	0	179.1238595	-4.37739912	-129.2994319
7.87	787	-0.078	-0.01	1.014	0	0.1145916	0	179.1238595	-4.37739912	-129.2994319
7.88	788	-0.079	-0.011	1.012	0	0.1145916	0	179.1238595	-4.37739912	-129.2994319
7.89	789	-0.079	-0.01	1.013	0.0572958	0.1145916	0	179.1295891	-4.3831287	-129.2994319
7.9	790	-0.078	-0.01	1.015	0.0572958	0.0572958	0	179.1124004	-4.3831287	-129.2994319
7.91	791	-0.079	-0.01	1.016	0.1145916	0.1145916	0	179.1124004	-4.3831287	-129.2994319
7.92	792	-0.078	-0.011	1.015	0.1145916	0.1718874	0	179.11813	-4.38885828	-129.2994319
7.93	793	-0.078	-0.012	1.016	0.0572958	0.1145916	0	179.11813	-4.38885828	-129.2994319
7.94	794	-0.078	-0.01	1.016	0.1718874	0.1145916	0	179.11813	-4.38885828	-129.2994319
7.95	795	-0.078	-0.011	1.016	0.1718874	0.1718874	0	179.1124004	-4.39458786	-129.2994319
7.96	796	-0.078	-0.01	1.015	0.1145916	0.0572958	0	179.1124004	-4.39458786	-129.2994319
7.97	797	-0.078	-0.01	1.015	0.2291832	0.1145916	0	179.1124004	-4.39458786	-129.2994319
7.98	798	-0.078	-0.011	1.014	0.3437748	0.1718874	0	179.11813	-4.40031744	-129.2994319
7.99	799	-0.078	-0.011	1.013	0.286479	0.2291832	0	179.11813	-4.40031744	-129.2994319
8	800	-0.078	-0.011	1.013	0.1145916	0.2291832	0	179.1066708	-4.40031744	-129.2994319
8.01	801	-0.079	-0.01	1.013	0.0572958	0.1718874	0	179.1066708	-4.40031744	-129.2994319
8.02	802	-0.079	-0.011	1.015	0.0572958	0.0572958	0	179.1066708	-4.40031744	-129.2994319
8.03	803	-0.078	-0.011	1.014	0	0.0572958	0	179.1066708	-4.40604702	-129.2994319
8.04	804	-0.078	-0.011	1.015	0	0.1145916	0	179.1066708	-4.40604702	-129.2994319
8.05	805	-0.078	-0.01	1.015	0	0.0572958	0	179.0608342	-4.41750618	-129.2994319
8.06	806	-0.078	-0.011	1.014	0	0	0	179.0608342	-4.41750618	-129.2994319
8.07	807	-0.078	-0.011	1.015	0.0572958	0	0	179.0608342	-4.41750618	-129.2994319
8.08	808	-0.079	-0.011	1.015	0.0572958	-0.0572958	0	179.0608342	-4.41750618	-129.2994319
8.09	809	-0.078	-0.012	1.015	0	0	0	179.0608342	-4.41750618	-129.2994319
8.1	810	-0.077	-0.011	1.014	0	-0.0572958	0	179.0436454	-4.40604702	-129.2937023
8.11	811	-0.078	-0.011	1.014	0	-0.0572958	0	179.0436454	-4.40604702	-129.2937023
8.12	812	-0.078	-0.011	1.013	0.0572958	0	0	179.0436454	-4.40031744	-129.2994319
8.13	813	-0.077	-0.011	1.013	0.0572958	0	0	179.0436454	-4.40604702	-129.2994319
8.14	814	-0.078	-0.01	1.013	0.1145916	0.0572958	0	179.049375	-4.40604702	-129.2994319
8.15	815	-0.078	-0.012	1.014	0.0572958	0	0	179.0092679	-4.3831287	-129.2937023
8.16	816	-0.077	-0.011	1.015	0.1145916	0	0	179.0149975	-4.3831287	-129.2937023
8.17	817	-0.077	-0.011	1.015	0	0	0	179.0149975	-4.3831287	-129.2937023
8.18	818	-0.078	-0.011	1.015	0	0	0	179.0149975	-4.3831287	-129.2937023
8.19	819	-0.077	-0.01	1.014	0	0	0	179.0149975	-4.3831287	-129.2937023
8.2	820	-0.078	-0.011	1.014	0	-0.0572958	0	179.0035384	-4.3831287	-129.2937023
8.21	821	-0.077	-0.01	1.015	0.0572958	-0.0572958	0	179.0035384	-4.3831287	-129.2937023
8.22	822	-0.076	-0.01	1.013	0.0572958	0	0	179.0035384	-4.3831287	-129.2937023
8.23	823	-0.078	-0.011	1.015	0	0	-0.0572958	179.0035384	-4.3831287	-129.2937023
8.24	824	-0.078	-0.01	1.015	0.0572958	0	-0.0572958	179.0092679	-4.3831287	-129.2937023
8.25	825	-0.077	-0.012	1.014	0.1145916	0.0572958	0	178.9978088	-4.3831287	-129.2937023
8.26	826	-0.078	-0.012	1.013	0.1718874	0	-0.0572958	178.9978088	-4.3831287	-129.2879727
8.27	827	-0.077	-0.011	1.012	0.1145916	0.1145916	0	178.9978088	-4.3831287	-129.2879727
8.28	828	-0.077	-0.011	1.013	0.2291832	0.0572958	0	179.0035384	-4.3831287	-129.2879727
8.29	829	-0.076	-0.011	1.013	0	0.1718874	-0.0572958	179.0035384	-4.3831287	-129.2879727
8.3	830	-0.077	-0.01	1.015	0.1145916	0	0	178.9978088	-4.37739912	-129.2879727
8.31	831	-0.077	-0.01	1.015	0.1145916	0	0	178.9978088	-4.37739912	-129.2879727
8.32	832	-0.077	-0.011	1.016	0.0572958	0	0	178.9978088	-4.37739912	-129.2879727
8.33	833	-0.077	-0.01	1.015	0.0572958	0	0	178.9978088	-4.37739912	-129.2879727
8.34	834	-0.077	-0.011	1.015	0.0572958	0	0	179.0035384	-4.37739912	-129.2879727
8.35	835	-0.077	-0.01	1.014	0.1145916	0.0572958	0	178.9978088	-4.37739912	-129.2879727
8.36	836	-0.077	-0.011	1.013	0.1718874	0.1145916	0	178.9978088	-4.3831287	-129.2879727
8.37	837	-0.077	-0.012	1.014	0.286479	0.1718874	0	179.0035384	-4.3831287	-129.2879727
8.38	838	-0.078	-0.01	1.012	0.2291832	0	0	179.0035384	-4.3831287	-129.2879727
8.39	839	-0.078	-0.011	1.015	0.1718874	0	0	179.0092679	-4.3831287	-129.2879727
8.4	840	-0.078	-0.01	1.015	0.0572958	0.1145916	0	179.0092679	-4.3831287	-129.2879727
8.41	841	-0.077	-0.01	1.014	0	0.1718874	0	179.0092679	-4.3831287	-129.2879727
8.42	842	-0.078	-0.01	1.012	0.1145916	0.1718874	0	179.0092679	-4.3831287	-129.2879727
8.43	843	-0.076	-0.011	1.01	0.286479	0.4010706	0	179.0092679	-4.38885828	-129.2879727
8.44	844	-0.077	-0.012	1.013	0.1718874	0.572958	0	179.0149975	-4.39458786	-129.2879727
8.45	845	-0.077	-0.009	1.017	-0.0572958	0.5156622	-0.0572958	179.0149975	-4.39458786	-129.2879727
8.46	846	-0.078	-0.01	1.019	-0.2291832	0.0572958	0	179.0092679	-4.40031744	-129.2879727
8.47	847	-0.077	-0.01	1.019	-0.1145916	-0.1718874	0	179.0092679	-4.39458786	-129.2879727
8.48	848	-0.077	-0.012	1.016	-0.0572958	-0.1145916	0	179.0092679	-4.39458786	-129.2879727
8.49	849	-0.077	-0.012	1.013	0	-0.1718874	0	179.0092679	-4.39458786	-129.2879727
8.5	850	-0.076	-0.01	1.014	0.1145916	-0.2291832	0.0572958	179.0092679	-4.3831287	-129.2879727
8.51	851	-0.077	-0.01	1.014	0.1145916	-0.0572958	0	179.0092679	-4.3831287	-129.2879727
8.52	852	-0.076	-0.01	1.013	0.1145916	0	0.0572958	179.0149975	-4.3831287	-129.2879727
8.53	853	-0.076	-0.01	1.013	0	0.0572958	0	179.0149975	-4.3831287	-129.2937023
8.54	854	-0.077	-0.01	1.012	0.1145916	0.0572958	0	179.0149975	-4.3831287	-129.2879727
8.55	855	-0.077	-0.011	1.012	0.1145916	0.1145916	0	179.0092679	-4.37739912	-129.2879727
8.56	856	-0.077	-0.01	1.013	0	0.1145916	0	179.0092679	-4.3831287	-129.2879727
8.57	857	-0.077	-0.01	1.014	0	0.1145916	0	179.0092679	-4.3831287	-129.2879727
8.58	858	-0.076	-0.01	1.013	0.0572958	0.1718874	0	179.0092679	-4.3831287	-129.2879727
8.59	859	-0.077	-0.011	1.015	0	0.1145916	-0.0572958	179.0092679	-4.38885828	-129.2879727
8.6	860	-0.076	-0.01	1.016	0.0572958	0.1145916	0	178.9920792	-4.37166954	-129.2879727
8.61	861	-0.078	-0.01	1.016	0	0.1145916	0	178.9920792	-4.37166954	-129.2879727
8.62	862	-0.076	-0.01	1.017	0	0.0572958	0	178.9920792	-4.37166954	-129.2879727
8.63	863	-0.077	-0.011	1.016	0.0572958	0	0	178.9920792	-4.37166954	-129.2879727
8.64	864	-0.077	-0.01	1.014	0.0572958	0	0	178.9920792	-4.37166954	-129.2879727
8.65	865	-0.077	-0.011	1.015	0	-0.0572958	0	178.98062	-4.37166954	-129.2879727
8.66	866	-0.077	-0.011	1.015	0	-0.0572958	0	178.98062	-4.37166954	-129.2879727
8.67	867	-0.077	-0.011	1.014	0	-0.1145916	0	178.98062	-4.36593996	-129.2879727
8.68	868	-0.076	-0.011	1.012	0	0	0	178.98062	-4.36593996	-129.2879727
8.69	869	-0.077	-0.011	1.012	0.0572958	0	0	178.98062	-4.36593996	-129.2879727
8.7	870	-0.076	-0.01	1.012	-0.1145916	0.1718874	-0.0572958	178.98062	-4.36021038	-129.2822431
8.71	871	-0.077	-0.01	1.014	-0.1145916	0.1145916	0	178.98062	-4.36021038	-129.2822431
8.72	872	-0.077	-0.01	1.015	-0.286479	0	0	178.9748905	-4.36021038	-129.2822431
8.73	873	-0.076	-0.01	1.016	-0.3437748	0.0572958	-0.0572958	178.9748905	-4.36021038	-129.2822431
8.74	874	-0.077	-0.01	1.015	-0.286479	0	0	178.9691609	-4.36021038	-129.2822431
8.75	875	-0.077	-0.01	1.016	-0.3437748	0	-0.0572958	178.9691609	-4.36021038	-129.2822431
8.76	876	-0.076	-0.011	1.016	-0.286479	0.0572958	0	178.9691609	-4.36021038	-129.2822431
8.77	877	-0.077	-0.01	1.015	-0.1718874	0	0	178.9634313	-4.36021038	-129.2822431
8.78	878	-0.077	-0.01	1.016	-0.1718874	0.0572958	0	178.9634313	-4.36021038	-129.2822431
8.79	879	-0.077	-0.01	1.015	-0.1145916	0.0572958	0	178.9634313	-4.36593996	-129.2822431
8.8	880	-0.076	-0.01	1.015	-0.1145916	0.0572958	0	178.9577017	-4.3544808	-129.2822431
8.81	881	-0.077	-0.01	1.014	-0.1145916	0	0	178.9577017	-4.36021038	-129.2822431
8.82	882	-0.077	-0.011	1.013	-0.1718874	0	0	178.9577017	-4.36021038	-129.2822431
8.83	883	-0.077	-0.011	1.013	0	0.0572958	0	178.9577017	-4.36021038	-129.2822431
8.84	884	-0.077	-0.01	1.013	0	0.0572958	0	178.9577017	-4.36021038	-129.2822431
8.85	885	-0.077	-0.011	1.012	0	0.0572958	0	178.9519721	-4.36021038	-129.2822431
8.86	886	-0.077	-0.011	1.01	0	0.0572958	0	178.9519721	-4.36021038	-129.2822431
8.87	887	-0.076	-0.012	1.008	0	0.1145916	0	178.9519721	-4.36021038	-129.2822431
8.88	888	-0.076	-0.011	1.009	-0.0572958	0.3437748	0	178.9519721	-4.36593996	-129.2822431
8.89	889	-0.077	-0.011	1.012	0	0.4010706	0	178.9519721	-4.37166954	-129.2822431
8.9	890	-0.078	-0.011	1.014	-0.0572958	0.3437748	0	178.9519721	-4.37739912	-129.2822431
8.91	891	-0.076	-0.011	1.016	-0.1145916	0.4010706	0	178.9519721	-4.37739912	-129.2822431
8.92	892	-0.077	-0.011	1.017	-0.1718874	0.4010706	0	178.9462426	-4.3831287	-129.2879727
8.93	893	-0.076	-0.01	1.017	-0.0572958	0.3437748	0	178.9462426	-4.38885828	-129.2879727
8.94	894	-0.077	-0.011	1.012	-0.2291832	0.4010706	0	178.9462426	-4.39458786	-129.2879727
8.95	895	-0.078	-0.011	1.012	-0.3437748	0.572958	0	178.940513	-4.39458786	-129.2822431
8.96	896	-0.077	-0.011	1.013	-0.4010706	0.4583664	0	178.9347834	-4.40031744	-129.2822431
8.97	897	-0.078	-0.01	1.013	-0.3437748	0.4010706	0	178.9290538	-4.40604702	-129.2822431
8.98	898	-0.077	-0.011	1.011	-0.4010706	0.4010706	0	178.9290538	-4.4117766	-129.2822431
8.99	899	-0.078	-0.011	1.01	-0.3437748	0.2291832	0	178.9233242	-4.4117766	-129.2822431
9	900	-0.077	-0.012	1.012	-0.286479	0.286479	0	178.9175947	-4.4117766	-129.2822431
9.01	901	-0.077	-0.012	1.014	-0.3437748	0.286479	0	178.9118651	-4.4117766	-129.2822431
9.02	902	-0.078	-0.011	1.014	-0.4010706	0.4583664	0	178.9118651	-4.41750618	-129.2822431
9.03	903	-0.079	-0.011	1.015	-0.3437748	0.4583664	0	178.9061355	-4.42323576	-129.2822431
9.04	904	-0.078	-0.011	1.017	-0.3437748	0.5156622	0	178.9004059	-4.42896534	-129.2822431
9.05	905	-0.079	-0.012	1.016	-0.4010706	0.572958	0	178.9004059	-4.43469492	-129.2822431
9.06	906	-0.078	-0.012	1.014	-0.286479	0.5156622	0	178.8946763	-4.4404245	-129.2822431
9.07	907	-0.078	-0.012	1.015	-0.4010706	0.6302538	0	178.8889468	-4.44615408	-129.2822431
9.08	908	-0.079	-0.012	1.017	-0.1718874	0.572958	0	178.8889468	-4.45188366	-129.2822431
9.09	909	-0.078	-0.011	1.017	-0.0572958	0.4583664	0	178.8889468	-4.45761324	-129.2822431
9.1	910	-0.079	-0.011	1.016	0.0572958	0.286479	-0.0572958	178.8889468	-4.46334282	-129.2822431
9.11	911	-0.079	-0.012	1.017	0.1145916	0.2291832	0	178.8889468	-4.46334282	-129.2822431
9.12	912	-0.079	-0.012	1.014	0	0.1145916	-0.0572958	178.8889468	-4.46334282	-129.2822431
9.13	913	-0.08	-0.012	1.013	-0.1145916	0.0572958	0	178.8889468	-4.46334282	-129.2822431
9.14	914	-0.079	-0.012	1.014	-0.1718874	0.0572958	-0.0572958	178.8832172	-4.4690724	-129.2822431
9.15	915	-0.08	-0.013	1.015	-0.1145916	0	-0.0572958	178.8774876	-4.45761324	-129.2822431
9.16	916	-0.079	-0.012	1.014	-0.0572958	0	-0.0572958	178.8774876	-4.46334282	-129.2765135
9.17	917	-0.078	-0.011	1.015	-0.0572958	0	0	178.8774876	-4.46334282	-129.2765135
9.18	918	-0.079	-0.012	1.014	0.1145916	0	0	178.8774876	-4.46334282	-129.2765135
9.19	919	-0.081	-0.013	1.014	0.1718874	-0.286479	0	178.8774876	-4.45761324	-129.2765135
9.2	920	-0.08	-0.013	1.012	0	-0.286479	0	178.8774876	-4.45761324	-129.2765135
9.21	921	-0.08	-0.014	1.009	-0.2291832	-0.4583664	0	178.8774876	-4.45188366	-129.2765135
9.22	922	-0.079	-0.014	1.005	-0.5156622	-0.6875496	0	178.871758	-4.44615408	-129.2765135
9.23	923	-0.079	-0.014	1.003	-0.572958	-0.6302538	0	178.8660284	-4.4404245	-129.2765135
9.24	924	-0.079	-0.016	1.001	-0.572958	-0.5156622	0	178.8602989	-4.43469492	-129.2822431
9.25	925	-0.079	-0.015	1.006	-0.8021412	-0.2291832	0	178.8488397	-4.43469492	-129.2822431
9.26	926	-0.081	-0.014	1.011	-1.0313244	0.0572958	0	178.8373805	-4.43469492	-129.2822431
9.27	927	-0.081	-0.012	1.019	-0.5156622	0.2291832	-0.0572958	178.831651	-4.43469492	-129.2765135
9.28	928	-0.08	-0.013	1.022	0.4583664	0.4010706	0	178.8373805	-4.4404245	-129.2765135
9.29	929	-0.081	-0.013	1.02	1.0886202	0.6302538	0	178.8488397	-4.44615408	-129.2765135
9.3	930	-0.08	-0.013	1.018	1.2605076	0.6302538	0	178.8602989	-4.45188366	-129.2765135
