TimeStamp(s)	FrameCounter	AccX	AccY	AccZ	GyrX	GyrY	GyrZ	EulerX	EulerY	EulerZ
0.01	1	-0.012	-0.992	0.108	1.4896908	0.1145916	-0.0572958	94.89903354	-0.55003968	9.61996482
0.02	2	-0.008	-0.992	0.107	2.1199446	0.6302538	-0.1718874	94.92195186	-0.55003968	9.6256944
0.03	3	-0.01	-0.998	0.11	2.005353	0.9740286	-0.286479	94.9391406	-0.5443101	9.63715356
0.04	4	-0.014	-1.008	0.112	1.7761698	1.2605076	-0.5156622	94.96205892	-0.5443101	9.64861272
0.05	5	-0.018	-1.019	0.11	1.432395	1.432395	-0.8021412	94.97351808	-0.53858052	9.66580146
0.06	6	-0.022	-1.02	0.105	1.0313244	1.3750992	-0.9167328	94.97924766	-0.53285094	9.67726062
0.07	7	-0.024	-1.015	0.103	0.6875496	1.3178034	-0.9167328	94.99070682	-0.52712136	9.69444936
0.08	8	-0.024	-1.012	0.102	0.3437748	1.2032118	-0.9167328	94.99070682	-0.5156622	9.70590852
0.09	9	-0.024	-1.008	0.099	0	1.2605076	-0.9167328	94.99070682	-0.50993262	9.72309726
0.1	10	-0.024	-1.011	0.094	-0.3437748	1.6615782	-0.8021412	94.96205892	-0.5156622	9.74601558
0.11	11	-0.026	-1.01	0.091	-0.5156622	1.7761698	-0.4583664	94.95632934	-0.5156622	9.76320432
0.12	12	-0.024	-1.004	0.093	-0.4583664	1.6042824	-0.1145916	94.95632934	-0.5156622	9.78039306
0.13	13	-0.022	-0.996	0.095	-0.4010706	1.4896908	0.1718874	94.95059976	-0.52139178	9.79185222
0.14	14	-0.018	-0.99	0.097	-0.1145916	1.6042824	0.4583664	94.94487018	-0.52712136	9.80904096
0.15	15	-0.017	-0.99	0.097	0.1145916	1.7761698	0.6302538	94.93341102	-0.53858052	9.83195928
0.16	16	-0.017	-0.993	0.095	0.5156622	1.8907614	0.6302538	94.9391406	-0.55003968	9.84914802
0.17	17	-0.018	-1	0.094	0.6875496	1.718874	0.286479	94.94487018	-0.55576926	9.86633676
0.18	18	-0.02	-1.002	0.09	0.9167328	1.2605076	0.286479	94.95632934	-0.56149884	9.87779592
0.19	19	-0.023	-1.002	0.095	1.145916	0.9740286	0	94.9677885	-0.56149884	9.88925508
0.2	20	-0.024	-1.001	0.098	1.0313244	0.9167328	-0.2291832	94.95632934	-0.572958	9.90071424
0.21	21	-0.025	-1.004	0.095	0.9740286	1.145916	-0.4010706	94.9677885	-0.56722842	9.9121734
0.22	22	-0.026	-1.006	0.093	1.2032118	1.432395	-0.572958	94.97924766	-0.56722842	9.92936214
0.23	23	-0.025	-1.011	0.093	1.3750992	1.3178034	-0.6302538	94.99070682	-0.56149884	9.94655088
0.24	24	-0.023	-1.013	0.092	1.2605076	1.0313244	-0.4583664	95.00789556	-0.55576926	9.95228046
0.25	25	-0.019	-1.013	0.092	1.0313244	0.4583664	-0.0572958	94.96205892	-0.56722842	9.97519878
0.26	26	-0.014	-1.011	0.091	0.7448454	-0.0572958	0.1145916	94.9677885	-0.56722842	9.9694692
0.27	27	-0.009	-1.009	0.091	0.5156622	-0.3437748	0.286479	94.97351808	-0.572958	9.9694692
0.28	28	-0.008	-1.008	0.089	0.1145916	-0.4583664	0.1718874	94.97924766	-0.572958	9.96373962
0.29	29	-0.008	-1.009	0.088	-0.0572958	-0.6302538	0.2291832	94.97351808	-0.572958	9.95801004
0.3	30	-0.007	-1.007	0.088	-0.3437748	-1.145916	0.1718874	94.9391406	-0.56722842	9.95228046
0.31	31	-0.009	-1.004	0.088	-0.4583664	-1.9480572	0.4583664	94.9391406	-0.56722842	9.92936214
0.32	32	-0.01	-0.999	0.089	-0.3437748	-2.6929026	0.8021412	94.93341102	-0.572958	9.90071424
0.33	33	-0.01	-0.995	0.091	-0.1718874	-3.3231564	1.0313244	94.93341102	-0.57868758	9.86633676
0.34	34	-0.014	-0.996	0.089	-0.2291832	-3.6096354	1.0313244	94.93341102	-0.59014674	9.83195928
0.35	35	-0.017	-0.995	0.09	-0.1145916	-3.6096354	0.8021412	94.91622228	-0.59587632	9.7975818
0.36	36	-0.022	-0.996	0.091	0.1718874	-3.5523396	0.572958	94.91622228	-0.6016059	9.76320432
0.37	37	-0.025	-0.997	0.094	0.4583664	-3.4950438	0.3437748	94.92195186	-0.59587632	9.72882684
0.38	38	-0.027	-1.001	0.097	0.572958	-3.3804522	0.3437748	94.92768144	-0.59587632	9.69444936
0.39	39	-0.026	-1.005	0.103	0.6302538	-3.2085648	0.4583664	94.9391406	-0.6016059	9.66580146
0.4	40	-0.023	-1.012	0.11	0.1718874	-2.6929026	0.572958	94.94487018	-0.60733548	9.63715356
0.41	41	-0.023	-1.019	0.107	-1.0313244	-2.2345362	0.8021412	94.93341102	-0.61306506	9.61423524
0.42	42	-0.022	-1.022	0.094	-2.1772404	-2.0626488	1.0886202	94.9104927	-0.62452422	9.59131692
0.43	43	-0.021	-1.021	0.081	-2.4064236	-2.2345362	1.2605076	94.88757438	-0.63598338	9.5683986
0.44	44	-0.02	-1.018	0.077	-2.3491278	-2.4064236	1.2605076	94.86465606	-0.64171296	9.5397507
0.45	45	-0.021	-1.013	0.075	-2.0626488	-2.6356068	1.2605076	94.824549	-0.6589017	9.51683238
0.46	46	-0.025	-1.01	0.073	-2.005353	-2.6929026	1.145916	94.80163068	-0.67036086	9.48818448
0.47	47	-0.027	-1.006	0.071	-1.718874	-2.86479	0.859437	94.78444194	-0.67036086	9.45953658
0.48	48	-0.03	-1.001	0.071	-1.6042824	-2.6356068	0.6302538	94.7672532	-0.67609044	9.43661826
0.49	49	-0.031	-0.998	0.07	-1.3178034	-2.4637194	0.3437748	94.75579404	-0.67609044	9.40797036
0.5	50	-0.028	-0.995	0.071	-1.0886202	-2.005353	0.2291832	94.70422782	-0.69327918	9.40224078
0.51	51	-0.026	-0.994	0.069	-0.7448454	-1.432395	0.1718874	94.69276866	-0.69327918	9.38505204
0.52	52	-0.026	-0.998	0.074	-0.8021412	-0.9740286	0.286479	94.68703908	-0.69327918	9.37359288
0.53	53	-0.025	-1.004	0.079	-1.0886202	-0.4583664	0.4010706	94.67557992	-0.69900876	9.3678633
0.54	54	-0.024	-1.005	0.081	-1.3178034	-0.4583664	0.4583664	94.65839118	-0.70473834	9.36213372
0.55	55	-0.024	-1.004	0.082	-1.3750992	-0.572958	0.4010706	94.61828412	-0.7161975	9.36213372
0.56	56	-0.021	-0.999	0.086	-1.432395	-0.9167328	0.5156622	94.60109538	-0.72192708	9.35640414
0.57	57	-0.02	-0.998	0.085	-1.3750992	-1.145916	0.6302538	94.58963622	-0.72765666	9.34494498
0.58	58	-0.017	-1.002	0.082	-1.2032118	-1.2032118	0.572958	94.57817706	-0.72765666	9.32775624
0.59	59	-0.017	-1.005	0.079	-0.9167328	-1.2032118	0.572958	94.5667179	-0.73338624	9.31629708
0.6	60	-0.021	-1.007	0.079	-0.572958	-1.3178034	0.4583664	94.52088126	-0.7448454	9.3105675
0.61	61	-0.025	-1.006	0.082	-0.286479	-1.2605076	0.2291832	94.52088126	-0.7448454	9.29910834
0.62	62	-0.026	-1.003	0.084	-0.1145916	-1.145916	0.1718874	94.51515168	-0.75057498	9.28764918
0.63	63	-0.029	-1	0.087	-0.0572958	-1.145916	0.1718874	94.51515168	-0.75057498	9.27619002
0.64	64	-0.028	-1	0.086	-0.1145916	-1.0886202	0.0572958	94.51515168	-0.75057498	9.26473086
0.65	65	-0.027	-1.003	0.083	-0.1145916	-1.0313244	0	94.46358546	-0.7734933	9.26473086
0.66	66	-0.023	-1.005	0.084	-0.2291832	-0.9167328	0	94.45785588	-0.76776372	9.25900128
0.67	67	-0.022	-1.006	0.086	-0.286479	-0.8021412	0.1145916	94.45785588	-0.7734933	9.24754212
0.68	68	-0.022	-1.008	0.085	-0.4583664	-0.859437	0.0572958	94.4521263	-0.7734933	9.24181254
0.69	69	-0.02	-1.011	0.085	-0.6875496	-0.6875496	0	94.44639672	-0.76776372	9.23035338
0.7	70	-0.019	-1.013	0.082	-0.9167328	-0.8021412	-0.1145916	94.40056008	-0.76776372	9.23035338
0.71	71	-0.019	-1.012	0.08	-1.145916	-1.0313244	-0.2291832	94.38910092	-0.76203414	9.21889422
0.72	72	-0.019	-1.009	0.08	-1.145916	-1.145916	-0.2291832	94.37764176	-0.76203414	9.20743506
0.73	73	-0.02	-1.006	0.08	-1.2605076	-1.2605076	-0.3437748	94.3661826	-0.75630456	9.1959759
0.74	74	-0.02	-1.002	0.079	-1.3750992	-1.3750992	-0.3437748	94.34899386	-0.75057498	9.18451674
0.75	75	-0.021	-1	0.077	-1.3750992	-1.3750992	-0.286479	94.3088868	-0.75057498	9.17305758
0.76	76	-0.021	-0.998	0.075	-1.2605076	-1.145916	-0.1718874	94.29742764	-0.7448454	9.16159842
0.77	77	-0.023	-1.001	0.074	-1.2032118	-1.0886202	-0.1145916	94.28596848	-0.7448454	9.15013926
0.78	78	-0.024	-1	0.074	-1.0313244	-1.0886202	-0.0572958	94.27450932	-0.7448454	9.1386801
0.79	79	-0.026	-0.999	0.076	-0.859437	-1.0886202	0	94.26877974	-0.73911582	9.12722094
0.8	80	-0.025	-0.997	0.082	-0.6302538	-0.9740286	0.0572958	94.23440226	-0.75630456	9.12149136
0.81	81	-0.025	-0.996	0.085	-0.5156622	-0.6875496	0.1145916	94.22867268	-0.75630456	9.11576178
0.82	82	-0.024	-0.999	0.087	-0.4583664	-0.1145916	0	94.2229431	-0.75630456	9.11576178
0.83	83	-0.023	-1.002	0.083	-0.286479	0.4583664	-0.1145916	94.2229431	-0.75630456	9.12149136
0.84	84	-0.022	-1.007	0.082	-0.1718874	0.9167328	-0.1718874	94.21721352	-0.75630456	9.12722094
0.85	85	-0.021	-1.009	0.081	-0.2291832	0.859437	-0.4010706	94.17710646	-0.76203414	9.14440968
0.86	86	-0.021	-1.008	0.086	-0.0572958	0.6302538	-0.4010706	94.17710646	-0.76203414	9.15586884
0.87	87	-0.019	-1.007	0.095	-0.1718874	0.572958	-0.2291832	94.17710646	-0.75630456	9.16159842
0.88	88	-0.018	-1.005	0.097	-0.6302538	0.6302538	-0.1718874	94.1656473	-0.75630456	9.167328
0.89	89	-0.016	-1.003	0.095	-0.6875496	0.859437	-0.0572958	94.15991772	-0.75630456	9.17305758
0.9	90	-0.014	-1.003	0.09	-0.572958	0.8021412	0	94.1369994	-0.7448454	9.18451674
0.91	91	-0.017	-1.002	0.086	-0.4010706	0.4583664	0	94.13126982	-0.7448454	9.19024632
0.92	92	-0.017	-1.003	0.086	-0.1718874	0.2291832	0	94.13126982	-0.7448454	9.19024632
0.93	93	-0.016	-1.005	0.088	-0.0572958	0.1718874	-0.0572958	94.13126982	-0.7448454	9.1959759
0.94	94	-0.017	-1.008	0.088	-0.1145916	0.1145916	-0.1718874	94.12554024	-0.7448454	9.1959759
0.95	95	-0.018	-1.009	0.087	-0.286479	0.2291832	-0.3437748	94.09689234	-0.7448454	9.20170548
0.96	96	-0.016	-1.009	0.086	-0.4583664	0.2291832	-0.3437748	94.09116276	-0.73911582	9.20743506
0.97	97	-0.015	-1.009	0.083	-0.8021412	0.2291832	-0.286479	94.08543318	-0.73911582	9.20743506
0.98	98	-0.014	-1.009	0.082	-0.9740286	-0.1145916	-0.1145916	94.07397402	-0.73338624	9.20743506
0.99	99	-0.014	-1.007	0.083	-0.9740286	-0.4010706	0	94.06251486	-0.73338624	9.20170548
1	100	-0.016	-1.008	0.084	-0.9740286	-0.4583664	0.1718874	94.03386696	-0.73338624	9.20170548
1.01	101	-0.017	-1.01	0.085	-1.145916	-0.286479	0.286479	94.0224078	-0.73911582	9.1959759
1.02	102	-0.021	-1.009	0.087	-1.3178034	-0.2291832	0.2291832	94.01094864	-0.73911582	9.1959759
1.03	103	-0.022	-1.005	0.087	-1.3750992	-0.2291832	0.1145916	93.9937599	-0.73911582	9.19024632
1.04	104	-0.02	-0.998	0.086	-1.3750992	0	0	93.98230074	-0.7448454	9.19024632
1.05	105	-0.018	-0.993	0.083	-1.145916	0.1145916	0	93.95365284	-0.7448454	9.1959759
1.06	106	-0.017	-0.993	0.083	-0.9740286	0.1145916	0	93.94219368	-0.7448454	9.1959759
1.07	107	-0.015	-0.997	0.08	-0.8021412	0.2291832	-0.0572958	93.9364641	-0.7448454	9.20170548
1.08	108	-0.015	-1	0.08	-0.6302538	0.4010706	0	93.92500494	-0.7448454	9.20743506
1.09	109	-0.014	-1.003	0.081	-0.3437748	0.5156622	0	93.92500494	-0.7448454	9.21316464
1.1	110	-0.013	-1.003	0.083	-0.1718874	0.6302538	0.1145916	93.89062746	-0.72765666	9.21889422
1.11	111	-0.017	-1.005	0.082	-0.1145916	0.572958	0.1718874	93.89062746	-0.73338624	9.2246238
1.12	112	-0.019	-1.006	0.081	0	0.5156622	0.2291832	93.89062746	-0.73338624	9.23035338
1.13	113	-0.02	-1.009	0.081	0	0.4583664	0.2291832	93.89062746	-0.73911582	9.23608296
1.14	114	-0.02	-1.009	0.081	-0.2291832	0.5156622	0.286479	93.88489788	-0.73911582	9.24181254
1.15	115	-0.02	-1.009	0.081	-0.286479	0.4583664	0.3437748	93.86770914	-0.75057498	9.24754212
1.16	116	-0.019	-1.007	0.084	-0.3437748	0.572958	0.3437748	93.86197956	-0.75630456	9.2532717
1.17	117	-0.019	-1.006	0.083	-0.3437748	0.7448454	0.4010706	93.85624998	-0.76203414	9.26473086
1.18	118	-0.019	-1.006	0.083	-0.2291832	0.9167328	0.4010706	93.85624998	-0.76776372	9.27046044
1.19	119	-0.018	-1.005	0.082	-0.286479	1.145916	0.1718874	93.8505204	-0.76776372	9.2819196
1.2	120	-0.02	-1.007	0.081	-0.286479	1.3178034	0.0572958	93.83333166	-0.77922288	9.29910834
1.21	121	-0.022	-1.006	0.083	-0.4583664	1.4896908	0	93.82760208	-0.77922288	9.31629708
1.22	122	-0.024	-1.006	0.085	-0.572958	1.3178034	-0.0572958	93.8218725	-0.77922288	9.32775624
1.23	123	-0.023	-1.006	0.085	-0.7448454	1.432395	-0.1145916	93.81041334	-0.77922288	9.3392154
1.24	124	-0.022	-1.003	0.085	-0.8021412	1.5469866	-0.2291832	93.80468376	-0.77922288	9.35640414
1.25	125	-0.019	-1.004	0.083	-0.8021412	1.718874	-0.1718874	93.78749502	-0.7734933	9.37359288
1.26	126	-0.018	-1.003	0.081	-0.7448454	1.9480572	-0.1718874	93.78176544	-0.7734933	9.3965112
1.27	127	-0.017	-1.005	0.081	-0.5156622	2.1199446	-0.1718874	93.77603586	-0.7734933	9.41369994
1.28	128	-0.016	-1.003	0.08	-0.3437748	2.3491278	-0.1145916	93.77030628	-0.7734933	9.43661826
1.29	129	-0.016	-1.004	0.082	-0.3437748	2.4064236	-0.0572958	93.7645767	-0.77922288	9.46526616
1.3	130	-0.016	-1.004	0.081	-0.286479	2.4064236	0	93.75311754	-0.7734933	9.48818448
1.31	131	-0.014	-1.004	0.081	-0.4010706	2.3491278	0.0572958	93.74738796	-0.77922288	9.5111028
1.32	132	-0.014	-1.005	0.079	-0.4010706	2.1772404	0.1718874	93.74165838	-0.78495246	9.53402112
1.33	133	-0.013	-1.006	0.08	-0.5156622	1.8907614	0.286479	93.7359288	-0.79068204	9.55120986
1.34	134	-0.014	-1.006	0.078	-0.572958	1.6615782	0.4010706	93.73019922	-0.79641162	9.5683986
1.35	135	-0.014	-1.007	0.078	-0.572958	1.4896908	0.3437748	93.71301048	-0.79068204	9.58558734
1.36	136	-0.016	-1.005	0.078	-0.6302538	1.3178034	0.3437748	93.7072809	-0.79641162	9.5970465
1.37	137	-0.017	-1.003	0.079	-0.5156622	1.0313244	0.3437748	93.70155132	-0.8021412	9.60850566
1.38	138	-0.017	-1.003	0.079	-0.4583664	0.9740286	0.2291832	93.69582174	-0.80787078	9.61423524
1.39	139	-0.017	-1.002	0.079	-0.4010706	0.859437	0.1718874	93.69009216	-0.80787078	9.6256944
1.4	140	-0.016	-1.003	0.078	-0.286479	0.9740286	0	93.66717384	-0.8021412	9.63715356
1.41	141	-0.017	-1.003	0.08	-0.2291832	1.2605076	-0.1145916	93.66717384	-0.8021412	9.64861272
1.42	142	-0.017	-1.004	0.079	-0.1718874	1.432395	-0.1145916	93.66144426	-0.8021412	9.66580146
1.43	143	-0.018	-1.007	0.078	-0.1718874	1.432395	0	93.66144426	-0.8021412	9.67726062
1.44	144	-0.017	-1.006	0.078	0	1.2032118	0.0572958	93.66144426	-0.80787078	9.68871978
1.45	145	-0.016	-1.006	0.08	0.0572958	1.0886202	0.1718874	93.64425552	-0.79641162	9.70017894
1.46	146	-0.015	-1.002	0.083	0.0572958	1.145916	0.2291832	93.64425552	-0.8021412	9.7116381
1.47	147	-0.014	-1.002	0.084	0.1145916	0.9740286	0.286479	93.6499851	-0.8021412	9.72309726
1.48	148	-0.012	-1.003	0.084	0.1145916	0.859437	0.286479	93.6499851	-0.80787078	9.73455642
1.49	149	-0.011	-1.004	0.088	0	0.572958	0.3437748	93.6499851	-0.81360036	9.740286
1.5	150	-0.011	-1.01	0.09	-0.286479	0.2291832	0.2291832	93.67290342	-0.79068204	9.73455642
1.51	151	-0.011	-1.011	0.09	-0.572958	0	0.2291832	93.66717384	-0.79068204	9.73455642
1.52	152	-0.011	-1.007	0.092	-0.5156622	-0.1145916	0.1718874	93.66144426	-0.79641162	9.73455642
1.53	153	-0.01	-1.002	0.092	-0.4583664	-0.286479	0.1145916	93.65571468	-0.79641162	9.72882684
1.54	154	-0.011	-1.001	0.092	-0.4010706	-0.4010706	0.0572958	93.6499851	-0.79641162	9.72309726
1.55	155	-0.012	-1.003	0.09	-0.4583664	-0.4583664	0.0572958	93.66144426	-0.7734933	9.71736768
1.56	156	-0.013	-1.005	0.086	-0.572958	-0.4010706	0	93.65571468	-0.7734933	9.7116381
1.57	157	-0.013	-1.006	0.084	-0.572958	-0.5156622	0.1145916	93.6499851	-0.7734933	9.70590852
1.58	158	-0.013	-1.006	0.083	-0.572958	-0.859437	0.1718874	93.64425552	-0.7734933	9.70017894
1.59	159	-0.012	-1.004	0.084	-0.5156622	-1.0886202	0.2291832	93.63852594	-0.77922288	9.68871978
1.6	160	-0.013	-1.005	0.084	-0.286479	-1.432395	0.5156622	93.63279636	-0.7734933	9.67153104
1.61	161	-0.015	-1.006	0.083	-0.1718874	-1.718874	0.572958	93.63279636	-0.77922288	9.6543423
1.62	162	-0.016	-1.006	0.083	-0.2291832	-2.005353	0.572958	93.62706678	-0.78495246	9.63715356
1.63	163	-0.017	-1.006	0.082	-0.286479	-2.0626488	0.5156622	93.62706678	-0.79068204	9.61423524
1.64	164	-0.018	-1.005	0.081	-0.286479	-1.8907614	0.3437748	93.62706678	-0.79068204	9.5970465
1.65	165	-0.019	-1.005	0.081	-0.2291832	-1.7761698	0.286479	93.61560762	-0.79068204	9.57985776
1.66	166	-0.02	-1.005	0.08	-0.4010706	-1.7761698	0.1145916	93.60987804	-0.79068204	9.56266902
1.67	167	-0.021	-1.005	0.079	-0.4010706	-1.8334656	0.1145916	93.60414846	-0.79068204	9.5397507
1.68	168	-0.021	-1.006	0.08	-0.4010706	-1.8907614	0.1718874	93.60414846	-0.79068204	9.52256196
1.69	169	-0.022	-1.006	0.081	-0.4583664	-1.8907614	0.1718874	93.59841888	-0.79068204	9.50537322
1.7	170	-0.022	-1.005	0.084	-0.3437748	-1.8334656	0.1145916	93.5926893	-0.79641162	9.4824549
1.71	171	-0.02	-1.006	0.084	-0.5156622	-1.718874	0	93.5926893	-0.79068204	9.46526616
1.72	172	-0.02	-1.006	0.085	-0.6875496	-1.6042824	-0.0572958	93.58123014	-0.79068204	9.453807
1.73	173	-0.02	-1.006	0.084	-0.859437	-1.432395	-0.1145916	93.57550056	-0.79068204	9.43661826
1.74	174	-0.02	-1.007	0.085	-1.0313244	-1.3750992	-0.1145916	93.5640414	-0.78495246	9.4251591
1.75	175	-0.021	-1.007	0.083	-1.2032118	-1.2032118	0.0572958	93.55258224	-0.78495246	9.41369994
1.76	176	-0.019	-1.007	0.084	-1.2032118	-1.2032118	0.1718874	93.5353935	-0.78495246	9.3965112
1.77	177	-0.019	-1.008	0.085	-1.432395	-1.3178034	0.1718874	93.52393434	-0.79068204	9.38505204
1.78	178	-0.019	-1.009	0.085	-1.6042824	-1.3750992	0.1718874	93.5067456	-0.79068204	9.37359288
1.79	179	-0.018	-1.008	0.083	-1.8334656	-1.5469866	0.2291832	93.48955686	-0.79068204	9.35640414
1.8	180	-0.019	-1.007	0.082	-1.8907614	-1.718874	0.3437748	93.46663854	-0.79641162	9.3392154
1.81	181	-0.022	-1.005	0.079	-1.7761698	-1.8907614	0.4010706	93.4494498	-0.79641162	9.31629708
1.82	182	-0.024	-1.003	0.079	-1.6615782	-2.0626488	0.4010706	93.43226106	-0.8021412	9.29910834
1.83	183	-0.025	-1	0.083	-1.4896908	-1.8907614	0.286479	93.4208019	-0.8021412	9.27619002
1.84	184	-0.026	-0.999	0.083	-1.3178034	-1.8334656	0.1718874	93.40361316	-0.8021412	9.25900128
1.85	185	-0.026	-0.998	0.086	-1.145916	-1.718874	0.1718874	93.40361316	-0.81360036	9.24181254
1.86	186	-0.027	-0.999	0.088	-1.0313244	-1.6615782	0	93.392154	-0.80787078	9.2246238
1.87	187	-0.027	-1.004	0.085	-1.0313244	-1.6042824	0	93.38069484	-0.80787078	9.20743506
1.88	188	-0.028	-1.007	0.082	-1.145916	-1.3750992	0	93.36923568	-0.80787078	9.1959759
1.89	189	-0.028	-1.01	0.081	-1.0886202	-1.0886202	0	93.35777652	-0.80787078	9.18451674
1.9	190	-0.027	-1.011	0.08	-0.9167328	-0.7448454	0	93.34631736	-0.82505952	9.17878716
1.91	191	-0.027	-1.009	0.079	-0.859437	-0.6302538	0.1718874	93.3348582	-0.82505952	9.17305758
1.92	192	-0.025	-1.006	0.08	-0.7448454	-0.5156622	0.1145916	93.32912862	-0.82505952	9.167328
1.93	193	-0.024	-1.003	0.079	-0.6875496	-0.286479	0	93.32339904	-0.82505952	9.16159842
1.94	194	-0.024	-1.001	0.08	-0.5156622	-0.1718874	-0.1145916	93.31766946	-0.82505952	9.16159842
1.95	195	-0.023	-1	0.08	-0.4010706	-0.1145916	-0.1718874	93.31193988	-0.84224826	9.16159842
1.96	196	-0.024	-1.001	0.082	-0.2291832	0	-0.2291832	93.31193988	-0.83651868	9.16159842
1.97	197	-0.023	-1.002	0.086	-0.2291832	0.286479	-0.2291832	93.3062103	-0.83651868	9.16159842
1.98	198	-0.024	-1.007	0.088	-0.3437748	0.572958	-0.1718874	93.3062103	-0.8307891	9.167328
1.99	199	-0.023	-1.011	0.088	-0.5156622	0.4583664	-0.1718874	93.30048072	-0.8307891	9.17305758
2	200	-0.02	-1.011	0.087	-0.5156622	0.2291832	-0.1718874	93.31766946	-0.82505952	9.17305758
2.01	201	-0.017	-1.008	0.088	-0.572958	-0.0572958	-0.1718874	93.31193988	-0.82505952	9.17305758
2.02	202	-0.012	-1.005	0.089	-0.6875496	-0.3437748	-0.1718874	93.3062103	-0.81932994	9.167328
2.03	203	-0.012	-1.005	0.089	-0.7448454	-0.7448454	-0.1718874	93.29475114	-0.81932994	9.16159842
2.04	204	-0.013	-1.006	0.086	-0.9167328	-0.9740286	-0.1145916	93.28902156	-0.81360036	9.15013926
2.05	205	-0.016	-1.006	0.085	-1.145916	-1.4896908	-0.1145916	93.28329198	-0.81360036	9.13295052
2.06	206	-0.018	-1.003	0.085	-1.145916	-1.8334656	0	93.27183282	-0.80787078	9.11576178
2.07	207	-0.019	-1.003	0.083	-1.0886202	-1.8907614	0.0572958	93.26037366	-0.80787078	9.09857304
2.08	208	-0.021	-1.002	0.083	-0.859437	-1.9480572	0.1145916	93.2489145	-0.80787078	9.07565472
2.09	209	-0.022	-1.003	0.082	-0.6302538	-1.6042824	0.1718874	93.24318492	-0.80787078	9.06419556
2.1	210	-0.023	-1.004	0.079	-0.4583664	-1.432395	0.2291832	93.24318492	-0.81360036	9.04700682
2.11	211	-0.023	-1.006	0.077	-0.4010706	-1.2605076	0.3437748	93.23745534	-0.81932994	9.03554766
2.12	212	-0.025	-1.007	0.076	-0.4583664	-1.2605076	0.286479	93.23172576	-0.81932994	9.01835892
2.13	213	-0.028	-1.006	0.076	-0.2291832	-1.2605076	0.3437748	93.23172576	-0.82505952	9.00689976
2.14	214	-0.029	-1.009	0.078	-0.1145916	-1.0313244	0.4010706	93.23172576	-0.82505952	8.9954406
2.15	215	-0.029	-1.01	0.08	-0.2291832	-0.5156622	0.4010706	93.23745534	-0.859437	8.98971102
2.16	216	-0.03	-1.015	0.085	-0.572958	-0.2291832	0.4010706	93.23172576	-0.859437	8.98971102
2.17	217	-0.03	-1.022	0.084	-1.3750992	-0.0572958	0.1718874	93.21453702	-0.86516658	8.98971102
2.18	218	-0.029	-1.031	0.084	-2.3491278	0.0572958	0	93.1916187	-0.86516658	8.98971102
2.19	219	-0.028	-1.041	0.086	-3.7815228	0.1145916	-0.4583664	93.15151164	-0.859437	8.98971102
2.2	220	-0.029	-1.049	0.083	-5.2712136	0.1718874	-0.8021412	93.09994542	-0.85370742	8.98971102
2.21	221	-0.029	-1.052	0.075	-6.8182002	0.6875496	-1.2605076	93.03119046	-0.84224826	9.00117018
2.22	222	-0.03	-1.055	0.064	-8.1932994	1.2605076	-1.432395	92.94524676	-0.8307891	9.01262934
2.23	223	-0.03	-1.054	0.051	-9.2819196	1.432395	-1.4896908	92.8478439	-0.81932994	9.0240885
2.24	224	-0.03	-1.045	0.041	-10.3705398	1.145916	-1.3178034	92.74471146	-0.80787078	9.03554766
2.25	225	-0.027	-1.035	0.033	-11.8602306	0.7448454	-1.0313244	92.61293112	-0.79641162	9.04127724
2.26	226	-0.023	-1.021	0.025	-13.1207382	0.3437748	-0.859437	92.48115078	-0.79068204	9.04700682
2.27	227	-0.02	-1.008	0.019	-13.8655836	0.0572958	-0.8021412	92.33791128	-0.78495246	9.04700682
2.28	228	-0.019	-1.002	0.013	-14.32395	-0.2291832	-0.7448454	92.19467178	-0.77922288	9.04127724
2.29	229	-0.019	-0.999	0.006	-14.5531332	-0.4583664	-0.8021412	92.0457027	-0.76776372	9.03554766
2.3	230	-0.018	-0.999	0.004	-14.4958374	-0.5156622	-0.8021412	91.88527446	-0.76203414	9.02981808
2.31	231	-0.019	-1	0.005	-14.610429	-0.5156622	-0.859437	91.73630538	-0.75630456	9.0240885
2.32	232	-0.023	-1.003	0.005	-14.9542038	-0.3437748	-0.859437	91.5873363	-0.7448454	9.01835892
2.33	233	-0.028	-1.008	0.001	-15.756345	-0.3437748	-0.859437	91.42690806	-0.73911582	9.01262934
2.34	234	-0.034	-1.01	-0.003	-16.7876694	-0.4010706	-0.6302538	91.25502066	-0.73338624	9.00689976
2.35	235	-0.035	-1.013	-0.002	-17.475219	-0.9167328	-0.4583664	91.0716741	-0.73338624	8.9954406
2.36	236	-0.039	-1.014	0.007	-18.8503182	-1.2032118	-0.4010706	90.87686838	-0.72765666	8.98398144
2.37	237	-0.042	-1.017	0.01	-20.7410796	-0.8021412	-0.572958	90.6706035	-0.72765666	8.97252228
2.38	238	-0.042	-1.02	0.001	-22.1734746	0.0572958	-0.6875496	90.4414203	-0.72192708	8.97252228
2.39	239	-0.036	-1.024	-0.012	-22.9756158	1.0886202	-0.9740286	90.2122371	-0.71046792	8.97825186
2.4	240	-0.032	-1.031	-0.03	-22.7464326	1.4896908	-1.7761698	89.97159474	-0.69900876	8.9954406
2.41	241	-0.03	-1.038	-0.034	-22.4599536	1.3178034	-2.9220858	89.74241154	-0.67036086	9.00117018
2.42	242	-0.034	-1.036	-0.03	-23.204799	1.718874	-3.5523396	89.50749876	-0.63598338	9.01835892
2.43	243	-0.034	-1.032	-0.029	-24.4080108	2.8074942	-3.8388186	89.25539724	-0.6016059	9.04127724
2.44	244	-0.043	-1.02	-0.033	-25.7258142	3.3804522	-3.724227	88.99183656	-0.56722842	9.07565472
2.45	245	-0.044	-1.008	-0.036	-26.8717302	3.8961144	-3.724227	88.71681672	-0.53285094	9.1100322
2.46	246	-0.037	-1.005	-0.036	-28.4760126	4.297185	-4.0680018	88.42460814	-0.49847346	9.15013926
2.47	247	-0.026	-1	-0.019	-30.366774	5.156622	-4.9847346	88.11521082	-0.44690724	9.1959759
2.48	248	-0.027	-0.997	0.004	-33.231564	6.4171296	-6.016059	87.7771656	-0.38961144	9.2532717
2.49	249	-0.033	-0.993	0.001	-36.7839036	7.3911582	-6.0733548	87.4047429	-0.33231564	9.32202666
2.5	250	-0.04	-0.991	-0.02	-39.247623	6.9327918	-5.443101	87.0036723	-0.286479	9.37932246
2.51	251	-0.043	-1.001	-0.049	-40.7946096	5.6722842	-4.6982556	86.58541296	-0.24064236	9.43088868
2.52	252	-0.036	-1.002	-0.073	-42.1697088	4.7555514	-3.437748	86.15569446	-0.20626488	9.47099574
2.53	253	-0.028	-0.993	-0.088	-43.4875122	4.6409598	-2.291832	85.7145168	-0.18334656	9.5111028
2.54	254	-0.018	-0.98	-0.105	-43.8885828	5.0420304	-1.7761698	85.26760956	-0.16615782	9.55693944
2.55	255	-0.018	-0.957	-0.122	-44.690724	5.5003968	-2.3491278	84.80924316	-0.14896908	9.60277608
2.56	256	-0.02	-0.928	-0.119	-44.5188366	5.9014674	-3.2658606	84.35660634	-0.1145916	9.6543423
2.57	257	-0.011	-0.902	-0.108	-43.6593996	6.5317212	-4.1252976	83.91542868	-0.07448454	9.7116381
2.58	258	0.015	-0.878	-0.101	-43.831287	7.2765666	-5.0993262	83.46852144	-0.02291832	9.7689339
2.59	259	0.038	-0.867	-0.113	-45.2063862	6.9900876	-4.7555514	83.00442546	0.02291832	9.83195928
2.6	260	0.053	-0.87	-0.122	-47.0398518	5.9014674	-2.6929026	82.52314074	0.0572958	9.87779592
2.61	261	0.059	-0.893	-0.13	-47.841993	4.297185	0.1718874	82.04185602	0.05156622	9.91790298
2.62	262	0.063	-0.93	-0.154	-48.414951	3.151269	3.3231564	81.54911214	0.01718874	9.95228046
2.63	263	0.06	-0.977	-0.182	-49.847346	1.8907614	6.589017	81.03917952	-0.04583664	9.97519878
2.64	264	0.036	-1.018	-0.2	-51.6235158	0.6302538	9.2246238	80.51778774	-0.13750992	9.98665794
2.65	265	0.015	-1.024	-0.194	-53.6861646	0.859437	10.4278356	79.96774806	-0.24064236	10.00957626
2.66	266	-0.006	-1.01	-0.204	-56.8947294	1.7761698	9.9694692	79.38906048	-0.3437748	10.03822416
2.67	267	-0.026	-0.977	-0.213	-58.6708992	1.8334656	8.9954406	78.79318416	-0.43544808	10.06687206
2.68	268	-0.039	-0.945	-0.214	-58.3844202	0	8.880849	78.20303742	-0.52712136	10.07833122
2.69	269	-0.041	-0.93	-0.205	-57.0666168	-2.005353	8.7662574	77.62434984	-0.62452422	10.07260164
2.7	270	-0.036	-0.935	-0.183	-57.1812084	-4.010706	7.8495246	77.04566226	-0.7161975	10.04395374
2.71	271	-0.03	-0.957	-0.197	-59.014674	-4.7555514	5.7868758	76.44978594	-0.78495246	10.00384668
2.72	272	-0.029	-0.998	-0.217	-60.8481396	-3.6096354	2.7501984	75.8309913	-0.82505952	9.9694692
2.73	273	-0.012	-1.017	-0.235	-62.738901	-1.432395	-0.8021412	75.19500792	-0.8307891	9.95228046
2.74	274	-0.019	-1	-0.258	-62.165943	0.2291832	-2.291832	74.56475412	-0.81360036	9.9408213
2.75	275	-0.025	-0.978	-0.267	-60.447069	0.9740286	-2.1772404	73.94595948	-0.79641162	9.9408213
2.76	276	-0.034	-0.95	-0.28	-59.587632	0.6875496	-1.2032118	73.34435358	-0.79068204	9.93509172
2.77	277	-0.045	-0.928	-0.29	-57.4103916	0.3437748	-0.3437748	72.75993642	-0.79068204	9.93509172
2.78	278	-0.053	-0.918	-0.279	-56.149884	0.9740286	0.2291832	72.192708	-0.79641162	9.9408213
2.79	279	-0.057	-0.91	-0.238	-55.2331512	1.7761698	0.2291832	71.63120916	-0.8021412	9.95228046
2.8	280	-0.054	-0.906	-0.201	-54.3737142	3.437748	-0.1718874	71.08116948	-0.79641162	9.98092836
2.81	281	-0.053	-0.912	-0.205	-54.717489	6.9327918	0	70.52540022	-0.78495246	10.04395374
2.82	282	-0.043	-0.936	-0.227	-54.8893764	8.59437	0.8021412	69.96390138	-0.7734933	10.11843828
2.83	283	-0.044	-0.955	-0.255	-55.863405	8.1932994	2.5210152	69.39667296	-0.7734933	10.20438198
2.84	284	-0.042	-0.96	-0.29	-55.863405	7.0473834	4.4690724	68.82944454	-0.8021412	10.27886652
2.85	285	-0.047	-0.951	-0.303	-55.0612638	5.9014674	5.5003968	68.2679457	-0.84224826	10.34762148
2.86	286	-0.056	-0.92	-0.323	-54.4883058	5.3858052	4.9847346	67.71217644	-0.87089616	10.41637644
2.87	287	-0.061	-0.885	-0.319	-51.279741	5.3858052	2.8074942	67.19078466	-0.8880849	10.47367224
2.88	288	-0.057	-0.862	-0.284	-45.83664	4.9274388	0.1718874	66.72668868	-0.87662574	10.5137793
2.89	289	-0.054	-0.846	-0.262	-44.6334282	5.0993262	-3.8961144	66.26832228	-0.82505952	10.5424272
2.9	290	-0.026	-0.86	-0.228	-45.6074568	6.9327918	-6.6463128	65.81568546	-0.7448454	10.57680468
2.91	291	0.007	-0.883	-0.257	-48.8160216	9.2246238	-6.7609044	65.317212	-0.65317212	10.6283709
2.92	292	0.029	-0.893	-0.302	-52.3110654	10.2559482	-4.6982556	64.78436106	-0.57868758	10.69712586
2.93	293	0.026	-0.895	-0.349	-52.3683612	8.8235532	-0.9740286	64.25151012	-0.53858052	10.7716104
2.94	294	-0.007	-0.903	-0.362	-51.56622	3.3804522	3.6096354	63.72438876	-0.56722842	10.81171746
2.95	295	-0.051	-0.898	-0.321	-51.3370368	-1.718874	6.5317212	63.21445614	-0.64171296	10.82317662
2.96	296	-0.083	-0.904	-0.259	-51.6808116	-2.3491278	6.7609044	62.68733478	-0.7161975	10.8289062
2.97	297	-0.071	-0.904	-0.288	-55.2331512	2.291832	1.718874	62.12583594	-0.72765666	10.85182452
2.98	298	-0.048	-0.906	-0.311	-53.9153478	6.7609044	-3.4950438	61.58152584	-0.67609044	10.89193158
2.99	299	-0.023	-0.907	-0.336	-52.2537696	9.6256944	-6.1879464	61.0486749	-0.58441716	10.94922738
3	300	0.009	-0.896	-0.366	-50.1911208	11.2299768	-6.2452422	60.53874228	-0.48128472	11.01225276
3.01	301	0.033	-0.882	-0.394	-48.128472	11.5164558	-3.8961144	60.05172798	-0.4010706	11.0867373
3.02	302	0.029	-0.862	-0.413	-46.4668938	10.2559482	-0.859437	59.57617284	-0.34950438	11.172681
3.03	303	0.001	-0.846	-0.402	-44.2896534	8.3651868	1.6615782	59.12353602	-0.32658606	11.24716554
3.04	304	-0.039	-0.827	-0.422	-43.4302164	7.0473834	2.8074942	58.68235836	-0.32658606	11.32165008
3.05	305	-0.076	-0.819	-0.424	-40.393539	7.6776372	1.8907614	58.27555818	-0.3151269	11.39613462
3.06	306	-0.106	-0.823	-0.439	-37.0130868	8.3651868	-0.2291832	57.8974059	-0.27501984	11.46488958
3.07	307	-0.103	-0.849	-0.419	-35.2942128	10.886202	-2.9793816	57.53644236	-0.2005353	11.53937412
3.08	308	-0.078	-0.874	-0.398	-35.236917	14.7250206	-4.9847346	57.1812084	-0.0859437	11.63677698
3.09	309	-0.045	-0.894	-0.402	-35.6379876	18.5065434	-5.5003968	56.81451528	0.04583664	11.76282774
3.1	310	-0.002	-0.906	-0.435	-35.4088044	21.4286292	-4.7555514	56.45928132	0.18907614	11.91179682
3.11	311	0.022	-0.909	-0.467	-33.5753388	22.9756158	-2.5210152	56.11550652	0.32658606	12.0894138
3.12	312	0.016	-0.902	-0.497	-31.6845774	22.5745452	0.1718874	55.79465004	0.44117766	12.27848994
3.13	313	-0.017	-0.888	-0.499	-28.4187168	19.2513888	2.7501984	55.50244146	0.5156622	12.45037734
3.14	314	-0.053	-0.872	-0.505	-25.6112226	17.2460358	2.9793816	55.23888078	0.58441716	12.61080558
3.15	315	-0.07	-0.857	-0.505	-22.6891368	17.3606274	0.5156622	55.01542716	0.6589017	12.75404508
3.16	316	-0.071	-0.859	-0.5	-21.3140376	18.8503182	-3.3804522	54.79770312	0.79068204	12.891555
3.17	317	-0.053	-0.868	-0.492	-20.912967	21.6578124	-6.875496	54.58570866	0.96256944	13.02906492
3.18	318	-0.029	-0.883	-0.512	-20.7410796	23.5485738	-8.5370742	54.3737142	1.15737516	13.17230442
3.19	319	0.005	-0.893	-0.524	-20.5118964	24.637194	-7.9641162	54.16744932	1.35791046	13.32700308
3.2	320	0.032	-0.899	-0.52	-19.767051	23.2620948	-4.870143	53.9726436	1.52406828	13.48743132
3.21	321	0.029	-0.9	-0.508	-19.1367972	18.907614	0.4583664	53.78356746	1.62147114	13.64212998
3.22	322	0.015	-0.884	-0.512	-18.3919518	16.5584862	3.7815228	53.6002209	1.68449652	13.79682864
3.23	323	-0.001	-0.869	-0.516	-16.6730778	15.3552744	4.3544808	53.4283335	1.73606274	13.9515273
3.24	324	-0.014	-0.854	-0.524	-16.042824	15.9855282	2.1772404	53.26790526	1.8048177	14.08903722
3.25	325	-0.024	-0.84	-0.538	-15.6417534	18.2200644	-2.005353	53.11893618	1.91367972	14.22654714
3.26	326	-0.024	-0.838	-0.538	-15.2406828	20.6837838	-6.4744254	52.96423752	2.08556712	14.3525979
3.27	327	-0.019	-0.851	-0.555	-14.5531332	21.8869956	-8.880849	52.82099802	2.28037284	14.47291908
3.28	328	-0.004	-0.863	-0.564	-14.6677248	21.1421502	-8.880849	52.67202894	2.46944898	14.59324026
3.29	329	0.02	-0.877	-0.563	-13.5218088	18.7930224	-6.589017	52.53451902	2.62987722	14.70210228
3.3	330	0.039	-0.881	-0.566	-13.0634424	16.9595568	-3.9534102	52.41419784	2.75592798	14.81669388
3.31	331	0.052	-0.88	-0.572	-12.2040054	15.6417534	-1.9480572	52.29387666	2.85906042	14.9255559
3.32	332	0.053	-0.875	-0.572	-11.1153852	14.5531332	-0.6875496	52.18501464	2.9507337	15.0401475
3.33	333	0.05	-0.868	-0.56	-10.4278356	13.8655836	-0.9740286	52.0818822	3.0366774	15.14327994
3.34	334	0.041	-0.863	-0.558	-10.026765	14.2666542	-2.8074942	51.98447934	3.14553942	15.2406828
3.35	335	0.038	-0.856	-0.567	-10.2559482	15.9855282	-4.9274388	51.89280606	3.27159018	15.33808566
3.36	336	0.032	-0.851	-0.576	-9.9694692	17.18874	-6.7036086	51.78967362	3.42055926	15.42975894
3.37	337	0.016	-0.853	-0.588	-9.9121734	17.2460358	-7.5630456	51.69227076	3.5809875	15.52143222
3.38	338	0.014	-0.854	-0.602	-9.6829902	17.3033316	-7.161975	51.60059748	3.74141574	15.6131055
3.39	339	0.024	-0.863	-0.605	-8.9954406	17.3033316	-6.0733548	51.51465378	3.89038482	15.71623794
3.4	340	0.032	-0.879	-0.607	-8.8235532	16.902261	-4.8128472	51.43443966	4.02216516	15.81937038
3.41	341	0.036	-0.887	-0.606	-9.3965112	15.8709366	-3.4950438	51.34276638	4.14248634	15.92250282
3.42	342	0.036	-0.893	-0.596	-9.6256944	14.4385416	-1.9480572	51.2510931	4.2398892	16.02563526
3.43	343	0.032	-0.892	-0.601	-9.6829902	13.9228794	-1.432395	51.15941982	4.33729206	16.12303812
3.44	344	0.029	-0.88	-0.594	-9.9121734	15.2406828	-2.7501984	51.06201696	4.44615408	16.22617056
3.45	345	0.024	-0.865	-0.584	-10.4278356	18.621135	-5.5003968	50.97034368	4.58939358	16.34076216
3.46	346	0.013	-0.852	-0.579	-11.0007936	21.0848544	-8.2505952	50.86721124	4.7841993	16.45535376
3.47	347	0.004	-0.84	-0.587	-11.745639	22.631841	-9.7975818	50.75261964	4.99046418	16.56994536
3.48	348	0.005	-0.831	-0.586	-11.9175264	22.7464326	-10.0840608	50.63802804	5.20818822	16.68453696
3.49	349	0.014	-0.827	-0.592	-12.318597	21.8296998	-9.5683986	50.52343644	5.40872352	16.79339898
3.5	350	0.017	-0.835	-0.601	-12.1467096	20.1108258	-8.1932994	50.40884484	5.5863405	16.89653142
3.51	351	0.028	-0.843	-0.602	-12.3758928	18.5638392	-6.589017	50.29425324	5.74676874	16.99966386
3.52	352	0.05	-0.844	-0.609	-12.3758928	17.0741484	-5.2712136	50.17393206	5.89000824	17.1027963
3.53	353	0.065	-0.835	-0.597	-11.745639	16.2720072	-5.0420304	50.06507004	6.02751816	17.19446958
3.54	354	0.069	-0.827	-0.573	-11.5164558	16.902261	-5.8441716	49.95620802	6.17648724	17.28614286
3.55	355	0.059	-0.814	-0.572	-12.1467096	17.8189938	-7.5057498	49.847346	6.3311859	17.37781614
3.56	356	0.041	-0.799	-0.568	-12.4331886	18.5638392	-9.0527364	49.72702482	6.51453246	17.46375984
3.57	357	0.022	-0.787	-0.563	-12.8342592	18.907614	-10.0840608	49.60097406	6.7036086	17.54397396
3.58	358	0.009	-0.779	-0.563	-12.9488508	19.4232762	-10.7716104	49.4749233	6.90987348	17.62991766
3.59	359	0.008	-0.774	-0.563	-13.2353298	19.767051	-11.1153852	49.34887254	7.11040878	17.71013178
3.6	360	0.013	-0.78	-0.585	-13.6364004	19.8816426	-10.8289062	49.22282178	7.3052145	17.7903459
3.61	361	0.021	-0.793	-0.585	-13.5218088	18.9649098	-9.6256944	49.09104144	7.49429064	17.8762896
3.62	362	0.025	-0.805	-0.593	-13.178034	18.2200644	-8.1360036	48.97072026	7.66617804	17.9622333
3.63	363	0.033	-0.81	-0.576	-12.8342592	18.6784308	-7.5630456	48.85039908	7.83806544	18.05390658
3.64	364	0.031	-0.812	-0.569	-12.7196676	19.9962342	-7.6776372	48.7300779	8.021412	18.15703902
3.65	365	0.016	-0.806	-0.559	-13.2926256	22.1161788	-8.7089616	48.62121588	8.21048814	18.27163062
3.66	366	0	-0.799	-0.551	-13.3499214	24.637194	-10.2559482	48.49516512	8.43967134	18.3919518
3.67	367	-0.01	-0.788	-0.543	-13.9801752	27.4446882	-12.1467096	48.36911436	8.70323202	18.51800256
3.68	368	-0.018	-0.764	-0.537	-14.7823164	29.6792244	-13.6364004	48.23733402	8.9954406	18.65551248
3.69	369	-0.025	-0.751	-0.548	-15.0687954	31.9710564	-14.610429	48.0998241	9.30483792	18.80448156
3.7	370	-0.021	-0.75	-0.559	-14.8396122	33.0596766	-14.7823164	47.97950292	9.60850566	18.95345064
3.71	371	-0.006	-0.757	-0.555	-14.4385416	33.4607472	-14.4958374	47.85345216	9.92936214	19.11387888
3.72	372	0.005	-0.761	-0.553	-14.4385416	33.1169724	-13.8655836	47.7274014	10.23875946	19.26857754
3.73	373	0.017	-0.759	-0.54	-14.4385416	32.658606	-13.3499214	47.60708022	10.54815678	19.42900578
3.74	374	0.025	-0.753	-0.525	-13.9801752	33.0596766	-13.2926256	47.48675904	10.8575541	19.58943402
3.75	375	0.019	-0.751	-0.513	-13.3499214	34.8358464	-14.0947668	47.38935618	11.172681	19.76132142
3.76	376	0.008	-0.74	-0.501	-13.0634424	36.955791	-15.3552744	47.28622374	11.52218538	19.93320882
3.77	377	-0.003	-0.726	-0.502	-13.5218088	40.1643558	-16.9595568	47.1830913	11.90606724	20.12228496
3.78	378	-0.013	-0.716	-0.505	-13.8655836	41.539455	-18.1054728	47.07422928	12.30713784	20.3113611
3.79	379	-0.016	-0.708	-0.509	-14.32395	42.2843004	-18.4492476	46.96536726	12.7196676	20.50616682
3.8	380	-0.013	-0.715	-0.501	-14.0947668	43.0291458	-17.8762896	46.8679644	13.10927904	20.7124317
3.81	381	-0.011	-0.708	-0.509	-14.9542038	44.1750618	-17.2460358	46.75910238	13.52753838	20.92442616
3.82	382	0	-0.7	-0.507	-14.7823164	46.2377106	-17.5325148	46.65596994	13.95725688	21.15360936
3.83	383	0.005	-0.702	-0.497	-13.6364004	48.5868384	-18.2200644	46.57002624	14.40416412	21.39425172
3.84	384	0	-0.703	-0.504	-13.5791046	50.8213746	-18.907614	46.48981212	14.87398968	21.65208282
3.85	385	-0.013	-0.695	-0.493	-13.464513	54.0872352	-19.5378678	46.42678674	15.3552744	21.92137308
3.86	386	-0.03	-0.69	-0.493	-13.750992	56.722842	-19.9962342	46.35803178	15.87666618	22.21358166
3.87	387	-0.031	-0.684	-0.503	-13.8082878	59.1865614	-20.2827132	46.28927682	16.40951712	22.52297898
3.88	388	-0.024	-0.686	-0.495	-13.8082878	60.6762522	-20.2254174	46.23198102	16.9595568	22.84383546
3.89	389	-0.021	-0.703	-0.487	-14.0947668	61.3638018	-19.1367972	46.1804148	17.5038669	23.1761511
3.9	390	-0.026	-0.7	-0.492	-15.183387	62.1086472	-17.9908812	46.12884858	18.02525868	23.52565548
3.91	391	-0.019	-0.69	-0.48	-16.8449652	63.7129296	-18.3919518	46.0658232	18.57529836	23.88088944
3.92	392	-0.009	-0.688	-0.472	-16.5584862	65.7182826	-19.5951636	46.00279782	19.15398594	24.24185298
3.93	393	-0.001	-0.691	-0.465	-16.615782	69.041439	-21.772404	45.9512316	19.767051	24.62000526
3.94	394	0	-0.684	-0.477	-17.475219	71.1613836	-23.6631654	45.8939358	20.40876396	24.99815754
3.95	395	-0.013	-0.679	-0.487	-17.8189938	72.4218912	-25.0382646	45.84236958	21.0562065	25.37630982
3.96	396	-0.018	-0.679	-0.469	-18.2200644	73.4532156	-25.78311	45.78507378	21.72656736	25.76019168
3.97	397	-0.02	-0.683	-0.494	-18.5065434	74.4272442	-25.8977016	45.73350756	22.40838738	26.14980312
3.98	398	-0.019	-0.672	-0.485	-18.4492476	75.630456	-26.5279554	45.68767092	23.10166656	26.54514414
3.99	399	-0.009	-0.653	-0.46	-18.334656	76.4325972	-27.9030546	45.64756386	23.81213448	26.94048516
4	400	-0.015	-0.635	-0.446	-17.3606274	77.062851	-29.6219286	45.62464554	24.5226024	27.3300966
4.01	401	-0.021	-0.629	-0.426	-17.2460358	77.5785132	-31.6272816	45.59599764	25.2674478	27.70824888
4.02	402	-0.004	-0.621	-0.407	-17.6471064	79.2973872	-32.8304934	45.57307932	26.02948194	28.09213074
4.03	403	0.011	-0.589	-0.37	-18.1054728	82.3913604	-35.236917	45.55589058	26.83162314	28.48747176
4.04	404	0.025	-0.554	-0.358	-16.8449652	85.3134462	-38.0444112	45.550161	27.6738714	28.88281278
4.05	405	0.033	-0.534	-0.349	-12.8342592	89.4960396	-40.393539	45.61318638	28.55049714	29.3068017
4.06	406	0.018	-0.513	-0.34	-10.0840608	92.3035338	-41.5967508	45.70485966	29.46150036	29.74224978
4.07	407	-0.013	-0.488	-0.347	-6.7036086	93.7932246	-41.7113424	45.85382874	30.38969232	30.1948866
4.08	408	-0.04	-0.48	-0.313	-1.0886202	94.1369994	-41.8832298	46.0658232	31.31788428	30.65898258
4.09	409	-0.072	-0.483	-0.281	4.870143	93.392154	-41.825934	46.34657262	32.24034666	31.12880814
4.1	410	-0.1	-0.468	-0.254	8.880849	93.392154	-42.8572584	46.68461784	33.15134988	31.5986337
4.11	411	-0.118	-0.444	-0.183	12.891555	96.4288314	-45.0344988	47.07422928	34.11391932	32.09137758
4.12	412	-0.081	-0.423	-0.182	17.7044022	102.3302988	-47.9565846	47.54405484	35.12805498	32.6299581
4.13	413	-0.024	-0.386	-0.178	24.1788276	106.6847796	-50.706783	48.10555368	36.19375686	33.2029161
4.14	414	0.005	-0.357	-0.115	32.0283522	110.6381898	-52.4829528	48.7873737	37.29383622	33.81598116
4.15	415	0.023	-0.309	-0.079	38.7892566	112.4716554	-52.139178	49.57805574	38.388186	34.48634202
4.16	416	0.025	-0.243	-0.035	46.9252602	113.2737966	-50.6494872	50.48905896	39.4768062	35.20253952
4.17	417	0.028	-0.214	-0.011	58.0406454	115.6229244	-48.7587258	51.57194958	40.55396724	35.99322156
4.18	418	0	-0.154	0.017	67.7236356	117.169911	-48.5295426	52.80380928	41.63112828	36.84692898
4.19	419	-0.061	-0.116	0.114	77.6931048	119.6336304	-48.8160216	54.19609722	42.70828932	37.77512094
4.2	420	-0.081	-0.092	0.168	85.1415588	127.2539718	-51.1078536	55.7774613	43.82555742	38.82936366
4.21	421	-0.101	-0.059	0.197	94.7672532	139.6871604	-54.8893764	57.582279	45.02303964	40.06695294
4.22	422	-0.145	-0.053	0.262	105.5388636	153.7819272	-59.1292656	59.6735757	46.2950064	41.52799584
4.23	423	-0.188	-0.037	0.33	115.0499664	170.3404134	-62.452422	62.10291762	47.62999854	43.2869769
4.24	424	-0.265	-0.017	0.421	124.6756608	188.2739988	-65.7182826	64.92760056	49.01082732	45.40119192
4.25	425	-0.243	-0.009	0.42	134.9889048	209.702628	-68.6403684	68.24502738	50.42603358	47.9852325
4.26	426	-0.11	0.003	0.413	147.9377556	228.3810588	-70.8749046	72.09530514	51.81259194	51.04482822
4.27	427	0.178	-0.009	0.463	160.8293106	247.6897434	-75.7450476	76.54145922	53.15331366	54.63727488
4.28	428	0.559	0.024	0.509	168.2204688	266.6546532	-89.094969	81.56630088	54.46538748	58.79122038
4.29	429	1.207	0.029	0.274	166.9599612	291.9793968	-121.5243918	87.22139634	55.88632332	63.66709296
4.3	430	2.411	-0.014	0.24	178.8774876	308.537883	-155.558097	93.678633	57.34163664	69.2706222
4.31	431	3.398	-0.147	0.402	212.3382348	273.9885156	-189.4772106	100.5140219	58.8141387	74.83977396
4.32	432	3.996	-1.018	0.222	214.8019542	211.6506852	-220.015872	107.0457431	60.39550278	79.92191142
4.33	433	3.996	-2.518	-0.356	195.2067906	109.6641612	-150.7452498	111.7783762	61.42682718	83.09036916
4.34	434	3.97	-1.477	-1.139	-64.744254	-102.1011156	-150.6306582	110.3860883	63.20872656	82.2481209
4.35	435	2.644	1.766	0.883	-264.9357792	-161.001198	-362.5678224	106.9025036	67.16786634	81.34284726
4.36	436	2.201	2.187	2.246	165.1264956	72.8802576	-445.6467324	114.4311718	71.05825116	87.61673736
4.37	437	2.49	-0.412	0.124	414.9361836	14.7250206	-359.0154828	124.8532778	74.08919898	94.1369994
4.38	438	2.413	-0.504	-0.1	197.5559184	-62.5670136	-328.1330466	133.1955463	77.01701436	100.6687206
4.39	439	2.581	1.183	0.705	76.776372	8.2505952	-370.417347	147.8575415	79.2973872	114.8551607
4.4	440	2.507	0.531	1.475	144.2135286	84.9123756	-328.6487088	167.412598	79.73856486	133.2643012
4.41	441	2.764	0.238	0.946	5.156622	107.4869208	-245.6270946	-179.2212624	78.90777576	146.8204875
4.42	442	2.765	0.128	1.204	20.6837838	108.5182452	-208.9004868	-169.6987004	77.635809	156.348779
4.43	443	2.131	-0.011	1.28	-23.491278	85.5426294	-194.0035788	-162.828934	76.35811266	163.6597231
4.44	444	1.842	-0.06	0.77	-80.2714158	96.0850566	-167.5329192	-158.8526055	74.92571766	168.6158098
4.45	445	1.582	-0.045	0.653	-85.3134462	109.6068654	-129.7176912	-157.0649765	73.4532156	171.3889265
4.46	446	1.062	0.236	0.299	-98.7206634	93.965112	-113.2737966	-156.0279226	72.17551926	173.537519
4.47	447	1.069	0.29	0.374	-62.2805346	83.0216142	-97.2309726	-155.1226489	71.046792	175.1761789
4.48	448	0.991	0.573	0.286	-41.5967508	65.1453246	-88.1782362	-154.1428907	70.1014113	176.6773289
4.49	449	0.927	0.51	0.453	6.1879464	54.3164184	-74.0261736	-152.9912452	69.2992701	177.8461632
4.5	450	0.701	0.602	0.4	13.5218088	48.7587258	-52.8840234	-152.1948335	68.6117205	178.5509015
4.51	451	0.517	0.559	0.49	19.3086846	52.712136	-32.4294228	-151.9370024	68.00438502	178.6253861
4.52	452	0.279	0.676	0.522	12.8342592	54.144531	-17.18874	-152.0917011	67.45434534	178.3274479
4.53	453	0.386	0.54	0.424	6.9327918	62.452422	-15.2406828	-152.4240167	66.84700986	177.8919998
4.54	454	0.532	0.311	0.372	7.5057498	68.6403684	-0.572958	-153.1001072	66.24540396	177.0841291
4.55	455	0.527	0.234	0.335	6.5317212	71.5624542	5.8441716	-153.9022484	65.6323389	176.1444779
4.56	456	0.54	0.257	0.352	6.9327918	77.5785132	10.313244	-154.807522	64.99635552	175.0787761
4.57	457	0.623	0.255	0.366	7.2192708	76.203414	10.0840608	-155.6440407	64.36037214	174.0875587
4.58	458	0.677	0.225	0.368	7.161975	75.5158644	11.5164558	-156.4576411	63.73584792	173.1135301
4.59	459	0.709	0.231	0.373	9.5111028	70.3592424	12.0894138	-157.1738386	63.15143076	172.2139861
4.6	460	0.721	0.307	0.415	9.5683986	68.0101146	11.0580894	-157.7926332	62.5670136	171.4118449
4.61	461	0.694	0.37	0.505	9.9694692	63.2545632	9.2246238	-158.3369433	62.02843308	170.6899178
4.62	462	0.74	0.415	0.534	9.8548776	59.4730404	7.3911582	-158.8010393	61.51277088	170.059664
4.63	463	0.774	0.395	0.54	7.6203414	55.3477428	8.4224826	-159.2536761	61.03148616	169.4637877
4.64	464	0.776	0.346	0.644	-1.0886202	52.0245864	6.302538	-159.7235017	60.57884934	168.9423959
4.65	465	0.813	0.304	0.544	-18.1627686	49.560867	3.8961144	-160.3021892	60.1319421	168.5012182
4.66	466	0.882	0.176	0.518	-17.8762896	46.6387812	8.4797784	-160.9095247	59.7308715	168.0142039
4.67	467	0.895	0.12	0.535	-21.4286292	46.9252602	12.4331886	-161.6085335	59.33553048	167.4641642
4.68	468	0.866	0.165	0.542	-24.923673	45.83664	14.610429	-162.3591085	58.9573782	166.8912062
4.69	469	0.869	0.201	0.549	-26.2414764	42.8572584	18.2200644	-163.1440609	58.6136034	166.2953299
4.7	470	0.884	0.22	0.584	-27.215505	37.4141574	23.6631654	-163.9633909	58.3271244	165.653617
4.71	471	0.917	0.167	0.665	-15.2406828	32.945085	31.3980984	-164.7655321	58.10367078	164.8973124
4.72	472	0.923	0.193	0.612	-14.8396122	26.8717302	34.663959	-165.5734028	57.94324254	164.1238191
4.73	473	0.924	0.135	0.658	-19.767051	23.0329116	39.8778768	-166.4901356	57.82292136	163.2873004
4.74	474	0.91	0.142	0.66	-18.5065434	16.7876694	40.680018	-167.372491	57.7541664	162.4679705
4.75	475	0.933	0.151	0.668	-10.7143146	9.740286	41.7686382	-168.163173	57.74270724	161.6600997
4.76	476	0.949	0.159	0.692	-1.3750992	4.0680018	41.9978214	-168.8392634	57.78854388	160.8751472
4.77	477	0.994	0.141	0.725	13.2353298	-2.4064236	44.2896534	-169.377844	57.8974059	160.0787356
4.78	478	1.024	0.146	0.723	15.183387	-7.734933	45.0917946	-169.8992357	58.05210456	159.2765944
4.79	479	0.955	0.085	0.703	19.2513888	-15.6990492	45.3209778	-170.3633317	58.27555818	158.4973715
4.8	480	0.876	0.029	0.682	9.3965112	-18.5065434	40.0497642	-170.850346	58.51620054	157.8155515
4.81	481	0.876	0.136	0.651	5.7868758	-23.3193906	34.663959	-171.2800645	58.79122038	157.2425935
4.82	482	0.897	0.135	0.636	10.9434978	-34.2628884	38.2162986	-171.6868647	59.18083182	156.6295285
4.83	483	0.9	0.175	0.634	23.1475032	-43.0864416	41.4248634	-172.0077212	59.66211654	155.9706268
4.84	484	0.902	0.138	0.661	30.1375908	-50.2484166	44.4615408	-172.3056593	60.20642664	155.2658884
4.85	485	0.904	0.223	0.659	34.4347758	-55.4050386	44.117766	-172.5463017	60.79657338	154.5726092
4.86	486	0.899	0.169	0.672	37.5860448	-58.6136034	44.8626114	-172.7926736	61.4210976	153.8506822
4.87	487	0.879	0.096	0.63	44.977203	-63.311859	46.3523022	-172.9932089	62.09145846	153.088648
4.88	488	0.862	0.039	0.592	36.4974246	-67.8382272	46.696077	-173.3026063	62.80765596	152.3151547
4.89	489	0.831	0.13	0.598	32.2575354	-69.4998054	39.4195104	-173.537519	63.52958304	151.6734418
4.9	490	0.908	0.01	0.587	35.4661002	-70.6457214	36.6120162	-173.7036769	64.2572397	151.0775654
4.91	491	0.87	0.128	0.597	24.4653066	-68.182002	29.6219286	-173.8641051	64.95051888	150.6077399
4.92	492	0.973	-0.053	0.547	26.356068	-69.3852138	31.6272816	-174.0646404	65.6609868	150.0806185
4.93	493	0.927	-0.05	0.467	7.3911582	-76.4325972	35.9244666	-174.5631139	66.44593926	149.4446351
4.94	494	0.888	-0.039	0.471	9.3392154	-82.6205436	37.9871154	-175.107424	67.2939171	148.7341672
4.95	495	0.891	-0.055	0.44	1.718874	-83.4226848	42.7999626	-175.9038356	68.14762452	147.8460823
4.96	496	0.932	0.065	0.39	-7.1046792	-82.7351352	42.0551172	-176.8377571	68.98987278	146.9064312
4.97	497	0.957	0.124	0.358	-4.6982556	-78.0368796	37.8725238	-177.725842	69.78055482	146.0011576
4.98	498	0.94	0.071	0.289	0.0572958	-65.603691	35.7525792	-178.585279	70.43945652	145.0729656
4.99	499	0.913	-0.081	0.172	-1.7761698	-53.858052	37.1849742	-179.5879555	70.97803704	144.0244525
5	500	0.82	-0.184	0.166	-7.6203414	-44.7480198	35.3515086	179.2785582	71.43067386	142.9129139
5.01	501	0.8	-0.227	0.202	-10.7143146	-37.0130868	30.8824362	178.258693	71.7916374	141.9446149
5.02	502	0.812	-0.103	0.217	-14.8396122	-32.7159018	23.2620948	177.3877968	72.1067643	141.1825808
5.03	503	0.886	-0.043	0.334	-15.9282324	-26.356068	12.8342592	176.8091092	72.3645954	140.7414031
5.04	504	0.982	-0.054	0.381	-7.3338624	-14.896908	14.1520626	176.2762583	72.5078349	140.2543888
5.05	505	0.968	-0.024	0.368	-9.0527364	-8.880849	12.7769634	175.8121623	72.5651307	139.8590478
5.06	506	0.983	0.008	0.307	-7.0473834	-10.1413566	9.3392154	175.4282804	72.66253356	139.5324617
5.07	507	0.93	-0.007	0.337	7.9068204	-17.475219	10.8289062	175.1360719	72.8229618	139.1428503
5.08	508	0.901	-0.07	0.323	9.2819196	-17.761698	10.8289062	174.8553224	72.98911962	138.7417797
5.09	509	0.883	-0.091	0.271	3.7815228	-15.183387	9.167328	174.5631139	73.13235912	138.3980049
5.1	510	0.874	-0.091	0.242	1.2032118	-14.4385416	6.1306506	174.288094	73.27559862	138.1000667
5.11	511	0.865	-0.082	0.245	2.6356068	-15.1260912	3.2658606	174.1735024	73.4245677	137.9510977
5.12	512	0.878	-0.061	0.258	3.8961144	-13.4072172	1.2032118	174.1448545	73.55634804	137.8766131
5.13	513	0.881	-0.062	0.283	2.9793816	-10.4851314	0.5156622	174.1333954	73.65948048	137.8307765
5.14	514	0.875	-0.067	0.283	2.1772404	-10.0840608	-0.4010706	174.1448545	73.75688334	137.8193173
5.15	515	0.884	-0.053	0.286	0.3437748	-8.8235532	-1.6615782	174.1620433	73.83709746	137.8307765
5.16	516	0.9	-0.036	0.301	-0.4010706	-7.448454	-2.3491278	174.2193391	73.911582	137.8995314
5.17	517	0.923	-0.025	0.325	-0.1718874	-6.589017	-2.5210152	174.288094	73.98033696	137.9682864
5.18	518	0.946	-0.024	0.339	-0.4583664	-6.7609044	-2.6929026	174.3625786	74.04909192	138.0485005
5.19	519	0.971	-0.025	0.339	-1.8907614	-6.9900876	-2.6929026	174.4198744	74.11784688	138.1287146
5.2	520	0.974	-0.022	0.335	-2.3491278	-7.734933	-2.7501984	174.5000885	74.17514268	138.2375767
5.21	521	0.972	-0.026	0.326	-2.0626488	-9.9694692	-2.291832	174.5401955	74.27827512	138.2948725
5.22	522	0.964	-0.023	0.323	-2.1199446	-11.0580894	-1.718874	174.5516547	74.38713714	138.3292499
5.23	523	0.965	-0.024	0.319	-2.1772404	-10.7716104	-1.3178034	174.5516547	74.49599916	138.3521683
5.24	524	0.96	-0.027	0.309	-2.1772404	-9.6829902	-0.859437	174.5401955	74.59340202	138.3578978
5.25	525	0.958	-0.028	0.3	-1.7761698	-7.3338624	-0.9740286	174.5631139	74.64496824	138.3980049
5.26	526	0.954	-0.024	0.298	-1.4896908	-4.4690724	-1.3178034	174.5860322	74.69080488	138.438112
5.27	527	0.948	-0.023	0.304	-0.3437748	-2.4064236	-1.6042824	174.6318688	74.71945278	138.4954078
5.28	528	0.953	-0.021	0.316	0.0572958	-1.2032118	-1.6615782	174.6948942	74.73091194	138.5527036
5.29	529	0.963	-0.015	0.315	-0.2291832	0	-1.432395	174.7464604	74.73091194	138.6099994
5.3	530	0.97	-0.018	0.312	-0.3437748	0.4010706	-0.5156622	175.1532606	74.51891748	138.9996108
5.31	531	0.974	-0.017	0.314	-0.4583664	0.6302538	0.0572958	175.147531	74.50745832	138.9938812
5.32	532	0.983	-0.023	0.316	-0.572958	1.0886202	0.7448454	175.1131535	74.49599916	138.9709629
5.33	533	0.985	-0.027	0.319	-0.9740286	1.6615782	1.0313244	175.0673169	74.47881042	138.9365854
5.34	534	0.984	-0.023	0.321	-1.7761698	2.1772404	0.9167328	175.0214803	74.4558921	138.9022079
5.35	535	0.969	-0.023	0.316	-1.7761698	2.6356068	0.5156622	175.0501282	74.39286672	138.9480446
5.36	536	0.96	-0.028	0.31	-1.9480572	2.5210152	0.1145916	175.0272098	74.36421882	138.942315
5.37	537	0.952	-0.027	0.303	-2.4064236	2.291832	-0.0572958	175.0100211	74.3413005	138.9537742
5.38	538	0.944	-0.026	0.303	-1.718874	1.8907614	-0.4010706	175.0100211	74.32411176	138.9709629
5.39	539	0.941	-0.026	0.306	-1.6042824	1.4896908	-0.572958	175.0157507	74.3126526	138.9938812
5.4	540	0.94	-0.024	0.308	-1.4896908	0.9740286	-0.5156622	175.1418014	74.2267089	139.1313911
5.41	541	0.936	-0.021	0.311	-1.2605076	0.5156622	-0.286479	175.1418014	74.22097932	139.1428503
5.42	542	0.94	-0.02	0.312	-1.6042824	0.5156622	0	175.1246127	74.21524974	139.1428503
5.43	543	0.948	-0.022	0.31	-1.9480572	0.7448454	0.2291832	175.0959648	74.20952016	139.1313911
5.44	544	0.951	-0.023	0.312	-2.1772404	1.2032118	0.6302538	175.0501282	74.198061	139.1142024
5.45	545	0.96	-0.022	0.321	-2.3491278	1.2032118	0.9740286	175.0558577	74.12930604	139.1371207
5.46	546	0.966	-0.021	0.325	-2.4637194	1.3750992	1.3178034	174.9871028	74.11784688	139.0855545
5.47	547	0.969	-0.025	0.322	-2.6929026	1.6615782	1.6042824	174.9068887	74.10065814	139.0282587
5.48	548	0.97	-0.026	0.322	-2.6929026	1.6615782	1.8334656	174.8152154	74.0834694	138.9652333
5.49	549	0.969	-0.029	0.323	-2.578311	1.6042824	1.718874	174.7292717	74.06628066	138.9079375
5.5	550	0.968	-0.029	0.322	-2.4637194	1.4896908	1.6042824	174.6891646	74.00898486	138.8850192
5.51	551	0.97	-0.031	0.326	-2.4637194	1.3178034	1.3750992	174.6146801	73.99179612	138.833453
5.52	552	0.973	-0.03	0.331	-2.2345362	1.4896908	1.0886202	174.5573843	73.98033696	138.7990755
5.53	553	0.973	-0.032	0.329	-2.2345362	1.6615782	0.7448454	174.5115476	73.96314822	138.7761572
5.54	554	0.968	-0.031	0.328	-2.2345362	1.7761698	0.2291832	174.4828997	73.9402299	138.7704276
5.55	555	0.963	-0.032	0.324	-2.291832	1.8907614	-0.0572958	174.5000885	73.87720452	138.8048051
5.56	556	0.957	-0.033	0.322	-2.291832	2.0626488	-0.3437748	174.4886293	73.8542862	138.8219938
5.57	557	0.951	-0.032	0.319	-2.4064236	2.4637194	-0.859437	174.5000885	73.83136788	138.8563713
5.58	558	0.949	-0.033	0.313	-2.6929026	2.9793816	-1.0886202	174.5172772	73.80271998	138.9079375
5.59	559	0.948	-0.031	0.308	-2.86479	3.6096354	-1.432395	174.5459251	73.7683425	138.9652333
5.6	560	0.943	-0.028	0.305	-2.8074942	4.3544808	-1.6615782	174.6032209	73.71677628	139.051177
5.61	561	0.938	-0.029	0.302	-2.291832	4.870143	-1.718874	174.6490576	73.67093964	139.1256616
5.62	562	0.936	-0.027	0.304	-1.9480572	4.870143	-1.6615782	174.6948942	73.61937342	139.1944165
5.63	563	0.934	-0.026	0.308	-1.2605076	4.6409598	-1.4896908	174.7407308	73.57926636	139.2574419
5.64	564	0.938	-0.027	0.315	-0.859437	4.4117766	-1.2032118	174.7808379	73.53342972	139.3090081
5.65	565	0.945	-0.027	0.32	-0.9167328	4.4117766	-1.0886202	174.861052	73.46467476	139.4006814
5.66	566	0.951	-0.025	0.327	-0.859437	4.6409598	-1.0313244	174.8954295	73.41883812	139.446518
5.67	567	0.955	-0.026	0.328	-0.5156622	4.6982556	-1.0886202	174.9355366	73.37300148	139.4923547
5.68	568	0.958	-0.026	0.329	-0.4583664	4.870143	-1.0886202	174.9756436	73.32716484	139.5439209
5.69	569	0.959	-0.024	0.334	-0.572958	5.0420304	-1.2605076	175.0214803	73.27559862	139.5954871
5.7	570	0.959	-0.024	0.333	-0.4010706	4.870143	-1.2605076	175.1131535	73.1953845	139.69289
5.71	571	0.962	-0.024	0.334	-0.572958	4.870143	-1.145916	175.1589902	73.14954786	139.7444562
5.72	572	0.962	-0.023	0.339	-0.7448454	4.9847346	-1.0313244	175.1933677	73.10371122	139.7902928
5.73	573	0.957	-0.022	0.341	-0.5156622	4.7555514	-0.9167328	175.2277451	73.052145	139.8303999
5.74	574	0.958	-0.023	0.34	-0.572958	4.2398892	-0.7448454	175.2506635	73.01203794	139.8647774
5.75	575	0.957	-0.022	0.342	-0.572958	3.6096354	-0.5156622	175.3537959	72.91463508	139.9679098
5.76	576	0.96	-0.023	0.346	-0.1145916	2.9793816	-0.4583664	175.3709846	72.88598718	139.9908281
5.77	577	0.964	-0.024	0.345	-0.1145916	2.4637194	-0.3437748	175.3824438	72.86306886	140.0080169
5.78	578	0.963	-0.024	0.348	0	1.9480572	-0.3437748	175.3996325	72.84588012	140.019476
5.79	579	0.963	-0.024	0.351	0.286479	1.2605076	-0.1718874	175.4110917	72.82869138	140.0309352
5.8	580	0.963	-0.023	0.351	0	0.859437	-0.0572958	175.6689228	72.58804902	140.2715776
5.81	581	0.961	-0.022	0.349	-0.1718874	0.3437748	0.0572958	175.6689228	72.58231944	140.265848
5.82	582	0.958	-0.022	0.345	-0.1145916	-0.3437748	0.2291832	175.6574636	72.58804902	140.2543888
5.83	583	0.957	-0.022	0.343	-0.286479	-0.7448454	0.4583664	175.6345453	72.5937786	140.2372001
5.84	584	0.955	-0.024	0.341	-0.286479	-0.9740286	0.7448454	175.6058974	72.60523776	140.2142818
5.85	585	0.951	-0.025	0.34	-0.4583664	-1.3750992	0.859437	175.6402749	72.55367154	140.2429297
5.86	586	0.953	-0.024	0.34	-0.8021412	-1.6042824	0.8021412	175.6058974	72.57086028	140.2142818
5.87	587	0.954	-0.025	0.341	-0.9740286	-1.6042824	0.6875496	175.5715199	72.58231944	140.1856339
5.88	588	0.951	-0.024	0.34	-1.3750992	-1.4896908	0.6875496	175.5314129	72.59950818	140.1627155
5.89	589	0.949	-0.024	0.332	-1.2605076	-1.718874	0.8021412	175.4855762	72.61669692	140.1283381
5.9	590	0.949	-0.026	0.329	-1.0886202	-1.7761698	0.9167328	175.4855762	72.59950818	140.1340676
5.91	591	0.949	-0.027	0.329	-0.9740286	-1.3750992	0.859437	175.4454692	72.61096734	140.1054197
5.92	592	0.95	-0.027	0.331	-0.8021412	-1.2032118	0.7448454	175.4110917	72.62815608	140.0767718
5.93	593	0.952	-0.027	0.335	-0.6875496	-0.9740286	0.572958	175.3824438	72.63388566	140.0538535
5.94	594	0.955	-0.026	0.335	-0.6302538	-0.859437	0.5156622	175.3595255	72.64534482	140.0309352
5.95	595	0.956	-0.026	0.335	-0.572958	-0.8021412	0.5156622	175.4282804	72.57658986	140.0996902
5.96	596	0.954	-0.027	0.333	-0.5156622	-0.6875496	0.4583664	175.4053621	72.58231944	140.0825014
5.97	597	0.954	-0.028	0.333	-0.4583664	-0.5156622	0.4010706	175.3824438	72.58804902	140.0653127
5.98	598	0.954	-0.028	0.333	-0.6302538	-0.2291832	0.286479	175.3652551	72.5937786	140.0538535
5.99	599	0.952	-0.026	0.332	-0.572958	0	0.2291832	175.3537959	72.5937786	140.0423944
6	600	0.952	-0.026	0.332	-0.6302538	0.1718874	0.1145916	175.4511988	72.49064616	140.1397972
6.01	601	0.952	-0.026	0.335	-0.6302538	0.3437748	0.1718874	175.4397396	72.48491658	140.1340676
6.02	602	0.95	-0.026	0.336	-0.6302538	0.3437748	0.1145916	175.4282804	72.48491658	140.1340676
6.03	603	0.95	-0.027	0.334	-0.9167328	0.572958	0.0572958	175.4168213	72.479187	140.1283381
6.04	604	0.948	-0.027	0.331	-0.8021412	0.7448454	0.0572958	175.4053621	72.46772784	140.1283381
6.05	605	0.945	-0.028	0.328	-0.6302538	0.9740286	-0.1145916	175.4569283	72.41043204	140.1799043
6.06	606	0.944	-0.029	0.329	-0.8021412	1.3178034	-0.2291832	175.4569283	72.39897288	140.1913634
6.07	607	0.945	-0.027	0.33	-0.8021412	1.718874	-0.4010706	175.4626579	72.38178414	140.2085522
6.08	608	0.948	-0.025	0.329	-0.859437	2.0626488	-0.4583664	175.4741171	72.35886582	140.2257409
6.09	609	0.947	-0.024	0.332	-0.859437	2.5210152	-0.4583664	175.4855762	72.3359475	140.2486592
6.1	610	0.948	-0.024	0.334	-0.859437	2.5210152	-0.3437748	175.5486016	72.2786517	140.3174142
6.11	611	0.952	-0.024	0.338	-0.8021412	2.3491278	-0.1718874	175.5486016	72.2500038	140.3288734
6.12	612	0.954	-0.024	0.343	-0.9167328	2.4064236	-0.0572958	175.5486016	72.22708548	140.3346029
6.13	613	0.955	-0.026	0.342	-0.9740286	2.4064236	-0.0572958	175.542872	72.20416716	140.3403325
6.14	614	0.955	-0.026	0.341	-1.0313244	2.3491278	-0.0572958	175.5371425	72.18124884	140.3460621
6.15	615	0.954	-0.027	0.341	-1.0886202	2.3491278	-0.0572958	175.5715199	72.12395304	140.3918987
6.16	616	0.952	-0.025	0.344	-0.9740286	2.2345362	-0.2291832	175.5715199	72.10103472	140.4033579
6.17	617	0.952	-0.027	0.344	-0.9167328	2.0626488	-0.2291832	175.5715199	72.0781164	140.4148171
6.18	618	0.953	-0.026	0.342	-1.0886202	2.2345362	-0.286479	175.5715199	72.06092766	140.4262762
6.19	619	0.952	-0.026	0.342	-1.0313244	2.1772404	-0.3437748	175.5715199	72.03800934	140.4377354
6.2	620	0.951	-0.026	0.342	-0.9740286	2.1199446	-0.3437748	175.611627	71.98071354	140.4893016
6.21	621	0.95	-0.023	0.342	-0.9740286	1.9480572	-0.2291832	175.611627	71.9635248	140.5007608
6.22	622	0.95	-0.023	0.345	-0.6302538	1.6042824	-0.1718874	175.6173566	71.94633606	140.5064903
6.23	623	0.951	-0.024	0.346	-0.8021412	1.4896908	0	175.611627	71.92914732	140.5122199
6.24	624	0.95	-0.023	0.348	-0.6302538	1.145916	0.1718874	175.6001678	71.91768816	140.5064903
6.25	625	0.952	-0.025	0.347	-0.572958	0.859437	0.1718874	175.6689228	71.84320362	140.5752453
6.26	626	0.952	-0.026	0.346	-0.859437	0.859437	0.1718874	175.6574636	71.83174446	140.5695157
6.27	627	0.952	-0.027	0.349	-0.8021412	0.859437	0.1718874	175.6402749	71.82601488	140.5637861
6.28	628	0.953	-0.028	0.348	-0.9167328	0.859437	0.1145916	175.6288157	71.81455572	140.5637861
6.29	629	0.954	-0.026	0.347	-1.145916	1.0313244	0.0572958	175.6173566	71.80882614	140.5637861
6.3	630	0.952	-0.024	0.344	-1.0313244	1.0886202	0.1718874	175.6689228	71.75153034	140.6210819
6.31	631	0.949	-0.027	0.341	-1.0313244	1.145916	0.0572958	175.6574636	71.74007118	140.6210819
6.32	632	0.946	-0.027	0.338	-1.0313244	1.5469866	0.0572958	175.6460045	71.72288244	140.6153524
6.33	633	0.943	-0.025	0.335	-0.9167328	1.9480572	0	175.6345453	71.7056937	140.6210819
6.34	634	0.94	-0.027	0.335	-0.9740286	2.3491278	-0.0572958	175.6345453	71.68277538	140.6268115
6.35	635	0.939	-0.026	0.338	-0.9740286	2.6929026	-0.1145916	175.6746524	71.63120916	140.6726482
6.36	636	0.939	-0.025	0.341	-0.6875496	2.6929026	-0.1145916	175.6746524	71.60256126	140.6841073
6.37	637	0.943	-0.026	0.344	-0.4583664	2.5210152	-0.0572958	175.6746524	71.57964294	140.6898369
6.38	638	0.949	-0.025	0.348	-0.3437748	2.578311	0	175.6746524	71.55099504	140.6955665
6.39	639	0.952	-0.025	0.351	-0.1718874	2.578311	0	175.6746524	71.52807672	140.7012961
6.4	640	0.953	-0.026	0.352	-0.1145916	2.5210152	-0.1145916	175.7262186	71.46505134	140.7471327
6.41	641	0.953	-0.024	0.354	-0.1718874	2.4637194	-0.1718874	175.7319482	71.43640344	140.7585919
6.42	642	0.953	-0.026	0.355	-0.2291832	2.4637194	-0.1718874	175.7376778	71.41348512	140.7643214
6.43	643	0.953	-0.026	0.354	-0.4583664	2.291832	-0.1145916	175.7434073	71.3905668	140.7757806
6.44	644	0.951	-0.025	0.354	-0.6875496	2.1199446	-0.1145916	175.7434073	71.36764848	140.7815102
6.45	645	0.95	-0.025	0.354	-0.6302538	2.0626488	0	175.8007031	71.3046231	140.8445356
6.46	646	0.947	-0.024	0.351	-0.6875496	1.8334656	0	175.7949736	71.28743436	140.8445356
6.47	647	0.947	-0.026	0.353	-0.6875496	1.7761698	0	175.789244	71.27024562	140.8502651
6.48	648	0.948	-0.026	0.352	-0.6875496	1.8334656	0	175.7835144	71.25305688	140.8502651
6.49	649	0.946	-0.024	0.353	-0.572958	1.6615782	-0.0572958	175.7777848	71.23586814	140.8502651
6.5	650	0.948	-0.026	0.355	-0.572958	1.6042824	-0.1718874	175.8350806	71.17284276	140.9075609
6.51	651	0.949	-0.025	0.355	-0.572958	1.6042824	-0.1718874	175.8350806	71.15565402	140.9132905
6.52	652	0.947	-0.023	0.354	-0.572958	1.6042824	-0.0572958	175.8350806	71.13846528	140.9190201
6.53	653	0.948	-0.025	0.355	-0.6875496	1.6042824	0.1145916	175.8236215	71.12127654	140.9190201
6.54	654	0.948	-0.023	0.355	-0.859437	1.432395	0.2291832	175.8064327	71.10981738	140.9132905
6.55	655	0.946	-0.024	0.354	-1.0313244	1.432395	0.5156622	175.8408102	71.06398074	140.9533976
6.56	656	0.947	-0.024	0.354	-1.0886202	1.4896908	0.572958	175.8178919	71.046792	140.9362088
6.57	657	0.945	-0.023	0.354	-1.0313244	1.3750992	0.572958	175.789244	71.02960326	140.9190201
6.58	658	0.944	-0.026	0.355	-0.6875496	1.3750992	0.4583664	175.7663257	71.0181441	140.9075609
6.59	659	0.945	-0.028	0.358	-0.859437	1.432395	0.4583664	175.7491369	71.00095536	140.8961018
6.6	660	0.945	-0.026	0.358	-0.9740286	1.145916	0.286479	175.7949736	70.93792998	140.947668
6.61	661	0.947	-0.027	0.358	-0.7448454	1.0313244	0.286479	175.7777848	70.92647082	140.9362088
6.62	662	0.948	-0.027	0.359	-0.859437	0.8021412	0.3437748	175.7605961	70.92074124	140.9247497
6.63	663	0.947	-0.026	0.361	-0.6875496	0.4010706	0.3437748	175.7434073	70.91501166	140.9190201
6.64	664	0.95	-0.027	0.363	-0.6302538	0	0.4583664	175.720489	70.91501166	140.9018314
6.65	665	0.95	-0.026	0.363	-0.6875496	-0.3437748	0.4583664	175.7720552	70.8462567	140.947668
6.66	666	0.948	-0.026	0.361	-0.4010706	-0.7448454	0.5156622	175.7491369	70.85198628	140.9362088
6.67	667	0.945	-0.027	0.36	-0.4583664	-0.9740286	0.4010706	175.7319482	70.86344544	140.9190201
6.68	668	0.947	-0.027	0.36	-0.8021412	-1.0886202	0.4010706	175.7090299	70.8749046	140.9018314
6.69	669	0.947	-0.026	0.358	-0.9740286	-1.0886202	0.3437748	175.6861115	70.88636376	140.8903722
6.7	670	0.947	-0.027	0.357	-0.9167328	-0.9740286	0.3437748	175.7033003	70.85198628	140.9075609
6.71	671	0.946	-0.028	0.356	-0.859437	-0.9740286	0.3437748	175.680382	70.85771586	140.8961018
6.72	672	0.948	-0.029	0.358	-0.9167328	-1.0313244	0.3437748	175.6574636	70.86917502	140.8846426
6.73	673	0.948	-0.027	0.359	-1.145916	-1.6042824	0.286479	175.6345453	70.88636376	140.8731835
6.74	674	0.95	-0.028	0.359	-0.859437	-1.6042824	0.2291832	175.6173566	70.9035525	140.8617243
6.75	675	0.947	-0.028	0.356	-1.432395	-1.0313244	0.1718874	175.6402749	70.88063418	140.8961018
6.76	676	0.941	-0.025	0.351	-1.3178034	-1.145916	0.1718874	175.6173566	70.89209334	140.8846426
6.77	677	0.941	-0.027	0.35	-0.9167328	-1.3750992	0	175.6058974	70.90928208	140.8846426
6.78	678	0.943	-0.029	0.35	-0.9740286	-0.9740286	-0.0572958	175.5944383	70.91501166	140.8846426
6.79	679	0.944	-0.029	0.353	-0.9167328	-0.9167328	-0.286479	175.5944383	70.92647082	140.8903722
6.8	680	0.944	-0.027	0.354	-0.859437	-0.9740286	-0.286479	175.6460045	70.89782292	140.947668
6.81	681	0.943	-0.025	0.351	-0.8021412	-0.859437	-0.2291832	175.6460045	70.9035525	140.9533976
6.82	682	0.945	-0.026	0.35	-0.8021412	-0.6875496	-0.1718874	175.6402749	70.91501166	140.9591272
6.83	683	0.944	-0.025	0.352	-0.6875496	-0.572958	-0.0572958	175.6345453	70.92074124	140.9591272
6.84	684	0.945	-0.026	0.354	-0.5156622	-0.572958	0	175.6288157	70.92647082	140.9591272
6.85	685	0.948	-0.027	0.352	-0.7448454	-0.3437748	0.1145916	175.720489	70.8749046	141.0508004
6.86	686	0.947	-0.026	0.352	-0.8021412	-0.1145916	0.1145916	175.7033003	70.8749046	141.0450709
6.87	687	0.944	-0.025	0.353	-0.6302538	-0.1718874	0.1718874	175.6918411	70.8749046	141.0393413
6.88	688	0.945	-0.028	0.351	-0.7448454	-0.1718874	0.286479	175.6746524	70.88063418	141.0278821
6.89	689	0.945	-0.026	0.355	-0.7448454	0	0.286479	175.6574636	70.88063418	141.016423
6.9	690	0.945	-0.026	0.355	-0.6302538	0.1145916	0.4583664	175.720489	70.8176088	141.0794483
6.91	691	0.947	-0.026	0.354	-0.7448454	0.2291832	0.5156622	175.6975707	70.8176088	141.0622596
6.92	692	0.95	-0.028	0.356	-0.8021412	0.3437748	0.5156622	175.6746524	70.81187922	141.0450709
6.93	693	0.949	-0.028	0.358	-0.6875496	0.2291832	0.572958	175.6517341	70.81187922	141.0278821
6.94	694	0.947	-0.028	0.357	-0.8021412	0.1145916	0.4583664	175.6288157	70.80614964	141.016423
6.95	695	0.947	-0.026	0.355	-0.9167328	0.1145916	0.5156622	175.6689228	70.77177216	141.0622596
6.96	696	0.944	-0.027	0.353	-0.9167328	0.0572958	0.572958	175.6460045	70.76604258	141.0450709
6.97	697	0.942	-0.028	0.351	-0.9167328	0.2291832	0.5156622	175.6173566	70.76604258	141.0278821
6.98	698	0.942	-0.028	0.353	-1.0313244	0.3437748	0.5156622	175.5944383	70.760313	141.0106934
6.99	699	0.941	-0.027	0.352	-0.8021412	0.2291832	0.4010706	175.5715199	70.760313	140.9992342
7	700	0.944	-0.029	0.355	-0.7448454	0.4010706	0.3437748	175.611627	70.70874678	141.0450709
7.01	701	0.947	-0.029	0.358	-0.859437	0.5156622	0.286479	175.5944383	70.7030172	141.0336117
7.02	702	0.949	-0.029	0.358	-0.7448454	0.4010706	0.1718874	175.5829791	70.69728762	141.0278821
7.03	703	0.947	-0.03	0.357	-0.7448454	0.4583664	0.0572958	175.5715199	70.69728762	141.0278821
7.04	704	0.946	-0.029	0.356	-0.6302538	0.4010706	0	175.5657904	70.69155804	141.0278821
7.05	705	0.942	-0.027	0.354	-0.4010706	0.1718874	-0.1145916	175.680382	70.62853266	141.1367441
7.06	706	0.946	-0.029	0.354	-0.3437748	0.286479	-0.1718874	175.680382	70.62280308	141.1424737
7.07	707	0.946	-0.028	0.356	-0.1718874	0.4010706	-0.2291832	175.6861115	70.6170735	141.1482033
7.08	708	0.946	-0.027	0.358	0	0.1718874	-0.286479	175.6975707	70.6170735	141.1596625
7.09	709	0.948	-0.028	0.357	0.0572958	0.1718874	-0.286479	175.7033003	70.6170735	141.1711216
7.1	710	0.946	-0.026	0.358	0	0.286479	-0.286479	175.9210243	70.51967064	141.3716569
7.11	711	0.944	-0.026	0.357	0.0572958	0.0572958	-0.286479	175.9324835	70.51967064	141.3773865
7.12	712	0.946	-0.027	0.357	0	-0.1145916	-0.2291832	175.9382131	70.51967064	141.3888457
7.13	713	0.946	-0.024	0.359	0	-0.2291832	-0.1145916	175.9382131	70.52540022	141.3888457
7.14	714	0.946	-0.026	0.359	0.0572958	-0.3437748	-0.0572958	175.9439426	70.5311298	141.3945752
7.15	715	0.947	-0.026	0.357	-0.1145916	-0.3437748	0	176.0871821	70.46237484	141.5263556
7.16	716	0.946	-0.027	0.357	-0.0572958	-0.4583664	0	176.0871821	70.46237484	141.5263556
7.17	717	0.945	-0.027	0.357	0.1145916	-0.6302538	0.1145916	176.0814526	70.46810442	141.520626
7.18	718	0.946	-0.027	0.356	0.0572958	-0.6875496	0.1145916	176.0814526	70.47956358	141.520626
7.19	719	0.946	-0.026	0.358	0	-0.6302538	0.1145916	176.075723	70.48529316	141.5148964
7.2	720	0.946	-0.026	0.359	0	-0.7448454	0.1145916	176.1330188	70.45091568	141.5664626
7.21	721	0.947	-0.026	0.357	0.4583664	-0.9167328	0.0572958	176.1330188	70.45664526	141.5607331
7.22	722	0.947	-0.026	0.358	0.3437748	-0.8021412	0.0572958	176.1330188	70.46810442	141.5607331
7.23	723	0.948	-0.027	0.359	0.2291832	-0.7448454	0	176.1387484	70.473834	141.5550035
7.24	724	0.949	-0.027	0.357	0.0572958	-0.5156622	0.0572958	176.1330188	70.47956358	141.5550035
7.25	725	0.948	-0.027	0.357	0	-0.3437748	0	176.2304216	70.39934946	141.6409472
7.26	726	0.946	-0.026	0.356	-0.0572958	-0.1718874	0.0572958	176.2246921	70.39934946	141.6352176
7.27	727	0.945	-0.026	0.355	-0.286479	-0.0572958	0.1145916	176.2189625	70.39934946	141.6352176
7.28	728	0.944	-0.026	0.355	-0.4010706	0	0.2291832	176.2075033	70.39934946	141.6237584
7.29	729	0.941	-0.027	0.355	-0.4010706	0	0.2291832	176.1960442	70.39934946	141.6180289
7.3	730	0.939	-0.025	0.354	-0.4010706	-0.0572958	0.286479	176.2590695	70.37070156	141.6810542
7.31	731	0.937	-0.026	0.351	-0.0572958	-0.1718874	0.286479	176.2476104	70.37070156	141.6695951
7.32	732	0.939	-0.03	0.354	0	0	0.2291832	176.2418808	70.37070156	141.6638655
7.33	733	0.939	-0.024	0.353	-0.0572958	0.286479	0.0572958	176.2418808	70.36497198	141.6581359
7.34	734	0.945	-0.029	0.355	0.286479	0.4583664	-0.1145916	176.2476104	70.3592424	141.6638655
7.35	735	0.946	-0.027	0.358	0.3437748	0.6875496	-0.1718874	176.2819879	70.3305945	141.6925134
7.36	736	0.948	-0.027	0.359	0.4010706	0.8021412	-0.3437748	176.2991766	70.32486492	141.7097021
7.37	737	0.949	-0.027	0.359	0.4010706	0.6875496	-0.4010706	176.3163653	70.31913534	141.7211613
7.38	738	0.948	-0.026	0.36	0.3437748	0.8021412	-0.286479	176.3278245	70.30767618	141.7326205
7.39	739	0.946	-0.025	0.36	0.1145916	0.6875496	-0.1718874	176.3392837	70.3019466	141.73835
7.4	740	0.945	-0.026	0.356	-0.1718874	0.8021412	-0.0572958	176.3851203	70.2732987	141.7841867
7.41	741	0.941	-0.026	0.354	0	0.8021412	0	176.3851203	70.26756912	141.7841867
7.42	742	0.938	-0.027	0.353	0.1718874	0.7448454	0	176.3851203	70.26183954	141.7841867
7.43	743	0.939	-0.028	0.354	0.286479	0.5156622	-0.0572958	176.3908499	70.25610996	141.7899163
7.44	744	0.941	-0.026	0.358	0.4010706	0.6302538	-0.1718874	176.402309	70.25038038	141.7956458
7.45	745	0.946	-0.026	0.36	0.2291832	0.859437	-0.1718874	176.4366865	70.2160029	141.8242937
7.46	746	0.948	-0.024	0.361	-0.0572958	0.9740286	-0.1145916	176.4424161	70.20454374	141.8300233
7.47	747	0.948	-0.023	0.364	-0.1718874	0.9167328	0	176.4424161	70.19881416	141.8357529
7.48	748	0.947	-0.026	0.363	-0.286479	1.0313244	0.1145916	176.4366865	70.187355	141.8300233
7.49	749	0.945	-0.03	0.364	-0.4583664	0.859437	0.2291832	176.4252274	70.17589584	141.8242937
7.5	750	0.944	-0.025	0.363	-0.6302538	0.286479	0.286479	176.4767936	70.14151836	141.87586
7.51	751	0.948	-0.027	0.365	-0.3437748	-0.286479	0.3437748	176.4653344	70.14151836	141.8644008
7.52	752	0.948	-0.027	0.365	-0.6302538	0	0.286479	176.4481457	70.14151836	141.8586712
7.53	753	0.941	-0.027	0.36	-0.8021412	-0.1145916	0.2291832	176.4309569	70.14151836	141.8472121
7.54	754	0.936	-0.028	0.353	-0.3437748	-0.4583664	0.1718874	176.4194978	70.14724794	141.8414825
7.55	755	0.939	-0.028	0.354	-0.286479	-0.3437748	0	176.4538753	70.11287046	141.87586
7.56	756	0.944	-0.027	0.36	-0.286479	-0.1145916	-0.0572958	176.4538753	70.11287046	141.8815895
7.57	757	0.946	-0.025	0.362	-0.1718874	-0.1145916	-0.1718874	176.4596048	70.11287046	141.8873191
7.58	758	0.948	-0.026	0.363	-0.3437748	-0.1145916	-0.1145916	176.4596048	70.11860004	141.8873191
7.59	759	0.946	-0.025	0.362	-0.6302538	-0.1145916	0.0572958	176.4538753	70.11860004	141.8873191
7.6	760	0.944	-0.025	0.36	-0.572958	-0.2291832	0.2291832	176.4767936	70.1014113	141.915967
7.61	761	0.944	-0.026	0.357	-0.6302538	-0.2291832	0.3437748	176.4596048	70.10714088	141.9045079
7.62	762	0.941	-0.027	0.358	-0.6302538	-0.1145916	0.4583664	176.4424161	70.10714088	141.8930487
7.63	763	0.94	-0.027	0.358	-0.5156622	-0.1718874	0.5156622	176.4194978	70.10714088	141.87586
7.64	764	0.944	-0.027	0.359	-0.6875496	0	0.4583664	176.402309	70.10714088	141.8586712
7.65	765	0.944	-0.027	0.36	-0.6875496	0	0.3437748	176.402309	70.08995214	141.8644008
7.66	766	0.944	-0.029	0.361	-0.572958	0	0.3437748	176.3851203	70.08995214	141.8586712
7.67	767	0.946	-0.028	0.363	-0.7448454	0	0.1718874	176.3736611	70.08995214	141.8529416
7.68	768	0.946	-0.026	0.363	-0.7448454	-0.0572958	0.2291832	176.3564724	70.08995214	141.8414825
7.69	769	0.944	-0.027	0.362	-0.4583664	-0.286479	0.2291832	176.3450132	70.09568172	141.8357529
7.7	770	0.944	-0.028	0.361	-0.6302538	-0.3437748	0.2291832	176.3392837	70.07849298	141.8300233
7.71	771	0.942	-0.029	0.361	-0.572958	-0.4010706	0.2291832	176.3220949	70.08422256	141.8242937
7.72	772	0.943	-0.028	0.36	-0.6302538	-0.3437748	0.1145916	176.3106358	70.08422256	141.8185642
7.73	773	0.944	-0.03	0.357	-0.7448454	-0.1718874	0.0572958	176.2991766	70.08995214	141.8185642
7.74	774	0.942	-0.028	0.359	-0.572958	0	0.0572958	176.293447	70.08995214	141.8128346
