TimeStamp(s)	FrameCounter	AccX	AccY	AccZ	GyrX	GyrY	GyrZ	EulerX	EulerY	EulerZ
0.01	1	-0.009	-0.992	0.2	0.1145916	-0.6302538	-0.0572958	100.2561908	-0.26929026	8.26778394
0.02	2	-0.011	-0.986	0.205	0.4010706	-0.6875496	-0.3437748	100.2619204	-0.26356068	8.25632478
0.03	3	-0.011	-0.985	0.206	0.5156622	-0.4583664	-0.4583664	100.26765	-0.2578311	8.25632478
0.04	4	-0.01	-0.986	0.202	0.4583664	-0.3437748	-0.572958	100.2733796	-0.25210152	8.2505952
0.05	5	-0.012	-0.987	0.202	0.5156622	-0.286479	-0.4583664	100.2848387	-0.24637194	8.2505952
0.06	6	-0.011	-0.989	0.204	0.5156622	-0.3437748	-0.5156622	100.2905683	-0.24064236	8.24486562
0.07	7	-0.009	-0.989	0.205	0.4583664	-0.286479	-0.5156622	100.2962979	-0.23491278	8.24486562
0.08	8	-0.008	-0.991	0.204	0.286479	-0.1718874	-0.6302538	100.2962979	-0.2291832	8.24486562
0.09	9	-0.007	-0.993	0.203	0.2291832	-0.1718874	-0.572958	100.3020275	-0.22345362	8.24486562
0.1	10	-0.009	-0.995	0.203	0.286479	-0.286479	-0.3437748	100.3020275	-0.21772404	8.23913604
0.11	11	-0.009	-0.997	0.206	0.2291832	-0.572958	-0.286479	100.3077571	-0.21199446	8.23340646
0.12	12	-0.01	-0.997	0.205	-0.0572958	-0.6875496	-0.286479	100.3077571	-0.21199446	8.22767688
0.13	13	-0.009	-0.994	0.204	-0.1718874	-0.6302538	-0.286479	100.3020275	-0.20626488	8.2219473
0.14	14	-0.008	-0.993	0.206	-0.2291832	-0.5156622	-0.286479	100.3020275	-0.2005353	8.21621772
0.15	15	-0.009	-0.989	0.205	-0.2291832	-0.4583664	-0.4010706	100.3077571	-0.19480572	8.21621772
0.16	16	-0.009	-0.986	0.204	-0.1718874	-0.2291832	-0.4583664	100.3020275	-0.18907614	8.21048814
0.17	17	-0.01	-0.986	0.202	-0.1718874	-0.286479	-0.5156622	100.3020275	-0.18334656	8.21048814
0.18	18	-0.01	-0.986	0.203	-0.1145916	-0.286479	-0.5156622	100.3020275	-0.17761698	8.20475856
0.19	19	-0.008	-0.987	0.205	0.0572958	-0.286479	-0.4010706	100.3020275	-0.1718874	8.20475856
0.2	20	-0.008	-0.986	0.204	0.1718874	-0.4583664	-0.3437748	100.3134866	-0.16615782	8.19902898
0.21	21	-0.005	-0.986	0.205	0.3437748	-0.5156622	-0.3437748	100.3134866	-0.16615782	8.1932994
0.22	22	-0.004	-0.986	0.207	0.2291832	-0.6302538	-0.286479	100.3192162	-0.16042824	8.18756982
0.23	23	-0.004	-0.984	0.205	0.286479	-0.6875496	-0.1718874	100.3192162	-0.15469866	8.18184024
0.24	24	-0.004	-0.985	0.205	0.286479	-0.7448454	-0.1718874	100.3249458	-0.14896908	8.17611066
0.25	25	-0.005	-0.986	0.205	0.286479	-0.5156622	-0.1145916	100.3421345	-0.14896908	8.17038108
0.26	26	-0.009	-0.987	0.207	0.3437748	-0.5156622	-0.0572958	100.3478641	-0.1432395	8.1646515
0.27	27	-0.01	-0.99	0.207	0.4010706	-0.6302538	-0.0572958	100.3478641	-0.1432395	8.15892192
0.28	28	-0.01	-0.99	0.207	0.4583664	-0.572958	-0.0572958	100.3535937	-0.1432395	8.15319234
0.29	29	-0.012	-0.991	0.207	0.4010706	-0.6875496	-0.1145916	100.3593233	-0.13750992	8.14746276
0.3	30	-0.012	-0.989	0.205	0.3437748	-0.8021412	-0.1145916	100.3650529	-0.1432395	8.1360036
0.31	31	-0.01	-0.989	0.205	0.2291832	-0.4583664	0	100.3707824	-0.13750992	8.13027402
0.32	32	-0.008	-0.989	0.206	0.0572958	-0.0572958	0	100.3707824	-0.13750992	8.13027402
0.33	33	-0.008	-0.988	0.206	0.0572958	0	-0.0572958	100.3707824	-0.13750992	8.13027402
0.34	34	-0.008	-0.988	0.206	0.0572958	0	0	100.3707824	-0.13750992	8.13027402
0.35	35	-0.009	-0.989	0.204	0.0572958	0	0.0572958	100.4108895	-0.16615782	8.12454444
0.36	36	-0.01	-0.99	0.205	0	0	0.1145916	100.4108895	-0.16615782	8.12454444
0.37	37	-0.011	-0.989	0.205	0	0.1718874	0.1718874	100.4108895	-0.16615782	8.12454444
0.38	38	-0.01	-0.988	0.207	0.0572958	0.2291832	0.1145916	100.4108895	-0.1718874	8.12454444
0.39	39	-0.01	-0.989	0.206	0.0572958	0.3437748	0.1145916	100.4108895	-0.1718874	8.13027402
0.4	40	-0.009	-0.991	0.207	0.0572958	0.2291832	0.0572958	100.4280782	-0.17761698	8.13027402
0.41	41	-0.009	-0.991	0.208	0	0.3437748	0.0572958	100.4280782	-0.17761698	8.1360036
0.42	42	-0.006	-0.991	0.206	0	0.4583664	0.0572958	100.4280782	-0.17761698	8.1360036
0.43	43	-0.004	-0.99	0.205	-0.1718874	0.4010706	0.0572958	100.4223487	-0.18334656	8.14173318
0.44	44	-0.005	-0.988	0.208	-0.1718874	0.286479	0.0572958	100.4223487	-0.18334656	8.14173318
0.45	45	-0.003	-0.988	0.209	-0.2291832	0.4583664	0	100.445267	-0.16615782	8.14173318
0.46	46	-0.005	-0.989	0.209	-0.3437748	0.2291832	-0.0572958	100.445267	-0.16615782	8.14746276
0.47	47	-0.009	-0.991	0.207	-0.286479	0.1145916	0	100.4395374	-0.16615782	8.14746276
0.48	48	-0.011	-0.993	0.206	-0.1145916	0.1718874	0.0572958	100.4395374	-0.16615782	8.14746276
0.49	49	-0.008	-0.992	0.207	-0.286479	0.2291832	0.1145916	100.4338078	-0.16615782	8.14746276
0.5	50	-0.005	-0.989	0.207	-0.1718874	0.3437748	0.1718874	100.4509966	-0.15469866	8.14746276
0.51	51	-0.005	-0.985	0.209	-0.1145916	0.286479	0.1718874	100.4509966	-0.16042824	8.15319234
0.52	52	-0.006	-0.982	0.21	-0.1718874	0.1718874	0.0572958	100.445267	-0.16042824	8.15319234
0.53	53	-0.005	-0.98	0.209	-0.0572958	0.1718874	0	100.445267	-0.16042824	8.15319234
0.54	54	-0.006	-0.98	0.208	0.0572958	0.2291832	0	100.445267	-0.16042824	8.15892192
0.55	55	-0.007	-0.983	0.208	0.1718874	0.1718874	0	100.4681853	-0.16042824	8.15892192
0.56	56	-0.009	-0.987	0.208	0.286479	0.1145916	0.1145916	100.4681853	-0.16615782	8.15892192
0.57	57	-0.008	-0.988	0.206	0.2291832	0	0.1145916	100.4681853	-0.16615782	8.15892192
0.58	58	-0.008	-0.99	0.206	0.1718874	0	0.0572958	100.4739149	-0.16615782	8.15892192
0.59	59	-0.008	-0.99	0.208	0.2291832	0	0	100.4739149	-0.16615782	8.15892192
0.6	60	-0.008	-0.989	0.21	0.1718874	0.1145916	0	100.5197515	-0.1718874	8.15319234
0.61	61	-0.01	-0.988	0.21	0.2291832	0.1718874	0.0572958	100.5197515	-0.1718874	8.15319234
0.62	62	-0.009	-0.988	0.208	0	0.3437748	0.0572958	100.5197515	-0.1718874	8.15892192
0.63	63	-0.009	-0.989	0.205	0	0.3437748	0.0572958	100.5197515	-0.1718874	8.15892192
0.64	64	-0.01	-0.986	0.205	0	0.2291832	0.1145916	100.5197515	-0.17761698	8.1646515
0.65	65	-0.008	-0.988	0.207	0.0572958	0.286479	0.1718874	100.5369403	-0.1718874	8.1646515
0.66	66	-0.007	-0.99	0.207	0.0572958	0.1718874	0.1145916	100.5369403	-0.17761698	8.1646515
0.67	67	-0.006	-0.991	0.206	0	0.0572958	0.1718874	100.5369403	-0.17761698	8.1646515
0.68	68	-0.006	-0.993	0.207	0	0	0.2291832	100.5369403	-0.18334656	8.1646515
0.69	69	-0.007	-0.996	0.207	-0.1718874	-0.1718874	0.286479	100.5369403	-0.18334656	8.1646515
0.7	70	-0.008	-0.994	0.207	-0.1145916	-0.1718874	0.4583664	100.5369403	-0.18334656	8.15892192
0.71	71	-0.007	-0.992	0.207	-0.286479	-0.1718874	0.4010706	100.5312107	-0.18907614	8.15319234
0.72	72	-0.007	-0.988	0.207	-0.4010706	-0.1145916	0.1718874	100.5254811	-0.18907614	8.15319234
0.73	73	-0.008	-0.987	0.208	-0.2291832	-0.0572958	0	100.5254811	-0.18907614	8.15319234
0.74	74	-0.008	-0.985	0.207	-0.286479	0	0	100.5197515	-0.18907614	8.15319234
0.75	75	-0.006	-0.985	0.207	-0.1145916	0.1718874	0	100.554129	-0.17761698	8.14746276
0.76	76	-0.005	-0.986	0.207	-0.0572958	0.0572958	-0.0572958	100.5483994	-0.17761698	8.14746276
0.77	77	-0.005	-0.985	0.208	0.0572958	0	0	100.5483994	-0.17761698	8.14746276
0.78	78	-0.004	-0.986	0.21	0.0572958	0	0.1145916	100.554129	-0.17761698	8.14746276
0.79	79	-0.005	-0.986	0.21	0.0572958	-0.1718874	0.1718874	100.554129	-0.17761698	8.14746276
0.8	80	-0.005	-0.988	0.21	0.1145916	-0.1718874	0.1718874	100.5827769	-0.1718874	8.14173318
0.81	81	-0.005	-0.988	0.21	0.1145916	-0.1145916	0.2291832	100.5827769	-0.1718874	8.1360036
0.82	82	-0.007	-0.988	0.209	0.1718874	-0.1145916	0.1718874	100.5827769	-0.17761698	8.1360036
0.83	83	-0.008	-0.988	0.21	0.1145916	0.0572958	0.1145916	100.5885065	-0.17761698	8.1360036
0.84	84	-0.006	-0.989	0.212	0.1145916	0.1718874	0.0572958	100.5885065	-0.17761698	8.1360036
0.85	85	-0.007	-0.988	0.208	0.0572958	0.2291832	0	100.5999656	-0.17761698	8.14173318
0.86	86	-0.006	-0.988	0.208	0.0572958	0.286479	0.0572958	100.5999656	-0.17761698	8.14173318
0.87	87	-0.007	-0.988	0.21	0	0.1145916	0.1145916	100.5999656	-0.17761698	8.14173318
0.88	88	-0.007	-0.987	0.207	0	0	0.1718874	100.5999656	-0.18334656	8.14173318
0.89	89	-0.009	-0.988	0.207	0.0572958	-0.2291832	0.286479	100.5999656	-0.18334656	8.14173318
0.9	90	-0.008	-0.987	0.208	0.1145916	-0.286479	0.2291832	100.6114248	-0.18334656	8.1360036
0.91	91	-0.008	-0.989	0.209	0.0572958	-0.1145916	0.1718874	100.6114248	-0.18907614	8.13027402
0.92	92	-0.009	-0.99	0.209	0.1145916	-0.1145916	0.1145916	100.6114248	-0.18907614	8.13027402
0.93	93	-0.009	-0.992	0.207	0.0572958	0.1145916	0	100.6114248	-0.18907614	8.13027402
0.94	94	-0.01	-0.992	0.208	0	0.2291832	0.1145916	100.6114248	-0.18907614	8.1360036
0.95	95	-0.009	-0.991	0.208	-0.0572958	0.3437748	0.1145916	100.6171544	-0.19480572	8.1360036
0.96	96	-0.009	-0.986	0.21	-0.2291832	0.4583664	0.1718874	100.6171544	-0.19480572	8.14173318
0.97	97	-0.007	-0.986	0.208	-0.1718874	0.4010706	0.1145916	100.6114248	-0.2005353	8.14746276
0.98	98	-0.007	-0.986	0.208	-0.1145916	0.3437748	0.1718874	100.6114248	-0.2005353	8.14746276
0.99	99	-0.007	-0.987	0.21	-0.0572958	0.3437748	0.0572958	100.6114248	-0.20626488	8.15319234
1	100	-0.006	-0.989	0.208	0	0.4010706	0.0572958	100.6114248	-0.19480572	8.15319234
1.01	101	-0.005	-0.991	0.207	-0.1718874	0.3437748	0	100.6114248	-0.19480572	8.15892192
1.02	102	-0.006	-0.99	0.209	-0.1145916	0.286479	0	100.6056952	-0.19480572	8.1646515
1.03	103	-0.005	-0.989	0.21	-0.0572958	0	0.1145916	100.6056952	-0.2005353	8.1646515
1.04	104	-0.005	-0.989	0.211	-0.1718874	-0.0572958	0.0572958	100.6056952	-0.2005353	8.15892192
1.05	105	-0.007	-0.991	0.211	-0.3437748	-0.0572958	0	100.6171544	-0.19480572	8.15892192
1.06	106	-0.01	-0.992	0.211	-0.2291832	-0.1145916	0	100.6171544	-0.19480572	8.15892192
1.07	107	-0.012	-0.992	0.21	-0.1145916	0.0572958	0.0572958	100.6171544	-0.19480572	8.15892192
1.08	108	-0.01	-0.989	0.21	-0.1718874	0.1718874	0.1145916	100.6114248	-0.19480572	8.15892192
1.09	109	-0.01	-0.985	0.212	-0.0572958	0.0572958	0.1718874	100.6114248	-0.2005353	8.15892192
1.1	110	-0.009	-0.982	0.213	-0.0572958	0.1145916	0.1145916	100.6458023	-0.2005353	8.15892192
1.11	111	-0.007	-0.98	0.211	-0.1145916	0.286479	0	100.6400727	-0.20626488	8.15892192
1.12	112	-0.005	-0.978	0.209	0	0.2291832	-0.0572958	100.6400727	-0.20626488	8.15892192
1.13	113	-0.005	-0.98	0.209	0.1718874	0.1718874	-0.0572958	100.6458023	-0.20626488	8.1646515
1.14	114	-0.007	-0.985	0.209	0.3437748	-0.0572958	-0.0572958	100.6458023	-0.2005353	8.1646515
1.15	115	-0.009	-0.99	0.209	0.4010706	-0.0572958	0	100.6572614	-0.20626488	8.1646515
1.16	116	-0.009	-0.991	0.21	0.3437748	0	0	100.662991	-0.20626488	8.1646515
1.17	117	-0.009	-0.992	0.21	0.2291832	0.0572958	0	100.662991	-0.20626488	8.1646515
1.18	118	-0.009	-0.992	0.211	0.1718874	0.1145916	-0.0572958	100.6687206	-0.20626488	8.1646515
1.19	119	-0.008	-0.991	0.21	0.0572958	0.1718874	-0.0572958	100.6687206	-0.20626488	8.1646515
1.2	120	-0.007	-0.988	0.21	0	0.286479	-0.0572958	100.6859093	-0.2005353	8.1646515
1.21	121	-0.009	-0.986	0.208	-0.1145916	0.1718874	-0.0572958	100.6801798	-0.2005353	8.17038108
1.22	122	-0.009	-0.986	0.21	-0.1145916	0.0572958	-0.0572958	100.6801798	-0.19480572	8.17038108
1.23	123	-0.009	-0.986	0.21	-0.1145916	0	-0.0572958	100.6801798	-0.19480572	8.17038108
1.24	124	-0.01	-0.987	0.208	0	-0.1145916	0	100.6801798	-0.19480572	8.17038108
1.25	125	-0.009	-0.99	0.209	0	0	-0.0572958	100.6916389	-0.2005353	8.17038108
1.26	126	-0.009	-0.992	0.21	-0.0572958	0	-0.0572958	100.6916389	-0.2005353	8.17038108
1.27	127	-0.011	-0.993	0.211	-0.0572958	0.1145916	-0.1145916	100.6916389	-0.2005353	8.17038108
1.28	128	-0.011	-0.995	0.21	-0.2291832	0.2291832	-0.1145916	100.6916389	-0.2005353	8.17611066
1.29	129	-0.012	-0.993	0.209	-0.4583664	0.2291832	-0.0572958	100.6859093	-0.2005353	8.17611066
1.3	130	-0.011	-0.992	0.209	-0.572958	0.286479	-0.1145916	100.6801798	-0.20626488	8.18184024
1.31	131	-0.012	-0.992	0.21	-0.6875496	0.4010706	-0.1145916	100.6744502	-0.20626488	8.18184024
1.32	132	-0.01	-0.99	0.21	-0.6875496	0.5156622	-0.3437748	100.6687206	-0.20626488	8.18756982
1.33	133	-0.008	-0.988	0.21	-0.8021412	0.572958	-0.572958	100.6572614	-0.2005353	8.19902898
1.34	134	-0.009	-0.988	0.21	-0.859437	0.5156622	-0.5156622	100.6515319	-0.19480572	8.20475856
1.35	135	-0.008	-0.987	0.21	-0.8021412	0.4010706	-0.6302538	100.6458023	-0.18907614	8.20475856
1.36	136	-0.008	-0.987	0.208	-0.6875496	0.5156622	-0.572958	100.6343431	-0.18334656	8.21048814
1.37	137	-0.006	-0.985	0.208	-0.4583664	0.4583664	-0.4583664	100.6343431	-0.18334656	8.21621772
1.38	138	-0.007	-0.984	0.209	-0.1145916	0.4010706	-0.4010706	100.6286135	-0.17761698	8.2219473
1.39	139	-0.004	-0.986	0.209	0	0.4010706	-0.4583664	100.6286135	-0.1718874	8.22767688
1.4	140	-0.007	-0.986	0.211	0	0.1718874	-0.4583664	100.6458023	-0.16615782	8.22767688
1.41	141	-0.007	-0.987	0.213	0.0572958	0.1718874	-0.5156622	100.6458023	-0.16042824	8.23340646
1.42	142	-0.009	-0.989	0.215	-0.0572958	0.1145916	-0.572958	100.6458023	-0.15469866	8.23340646
1.43	143	-0.01	-0.988	0.215	-0.1718874	0.0572958	-0.6302538	100.6458023	-0.14896908	8.23913604
1.44	144	-0.011	-0.987	0.214	-0.286479	0.0572958	-0.5156622	100.6400727	-0.1432395	8.23913604
1.45	145	-0.011	-0.989	0.213	-0.2291832	0.0572958	-0.286479	100.6515319	-0.14896908	8.23913604
1.46	146	-0.008	-0.99	0.213	-0.4010706	0.1145916	-0.1145916	100.6515319	-0.14896908	8.23913604
1.47	147	-0.005	-0.992	0.212	-0.4010706	0	0	100.6458023	-0.14896908	8.23913604
1.48	148	-0.004	-0.993	0.21	-0.4583664	-0.1718874	0.1145916	100.6400727	-0.14896908	8.23913604
1.49	149	-0.003	-0.993	0.209	-0.6875496	-0.3437748	0.0572958	100.6343431	-0.14896908	8.23340646
1.5	150	-0.007	-0.992	0.21	-0.8021412	-0.4583664	0.0572958	100.6286135	-0.14896908	8.22767688
1.51	151	-0.008	-0.993	0.209	-0.859437	-0.5156622	0	100.622884	-0.14896908	8.2219473
1.52	152	-0.009	-0.99	0.208	-0.9740286	-0.4583664	0	100.6114248	-0.1432395	8.21621772
1.53	153	-0.011	-0.988	0.207	-0.9167328	-0.3437748	0	100.5999656	-0.1432395	8.21621772
1.54	154	-0.01	-0.986	0.208	-0.7448454	-0.3437748	-0.1145916	100.5942361	-0.1432395	8.21048814
1.55	155	-0.007	-0.983	0.208	-0.6302538	-0.1718874	-0.1145916	100.5942361	-0.13750992	8.21048814
1.56	156	-0.005	-0.984	0.208	-0.6302538	-0.0572958	-0.1145916	100.5885065	-0.13750992	8.20475856
1.57	157	-0.003	-0.986	0.206	-0.6302538	-0.2291832	-0.0572958	100.5827769	-0.13750992	8.20475856
1.58	158	-0.004	-0.988	0.205	-0.572958	-0.4583664	0	100.5770473	-0.13178034	8.19902898
1.59	159	-0.006	-0.991	0.207	-0.572958	-0.6302538	0	100.5713177	-0.13178034	8.1932994
1.6	160	-0.005	-0.991	0.207	-0.5156622	-0.572958	0	100.5655882	-0.12605076	8.18756982
1.61	161	-0.006	-0.99	0.205	-0.572958	-0.572958	0	100.5598586	-0.12605076	8.18184024
1.62	162	-0.006	-0.988	0.208	-0.6302538	-0.572958	-0.0572958	100.554129	-0.12032118	8.17611066
1.63	163	-0.005	-0.986	0.208	-0.572958	-0.6875496	-0.1145916	100.5483994	-0.12032118	8.17038108
1.64	164	-0.009	-0.986	0.211	-0.5156622	-0.859437	-0.0572958	100.5426698	-0.12032118	8.15892192
1.65	165	-0.01	-0.988	0.211	-0.5156622	-0.8021412	0	100.5483994	-0.12032118	8.15319234
1.66	166	-0.011	-0.989	0.209	-0.4010706	-0.7448454	0.1145916	100.5426698	-0.12032118	8.14173318
1.67	167	-0.01	-0.994	0.205	-0.3437748	-0.4583664	0.1145916	100.5369403	-0.12032118	8.14173318
1.68	168	-0.009	-0.993	0.204	-0.3437748	-0.1718874	0.1718874	100.5369403	-0.12605076	8.1360036
1.69	169	-0.008	-0.992	0.205	-0.1718874	-0.1145916	0.1718874	100.5312107	-0.12605076	8.1360036
1.7	170	-0.006	-0.989	0.206	0	-0.0572958	0.1145916	100.5426698	-0.10886202	8.13027402
1.71	171	-0.004	-0.987	0.205	0	0	0.0572958	100.5426698	-0.10886202	8.13027402
1.72	172	-0.003	-0.983	0.204	0.0572958	0.0572958	0	100.5426698	-0.10886202	8.13027402
1.73	173	-0.003	-0.982	0.205	0.286479	-0.0572958	0	100.5483994	-0.10886202	8.13027402
1.74	174	-0.005	-0.984	0.206	0.3437748	-0.2291832	0	100.5483994	-0.10886202	8.13027402
1.75	175	-0.006	-0.985	0.204	0.3437748	-0.0572958	0	100.554129	-0.10886202	8.13027402
1.76	176	-0.007	-0.986	0.203	0.286479	-0.2291832	-0.0572958	100.554129	-0.10886202	8.12454444
1.77	177	-0.01	-0.988	0.201	0.2291832	-0.2291832	0	100.5598586	-0.10313244	8.12454444
1.78	178	-0.009	-0.988	0.203	0.3437748	-0.2291832	0	100.5598586	-0.10313244	8.12454444
1.79	179	-0.007	-0.989	0.202	0.4583664	-0.1145916	0	100.5655882	-0.10313244	8.11881486
1.8	180	-0.007	-0.989	0.2	0.572958	0	0	100.5598586	-0.10886202	8.12454444
1.81	181	-0.007	-0.992	0.202	0.5156622	-0.1718874	-0.0572958	100.5655882	-0.10313244	8.11881486
1.82	182	-0.008	-0.99	0.204	0.4583664	-0.1718874	-0.0572958	100.5655882	-0.10313244	8.11881486
1.83	183	-0.008	-0.99	0.207	0.5156622	-0.1145916	0	100.5713177	-0.10313244	8.11881486
1.84	184	-0.007	-0.99	0.206	0.4010706	0	0	100.5770473	-0.10313244	8.11881486
1.85	185	-0.007	-0.99	0.206	0.1718874	0.3437748	0	100.5827769	-0.10886202	8.11881486
1.86	186	-0.008	-0.992	0.206	0.2291832	0.286479	0.0572958	100.5827769	-0.10886202	8.12454444
1.87	187	-0.008	-0.992	0.206	0.1718874	0.5156622	0.0572958	100.5827769	-0.10886202	8.13027402
1.88	188	-0.005	-0.992	0.205	0	0.572958	0.1145916	100.5827769	-0.1145916	8.1360036
1.89	189	-0.004	-0.992	0.205	0	0.572958	0.1718874	100.5827769	-0.1145916	8.14173318
1.9	190	-0.001	-0.989	0.204	0	0.5156622	0.1145916	100.5770473	-0.10313244	8.14746276
1.91	191	-0.002	-0.988	0.203	0	0.286479	0.0572958	100.5827769	-0.10313244	8.14746276
1.92	192	-0.002	-0.986	0.205	0.1718874	0.1145916	0	100.5827769	-0.10313244	8.14746276
1.93	193	-0.004	-0.987	0.205	0.1145916	0.0572958	-0.0572958	100.5827769	-0.10313244	8.15319234
1.94	194	-0.005	-0.986	0.205	0.1145916	0.1145916	-0.1718874	100.5827769	-0.10313244	8.15319234
1.95	195	-0.005	-0.986	0.204	0.1718874	0.1718874	0	100.5885065	-0.09740286	8.15319234
1.96	196	-0.003	-0.986	0.204	0.2291832	0.1145916	0.0572958	100.5885065	-0.09740286	8.15319234
1.97	197	-0.002	-0.986	0.204	0.2291832	0	0.1718874	100.5942361	-0.09740286	8.15319234
1.98	198	-0.001	-0.987	0.205	0.286479	0.0572958	0.1718874	100.5942361	-0.09740286	8.15319234
1.99	199	-0.003	-0.986	0.204	0.286479	0	0.1718874	100.5999656	-0.10313244	8.15892192
2	200	-0.004	-0.987	0.204	0.3437748	0	0.1145916	100.5999656	-0.09167328	8.15319234
2.01	201	-0.004	-0.987	0.205	0.4010706	-0.1718874	0.1145916	100.6056952	-0.09740286	8.15319234
2.02	202	-0.006	-0.986	0.205	0.3437748	-0.2291832	0.1145916	100.6056952	-0.09740286	8.15319234
2.03	203	-0.006	-0.987	0.203	0.286479	0	0.1718874	100.6114248	-0.09740286	8.15319234
2.04	204	-0.006	-0.988	0.204	0.2291832	0	0.1718874	100.6114248	-0.09740286	8.14746276
2.05	205	-0.008	-0.991	0.204	0.1718874	0	0.2291832	100.5885065	-0.10886202	8.15319234
2.06	206	-0.008	-0.991	0.203	0	-0.0572958	0.2291832	100.5885065	-0.10886202	8.15319234
2.07	207	-0.009	-0.992	0.202	-0.1145916	-0.1718874	0.286479	100.5885065	-0.1145916	8.14746276
2.08	208	-0.008	-0.993	0.201	-0.1145916	-0.0572958	0.2291832	100.5827769	-0.1145916	8.14746276
2.09	209	-0.006	-0.993	0.202	0	0.0572958	0.2291832	100.5827769	-0.12032118	8.14746276
2.1	210	-0.005	-0.992	0.206	-0.1145916	0.2291832	0.1718874	100.5827769	-0.1145916	8.14746276
2.11	211	-0.003	-0.991	0.205	-0.2291832	0.7448454	0.1145916	100.5827769	-0.1145916	8.15319234
2.12	212	-0.002	-0.991	0.201	-0.3437748	0.859437	0.1718874	100.5770473	-0.12032118	8.1646515
2.13	213	-0.003	-0.991	0.2	-0.4583664	0.6302538	0.286479	100.5713177	-0.12032118	8.17038108
2.14	214	-0.003	-0.99	0.201	-0.3437748	0.5156622	0.5156622	100.5655882	-0.13178034	8.17611066
2.15	215	-0.004	-0.989	0.203	-0.1718874	0.1718874	0.572958	100.5598586	-0.12605076	8.17611066
2.16	216	-0.004	-0.988	0.205	-0.1145916	0	0.3437748	100.5598586	-0.13178034	8.17611066
2.17	217	-0.003	-0.986	0.203	0	0	0.2291832	100.5598586	-0.13178034	8.17611066
2.18	218	-0.004	-0.987	0.202	0.1718874	0	0.0572958	100.5598586	-0.13178034	8.17038108
2.19	219	-0.003	-0.986	0.202	0.0572958	0.0572958	0.0572958	100.5655882	-0.13750992	8.17611066
2.2	220	-0.005	-0.986	0.202	-0.1145916	-0.1718874	0.1718874	100.5655882	-0.13178034	8.17038108
2.21	221	-0.007	-0.984	0.206	-0.1145916	-0.4010706	0.286479	100.5655882	-0.13178034	8.1646515
2.22	222	-0.008	-0.982	0.204	-0.1718874	-0.5156622	0.286479	100.5598586	-0.13750992	8.15892192
2.23	223	-0.009	-0.985	0.204	0	-0.4583664	0.2291832	100.5598586	-0.13750992	8.15319234
2.24	224	-0.01	-0.991	0.205	0.0572958	-0.286479	0.286479	100.5598586	-0.13750992	8.15319234
2.25	225	-0.011	-0.997	0.204	0.1145916	-0.1145916	0.286479	100.554129	-0.14896908	8.14746276
2.26	226	-0.008	-1.001	0.201	0	0.1718874	0.2291832	100.554129	-0.14896908	8.15319234
2.27	227	-0.004	-0.997	0.199	-0.2291832	0.1718874	0.4010706	100.5483994	-0.15469866	8.15319234
2.28	228	-0.003	-0.991	0.201	-0.286479	0.1718874	0.5156622	100.5483994	-0.16042824	8.15319234
2.29	229	-0.004	-0.985	0.201	0	0.0572958	0.4583664	100.5483994	-0.16615782	8.15319234
2.3	230	-0.007	-0.98	0.2	0.0572958	0	0.3437748	100.5369403	-0.1718874	8.15319234
2.31	231	-0.009	-0.978	0.201	0.2291832	-0.0572958	0.1718874	100.5369403	-0.1718874	8.15319234
2.32	232	-0.01	-0.98	0.202	0.4010706	-0.2291832	-0.0572958	100.5426698	-0.1718874	8.15319234
2.33	233	-0.009	-0.982	0.201	0.4010706	-0.0572958	-0.286479	100.5483994	-0.16615782	8.15319234
2.34	234	-0.008	-0.987	0.198	0.5156622	-0.0572958	-0.286479	100.554129	-0.16615782	8.14746276
2.35	235	-0.006	-0.99	0.198	0.572958	0	-0.286479	100.5426698	-0.15469866	8.15319234
2.36	236	-0.006	-0.992	0.198	0.4583664	0.1145916	-0.286479	100.5483994	-0.15469866	8.15319234
2.37	237	-0.007	-0.991	0.198	0.4010706	0.1145916	-0.1718874	100.5483994	-0.14896908	8.15319234
2.38	238	-0.008	-0.992	0.197	0.4583664	0.1718874	0	100.554129	-0.14896908	8.15892192
2.39	239	-0.007	-0.991	0.198	0.286479	0.286479	0	100.5598586	-0.15469866	8.15892192
2.4	240	-0.008	-0.988	0.198	0.2291832	0.1718874	0	100.5312107	-0.15469866	8.1646515
2.41	241	-0.009	-0.989	0.199	0.4583664	0.0572958	-0.0572958	100.5369403	-0.15469866	8.1646515
2.42	242	-0.009	-0.991	0.199	0.4583664	0.1718874	-0.0572958	100.5426698	-0.15469866	8.17038108
2.43	243	-0.008	-0.992	0.199	0.4583664	0.286479	-0.2291832	100.5483994	-0.15469866	8.17038108
2.44	244	-0.009	-0.995	0.203	0.286479	0.5156622	-0.286479	100.5483994	-0.14896908	8.17611066
2.45	245	-0.01	-0.998	0.206	0.1145916	0.8021412	-0.286479	100.554129	-0.14896908	8.18756982
2.46	246	-0.008	-0.999	0.206	-0.2291832	1.432395	-0.4010706	100.5483994	-0.14896908	8.19902898
2.47	247	-0.006	-0.998	0.202	-0.8021412	1.6042824	-0.3437748	100.5369403	-0.14896908	8.21621772
2.48	248	-0.007	-0.994	0.198	-1.0886202	1.2605076	-0.4010706	100.5312107	-0.14896908	8.23340646
2.49	249	-0.008	-0.989	0.198	-0.9740286	1.2032118	-0.4010706	100.5197515	-0.14896908	8.24486562
2.5	250	-0.005	-0.986	0.197	-0.9740286	1.0886202	-0.4010706	100.5025628	-0.1432395	8.25632478
2.51	251	-0.006	-0.984	0.198	-0.6875496	1.0313244	-0.5156622	100.4968332	-0.13750992	8.26778394
2.52	252	-0.005	-0.986	0.2	-0.6302538	0.8021412	-0.6302538	100.485374	-0.13178034	8.27351352
2.53	253	-0.005	-0.987	0.199	-0.4583664	0.5156622	-0.6302538	100.485374	-0.12605076	8.28497268
2.54	254	-0.004	-0.989	0.2	-0.1718874	0.5156622	-0.572958	100.4796445	-0.12605076	8.29070226
2.55	255	-0.005	-0.989	0.202	-0.3437748	0.3437748	-0.6302538	100.4739149	-0.12032118	8.29643184
2.56	256	-0.007	-0.99	0.199	-0.4583664	0.3437748	-0.6875496	100.4681853	-0.10886202	8.29643184
2.57	257	-0.007	-0.99	0.2	-0.4010706	0.3437748	-0.7448454	100.4624557	-0.10313244	8.30216142
2.58	258	-0.008	-0.988	0.204	-0.4583664	0.4583664	-0.859437	100.4624557	-0.09740286	8.307891
2.59	259	-0.01	-0.987	0.202	-0.4583664	0.5156622	-0.8021412	100.4567261	-0.09167328	8.31935016
2.6	260	-0.009	-0.988	0.2	-0.3437748	0.572958	-0.8021412	100.445267	-0.0859437	8.32507974
2.61	261	-0.008	-0.989	0.202	-0.4010706	0.5156622	-0.8021412	100.4395374	-0.07448454	8.33080932
2.62	262	-0.008	-0.99	0.201	-0.5156622	0.572958	-0.8021412	100.4338078	-0.06875496	8.3365389
2.63	263	-0.006	-0.99	0.202	-0.5156622	0.6875496	-1.0313244	100.4338078	-0.06302538	8.34799806
2.64	264	-0.006	-0.993	0.198	-0.5156622	0.6302538	-1.145916	100.4280782	-0.05156622	8.35372764
2.65	265	-0.006	-0.993	0.199	-0.5156622	0.572958	-1.2032118	100.4166191	-0.04010706	8.3651868
2.66	266	-0.007	-0.994	0.199	-0.5156622	0.572958	-1.3178034	100.4108895	-0.0286479	8.37091638
2.67	267	-0.007	-0.993	0.198	-0.6875496	0.4583664	-1.432395	100.3994303	-0.01718874	8.37664596
2.68	268	-0.006	-0.991	0.198	-0.859437	0.286479	-1.5469866	100.3937008	0	8.38237554
2.69	269	-0.006	-0.99	0.197	-0.9167328	0.1145916	-1.6615782	100.3822416	0.01145916	8.38810512
2.7	270	-0.006	-0.99	0.199	-0.9740286	0	-1.7761698	100.3707824	0.0286479	8.3938347
2.71	271	-0.005	-0.99	0.199	-0.9740286	-0.1145916	-1.7761698	100.3593233	0.04583664	8.3938347
2.72	272	-0.004	-0.99	0.196	-1.0313244	-0.1145916	-1.8334656	100.3478641	0.06302538	8.3938347
2.73	273	-0.003	-0.99	0.195	-1.0313244	-0.2291832	-1.718874	100.336405	0.08021412	8.3938347
2.74	274	-0.004	-0.99	0.194	-0.9167328	-0.5156622	-1.718874	100.3306754	0.09740286	8.3938347
2.75	275	-0.005	-0.992	0.196	-0.9167328	-0.6875496	-1.718874	100.3192162	0.1145916	8.38810512
2.76	276	-0.005	-0.991	0.198	-0.9167328	-0.7448454	-1.7761698	100.3077571	0.13750992	8.38810512
2.77	277	-0.005	-0.991	0.198	-1.0313244	-0.6875496	-1.8907614	100.2962979	0.15469866	8.38237554
2.78	278	-0.006	-0.992	0.196	-1.0313244	-0.5156622	-2.005353	100.2848387	0.17761698	8.38237554
2.79	279	-0.005	-0.99	0.198	-1.2605076	-0.3437748	-2.1772404	100.2733796	0.2005353	8.38237554
2.8	280	-0.004	-0.99	0.197	-1.3178034	-0.2291832	-2.2345362	100.2561908	0.21772404	8.38237554
2.81	281	-0.002	-0.992	0.197	-1.3750992	-0.1145916	-2.3491278	100.2447317	0.24064236	8.38237554
2.82	282	0	-0.995	0.195	-1.4896908	-0.1145916	-2.3491278	100.2275429	0.26356068	8.38810512
2.83	283	-0.002	-0.996	0.196	-1.432395	-0.4010706	-2.291832	100.2103542	0.29220858	8.38810512
2.84	284	-0.002	-0.998	0.195	-1.432395	-0.5156622	-2.291832	100.198895	0.3151269	8.38810512
2.85	285	0.001	-0.997	0.193	-1.718874	-0.6875496	-2.3491278	100.1759767	0.33804522	8.38237554
2.86	286	0.002	-0.994	0.195	-1.8907614	-0.9167328	-2.4637194	100.158788	0.36669312	8.37664596
2.87	287	0.003	-0.991	0.196	-1.8907614	-0.9167328	-2.578311	100.1358697	0.39534102	8.37664596
2.88	288	0.002	-0.989	0.194	-1.9480572	-0.859437	-2.7501984	100.1186809	0.42398892	8.37091638
2.89	289	0.001	-0.988	0.193	-1.9480572	-1.0313244	-3.0366774	100.0957626	0.45263682	8.3651868
2.9	290	0	-0.988	0.193	-1.7761698	-0.9167328	-3.2658606	100.0785739	0.4870143	8.35945722
2.91	291	0.002	-0.99	0.192	-1.7761698	-0.8021412	-3.3804522	100.0613851	0.52139178	8.35945722
2.92	292	0.002	-0.992	0.191	-1.718874	-0.9167328	-3.3804522	100.0384668	0.55576926	8.35372764
2.93	293	0.001	-0.994	0.19	-1.7761698	-0.8021412	-3.3231564	100.0212781	0.59014674	8.35372764
2.94	294	0.003	-0.994	0.191	-1.8907614	-0.8021412	-3.3804522	100.0040893	0.62452422	8.35372764
2.95	295	0.002	-0.992	0.189	-1.9480572	-0.9740286	-3.437748	99.981171	0.6589017	8.34799806
2.96	296	0.003	-0.991	0.191	-2.1199446	-1.0886202	-3.437748	99.95825268	0.69900876	8.34226848
2.97	297	0.005	-0.988	0.189	-2.1199446	-1.0886202	-3.437748	99.93533436	0.73338624	8.3365389
2.98	298	0.005	-0.985	0.189	-2.0626488	-1.2032118	-3.4950438	99.91814562	0.76776372	8.33080932
2.99	299	0.004	-0.986	0.192	-1.9480572	-1.432395	-3.6096354	99.8952273	0.80787078	8.32507974
3	300	0.004	-0.988	0.193	-2.005353	-1.432395	-3.8388186	99.87803856	0.84797784	8.31362058
3.01	301	0.003	-0.989	0.191	-2.1772404	-1.3178034	-4.1252976	99.85512024	0.8880849	8.307891
3.02	302	0.003	-0.992	0.19	-2.291832	-1.0886202	-4.297185	99.83220192	0.93392154	8.30216142
3.03	303	0.003	-0.994	0.19	-2.1772404	-1.0313244	-4.4690724	99.8092836	0.97975818	8.30216142
3.04	304	0.004	-0.999	0.192	-2.3491278	-0.9167328	-4.6982556	99.78636528	1.0313244	8.30216142
3.05	305	0.004	-0.999	0.192	-2.578311	-1.0886202	-4.6982556	99.75771738	1.07143146	8.29643184
3.06	306	0.007	-1.001	0.191	-2.6929026	-1.2032118	-4.9274388	99.72906948	1.12299768	8.29643184
3.07	307	0.011	-1	0.191	-3.0366774	-1.0886202	-5.0993262	99.70042158	1.1745639	8.29070226
3.08	308	0.012	-0.997	0.191	-3.3231564	-1.0886202	-5.2712136	99.6660441	1.2318597	8.29070226
3.09	309	0.014	-0.998	0.19	-3.3804522	-1.145916	-5.3858052	99.63166662	1.28342592	8.28497268
3.1	310	0.016	-0.997	0.187	-3.6669312	-1.432395	-5.5003968	99.59155956	1.34072172	8.2792431
3.11	311	0.014	-0.995	0.187	-3.8961144	-1.8334656	-5.5003968	99.5514525	1.39801752	8.27351352
3.12	312	0.015	-0.993	0.187	-4.010706	-1.8907614	-5.5003968	99.51134544	1.45531332	8.26205436
3.13	313	0.015	-0.992	0.185	-4.2398892	-1.9480572	-5.6722842	99.4655088	1.5183387	8.2505952
3.14	314	0.018	-0.992	0.184	-4.2398892	-2.4637194	-5.7868758	99.42540174	1.5756345	8.23913604
3.15	315	0.01	-0.993	0.184	-4.1825934	-3.3804522	-5.8441716	99.3795651	1.63865988	8.21048814
3.16	316	0.003	-0.991	0.182	-4.2398892	-3.3231564	-6.1879464	99.33372846	1.70168526	8.18756982
3.17	317	0.001	-0.991	0.186	-4.297185	-3.9534102	-6.6463128	99.2936214	1.7761698	8.15892192
3.18	318	-0.007	-0.989	0.186	-4.1825934	-4.1825934	-7.2192708	99.24778476	1.85638392	8.13027402
3.19	319	-0.006	-0.99	0.187	-4.1825934	-3.0366774	-7.8495246	99.2076777	1.93659804	8.11308528
3.2	320	0.004	-0.994	0.186	-4.583664	-1.8907614	-8.7662574	99.15611148	2.02254174	8.1073557
3.21	321	0.015	-0.997	0.18	-4.7555514	-0.6875496	-9.5111028	99.11027484	2.1199446	8.11881486
3.22	322	0.022	-1.001	0.173	-4.870143	0	-9.5111028	99.05870862	2.21161788	8.13027402
3.23	323	0.026	-1.002	0.17	-4.8128472	0.1145916	-8.880849	99.01287198	2.29756158	8.14746276
3.24	324	0.031	-1	0.171	-4.6409598	-0.1718874	-8.1360036	98.96703534	2.3777757	8.15892192
3.25	325	0.037	-0.995	0.172	-4.5263682	-0.4010706	-7.3911582	98.91546912	2.45226024	8.1646515
3.26	326	0.042	-0.991	0.173	-4.4117766	-0.572958	-6.875496	98.87536206	2.5210152	8.17038108
3.27	327	0.042	-0.991	0.174	-4.2398892	-0.6875496	-6.8182002	98.82952542	2.58977016	8.17038108
3.28	328	0.04	-0.992	0.172	-4.1252976	-0.7448454	-6.9900876	98.78941836	2.65852512	8.17611066
3.29	329	0.039	-0.994	0.17	-4.1825934	-0.7448454	-7.5057498	98.74358172	2.73300966	8.17611066
3.3	330	0.042	-0.99	0.165	-4.3544808	-0.859437	-8.021412	98.69774508	2.81322378	8.18184024
3.31	331	0.046	-0.989	0.163	-4.4117766	-1.0886202	-8.59437	98.65190844	2.89916748	8.18184024
3.32	332	0.049	-0.991	0.163	-4.2398892	-1.8907614	-8.8235532	98.61180138	2.99084076	8.17611066
3.33	333	0.048	-0.99	0.163	-4.010706	-2.7501984	-8.8235532	98.57169432	3.08251404	8.15892192
3.34	334	0.049	-0.991	0.168	-3.8388186	-3.151269	-8.9381448	98.53158726	3.17418732	8.14173318
3.35	335	0.055	-0.993	0.169	-3.8961144	-3.0366774	-9.1100322	98.4914802	3.27159018	8.12454444
3.36	336	0.054	-0.993	0.165	-3.8388186	-2.7501984	-9.2819196	98.45137314	3.36899304	8.11308528
3.37	337	0.052	-0.994	0.164	-3.9534102	-2.578311	-9.3965112	98.41126608	3.46066632	8.10162612
3.38	338	0.056	-0.994	0.162	-4.1252976	-2.3491278	-9.167328	98.36542944	3.55806918	8.09016696
3.39	339	0.056	-0.998	0.161	-4.1825934	-2.2345362	-8.880849	98.32532238	3.64974246	8.0787078
3.4	340	0.054	-1.002	0.161	-4.1825934	-2.578311	-8.4797784	98.27948574	3.73568616	8.06724864
3.41	341	0.058	-1.005	0.164	-4.6409598	-3.151269	-8.307891	98.22791952	3.82162986	8.0500599
3.42	342	0.056	-1.004	0.164	-4.870143	-3.437748	-8.59437	98.1763533	3.91330314	8.02714158
3.43	343	0.055	-1.005	0.162	-4.9274388	-3.724227	-9.0527364	98.12478708	4.00497642	8.00422326
3.44	344	0.054	-1.003	0.157	-5.443101	-3.724227	-9.5683986	98.06749128	4.10810886	7.97557536
3.45	345	0.054	-0.997	0.159	-5.6722842	-3.7815228	-10.0840608	98.01019548	4.2112413	7.95265704
3.46	346	0.059	-0.992	0.158	-5.443101	-4.010706	-10.313244	97.95289968	4.32010332	7.92973872
3.47	347	0.064	-0.997	0.152	-5.0993262	-3.4950438	-10.1986524	97.90133346	4.42323576	7.9068204
3.48	348	0.071	-0.999	0.152	-5.0993262	-3.2658606	-10.026765	97.84403766	4.5263682	7.88963166
3.49	349	0.076	-1.004	0.154	-5.3858052	-3.437748	-10.1413566	97.79247144	4.63523022	7.86671334
3.5	350	0.072	-1.007	0.155	-6.0733548	-3.7815228	-10.313244	97.72371648	4.73836266	7.84379502
3.51	351	0.063	-1.003	0.157	-6.5317212	-4.0680018	-10.4278356	97.6606911	4.84722468	7.8208767
3.52	352	0.056	-0.997	0.158	-6.8182002	-4.297185	-10.8289062	97.58620656	4.96181628	7.7922288
3.53	353	0.062	-0.99	0.159	-6.9900876	-4.010706	-11.2299768	97.51172202	5.07640788	7.7635809
3.54	354	0.081	-0.992	0.153	-6.7036086	-3.151269	-11.172681	97.44296706	5.19099948	7.74639216
3.55	355	0.089	-1.002	0.145	-6.2452422	-2.0626488	-10.7143146	97.37994168	5.30559108	7.74066258
3.56	356	0.093	-1.001	0.141	-6.4744254	-1.0886202	-10.4851314	97.31118672	5.40872352	7.74066258
3.57	357	0.087	-0.992	0.142	-6.7036086	-1.3750992	-10.4278356	97.24243176	5.51185596	7.74066258
3.58	358	0.079	-0.989	0.144	-6.8182002	-2.7501984	-10.9434978	97.1736768	5.62644756	7.72920342
3.59	359	0.069	-0.984	0.143	-6.875496	-3.3231564	-11.5737516	97.09919226	5.74103916	7.7062851
3.6	360	0.067	-0.977	0.153	-6.0733548	-3.6096354	-12.1467096	97.04189646	5.86136034	7.68909636
3.61	361	0.086	-0.986	0.151	-5.7868758	-3.3804522	-12.605076	96.97887108	5.99314068	7.66617804
3.62	362	0.099	-1.004	0.139	-5.6722842	-2.578311	-12.6623718	96.92157528	6.11919144	7.66044846
3.63	363	0.104	-1.021	0.135	-5.7868758	-2.005353	-12.032118	96.8585499	6.2452422	7.65471888
3.64	364	0.109	-1.019	0.133	-6.875496	-2.5210152	-11.5164558	96.78979494	6.3598338	7.64325972
3.65	365	0.105	-1.006	0.132	-7.9641162	-3.0939732	-11.2299768	96.70385124	6.4744254	7.6203414
3.66	366	0.095	-0.991	0.137	-8.0787078	-3.7815228	-11.3445684	96.62363712	6.589017	7.59742308
3.67	367	0.096	-0.983	0.141	-7.9641162	-3.8961144	-12.0894138	96.53769342	6.71506776	7.57450476
3.68	368	0.111	-0.981	0.131	-7.6203414	-3.3804522	-12.605076	96.4574793	6.84111852	7.55158644
3.69	369	0.12	-0.992	0.124	-6.8182002	-3.0366774	-12.3758928	96.38872434	6.96716928	7.5343977
3.7	370	0.125	-1.008	0.119	-6.9327918	-3.437748	-12.0894138	96.30851022	7.09322004	7.51147938
3.71	371	0.127	-1.013	0.115	-8.1932994	-4.0680018	-12.318597	96.22256652	7.2192708	7.48856106
3.72	372	0.118	-1.006	0.111	-9.453807	-4.2398892	-12.7196676	96.12516366	7.35105114	7.45418358
3.73	373	0.113	-0.99	0.119	-9.740286	-4.6982556	-13.0061466	96.02203122	7.48856106	7.42553568
3.74	374	0.117	-0.976	0.123	-9.1100322	-5.0420304	-13.2353298	95.92462836	7.62607098	7.38542862
3.75	375	0.134	-0.979	0.12	-7.6203414	-4.7555514	-12.8342592	95.84441424	7.75785132	7.35105114
3.76	376	0.147	-0.994	0.118	-6.9327918	-4.4690724	-12.2040054	95.7699297	7.88390208	7.31667366
3.77	377	0.153	-1.001	0.119	-7.2192708	-4.9274388	-11.5164558	95.68971558	8.00422326	7.28229618
3.78	378	0.153	-0.997	0.118	-8.0787078	-6.2452422	-11.2872726	95.5980423	8.12454444	7.23072996
3.79	379	0.134	-0.992	0.116	-9.2246238	-7.6776372	-11.9175264	95.49490986	8.2505952	7.161975
3.8	380	0.109	-0.982	0.126	-9.6829902	-8.9954406	-13.0061466	95.39177742	8.38237554	7.08749046
3.81	381	0.105	-0.976	0.128	-9.7975818	-8.9381448	-13.6936962	95.27718582	8.53134462	7.00727634
3.82	382	0.114	-0.985	0.12	-9.740286	-8.1360036	-13.9801752	95.17405338	8.67458412	6.93852138
3.83	383	0.132	-1.001	0.108	-8.9954406	-6.4744254	-13.6936962	95.07092094	8.81782362	6.88695516
3.84	384	0.152	-1.019	0.101	-8.9954406	-4.3544808	-13.3499214	94.97351808	8.95533354	6.85257768
3.85	385	0.161	-1.031	0.094	-10.0840608	-3.6669312	-13.5791046	94.86465606	9.09284346	6.82965936
3.86	386	0.15	-1.027	0.094	-11.2872726	-4.6409598	-13.9801752	94.74433488	9.23608296	6.7895523
3.87	387	0.131	-1.002	0.11	-11.5737516	-6.5317212	-14.0947668	94.61828412	9.38505204	6.73798608
3.88	388	0.125	-0.983	0.118	-11.745639	-7.5057498	-14.037471	94.49223336	9.52829154	6.66923112
3.89	389	0.102	-0.972	0.131	-10.4278356	-8.880849	-13.5791046	94.37191218	9.67153104	6.59474658
3.9	390	0.102	-0.973	0.134	-9.740286	-8.6516658	-13.2353298	94.26305016	9.80331138	6.51453246
3.91	391	0.125	-0.975	0.118	-10.2559482	-5.72958	-13.9801752	94.15418814	9.94655088	6.46869582
3.92	392	0.133	-0.984	0.122	-10.7143146	-4.1252976	-15.5271618	94.03959654	10.10697912	6.43431834
3.93	393	0.141	-0.992	0.107	-11.6883432	-3.0366774	-16.615782	93.91927536	10.27313694	6.4171296
3.94	394	0.149	-0.993	0.104	-11.9175264	-2.578311	-16.9595568	93.7932246	10.43929476	6.39994086
3.95	395	0.157	-1	0.103	-11.6883432	-2.4064236	-16.9595568	93.67290342	10.61118216	6.3884817
3.96	396	0.169	-1.008	0.098	-11.9748222	-2.2345362	-16.6730778	93.54685266	10.77733998	6.37129296
3.97	397	0.177	-1.011	0.088	-12.2613012	-2.6929026	-15.9282324	93.4208019	10.93776822	6.35410422
3.98	398	0.17	-1.007	0.091	-12.2040054	-4.5263682	-14.8396122	93.28902156	11.0867373	6.31972674
3.99	399	0.167	-0.987	0.098	-12.6623718	-6.016059	-14.2093584	93.15151164	11.2299768	6.26243094
4	400	0.175	-0.962	0.102	-13.1207382	-6.4744254	-14.5531332	93.00827214	11.37894588	6.20513514
4.01	401	0.181	-0.945	0.099	-12.9488508	-6.4744254	-15.9282324	92.86503264	11.53937412	6.14783934
4.02	402	0.183	-0.945	0.097	-12.4904844	-6.3598338	-17.5325148	92.72752272	11.7169911	6.09054354
4.03	403	0.186	-0.952	0.095	-11.745639	-6.2452422	-18.2200644	92.60147196	11.90606724	6.03324774
4.04	404	0.19	-0.965	0.094	-11.5164558	-6.1306506	-18.3919518	92.46969162	12.0894138	5.98168152
4.05	405	0.186	-0.975	0.097	-12.2040054	-6.4744254	-18.334656	92.33791128	12.27276036	5.92438572
4.06	406	0.183	-0.977	0.099	-12.5477802	-6.9327918	-18.1627686	92.20040136	12.45610692	5.86136034
4.07	407	0.186	-0.978	0.097	-12.605076	-6.9900876	-18.2773602	92.05716186	12.64518306	5.79260538
4.08	408	0.181	-0.974	0.096	-13.2353298	-7.5630456	-18.621135	91.90819278	12.8342592	5.72385042
4.09	409	0.178	-0.962	0.105	-13.2926256	-7.7922288	-18.9649098	91.75349412	13.02333534	5.64936588
4.1	410	0.182	-0.952	0.101	-13.6364004	-7.5630456	-19.5951636	91.60452504	13.21814106	5.57488134
4.11	411	0.182	-0.949	0.099	-13.9228794	-7.3911582	-20.2254174	91.44982638	13.42440594	5.50612638
4.12	412	0.183	-0.95	0.094	-13.9801752	-7.6203414	-20.5691922	91.28939814	13.63067082	5.43164184
4.13	413	0.185	-0.951	0.092	-14.037471	-8.0787078	-20.7410796	91.1289699	13.8369357	5.35142772
4.14	414	0.186	-0.952	0.1	-14.2666542	-8.8235532	-20.912967	90.96281208	14.04893016	5.26548402
4.15	415	0.179	-0.949	0.109	-14.8396122	-9.8548776	-21.0275586	90.79665426	14.25519504	5.16808116
4.16	416	0.178	-0.944	0.121	-15.0687954	-9.6829902	-21.485925	90.61903728	14.47291908	5.0706783
4.17	417	0.179	-0.945	0.119	-15.8136408	-8.8235532	-22.4026578	90.4414203	14.6963727	4.9847346
4.18	418	0.169	-0.948	0.109	-16.6730778	-8.7089616	-23.1475032	90.24661458	14.93128548	4.89306132
4.19	419	0.17	-0.944	0.093	-17.761698	-7.8495246	-23.491278	90.04607928	15.16046868	4.8128472
4.2	420	0.171	-0.941	0.098	-18.1627686	-7.1046792	-23.777757	89.85127356	15.38965188	4.73836266
4.21	421	0.164	-0.935	0.099	-19.1367972	-6.7036086	-24.1788276	89.6392791	15.63029424	4.6696077
4.22	422	0.157	-0.927	0.1	-19.5951636	-6.4744254	-24.6944898	89.42155506	15.87666618	4.59512316
4.23	423	0.152	-0.924	0.103	-19.8243468	-6.016059	-25.3820394	89.19810144	16.1287677	4.53209778
4.24	424	0.145	-0.924	0.106	-20.7410796	-5.156622	-25.9549974	88.97464782	16.3865988	4.4690724
4.25	425	0.139	-0.921	0.111	-21.485925	-4.1825934	-26.4133638	88.7511942	16.63870032	4.42323576
4.26	426	0.132	-0.913	0.113	-22.4026578	-2.7501984	-26.8717302	88.51055184	16.902261	4.3831287
4.27	427	0.128	-0.904	0.113	-23.491278	-1.3178034	-27.3300966	88.2641799	17.17155126	4.36021038
4.28	428	0.123	-0.894	0.112	-24.5226024	-0.4010706	-27.7311672	88.01207838	17.4465711	4.34302164
4.29	429	0.12	-0.886	0.106	-25.7258142	0.7448454	-28.1895336	87.7485177	17.72159094	4.33729206
4.3	430	0.122	-0.881	0.093	-26.8717302	2.3491278	-28.4760126	87.48495702	17.9908812	4.3544808
4.31	431	0.123	-0.884	0.073	-28.074942	3.3804522	-28.6479	87.2042076	18.2773602	4.37166954
4.32	432	0.12	-0.889	0.056	-29.1635622	4.0680018	-28.6479	86.9177286	18.55810962	4.39458786
4.33	433	0.115	-0.889	0.051	-30.3094782	4.1825934	-28.5333084	86.61406086	18.83885904	4.42323576
4.34	434	0.102	-0.884	0.049	-31.799169	2.9793816	-28.2468294	86.29320438	19.11960846	4.42896534
4.35	435	0.083	-0.875	0.036	-33.6899304	1.8334656	-28.2468294	85.95515916	19.38316914	4.42896534
4.36	436	0.075	-0.868	0.017	-35.236917	1.5469866	-28.4187168	85.59419562	19.65818898	4.42323576
4.37	437	0.062	-0.865	0.016	-36.7266078	0.8021412	-28.8770832	85.21604334	19.94466798	4.40031744
4.38	438	0.035	-0.858	0.027	-38.4454818	-0.0572958	-29.2781538	84.80924316	20.23114698	4.37166954
4.39	439	0.001	-0.841	0.027	-40.3362432	-0.6302538	-29.9084076	84.38525424	20.52335556	4.33156248
4.4	440	-0.02	-0.821	0.011	-42.6280752	0.5156622	-31.3980984	83.94980616	20.80983456	4.297185
4.41	441	-0.032	-0.803	-0.013	-44.1750618	4.1825934	-33.6326346	83.49716934	21.1421502	4.30291458
4.42	442	-0.036	-0.798	-0.044	-44.6334282	9.453807	-37.0703826	83.06172126	21.5145729	4.34875122
4.43	443	-0.045	-0.808	-0.073	-44.404245	16.7876694	-40.8519054	82.65492108	21.92710266	4.4690724
4.44	444	-0.048	-0.818	-0.087	-45.3782736	24.923673	-44.977203	82.25958006	22.39119864	4.6696077
4.45	445	-0.072	-0.827	-0.069	-46.696077	32.8304934	-49.3889796	81.88715736	22.89540168	4.94462754
4.46	446	-0.088	-0.852	0	-52.4829528	44.8626114	-54.0299394	81.5032755	23.47408926	5.33423898
4.47	447	-0.08	-0.848	0.06	-62.738901	63.1972674	-58.6136034	81.09074574	24.1215318	5.90719698
4.48	448	-0.072	-0.806	-0.07	-63.598338	74.771019	-61.9367598	80.71832304	24.82054056	6.60047616
4.49	449	-0.051	-0.826	-0.24	-54.2591226	79.0109082	-63.7702254	80.4719511	25.54819722	7.33959198
4.5	450	-0.026	-0.864	-0.226	-47.841993	82.8497268	-63.8275212	80.31152286	26.2701243	8.11881486
4.51	451	0.008	-0.889	-0.233	-44.2896534	88.7511942	-63.02538	80.23130874	27.00924012	8.9667927
4.52	452	0.023	-0.901	-0.236	-40.393539	94.5953658	-61.306506	80.23130874	27.73689678	9.89498466
4.53	453	0.015	-0.9	-0.236	-36.4974246	101.6427492	-60.1032942	80.32298202	28.46455344	10.90339074
4.54	454	0.041	-0.907	-0.22	-33.4034514	109.5495696	-59.1292656	80.500599	29.1922101	12.01492926
4.55	455	0.084	-0.977	-0.193	-28.7051958	117.6282774	-55.863405	80.79280758	29.88548928	13.2353298
4.56	456	0.081	-1.013	-0.124	-26.4133638	123.7016322	-50.8213746	81.17095986	30.5386614	14.54167404
4.57	457	0.057	-0.924	-0.085	-30.080295	126.7956054	-47.3263308	81.54338256	31.15172646	15.91104366
4.58	458	0.013	-0.771	-0.058	-30.7678446	129.5458038	-45.8939358	81.95018274	31.75333236	17.32052034
4.59	459	-0.029	-0.626	-0.051	-27.1582092	133.6711014	-45.263682	82.44292662	32.33774952	18.79875198
4.6	460	-0.083	-0.638	-0.058	-17.0168526	136.936962	-48.3003594	83.07318042	32.93362584	20.32282026
4.61	461	-0.129	-0.858	-0.025	-6.3598338	139.1142024	-59.9314068	83.84094414	33.64409376	21.88126602
4.62	462	-0.079	-0.913	0.017	-13.464513	143.9270496	-77.2920342	84.59151912	34.50926034	23.50273716
4.63	463	0.001	-0.786	0.018	-20.912967	151.260912	-91.3295052	85.34782368	35.50047768	25.22734074
4.64	464	0.136	-0.658	0.013	-16.7876694	158.709366	-101.5854534	86.24163816	36.57763872	27.07799508
4.65	465	0.244	-0.582	0.043	-4.6982556	162.3762972	-108.6328368	87.3474471	37.69490682	29.0203227
4.66	466	0.233	-0.515	0.044	2.291832	161.6887476	-110.7527814	88.5793068	38.80644534	31.00848696
4.67	467	0.172	-0.433	0.051	6.1879464	157.9645206	-108.4036536	89.88565104	39.86641764	33.01383996
4.68	468	0.172	-0.382	0.083	7.3338624	154.5840684	-106.6847796	91.24929108	40.86336456	35.0363817
4.69	469	0.264	-0.342	0.055	7.734933	154.3548852	-106.9139628	92.68168608	41.83166358	37.12194882
4.7	470	0.4	-0.301	0.072	13.4072172	156.5894214	-111.0392604	94.26877974	42.7999626	39.3049188
4.71	471	0.534	-0.289	0.084	22.1161788	157.6207458	-120.8368422	96.03349038	43.81409826	41.58529164
4.72	472	0.705	-0.335	0.026	32.6013102	159.1104366	-133.3846224	98.02738422	44.89698888	43.99744482
4.73	473	0.923	-0.344	0.034	39.7632852	156.3602382	-147.4793892	100.198895	46.05436404	46.50700086
4.74	474	1.119	-0.296	0.05	45.83664	141.6352176	-169.1944974	102.45062	47.39508576	48.99936816
4.75	475	1.293	-0.126	0.143	46.9252602	119.175264	-207.7545708	104.742452	49.09677102	51.4516284
4.76	476	1.611	0.025	0.02	38.5027776	98.6060718	-252.7317738	107.0629319	51.21671562	53.99556192
4.77	477	1.782	-0.023	0.03	52.1964738	74.9429064	-287.5676202	109.6756204	53.67470544	56.6368983
4.78	478	1.674	-0.16	0.228	63.6556338	50.2484166	-312.3767016	112.586247	56.37333762	59.4157446
4.79	479	1.799	-0.588	0.206	81.8184024	25.6112226	-300.8602458	115.7260568	58.99175568	62.16021342
4.8	480	1.817	-0.765	0.266	67.5517482	-5.8441716	-267.7432734	118.4647961	61.38672012	64.53225954
4.81	481	1.678	0.075	-0.074	-11.1153852	-47.9565846	-271.4675004	120.1263743	63.97649028	66.53188296
4.82	482	1.496	0.481	0.906	32.085648	-45.8939358	-295.2452574	122.9911643	66.7209591	69.31645884
4.83	483	1.814	0.514	0.996	102.273003	21.3140376	-314.553942	129.0072233	69.11592354	74.69653446
4.84	484	1.856	0.262	0.376	105.7680468	-1.718874	-314.267463	135.9858517	71.4192147	80.97615414
4.85	485	1.851	0.409	0.484	97.7466348	-11.2872726	-319.424085	144.5515738	73.53342972	88.91735202
4.86	486	2.152	0.621	0.562	107.3150334	2.5210152	-322.9191288	155.6612294	75.09760506	99.32799888
4.87	487	2.392	0.554	0.506	126.1080558	0.7448454	-311.2307856	168.4553816	76.0315266	111.2168774
4.88	488	2.18	0.267	1.005	122.1546456	0.859437	-288.0832824	-178.6769523	76.2607098	123.1916996
4.89	489	2.17	0.241	0.848	74.3699484	-19.767051	-261.555327	-167.2865473	76.1174703	134.1466565
4.9	490	2.294	0.283	0.489	72.3072996	-40.8519054	-223.3963242	-157.5405317	75.81380256	143.4343057
4.91	491	1.93	0.277	0.639	67.4944524	-46.7533728	-177.4450926	-149.8457057	75.42419112	150.6650357
4.92	492	1.875	0.376	0.351	69.8435802	-58.2125328	-162.4908888	-142.7925928	74.98874304	157.2254048
4.93	493	1.765	0.178	0.582	78.6671334	-53.6861646	-141.234147	-136.7822633	74.46162168	162.6226691
4.94	494	1.504	0.257	0.667	61.9940556	-50.9359662	-127.2539718	-131.7402329	73.88866368	167.2006036
4.95	495	1.412	0.244	0.636	42.2270046	-33.1742682	-105.6534552	-128.1707046	73.2813282	170.4721937
4.96	496	1.331	0.369	0.444	27.788463	-24.1215318	-75.4012728	-125.7757402	72.81723222	172.678082
4.97	497	1.35	0.418	0.288	32.8304934	-27.5592798	-39.7632852	-123.9881112	72.63388566	174.2021503
4.98	498	1.225	0.357	0.201	33.9191136	-30.7678446	-12.605076	-122.5958233	72.68545188	175.2907705
4.99	499	0.98	0.379	0.12	39.247623	-22.5172494	-9.6256944	-121.4212594	72.71409978	176.1043709
5	500	0.991	0.526	0.026	42.8572584	-18.5638392	-12.0894138	-120.2295067	72.68545188	176.8893233
5.01	501	1.02	0.473	-0.032	36.5547204	-16.7876694	-2.291832	-119.3586106	72.7370181	177.4107151
5.02	502	0.816	0.495	0.001	48.128472	-17.6471064	13.464513	-118.5793877	72.93182382	177.7086533
5.03	503	0.473	0.519	0.139	51.9099948	-22.631841	22.4599536	-117.7485986	73.2240324	178.0237802
5.04	504	0.21	0.666	0.232	38.5027776	-27.501984	32.085648	-117.0266715	73.61937342	178.3618254
5.05	505	0.147	0.645	0.301	24.923673	-29.7365202	36.8411994	-116.4250656	74.03190318	178.7227889
5.06	506	0.163	0.628	0.264	12.605076	-18.621135	38.7892566	-116.3047444	74.4558921	178.7113298
5.07	507	0.286	0.613	0.181	11.45916	-5.72958	34.7785506	-116.5568459	74.78820774	178.3274479
5.08	508	0.506	0.57	0.082	11.0580894	-2.1199446	25.2674478	-116.7917587	75.01739094	177.972214
5.09	509	0.669	0.447	0.037	13.464513	-4.6982556	18.1054728	-116.7974883	75.19500792	177.8175153
5.1	510	0.75	0.326	0.012	14.8396122	-9.6256944	11.0580894	-116.4479839	75.32678826	178.0180506
5.11	511	0.763	0.226	0.031	19.1367972	-13.5791046	6.2452422	-115.8922147	75.43565028	178.3904733
5.12	512	0.79	0.23	0.016	19.2513888	-16.2720072	3.151269	-115.1874763	75.52732356	178.9175947
5.13	513	0.829	0.304	-0.013	17.5898106	-20.340009	3.6096354	-114.3452281	75.63618558	179.5936851
5.14	514	0.883	0.418	-0.008	13.9228794	-20.6837838	6.5317212	-113.5660052	75.7736955	-179.7483838
5.15	515	0.965	0.493	-0.003	12.8342592	-21.0275586	11.45916	-112.7695936	75.93412374	-179.0608342
5.16	516	1.037	0.519	-0.009	14.610429	-25.8404058	18.7357266	-111.9388045	76.19768442	-178.367555
5.17	517	1.075	0.524	0.008	19.767051	-32.8877892	26.8144344	-110.8788322	76.55291838	-177.4851997
5.18	518	1.108	0.475	0.02	25.78311	-39.3049188	33.7472262	-109.54384	76.98836646	-176.3851203
5.19	519	1.118	0.397	0.044	32.085648	-44.404245	40.7373138	-107.933828	77.49829908	-175.0787761
5.2	520	1.103	0.326	0.075	33.0023808	-47.7846972	46.982556	-106.1232808	78.0655275	-173.5776261
5.21	521	1.095	0.276	0.068	28.8770832	-46.696077	50.8786704	-104.2955447	78.65567424	-172.0191803
5.22	522	1.088	0.215	0.011	25.6112226	-46.123119	52.8840234	-102.3646763	79.25728014	-170.3232247
5.23	523	1.079	0.142	-0.03	23.7204612	-46.1804148	52.7694318	-100.2390021	79.84742688	-168.4152745
5.24	524	1.065	0.074	-0.025	18.6784308	-47.0971476	51.3370368	-97.84976724	80.40892572	-166.1921975
5.25	525	1.066	0.06	-0.024	11.6883432	-45.3209778	48.70143	-95.32302246	80.93604708	-163.757126
5.26	526	1.054	0.065	-0.029	6.875496	-43.7166954	45.4355694	-92.66449734	81.40014306	-161.1444375
5.27	527	1.014	0.062	-0.028	4.8128472	-41.9978214	41.6540466	-89.85127356	81.81267282	-158.3598616
5.28	528	0.961	0.035	-0.022	3.7815228	-38.6173692	37.4141574	-87.02086104	82.1621772	-155.5409083
5.29	529	0.945	-0.002	-0.021	0.8021412	-32.4867186	31.7418732	-84.45973878	82.44292662	-152.9740564
5.3	530	0.946	-0.032	-0.016	-2.005353	-23.6631654	25.5539268	-82.45438578	82.68356898	-150.9343259
5.31	531	0.933	-0.045	-0.006	-4.870143	-13.9801752	19.5378678	-81.19960776	82.8497268	-149.6222521
5.32	532	0.913	-0.048	0	-7.0473834	-7.1046792	15.5271618	-80.50632858	82.9929663	-148.8487588
5.33	533	0.925	-0.04	-0.014	-10.026765	-1.3178034	12.318597	-80.31725244	83.1075579	-148.5565502
5.34	534	0.93	-0.008	-0.021	-14.5531332	2.6356068	9.740286	-80.5292469	83.21069034	-148.6253052
5.35	535	0.939	0.034	-0.019	-16.7876694	5.5576926	8.59437	-80.99907246	83.31382278	-148.9232434
5.36	536	0.942	0.065	-0.014	-16.7303736	7.734933	9.2819196	-81.68089248	83.4226848	-149.4389056
5.37	537	0.944	0.111	-0.034	-17.7044022	10.0840608	9.5111028	-82.58616612	83.53154682	-150.1665622
5.38	538	0.935	0.12	-0.04	-15.2406828	11.5737516	9.8548776	-83.62894968	83.64613842	-151.0603767
5.39	539	0.906	0.104	-0.037	-11.6310474	11.2872726	9.740286	-84.64881492	83.76073002	-151.9656503
5.4	540	0.882	0.097	-0.055	-10.7716104	10.5424272	9.6256944	-85.53117024	83.86386246	-152.7391436
5.41	541	0.872	0.093	-0.072	-10.6570188	10.4851314	9.9121734	-86.53384674	83.97272448	-153.6386877
5.42	542	0.879	0.077	-0.071	-10.026765	9.7975818	10.7143146	-87.49641618	84.08731608	-154.5038543
5.43	543	0.897	0.055	-0.06	-9.8548776	9.740286	11.1153852	-88.48190394	84.20763726	-155.3919392
5.44	544	0.916	0.047	-0.047	-10.886202	10.4851314	10.4278356	-89.59917204	84.31649928	-156.4003453
5.45	545	0.933	0.042	-0.034	-13.1207382	11.3445684	8.8235532	-90.77946552	84.41390214	-157.454588
5.46	546	0.963	0.045	-0.032	-15.469866	11.8029348	7.8495246	-92.14310556	84.49411626	-158.6635294
5.47	547	0.974	0.056	-0.023	-17.5898106	11.6883432	7.3911582	-93.54685266	84.56287122	-159.8953891
5.48	548	1.005	0.069	-0.027	-19.480572	10.6570188	6.6463128	-94.88757438	84.6258966	-161.0413051
5.49	549	1.013	0.08	-0.028	-20.2827132	10.313244	6.0733548	-96.22256652	84.6831924	-162.1757619
5.5	550	1.003	0.078	-0.035	-19.8816426	10.1986524	5.3285094	-97.44296706	84.72902904	-163.1956271
5.51	551	0.994	0.069	-0.048	-17.7044022	9.2819196	4.5263682	-98.66909718	84.7691361	-164.2441403
5.52	552	0.991	0.058	-0.037	-15.2979786	8.4224826	3.724227	-99.77490612	84.79205442	-165.2009801
5.53	553	1.03	0.058	-0.013	-13.750992	8.3651868	2.7501984	-100.8577967	84.80924316	-166.1463608
5.54	554	1.038	0.065	0.013	-10.7716104	8.1932994	2.4064236	-101.8948507	84.82070232	-167.0745528
5.55	555	1.05	0.084	0.052	-9.5683986	11.6883432	0.859437	-103.2928682	84.80351358	-168.3751675
5.56	556	1.042	0.092	0.045	-6.1306506	11.745639	-0.1718874	-104.5877533	84.78059526	-169.6127567
5.57	557	1.043	0.088	0.057	-3.8961144	11.1153852	-0.4583664	-105.7852355	84.74621778	-170.7701319
5.58	558	1.036	0.087	0.062	-2.4064236	11.8602306	-0.9167328	-107.0113657	84.7118403	-171.9790733
5.59	559	1.027	0.076	0.055	-1.3178034	12.6623718	-1.5469866	-108.2718733	84.66027408	-173.2281217
5.6	560	1.009	0.073	0.047	-1.145916	12.891555	-2.5210152	-109.503733	84.5972487	-174.4542518
5.61	561	0.995	0.067	0.046	-0.6302538	12.7196676	-3.2658606	-110.649649	84.52849374	-175.6001678
5.62	562	0.998	0.071	0.056	-0.286479	12.1467096	-3.724227	-111.6924325	84.4540092	-176.6372218
5.63	563	1.007	0.083	0.065	-0.1718874	11.172681	-4.010706	-112.6034357	84.37952466	-177.5539546
5.64	564	1.014	0.097	0.069	0.572958	9.6256944	-4.1825934	-113.3310924	84.30504012	-178.2873409
5.65	565	1.025	0.107	0.074	1.9480572	7.9641162	-3.7815228	-113.9384279	84.224826	-178.9175947
5.66	566	1.03	0.115	0.076	3.437748	6.3598338	-2.9793816	-114.3624168	84.17325978	-179.3759611
5.67	567	1.035	0.113	0.076	4.297185	4.9847346	-2.0626488	-114.6832733	84.13315272	-179.7426542
5.68	568	1.039	0.107	0.075	4.8128472	3.6669312	-1.145916	-114.9181861	84.1102344	179.9661078
5.69	569	1.04	0.096	0.071	4.9274388	2.6356068	-0.3437748	-115.0900735	84.09304566	179.7426542
5.7	570	1.033	0.088	0.062	4.6982556	0.7448454	0.0572958	-115.1301805	84.08731608	179.6567105
5.71	571	1.026	0.087	0.055	4.6409598	-0.859437	0.286479	-115.0213185	84.09304566	179.7197359
5.72	572	1.023	0.086	0.05	4.7555514	-2.0626488	0.1145916	-114.7978649	84.09877524	179.8973528
5.73	573	1.021	0.085	0.046	4.9274388	-3.0366774	-0.1718874	-114.4712788	84.1102344	-179.8228683
5.74	574	1.019	0.086	0.044	5.0993262	-3.3804522	-0.4583664	-114.1045857	84.11596398	-179.5077414
5.75	575	1.018	0.082	0.044	5.0993262	-3.4950438	-0.859437	-113.6748672	84.12742314	-179.1295891
5.76	576	1.016	0.083	0.05	5.3285094	-3.8388186	-1.0886202	-113.2394191	84.12742314	-178.7457073
5.77	577	1.017	0.084	0.053	5.0420304	-4.1825934	-1.4896908	-112.7524048	84.12742314	-178.3102592
5.78	578	1.02	0.087	0.057	4.6409598	-4.010706	-1.9480572	-112.2768497	84.12169356	-177.8748111
5.79	579	1.023	0.088	0.054	4.1252976	-3.6096354	-2.1772404	-111.8299424	84.11596398	-177.4737405
5.8	580	1.027	0.091	0.048	3.4950438	-3.0366774	-2.291832	-111.4174127	84.09877524	-177.0898586
5.81	581	1.026	0.093	0.047	3.3231564	-2.6356068	-2.5210152	-111.0564491	84.08731608	-176.7690022
5.82	582	1.025	0.093	0.044	3.0939732	-2.1199446	-2.6356068	-110.7413222	84.07012734	-176.4825232
5.83	583	1.017	0.094	0.041	2.6356068	-2.005353	-2.4064236	-110.4548432	84.0529386	-176.2189625
5.84	584	1.009	0.092	0.035	2.4064236	-2.2345362	-2.005353	-110.1569051	84.04147944	-175.9439426
5.85	585	1.005	0.096	0.034	2.0626488	-2.4064236	-1.4896908	-109.7157274	84.0242907	-175.5256833
5.86	586	1.001	0.097	0.033	1.718874	-2.7501984	-0.8021412	-109.4235188	84.0242907	-175.2449339
5.87	587	0.999	0.098	0.028	1.6615782	-2.5210152	-0.286479	-109.1656877	84.03002028	-175.0100211
5.88	588	0.996	0.095	0.035	1.145916	-3.2658606	0.1145916	-108.86202	84.04147944	-174.7178125
5.89	589	0.996	0.096	0.032	0.9740286	-3.9534102	0.5156622	-108.506786	84.05866818	-174.3683081
5.9	590	0.999	0.095	0.027	0.8021412	-4.2398892	0.859437	-107.9452872	84.07585692	-173.8125389
5.91	591	1.001	0.095	0.024	0.6302538	-4.3544808	1.0313244	-107.5671349	84.09304566	-173.4401162
5.92	592	1.002	0.095	0.023	0.9167328	-4.6409598	1.3178034	-107.1603347	84.12169356	-173.0447752
5.93	593	1.002	0.091	0.019	1.3178034	-4.7555514	1.5469866	-106.747805	84.15034146	-172.6437046
5.94	594	1.001	0.093	0.02	1.6615782	-4.5263682	1.6615782	-106.3467344	84.17325978	-172.2598227
5.95	595	0.999	0.091	0.021	2.005353	-4.583664	1.7761698	-105.819613	84.20190768	-171.7498901
5.96	596	0.998	0.09	0.022	2.2345362	-4.297185	1.8907614	-105.4357312	84.23055558	-171.3889265
5.97	597	0.997	0.087	0.024	2.2345362	-4.0680018	1.718874	-105.069038	84.25920348	-171.0394222
5.98	598	0.999	0.085	0.023	2.2345362	-3.6096354	1.718874	-104.742452	84.2821218	-170.7357544
5.99	599	0.998	0.084	0.024	1.8907614	-3.3804522	1.6615782	-104.4330547	84.30504012	-170.4492754
6	600	0.997	0.084	0.024	1.3750992	-3.151269	1.4896908	-104.0319841	84.32795844	-170.059664
6.01	601	0.997	0.083	0.017	1.145916	-2.4637194	1.4896908	-103.81426	84.35087676	-169.8533991
6.02	602	0.999	0.081	0.016	0.8021412	-2.291832	1.4896908	-103.6137247	84.3680655	-169.6585934
6.03	603	0.997	0.081	0.017	0.572958	-2.2345362	1.3750992	-103.418919	84.38525424	-169.4695172
6.04	604	0.999	0.081	0.014	0.2291832	-1.9480572	1.2605076	-103.2470316	84.40244298	-169.3033594
6.05	605	0.999	0.084	0.017	-0.0572958	-1.8907614	1.3750992	-102.8402314	84.41963172	-168.8965592
6.06	606	0.994	0.083	0.022	-0.286479	-2.1772404	1.3178034	-102.6568849	84.43682046	-168.7074831
6.07	607	0.992	0.081	0.022	-0.286479	-2.3491278	1.3750992	-102.4563496	84.4540092	-168.5012182
6.08	608	0.999	0.081	0.021	-0.4010706	-1.9480572	1.3178034	-102.2844622	84.47119794	-168.3293308
6.09	609	1.002	0.084	0.025	-0.6875496	-1.432395	0.9167328	-102.1698706	84.4826571	-168.2032801
6.1	610	1.002	0.084	0.022	-0.7448454	-0.8021412	0.572958	-101.6943154	84.48838668	-167.7219953
6.11	611	1.001	0.079	0.016	-0.7448454	-0.4583664	0.2291832	-101.6599379	84.49411626	-167.6818883
6.12	612	1	0.077	0.015	-1.0886202	0	0	-101.6713971	84.49411626	-167.6761587
6.13	613	1	0.078	0.014	-1.4896908	0	-0.0572958	-101.6828563	84.49411626	-167.6704291
6.14	614	1.001	0.082	0.016	-1.718874	-0.1718874	-0.1145916	-101.6771267	84.49411626	-167.6475108
6.15	615	1.002	0.086	0.021	-1.8334656	-0.2291832	-0.1145916	-101.4479435	84.4826571	-167.4068684
6.16	616	1	0.088	0.022	-1.8334656	0	0	-101.4651322	84.4826571	-167.4011389
6.17	617	1.004	0.089	0.018	-1.6615782	0.3437748	0.0572958	-101.522428	84.4826571	-167.4412459
6.18	618	1.005	0.087	0.019	-1.432395	0.6875496	0	-101.6083717	84.4826571	-167.5100009
6.19	619	1.003	0.084	0.013	-1.2032118	0.7448454	0	-101.6943154	84.4826571	-167.590215
6.2	620	1	0.083	0.012	-0.9740286	0.7448454	-0.0572958	-101.0869799	84.4826571	-166.9714204
6.21	621	0.999	0.082	0.012	-0.859437	0.9740286	-0.0572958	-101.195842	84.4826571	-167.0745528
6.22	622	0.998	0.083	0.015	-0.6302538	1.2032118	-0.1145916	-101.3276223	84.47692752	-167.194874
6.23	623	0.999	0.085	0.019	-0.5156622	1.3178034	-0.1718874	-101.4594026	84.47119794	-167.3266543
6.24	624	1	0.084	0.023	-0.4010706	1.5469866	-0.286479	-101.6198309	84.47119794	-167.481353
6.25	625	1.004	0.084	0.022	-0.4010706	1.718874	-0.286479	-101.5682647	84.4540092	-167.4297868
6.26	626	1.004	0.085	0.023	-0.572958	1.9480572	-0.286479	-101.7688	84.44827962	-167.6188629
6.27	627	1.002	0.086	0.025	-0.6875496	1.4896908	0	-101.9292282	84.44827962	-167.7735616
6.28	628	1.003	0.087	0.026	-0.6875496	1.145916	0.1145916	-102.0495494	84.44827962	-167.8938827
6.29	629	1.001	0.088	0.024	-0.6875496	1.3750992	0.1145916	-102.1985185	84.44827962	-168.0313927
6.3	630	0.997	0.085	0.024	-0.6302538	1.2605076	0.1718874	-102.0896564	84.44255004	-167.9168011
6.31	631	0.996	0.081	0.024	-0.4583664	0.9167328	0.1145916	-102.1927889	84.44255004	-168.0142039
6.32	632	0.998	0.08	0.028	-0.6302538	0.7448454	0	-102.273003	84.44255004	-168.0886885
6.33	633	1.002	0.083	0.027	-0.7448454	0.9167328	-0.286479	-102.3646763	84.43682046	-168.1746322
6.34	634	1.011	0.084	0.032	-0.572958	0.9167328	-0.572958	-102.4563496	84.43109088	-168.2605759
6.35	635	1.012	0.087	0.034	-0.6875496	0.9740286	-0.7448454	-102.559482	84.40244298	-168.3522491
6.36	636	1.011	0.089	0.03	-0.6302538	0.572958	-0.572958	-102.6110482	84.3967134	-168.4038154
6.37	637	1.011	0.088	0.028	-0.286479	0.286479	-0.4583664	-102.6396961	84.39098382	-168.4267337
6.38	638	1.01	0.088	0.029	0.1145916	0.3437748	-0.2291832	-102.668344	84.39098382	-168.4553816
6.39	639	1.009	0.085	0.029	0.286479	0.1718874	0	-102.6855328	84.39098382	-168.4782999
6.4	640	1.008	0.084	0.028	0.2291832	0.286479	0	-102.4162425	84.3680655	-168.2090096
6.41	641	1.007	0.084	0.03	0.1145916	0.286479	-0.0572958	-102.4448904	84.3680655	-168.2376575
6.42	642	1.005	0.085	0.029	-0.0572958	0.4010706	-0.0572958	-102.4849975	84.3680655	-168.2834942
6.43	643	1.005	0.086	0.032	0	0.286479	-0.0572958	-102.5136454	84.3680655	-168.3064125
6.44	644	1.005	0.086	0.033	0	0	-0.0572958	-102.5136454	84.36233592	-168.3121421
6.45	645	1.005	0.086	0.028	-0.0572958	-0.1145916	-0.0572958	-101.8547437	84.32222886	-167.6532404
6.46	646	1.006	0.086	0.027	0	-0.4010706	-0.0572958	-101.8146366	84.31649928	-167.6074037
6.47	647	1.004	0.085	0.025	0.1145916	-0.572958	0	-101.7573408	84.32222886	-167.5558375
6.48	648	1.004	0.085	0.026	0.0572958	-0.5156622	0.0572958	-101.7057746	84.32222886	-167.5042713
6.49	649	1.002	0.086	0.026	0	-0.3437748	0.1145916	-101.6713971	84.32222886	-167.4698938
6.5	650	0.999	0.084	0.023	-0.0572958	-0.286479	0	-100.4968332	84.34514718	-166.3010595
6.51	651	1	0.082	0.019	-0.1145916	-0.1145916	0	-100.485374	84.34514718	-166.2838708
6.52	652	1.002	0.083	0.023	-0.2291832	-0.1145916	0	-100.4739149	84.34514718	-166.2724116
6.53	653	1.004	0.084	0.025	-0.2291832	-0.1145916	0	-100.4624557	84.34514718	-166.2609524
6.54	654	1.004	0.084	0.025	-0.2291832	0	-0.0572958	-100.4624557	84.3394176	-166.2552229
6.55	655	1.005	0.085	0.027	-0.2291832	0.1145916	-0.0572958	-100.3994303	84.33368802	-166.1864679
6.56	656	1.001	0.086	0.027	-0.3437748	0.286479	-0.1145916	-100.4280782	84.32795844	-166.2151158
6.57	657	0.999	0.083	0.023	-0.4583664	0.1718874	-0.1718874	-100.4509966	84.32795844	-166.2323045
6.58	658	0.999	0.083	0.024	-0.6302538	0.1718874	-0.1145916	-100.4739149	84.32795844	-166.2494933
6.59	659	1.001	0.083	0.025	-0.6875496	0	-0.1718874	-100.4796445	84.32222886	-166.2494933
6.6	660	1.003	0.084	0.024	-0.5156622	0	-0.3437748	-100.3306754	84.32795844	-166.0947946
6.61	661	1.007	0.085	0.026	-0.3437748	0.1718874	-0.5156622	-100.3478641	84.31649928	-166.1062538
6.62	662	1.006	0.084	0.028	-0.286479	0.1145916	-0.6302538	-100.3478641	84.3107697	-166.1062538
6.63	663	1.005	0.085	0.026	-0.1145916	0.1145916	-0.6302538	-100.3478641	84.30504012	-166.1062538
6.64	664	1.004	0.084	0.026	0.0572958	0.1145916	-0.6875496	-100.3535937	84.29931054	-166.1062538
6.65	665	1.002	0.085	0.028	0.1718874	0.1145916	-0.8021412	-100.3593233	84.28785138	-166.1177129
6.66	666	1.003	0.085	0.028	0.3437748	0.3437748	-0.859437	-100.3822416	84.2821218	-166.1406313
6.67	667	1.007	0.086	0.032	0.3437748	0.4010706	-0.859437	-100.4051599	84.27066264	-166.1692792
6.68	668	1.01	0.088	0.031	0.1718874	0.3437748	-0.9167328	-100.4166191	84.25920348	-166.1864679
6.69	669	1.01	0.091	0.031	0.286479	0.0572958	-0.859437	-100.4051599	84.2534739	-166.1750087
6.7	670	1.008	0.092	0.028	0.6875496	-0.286479	-0.6875496	-100.3306754	84.23055558	-166.1062538
6.71	671	1.006	0.091	0.029	1.0313244	-0.6875496	-0.6875496	-100.2390021	84.224826	-166.0260397
6.72	672	1.004	0.089	0.028	1.3750992	-0.859437	-0.5156622	-100.1301401	84.21909642	-165.9343664
6.73	673	1.003	0.087	0.028	1.4896908	-0.8021412	-0.4583664	-100.0270076	84.21909642	-165.8484227
6.74	674	1.003	0.088	0.028	1.2605076	-0.6875496	-0.4583664	-99.94106394	84.21336684	-165.7682086
6.75	675	1.003	0.089	0.029	1.145916	-0.572958	-0.4010706	-99.87803856	84.20190768	-165.7223719
6.76	676	1.003	0.089	0.027	1.0886202	-0.859437	-0.286479	-99.7806357	84.20190768	-165.6306986
6.77	677	1.003	0.089	0.024	1.3178034	-1.0886202	-0.0572958	-99.66031452	84.20190768	-165.5275662
6.78	678	1.003	0.088	0.022	1.718874	-1.3178034	0	-99.51707502	84.20190768	-165.4015154
6.79	679	1.001	0.086	0.024	2.005353	-1.4896908	0	-99.3509172	84.20190768	-165.2525464
6.8	680	1.001	0.086	0.023	2.291832	-1.2032118	0	-99.1790298	84.20763726	-165.1035773
6.81	681	1.002	0.086	0.023	2.2345362	-0.8021412	-0.0572958	-99.07589736	84.20763726	-165.0233632
6.82	682	1.003	0.085	0.025	1.8907614	-0.5156622	-0.2291832	-99.00141282	84.20763726	-164.9717969
6.83	683	1.004	0.085	0.024	1.6042824	-0.4583664	-0.1718874	-98.93838744	84.20190768	-164.9202307
6.84	684	1.005	0.087	0.026	1.2605076	-0.5156622	-0.1145916	-98.86963248	84.20190768	-164.8629349
6.85	685	1.005	0.087	0.028	1.2032118	-0.6875496	0.0572958	-98.85244374	84.20190768	-164.8629349
6.86	686	1.004	0.087	0.03	1.145916	-0.859437	0.1145916	-98.75504088	84.20763726	-164.7769912
6.87	687	1.005	0.087	0.027	1.2032118	-0.859437	0.1145916	-98.6633676	84.20763726	-164.6967771
6.88	688	1.003	0.084	0.028	1.2032118	-1.0313244	0.1145916	-98.55450558	84.20763726	-164.5993742
6.89	689	1.003	0.083	0.028	1.145916	-1.145916	0	-98.42845482	84.21336684	-164.4847826
6.9	690	1.004	0.083	0.025	1.145916	-0.9740286	-0.1718874	-98.31386322	84.21336684	-164.3816502
6.91	691	1.003	0.083	0.025	0.9740286	-1.0313244	-0.4010706	-98.19354204	84.21336684	-164.2727882
6.92	692	1.003	0.084	0.022	0.9740286	-1.0313244	-0.5156622	-98.07322086	84.20763726	-164.1639262
6.93	693	1.005	0.086	0.023	0.9740286	-0.859437	-0.6302538	-97.97008842	84.20190768	-164.0665233
6.94	694	1.004	0.089	0.022	0.9740286	-0.9167328	-0.6302538	-97.8612264	84.1961781	-163.9691204
6.95	695	1	0.089	0.021	1.145916	-0.9740286	-0.572958	-97.67787984	84.19044852	-163.797233
6.96	696	1.002	0.089	0.021	1.3750992	-1.2032118	-0.4583664	-97.54036992	84.18471894	-163.6769119
6.97	697	1.003	0.088	0.021	1.432395	-1.2605076	-0.286479	-97.40286	84.18471894	-163.5508611
6.98	698	1.006	0.089	0.021	1.4896908	-1.0886202	-0.286479	-97.27680924	84.18471894	-163.4419991
6.99	699	1.004	0.09	0.024	1.432395	-1.2032118	-0.1145916	-97.1450289	84.18471894	-163.3274075
7	700	1.003	0.087	0.023	1.432395	-1.0313244	-0.1145916	-97.0017894	84.18471894	-163.1956271
7.01	701	1.003	0.088	0.022	1.2605076	-0.8021412	-0.0572958	-96.91011612	84.18471894	-163.115413
7.02	702	1.001	0.088	0.019	1.2032118	-0.6875496	-0.0572958	-96.83563158	84.18471894	-163.0523876
7.03	703	0.999	0.087	0.02	1.0886202	-0.6302538	0.1145916	-96.76114704	84.18471894	-162.9893623
7.04	704	1	0.088	0.02	1.0313244	-0.572958	0.1718874	-96.69239208	84.18471894	-162.9320665
7.05	705	1.001	0.088	0.023	0.9740286	-0.6875496	0.2291832	-96.58925964	84.19044852	-162.8403932
7.06	706	1.002	0.088	0.021	1.0313244	-0.7448454	0.3437748	-96.5147751	84.19044852	-162.7716382
7.07	707	1.001	0.088	0.018	0.9167328	-0.859437	0.4010706	-96.41737224	84.1961781	-162.6856945
7.08	708	0.998	0.086	0.02	0.7448454	-0.572958	0.4583664	-96.36007644	84.20190768	-162.6341283
7.09	709	0.999	0.086	0.019	0.8021412	-0.286479	0.5156622	-96.32569896	84.20763726	-162.61121
7.1	710	1	0.087	0.017	-0.2291832	0.572958	0.5156622	-96.31996938	84.21336684	-162.5997508
7.11	711	1	0.086	0.018	-0.572958	0.9167328	0.572958	-96.42310182	84.21909642	-162.6971537
7.12	712	1	0.086	0.02	-0.4010706	0.7448454	0.572958	-96.50904552	84.224826	-162.7773678
7.13	713	1.001	0.087	0.022	-0.286479	0.5156622	0.572958	-96.56634132	84.23055558	-162.8346636
7.14	714	1.004	0.085	0.027	-0.4010706	0.5156622	0.572958	-96.63509628	84.23628516	-162.897689
7.15	715	1.004	0.085	0.027	-0.572958	0.6875496	0.572958	-96.81844284	84.24201474	-163.0810355
7.16	716	1.003	0.084	0.025	-0.572958	0.859437	0.6302538	-96.92157528	84.24774432	-163.1784384
7.17	717	1.003	0.083	0.024	-0.6875496	0.8021412	0.5156622	-97.01324856	84.2534739	-163.2586525
7.18	718	1.002	0.082	0.023	-0.6875496	0.6302538	0.3437748	-97.09346268	84.25920348	-163.3274075
7.19	719	1.001	0.08	0.022	-0.9167328	0.572958	0.0572958	-97.16221764	84.25920348	-163.3904329
7.2	720	1.003	0.084	0.021	-0.859437	0.5156622	-0.1718874	-97.23670218	84.25920348	-163.4591878
7.21	721	1.005	0.085	0.024	-0.7448454	0.3437748	-0.286479	-97.27680924	84.25920348	-163.4878357
7.22	722	1.003	0.087	0.024	-0.8021412	0.2291832	-0.3437748	-97.30545714	84.2534739	-163.510754
7.23	723	1.004	0.086	0.025	-0.6875496	0.2291832	-0.1718874	-97.33410504	84.2534739	-163.5336724
7.24	724	1.004	0.087	0.025	-0.7448454	0.286479	-0.0572958	-97.3742121	84.2534739	-163.5623203
7.25	725	1.004	0.086	0.026	-0.8021412	0.4010706	0	-97.43723748	84.2534739	-163.6196161
7.26	726	1.004	0.085	0.025	-0.9167328	0.4583664	0	-97.50026286	84.24774432	-163.6711823
7.27	727	1.002	0.085	0.026	-1.0313244	0.4583664	-0.1145916	-97.55182908	84.24774432	-163.7112893
7.28	728	1	0.084	0.02	-1.145916	0.6302538	-0.1145916	-97.62631362	84.24774432	-163.7743147
7.29	729	1.001	0.083	0.018	-1.145916	0.572958	-0.286479	-97.689339	84.24201474	-163.8258809
7.3	730	1	0.082	0.02	-1.2032118	0.572958	-0.3437748	-97.6606911	84.24774432	-163.7857739
7.31	731	1	0.083	0.016	-1.3750992	0.6875496	-0.4583664	-97.74090522	84.24201474	-163.8487993
7.32	732	1.002	0.084	0.017	-1.432395	0.6875496	-0.4010706	-97.81538976	84.23628516	-163.9118246
7.33	733	1	0.086	0.023	-1.4896908	0.4583664	-0.4010706	-97.87268556	84.23055558	-163.9519317
7.34	734	1	0.086	0.023	-1.3750992	0.5156622	-0.4010706	-97.92998136	84.224826	-163.9977683
7.35	735	1.001	0.084	0.018	-1.432395	0.6302538	-0.4010706	-97.92998136	84.224826	-163.9805796
7.36	736	1.002	0.086	0.02	-1.432395	0.8021412	-0.4010706	-98.02165464	84.21909642	-164.0550641
7.37	737	1.002	0.085	0.02	-1.3178034	0.9740286	-0.4583664	-98.12478708	84.21336684	-164.1467374
7.38	738	1.005	0.086	0.021	-1.3178034	1.0886202	-0.5156622	-98.23937868	84.20763726	-164.2498699
7.39	739	1.006	0.088	0.023	-1.2032118	1.0886202	-0.5156622	-98.35397028	84.20190768	-164.3530023
7.4	740	1.006	0.088	0.023	-1.2032118	1.0313244	-0.5156622	-98.41699566	84.19044852	-164.4045685
7.41	741	1.003	0.088	0.025	-1.3750992	0.9740286	-0.5156622	-98.5201281	84.18471894	-164.4905122
7.42	742	1.002	0.089	0.024	-1.4896908	0.8021412	-0.3437748	-98.6060718	84.17898936	-164.5649968
7.43	743	1.003	0.089	0.022	-1.432395	0.7448454	-0.1718874	-98.6920155	84.17898936	-164.6394813
7.44	744	1.004	0.089	0.022	-1.4896908	0.859437	-0.0572958	-98.79514794	84.17325978	-164.7196954
7.45	745	1.002	0.089	0.024	-1.2605076	0.7448454	0	-98.85817332	84.17325978	-164.7712616
7.46	746	1.003	0.088	0.022	-1.2032118	0.7448454	0.0572958	-98.94411702	84.17325978	-164.8514758
7.47	747	1.005	0.088	0.027	-1.145916	0.8021412	0.1145916	-99.0357903	84.17325978	-164.9316899
7.48	748	1.003	0.086	0.025	-1.145916	0.6875496	0.1718874	-99.121734	84.17325978	-165.0004448
7.49	749	1.003	0.084	0.023	-1.145916	0.6302538	0.2291832	-99.19621854	84.17325978	-165.0691998
7.5	750	1.004	0.085	0.023	-1.3178034	0.6875496	0.1718874	-99.21913686	84.18471894	-165.0749294
7.51	751	1.006	0.086	0.022	-1.3750992	0.6875496	0.0572958	-99.30508056	84.18471894	-165.1494139
7.52	752	1.007	0.088	0.021	-1.2605076	0.7448454	0.0572958	-99.39102426	84.17898936	-165.2181689
7.53	753	1.005	0.085	0.025	-1.2032118	0.6875496	0	-99.47123838	84.17898936	-165.2869238
7.54	754	1.006	0.085	0.021	-1.145916	0.6875496	0.1145916	-99.5514525	84.17898936	-165.3614084
7.55	755	1.004	0.083	0.025	-0.4010706	0.1718874	0.286479	-99.49988628	84.1961781	-165.298383
7.56	756	1.001	0.084	0.027	-0.1718874	-0.2291832	0.286479	-99.47696796	84.20190768	-165.2811943
7.57	757	1	0.083	0.026	-0.1145916	-0.1718874	0.2291832	-99.4655088	84.20190768	-165.2640055
7.58	758	1.001	0.083	0.024	-0.5156622	0.1145916	0.1145916	-99.48269754	84.20190768	-165.2754647
7.59	759	1	0.084	0.023	-0.7448454	0.3437748	0.0572958	-99.52853418	84.20763726	-165.3155717
7.6	760	1.001	0.083	0.023	-0.4010706	0.286479	0.0572958	-99.45404964	84.224826	-165.2353576
7.61	761	1.003	0.082	0.027	-0.572958	0.1718874	-0.0572958	-99.47696796	84.224826	-165.2525464
7.62	762	1.003	0.086	0.025	-0.6302538	0.3437748	-0.286479	-99.51707502	84.224826	-165.2869238
7.63	763	1.006	0.087	0.024	-0.572958	0.286479	-0.3437748	-99.5514525	84.21909642	-165.3098422
7.64	764	1.004	0.089	0.026	-0.572958	0.1145916	-0.2291832	-99.56864124	84.21336684	-165.3213013
7.65	765	1.005	0.089	0.022	-0.3437748	0.0572958	0	-98.96703534	84.19044852	-164.7196954
7.66	766	1.005	0.09	0.023	0	-0.0572958	0.0572958	-98.96130576	84.1961781	-164.7139658
7.67	767	1.005	0.089	0.024	0.1718874	0	0.1145916	-98.96130576	84.1961781	-164.7196954
7.68	768	1.003	0.086	0.025	0.3437748	-0.0572958	0.1718874	-98.95557618	84.1961781	-164.7139658
7.69	769	1.002	0.086	0.026	0.286479	-0.1145916	0.1718874	-98.94411702	84.1961781	-164.7025067
7.7	770	1.001	0.086	0.024	0.1145916	0	0.2291832	-98.72639298	84.1961781	-164.4905122
7.71	771	1.001	0.085	0.023	0.1145916	0	0.2291832	-98.72639298	84.20190768	-164.4905122
7.72	772	1.002	0.085	0.022	0.2291832	0	0.2291832	-98.73212256	84.20190768	-164.5019714
7.73	773	1.003	0.086	0.024	0.1718874	0.1145916	0.1718874	-98.7493113	84.20190768	-164.5191601
7.74	774	1.002	0.085	0.025	0.1718874	0.286479	0.2291832	-98.7779592	84.20763726	-164.5535376
7.75	775	1.003	0.085	0.024	0.1145916	0.2291832	0.1718874	-98.65190844	84.23628516	-164.4274868
7.76	776	1.003	0.085	0.022	0.1145916	0.0572958	0.1145916	-98.65763802	84.23628516	-164.438946
7.77	777	1.004	0.085	0.021	0.1145916	0	0.1718874	-98.6633676	84.23628516	-164.4446756
7.78	778	1.004	0.087	0.023	0.2291832	0.1145916	0.3437748	-98.68055634	84.24201474	-164.4675939
7.79	779	1.006	0.085	0.025	0.4010706	0.1718874	0.286479	-98.70347466	84.24201474	-164.4905122
7.8	780	1.004	0.085	0.028	0.572958	0.1718874	0.2291832	-98.8639029	84.2534739	-164.65667
7.81	781	1.003	0.083	0.027	0.3437748	0.1718874	0.1145916	-98.88109164	84.2534739	-164.6795884
7.82	782	1.001	0.084	0.024	0.2291832	0.1145916	0.1145916	-98.89828038	84.2534739	-164.6967771
7.83	783	1.001	0.083	0.026	0.1718874	-0.0572958	0.1145916	-98.8925508	84.2534739	-164.6910475
7.84	784	1.002	0.084	0.027	0.1718874	-0.2291832	0.1145916	-98.86963248	84.25920348	-164.6738588
7.85	785	1.005	0.085	0.026	0.1718874	0	0.0572958	-98.8925508	84.25920348	-164.6967771
7.86	786	1.005	0.084	0.029	0.0572958	0.1718874	0	-98.90973954	84.25920348	-164.7196954
7.87	787	1.006	0.082	0.029	-0.1145916	0.1718874	-0.0572958	-98.93265786	84.25920348	-164.7368842
7.88	788	1.005	0.084	0.028	-0.286479	0.0572958	-0.1145916	-98.93838744	84.25920348	-164.7426137
7.89	789	1.003	0.084	0.027	-0.286479	0	-0.0572958	-98.94411702	84.25920348	-164.7426137
7.9	790	1.004	0.084	0.025	-0.2291832	0.0572958	-0.1145916	-99.01860156	84.26493306	-164.8170983
7.91	791	1.003	0.084	0.027	-0.0572958	0.0572958	-0.1145916	-99.03006072	84.26493306	-164.8228279
7.92	792	1.003	0.084	0.026	0	0.0572958	-0.2291832	-99.03006072	84.25920348	-164.8285574
7.93	793	1.004	0.085	0.027	-0.0572958	0.1145916	-0.2291832	-99.04724946	84.25920348	-164.8400166
7.94	794	1.005	0.084	0.027	0	0.1145916	-0.286479	-99.05297904	84.2534739	-164.8457462
7.95	795	1.007	0.085	0.028	-0.0572958	0	-0.286479	-99.2076777	84.2534739	-165.0004448
7.96	796	1.007	0.087	0.028	-0.1145916	0	-0.2291832	-99.2076777	84.2534739	-165.0004448
7.97	797	1.006	0.086	0.026	0	-0.1145916	-0.2291832	-99.19621854	84.24774432	-164.9832561
7.98	798	1.004	0.085	0.027	0.0572958	0	-0.1718874	-99.19048896	84.24774432	-164.9832561
7.99	799	1.003	0.086	0.03	0	-0.1145916	-0.1145916	-99.1790298	84.24774432	-164.9660674
8	800	1.002	0.085	0.027	0	-0.2291832	0	-99.11600442	84.24201474	-164.903042
8.01	801	1.002	0.087	0.026	0	-0.286479	0	-99.08162694	84.24201474	-164.8743941
8.02	802	1.002	0.087	0.027	0.1718874	-0.3437748	0	-99.04151988	84.24201474	-164.834287
8.03	803	1.003	0.086	0.023	0.2291832	-0.286479	0.1145916	-99.01287198	84.24201474	-164.8056391
8.04	804	1.002	0.086	0.024	0.3437748	-0.1718874	0.1718874	-98.98995366	84.24774432	-164.79418
8.05	805	1.002	0.085	0.026	0.3437748	-0.2291832	0.286479	-99.0071424	84.24774432	-164.8113687
8.06	806	1.001	0.085	0.026	0.4583664	-0.2291832	0.3437748	-98.98422408	84.2534739	-164.79418
8.07	807	1.003	0.085	0.027	0.4583664	0	0.286479	-98.98422408	84.25920348	-164.7999095
8.08	808	1.002	0.085	0.026	0.5156622	0	0.3437748	-98.98995366	84.25920348	-164.8113687
8.09	809	1.004	0.085	0.027	0.5156622	0	0.286479	-98.98422408	84.26493306	-164.8113687
8.1	810	1.005	0.085	0.03	0.4583664	0	0.3437748	-99.11600442	84.26493306	-164.943149
8.11	811	1.003	0.085	0.03	0.4583664	-0.1718874	0.4010706	-99.0930861	84.27066264	-164.9316899
8.12	812	1.004	0.084	0.031	0.572958	-0.1718874	0.4583664	-99.07589736	84.27639222	-164.9145011
8.13	813	1.005	0.082	0.032	0.572958	-0.1145916	0.4010706	-99.0644382	84.27639222	-164.9145011
8.14	814	1.005	0.082	0.029	0.286479	0.0572958	0.4010706	-99.08162694	84.2821218	-164.9316899
8.15	815	1.003	0.082	0.028	0.0572958	0	0.4010706	-99.17330022	84.29931054	-165.0233632
8.16	816	1.003	0.081	0.028	-0.1145916	0	0.3437748	-99.1790298	84.29931054	-165.0290927
8.17	817	1.004	0.082	0.027	-0.2291832	0.0572958	0.1718874	-99.19621854	84.30504012	-165.0405519
8.18	818	1.002	0.082	0.027	-0.286479	0.286479	0.1145916	-99.22486644	84.30504012	-165.0691998
8.19	819	1.002	0.081	0.026	-0.286479	0.2291832	0.0572958	-99.25924392	84.30504012	-165.0978477
8.2	820	1.003	0.081	0.028	-0.3437748	0.1718874	0.0572958	-99.37383552	84.32222886	-165.2067097
8.21	821	1.004	0.083	0.029	-0.4010706	0.1145916	0.0572958	-99.39102426	84.32222886	-165.2238985
8.22	822	1.004	0.084	0.027	-0.2291832	0.0572958	0	-99.408213	84.32222886	-165.2353576
8.23	823	1.006	0.082	0.031	-0.1718874	0	0	-99.40248342	84.32222886	-165.229628
8.24	824	1.005	0.082	0.031	-0.572958	-0.4583664	0	-99.36237636	84.32222886	-165.1837914
8.25	825	1.002	0.083	0.029	-0.6875496	-1.0886202	0.0572958	-99.27643266	84.32795844	-165.0921181
8.26	826	1.001	0.083	0.028	-0.4583664	-1.6615782	0.1718874	-99.121734	84.33368802	-164.9259603
8.27	827	1	0.084	0.027	-0.1718874	-1.5469866	0.1718874	-98.96703534	84.3394176	-164.7712616
8.28	828	1.002	0.084	0.028	0.1718874	-1.3750992	0.1718874	-98.835255	84.3394176	-164.6394813
8.29	829	1.004	0.082	0.029	0.3437748	-1.2032118	0.1145916	-98.70920424	84.34514718	-164.5191601
8.3	830	1.004	0.083	0.029	0.6302538	-1.145916	0.0572958	-98.68055634	84.34514718	-164.4962418
8.31	831	1.006	0.082	0.031	0.6302538	-1.0886202	0	-98.56023516	84.34514718	-164.3816502
8.32	832	1.006	0.083	0.03	0.6875496	-0.9740286	0	-98.45710272	84.35087676	-164.2842473
