TimeStamp(s)	FrameCounter	AccX	AccY	AccZ	GyrX	GyrY	GyrZ	EulerX	EulerY	EulerZ
0.01	1	0.01	-1.009	-0.057	-15.2979786	-0.0572958	0.1145916	88.16677704	0.04583664	-9.7116381
0.02	2	0.01	-1.015	-0.063	-15.8709366	-0.3437748	0	88.00061922	0.04583664	-9.71736768
0.03	3	0.008	-1.015	-0.071	-15.756345	-0.6302538	0	87.84019098	0.04010706	-9.72882684
0.04	4	0.008	-1.017	-0.074	-14.5531332	-1.145916	0	87.69695148	0.04010706	-9.740286
0.05	5	0.009	-1.019	-0.066	-13.0634424	-2.0626488	0.1718874	87.54225282	0.04010706	-9.75747474
0.06	6	0.01	-1.015	-0.064	-12.4904844	-2.4064236	0.286479	87.41620206	0.04010706	-9.78612264
0.07	7	0.009	-1.006	-0.065	-12.2613012	-2.6929026	0.3437748	87.29588088	0.03437748	-9.81477054
0.08	8	0.005	-1	-0.063	-12.3758928	-2.6929026	0.3437748	87.16983012	0.0286479	-9.83768886
0.09	9	0.003	-1	-0.067	-13.0634424	-2.8074942	0.286479	87.03804978	0.02291832	-9.87206634
0.1	10	0.003	-1.005	-0.069	-13.8082878	-2.8074942	0.0572958	86.88335112	0.01718874	-9.89498466
0.11	11	0.001	-1.01	-0.073	-13.750992	-2.8074942	-0.286479	86.74011162	0.02291832	-9.92363256
0.12	12	-0.003	-1.011	-0.07	-13.2353298	-2.4064236	-0.8021412	86.60833128	0.0286479	-9.95228046
0.13	13	-0.006	-1.01	-0.069	-12.6623718	-1.8907614	-0.6302538	86.47655094	0.03437748	-9.97519878
0.14	14	-0.003	-1.008	-0.065	-13.4072172	-1.8907614	-0.2291832	86.3447706	0.03437748	-9.99238752
0.15	15	-0.003	-1.004	-0.07	-13.5791046	-1.145916	-0.1145916	86.19007194	0.0286479	-9.9981171
0.16	16	-0.006	-1.003	-0.078	-12.7769634	-0.5156622	0.286479	86.0582916	0.02291832	-10.00957626
0.17	17	-0.003	-1.002	-0.077	-12.3758928	0.0572958	0.6302538	85.93224084	0.01718874	-10.00957626
0.18	18	0.001	-0.999	-0.08	-12.032118	0.8021412	0.6302538	85.81191966	0.00572958	-9.9981171
0.19	19	0	-0.994	-0.078	-11.5737516	0.6302538	0.5156622	85.69159848	0	-9.99238752
0.2	20	-0.003	-0.986	-0.069	-12.0894138	0.286479	0.286479	85.55981814	0	-9.98665794
0.21	21	-0.007	-0.985	-0.069	-12.6623718	0.3437748	0.0572958	85.43376738	0	-9.98665794
0.22	22	-0.007	-0.992	-0.072	-13.464513	0.5156622	0.1145916	85.29625746	-0.00572958	-9.98092836
0.23	23	-0.007	-0.994	-0.078	-13.8082878	0.859437	0.4010706	85.15301796	-0.00572958	-9.97519878
0.24	24	-0.005	-0.997	-0.084	-13.6364004	1.4896908	0.572958	85.01550804	-0.01145916	-9.95801004
0.25	25	-0.005	-0.999	-0.08	-12.7196676	1.6042824	0.6875496	84.8837277	-0.02291832	-9.9408213
0.26	26	-0.006	-0.998	-0.079	-11.9175264	1.4896908	0.5156622	84.75767694	-0.0286479	-9.92936214
0.27	27	-0.01	-0.993	-0.08	-10.8289062	1.4896908	0.2291832	84.64881492	-0.03437748	-9.9121734
0.28	28	-0.013	-0.983	-0.08	-9.9694692	1.6042824	0.0572958	84.54568248	-0.03437748	-9.90071424
0.29	29	-0.014	-0.98	-0.072	-9.2819196	2.4064236	0.1718874	84.4540092	-0.03437748	-9.87779592
0.3	30	-0.014	-0.98	-0.067	-9.0527364	3.0366774	0.3437748	84.36233592	-0.04583664	-9.84341844
0.31	31	-0.016	-0.981	-0.067	-9.1100322	3.437748	0.3437748	84.27066264	-0.04583664	-9.80904096
0.32	32	-0.019	-0.979	-0.064	-8.9381448	3.5523396	0.2291832	84.17325978	-0.04583664	-9.77466348
0.33	33	-0.015	-0.978	-0.067	-9.0527364	3.6096354	0	84.0815865	-0.04583664	-9.740286
0.34	34	-0.013	-0.977	-0.075	-9.1100322	3.9534102	-0.3437748	83.98991322	-0.04010706	-9.70017894
0.35	35	-0.008	-0.974	-0.077	-8.4797784	3.8961144	-0.6302538	83.90396952	-0.03437748	-9.66580146
0.36	36	0	-0.972	-0.079	-7.7922288	3.4950438	-0.8021412	83.8237554	-0.02291832	-9.63142398
0.37	37	-0.004	-0.971	-0.085	-6.4171296	2.4637194	-0.7448454	83.76073002	-0.01145916	-9.60850566
0.38	38	-0.009	-0.971	-0.086	-5.0993262	1.718874	-0.2291832	83.7091638	-0.01145916	-9.59131692
0.39	39	0	-0.968	-0.09	-4.1252976	0.8021412	-0.1718874	83.66332716	-0.00572958	-9.58558734
0.4	40	0.008	-0.96	-0.099	-2.1199446	0.5156622	-0.5156622	83.61749052	0.03437748	-9.59131692
0.41	41	0.022	-0.944	-0.094	0.572958	0.286479	-1.3178034	83.6232201	0.04583664	-9.59131692
0.42	42	0.024	-0.927	-0.088	2.7501984	-0.1145916	-2.3491278	83.651868	0.06875496	-9.59131692
0.43	43	0.01	-0.913	-0.082	4.0680018	-0.6875496	-3.151269	83.69197506	0.10313244	-9.60277608
0.44	44	-0.008	-0.906	-0.094	3.4950438	-0.286479	-3.7815228	83.72635254	0.13750992	-9.60850566
0.45	45	-0.006	-0.897	-0.099	3.3231564	1.2605076	-3.724227	83.74927086	0.1718874	-9.5970465
0.46	46	0.002	-0.888	-0.098	4.010706	2.4064236	-3.437748	83.78937792	0.21199446	-9.57412818
0.47	47	0.012	-0.874	-0.097	3.6096354	3.5523396	-2.86479	83.8237554	0.24064236	-9.5397507
0.48	48	0.029	-0.862	-0.093	2.4064236	4.4690724	-1.8334656	83.8524033	0.26356068	-9.49964364
0.49	49	0.052	-0.858	-0.103	1.0313244	4.870143	-0.1718874	83.85813288	0.26929026	-9.453807
0.5	50	0.077	-0.852	-0.108	-0.859437	5.0993262	1.9480572	83.84667372	0.286479	-9.41369994
0.51	51	0.091	-0.837	-0.104	-2.9220858	5.3285094	4.583664	83.81229624	0.24637194	-9.35640414
0.52	52	0.092	-0.804	-0.075	-4.7555514	6.016059	7.3911582	83.7664596	0.17761698	-9.28764918
0.53	53	0.064	-0.775	-0.103	-5.8441716	7.3911582	10.2559482	83.70343422	0.08021412	-9.20743506
0.54	54	0.039	-0.769	-0.091	-4.1825934	7.8495246	12.318597	83.66332716	-0.0286479	-9.11576178
0.55	55	0.041	-0.792	-0.051	-3.8961144	8.1932994	13.2353298	83.62894968	-0.13750992	-9.02981808
0.56	56	0.074	-0.843	-0.01	-4.583664	7.734933	11.4018642	83.58311304	-0.24637194	-8.9381448
0.57	57	0.095	-0.924	-0.002	-5.5576926	4.9274388	7.5630456	83.52581724	-0.3151269	-8.88657858
0.58	58	0.096	-1.003	-0.017	-4.870143	2.86479	3.2085648	83.47425102	-0.3437748	-8.8522011
0.59	59	0.097	-1.075	-0.006	-2.005353	0.9167328	-0.6302538	83.45706228	-0.33804522	-8.84647152
0.6	60	0.1	-1.13	0.016	-0.286479	0.1145916	-3.3804522	83.52008766	-0.22345362	-8.89803774
0.61	61	0.1	-1.177	0.009	-4.583664	2.005353	-4.3544808	83.47425102	-0.18334656	-8.880849
0.62	62	0.098	-1.209	-0.009	-8.3651868	3.8388186	-4.2398892	83.38830732	-0.13750992	-8.84647152
0.63	63	0.102	-1.264	-0.015	-10.6570188	3.8961144	-4.297185	83.2794453	-0.09167328	-8.81782362
0.64	64	0.115	-1.33	-0.011	-10.3705398	3.8388186	-4.4690724	83.17058328	-0.04583664	-8.78344614
0.65	65	0.124	-1.407	0.006	-7.2765666	3.6096354	-4.4690724	83.1075579	0.00572958	-8.76052782
0.66	66	0.118	-1.481	0.023	-6.4171296	3.6669312	-4.6409598	83.03880294	0.0572958	-8.73187992
0.67	67	0.109	-1.54	0.038	-8.6516658	2.6929026	-5.2139178	82.95285924	0.10886202	-8.7089616
0.68	68	0.097	-1.56	0.051	-9.3392154	0.9167328	-6.302538	82.85545638	0.1718874	-8.7089616
0.69	69	0.06	-1.536	0.073	-7.9068204	0.8021412	-8.3651868	82.77524226	0.25210152	-8.71469118
0.7	70	0.029	-1.504	0.107	-7.5630456	2.005353	-10.7143146	82.7064873	0.36096354	-8.7089616
0.71	71	0.032	-1.5	0.127	-10.313244	3.2085648	-12.5477802	82.60335486	0.4870143	-8.69750244
0.72	72	0.063	-1.525	0.116	-15.9282324	4.4690724	-13.2353298	82.43719704	0.62452422	-8.66885454
0.73	73	0.105	-1.554	0.068	-21.0848544	5.7868758	-12.6623718	82.22520258	0.75057498	-8.62874748
0.74	74	0.16	-1.569	0.022	-23.6631654	5.72958	-11.45916	81.98456022	0.87089616	-8.59437
0.75	75	0.205	-1.55	-0.018	-22.5745452	5.2139178	-9.8548776	81.7611066	0.97975818	-8.55999252
0.76	76	0.238	-1.483	-0.051	-18.5638392	4.4117766	-7.7922288	81.57203046	1.0599723	-8.53134462
0.77	77	0.244	-1.38	-0.07	-11.5737516	4.010706	-5.3858052	81.45170928	1.11153852	-8.49696714
0.78	78	0.231	-1.276	-0.083	-4.1825934	4.1252976	-3.0939732	81.41160222	1.15164558	-8.46258966
0.79	79	0.2	-1.172	-0.073	3.2085648	4.3544808	-0.3437748	81.4459797	1.15737516	-8.4224826
0.8	80	0.159	-1.069	-0.046	9.3392154	4.5263682	2.4064236	81.58348962	1.20894138	-8.40529386
0.81	81	0.111	-0.963	-0.021	15.8136408	4.870143	5.2712136	81.74391786	1.16310474	-8.34799806
0.82	82	0.075	-0.876	-0.012	22.058883	5.3285094	7.6776372	81.97310106	1.09434978	-8.28497268
0.83	83	0.056	-0.804	-0.01	26.5279554	4.583664	9.0527364	82.24239132	1.01413566	-8.2219473
0.84	84	0.031	-0.725	-0.01	28.074942	3.0939732	8.9954406	82.52887032	0.92819196	-8.18184024
0.85	85	0.038	-0.653	-0.042	26.5852512	2.1772404	8.021412	82.79816058	0.859437	-8.14746276
0.86	86	0.059	-0.579	-0.106	24.5798982	4.010706	6.6463128	83.0502621	0.8021412	-8.09589654
0.87	87	0.075	-0.493	-0.16	23.8923486	3.6096354	4.6982556	83.29090446	0.76203414	-8.0500599
0.88	88	0.095	-0.387	-0.196	27.3873924	2.8074942	2.3491278	83.57165388	0.7448454	-8.021412
0.89	89	0.114	-0.288	-0.19	31.799169	0.6302538	0.859437	83.89251036	0.73911582	-8.00995284
0.9	90	0.132	-0.195	-0.181	32.6013102	-1.4896908	0.0572958	84.20763726	0.75057498	-8.021412
0.91	91	0.132	-0.111	-0.175	31.3408026	-3.6669312	-0.572958	84.52849374	0.75630456	-8.05578948
0.92	92	0.128	-0.031	-0.157	30.7678446	-6.4744254	-0.8021412	84.84362064	0.76203414	-8.11881486
0.93	93	0.097	0.035	-0.131	30.2521824	-10.5424272	0.8021412	85.14728838	0.75057498	-8.21621772
0.94	94	0.043	0.076	-0.096	28.8197874	-13.9801752	3.5523396	85.43949696	0.71046792	-8.34799806
0.95	95	0.007	0.083	-0.081	23.0329116	-17.3033316	6.016059	85.66295058	0.64171296	-8.5084263
0.96	96	-0.013	0.074	-0.084	11.5164558	-21.0275586	7.2765666	85.78327176	0.55576926	-8.7089616
0.97	97	-0.035	0.029	-0.078	2.291832	-22.1734746	6.9900876	85.80619008	0.47555514	-8.92668564
0.98	98	-0.059	-0.066	-0.108	-7.161975	-22.058883	5.9014674	85.73170554	0.40680018	-9.1386801
0.99	99	-0.101	-0.192	-0.105	-16.902261	-19.6524594	3.8388186	85.56554772	0.36096354	-9.33348582
1	100	-0.169	-0.383	-0.156	-27.8457588	-12.6623718	0	85.26187998	0.32658606	-9.44807742
1.01	101	-0.214	-0.58	-0.272	-36.955791	-1.3750992	-4.7555514	84.8837277	0.36669312	-9.47099574
1.02	102	-0.273	-0.892	-0.323	-36.5547204	9.3392154	-9.453807	84.511305	0.46409598	-9.39078162
1.03	103	-0.336	-1.332	-0.266	-35.523396	22.5172494	-14.5531332	84.15034146	0.62452422	-9.18451674
1.04	104	-0.412	-1.914	-0.283	-37.1849742	37.0703826	-17.1314442	83.77218918	0.81360036	-8.84074194
1.05	105	-0.42	-2.469	-0.199	-31.9710564	41.8832298	-18.7930224	83.4513327	1.0313244	-8.4511305
1.06	106	-0.188	-2.516	-0.015	-8.7089616	39.9351726	-18.6784308	83.35965942	1.24904844	-8.0787078
1.07	107	0.211	-2.17	0.114	14.32395	36.4401288	-8.9954406	83.5086285	1.36936962	-7.72920342
1.08	108	0.499	-1.862	0.155	18.1054728	29.5646328	9.5111028	83.69770464	1.30634424	-7.42553568
1.09	109	0.482	-1.874	0.166	7.2765666	16.1574156	31.4553942	83.77218918	1.00840608	-7.23072996
1.1	110	0.314	-2.038	0.241	-2.8074942	4.1252976	40.7946096	83.74927086	0.60733548	-7.15051584
1.11	111	0.122	-2.186	0.266	-10.7716104	-3.6096354	38.7319608	83.64040884	0.22345362	-7.14478626
1.12	112	-0.024	-2.229	0.234	-18.048177	-9.740286	30.8251404	83.45706228	-0.0859437	-7.20781164
1.13	113	-0.111	-2.235	0.176	-23.3193906	-13.5791046	22.5172494	83.22787908	-0.32085648	-7.32240324
1.14	114	-0.13	-2.225	0.133	-23.8350528	-15.0114996	17.18874	82.98723672	-0.50993262	-7.448454
1.15	115	-0.094	-2.166	0.136	-23.7204612	-14.610429	14.0947668	82.75232394	-0.66463128	-7.58023434
1.16	116	-0.007	-2.002	0.133	-24.350715	-15.2406828	12.1467096	82.505952	-0.8021412	-7.71774426
1.17	117	0.047	-1.833	0.109	-24.5226024	-19.194093	11.2299768	82.26530964	-0.93392154	-7.89536124
1.18	118	0.072	-1.635	0.057	-20.7983754	-26.4706596	11.5737516	82.05904476	-1.07716104	-8.14173318
1.19	119	0.058	-1.438	0.011	-14.32395	-33.3461556	11.0580894	81.92726442	-1.22613012	-8.45686008
1.2	120	0.011	-1.223	-0.026	-5.156622	-38.961144	9.3392154	81.89861652	-1.35791046	-8.83501236
1.21	121	-0.026	-1.009	-0.053	7.9641162	-44.0031744	7.5057498	81.99601938	-1.47823164	-9.2532717
1.22	122	-0.015	-0.806	-0.06	25.210152	-46.2950064	5.6149884	82.27103922	-1.58136408	-9.70017894
1.23	123	0.013	-0.621	-0.014	41.3102718	-45.4928652	3.3231564	82.71221688	-1.65584862	-10.1413566
1.24	124	0	-0.451	0.011	50.4775998	-41.0810886	1.2605076	83.23933824	-1.70168526	-10.53669762
1.25	125	-0.036	-0.35	-0.041	53.571573	-33.5753388	2.5210152	83.7951075	-1.75898106	-10.8575541
1.26	126	-0.076	-0.246	-0.104	51.7381074	-25.78311	5.5003968	84.32795844	-1.82773602	-11.09819646
1.27	127	-0.106	-0.151	-0.141	48.2430636	-19.3659804	7.2765666	84.8264319	-1.90795014	-11.28154302
1.28	128	-0.131	-0.086	-0.165	41.3675676	-13.9801752	6.589017	85.2561504	-1.9767051	-11.40759378
1.29	129	-0.148	-0.024	-0.204	34.37748	-7.6776372	4.010706	85.60565478	-2.01681216	-11.47634874
1.3	130	-0.136	0.047	-0.226	30.7678446	-1.145916	0.3437748	85.89786336	-2.03973048	-11.47061916
1.31	131	-0.128	0.114	-0.231	32.372127	2.2345362	-3.6096354	86.22444942	-1.99962342	-11.44770084
1.32	132	-0.123	0.153	-0.198	34.950438	2.9220858	-6.7609044	86.57968338	-1.92513888	-11.41905294
1.33	133	-0.11	0.169	-0.119	35.7525792	2.86479	-7.6776372	86.94064692	-1.84492476	-11.39040504
1.34	134	-0.083	0.201	-0.056	32.8304934	4.5263682	-8.307891	87.27296256	-1.75898106	-11.3445684
1.35	135	-0.047	0.194	0.004	28.8770832	7.734933	-9.3965112	87.55944156	-1.66730778	-11.27008386
1.36	136	-0.035	0.108	0.035	20.5118964	10.7716104	-10.2559482	87.76570644	-1.56417534	-11.16122184
1.37	137	-0.056	-0.046	-0.049	3.6096354	11.745639	-8.6516658	87.79435434	-1.47823164	-11.04663024
1.38	138	-0.063	-0.211	-0.146	-13.0634424	12.7196676	-5.2139178	87.65684442	-1.42093584	-10.92630906
1.39	139	-0.058	-0.366	-0.268	-28.361421	16.7876694	-1.432395	87.36463584	-1.40947668	-10.76588082
1.4	140	-0.044	-0.578	-0.381	-41.539455	22.1161788	4.297185	86.89481028	-1.4610429	-10.53669762
1.41	141	-0.009	-0.837	-0.457	-55.0612638	28.8770832	12.3758928	86.32758186	-1.58136408	-10.25021862
1.42	142	0.085	-1.172	-0.512	-63.598338	25.78311	22.91832	85.66868016	-1.79908812	-9.98665794
1.43	143	0.307	-1.625	-0.531	-63.4837464	14.5531332	33.518043	85.02123762	-2.13140376	-9.82050012
1.44	144	0.51	-2.039	-0.424	-52.5402486	-0.8021412	34.091001	84.48838668	-2.47517856	-9.80331138
1.45	145	0.389	-2.216	-0.199	-20.3973048	-8.8235532	21.3140376	84.2821218	-2.6929026	-9.87779592
1.46	146	0.011	-1.997	-0.049	-1.9480572	-4.7555514	2.4637194	84.26493306	-2.7215505	-9.92363256
1.47	147	-0.31	-1.673	-0.021	0.859437	1.8334656	-19.1367972	84.27639222	-2.52674478	-9.92363256
1.48	148	-0.502	-1.653	0.05	2.1199446	3.7815228	-34.8358464	84.29931054	-2.18296998	-9.91790298
1.49	149	-0.426	-1.969	0.135	-11.172681	3.724227	-39.1903272	84.18471894	-1.79335854	-9.91790298
1.5	150	-0.226	-2.23	0.193	-21.6005166	3.3231564	-35.9817624	83.96126532	-1.43812458	-9.92363256
1.51	151	0.003	-2.351	0.208	-27.1009134	4.010706	-28.3041252	83.68624548	-1.15737516	-9.91790298
1.52	152	0.131	-2.318	0.163	-31.8564648	6.9327918	-17.3033316	83.35965942	-0.97975818	-9.87206634
1.53	153	0.147	-2.262	0.118	-34.6066632	11.1153852	-6.9327918	83.00442546	-0.90527364	-9.77466348
1.54	154	0.095	-2.2	0.068	-36.4974246	11.6883432	-1.9480572	82.63200276	-0.87662574	-9.66580146
1.55	155	0.053	-2.121	0.027	-37.0703826	10.3705398	-3.151269	82.25385048	-0.83651868	-9.5683986
1.56	156	0.073	-2.048	-0.012	-36.096354	7.5630456	-8.7089616	81.88715736	-0.75057498	-9.5111028
1.57	157	0.131	-1.919	-0.049	-30.4240698	3.6096354	-14.5531332	81.57776004	-0.6016059	-9.49964364
1.58	158	0.201	-1.737	-0.068	-17.7044022	3.3804522	-15.4125702	81.39441348	-0.45263682	-9.48818448
1.59	159	0.216	-1.519	-0.032	0.1718874	3.3804522	-11.3445684	81.40014306	-0.33231564	-9.47099574
1.6	160	0.183	-1.305	0.005	16.5011904	2.6356068	-5.2139178	81.5892192	-0.24637194	-9.47099574
1.61	161	0.106	-1.089	0.006	28.4760126	5.443101	-0.0572958	81.8756982	-0.23491278	-9.41369994
1.62	162	0.024	-0.894	0.008	42.5134836	7.161975	2.005353	82.31114628	-0.24637194	-9.33348582
1.63	163	-0.062	-0.694	0.031	55.7488134	3.6096354	0.9167328	82.87264512	-0.24637194	-9.29337876
1.64	164	-0.131	-0.481	0.027	63.6556338	-1.4896908	-3.0366774	83.52008766	-0.21199446	-9.30483792
1.65	165	-0.092	-0.33	0.075	67.4371566	-5.5003968	-8.3651868	84.21336684	-0.13178034	-9.36213372
1.66	166	0.003	-0.228	0.004	56.3790672	-5.0420304	-11.4018642	84.78632484	-0.01718874	-9.41369994
1.67	167	0.117	-0.086	-0.257	44.2323576	1.145916	-9.740286	85.23323208	0.08021412	-9.40797036
1.68	168	0.151	0.036	-0.339	42.398892	2.291832	-2.6929026	85.66295058	0.1145916	-9.37932246
1.69	169	0.134	0.129	-0.285	41.539455	-1.6615782	6.1879464	86.0869395	0.05156622	-9.39078162
1.7	170	0.079	0.244	-0.225	36.2109456	-7.8495246	12.3758928	86.43644388	-0.06302538	-9.453807
1.71	171	0.032	0.343	-0.101	27.8457588	-10.313244	13.5218088	86.72292288	-0.19480572	-9.54548028
1.72	172	0.028	0.387	0	17.0741484	-8.021412	10.2559482	86.90053986	-0.29793816	-9.61423524
1.73	173	0.042	0.341	0.022	4.1825934	-3.5523396	5.7868758	86.94064692	-0.35523396	-9.64861272
1.74	174	0.047	0.232	-0.001	-1.5469866	-0.572958	3.2085648	86.92918776	-0.38961144	-9.6543423
1.75	175	0.038	0.083	-0.015	-8.307891	-0.7448454	1.8907614	86.8317849	-0.4010706	-9.66007188
1.76	176	0.051	-0.098	-0.141	-18.7357266	3.2658606	0.4010706	86.64270876	-0.40680018	-9.63142398
1.77	177	0.038	-0.256	-0.232	-24.6944898	8.021412	-2.1199446	86.39060724	-0.38388186	-9.55693944
1.78	178	0.032	-0.405	-0.292	-25.4393352	7.5057498	-6.589017	86.12704656	-0.3151269	-9.48818448
1.79	179	0.061	-0.521	-0.413	-25.0382646	13.1207382	-12.318597	85.86921546	-0.18907614	-9.3678633
1.8	180	0.058	-0.629	-0.496	-21.0848544	16.4438946	-16.042824	85.58846604	-0.03437748	-9.20743506
1.81	181	-0.052	-0.776	-0.395	-17.9908812	7.3911582	-16.7876694	85.40511948	0.12605076	-9.14440968
1.82	182	-0.085	-0.954	-0.421	-23.6058696	4.9274388	-17.3033316	85.16447712	0.29793816	-9.11576178
1.83	183	-0.109	-1.246	-0.311	-24.637194	12.891555	-16.7876694	84.9123756	0.46982556	-9.00117018
1.84	184	-0.173	-1.691	-0.137	-27.1582092	17.4179232	-14.7823164	84.63735576	0.62452422	-8.84647152
1.85	185	-0.168	-2.204	-0.207	-37.4714532	24.7517856	-12.891555	84.2534739	0.76776372	-8.61728832
1.86	186	-0.049	-2.505	-0.195	-37.9298196	26.2987722	-11.5164558	83.86959204	0.89954406	-8.37664596
1.87	187	0.108	-2.425	-0.148	-29.220858	20.7983754	-10.7143146	83.57165388	1.01986524	-8.18184024
1.88	188	0.314	-2.208	-0.147	-21.199446	16.7303736	-6.016059	83.35965942	1.0886202	-8.02714158
1.89	189	0.401	-2.146	-0.097	-15.0687954	9.0527364	5.5576926	83.20496076	1.04278356	-7.9354683
1.9	190	0.365	-2.128	-0.041	-13.9801752	2.4064236	15.9855282	83.06745084	0.8880849	-7.89536124
1.91	191	0.234	-2.073	-0.014	-10.7143146	-3.437748	21.3713334	82.95858882	0.67036086	-7.90109082
1.92	192	0.125	-2.03	-0.035	-9.7975818	-9.1100322	22.7464326	82.85545638	0.43544808	-7.96984578
1.93	193	0.027	-1.99	-0.096	-8.1932994	-13.6936962	20.5118964	82.77524226	0.22345362	-8.0787078
1.94	194	-0.058	-1.924	-0.138	-4.6409598	-16.329303	15.4125702	82.72940562	0.05156622	-8.2219473
1.95	195	-0.139	-1.81	-0.161	0.8021412	-15.9855282	9.740286	82.74086478	-0.0572958	-8.3651868
1.96	196	-0.213	-1.623	-0.136	8.3651868	-12.2040054	4.8128472	82.82680848	-0.1145916	-8.4797784
1.97	197	-0.19	-1.435	-0.113	15.4125702	-4.4690724	3.0939732	82.98723672	-0.14896908	-8.51988546
1.98	198	-0.11	-1.266	-0.057	18.7357266	0.9167328	4.6982556	83.17631286	-0.19480572	-8.50269672
1.99	199	-0.031	-1.086	-0.022	18.2773602	3.3231564	7.3911582	83.35965942	-0.26356068	-8.45686008
2	200	0.011	-0.896	-0.043	19.767051	5.6722842	9.6256944	83.5659243	-0.3437748	-8.3938347
2.01	201	0.006	-0.704	-0.083	25.496631	8.1932994	8.6516658	83.8237554	-0.41825934	-8.29643184
2.02	202	-0.013	-0.534	-0.074	35.4088044	10.5424272	5.3285094	84.17898936	-0.4583664	-8.18756982
2.03	203	-0.011	-0.428	-0.028	44.2323576	9.9694692	2.1772404	84.6258966	-0.46982556	-8.0787078
2.04	204	-0.04	-0.34	-0.016	43.7739912	8.59437	-0.4583664	85.06707426	-0.4583664	-7.9927641
2.05	205	-0.075	-0.256	0.033	35.523396	13.2353298	-0.859437	85.4280378	-0.44690724	-7.85525418
2.06	206	-0.115	-0.151	0.004	28.1895336	22.8610242	0.9740286	85.7145168	-0.44690724	-7.62607098
2.07	207	-0.158	-0.051	-0.007	22.1161788	31.1116194	1.9480572	85.93224084	-0.44690724	-7.31094408
2.08	208	-0.176	0.015	-0.051	11.45916	37.2995658	1.0886202	86.04110286	-0.44117766	-6.94425096
2.09	209	-0.15	0.069	-0.093	2.291832	42.1697088	-1.432395	86.05256202	-0.41252976	-6.52599162
2.1	210	-0.097	0.093	-0.178	-0.2291832	44.9199072	-2.6929026	86.01818454	-0.37815228	-6.0733548
2.11	211	-0.061	0.098	-0.176	4.010706	44.6334282	-2.2345362	86.05256202	-0.33804522	-5.63217714
2.12	212	-0.034	0.067	-0.103	6.7609044	42.112413	-1.0313244	86.10985782	-0.30939732	-5.21964738
2.13	213	-0.048	0.007	0.081	4.9847346	35.3515086	-1.145916	86.15569446	-0.286479	-4.870143
2.14	214	-0.007	-0.062	0.14	-10.1986524	32.3148312	-0.1718874	86.04683244	-0.26929026	-4.54928652
2.15	215	0.073	-0.125	0.186	-23.0329116	31.8564648	-0.5156622	85.82337882	-0.24064236	-4.24561878
2.16	216	0.166	-0.258	0.116	-40.2789474	36.1536498	-4.4690724	85.41084906	-0.17761698	-3.8961144
2.17	217	0.231	-0.472	-0.16	-68.9268474	39.5913978	-7.0473834	84.70611072	-0.09167328	-3.5236917
2.18	218	0.181	-0.707	-0.549	-91.67328	31.3408026	-4.870143	83.77218918	-0.0286479	-3.22575354
2.19	219	0.106	-1.092	-0.746	-96.7153104	25.2674478	2.4064236	82.78670142	-0.04010706	-2.98511118
2.2	220	0.221	-1.829	-0.585	-86.9750244	21.3713334	18.1054728	81.89861652	-0.20626488	-2.76165756
2.21	221	0.429	-2.666	-0.415	-78.781725	19.194093	46.7533728	81.09647532	-0.64744254	-2.50955604
2.22	222	0.136	-2.557	-0.221	-42.5707794	20.7410796	47.269035	80.65529766	-1.0886202	-2.24026578
2.23	223	-0.373	-1.977	-0.018	-13.3499214	30.1375908	15.2406828	80.51205816	-1.19748222	-1.9194093
2.24	224	-0.611	-1.45	-0.126	-13.1207382	45.550161	-21.772404	80.36308908	-0.92819196	-1.51260912
2.25	225	-0.624	-1.254	-0.171	-6.9327918	57.4676874	-42.2270046	80.2714158	-0.4583664	-1.00840608
2.26	226	-0.417	-1.313	-0.128	-11.2299768	66.0047616	-49.1025006	80.15109462	0.10886202	-0.44690724
2.27	227	-0.138	-1.396	-0.173	-22.5172494	73.6823988	-50.4775998	79.91618184	0.71046792	0.18334656
2.28	228	0.125	-1.349	-0.284	-20.7410796	79.5265704	-50.420304	79.70418738	1.3178034	0.87089616
2.29	229	0.315	-1.117	-0.314	4.010706	81.2454444	-51.279741	79.75002402	1.94232762	1.5756345
2.3	230	0.417	-0.849	-0.144	30.8824362	79.1827956	-55.0612638	80.08806924	2.62414764	2.24599536
2.31	231	0.374	-0.616	0.118	61.020027	73.1094408	-62.2232388	80.7297822	3.34034514	2.87051958
2.32	232	0.233	-0.502	0.325	76.5471888	68.5830726	-68.9268474	81.5319234	4.11383844	3.44920716
2.33	233	0.104	-0.448	0.358	68.8122558	68.468481	-69.614397	82.26530964	4.88160216	4.03362432
2.34	234	-0.03	-0.42	0.237	49.3316838	69.0987348	-62.5097178	82.81534932	5.56915176	4.6409598
2.35	235	-0.111	-0.367	0.019	27.3873924	68.5257768	-50.5921914	83.1362058	6.12492102	5.26548402
2.36	236	-0.086	-0.291	-0.151	7.9641162	68.1247062	-38.2735944	83.2794453	6.56609868	5.9014674
2.37	237	-0.034	-0.151	-0.255	-6.4171296	67.4944524	-29.3354496	83.2794453	6.90987348	6.5317212
2.38	238	-0.02	-0.059	-0.234	-9.5683986	64.8588456	-28.9916748	83.24506782	7.25364828	7.14478626
2.39	239	-0.001	-0.023	-0.262	-12.6623718	63.9994086	-31.8564648	83.18777202	7.62607098	7.74066258
2.4	240	0.001	0.024	-0.278	-13.4072172	64.0567044	-33.8618178	83.09609874	8.00995284	8.34226848
2.41	241	-0.013	0.066	-0.19	-13.178034	61.7075766	-34.4347758	83.03307336	8.40529386	8.91522648
2.42	242	-0.003	0.123	-0.098	-13.9228794	59.1865614	-33.3461556	82.9643184	8.78917572	9.45953658
2.43	243	0	0.145	-0.022	-19.6524594	54.4883058	-30.8824362	82.83826764	9.14440968	9.96373962
2.44	244	0.007	0.125	0.039	-29.0489706	47.0971476	-27.215505	82.60335486	9.453807	10.3991877
2.45	245	0.024	0.053	0.11	-36.669312	36.4401288	-21.772404	82.3054167	9.7116381	10.72004418
2.46	246	0.042	-0.036	0.162	-39.9924684	30.1375908	-18.2200644	81.93872358	9.92363256	10.99506402
2.47	247	0.054	-0.119	0.105	-46.0658232	27.9603504	-15.9855282	81.51473466	10.10697912	11.24716554
2.48	248	0.124	-0.186	0.039	-56.0925882	31.3980984	-15.1260912	80.9876133	10.29032568	11.52791496
2.49	249	0.218	-0.226	-0.061	-64.744254	34.663959	-16.4438946	80.3860074	10.49086098	11.84304186
2.5	250	0.276	-0.232	-0.17	-69.900876	35.0077338	-19.8816426	79.71564654	10.7429625	12.1467096
2.51	251	0.263	-0.243	-0.283	-73.4532156	34.5493674	-24.064236	79.01663778	11.02371192	12.43891818
2.52	252	0.291	-0.314	-0.358	-84.511305	34.37748	-25.4393352	78.208767	11.32165008	12.72539718
2.53	253	0.395	-0.412	-0.352	-106.3410048	33.9764094	-22.2307704	77.18317218	11.59094034	13.00041702
2.54	254	0.517	-0.53	-0.517	-132.066819	29.6219286	-16.1574156	75.8882871	11.79147564	13.24678896
2.55	255	0.621	-0.672	-0.801	-155.271618	11.6310474	-8.4797784	74.30119344	11.89460808	13.3212735
2.56	256	0.762	-0.911	-1.08	-177.3877968	-17.8189938	-0.0572958	72.46199826	11.8315827	13.13219736
2.57	257	0.868	-1.358	-1.44	-201.3374412	-45.3209778	6.589017	70.34205366	11.61385866	12.70247886
2.58	258	0.991	-2.092	-1.53	-222.0785208	-44.690724	8.3651868	68.0101146	11.36175714	12.28421952
2.59	259	1.187	-3.084	-1.457	-251.242083	-46.1804148	-2.4637194	65.3745078	11.18414016	11.82585312
2.6	260	0.812	-3.767	-1.823	-284.4163512	-58.8427866	-31.5699858	62.36074872	11.18986974	11.12684436
2.61	261	0.202	-3.978	-1.953	-281.5515612	-84.4540092	-53.3423898	59.31261216	11.2299768	10.08979038
2.62	262	0.323	-3.996	-1.438	-236.7462456	-98.3768886	-53.7434604	56.69992368	11.16122184	8.9381448
2.63	263	0.37	-3.284	-0.848	-212.7966012	-73.6823988	-56.722842	54.36225504	11.2013289	7.97557536
2.64	264	-0.219	-2.164	-0.565	-214.6873626	-30.5959572	-83.1935016	52.03604556	11.66542488	7.20781164
2.65	265	-0.693	-1.416	-0.272	-233.7095682	6.875496	-127.0820844	49.5035712	12.63945348	6.4457775
2.66	266	-0.867	-1.188	0.174	-248.1481098	33.1169724	-165.0691998	46.77629112	14.04320058	5.57488134
2.67	267	-0.701	-1.479	0.448	-237.9494574	51.6808116	-151.83387	44.1750618	15.43548852	4.86441342
2.68	268	-0.36	-1.443	0.758	-233.1366102	55.8061092	-104.9659056	41.68842408	16.51264956	4.4690724
2.69	269	0.108	-1.027	1.107	-233.5949766	63.3691548	-68.8122558	39.28200048	17.3892753	4.36593996
2.7	270	0.305	-0.409	1.175	-249.7523922	67.4371566	-51.3943326	36.76671486	18.19714608	4.3831287
2.71	271	0.375	0.404	1.191	-272.4988248	55.863405	-49.7900502	33.96495024	18.89042526	4.30864416
2.72	272	0.227	1.033	1.217	-280.4056452	42.7999626	-55.1185596	31.03713486	19.49776074	4.07373138
2.73	273	0.024	1.139	1.21	-274.446882	38.388186	-65.8328742	28.11504906	20.10509622	3.68411994
2.74	274	0.022	0.959	1.273	-266.8265406	41.4821592	-80.787078	25.20442242	20.79264582	3.13408026
2.75	275	0.083	0.577	1.108	-251.9869284	45.3782736	-93.965112	22.39119864	21.55467996	2.42934192
2.76	276	0.261	0.217	0.714	-235.7149212	57.5249832	-111.72681	19.66391856	22.44849444	1.55271618
2.77	277	0.357	0.177	0.443	-210.562065	67.0933818	-133.0981434	17.07987798	23.4626301	0.44690724
2.78	278	0.494	0.381	0.289	-195.2067906	59.7022236	-150.687954	14.53594446	24.41374038	-0.9167328
2.79	279	0.558	0.739	-0.116	-191.94093	43.3156248	-151.1463204	11.95763346	25.1528562	-2.38923486
2.8	280	0.137	1.218	-0.474	-183.1746726	38.1590028	-136.7077788	9.47672532	25.74300294	-3.77006364
2.81	281	-0.362	1.752	-0.586	-149.7139254	52.1964738	-119.0033766	7.42553568	26.4133638	-4.96181628
2.82	282	-0.875	2.209	-0.516	-99.3509172	92.3035338	-110.2371192	5.91865614	27.43322904	-6.02751816
2.83	283	-0.688	2.348	-0.482	-58.9000824	121.467096	-114.3624168	4.77846972	28.72811412	-7.13905668
2.84	284	0.006	1.958	-0.667	-109.6641612	122.7276036	-112.7581344	3.0939732	30.00581046	-8.2792431
2.85	285	-0.34	1.553	-2.098	-148.5107136	129.2593248	-91.6159842	1.08289062	31.29496596	-9.2246238
2.86	286	0.123	1.729	-3.795	-158.0791122	77.9795838	-86.4020664	-1.03705398	32.05127052	-10.19292282
2.87	287	2.208	3.389	-3.922	-140.947668	12.4331886	-133.7283972	-3.30023808	32.10856632	-11.745639
2.88	288	3.996	3.999	-3.996	-109.3203864	-73.9688778	-111.440331	-5.05921914	31.28923638	-12.98895786
2.89	289	3.719	2.858	-3.216	-72.5937786	-98.3768886	-87.4906866	-6.25097178	30.22926408	-13.90569066
2.9	290	2.612	1.316	-3.215	-149.4274464	-15.8136408	-5.9014674	-7.78649922	30.0516471	-13.94006814
2.91	291	1.385	2.639	-3.521	-232.04799	-6.5317212	15.9282324	-10.03249458	29.98862172	-13.72807368
2.92	292	1.416	1.38	-2.714	-61.020027	-23.6058696	26.8717302	-10.47367224	29.79954558	-13.37283972
2.93	293	1.619	0.511	-1.767	-15.3552744	-20.9702628	64.2858876	-10.24448904	29.70214272	-12.61080558
2.94	294	1.794	0.373	-1.508	-16.6730778	-38.961144	76.2607098	-9.95228046	29.4500412	-11.6883432
2.95	295	1.397	0.028	-0.941	-0.0572958	-30.4240698	83.1362058	-9.453807	29.31826086	-10.70858502
2.96	296	0.902	-0.013	-0.564	21.8869956	-13.178034	82.1048814	-8.7662574	29.31826086	-9.7689339
2.97	297	0.47	0.148	-0.522	47.7274014	-12.2613012	78.3233586	-7.84379502	29.31253128	-8.87511942
2.98	298	0.314	0.384	-0.499	52.0818822	-15.3552744	75.5731602	-6.88695516	29.26096506	-8.00995284
2.99	299	0.295	0.497	-0.439	29.5646328	-16.615782	69.9581718	-6.1879464	29.18075094	-7.20781164
3	300	0.342	0.452	-0.403	-1.4896908	-22.7464326	61.4783934	-5.9014674	29.01459312	-6.5030733
3.01	301	0.22	0.395	-0.366	-14.2093584	-35.7525792	50.3057124	-5.74676874	28.71092538	-5.90719698
3.02	302	0.092	0.35	-0.306	-12.3758928	-43.4875122	36.955791	-5.65509546	28.31558436	-5.45456016
3.03	303	-0.006	0.253	-0.281	-7.734933	-50.1911208	24.4653066	-5.57488134	27.8457588	-5.13943326
3.04	304	-0.062	0.161	-0.248	-0.7448454	-53.2277982	17.1314442	-5.46601932	27.33582618	-4.90452048
3.05	305	-0.073	0.124	-0.206	7.8495246	-48.8733174	13.464513	-5.31705024	26.83735272	-4.72117392
3.06	306	-0.061	0.145	-0.24	16.6730778	-39.4768062	12.6623718	-5.06494872	26.46493002	-4.5550161
3.07	307	-0.022	0.18	-0.33	23.8350528	-31.7418732	13.6364004	-4.74409224	26.16126228	-4.3831287
3.08	308	0.014	0.246	-0.402	30.5959572	-27.2728008	13.464513	-4.36021038	25.90916076	-4.22270046
3.09	309	0.063	0.344	-0.441	34.5493674	-25.7258142	10.7716104	-3.94768062	25.66278882	-4.0966497
3.1	310	0.2	0.435	-0.44	35.3515086	-27.2728008	8.0787078	-3.6096354	25.39922814	-4.010706
3.11	311	0.405	0.497	-0.469	33.9191136	-29.7365202	8.0787078	-3.22002396	25.11274914	-3.91903272
3.12	312	0.636	0.517	-0.565	29.220858	-34.091001	8.7089616	-2.87624916	24.7804335	-3.81590028
3.13	313	0.738	0.536	-0.711	23.3766864	-40.7373138	8.8235532	-2.58977016	24.38509248	-3.71276784
3.14	314	0.708	0.584	-0.83	26.2414764	-46.7533728	8.2505952	-2.28037284	23.93245566	-3.61536498
3.15	315	0.801	0.671	-0.916	35.7525792	-52.712136	5.72958	-1.90222056	23.42825262	-3.55806918
3.16	316	0.889	0.72	-0.973	41.4248634	-52.2537696	2.9793816	-1.46677248	22.91259042	-3.52942128
3.17	317	0.754	0.635	-0.978	37.5860448	-43.831287	2.291832	-1.07143146	22.48287192	-3.51223254
3.18	318	0.592	0.443	-1.005	27.1009134	-32.4294228	0.8021412	-0.79068204	22.16774502	-3.50650296
3.19	319	0.504	0.224	-1.031	8.7089616	-12.8342592	-2.8074942	-0.71046792	22.04169426	-3.54088044
3.2	320	0.459	0.085	-1.131	-10.7716104	12.1467096	-4.8128472	-0.84797784	22.15628586	-3.59244666
3.21	321	0.502	-0.005	-1.278	-20.5691922	30.8824362	-4.010706	-1.07716104	22.45422402	-3.62682414
3.22	322	0.576	-0.032	-1.375	-25.210152	34.950438	-2.9220858	-1.3464513	22.79799882	-3.65547204
3.23	323	0.609	0.032	-1.402	-23.0902074	24.9809688	-0.2291832	-1.58709366	23.04437076	-3.65547204
3.24	324	0.6	0.081	-1.318	-8.021412	9.0527364	4.9847346	-1.64438946	23.13604404	-3.59817624
3.25	325	0.56	0.097	-1.215	6.8182002	-4.870143	11.0580894	-1.54125702	23.0902074	-3.48358464
3.26	326	0.525	0.074	-1.062	12.605076	-8.4797784	12.032118	-1.35791046	23.00999328	-3.35753388
3.27	327	0.473	0.059	-0.916	12.5477802	-9.8548776	8.6516658	-1.19175264	22.91832	-3.2658606
3.28	328	0.393	0.082	-0.811	14.610429	-16.2147114	4.3544808	-1.02559482	22.75789176	-3.22002396
3.29	329	0.304	0.133	-0.747	19.9962342	-26.0122932	2.8074942	-0.80787078	22.50579024	-3.19137606
3.3	330	0.221	0.184	-0.666	28.7051958	-37.7006364	4.583664	-0.52712136	22.12190838	-3.15699858
3.31	331	0.129	0.197	-0.534	33.9764094	-42.0551172	9.0527364	-0.1432395	21.70937862	-3.07105488
3.32	332	0.065	0.18	-0.55	27.6165756	-39.6486936	14.7250206	0.18907614	21.31976718	-2.92781538
3.33	333	0.092	0.136	-0.654	20.05353	-37.8725238	20.1108258	0.46982556	20.94734448	-2.72728008
3.34	334	0.112	0.07	-0.701	20.912967	-33.518043	20.2827132	0.76203414	20.61502884	-2.52674478
3.35	335	0.157	0.005	-0.73	24.8090814	-25.3820394	17.2460358	1.06570188	20.340009	-2.35485738
3.36	336	0.227	-0.033	-0.777	24.9809688	-16.2147114	13.5791046	1.36936962	20.17958076	-2.21734746
3.37	337	0.224	-0.041	-0.842	20.626488	-10.1413566	10.8289062	1.62147114	20.0821779	-2.11421502
3.38	338	0.223	-0.026	-0.898	15.6990492	-9.5683986	9.9694692	1.81627686	19.98477504	-2.01108258
3.39	339	0.21	-0.027	-0.933	12.5477802	-12.5477802	11.172681	1.98243468	19.85872428	-1.90222056
3.4	340	0.194	-0.053	-0.955	7.9641162	-12.2040054	13.464513	2.10275586	19.6811073	-1.75898106
3.41	341	0.21	-0.106	-0.974	1.2032118	-9.3392154	16.1001198	2.17151082	19.57797486	-1.59282324
3.42	342	0.226	-0.165	-1.02	-5.8441716	-6.4744254	16.7876694	2.17151082	19.5092199	-1.42093584
3.43	343	0.246	-0.221	-1.065	-11.0580894	-0.9167328	14.9542038	2.11421502	19.49203116	-1.2605076
3.44	344	0.306	-0.286	-1.082	-11.9175264	5.0420304	10.6570188	2.0340009	19.5378678	-1.145916
3.45	345	0.334	-0.324	-1.074	-9.3965112	6.9900876	6.302538	2.0340009	19.5951636	-1.0599723
3.46	346	0.351	-0.333	-1.04	-4.297185	6.0733548	2.4637194	1.99962342	19.6524594	-1.0313244
3.47	347	0.379	-0.285	-0.976	0.4583664	5.2712136	-0.2291832	2.005353	19.7097552	-1.0313244
3.48	348	0.415	-0.195	-0.926	1.6042824	5.0993262	-2.4637194	2.01681216	19.76132142	-1.05424272
3.49	349	0.447	-0.086	-0.882	0.1718874	4.7555514	-4.7555514	1.99962342	19.80715806	-1.10007936
3.5	350	0.47	-0.009	-0.861	-1.6615782	4.1252976	-7.0473834	1.9194093	19.97331588	-1.20894138
3.51	351	0.488	0.044	-0.844	-3.3804522	3.8961144	-8.9954406	1.85638392	20.01915252	-1.30061466
3.52	352	0.502	0.083	-0.841	-5.0420304	4.5263682	-10.4851314	1.76471064	20.06498916	-1.40947668
3.53	353	0.522	0.116	-0.85	-8.4224826	5.9587632	-11.45916	1.63865988	20.12801454	-1.52979786
3.54	354	0.537	0.165	-0.885	-13.4072172	5.9587632	-11.9175264	1.45531332	20.19103992	-1.65011904
3.55	355	0.489	0.262	-0.842	-10.0840608	3.437748	-11.9748222	1.12299768	20.28844278	-1.82200644
3.56	356	0.469	0.288	-0.762	1.145916	4.010706	-11.2299768	1.09434978	20.33427942	-1.93659804
3.57	357	0.495	0.228	-0.746	0	9.9694692	-9.3965112	1.0599723	20.43168228	-2.0340009
3.58	358	0.52	0.188	-0.815	-10.1986524	18.048177	-7.3911582	0.92819196	20.60929926	-2.10275586
3.59	359	0.535	0.163	-0.878	-13.750992	22.8610242	-5.9587632	0.76776372	20.83848246	-2.15432208
3.6	360	0.565	0.137	-0.906	-11.5737516	21.2567418	-4.1252976	0.59014674	21.10204314	-2.21161788
3.61	361	0.585	0.109	-0.93	-7.3911582	14.8396122	-1.4896908	0.50993262	21.24528264	-2.21734746
3.62	362	0.588	0.079	-0.951	-3.3231564	7.0473834	1.8907614	0.4870143	21.3140376	-2.19442914
3.63	363	0.569	0.067	-0.947	-1.2032118	-0.3437748	4.6409598	0.49274388	21.3140376	-2.1485925
3.64	364	0.537	0.075	-0.93	-0.8021412	-6.2452422	5.9014674	0.50420304	21.25101222	-2.08556712
3.65	365	0.487	0.091	-0.904	-0.9167328	-11.0580894	6.1879464	0.44690724	21.19371642	-2.05118964
3.66	366	0.441	0.104	-0.892	-1.2605076	-14.4958374	6.589017	0.46409598	21.05047692	-1.98816426
3.67	367	0.402	0.108	-0.885	-1.2032118	-17.5325148	7.3911582	0.47555514	20.87285994	-1.91367972
3.68	368	0.376	0.103	-0.881	-0.7448454	-19.1367972	8.3651868	0.50420304	20.6837838	-1.8334656
3.69	369	0.371	0.096	-0.879	-0.4010706	-18.6784308	8.5370742	0.52712136	20.50043724	-1.7475219
3.7	370	0.375	0.091	-0.883	-0.286479	-16.8449652	7.161975	0.4870143	20.340009	-1.6902261
3.71	371	0.381	0.096	-0.893	-0.286479	-14.610429	3.8961144	0.49847346	20.1967695	-1.65584862
3.72	372	0.38	0.113	-0.903	-0.4010706	-12.2613012	-0.3437748	0.49274388	20.07644832	-1.6615782
3.73	373	0.373	0.136	-0.915	-0.572958	-10.4278356	-4.010706	0.46982556	19.97331588	-1.71314442
3.74	374	0.362	0.154	-0.929	-0.572958	-9.3965112	-6.4171296	0.44117766	19.8816426	-1.78189938
3.75	375	0.35	0.159	-0.94	-0.572958	-8.7662574	-7.161975	0.27501984	19.77278058	-1.87357266
3.76	376	0.335	0.156	-0.951	-0.9167328	-8.2505952	-6.7609044	0.24064236	19.69256646	-1.9480572
3.77	377	0.322	0.143	-0.961	-1.432395	-7.7922288	-5.9587632	0.20626488	19.61235234	-2.01681216
3.78	378	0.311	0.13	-0.969	-1.4896908	-6.7609044	-5.2712136	0.1718874	19.54932696	-2.07410796
3.79	379	0.299	0.117	-0.972	-0.9740286	-5.5003968	-4.8128472	0.1432395	19.49203116	-2.12567418
3.8	380	0.29	0.114	-0.966	0.1145916	-4.1825934	-4.5263682	-0.06302538	19.34306208	-2.1772404
3.81	381	0.283	0.116	-0.96	1.3178034	-3.2085648	-4.2398892	-0.06302538	19.31441418	-2.22307704
3.82	382	0.276	0.117	-0.949	2.2345362	-2.578311	-3.8961144	-0.05156622	19.28576628	-2.2631841
3.83	383	0.274	0.117	-0.938	2.1772404	-1.8907614	-3.4950438	-0.04010706	19.26857754	-2.29756158
3.84	384	0.277	0.112	-0.936	1.6042824	-1.4896908	-3.0939732	-0.03437748	19.2513888	-2.33193906
3.85	385	0.277	0.1	-0.939	1.3178034	-1.4896908	-2.4637194	-0.30366774	19.07377182	-2.35485738
3.86	386	0.271	0.085	-0.93	1.6615782	-1.8334656	-1.432395	-0.29220858	19.0508535	-2.37204612
3.87	387	0.272	0.073	-0.912	2.578311	-1.4896908	-0.2291832	-0.26929026	19.03939434	-2.37204612
3.88	388	0.284	0.068	-0.902	3.437748	0.286479	0.9740286	-0.2291832	19.04512392	-2.36058696
3.89	389	0.306	0.066	-0.902	3.437748	2.86479	1.9480572	-0.18907614	19.07377182	-2.34339822
3.9	390	0.324	0.068	-0.903	2.9793816	4.4690724	2.6356068	-0.24064236	19.11387888	-2.32620948
3.91	391	0.344	0.067	-0.901	2.5210152	5.0993262	3.0939732	-0.20626488	19.1654451	-2.291832
3.92	392	0.363	0.062	-0.904	2.005353	4.9847346	3.5523396	-0.1718874	19.21128174	-2.25172494
3.93	393	0.381	0.058	-0.909	1.4896908	4.1825934	3.8961144	-0.1432395	19.25711838	-2.21161788
3.94	394	0.392	0.053	-0.915	0.859437	3.0939732	4.010706	-0.12032118	19.28576628	-2.16578124
3.95	395	0.4	0.05	-0.921	0.2291832	2.291832	4.010706	-0.22345362	19.41754662	-2.17151082
3.96	396	0.404	0.051	-0.922	-0.2291832	1.8907614	3.9534102	-0.21199446	19.43473536	-2.12567418
3.97	397	0.406	0.055	-0.924	-0.4583664	1.8907614	3.8388186	-0.20626488	19.45765368	-2.08556712
3.98	398	0.411	0.061	-0.923	-0.5156622	2.1199446	3.724227	-0.19480572	19.47484242	-2.04546006
3.99	399	0.416	0.067	-0.921	-0.2291832	2.1772404	3.6096354	-0.18907614	19.49776074	-2.005353
4	400	0.423	0.075	-0.917	0.0572958	2.0626488	3.3804522	-0.34950438	19.66964814	-2.0340009
4.01	401	0.427	0.081	-0.911	0.4583664	1.7761698	3.151269	-0.33231564	19.68683688	-1.99962342
4.02	402	0.43	0.09	-0.905	0.6875496	1.6615782	2.7501984	-0.3151269	19.70402562	-1.97097552
4.03	403	0.433	0.098	-0.898	0.8021412	1.5469866	2.1772404	-0.29793816	19.71548478	-1.9480572
4.04	404	0.434	0.104	-0.895	0.6302538	1.2605076	1.3750992	-0.286479	19.73267352	-1.93659804
4.05	405	0.434	0.106	-0.894	0.286479	0.9167328	0.4583664	-1.41520626	20.55200346	-2.3204799
4.06	406	0.435	0.108	-0.897	-0.1145916	0.4583664	-0.2291832	-1.42093584	20.55773304	-2.32620948
4.07	407	0.437	0.108	-0.9	-0.4010706	-0.4010706	-1.0886202	-1.42666542	20.55200346	-2.33766864
4.08	408	0.438	0.111	-0.905	-0.4010706	-1.3178034	-1.7761698	-1.43812458	20.5405443	-2.35485738
4.09	409	0.434	0.114	-0.908	-0.1145916	-2.4064236	-2.291832	-1.44958374	20.51762598	-2.38350528
4.1	410	0.429	0.113	-0.909	-0.0572958	-3.3231564	-2.9220858	-1.61574156	20.56346262	-2.4637194
4.11	411	0.417	0.112	-0.911	0	-4.2398892	-3.2658606	-1.62720072	20.52335556	-2.49809688
4.12	412	0.407	0.111	-0.915	0.2291832	-4.870143	-3.3231564	-1.63865988	20.47178934	-2.53247436
4.13	413	0.395	0.11	-0.922	0.572958	-5.0993262	-3.0366774	-1.63865988	20.42022312	-2.56685184
4.14	414	0.384	0.107	-0.928	1.0886202	-5.3858052	-2.6929026	-1.63865988	20.3686569	-2.59549974
4.15	415	0.371	0.103	-0.932	1.3178034	-5.6149884	-2.1772404	-1.74179232	20.30563152	-2.6356068
4.16	416	0.355	0.098	-0.934	1.4896908	-5.6722842	-1.718874	-1.73033316	20.24833572	-2.65279554
4.17	417	0.345	0.096	-0.934	1.7761698	-5.5576926	-1.3750992	-1.718874	20.1967695	-2.6642547
4.18	418	0.336	0.095	-0.934	2.005353	-4.9274388	-1.2032118	-1.70168526	20.14520328	-2.68144344
4.19	419	0.333	0.093	-0.932	2.2345362	-3.9534102	-1.0313244	-1.67876694	20.10509622	-2.6929026
4.2	420	0.333	0.091	-0.93	2.291832	-2.5210152	-0.859437	-1.83919518	20.03061168	-2.71582092
4.21	421	0.333	0.087	-0.923	1.9480572	-0.9740286	-0.6875496	-1.82200644	20.01915252	-2.72728008
4.22	422	0.335	0.083	-0.917	1.2032118	-0.1145916	-0.4583664	-1.81054728	20.01915252	-2.73300966
4.23	423	0.335	0.081	-0.913	0.5156622	0.2291832	-0.3437748	-1.81054728	20.01915252	-2.73300966
4.24	424	0.335	0.08	-0.912	0.0572958	0.5156622	-0.1145916	-1.81054728	20.0248821	-2.73873924
4.25	425	0.335	0.081	-0.918	-0.286479	0.8021412	0.1145916	-2.24026578	19.92747924	-2.7788463
4.26	426	0.336	0.083	-0.924	-0.4583664	1.0886202	0.286479	-2.24599536	19.9389384	-2.77311672
4.27	427	0.336	0.088	-0.93	-0.1718874	1.3178034	0.572958	-2.24599536	19.95039756	-2.76738714
4.28	428	0.339	0.09	-0.932	0.2291832	1.5469866	0.859437	-2.24026578	19.9675863	-2.76165756
4.29	429	0.344	0.092	-0.932	0.7448454	1.6042824	1.145916	-2.22880662	19.98477504	-2.74446882
4.3	430	0.348	0.095	-0.932	1.145916	1.6615782	1.4896908	-2.38350528	19.97904546	-2.75592798
4.31	431	0.354	0.097	-0.93	1.3750992	1.718874	1.6615782	-2.36631654	20.00196378	-2.73873924
4.32	432	0.361	0.101	-0.929	1.5469866	1.7761698	1.8334656	-2.34339822	20.01915252	-2.7215505
4.33	433	0.367	0.103	-0.926	1.8334656	1.9480572	1.9480572	-2.31475032	20.03634126	-2.69863218
4.34	434	0.373	0.103	-0.925	2.1199446	2.005353	1.9480572	-2.28610242	20.05925958	-2.67571386
4.35	435	0.377	0.101	-0.922	2.3491278	2.005353	1.8334656	-2.38923486	20.1108258	-2.68717302
4.36	436	0.381	0.1	-0.918	2.4064236	2.0626488	1.7761698	-2.36058696	20.13374412	-2.66998428
4.37	437	0.384	0.1	-0.916	2.2345362	2.0626488	1.5469866	-2.33193906	20.15666244	-2.65279554
4.38	438	0.386	0.1	-0.915	2.0626488	2.1199446	1.2032118	-2.30329116	20.17958076	-2.64133638
4.39	439	0.391	0.1	-0.915	1.9480572	2.0626488	1.0313244	-2.28037284	20.1967695	-2.62987722
4.4	440	0.394	0.099	-0.913	1.8334656	1.9480572	0.8021412	-2.4350715	20.29990194	-2.66998428
4.41	441	0.396	0.098	-0.913	1.7761698	1.718874	0.6875496	-2.41788276	20.31709068	-2.6642547
4.42	442	0.398	0.095	-0.913	1.7761698	1.3750992	0.6302538	-2.39496444	20.33427942	-2.65852512
4.43	443	0.398	0.092	-0.914	1.7761698	1.0313244	0.6875496	-2.3777757	20.34573858	-2.65279554
4.44	444	0.394	0.089	-0.913	1.7761698	0.572958	0.6875496	-2.35485738	20.35146816	-2.64706596
4.45	445	0.389	0.087	-0.915	1.9480572	0.1718874	0.6875496	-2.5496631	20.43168228	-2.6929026
4.46	446	0.385	0.087	-0.917	2.005353	0.286479	0.6875496	-2.52674478	20.43741186	-2.68717302
4.47	447	0.38	0.086	-0.915	2.1199446	0.4583664	0.6875496	-2.49809688	20.44314144	-2.68144344
4.48	448	0.378	0.084	-0.913	2.1199446	0.572958	0.6875496	-2.47517856	20.44887102	-2.66998428
4.49	449	0.377	0.083	-0.912	2.0626488	0.6302538	0.6875496	-2.45226024	20.4546006	-2.6642547
4.5	450	0.377	0.085	-0.911	1.9480572	0.572958	0.6875496	-2.61841806	20.5118964	-2.70436176
4.51	451	0.377	0.084	-0.913	1.8334656	0.3437748	0.6875496	-2.59549974	20.51762598	-2.6929026
4.52	452	0.376	0.084	-0.914	1.6615782	0.1145916	0.7448454	-2.57258142	20.51762598	-2.68717302
4.53	453	0.374	0.084	-0.916	1.6042824	0.0572958	0.7448454	-2.55539268	20.51762598	-2.68144344
4.54	454	0.375	0.084	-0.918	1.718874	0	0.7448454	-2.53820394	20.51762598	-2.66998428
4.55	455	0.372	0.085	-0.918	1.8334656	0	0.6875496	-2.73300966	20.55200346	-2.71009134
4.56	456	0.369	0.085	-0.92	1.8907614	-0.0572958	0.6302538	-2.71582092	20.55200346	-2.70436176
4.57	457	0.367	0.085	-0.919	1.7761698	-0.0572958	0.572958	-2.6929026	20.55200346	-2.69863218
4.58	458	0.366	0.089	-0.919	1.6615782	-0.0572958	0.572958	-2.66998428	20.54627388	-2.6929026
4.59	459	0.365	0.09	-0.92	1.6615782	0.1718874	0.572958	-2.65279554	20.55200346	-2.68717302
4.6	460	0.364	0.091	-0.919	1.8907614	0.2291832	0.572958	-2.86479	20.55773304	-2.7215505
4.61	461	0.365	0.091	-0.92	2.005353	0.3437748	0.572958	-2.84187168	20.56346262	-2.71582092
4.62	462	0.367	0.09	-0.919	2.1199446	0.3437748	0.6302538	-2.81322378	20.5691922	-2.71009134
4.63	463	0.367	0.09	-0.919	2.2345362	0.4010706	0.7448454	-2.79030546	20.5691922	-2.69863218
4.64	464	0.368	0.088	-0.919	2.291832	0.4583664	0.8021412	-2.76165756	20.57492178	-2.6929026
4.65	465	0.368	0.087	-0.918	2.291832	0.4583664	0.859437	-2.88197874	20.59211052	-2.71009134
4.66	466	0.369	0.086	-0.916	2.291832	0.5156622	0.859437	-2.85333084	20.60356968	-2.70436176
4.67	467	0.371	0.086	-0.918	2.1199446	0.7448454	0.8021412	-2.83041252	20.60929926	-2.6929026
4.68	468	0.373	0.086	-0.918	2.2345362	0.6875496	0.8021412	-2.80176462	20.61502884	-2.68717302
4.69	469	0.375	0.086	-0.918	2.1772404	0.6875496	0.6875496	-2.7788463	20.626488	-2.68144344
4.7	470	0.375	0.086	-0.917	2.1772404	0.6302538	0.6875496	-2.89916748	20.66086548	-2.70436176
4.71	471	0.377	0.084	-0.916	2.1199446	0.6302538	0.6875496	-2.87624916	20.66659506	-2.69863218
4.72	472	0.378	0.084	-0.917	2.0626488	0.572958	0.7448454	-2.85333084	20.67232464	-2.6929026
4.73	473	0.378	0.082	-0.916	1.8334656	0.6302538	0.7448454	-2.83041252	20.6837838	-2.68144344
4.74	474	0.379	0.081	-0.916	1.718874	0.572958	0.859437	-2.8074942	20.68951338	-2.67571386
4.75	475	0.378	0.082	-0.918	1.6615782	0.4583664	0.8021412	-2.95646328	20.72962044	-2.70436176
4.76	476	0.378	0.085	-0.919	1.8334656	0.6302538	0.9740286	-2.93354496	20.73535002	-2.6929026
4.77	477	0.376	0.087	-0.919	1.8907614	0.5156622	0.859437	-2.91062664	20.7410796	-2.68717302
4.78	478	0.375	0.09	-0.916	1.8907614	0.6302538	0.8021412	-2.8934379	20.74680918	-2.67571386
4.79	479	0.375	0.092	-0.916	1.9480572	0.572958	0.8021412	-2.87051958	20.75826834	-2.6642547
4.8	480	0.376	0.091	-0.914	1.9480572	0.5156622	0.859437	-3.0080295	20.78691624	-2.6929026
4.81	481	0.377	0.09	-0.914	1.7761698	0.572958	0.9167328	-2.98511118	20.7983754	-2.68717302
4.82	482	0.376	0.089	-0.915	0.286479	0.1145916	0.3437748	-2.98511118	20.7983754	-2.68144344
4.83	483	0.376	0.081	-0.909	-0.1718874	0	0.286479	-2.98511118	20.7983754	-2.67571386
4.84	484	0.374	0.074	-0.904	-0.7448454	0.4583664	0.4010706	-2.99084076	20.80410498	-2.67571386
4.85	485	0.374	0.072	-0.905	-1.2605076	0.1718874	0.0572958	-3.24294228	20.86713036	-2.73300966
4.86	486	0.375	0.071	-0.907	-1.3750992	-0.1145916	-0.2291832	-3.26013102	20.86713036	-2.73873924
4.87	487	0.376	0.075	-0.913	-1.4896908	-0.3437748	-0.5156622	-3.27731976	20.86140078	-2.74446882
4.88	488	0.377	0.083	-0.919	-1.432395	-0.4583664	-0.5156622	-3.2945085	20.8556712	-2.7501984
4.89	489	0.376	0.088	-0.924	-1.0886202	-0.5156622	-0.4583664	-3.30596766	20.84994162	-2.7501984
4.9	490	0.374	0.086	-0.926	-0.572958	-0.6302538	-0.286479	-3.59244666	20.86713036	-2.81322378
4.91	491	0.371	0.083	-0.922	-0.2291832	-0.7448454	-0.1145916	-3.59244666	20.86140078	-2.81322378
4.92	492	0.369	0.08	-0.919	-0.0572958	-0.7448454	0.0572958	-3.59244666	20.8556712	-2.81322378
4.93	493	0.37	0.083	-0.916	-0.0572958	-0.6302538	0.0572958	-3.59244666	20.84994162	-2.81322378
4.94	494	0.372	0.086	-0.914	-0.2291832	-0.3437748	0.0572958	-3.59817624	20.84421204	-2.81322378
4.95	495	0.375	0.086	-0.916	-0.3437748	-0.1145916	0	-4.27426668	20.98172196	-2.97365202
4.96	496	0.376	0.085	-0.916	-0.5156622	0	0	-4.27999626	20.98172196	-2.97365202
4.97	497	0.377	0.083	-0.917	-0.4583664	-0.1145916	0	-4.28572584	20.97599238	-2.97365202
4.98	498	0.378	0.084	-0.917	-0.4010706	-0.2291832	-0.0572958	-4.29145542	20.97599238	-2.97365202
4.99	499	0.376	0.083	-0.917	-0.2291832	-0.4010706	-0.1145916	-4.297185	20.9702628	-2.97365202
5	500	0.374	0.081	-0.916	-0.4010706	-0.286479	-0.1145916	-4.57220484	21.01609944	-3.04240698
5.01	501	0.374	0.082	-0.914	-0.4583664	-0.1718874	-0.1145916	-4.57793442	21.01036986	-3.04240698
5.02	502	0.374	0.082	-0.916	-0.4583664	0	-0.2291832	-4.583664	21.01036986	-3.04813656
5.03	503	0.374	0.082	-0.915	-0.4583664	0.0572958	-0.2291832	-4.58939358	21.01036986	-3.04813656
5.04	504	0.374	0.081	-0.916	-0.4010706	0.0572958	-0.2291832	-4.59512316	21.01036986	-3.04813656
5.05	505	0.373	0.081	-0.916	-0.4583664	0	-0.1718874	-4.81857678	21.0562065	-3.10543236
5.06	506	0.372	0.08	-0.914	-0.5156622	-0.286479	-0.1145916	-4.82430636	21.05047692	-3.10543236
5.07	507	0.371	0.08	-0.914	-0.6302538	-0.286479	-0.0572958	-4.83003594	21.05047692	-3.11116194
5.08	508	0.372	0.078	-0.915	-0.4583664	-0.1145916	0	-4.83576552	21.05047692	-3.11116194
5.09	509	0.371	0.077	-0.915	-0.6302538	0.1145916	0.0572958	-4.8414951	21.05047692	-3.10543236
5.1	510	0.371	0.076	-0.912	-0.6875496	0.1718874	0.0572958	-4.94462754	21.07339524	-3.12835068
5.11	511	0.37	0.076	-0.91	-0.8021412	0.1718874	0.0572958	-4.95035712	21.07912482	-3.12835068
5.12	512	0.37	0.076	-0.909	-0.9167328	0.0572958	-0.0572958	-4.96181628	21.07912482	-3.13408026
5.13	513	0.37	0.077	-0.909	-1.0886202	-0.0572958	-0.2291832	-4.97327544	21.07912482	-3.13408026
5.14	514	0.373	0.078	-0.91	-0.7448454	0.1145916	-0.286479	-4.9847346	21.07912482	-3.13980984
5.15	515	0.375	0.079	-0.911	-0.572958	0.286479	-0.3437748	-5.07640788	21.1135023	-3.16272816
5.16	516	0.375	0.08	-0.911	-0.6875496	0.4010706	-0.286479	-5.08786704	21.1135023	-3.16845774
5.17	517	0.374	0.079	-0.911	-0.7448454	0.3437748	-0.3437748	-5.09359662	21.11923188	-3.17418732
5.18	518	0.374	0.077	-0.914	-0.6875496	0.1145916	-0.286479	-5.10505578	21.11923188	-3.17418732
5.19	519	0.375	0.079	-0.914	-0.6875496	0	-0.3437748	-5.11078536	21.11923188	-3.1799169
5.2	520	0.376	0.081	-0.915	-0.7448454	0	-0.4010706	-5.21964738	21.15360936	-3.21429438
5.21	521	0.377	0.082	-0.915	-0.7448454	0	-0.4010706	-5.23110654	21.15360936	-3.21429438
5.22	522	0.377	0.082	-0.914	-0.7448454	0.0572958	-0.4010706	-5.23683612	21.15360936	-3.22002396
5.23	523	0.376	0.082	-0.916	-0.8021412	0.1145916	-0.4010706	-5.24829528	21.15360936	-3.22575354
5.24	524	0.377	0.082	-0.915	-0.8021412	0	-0.4010706	-5.25975444	21.15360936	-3.23148312
5.25	525	0.376	0.081	-0.915	-0.859437	-0.1145916	-0.5156622	-5.3285094	21.17652768	-3.25440144
5.26	526	0.376	0.079	-0.914	-0.859437	-0.286479	-0.6302538	-5.33996856	21.17652768	-3.26013102
5.27	527	0.376	0.081	-0.916	-0.9167328	-0.3437748	-0.6302538	-5.35142772	21.1707981	-3.2658606
5.28	528	0.376	0.081	-0.915	-0.9167328	-0.4583664	-0.8021412	-5.36288688	21.16506852	-3.27159018
5.29	529	0.375	0.082	-0.916	-0.859437	-0.3437748	-0.859437	-5.37434604	21.15933894	-3.28304934
5.3	530	0.376	0.083	-0.918	-0.7448454	-0.286479	-0.8021412	-5.443101	21.17652768	-3.30596766
5.31	531	0.377	0.084	-0.917	-0.6875496	-0.1718874	-0.8021412	-5.45456016	21.1707981	-3.31742682
5.32	532	0.378	0.081	-0.917	-0.7448454	-0.1145916	-0.6875496	-5.46601932	21.1707981	-3.3231564
5.33	533	0.378	0.081	-0.917	-0.859437	-0.3437748	-0.6302538	-5.47747848	21.16506852	-3.32888598
5.34	534	0.376	0.079	-0.915	-1.0313244	-0.4583664	-0.6302538	-5.48893764	21.15933894	-3.33461556
5.35	535	0.375	0.078	-0.913	-1.0886202	-0.4583664	-0.572958	-5.5290447	21.1707981	-3.3518043
5.36	536	0.373	0.08	-0.913	-1.145916	-0.1718874	-0.572958	-5.54623344	21.16506852	-3.35753388
5.37	537	0.371	0.082	-0.914	-1.2032118	0	-0.572958	-5.5576926	21.16506852	-3.36326346
5.38	538	0.372	0.084	-0.915	-1.145916	0.1145916	-0.6302538	-5.57488134	21.16506852	-3.36899304
5.39	539	0.373	0.085	-0.917	-1.0313244	0.1145916	-0.6302538	-5.5863405	21.16506852	-3.37472262
5.4	540	0.375	0.083	-0.917	-1.0886202	-0.1145916	-0.5156622	-5.63790672	21.18225726	-3.39191136
5.41	541	0.374	0.084	-0.919	-0.286479	-0.3437748	0	-5.6436363	21.17652768	-3.39191136
5.42	542	0.374	0.083	-0.92	-0.286479	-0.4583664	0	-5.6436363	21.1707981	-3.39191136
5.43	543	0.374	0.081	-0.92	-0.2291832	-0.4010706	0	-5.64936588	21.16506852	-3.39191136
5.44	544	0.373	0.082	-0.918	-0.1718874	-0.4583664	0	-5.64936588	21.15933894	-3.39191136
5.45	545	0.372	0.083	-0.917	-0.2291832	-0.4010706	0	-5.77541664	21.18225726	-3.42055926
5.46	546	0.373	0.085	-0.915	-0.2291832	-0.2291832	0	-5.78114622	21.18225726	-3.42055926
5.47	547	0.376	0.087	-0.918	-0.1145916	-0.1718874	0	-5.78114622	21.17652768	-3.42055926
5.48	548	0.376	0.088	-0.919	-0.1718874	-0.286479	-0.1145916	-5.78114622	21.17652768	-3.42628884
5.49	549	0.378	0.086	-0.918	-0.286479	-0.286479	-0.1145916	-5.7868758	21.1707981	-3.42628884
5.5	550	0.377	0.081	-0.912	-0.4583664	-0.2291832	-0.1145916	-5.82698286	21.20517558	-3.437748
5.51	551	0.374	0.079	-0.908	-0.6302538	-0.4010706	-0.1145916	-5.83844202	21.199446	-3.44347758
5.52	552	0.371	0.075	-0.907	-0.859437	-0.859437	-0.2291832	-5.8441716	21.19371642	-3.44347758
5.53	553	0.37	0.074	-0.907	-1.0313244	-1.0313244	-0.572958	-5.85563076	21.18225726	-3.44920716
5.54	554	0.37	0.079	-0.912	-1.2032118	-0.7448454	-0.572958	-5.8728195	21.1707981	-3.45493674
5.55	555	0.373	0.086	-0.92	-0.9740286	-0.4010706	-0.6302538	-5.91865614	21.17652768	-3.47212548
5.56	556	0.377	0.092	-0.924	-0.5156622	-0.2291832	-0.4010706	-5.92438572	21.1707981	-3.47212548
5.57	557	0.378	0.09	-0.927	0.0572958	-0.4010706	-0.1145916	-5.92438572	21.16506852	-3.47212548
5.58	558	0.378	0.089	-0.924	0.286479	-0.6875496	0	-5.91865614	21.15933894	-3.47212548
5.59	559	0.377	0.09	-0.922	0.286479	-0.9740286	0.1145916	-5.91292656	21.14787978	-3.47212548
5.6	560	0.376	0.09	-0.919	0.1718874	-1.0886202	0.0572958	-5.97595194	21.15933894	-3.48931422
5.61	561	0.376	0.092	-0.917	0.1718874	-0.859437	0.0572958	-5.97022236	21.15360936	-3.48358464
5.62	562	0.373	0.09	-0.917	0.2291832	-0.5156622	0.0572958	-5.97022236	21.14787978	-3.48358464
5.63	563	0.373	0.09	-0.917	0.0572958	-0.3437748	0	-5.96449278	21.1421502	-3.48358464
5.64	564	0.374	0.091	-0.92	0.1145916	0	-0.1145916	-5.96449278	21.1421502	-3.48358464
5.65	565	0.373	0.091	-0.919	0.1718874	-0.0572958	-0.1145916	-6.09054354	21.15360936	-3.51796212
5.66	566	0.373	0.09	-0.921	0.1718874	-0.0572958	-0.1145916	-6.09054354	21.15360936	-3.51796212
5.67	567	0.373	0.089	-0.92	0.1145916	-0.1718874	-0.1145916	-6.08481396	21.15360936	-3.5236917
5.68	568	0.373	0.087	-0.918	0.1145916	-0.2291832	-0.0572958	-6.08481396	21.14787978	-3.5236917
5.69	569	0.37	0.088	-0.918	0.1145916	-0.1718874	0	-6.08481396	21.14787978	-3.5236917
5.7	570	0.369	0.087	-0.918	0.1718874	-0.1718874	0	-6.17075766	21.14787978	-3.54088044
5.71	571	0.368	0.087	-0.917	0.1145916	0	0.0572958	-6.16502808	21.14787978	-3.54088044
5.72	572	0.368	0.086	-0.918	0.2291832	0.0572958	0.1145916	-6.16502808	21.14787978	-3.54088044
5.73	573	0.368	0.085	-0.917	0.286479	0	0.1145916	-6.1592985	21.14787978	-3.54088044
5.74	574	0.368	0.084	-0.919	0.4010706	0.0572958	0.1718874	-6.15356892	21.14787978	-3.53515086
5.75	575	0.368	0.085	-0.92	0.5156622	0.1718874	0.1718874	-6.18221682	21.14787978	-3.54088044
5.76	576	0.368	0.086	-0.917	0.5156622	0.286479	0.2291832	-6.17075766	21.15360936	-3.54088044
5.77	577	0.369	0.087	-0.917	0.4583664	0.3437748	0.286479	-6.16502808	21.15360936	-3.53515086
5.78	578	0.37	0.086	-0.915	0.4010706	0.286479	0.286479	-6.1592985	21.15933894	-3.53515086
5.79	579	0.37	0.085	-0.914	0.4010706	0.1145916	0.2291832	-6.1592985	21.15933894	-3.52942128
5.8	580	0.371	0.086	-0.914	0.2291832	0.1718874	0.3437748	-6.19367598	21.17652768	-3.54088044
5.81	581	0.371	0.088	-0.917	0.0572958	0.4010706	0.286479	-6.1879464	21.17652768	-3.53515086
5.82	582	0.371	0.09	-0.918	0.0572958	0.572958	0.2291832	-6.1879464	21.18225726	-3.53515086
5.83	583	0.373	0.089	-0.918	0.1718874	0.6875496	0.2291832	-6.1879464	21.19371642	-3.52942128
5.84	584	0.373	0.09	-0.918	0.1718874	0.572958	0.1718874	-6.18221682	21.199446	-3.52942128
5.85	585	0.373	0.089	-0.918	0.3437748	0.572958	0.1145916	-6.22232388	21.21663474	-3.54088044
5.86	586	0.373	0.089	-0.919	0.4010706	0.4010706	0.1145916	-6.2165943	21.22236432	-3.54088044
5.87	587	0.375	0.092	-0.918	0.4583664	0.1718874	0.1145916	-6.21086472	21.22236432	-3.53515086
5.88	588	0.374	0.091	-0.917	0.4010706	0	0.1718874	-6.20513514	21.22236432	-3.53515086
5.89	589	0.373	0.091	-0.916	0.4010706	-0.0572958	0.1718874	-6.19940556	21.22236432	-3.53515086
5.9	590	0.371	0.091	-0.917	0.4010706	-0.0572958	0.1145916	-6.26243094	21.22236432	-3.54661002
5.91	591	0.37	0.091	-0.917	0.4010706	0	0.0572958	-6.25670136	21.22236432	-3.54661002
5.92	592	0.369	0.091	-0.917	0.1718874	-0.0572958	-0.0572958	-6.25097178	21.22236432	-3.54661002
5.93	593	0.37	0.09	-0.918	0.2291832	0	-0.1145916	-6.25097178	21.22236432	-3.54661002
5.94	594	0.371	0.091	-0.918	0.2291832	0.0572958	0	-6.25097178	21.22236432	-3.54661002
5.95	595	0.371	0.09	-0.918	0.1718874	0.1145916	-0.0572958	-6.3311859	21.2280939	-3.56952834
5.96	596	0.371	0.09	-0.919	0.1145916	0.1718874	-0.0572958	-6.3311859	21.2280939	-3.57525792
5.97	597	0.371	0.091	-0.92	0.1145916	0.1145916	0	-6.3311859	21.2280939	-3.57525792
5.98	598	0.37	0.089	-0.92	0.0572958	0.1145916	0	-6.3311859	21.2280939	-3.57525792
5.99	599	0.368	0.088	-0.919	0.1145916	0.1718874	0	-6.32545632	21.23382348	-3.57525792
6	600	0.368	0.088	-0.919	0	0.286479	0	-6.38275212	21.21663474	-3.58671708
6.01	601	0.368	0.088	-0.919	0.1145916	0.1718874	0	-6.37702254	21.22236432	-3.58671708
6.02	602	0.368	0.088	-0.92	0.1145916	0.1145916	0	-6.37702254	21.22236432	-3.58671708
6.03	603	0.367	0.089	-0.918	0.0572958	0.1145916	0	-6.37702254	21.22236432	-3.58671708
6.04	604	0.367	0.088	-0.917	0	0.1145916	0	-6.37702254	21.22236432	-3.58671708
6.05	605	0.367	0.088	-0.917	-0.0572958	0.1145916	0.1145916	-6.52599162	21.18798684	-3.61536498
6.06	606	0.367	0.09	-0.918	-0.1718874	0.1145916	0	-6.5317212	21.18798684	-3.61536498
6.07	607	0.368	0.091	-0.92	-0.1145916	0.1718874	0	-6.5317212	21.18798684	-3.61536498
6.08	608	0.368	0.091	-0.922	0.0572958	0.1145916	0	-6.5317212	21.18798684	-3.61536498
6.09	609	0.368	0.092	-0.921	0.1718874	0.2291832	0	-6.5317212	21.19371642	-3.61536498
6.1	610	0.368	0.091	-0.921	0.1145916	0.286479	0.1145916	-6.54890994	21.18225726	-3.62109456
6.11	611	0.368	0.091	-0.922	0.1145916	0.2291832	0.1145916	-6.54890994	21.18225726	-3.62109456
6.12	612	0.367	0.092	-0.921	0	0.4010706	0.0572958	-6.54890994	21.18798684	-3.62109456
6.13	613	0.367	0.092	-0.921	0.0572958	0.286479	0	-6.54890994	21.18798684	-3.62109456
6.14	614	0.365	0.091	-0.921	0.0572958	0.4010706	0	-6.54890994	21.19371642	-3.62109456
