TimeStamp(s)	FrameCounter	AccX	AccY	AccZ	GyrX	GyrY	GyrZ	EulerX	EulerY	EulerZ
0.01	1	-0.006	-0.992	0.187	8.880849	2.3491278	-0.859437	101.6083717	-0.61306506	2.9220858
0.02	2	-0.009	-0.992	0.191	8.8235532	2.0626488	-0.859437	101.700045	-0.61306506	2.94500412
0.03	3	-0.01	-0.992	0.201	8.7662574	1.6615782	-0.9167328	101.7859887	-0.60733548	2.96219286
0.04	4	-0.011	-0.991	0.21	8.307891	1.4896908	-1.0886202	101.8719324	-0.59587632	2.98511118
0.05	5	-0.011	-0.99	0.214	7.9068204	1.145916	-1.2032118	101.9464169	-0.58441716	2.99657034
0.06	6	-0.011	-0.99	0.213	7.3338624	0.859437	-1.2032118	102.0209015	-0.572958	3.0080295
0.07	7	-0.01	-0.991	0.212	6.7036086	0.8021412	-1.145916	102.0896564	-0.56722842	3.01948866
0.08	8	-0.013	-0.997	0.211	6.4171296	0.572958	-1.0886202	102.1526818	-0.55576926	3.03094782
0.09	9	-0.015	-1.007	0.219	6.0733548	0.572958	-1.2032118	102.2157072	-0.5443101	3.0366774
0.1	10	-0.015	-1.012	0.24	5.156622	1.2032118	-1.3750992	102.273003	-0.53285094	3.05386614
0.11	11	-0.008	-1.012	0.246	3.5523396	2.7501984	-1.6042824	102.3073805	-0.52139178	3.08251404
0.12	12	-0.005	-1.01	0.233	1.7761698	3.7815228	-2.1199446	102.3245692	-0.50993262	3.12835068
0.13	13	-0.005	-1.014	0.223	0.5156622	3.7815228	-2.291832	102.3302988	-0.49847346	3.16845774
0.14	14	-0.01	-1.019	0.216	-0.4583664	2.6929026	-2.1772404	102.3245692	-0.48128472	3.19710564
0.15	15	-0.017	-1.024	0.213	-0.6302538	1.6042824	-1.718874	102.2901917	-0.47555514	3.22002396
0.16	16	-0.021	-1.029	0.222	-0.859437	1.145916	-1.3178034	102.2787326	-0.46409598	3.23148312
0.17	17	-0.02	-1.023	0.239	-1.145916	1.2032118	-1.3178034	102.2672734	-0.45263682	3.24867186
0.18	18	-0.02	-1.012	0.251	-2.2345362	2.2345362	-1.7761698	102.2443551	-0.44117766	3.27159018
0.19	19	-0.016	-1	0.252	-3.3804522	3.4950438	-2.7501984	102.2099776	-0.42398892	3.31169724
0.2	20	-0.01	-0.998	0.246	-4.4117766	4.5263682	-3.3231564	102.164141	-0.4010706	3.36326346
0.21	21	-0.003	-1	0.24	-5.6722842	4.8128472	-3.437748	102.1068452	-0.37815228	3.41482968
0.22	22	0	-1.004	0.228	-6.589017	4.297185	-3.2085648	102.0380902	-0.35523396	3.46066632
0.23	23	0.006	-1.013	0.217	-7.6776372	3.6669312	-2.6929026	101.9578761	-0.33804522	3.50077338
0.24	24	0.011	-1.021	0.21	-8.4797784	2.86479	-2.3491278	101.8719324	-0.32085648	3.53515086
0.25	25	0.01	-1.03	0.219	-9.3392154	2.1772404	-2.0626488	101.7745295	-0.30366774	3.55806918
0.26	26	0.009	-1.033	0.226	-9.8548776	1.3750992	-2.0626488	101.6771267	-0.286479	3.57525792
0.27	27	0.006	-1.03	0.228	-11.6883432	1.0313244	-2.291832	101.5568055	-0.26929026	3.58671708
0.28	28	0.003	-1.016	0.244	-12.9488508	0.4010706	-2.4064236	101.4250252	-0.24637194	3.59817624
0.29	29	-0.001	-1.01	0.231	-13.6936962	0	-2.578311	101.2817857	-0.22345362	3.59817624
0.3	30	-0.004	-1.005	0.22	-15.5844576	0.1145916	-2.4637194	101.127087	-0.19480572	3.60390582
0.31	31	-0.003	-1.008	0.213	-16.5011904	0.3437748	-2.291832	100.9551996	-0.17761698	3.6096354
0.32	32	0.003	-1.021	0.211	-17.475219	0.572958	-2.1199446	100.7775826	-0.16042824	3.62109456
0.33	33	0.006	-1.034	0.205	-18.8503182	0.5156622	-2.1199446	100.5885065	-0.13750992	3.62682414
0.34	34	0.003	-1.039	0.218	-20.2827132	0	-2.578311	100.3822416	-0.1145916	3.62682414
0.35	35	-0.002	-1.036	0.218	-21.2567418	-0.5156622	-3.3804522	100.1645176	-0.08021412	3.62682414
0.36	36	-0.004	-1.034	0.209	-23.0902074	-0.4010706	-4.2398892	99.92960478	-0.04010706	3.62682414
0.37	37	-0.005	-1.032	0.213	-24.2934192	-0.6875496	-4.7555514	99.68323284	0	3.62682414
0.38	38	-0.008	-1.043	0.205	-25.5539268	-0.2291832	-5.0420304	99.42540174	0.05156622	3.62682414
0.39	39	-0.003	-1.053	0.184	-27.6738714	0.6302538	-5.2712136	99.14465232	0.09740286	3.6382833
0.4	40	0.003	-1.062	0.17	-29.9084076	1.3178034	-5.0993262	98.84098458	0.1432395	3.65547204
0.41	41	0.009	-1.069	0.162	-31.799169	1.432395	-4.3544808	98.51439852	0.18334656	3.67266078
0.42	42	0.014	-1.067	0.159	-33.9764094	0.9167328	-3.3231564	98.17062372	0.21199446	3.68411994
0.43	43	0.022	-1.048	0.169	-35.6379876	0.4583664	-2.3491278	97.80966018	0.23491278	3.68411994
0.44	44	0.031	-1.035	0.163	-36.2682414	0.3437748	-2.4064236	97.43723748	0.25210152	3.68984952
0.45	45	0.039	-1.023	0.166	-37.7579322	-0.6302538	-2.7501984	97.0590852	0.286479	3.67839036
0.46	46	0.038	-1.024	0.162	-38.1590028	-2.4064236	-3.2085648	96.66947376	0.3151269	3.65547204
0.47	47	0.036	-1.032	0.162	-40.5081306	-3.5523396	-3.3231564	96.256944	0.35523396	3.62109456
0.48	48	0.034	-1.034	0.159	-42.398892	-4.1252976	-3.0366774	95.8272255	0.38388186	3.57525792
0.49	49	0.032	-1.051	0.154	-44.404245	-4.3544808	-2.5210152	95.38031826	0.41252976	3.52942128
0.5	50	0.034	-1.056	0.167	-47.2117392	-4.297185	-1.7761698	94.90476312	0.43544808	3.48358464
0.51	51	0.035	-1.055	0.141	-50.133825	-4.4117766	-0.9740286	94.3948305	0.44690724	3.437748
0.52	52	0.032	-1.044	0.123	-53.5142772	-4.9274388	-0.4010706	93.8505204	0.45263682	3.3804522
0.53	53	0.029	-1.031	0.126	-54.5456016	-5.5003968	-0.1145916	93.29475114	0.45263682	3.31742682
0.54	54	0.026	-1.033	0.131	-55.6342218	-6.1306506	-0.5156622	92.7332523	0.4583664	3.25440144
0.55	55	0.021	-1.037	0.132	-56.4936588	-6.875496	-1.3178034	92.1602943	0.47555514	3.1799169
0.56	56	0.016	-1.054	0.139	-58.441716	-7.0473834	-2.6356068	91.57014756	0.50420304	3.10543236
0.57	57	0.008	-1.064	0.136	-60.2751816	-6.589017	-3.7815228	90.9570825	0.53858052	3.03094782
0.58	58	0.008	-1.081	0.109	-63.5410422	-5.443101	-4.583664	90.31536954	0.57868758	2.96792244
0.59	59	0.005	-1.069	0.099	-67.8382272	-4.583664	-4.7555514	89.62209036	0.62452422	2.91635622
0.6	60	-0.009	-1.062	0.068	-70.0727634	-4.1825934	-4.2398892	88.91735202	0.6589017	2.86479
0.61	61	-0.014	-1.067	0.063	-72.3645954	-3.5523396	-3.9534102	88.18396578	0.69327918	2.82468294
0.62	62	-0.011	-1.077	0.053	-73.1094408	-3.151269	-3.6669312	87.43912038	0.72192708	2.7788463
0.63	63	-0.014	-1.083	0.025	-75.7450476	-3.437748	-3.6669312	86.67135666	0.75057498	2.73873924
0.64	64	-0.02	-1.084	0.025	-77.062851	-4.010706	-3.8961144	85.8864042	0.78495246	2.68717302
0.65	65	-0.017	-1.085	0.023	-77.7504006	-3.151269	-4.1825934	85.10145174	0.81360036	2.64133638
0.66	66	-0.006	-1.063	0.015	-79.8703452	-1.4896908	-5.3858052	84.29358096	0.859437	2.61268848
0.67	67	0	-1.063	-0.002	-81.7611066	0.6875496	-5.9587632	83.46279186	0.91100322	2.6069589
0.68	68	0.003	-1.026	-0.01	-85.1415588	1.7761698	-5.6722842	82.59762528	0.96256944	2.6069589
0.69	69	0.001	-0.992	-0.034	-86.1155874	2.6929026	-4.6982556	81.72099954	1.0026765	2.61841806
0.7	70	0.003	-1.023	-0.062	-86.516658	2.9220858	-3.437748	80.8443738	1.0313244	2.6356068
0.71	71	0.014	-1.035	-0.07	-88.6366026	2.291832	-1.2032118	79.94482974	1.03705398	2.64706596
0.72	72	0.029	-0.997	-0.104	-90.2981808	1.432395	0.4583664	79.02809694	1.02559482	2.65279554
0.73	73	0.042	-1.008	-0.139	-90.1262934	-0.3437748	0.4010706	78.11709372	1.01413566	2.64133638
0.74	74	0.062	-1.026	-0.137	-90.0689976	-3.3804522	0.8021412	77.20036092	0.99121734	2.60122932
0.75	75	0.075	-0.996	-0.134	-90.9284346	-6.3598338	1.3750992	76.28362812	0.95683986	2.53820394
0.76	76	0.075	-0.96	-0.14	-89.7252228	-8.9954406	1.145916	75.3726249	0.9167328	2.44653066
0.77	77	0.091	-0.929	-0.148	-88.5793068	-11.3445684	0.8021412	74.47308084	0.87089616	2.32620948
0.78	78	0.08	-0.94	-0.156	-86.3447706	-13.2353298	0.572958	73.5964551	0.82505952	2.19442914
0.79	79	0.062	-0.922	-0.206	-86.4593622	-13.5218088	-0.5156622	72.71409978	0.78495246	2.05691922
0.8	80	0.033	-0.975	-0.22	-84.1102344	-13.2353298	-1.2032118	71.86612194	0.75057498	1.9194093
0.81	81	0.013	-1.004	-0.242	-84.511305	-12.032118	-0.9167328	71.00668494	0.7161975	1.79335854
0.82	82	-0.001	-0.992	-0.279	-85.370742	-9.3965112	0.1718874	70.14151836	0.67609044	1.70168526
0.83	83	-0.025	-1.019	-0.327	-84.6258966	-8.1360036	-0.8021412	69.28208136	0.64744254	1.61574156
0.84	84	-0.022	-1.028	-0.347	-85.4280378	-7.8495246	0.1718874	68.41691478	0.61306506	1.53552744
0.85	85	-0.028	-1.008	-0.38	-85.9437	-7.6203414	-0.286479	67.54028904	0.57868758	1.45531332
0.86	86	-0.021	-1.003	-0.41	-85.2561504	-7.3911582	-0.8021412	66.67512246	0.55003968	1.38082878
0.87	87	-0.012	-1.049	-0.409	-84.3967134	-8.7089616	-0.5156622	65.82141504	0.50993262	1.2891555
0.88	88	0.005	-1.004	-0.426	-87.8917572	-8.7662574	-1.3178034	64.92760056	0.47555514	1.19748222
0.89	89	0.044	-1.046	-0.487	-88.522011	-8.021412	-1.2032118	64.03378608	0.44690724	1.1172681
0.9	90	0.072	-1.04	-0.529	-87.6052782	-11.0007936	-1.5469866	63.1399716	0.40680018	1.0026765
0.91	91	0.056	-1.034	-0.523	-85.0269672	-11.172681	-0.6875496	62.2805346	0.35523396	0.89381448
0.92	92	0.016	-1.009	-0.554	-85.0269672	-8.9381448	-1.2032118	61.41536802	0.3151269	0.80787078
0.93	93	-0.006	-0.99	-0.573	-83.07891	-7.3911582	-1.0313244	60.57311976	0.28074942	0.72765666
0.94	94	-0.025	-0.956	-0.596	-80.0422326	-5.72958	-0.6302538	59.7595194	0.24637194	0.67036086
0.95	95	-0.031	-0.958	-0.622	-75.7450476	-4.2398892	0.1145916	58.99175568	0.21199446	0.6302538
0.96	96	-0.028	-0.948	-0.602	-73.6823988	-4.3544808	0.572958	58.2411807	0.17761698	0.59014674
0.97	97	-0.022	-0.917	-0.638	-72.479187	-5.5576926	0.9167328	57.50779446	0.13178034	0.5443101
0.98	98	0.002	-0.889	-0.683	-68.5830726	-7.448454	1.718874	56.81451528	0.06875496	0.4870143
0.99	99	0.032	-0.872	-0.679	-62.5670136	-9.7975818	2.7501984	56.1785319	-0.00572958	0.41825934
1	100	0.046	-0.878	-0.678	-58.6708992	-10.6570188	3.3804522	55.576926	-0.09740286	0.3437748
1.01	101	0.045	-0.866	-0.678	-55.3477428	-9.2819196	3.724227	55.02115674	-0.18334656	0.286479
1.02	102	0.033	-0.842	-0.693	-51.6235158	-6.9327918	3.5523396	54.49403538	-0.2578311	0.24637194
1.03	103	0.015	-0.819	-0.694	-46.696077	-5.6149884	3.0939732	54.02420982	-0.32085648	0.21772404
1.04	104	-0.013	-0.81	-0.682	-41.6540466	-3.724227	2.4064236	53.6002209	-0.36669312	0.2005353
1.05	105	-0.046	-0.817	-0.693	-38.0444112	-1.718874	1.6042824	53.20487988	-0.4010706	0.19480572
1.06	106	-0.067	-0.825	-0.689	-33.804522	-1.0313244	0.8021412	52.86110508	-0.41825934	0.18907614
1.07	107	-0.067	-0.829	-0.673	-29.6219286	-0.9167328	0.5156622	52.56316692	-0.4297185	0.18334656
1.08	108	-0.047	-0.84	-0.677	-26.5279554	-0.2291832	0.3437748	52.29387666	-0.44117766	0.18334656
1.09	109	-0.005	-0.82	-0.693	-24.9809688	0.4583664	0.5156622	52.03604556	-0.44690724	0.18907614
1.1	110	0.031	-0.796	-0.698	-21.9442914	0.859437	1.145916	51.80113278	-0.44117766	0.2005353
1.11	111	0.043	-0.784	-0.657	-18.7357266	0.5156622	2.1772404	51.61205664	-0.4583664	0.21772404
1.12	112	0.029	-0.763	-0.672	-16.2720072	0.9167328	3.3231564	51.44589882	-0.48128472	0.24637194
1.13	113	0	-0.762	-0.694	-13.4072172	2.4637194	4.583664	51.3083889	-0.50420304	0.29220858
1.14	114	-0.028	-0.787	-0.677	-8.9381448	2.8074942	5.3858052	51.21671562	-0.53285094	0.34950438
1.15	115	-0.047	-0.797	-0.683	-6.9327918	3.724227	5.7868758	51.12504234	-0.56722842	0.41252976
1.16	116	-0.059	-0.791	-0.695	-4.9274388	3.6096354	6.1306506	51.07347612	-0.59014674	0.48128472
1.17	117	-0.058	-0.783	-0.686	-2.4064236	3.2658606	6.4744254	51.0505578	-0.62452422	0.55003968
1.18	118	-0.045	-0.757	-0.647	1.145916	5.0420304	6.7609044	51.06201696	-0.64744254	0.6302538
1.19	119	-0.036	-0.755	-0.677	3.9534102	6.7609044	6.7036086	51.09639444	-0.6589017	0.72765666
1.2	120	-0.033	-0.74	-0.566	5.3285094	6.9900876	6.589017	51.15369024	-0.67036086	0.81932994
1.21	121	-0.044	-0.734	-0.616	4.8128472	7.448454	5.9587632	51.20525646	-0.67036086	0.9167328
1.22	122	-0.05	-0.717	-0.694	7.2765666	9.5111028	5.156622	51.27401142	-0.65317212	1.02559482
1.23	123	-0.05	-0.735	-0.657	13.750992	9.2246238	4.297185	51.41152134	-0.6302538	1.12299768
1.24	124	-0.046	-0.76	-0.608	16.329303	9.453807	3.2085648	51.57767916	-0.59587632	1.22040054
1.25	125	-0.031	-0.763	-0.535	18.048177	9.8548776	2.4064236	51.7667553	-0.55576926	1.31207382
1.26	126	-0.004	-0.75	-0.507	18.3919518	8.880849	1.8907614	51.95010186	-0.5156622	1.39801752
1.27	127	0.012	-0.723	-0.53	18.5638392	6.7609044	1.718874	52.139178	-0.4870143	1.4610429
1.28	128	0.018	-0.7	-0.472	19.767051	4.010706	1.718874	52.33398372	-0.47555514	1.50687954
1.29	129	0.003	-0.685	-0.535	20.6837838	2.291832	1.718874	52.54597818	-0.47555514	1.53552744
1.3	130	-0.008	-0.686	-0.573	23.3193906	2.005353	1.6615782	52.77516138	-0.46982556	1.56417534
1.31	131	-0.019	-0.714	-0.552	26.7571386	1.8334656	0.9740286	53.04445164	-0.46409598	1.58709366
1.32	132	-0.02	-0.75	-0.583	28.2468294	2.1772404	-0.572958	53.33093064	-0.44690724	1.6042824
1.33	133	-0.012	-0.776	-0.564	29.220858	2.4637194	-2.7501984	53.6288688	-0.40680018	1.61001198
1.34	134	0.001	-0.78	-0.519	28.6479	1.9480572	-4.4117766	53.92107738	-0.35523396	1.59855282
1.35	135	0.018	-0.762	-0.516	27.7311672	1.8334656	-5.0420304	54.2018268	-0.29220858	1.58709366
1.36	136	0.029	-0.734	-0.477	26.2414764	1.145916	-5.0420304	54.46538748	-0.24637194	1.56417534
1.37	137	0.024	-0.707	-0.484	24.923673	0.0572958	-4.4117766	54.717489	-0.20626488	1.54125702
1.38	138	0.01	-0.69	-0.502	23.9496444	-0.6302538	-3.3804522	54.96386094	-0.17761698	1.5183387
1.39	139	-0.001	-0.692	-0.496	22.345362	-1.145916	-2.5210152	55.19304414	-0.16042824	1.49542038
1.4	140	-0.012	-0.704	-0.511	21.2567418	-2.0626488	-2.1772404	55.39930902	-0.14896908	1.46677248
1.41	141	-0.012	-0.721	-0.502	20.1108258	-2.291832	-2.4064236	55.6055739	-0.1432395	1.43812458
1.42	142	-0.008	-0.734	-0.482	19.194093	-3.2658606	-2.8074942	55.80037962	-0.13178034	1.39228794
1.43	143	0.004	-0.75	-0.486	18.1054728	-3.4950438	-3.2658606	55.98372618	-0.12032118	1.3464513
1.44	144	0.014	-0.763	-0.447	16.615782	-3.4950438	-3.4950438	56.15561358	-0.10886202	1.30061466
1.45	145	0.009	-0.77	-0.461	14.7250206	-3.2658606	-3.2085648	56.31031224	-0.09740286	1.25477802
1.46	146	-0.005	-0.77	-0.443	13.3499214	-2.9793816	-2.1199446	56.44209258	-0.09167328	1.22040054
1.47	147	-0.017	-0.77	-0.425	12.0894138	-2.1772404	-0.9167328	56.56814334	-0.09740286	1.19748222
1.48	148	-0.024	-0.759	-0.428	10.886202	-1.8907614	0.1718874	56.67700536	-0.10886202	1.18029348
1.49	149	-0.027	-0.74	-0.381	10.9434978	-2.2345362	1.432395	56.79159696	-0.13178034	1.16883432
1.5	150	-0.03	-0.738	-0.437	10.4278356	-3.0939732	2.4064236	56.90045898	-0.1718874	1.15737516
1.51	151	-0.035	-0.746	-0.425	10.1986524	-3.151269	2.9220858	57.00359142	-0.21199446	1.145916
1.52	152	-0.038	-0.767	-0.372	9.1100322	-2.6929026	2.9220858	57.0952647	-0.24637194	1.14018642
1.53	153	-0.032	-0.779	-0.432	7.448454	-1.3750992	2.2345362	57.16974924	-0.27501984	1.14018642
1.54	154	-0.02	-0.785	-0.393	7.3338624	-0.5156622	1.5469866	57.24996336	-0.286479	1.145916
1.55	155	-0.015	-0.79	-0.377	7.1046792	0	0.7448454	57.34163664	-0.29793816	1.15164558
1.56	156	-0.013	-0.794	-0.449	5.7868758	1.145916	0.286479	57.39893244	-0.29220858	1.16310474
1.57	157	-0.013	-0.812	-0.437	6.4744254	2.1199446	0.3437748	57.46195782	-0.286479	1.18029348
1.58	158	-0.013	-0.84	-0.458	5.8441716	3.0939732	0.2291832	57.5249832	-0.26929026	1.20894138
1.59	159	-0.018	-0.858	-0.472	5.6722842	3.4950438	0.1718874	57.582279	-0.25210152	1.24331886
1.6	160	-0.027	-0.869	-0.465	5.443101	3.5523396	0.3437748	57.65676354	-0.25210152	1.27196676
1.61	161	-0.04	-0.853	-0.5	4.9847346	3.2658606	0.572958	57.70832976	-0.24064236	1.30634424
1.62	162	-0.044	-0.835	-0.468	4.3544808	4.010706	0.572958	57.7541664	-0.22345362	1.34072172
1.63	163	-0.045	-0.819	-0.469	1.3178034	6.589017	0	57.76562556	-0.18907614	1.39801752
1.64	164	-0.04	-0.8	-0.51	-0.859437	9.3965112	-0.5156622	57.7541664	-0.13750992	1.47823164
1.65	165	-0.043	-0.796	-0.469	-1.3750992	10.8289062	-0.6875496	57.74270724	-0.09167328	1.56417534
1.66	166	-0.055	-0.799	-0.493	-2.578311	11.8029348	-0.4583664	57.71405934	-0.0286479	1.6615782
1.67	167	-0.067	-0.807	-0.487	-2.7501984	13.178034	0.2291832	57.68541144	0.0286479	1.7761698
1.68	168	-0.077	-0.821	-0.447	-3.437748	14.0947668	0.9740286	57.64530438	0.09167328	1.90222056
1.69	169	-0.076	-0.818	-0.485	-5.443101	15.469866	1.3178034	57.58800858	0.16042824	2.03973048
1.7	170	-0.06	-0.807	-0.476	-6.7036086	17.1314442	1.2605076	57.5249832	0.22345362	2.19442914
1.71	171	-0.043	-0.796	-0.44	-8.7662574	18.2200644	0.6302538	57.43330992	0.30939732	2.3491278
1.72	172	-0.019	-0.775	-0.495	-10.5424272	19.9389384	0.2291832	57.3244479	0.40680018	2.5210152
1.73	173	0.003	-0.747	-0.463	-9.9694692	20.5118964	0.5156622	57.22131546	0.50420304	2.6929026
1.74	174	0.021	-0.721	-0.438	-9.3965112	19.4232762	1.145916	57.1239126	0.59587632	2.86479
1.75	175	0.032	-0.696	-0.46	-8.2505952	19.1367972	2.0626488	57.0379689	0.67609044	3.0366774
1.76	176	0.035	-0.683	-0.425	-6.589017	17.3606274	3.6669312	56.96921394	0.73338624	3.20283522
1.77	177	0.028	-0.683	-0.403	-5.8441716	16.6730778	5.0420304	56.91191814	0.77922288	3.37472262
1.78	178	0.031	-0.686	-0.405	-4.9847346	15.2979786	5.72958	56.86035192	0.80787078	3.53515086
1.79	179	0.02	-0.685	-0.367	-4.010706	12.2613012	5.156622	56.82024486	0.8307891	3.66120162
1.8	180	0.023	-0.68	-0.383	-3.2658606	11.1153852	3.8961144	56.78586738	0.859437	3.77579322
1.81	181	0.035	-0.672	-0.393	-2.291832	9.9694692	2.4064236	56.76294906	0.8880849	3.87319608
1.82	182	0.048	-0.665	-0.334	-0.6302538	7.1046792	0.7448454	56.75721948	0.9167328	3.94195104
1.83	183	0.061	-0.667	-0.337	0.859437	5.7868758	-0.859437	56.76867864	0.95683986	3.9820581
1.84	184	0.074	-0.677	-0.32	3.9534102	6.016059	-2.005353	56.8087857	1.00840608	4.02216516
1.85	185	0.061	-0.705	-0.266	6.2452422	6.016059	-2.005353	56.8947294	1.0599723	4.06227222
1.86	186	0.03	-0.732	-0.281	7.7922288	5.6722842	-0.8021412	56.96921394	1.10007936	4.10810886
1.87	187	-0.009	-0.755	-0.28	8.9381448	5.2139178	0.0572958	57.06088722	1.12872726	4.1539455
1.88	188	-0.038	-0.777	-0.292	9.6829902	4.583664	0.4010706	57.16401966	1.145916	4.19405256
1.89	189	-0.045	-0.795	-0.302	9.9121734	3.437748	-0.2291832	57.26142252	1.16883432	4.22270046
1.9	190	-0.026	-0.814	-0.322	9.7975818	2.6929026	-1.6615782	57.39893244	1.19175264	4.2398892
1.91	191	0.011	-0.837	-0.326	10.9434978	3.3804522	-3.3231564	57.51352404	1.23758928	4.25134836
1.92	192	0.056	-0.857	-0.308	12.1467096	3.4950438	-4.4690724	57.63384522	1.29488508	4.25707794
1.93	193	0.096	-0.875	-0.295	13.6936962	4.3544808	-4.583664	57.77135514	1.35791046	4.2685371
1.94	194	0.107	-0.891	-0.286	15.2979786	5.9014674	-4.4117766	57.9260538	1.42666542	4.297185
1.95	195	0.093	-0.913	-0.244	15.2979786	6.8182002	-4.5263682	58.13804826	1.5183387	4.33156248
1.96	196	0.062	-0.936	-0.26	14.037471	6.8182002	-4.297185	58.28128776	1.58709366	4.37166954
1.97	197	0.026	-0.957	-0.241	12.605076	5.8441716	-3.437748	58.4130681	1.65011904	4.40031744
1.98	198	-0.003	-0.979	-0.235	10.9434978	4.9847346	-1.8907614	58.52193012	1.6902261	4.43469492
1.99	199	-0.014	-1	-0.215	9.3965112	3.7815228	-0.1145916	58.61933298	1.71314442	4.4690724
2	200	-0.017	-1.021	-0.188	7.8495246	2.5210152	2.005353	58.84851618	1.6902261	4.50344988
2.01	201	-0.004	-1.026	-0.211	4.870143	2.2345362	3.4950438	58.9000824	1.67303736	4.53782736
2.02	202	-0.003	-1.014	-0.203	2.005353	2.86479	4.010706	58.91727114	1.65584862	4.583664
2.03	203	0.006	-0.999	-0.198	-1.2605076	4.7555514	3.3804522	58.90581198	1.65011904	4.6409598
2.04	204	0.009	-0.978	-0.184	-4.010706	5.9014674	2.1772404	58.86570492	1.65584862	4.70398518
2.05	205	0.006	-0.954	-0.163	-6.6463128	6.875496	0.9167328	58.91727114	1.67876694	4.76701056
2.06	206	0.017	-0.917	-0.156	-10.1986524	7.2192708	0.286479	58.8141387	1.71314442	4.83003594
2.07	207	0.03	-0.862	-0.153	-13.8655836	6.6463128	0.1718874	58.6708992	1.74179232	4.88733174
2.08	208	0.046	-0.795	-0.131	-16.5584862	6.016059	0.7448454	58.50474138	1.75898106	4.94462754
2.09	209	0.075	-0.722	-0.111	-19.4232762	5.156622	1.8334656	58.30993566	1.77044022	4.99619376
2.1	210	0.1	-0.641	-0.102	-23.491278	3.2085648	3.437748	58.09221162	1.75898106	5.0420304
2.11	211	0.111	-0.552	-0.087	-25.6112226	0.572958	4.9847346	57.82865094	1.718874	5.0706783
2.12	212	0.117	-0.467	-0.068	-26.8717302	-2.1199446	6.3598338	57.55936068	1.65011904	5.08786704
2.13	213	0.107	-0.379	-0.049	-26.8717302	-4.6409598	7.6203414	57.28434084	1.55844576	5.08786704
2.14	214	0.086	-0.292	-0.035	-25.7258142	-6.4171296	7.6203414	57.02650974	1.45531332	5.0706783
2.15	215	0.061	-0.212	-0.019	-21.5432208	-8.2505952	6.3598338	56.81451528	1.36364004	5.03630082
2.16	216	0.032	-0.147	0.004	-16.7876694	-8.5370742	3.8961144	56.64262788	1.28342592	4.9847346
2.17	217	0.007	-0.089	0.043	-17.3033316	-7.3338624	1.432395	56.47074048	1.2318597	4.9274388
2.18	218	-0.056	-0.043	0.09	-27.0436176	-5.5003968	-0.859437	56.18999106	1.2032118	4.87587258
2.19	219	-0.1	0.028	0.001	-33.9764094	-5.2139178	-1.0313244	55.84621626	1.18029348	4.82430636
2.2	220	-0.119	0.068	-0.15	-33.1169724	-5.3858052	1.3178034	55.49671188	1.12872726	4.7841993
2.21	221	-0.115	0.055	-0.288	-33.3461556	-5.5003968	4.9274388	55.15866666	1.05424272	4.76701056
2.22	222	-0.132	-0.042	-0.287	-37.0130868	-10.7143146	6.4171296	54.78051438	0.93965112	4.71544434
2.23	223	-0.147	-0.207	-0.26	-49.847346	-15.0114996	4.1825934	54.27631134	0.81360036	4.6123119
2.24	224	-0.168	-0.394	-0.168	-61.1919144	-9.5683986	-0.4583664	53.65178712	0.75630456	4.5263682
2.25	225	-0.213	-0.644	-0.283	-78.0941754	8.5370742	-6.9327918	52.86683466	0.83651868	4.5550161
2.26	226	-0.176	-0.839	-0.378	-100.3249458	32.4867186	-13.8655836	51.84696942	1.12299768	4.7269035
2.27	227	-0.193	-1.091	-0.387	-115.5083328	45.7793442	-21.8869956	50.6781351	1.5469866	4.94462754
2.28	228	-0.318	-1.383	-0.492	-134.5305384	53.2277982	-29.9084076	49.30876548	2.08556712	5.16235158
2.29	229	-0.481	-1.645	-0.608	-152.5787154	62.6243094	-33.5753388	47.76177888	2.71582092	5.4144531
2.3	230	-0.593	-1.846	-0.558	-162.8919594	73.2240324	-33.804522	46.11738942	3.41482968	5.72385042
2.31	231	-0.577	-1.935	-0.565	-169.9966386	84.1102344	-32.4867186	44.404245	4.18832298	6.09627312
2.32	232	-0.381	-1.822	-0.53	-170.0539344	90.8711388	-32.8877892	42.69683016	5.02484166	6.49734372
2.33	233	-0.127	-1.568	-0.422	-172.8041328	96.8871978	-35.2942128	40.966497	5.9301153	6.89268474
2.34	234	-0.012	-1.294	-0.307	-176.2418808	103.3616232	-33.6326346	39.21324552	6.88695516	7.31667366
2.35	235	0.063	-1.007	-0.096	-178.5337128	96.9444936	-30.2521824	37.45426446	7.78649922	7.70055552
2.36	236	0.132	-0.679	0.201	-190.0501686	87.089616	-29.1062664	35.55777348	8.60582916	8.00422326
2.37	237	0.243	-0.257	0.364	-202.7125404	83.2507974	-29.7365202	33.52377258	9.41369994	8.2505952
2.38	238	0.405	0.245	0.295	-203.8584564	77.635809	-35.3515086	31.46685336	10.21011156	8.38810512
2.39	239	0.492	0.584	0.373	-204.3168228	64.6869582	-46.982556	29.37555666	10.96068654	8.32507974
2.4	240	0.439	0.943	0.321	-211.8225726	59.1292656	-61.1346186	27.15247962	11.73417984	8.0787078
2.41	241	0.433	1.201	0.303	-211.707981	58.7854908	-72.1354122	24.91794342	12.53632104	7.70055552
2.42	242	0.447	1.175	0.173	-194.0608746	47.1544434	-78.0941754	22.82091714	13.24678896	7.18489332
2.43	243	0.354	0.825	0	-176.6429514	31.6272816	-77.0055552	20.8843191	13.79109906	6.59474658
2.44	244	0.226	0.569	-0.072	-171.5436252	10.026765	-75.6877518	18.97636896	14.1234147	5.90719698
2.45	245	-0.275	0.391	-1.118	-179.1066708	-14.8396122	-72.0781164	16.97101596	14.1807105	5.16235158
2.46	246	0.264	0.567	-2.529	-216.1770534	-38.4454818	-68.182002	14.59324026	13.97444562	4.38885828
2.47	247	0.924	1.235	-3.869	-233.1366102	-55.863405	-97.5174516	11.96909262	13.63067082	3.28304934
2.48	248	3.384	2.344	-3.996	-218.010519	-62.452422	-160.141761	9.36213372	13.29835518	1.55844576
2.49	249	1.084	1.507	-3.996	-158.422887	-68.2965936	-82.219473	7.54585686	12.73685634	0.61879464
2.5	250	-0.236	1.775	-3.996	-55.290447	-37.7579322	-43.7166954	6.88122558	12.41599986	0.12032118
2.51	251	0.212	2.525	-3.996	-25.8977016	-30.3094782	-42.7426668	6.52026204	12.16962792	-0.34950438
2.52	252	0.994	2.193	-3.623	-32.658606	-2.9793816	-21.5432208	6.14210976	12.15816876	-0.56722842
2.53	253	0.61	1.273	-2.472	-39.7632852	19.6524594	17.1314442	5.78114622	12.33005616	-0.36669312
2.54	254	0.654	0.626	-1.588	-43.831287	39.9351726	42.2270046	5.43737142	12.67383096	0.10886202
2.55	255	0.846	-0.07	-1.054	-31.51269	37.7579322	58.5563076	5.25975444	13.00041702	0.75630456
2.56	256	0.742	-0.461	-0.749	-17.761698	30.4813656	58.728195	5.21964738	13.24678896	1.38655836
2.57	257	0.479	-0.552	-0.644	2.291832	16.4438946	38.6173692	5.33423898	13.37283972	1.79908812
2.58	258	0.459	-0.292	-0.637	23.8923486	-4.9847346	9.9121734	5.60352924	13.31554392	1.89649098
2.59	259	0.494	0.105	-0.583	13.5791046	-13.5791046	-2.9793816	5.72958	13.18376358	1.84492476
2.6	260	0.432	0.343	-0.521	3.4950438	-21.6005166	-5.2139178	5.68947294	13.01187618	1.75325148
2.61	261	0.276	0.407	-0.476	4.583664	-22.5172494	0.1718874	5.73530958	12.78842256	1.72460358
2.62	262	0.131	0.337	-0.472	8.7662574	-25.4393352	5.6722842	5.83271244	12.53632104	1.7475219
2.63	263	-0.01	0.208	-0.525	13.5791046	-25.9549974	7.7922288	5.98168152	12.27276036	1.79335854
2.64	264	-0.069	0.122	-0.569	12.1467096	-23.8923486	7.2765666	6.11919144	12.032118	1.8334656
2.65	265	-0.085	0.136	-0.623	9.5111028	-20.1108258	7.161975	6.20513514	11.80866438	1.87357266
2.66	266	-0.079	0.138	-0.649	4.9847346	-11.1153852	6.3598338	6.26243094	11.69407278	1.92513888
2.67	267	-0.05	0.064	-0.656	-4.297185	-8.7089616	2.4064236	6.22232388	11.6023995	1.93659804
2.68	268	0.033	0.007	-0.715	-14.7823164	-8.9954406	-1.4896908	6.0733548	11.5164558	1.90795014
2.69	269	0.128	0.031	-0.765	-15.4125702	-5.443101	-2.4064236	5.90719698	11.46488958	1.87930224
2.7	270	0.205	0.066	-0.76	-17.5325148	-5.72958	-3.3231564	5.69520252	11.41905294	1.8334656
2.71	271	0.22	0.124	-0.822	-22.4599536	-4.1252976	-5.2139178	5.45456016	11.37894588	1.7761698
2.72	272	0.211	0.171	-0.928	-23.1475032	2.86479	-6.302538	5.20818822	11.40759378	1.718874
2.73	273	0.174	0.183	-1.005	-19.4232762	5.3285094	-5.2712136	5.00192334	11.46488958	1.67303736
2.74	274	0.142	0.157	-1.051	-16.7303736	6.1306506	-3.7815228	4.82430636	11.52791496	1.63865988
2.75	275	0.179	0.189	-1.106	-16.1001198	4.4117766	-1.6615782	4.59512316	11.56229244	1.62147114
2.76	276	0.212	0.265	-1.12	-9.5683986	-0.7448454	1.5469866	4.50344988	11.55083328	1.63865988
2.77	277	0.228	0.304	-1.056	-3.6096354	-5.8441716	6.5317212	4.48053156	11.4878079	1.69595568
2.78	278	0.231	0.321	-1.041	-0.4010706	-11.3445684	12.4331886	4.4977203	11.36748672	1.81054728
2.79	279	0.253	0.326	-1.106	3.7815228	-14.7823164	17.3606274	4.57220484	11.20705848	1.97097552
2.8	280	0.283	0.311	-1.177	9.9694692	-18.5065434	19.9389384	4.68679644	11.01225276	2.14286292
2.81	281	0.265	0.252	-1.107	17.3033316	-24.4080108	19.4232762	4.8987909	10.75442166	2.31475032
2.82	282	0.244	0.133	-1.039	17.0168526	-21.6005166	17.4179232	5.0993262	10.53096804	2.4637194
2.83	283	0.173	0.008	-0.972	12.5477802	-18.2773602	14.32395	5.25402486	10.33616232	2.58404058
2.84	284	0.088	-0.073	-0.949	10.3705398	-12.1467096	10.313244	5.37434604	10.21011156	2.66998428
2.85	285	0.006	-0.136	-0.955	8.4797784	-3.8388186	6.4744254	5.48893764	10.06687206	2.73873924
2.86	286	-0.017	-0.168	-0.96	9.0527364	4.8128472	2.5210152	5.5863405	10.1127087	2.76738714
2.87	287	-0.02	-0.206	-0.905	13.1207382	11.745639	-0.8021412	5.71812084	10.2273003	2.77311672
2.88	288	0.031	-0.225	-0.875	15.8709366	15.6417534	-3.437748	5.8728195	10.38772854	2.76165756
2.89	289	0.085	-0.218	-0.903	15.5844576	17.8762896	-5.9587632	6.02178858	10.5710751	2.7215505
2.9	290	0.208	-0.189	-0.949	16.7303736	18.621135	-5.72958	6.19367598	10.7716104	2.68717302
2.91	291	0.306	-0.127	-0.981	12.032118	17.9335854	-5.8441716	6.302538	10.95495696	2.65279554
2.92	292	0.37	-0.046	-0.98	5.3858052	13.9801752	-7.161975	6.34837464	11.10392604	2.60122932
2.93	293	0.364	0.019	-0.979	1.6615782	6.016059	-7.6776372	6.34837464	11.172681	2.53247436
2.94	294	0.341	0.054	-0.918	-2.578311	-2.6929026	-6.8182002	6.30826758	11.14976268	2.45798982
2.95	295	0.322	0.08	-0.925	-5.443101	-10.6570188	-4.2398892	6.18221682	11.08100772	2.38923486
2.96	296	0.274	0.058	-0.963	-2.4637194	-17.0168526	0.1718874	6.15356892	10.9148499	2.37204612
2.97	297	0.195	-0.013	-0.913	4.0680018	-17.4179232	5.72958	6.20513514	10.73723292	2.40069402
2.98	298	0.115	-0.087	-0.848	9.1100322	-9.740286	9.9121734	6.31399716	10.63410048	2.48663772
2.99	299	0.08	-0.118	-0.828	8.4797784	-3.0939732	10.599723	6.4171296	10.59399342	2.58977016
3	300	0.074	-0.125	-0.865	7.0473834	2.7501984	10.1986524	6.50880288	10.58253426	2.69863218
3.01	301	0.127	-0.13	-0.953	4.2398892	9.8548776	10.9434978	6.57755784	10.66274838	2.81895336
3.02	302	0.194	-0.123	-1.012	1.5469866	15.3552744	13.464513	6.6176649	10.8002583	2.9793816
3.03	303	0.237	-0.109	-1.005	1.0886202	15.0114996	17.0168526	6.66350154	10.92630906	3.17418732
3.04	304	0.249	-0.113	-0.972	2.8074942	9.453807	20.2827132	6.7322565	10.99506402	3.39191136
3.05	305	0.254	-0.142	-0.951	3.7815228	3.0366774	22.4026578	6.8182002	11.01225276	3.62109456
3.06	306	0.234	-0.176	-0.915	0.8021412	-2.9793816	23.204799	6.875496	10.95495696	3.85027776
3.07	307	0.208	-0.201	-0.955	-2.6929026	-4.9274388	21.9442914	6.88695516	10.88047242	4.06227222
3.08	308	0.137	-0.212	-0.906	-0.1145916	-10.886202	19.5378678	6.92133264	10.74869208	4.2398892
3.09	309	0.079	-0.255	-0.859	6.4171296	-7.734933	14.7250206	7.01300592	10.6570188	4.37739912
3.1	310	0.063	-0.279	-0.855	4.1825934	2.86479	9.0527364	7.1333271	10.6283709	4.48053156
3.11	311	0.069	-0.276	-0.91	-4.1825934	13.3499214	4.870143	7.1046792	10.75442166	4.5550161
3.12	312	0.089	-0.268	-0.961	-8.307891	16.6730778	3.6096354	7.03019466	10.9148499	4.6123119
3.13	313	0.114	-0.27	-0.968	-7.3911582	12.6623718	2.9793816	6.9614397	11.0294415	4.66387812
3.14	314	0.103	-0.294	-0.933	-4.7555514	7.734933	1.145916	6.91560306	11.10392604	4.68679644
3.15	315	0.099	-0.282	-0.927	-4.6982556	9.167328	-0.9740286	6.92706222	11.15549226	4.70398518
3.16	316	0.1	-0.238	-0.941	-5.156622	8.9381448	-2.6929026	6.86976642	11.24716554	4.69252602
3.17	317	0.115	-0.178	-0.951	-4.9847346	5.2712136	-4.5263682	6.81247062	11.30446134	4.65241896
3.18	318	0.13	-0.126	-0.949	-3.4950438	0.8021412	-6.8182002	6.7609044	11.3159205	4.583664
3.19	319	0.15	-0.093	-0.948	-1.4896908	-1.8907614	-8.6516658	6.72652692	11.31019092	4.4977203
3.2	320	0.167	-0.075	-0.954	-0.7448454	-3.0939732	-9.740286	6.66923112	11.27581344	4.38885828
3.21	321	0.199	-0.038	-0.964	-0.2291832	-2.5210152	-11.0580894	6.64058322	11.26435428	4.27426668
3.22	322	0.225	-0.017	-0.97	2.0626488	0	-13.0061466	6.64058322	11.28154302	4.14248634
3.23	323	0.235	0.017	-0.977	4.2398892	2.1199446	-14.2666542	6.65204238	11.32165008	3.99924684
3.24	324	0.242	0.044	-0.98	6.6463128	3.5523396	-15.183387	6.69214944	11.3732163	3.85027776
3.25	325	0.256	0.057	-0.989	7.7922288	4.4690724	-15.9282324	6.69214944	11.44770084	3.68984952
3.26	326	0.277	0.047	-0.998	8.307891	4.8128472	-16.329303	6.74371566	11.5164558	3.52942128
3.27	327	0.298	0.034	-1.01	7.448454	4.583664	-16.5011904	6.7895523	11.58521076	3.36899304
3.28	328	0.314	0.024	-1.027	5.3285094	3.9534102	-15.9282324	6.81247062	11.64250656	3.21429438
3.29	329	0.319	0.014	-1.048	2.86479	2.3491278	-14.6677248	6.80674104	11.68261362	3.07105488
3.3	330	0.311	0.006	-1.049	0.5156622	-1.3750992	-12.4904844	6.73798608	11.71126152	2.93354496
3.31	331	0.291	-0.003	-1.035	-1.2032118	-4.0680018	-10.2559482	6.7036086	11.68261362	2.82468294
3.32	332	0.273	-0.006	-1.015	-2.1199446	-5.3858052	-8.021412	6.66350154	11.64250656	2.73300966
3.33	333	0.258	0	-0.994	-2.1772404	-5.443101	-6.1306506	6.62912406	11.59094034	2.6642547
3.34	334	0.245	0.013	-0.97	-1.3178034	-3.7815228	-4.5263682	6.60620574	11.56229244	2.61268848
3.35	335	0.239	0.032	-0.957	-0.859437	-1.0886202	-3.151269	6.26243094	11.61385866	2.5210152
3.36	336	0.238	0.051	-0.952	-1.0313244	1.4896908	-1.6615782	6.2452422	11.62531782	2.50955604
3.37	337	0.241	0.06	-0.953	-1.2605076	2.8074942	0	6.23378304	11.65396572	2.51528562
3.38	338	0.238	0.051	-0.956	-1.432395	1.8334656	2.0626488	6.22232388	11.67115446	2.53820394
3.39	339	0.229	0.026	-0.954	-1.145916	-0.6302538	3.6669312	6.22232388	11.6596953	2.57258142
3.4	340	0.213	-0.002	-0.952	-0.6875496	-3.0366774	4.8128472	6.1306506	11.62531782	2.60122932
3.41	341	0.19	-0.028	-0.955	0	-5.0993262	5.5576926	6.14210976	11.56802202	2.65279554
3.42	342	0.162	-0.048	-0.959	0.4010706	-6.7609044	6.1306506	6.1592985	11.49926706	2.70436176
3.43	343	0.139	-0.061	-0.964	1.0313244	-7.734933	6.4171296	6.18221682	11.41332336	2.76165756
3.44	344	0.12	-0.075	-0.969	1.3178034	-7.8495246	6.589017	6.20513514	11.32737966	2.81322378
3.45	345	0.108	-0.091	-0.974	1.3178034	-7.2192708	6.4744254	6.21086472	11.2013289	2.87051958
3.46	346	0.106	-0.101	-0.983	0.9740286	-5.5003968	5.7868758	6.23378304	11.13830352	2.9220858
3.47	347	0.109	-0.109	-0.989	0.8021412	-3.5523396	5.156622	6.25097178	11.09819646	2.96792244
3.48	348	0.113	-0.114	-0.991	0.4583664	-1.7761698	4.3544808	6.26816052	11.07527814	3.0080295
3.49	349	0.122	-0.117	-0.991	0.4010706	0.1718874	3.724227	6.27961968	11.07527814	3.04813656
3.5	350	0.131	-0.12	-0.99	0.4583664	1.9480572	2.9220858	6.2738901	11.00652318	3.07678446
3.51	351	0.144	-0.122	-0.987	0.1718874	3.3804522	2.005353	6.28534926	11.04090066	3.10543236
3.52	352	0.156	-0.121	-0.983	-0.3437748	4.2398892	1.0886202	6.27961968	11.08100772	3.1226211
3.53	353	0.167	-0.114	-0.981	-0.9740286	4.7555514	0.1145916	6.2738901	11.12684436	3.12835068
3.54	354	0.173	-0.106	-0.979	-0.9167328	4.6409598	-0.9167328	6.26243094	11.172681	3.1226211
3.55	355	0.177	-0.097	-0.978	-0.859437	4.4117766	-1.8334656	6.21086472	11.18986974	3.10543236
3.56	356	0.176	-0.089	-0.97	-0.8021412	4.010706	-2.4637194	6.19940556	11.23570638	3.08824362
3.57	357	0.175	-0.079	-0.962	-0.859437	3.724227	-2.86479	6.18221682	11.27581344	3.0653253
3.58	358	0.177	-0.069	-0.959	-0.859437	3.437748	-2.9793816	6.17075766	11.31019092	3.0366774
3.59	359	0.179	-0.062	-0.956	-0.572958	3.0939732	-2.9220858	6.1592985	11.3445684	3.01375908
3.6	360	0.184	-0.052	-0.957	-0.286479	2.6356068	-2.6929026	6.0447069	11.35029798	2.97365202
3.61	361	0.192	-0.042	-0.962	-0.0572958	2.0626488	-2.2345362	6.03897732	11.3732163	2.9507337
3.62	362	0.196	-0.036	-0.966	0	1.145916	-1.4896908	6.03324774	11.38467546	2.93927454
3.63	363	0.201	-0.029	-0.967	0.0572958	0.4583664	-0.859437	6.03324774	11.39040504	2.92781538
3.64	364	0.205	-0.027	-0.968	0.1145916	0	-0.4583664	6.03324774	11.39040504	2.9220858
3.65	365	0.207	-0.026	-0.97	0.1145916	-0.1145916	-0.1718874	4.82430636	11.41332336	2.71582092
3.66	366	0.209	-0.024	-0.974	0.286479	-0.0572958	0	4.83003594	11.41332336	2.71582092
3.67	367	0.21	-0.026	-0.978	0.572958	0.0572958	0.1145916	4.83576552	11.41332336	2.7215505
3.68	368	0.213	-0.029	-0.98	0.572958	0.6302538	0.1718874	4.8414951	11.41905294	2.7215505
3.69	369	0.217	-0.035	-0.982	0.4583664	1.2032118	0.286479	4.84722468	11.4305121	2.72728008
3.7	370	0.22	-0.04	-0.98	0.1718874	2.005353	0.1718874	4.68106686	11.4878079	2.69863218
3.71	371	0.224	-0.042	-0.98	-0.3437748	2.5210152	0.0572958	4.67533728	11.51072622	2.70436176
3.72	372	0.228	-0.04	-0.979	-0.572958	2.578311	0	4.6696077	11.53937412	2.71009134
3.73	373	0.229	-0.04	-0.978	-0.6875496	2.4064236	-0.0572958	4.66387812	11.56229244	2.71009134
3.74	374	0.231	-0.038	-0.976	-0.6875496	1.9480572	0.0572958	4.65814854	11.57948118	2.71582092
3.75	375	0.229	-0.042	-0.975	-0.5156622	1.718874	0.2291832	4.50344988	11.64250656	2.6929026
3.76	376	0.226	-0.047	-0.974	-0.286479	1.145916	0.1718874	4.4977203	11.65396572	2.6929026
3.77	377	0.223	-0.052	-0.971	-0.1718874	0.4010706	0.2291832	4.4977203	11.65396572	2.69863218
3.78	378	0.219	-0.056	-0.969	0	-0.3437748	0.1718874	4.4977203	11.65396572	2.69863218
3.79	379	0.216	-0.056	-0.966	0.1718874	-0.9740286	0.1145916	4.4977203	11.64250656	2.69863218
3.8	380	0.212	-0.057	-0.965	0.4010706	-1.2605076	0.1145916	4.3544808	11.64250656	2.66998428
3.81	381	0.209	-0.055	-0.965	0.4010706	-1.5469866	0	4.36021038	11.62531782	2.66998428
3.82	382	0.205	-0.057	-0.966	0.5156622	-1.5469866	0	4.36593996	11.60812908	2.66998428
3.83	383	0.2	-0.059	-0.967	0.572958	-1.6615782	-0.1145916	4.37166954	11.59094034	2.6642547
3.84	384	0.192	-0.06	-0.966	0.572958	-1.718874	-0.286479	4.37739912	11.5737516	2.65852512
3.85	385	0.186	-0.062	-0.967	0.572958	-1.6615782	-0.4010706	4.30864416	11.51072622	2.64133638
3.86	386	0.179	-0.063	-0.97	0.6302538	-1.718874	-0.5156622	4.31437374	11.49353748	2.6356068
3.87	387	0.177	-0.061	-0.973	0.5156622	-1.6615782	-0.572958	4.32010332	11.47634874	2.62414764
3.88	388	0.172	-0.059	-0.978	0.4010706	-1.6042824	-0.5156622	4.32010332	11.46488958	2.61841806
3.89	389	0.17	-0.059	-0.978	0.4583664	-1.4896908	-0.6875496	4.3258329	11.44770084	2.61268848
3.9	390	0.168	-0.058	-0.972	0.0572958	-1.3178034	-0.7448454	4.2112413	11.33310924	2.58404058
3.91	391	0.169	-0.056	-0.971	-0.286479	-1.3178034	-0.7448454	4.20551172	11.3159205	2.57258142
3.92	392	0.169	-0.056	-0.969	-0.3437748	-1.2605076	-0.8021412	4.19978214	11.30446134	2.56112226
3.93	393	0.172	-0.054	-0.969	-0.2291832	-0.9167328	-0.859437	4.19978214	11.29873176	2.55539268
3.94	394	0.175	-0.051	-0.974	-0.2291832	-0.3437748	-0.9740286	4.19405256	11.29300218	2.54393352
3.95	395	0.179	-0.048	-0.978	-0.1145916	0	-0.9740286	3.97632852	11.18414016	2.49809688
3.96	396	0.181	-0.046	-0.98	0	0.1718874	-1.0313244	3.97059894	11.18414016	2.48663772
3.97	397	0.182	-0.044	-0.979	0.1145916	0.2291832	-1.145916	3.97059894	11.18986974	2.47517856
3.98	398	0.183	-0.045	-0.977	0.4010706	0.3437748	-1.145916	3.97059894	11.18986974	2.4637194
3.99	399	0.185	-0.045	-0.976	0.4583664	0.5156622	-1.0886202	3.97632852	11.19559932	2.45226024
4	400	0.187	-0.043	-0.976	0.4583664	0.572958	-0.9167328	3.8388186	11.16695142	2.42361234
4.01	401	0.19	-0.041	-0.977	0.4010706	0.7448454	-0.6875496	3.8388186	11.172681	2.41215318
4.02	402	0.192	-0.042	-0.978	0.4010706	0.6302538	-0.4583664	3.84454818	11.17841058	2.41215318
4.03	403	0.195	-0.043	-0.98	0.2291832	0.5156622	-0.1718874	3.84454818	11.18414016	2.4064236
4.04	404	0.195	-0.044	-0.979	0.1145916	0.6875496	0	3.84454818	11.19559932	2.41215318
4.05	405	0.196	-0.045	-0.978	0.0572958	0.6302538	0.2291832	3.6096354	11.172681	2.37204612
4.06	406	0.198	-0.046	-0.974	0	0.5156622	0.4010706	3.6096354	11.17841058	2.3777757
4.07	407	0.199	-0.047	-0.971	0	0.286479	0.5156622	3.6096354	11.17841058	2.38350528
4.08	408	0.199	-0.05	-0.969	0	0.1718874	0.5156622	3.6096354	11.17841058	2.38923486
4.09	409	0.197	-0.053	-0.968	-0.0572958	0.1718874	0.5156622	3.6096354	11.18414016	2.39496444
4.1	410	0.196	-0.054	-0.968	-0.1145916	0.2291832	0.4583664	3.44920716	11.15549226	2.37204612
4.11	411	0.195	-0.053	-0.968	-0.0572958	0.286479	0.3437748	3.44920716	11.16122184	2.3777757
4.12	412	0.195	-0.052	-0.972	0	0.3437748	0.286479	3.44920716	11.16122184	2.3777757
4.13	413	0.195	-0.051	-0.973	0.2291832	0.4010706	0.2291832	3.44920716	11.16695142	2.38350528
4.14	414	0.194	-0.053	-0.972	0.4010706	0.286479	0.1145916	3.45493674	11.172681	2.38350528
4.15	415	0.194	-0.055	-0.971	0.3437748	0.286479	0	3.28304934	11.10392604	2.35485738
4.16	416	0.194	-0.056	-0.971	0.286479	0.2291832	-0.0572958	3.28877892	11.10965562	2.35485738
4.17	417	0.191	-0.055	-0.969	0.1145916	0.1145916	-0.1718874	3.28877892	11.10965562	2.35485738
4.18	418	0.192	-0.053	-0.972	0.1145916	0.1145916	-0.286479	3.28877892	11.10965562	2.3491278
4.19	419	0.191	-0.049	-0.975	0.286479	0.1145916	-0.3437748	3.2945085	11.1153852	2.3491278
4.2	420	0.191	-0.046	-0.975	0.6302538	0.1718874	-0.4010706	3.18564648	11.0867373	2.32620948
4.21	421	0.192	-0.047	-0.974	0.859437	0.1718874	-0.4583664	3.19137606	11.0867373	2.3204799
4.22	422	0.192	-0.049	-0.973	0.859437	0	-0.572958	3.20283522	11.0867373	2.31475032
4.23	423	0.192	-0.049	-0.973	0.8021412	-0.1718874	-0.6302538	3.2085648	11.0867373	2.30329116
4.24	424	0.191	-0.047	-0.973	0.6875496	-0.3437748	-0.6302538	3.21429438	11.0867373	2.29756158
4.25	425	0.189	-0.045	-0.973	0.6875496	-0.572958	-0.6875496	3.14553942	11.05235982	2.28037284
4.26	426	0.19	-0.043	-0.975	0.6875496	-0.4010706	-0.6302538	3.151269	11.05235982	2.26891368
4.27	427	0.19	-0.044	-0.975	0.8021412	-0.286479	-0.5156622	3.15699858	11.04663024	2.2631841
4.28	428	0.19	-0.046	-0.975	0.8021412	-0.1145916	-0.3437748	3.16272816	11.04663024	2.2631841
4.29	429	0.19	-0.048	-0.973	0.7448454	0	-0.286479	3.17418732	11.04663024	2.25745452
4.3	430	0.189	-0.049	-0.973	0.6875496	0.0572958	-0.3437748	3.07105488	11.00652318	2.2345362
4.31	431	0.191	-0.048	-0.972	0.572958	0	-0.2291832	3.07678446	11.01225276	2.2345362
4.32	432	0.191	-0.047	-0.972	0.4010706	0	-0.286479	3.07678446	11.01225276	2.22880662
4.33	433	0.189	-0.047	-0.973	0.4583664	-0.1145916	-0.1718874	3.08251404	11.00652318	2.22880662
4.34	434	0.189	-0.047	-0.972	0.4010706	-0.2291832	-0.1145916	3.08824362	11.00652318	2.22880662
4.35	435	0.188	-0.048	-0.973	0.4010706	-0.2291832	-0.0572958	2.9507337	10.9434978	2.20015872
4.36	436	0.186	-0.049	-0.974	0.4583664	-0.0572958	0	2.95646328	10.9434978	2.20015872
4.37	437	0.186	-0.05	-0.973	0.4010706	0	-0.0572958	2.95646328	10.9434978	2.20015872
4.38	438	0.186	-0.051	-0.973	0.3437748	0.0572958	-0.0572958	2.96219286	10.9434978	2.20015872
4.39	439	0.186	-0.051	-0.974	0.286479	0.0572958	-0.0572958	2.96219286	10.9434978	2.20015872
4.4	440	0.186	-0.05	-0.975	0.3437748	0.1145916	-0.0572958	2.8361421	10.886202	2.1772404
4.41	441	0.187	-0.048	-0.977	0.286479	0.1718874	-0.0572958	2.8361421	10.886202	2.1772404
4.42	442	0.188	-0.047	-0.98	0.286479	0.1145916	0.1145916	2.84187168	10.886202	2.1772404
4.43	443	0.189	-0.05	-0.978	0.4010706	0	0.0572958	2.84760126	10.886202	2.1772404
4.44	444	0.189	-0.053	-0.976	0.1718874	-0.0572958	0.1145916	2.84760126	10.886202	2.1772404
4.45	445	0.186	-0.054	-0.973	0.1145916	-0.1145916	0.0572958	2.65852512	10.76015124	2.1485925
4.46	446	0.185	-0.051	-0.97	0	-0.1145916	0	2.65852512	10.75442166	2.1485925
4.47	447	0.186	-0.048	-0.971	-0.1145916	-0.1145916	-0.0572958	2.65852512	10.75442166	2.1485925
4.48	448	0.187	-0.045	-0.975	-0.0572958	0	-0.0572958	2.65852512	10.75442166	2.14286292
4.49	449	0.187	-0.043	-0.979	0	0.0572958	-0.0572958	2.65852512	10.75442166	2.14286292
4.5	450	0.189	-0.046	-0.974	0.1145916	0.1718874	-0.0572958	2.4637194	10.70858502	2.11421502
4.51	451	0.188	-0.05	-0.967	-0.1718874	0.1145916	-0.0572958	2.45798982	10.7143146	2.11421502
4.52	452	0.188	-0.053	-0.965	-0.4583664	0	0.1145916	2.45226024	10.7143146	2.11421502
4.53	453	0.189	-0.051	-0.966	-0.4010706	-0.1145916	0.0572958	2.45226024	10.70858502	2.11421502
4.54	454	0.19	-0.047	-0.967	-0.5156622	-0.0572958	0.0572958	2.44653066	10.70858502	2.11421502
4.55	455	0.191	-0.045	-0.973	-0.572958	0	0.1718874	2.36631654	10.70285544	2.10275586
4.56	456	0.193	-0.044	-0.976	-0.4583664	0	0.2291832	2.36058696	10.70285544	2.10848544
4.57	457	0.192	-0.047	-0.978	-0.0572958	-0.0572958	0.2291832	2.36058696	10.70285544	2.10848544
4.58	458	0.191	-0.049	-0.978	0.1145916	-0.0572958	0.2291832	2.36631654	10.70285544	2.11421502
4.59	459	0.189	-0.05	-0.976	0.286479	-0.0572958	0.1718874	2.36631654	10.69712586	2.11421502
4.6	460	0.188	-0.049	-0.975	0.3437748	0	0.1145916	2.26891368	10.6570188	2.10275586
4.61	461	0.187	-0.047	-0.975	0.286479	0	0.0572958	2.27464326	10.6570188	2.10275586
4.62	462	0.187	-0.046	-0.977	0.286479	0	0	2.27464326	10.6570188	2.10275586
4.63	463	0.186	-0.046	-0.977	0.3437748	-0.0572958	-0.0572958	2.28037284	10.6570188	2.09702628
4.64	464	0.185	-0.047	-0.98	0.5156622	0.0572958	-0.0572958	2.28610242	10.6570188	2.09702628
4.65	465	0.186	-0.048	-0.98	0.572958	0.2291832	0	2.25172494	10.63410048	2.0912967
4.66	466	0.185	-0.046	-0.981	0.859437	0.4010706	-0.0572958	2.25745452	10.63983006	2.0912967
4.67	467	0.187	-0.047	-0.981	1.0886202	0.4010706	-0.1145916	2.26891368	10.64555964	2.0912967
4.68	468	0.186	-0.048	-0.978	1.0313244	0.3437748	-0.0572958	2.28037284	10.64555964	2.08556712
4.69	469	0.185	-0.049	-0.975	0.8021412	0.4010706	0	2.28610242	10.65128922	2.08556712
4.7	470	0.185	-0.049	-0.975	0.7448454	0.5156622	0	2.2631841	10.63983006	2.08556712
4.71	471	0.185	-0.048	-0.976	0.8021412	0.4583664	0	2.27464326	10.64555964	2.08556712
4.72	472	0.186	-0.045	-0.976	0.9167328	0.4010706	0	2.28610242	10.65128922	2.08556712
4.73	473	0.187	-0.046	-0.976	1.0886202	0.3437748	0.1145916	2.29756158	10.6570188	2.08556712
4.74	474	0.186	-0.05	-0.976	1.2032118	0.3437748	0.1145916	2.30902074	10.6570188	2.08556712
4.75	475	0.186	-0.052	-0.975	1.145916	0.4583664	0.1718874	2.30329116	10.65128922	2.08556712
4.76	476	0.186	-0.053	-0.971	0.9740286	0.4583664	0.1145916	2.31475032	10.6570188	2.08556712
4.77	477	0.187	-0.053	-0.972	0.9740286	0.3437748	0.1718874	2.32620948	10.66274838	2.0912967
4.78	478	0.186	-0.05	-0.972	0.9740286	0.3437748	0.1718874	2.33766864	10.66274838	2.0912967
4.79	479	0.187	-0.05	-0.972	1.0313244	0.2291832	0.2291832	2.3491278	10.66847796	2.09702628
4.8	480	0.185	-0.05	-0.973	1.0886202	0.1718874	0.1718874	2.33766864	10.6570188	2.0912967
4.81	481	0.185	-0.053	-0.972	1.145916	0.3437748	0.1718874	2.3491278	10.66274838	2.09702628
4.82	482	0.185	-0.055	-0.972	1.0886202	0.4583664	0.0572958	2.36058696	10.66847796	2.09702628
4.83	483	0.184	-0.054	-0.972	0.9740286	0.5156622	0	2.37204612	10.66847796	2.09702628
4.84	484	0.185	-0.052	-0.973	0.9740286	0.4583664	-0.0572958	2.38350528	10.67420754	2.09702628
4.85	485	0.185	-0.051	-0.977	1.145916	0.4583664	0	2.37204612	10.66847796	2.0912967
4.86	486	0.188	-0.049	-0.979	1.3750992	0.572958	0	2.38350528	10.67420754	2.0912967
4.87	487	0.188	-0.048	-0.981	1.4896908	0.7448454	0	2.40069402	10.67993712	2.0912967
4.88	488	0.19	-0.05	-0.982	1.6615782	0.7448454	0	2.41788276	10.69139628	2.0912967
4.89	489	0.191	-0.053	-0.98	1.6042824	0.4010706	0	2.4350715	10.69139628	2.0912967
4.9	490	0.19	-0.052	-0.974	1.3750992	0	0	2.42361234	10.67993712	2.0912967
4.91	491	0.189	-0.052	-0.968	1.2605076	-0.2291832	0	2.4350715	10.67993712	2.08556712
4.92	492	0.186	-0.052	-0.967	1.2605076	-0.2291832	0	2.45226024	10.67993712	2.08556712
4.93	493	0.185	-0.052	-0.976	1.6615782	-0.1145916	-0.0572958	2.46944898	10.67420754	2.08556712
4.94	494	0.186	-0.049	-0.992	2.2345362	-0.5156622	-0.2291832	2.48663772	10.66847796	2.07983754
4.95	495	0.189	-0.048	-0.99	2.291832	-1.2032118	-0.4583664	2.49809688	10.6570188	2.07410796
4.96	496	0.194	-0.049	-0.984	1.7761698	-1.3750992	-0.6302538	2.51528562	10.63983006	2.06837838
4.97	497	0.196	-0.052	-0.971	1.4896908	-1.8334656	-0.5156622	2.52674478	10.62264132	2.0626488
4.98	498	0.189	-0.06	-0.957	1.2032118	-2.3491278	-0.2291832	2.54393352	10.599723	2.05691922
4.99	499	0.184	-0.064	-0.953	1.0313244	-2.1772404	-0.1718874	2.5496631	10.57680468	2.05118964
5	500	0.181	-0.06	-0.957	1.0886202	-1.6042824	-0.1718874	2.55539268	10.55388636	2.04546006
5.01	501	0.179	-0.056	-0.961	1.3750992	-0.9740286	-0.286479	2.56685184	10.54815678	2.04546006
5.02	502	0.181	-0.051	-0.968	1.6042824	-0.1718874	-0.4010706	2.58404058	10.5424272	2.03973048
5.03	503	0.18	-0.051	-0.971	1.8907614	0.3437748	-0.5156622	2.60122932	10.54815678	2.0340009
5.04	504	0.181	-0.053	-0.975	1.7761698	0.8021412	-0.572958	2.61841806	10.55961594	2.02827132
5.05	505	0.181	-0.056	-0.978	1.6615782	0.7448454	-0.572958	2.62414764	10.55388636	2.02254174
5.06	506	0.184	-0.06	-0.978	1.5469866	0.286479	-0.5156622	2.6356068	10.55961594	2.01681216
5.07	507	0.185	-0.061	-0.977	1.4896908	0.0572958	-0.2291832	2.65279554	10.55961594	2.01108258
5.08	508	0.188	-0.061	-0.975	1.432395	-0.1718874	-0.0572958	2.66998428	10.55961594	2.01108258
5.09	509	0.188	-0.061	-0.972	1.2032118	-0.2291832	0	2.68144344	10.55388636	2.01108258
5.1	510	0.187	-0.059	-0.97	1.145916	-0.0572958	0.1145916	2.67571386	10.54815678	2.01108258
5.11	511	0.187	-0.059	-0.969	1.145916	0.2291832	0.1718874	2.68717302	10.54815678	2.01108258
5.12	512	0.182	-0.057	-0.968	0.9740286	0.9167328	0.1145916	2.69863218	10.55961594	2.01108258
5.13	513	0.178	-0.057	-0.963	0.8021412	1.3750992	0	2.70436176	10.5710751	2.01681216
5.14	514	0.177	-0.061	-0.96	0.286479	1.432395	0	2.71009134	10.58826384	2.01681216
5.15	515	0.174	-0.06	-0.961	0	0.859437	0.0572958	2.68144344	10.53669762	2.01108258
5.16	516	0.174	-0.06	-0.966	0.2291832	0.286479	0.1145916	2.68144344	10.53669762	2.01108258
5.17	517	0.176	-0.057	-0.971	0.2291832	0.1718874	0.1145916	2.68717302	10.5424272	2.01681216
5.18	518	0.177	-0.054	-0.98	0.2291832	0.4010706	0.1718874	2.68717302	10.54815678	2.01681216
5.19	519	0.178	-0.052	-0.986	0.5156622	0.5156622	0.1718874	2.6929026	10.55388636	2.01681216
5.2	520	0.179	-0.056	-0.983	0.6302538	0.6302538	0.2291832	2.68144344	10.52523846	2.01681216
5.21	521	0.179	-0.059	-0.979	0.572958	0.4010706	0.2291832	2.68717302	10.53096804	2.02254174
5.22	522	0.18	-0.061	-0.974	0.3437748	0.286479	0.1718874	2.6929026	10.53669762	2.02254174
5.23	523	0.182	-0.056	-0.971	0.286479	0.3437748	0.1718874	2.6929026	10.53669762	2.02254174
5.24	524	0.184	-0.054	-0.972	0.2291832	0.5156622	0.1145916	2.69863218	10.5424272	2.02827132
5.25	525	0.187	-0.053	-0.975	0.4010706	0.9167328	0.1145916	2.66998428	10.54815678	2.02254174
5.26	526	0.189	-0.055	-0.976	0.3437748	1.0886202	0	2.67571386	10.55961594	2.02827132
5.27	527	0.19	-0.059	-0.975	0.1718874	1.0886202	-0.0572958	2.67571386	10.5710751	2.02827132
5.28	528	0.19	-0.061	-0.973	0.0572958	0.9167328	0	2.67571386	10.58253426	2.02827132
5.29	529	0.189	-0.062	-0.97	0	0.6302538	0	2.67571386	10.58826384	2.02827132
5.3	530	0.187	-0.062	-0.97	-0.2291832	0.6302538	0.0572958	2.64706596	10.57680468	2.02254174
5.31	531	0.187	-0.059	-0.973	-0.1718874	0.572958	0.0572958	2.64706596	10.58253426	2.02254174
5.32	532	0.185	-0.056	-0.976	0.0572958	0.8021412	0.0572958	2.64706596	10.58826384	2.02827132
5.33	533	0.186	-0.056	-0.975	0.286479	0.9740286	0	2.65279554	10.599723	2.02827132
5.34	534	0.186	-0.056	-0.974	0.3437748	0.859437	0.0572958	2.65279554	10.61118216	2.02827132
5.35	535	0.187	-0.06	-0.972	0.286479	0.859437	0.1145916	2.64133638	10.60545258	2.02827132
5.36	536	0.185	-0.061	-0.973	0.286479	0.572958	0.1145916	2.64706596	10.61118216	2.02827132
5.37	537	0.185	-0.061	-0.973	0.4010706	0.286479	0.1145916	2.65279554	10.61118216	2.0340009
5.38	538	0.185	-0.059	-0.973	0.6302538	0	0	2.65852512	10.61118216	2.0340009
5.39	539	0.185	-0.06	-0.974	0.5156622	-0.1145916	0	2.6642547	10.61118216	2.02827132
5.4	540	0.184	-0.06	-0.974	0.1145916	-0.2291832	-0.1145916	2.61268848	10.53096804	2.01681216
5.41	541	0.183	-0.06	-0.976	0.1718874	-0.2291832	-0.0572958	2.61268848	10.53096804	2.01681216
