TimeStamp(s)	FrameCounter	AccX	AccY	AccZ	GyrX	GyrY	GyrZ	EulerX	EulerY	EulerZ
0.01	1	0.005	-0.993	0.228	-3.8961144	-0.1145916	0.4010706	101.0067658	0.34950438	-23.39387514
0.02	2	0.005	-1	0.235	-6.0733548	-0.2291832	0.4010706	100.9437404	0.34950438	-23.39387514
0.03	3	0.005	-1.002	0.236	-6.4744254	-0.2291832	0.286479	100.8749855	0.3437748	-23.39960472
0.04	4	0.003	-1	0.233	-6.875496	-0.2291832	0.1718874	100.8062305	0.3437748	-23.4053343
0.05	5	0	-0.996	0.231	-7.2765666	-0.1718874	0.2291832	100.7374756	0.33804522	-23.4053343
0.06	6	0.001	-0.99	0.23	-7.7922288	-0.1145916	0.2291832	100.6572614	0.33804522	-23.41106388
0.07	7	0	-0.988	0.228	-8.021412	-0.4010706	0.2291832	100.5770473	0.33231564	-23.41679346
0.08	8	0	-0.987	0.232	-8.307891	-0.5156622	0.3437748	100.4911036	0.33231564	-23.42252304
0.09	9	0.001	-0.987	0.234	-8.5370742	-0.6875496	0.4010706	100.4051599	0.32658606	-23.4339822
0.1	10	0	-0.992	0.237	-8.7089616	-0.8021412	0.4010706	100.3249458	0.32658606	-23.43971178
0.11	11	0	-0.999	0.236	-9.2819196	-0.4010706	0.2291832	100.2332725	0.32085648	-23.44544136
0.12	12	0	-1.005	0.233	-9.9121734	-0.1718874	0.0572958	100.1301401	0.32085648	-23.45117094
0.13	13	-0.005	-1.005	0.232	-10.7143146	0	0	100.0212781	0.32085648	-23.45117094
0.14	14	-0.007	-1.003	0.229	-11.2299768	0.4583664	0	99.90668646	0.32085648	-23.44544136
0.15	15	-0.006	-1.003	0.224	-11.9748222	0.6875496	0	99.79209486	0.3151269	-23.43971178
0.16	16	-0.004	-0.999	0.224	-12.4331886	0.4010706	0.2291832	99.66031452	0.3151269	-23.43971178
0.17	17	-0.004	-0.998	0.223	-12.605076	0.2291832	0.4010706	99.53426376	0.30939732	-23.43971178
0.18	18	-0.005	-1.001	0.221	-13.0061466	0.0572958	0.286479	99.40248342	0.30366774	-23.43971178
0.19	19	-0.007	-1.001	0.225	-13.5218088	0	0.2291832	99.2649735	0.29793816	-23.44544136
0.2	20	-0.011	-1.003	0.227	-13.8655836	0.1718874	0	99.12746358	0.29793816	-23.43971178
0.21	21	-0.013	-1.009	0.22	-14.610429	0.5156622	-0.1718874	98.98422408	0.29793816	-23.43971178
0.22	22	-0.012	-1.01	0.215	-15.469866	0.6302538	-0.286479	98.82379584	0.29793816	-23.4339822
0.23	23	-0.008	-1.005	0.21	-15.9855282	0.572958	-0.1718874	98.6633676	0.29793816	-23.42825262
0.24	24	-0.004	-1.002	0.208	-16.3865988	0.286479	0	98.49720978	0.29793816	-23.42825262
0.25	25	-0.001	-1.002	0.205	-16.7876694	0.1718874	0.2291832	98.33105196	0.29220858	-23.42825262
0.26	26	0.002	-1.001	0.202	-17.3033316	0.0572958	0.286479	98.15343498	0.286479	-23.4339822
0.27	27	0.005	-1.004	0.206	-17.475219	-0.0572958	0.286479	97.975818	0.286479	-23.4339822
0.28	28	0.007	-1.013	0.205	-18.048177	-0.286479	0.1718874	97.79247144	0.28074942	-23.43971178
0.29	29	0.003	-1.014	0.203	-19.0795014	-0.4583664	0.0572958	97.59766572	0.28074942	-23.44544136
0.3	30	0	-1.014	0.204	-19.767051	-0.4583664	-0.1145916	97.40286	0.28074942	-23.45690052
0.31	31	0	-1.013	0.197	-20.3973048	-0.4010706	-0.1145916	97.19659512	0.28074942	-23.4626301
0.32	32	-0.003	-1.012	0.193	-20.6837838	-0.4010706	-0.1145916	96.98460066	0.28074942	-23.46835968
0.33	33	-0.003	-1.009	0.193	-21.3713334	0.4010706	-0.1718874	96.76687662	0.28074942	-23.46835968
0.34	34	0.001	-1.008	0.187	-22.0015872	0.859437	-0.3437748	96.543423	0.286479	-23.45690052
0.35	35	0.001	-1.009	0.184	-22.631841	0.4010706	-0.3437748	96.31996938	0.286479	-23.45690052
0.36	36	-0.001	-1.007	0.182	-23.0902074	-0.0572958	-0.0572958	96.0850566	0.286479	-23.4626301
0.37	37	-0.004	-1.005	0.179	-23.9496444	-0.3437748	0.0572958	95.84441424	0.28074942	-23.46835968
0.38	38	-0.006	-1.009	0.172	-24.7517856	-0.6302538	0.1718874	95.59231272	0.28074942	-23.47981884
0.39	39	-0.005	-1.015	0.161	-25.3820394	-0.4583664	0.0572958	95.33448162	0.27501984	-23.48554842
0.4	40	-0.004	-1.019	0.157	-25.8977016	-0.1718874	-0.1145916	95.07665052	0.27501984	-23.491278
0.41	41	-0.006	-1.025	0.154	-26.5279554	0.1145916	-0.2291832	94.80736026	0.27501984	-23.491278
0.42	42	-0.006	-1.022	0.155	-27.6738714	1.2032118	-0.2291832	94.52661084	0.27501984	-23.48554842
0.43	43	-0.004	-1.018	0.15	-28.8197874	1.6615782	-0.286479	94.23440226	0.27501984	-23.46835968
0.44	44	-0.009	-1.015	0.148	-29.793816	1.9480572	-0.2291832	93.93073452	0.27501984	-23.45117094
0.45	45	-0.014	-1.019	0.144	-30.7105488	1.9480572	-0.1145916	93.6213372	0.26929026	-23.43971178
0.46	46	-0.017	-1.028	0.138	-31.799169	2.005353	0	93.30048072	0.26929026	-23.42252304
0.47	47	-0.016	-1.035	0.129	-32.8304934	1.9480572	0	92.9624355	0.26356068	-23.4053343
0.48	48	-0.014	-1.035	0.127	-33.9191136	2.005353	-0.2291832	92.6186607	0.26356068	-23.38814556
0.49	49	-0.012	-1.032	0.117	-35.1223254	2.4064236	-0.6875496	92.26342674	0.26356068	-23.37095682
0.5	50	-0.01	-1.028	0.111	-36.4401288	2.6929026	-0.859437	91.89673362	0.26929026	-23.3480385
0.51	51	-0.004	-1.02	0.115	-37.5860448	2.8074942	-1.145916	91.51285176	0.27501984	-23.3193906
0.52	52	0	-1.023	0.107	-38.388186	2.9220858	-1.145916	91.12324032	0.28074942	-23.29647228
0.53	53	0.009	-1.033	0.104	-39.7059894	3.0939732	-1.0886202	90.72216972	0.286479	-23.26782438
0.54	54	0.013	-1.037	0.098	-41.539455	2.86479	-0.7448454	90.2981808	0.29220858	-23.24490606
0.55	55	0.016	-1.043	0.092	-42.685371	2.6929026	-0.5156622	89.8684623	0.29220858	-23.22771732
0.56	56	0.023	-1.042	0.086	-44.404245	2.4064236	-0.4010706	89.42155506	0.29220858	-23.204799
0.57	57	0.027	-1.041	0.09	-45.6647526	1.6615782	0	88.95745908	0.29220858	-23.19333984
0.58	58	0.023	-1.024	0.088	-47.555514	1.7761698	-0.572958	88.47044478	0.29220858	-23.18188068
0.59	59	0.022	-1.019	0.086	-49.1025006	1.9480572	-1.4896908	87.97197132	0.30366774	-23.17042152
0.6	60	0.02	-1.038	0.072	-50.4775998	1.7761698	-1.8334656	87.46776828	0.32085648	-23.15896236
0.61	61	0.016	-1.039	0.048	-53.1132066	0.4010706	-2.291832	86.92345818	0.33804522	-23.15896236
0.62	62	0.021	-1.037	0.031	-54.2591226	-2.291832	-2.2345362	86.3734185	0.35523396	-23.18761026
0.63	63	0.019	-1.053	0.028	-54.6028974	-3.3231564	-2.4637194	85.82337882	0.3724227	-23.2334469
0.64	64	0.031	-1.073	0.03	-55.7488134	-3.6669312	-2.1199446	85.2561504	0.38961144	-23.27355396
0.65	65	0.022	-1.046	0.013	-57.6395748	-3.9534102	-2.4064236	84.67173324	0.40680018	-23.32512018
0.66	66	0.015	-1.026	0.007	-58.155237	-3.8961144	-2.8074942	84.0815865	0.42398892	-23.37095682
0.67	67	-0.005	-1.022	0.02	-57.9260538	-2.9793816	-3.5523396	83.49716934	0.45263682	-23.41106388
0.68	68	-0.007	-1.036	0	-59.4157446	-1.9480572	-3.151269	82.88983386	0.47555514	-23.43971178
0.69	69	-0.017	-1.011	-0.007	-61.9367598	-1.0886202	-3.6669312	82.26530964	0.50420304	-23.4626301
0.7	70	-0.021	-1.034	-0.01	-62.5097178	-1.3178034	-3.2085648	81.63505584	0.52712136	-23.48554842
0.71	71	-0.011	-1	-0.033	-65.030733	-1.6042824	-2.9793816	80.97615414	0.55003968	-23.51419632
0.72	72	-0.002	-0.989	-0.071	-65.5463952	-2.2345362	-3.2658606	80.31152286	0.572958	-23.5485738
0.73	73	-0.004	-1.015	-0.076	-65.4890994	-3.8961144	-3.4950438	79.64689158	0.59587632	-23.60014002
0.74	74	0.011	-1.04	-0.07	-65.8328742	-4.6982556	-3.2085648	78.97653072	0.61306506	-23.65743582
0.75	75	0.003	-1.037	-0.082	-67.2652692	-4.583664	-3.6096354	78.2947107	0.6302538	-23.71473162
0.76	76	0.007	-1.056	-0.065	-68.468481	-4.7555514	-3.151269	77.60143152	0.64744254	-23.77202742
0.77	77	0.004	-1.01	-0.098	-71.333271	-4.1825934	-3.151269	76.87950444	0.66463128	-23.82932322
0.78	78	-0.003	-1.01	-0.129	-72.479187	-4.297185	-3.9534102	76.14038862	0.6875496	-23.88661902
0.79	79	0.006	-1.025	-0.128	-73.2813282	-4.3544808	-3.9534102	75.39554322	0.70473834	-23.94391482
0.8	80	-0.004	-1.023	-0.159	-75.057498	-5.72958	-4.1825934	74.63923866	0.72765666	-24.01839936
0.81	81	0.001	-1.056	-0.167	-76.203414	-7.161975	-3.0939732	73.86574536	0.72765666	-24.09861348
0.82	82	0.005	-1.038	-0.156	-78.8390208	-8.9381448	-2.578311	73.06360416	0.72192708	-24.20174592
0.83	83	0.007	-1.008	-0.168	-81.360036	-11.9175264	-1.9480572	72.23854464	0.69900876	-24.32779668
0.84	84	-0.003	-1.003	-0.178	-83.2507974	-13.2926256	-2.3491278	71.39629638	0.67609044	-24.4653066
0.85	85	-0.028	-1.021	-0.216	-84.9123756	-12.2040054	-2.86479	70.53685938	0.6589017	-24.59708694
0.86	86	-0.028	-1.02	-0.251	-85.084263	-10.4851314	-3.3804522	69.6716928	0.64744254	-24.71740812
0.87	87	-0.045	-1.048	-0.262	-84.4540092	-8.7662574	-3.6096354	68.8122558	0.64171296	-24.81481098
0.88	88	-0.037	-1.042	-0.268	-85.8291084	-7.1046792	-3.9534102	67.94135964	0.64171296	-24.90648426
0.89	89	-0.035	-1.04	-0.281	-86.230179	-5.72958	-3.9534102	67.07046348	0.64744254	-24.9809688
0.9	90	-0.021	-0.993	-0.286	-87.949053	-5.5576926	-4.010706	66.176649	0.65317212	-25.04972376
0.91	91	-0.018	-0.997	-0.292	-86.4020664	-5.5576926	-4.1252976	65.30002326	0.6589017	-25.1242083
0.92	92	-0.02	-0.993	-0.32	-88.6938984	-4.6409598	-3.6096354	64.4004792	0.66463128	-25.19296326
0.93	93	0.004	-0.972	-0.38	-88.80849	-4.6409598	-3.2085648	63.50093514	0.66463128	-25.25025906
0.94	94	0.018	-1.007	-0.408	-87.2615034	-6.4744254	-2.3491278	62.61285024	0.64744254	-25.3247436
0.95	95	0.021	-0.995	-0.418	-87.662574	-7.6776372	-2.005353	61.72476534	0.61879464	-25.4106873
0.96	96	0.014	-1.049	-0.438	-86.9177286	-7.2192708	-1.0886202	60.84241002	0.58441716	-25.48517184
0.97	97	0.026	-0.96	-0.457	-89.2095606	-7.2192708	-0.6875496	59.93713638	0.55003968	-25.5539268
0.98	98	0.013	-0.943	-0.485	-85.4853336	-7.2192708	-2.2345362	59.0719698	0.52139178	-25.63414092
0.99	99	0.014	-0.968	-0.483	-86.8604328	-6.7609044	-1.2605076	58.18961448	0.4870143	-25.70289588
1	100	0.005	-0.938	-0.522	-84.1102344	-6.9900876	-0.859437	57.33590706	0.44690724	-25.77165084
1.01	101	0.003	-0.929	-0.572	-83.7091638	-6.589017	0.3437748	56.48792922	0.4010706	-25.82894664
1.02	102	0.005	-0.917	-0.599	-82.1621772	-7.9641162	1.2605076	55.65141054	0.33804522	-25.8977016
1.03	103	-0.004	-0.902	-0.619	-79.2400914	-9.8548776	2.005353	54.84926934	0.2578311	-25.97218614
1.04	104	-0.001	-0.914	-0.635	-76.5471888	-10.4851314	2.7501984	54.07577604	0.16615782	-26.0409411
1.05	105	0.002	-0.859	-0.667	-75.1720896	-10.9434978	2.1199446	53.30801232	0.07448454	-26.12115522
1.06	106	0	-0.849	-0.68	-71.1613836	-10.1413566	0.572958	52.59181482	0.00572958	-26.20709892
1.07	107	0.014	-0.856	-0.692	-69.1560306	-7.8495246	-0.5156622	51.88707648	-0.04010706	-26.27585388
1.08	108	0.035	-0.844	-0.705	-66.6923112	-5.9587632	-1.2605076	51.21098604	-0.07448454	-26.33314968
1.09	109	0.044	-0.83	-0.702	-63.1399716	-5.2139178	-1.5469866	50.57500266	-0.10313244	-26.3847159
1.1	110	0.032	-0.805	-0.704	-60.0459984	-4.5263682	-1.718874	49.9619376	-0.12605076	-26.43628212
1.11	111	0.023	-0.798	-0.714	-57.3530958	-2.9220858	-1.4896908	49.37752044	-0.13750992	-26.4706596
1.12	112	0.002	-0.785	-0.719	-54.6028974	-2.1199446	-1.3178034	48.82748076	-0.14896908	-26.49357792
1.13	113	-0.012	-0.774	-0.717	-51.7381074	-1.432395	-1.3750992	48.3003594	-0.15469866	-26.51649624
1.14	114	-0.017	-0.777	-0.709	-48.8160216	-1.2032118	-1.432395	47.80188594	-0.16042824	-26.53941456
1.15	115	-0.011	-0.773	-0.712	-47.269035	-0.859437	-1.718874	47.32060122	-0.16042824	-26.5566033
1.16	116	0.001	-0.776	-0.723	-45.6647526	-0.3437748	-2.0626488	46.85650524	-0.15469866	-26.57379204
1.17	117	0.005	-0.781	-0.719	-43.7166954	0.1718874	-2.291832	46.41532758	-0.13750992	-26.59098078
1.18	118	0.006	-0.778	-0.72	-42.398892	1.3178034	-2.2345362	45.98560908	-0.12032118	-26.59671036
1.19	119	0.005	-0.785	-0.73	-41.0810886	1.7761698	-1.8907614	45.56734974	-0.09740286	-26.59671036
1.2	120	0.001	-0.79	-0.741	-40.1643558	1.6615782	-1.3178034	45.16054956	-0.0859437	-26.59671036
1.21	121	0.003	-0.797	-0.741	-39.3049188	1.718874	-0.6302538	44.75947896	-0.07448454	-26.59098078
1.22	122	0.006	-0.791	-0.748	-38.5600734	2.005353	0	44.36986752	-0.06302538	-26.57952162
1.23	123	0.009	-0.785	-0.752	-37.6433406	2.578311	0.286479	43.98598566	-0.05156622	-26.5566033
1.24	124	0.01	-0.775	-0.75	-36.8411994	3.3804522	0.4010706	43.60783338	-0.04010706	-26.53368498
1.25	125	0.011	-0.76	-0.753	-36.0390582	3.9534102	0.3437748	43.24686984	-0.01718874	-26.4993075
1.26	126	0.008	-0.746	-0.751	-35.0650296	4.6982556	0.2291832	42.8859063	0	-26.46493002
1.27	127	0.004	-0.733	-0.757	-34.7212548	5.3285094	0.5156622	42.53640192	0.03437748	-26.42482296
1.28	128	-0.003	-0.721	-0.758	-34.7212548	5.5003968	0.9740286	42.18116796	0.0572958	-26.3847159
1.29	129	-0.008	-0.715	-0.762	-34.663959	6.1879464	1.6042824	41.825934	0.09167328	-26.3274201
1.3	130	-0.012	-0.719	-0.765	-34.37748	6.7036086	2.4064236	41.47642962	0.1145916	-26.26439472
1.31	131	-0.009	-0.717	-0.771	-34.1482968	6.7609044	3.0939732	41.13265482	0.13750992	-26.19563976
1.32	132	0.002	-0.721	-0.773	-33.231564	5.8441716	3.724227	40.7946096	0.15469866	-26.1268848
1.33	133	0.018	-0.716	-0.773	-32.085648	5.0420304	4.1252976	40.46802354	0.16042824	-26.06385942
1.34	134	0.032	-0.705	-0.784	-30.7678446	4.0680018	4.4690724	40.15289664	0.15469866	-26.00656362
1.35	135	0.038	-0.687	-0.787	-29.1635622	3.0366774	4.6409598	39.85495848	0.14896908	-25.94926782
1.36	136	0.034	-0.662	-0.787	-27.6738714	1.8334656	4.870143	39.57420906	0.12605076	-25.90343118
1.37	137	0.018	-0.636	-0.791	-25.9549974	1.0886202	4.9274388	39.31064838	0.09740286	-25.85759454
1.38	138	-0.001	-0.616	-0.787	-24.2361234	0.4010706	4.8128472	39.06427644	0.06875496	-25.81748748
1.39	139	-0.013	-0.605	-0.771	-22.1734746	0.286479	4.6982556	38.84082282	0.04010706	-25.77738042
1.4	140	-0.015	-0.595	-0.749	-20.2827132	1.0313244	4.3544808	38.62882836	0.01145916	-25.73727336
1.41	141	-0.02	-0.588	-0.745	-16.7876694	1.432395	4.0680018	38.45694096	0	-25.6971663
1.42	142	-0.016	-0.579	-0.74	-14.2666542	0.9167328	3.7815228	38.31370146	-0.01718874	-25.66278882
1.43	143	-0.005	-0.568	-0.717	-12.4331886	0.5156622	3.6669312	38.1876507	-0.04010706	-25.62841134
1.44	144	0.004	-0.555	-0.698	-10.7143146	0.6302538	3.6096354	38.07878868	-0.0572958	-25.59403386
1.45	145	0.01	-0.541	-0.692	-9.2246238	0.286479	3.2085648	37.98138582	-0.07448454	-25.57111554
1.46	146	0.006	-0.533	-0.688	-7.161975	-0.4010706	2.9793816	37.90690128	-0.09740286	-25.54819722
1.47	147	-0.001	-0.535	-0.67	-4.870143	-1.2605076	2.9793816	37.85533506	-0.12605076	-25.53100848
1.48	148	-0.009	-0.545	-0.664	-3.0939732	-1.5469866	2.3491278	37.82668716	-0.14896908	-25.5252789
1.49	149	-0.01	-0.544	-0.665	-1.3178034	-0.8021412	2.3491278	37.80949842	-0.1718874	-25.50809016
1.5	150	-0.005	-0.522	-0.647	1.145916	0.8021412	2.5210152	37.82095758	-0.18334656	-25.48517184
1.51	151	0	-0.523	-0.651	3.0939732	1.8907614	2.4637194	37.85533506	-0.18334656	-25.45079436
1.52	152	0.004	-0.527	-0.655	3.8388186	2.0626488	2.3491278	37.88971254	-0.17761698	-25.42214646
1.53	153	0	-0.532	-0.646	4.6409598	1.7761698	2.2345362	37.94127876	-0.17761698	-25.39349856
1.54	154	-0.002	-0.54	-0.65	5.3858052	1.4896908	2.2345362	37.99284498	-0.17761698	-25.36485066
1.55	155	-0.007	-0.551	-0.649	5.7868758	0.8021412	2.6929026	38.05587036	-0.19480572	-25.33620276
1.56	156	-0.007	-0.55	-0.646	6.8182002	0.9740286	2.9793816	38.12462532	-0.2005353	-25.30755486
1.57	157	-0.001	-0.571	-0.665	7.448454	1.432395	3.2085648	38.19910986	-0.21199446	-25.27317738
1.58	158	0.008	-0.587	-0.658	8.021412	1.6615782	3.437748	38.27932398	-0.21772404	-25.2387999
1.59	159	0.009	-0.586	-0.635	8.880849	1.3750992	3.2658606	38.37099726	-0.22345362	-25.20442242
1.6	160	0.005	-0.59	-0.639	9.2246238	2.1772404	3.0366774	38.4741297	-0.22345362	-25.16431536
1.61	161	0.003	-0.607	-0.665	8.4224826	2.578311	3.151269	38.5600734	-0.22345362	-25.1242083
1.62	162	0.001	-0.624	-0.684	7.7922288	1.9480572	3.4950438	38.63455794	-0.2291832	-25.08410124
1.63	163	0	-0.639	-0.668	7.5057498	1.0313244	3.9534102	38.71477206	-0.24637194	-25.04399418
1.64	164	-0.003	-0.651	-0.638	6.9900876	0.7448454	4.6409598	38.78352702	-0.26929026	-25.00388712
1.65	165	-0.001	-0.651	-0.608	5.5003968	2.4637194	5.2139178	38.86374114	-0.28074942	-24.94659132
1.66	166	0	-0.647	-0.604	3.724227	5.6149884	5.3285094	38.89811862	-0.26929026	-24.87210678
1.67	167	0.013	-0.658	-0.66	1.432395	7.5630456	5.0993262	38.91530736	-0.24637194	-24.7804335
1.68	168	0.011	-0.676	-0.68	1.0313244	6.5317212	5.2712136	38.92103694	-0.2291832	-24.70021938
1.69	169	0.003	-0.686	-0.658	0.4010706	4.8128472	5.2139178	38.92676652	-0.22345362	-24.62573484
1.7	170	-0.014	-0.678	-0.663	-0.6302538	3.7815228	5.156622	38.94968484	-0.23491278	-24.56270946
1.71	171	-0.025	-0.672	-0.672	-2.1199446	4.4690724	4.583664	38.92676652	-0.23491278	-24.49968408
1.72	172	-0.04	-0.673	-0.639	-3.724227	6.1306506	4.1252976	38.88665946	-0.21199446	-24.42519954
1.73	173	-0.042	-0.675	-0.648	-7.161975	8.9381448	3.151269	38.81217492	-0.16615782	-24.34498542
1.74	174	-0.037	-0.677	-0.648	-9.1100322	9.7975818	2.4637194	38.72050164	-0.10886202	-24.2647713
1.75	175	-0.025	-0.691	-0.612	-11.745639	10.2559482	2.1199446	38.6173692	-0.05156622	-24.1788276
1.76	176	-0.009	-0.697	-0.652	-15.5271618	10.4851314	1.9480572	38.46267054	0.01145916	-24.09861348
1.77	177	0.003	-0.696	-0.681	-17.5898106	11.172681	1.5469866	38.27932398	0.08021412	-24.01266978
1.78	178	0.015	-0.695	-0.669	-18.334656	12.2040054	1.432395	38.09024784	0.16615782	-23.92672608
1.79	179	0.014	-0.694	-0.651	-20.5118964	11.8029348	1.3750992	37.88398296	0.24064236	-23.84078238
1.8	180	0.002	-0.693	-0.666	-23.1475032	10.7143146	1.0886202	37.66052934	0.3151269	-23.76629784
1.81	181	-0.008	-0.688	-0.653	-25.5539268	10.9434978	1.3178034	37.39696866	0.38388186	-23.68608372
1.82	182	-0.029	-0.691	-0.597	-28.074942	12.2613012	1.5469866	37.11621924	0.46982556	-23.59441044
1.83	183	-0.028	-0.693	-0.665	-31.8564648	15.1260912	1.0313244	36.78963318	0.572958	-23.49700758
1.84	184	-0.013	-0.691	-0.693	-32.2575354	15.0687954	0.859437	36.45731754	0.68182002	-23.39387514
1.85	185	-0.002	-0.69	-0.677	-32.7159018	14.896908	0.9167328	36.13646106	0.78495246	-23.29647228
1.86	186	0.008	-0.691	-0.661	-33.9191136	14.4958374	0.8021412	35.79268626	0.8880849	-23.204799
1.87	187	0.014	-0.678	-0.635	-36.096354	13.8082878	0.9167328	35.42599314	0.99121734	-23.11312572
1.88	188	0.022	-0.656	-0.665	-37.7006364	14.0947668	0.859437	35.04211128	1.0886202	-23.02145244
1.89	189	0.02	-0.649	-0.657	-38.674665	12.6623718	1.145916	34.65249984	1.18029348	-22.93550874
1.9	190	0.024	-0.636	-0.673	-39.534102	10.6570188	1.718874	34.2628884	1.24904844	-22.8610242
1.91	191	0.031	-0.633	-0.663	-39.820581	8.7089616	2.6929026	33.85608822	1.30061466	-22.78653966
1.92	192	0.047	-0.62	-0.674	-40.7373138	7.6776372	3.6669312	33.44355846	1.33499214	-22.71205512
1.93	193	0.061	-0.594	-0.671	-41.0237928	7.5630456	4.4690724	33.02529912	1.36364004	-22.631841
1.94	194	0.067	-0.569	-0.654	-41.5967508	9.1100322	4.4117766	32.60703978	1.40947668	-22.5458973
1.95	195	0.069	-0.552	-0.683	-41.825934	10.4851314	3.6669312	32.18878044	1.47250206	-22.4599536
1.96	196	0.061	-0.539	-0.669	-40.7373138	9.7975818	2.9793816	31.77625068	1.53552744	-22.37973948
1.97	197	0.045	-0.536	-0.687	-39.247623	7.9068204	2.4064236	31.38090966	1.58136408	-22.31098452
1.98	198	0.023	-0.539	-0.69	-38.1590028	6.7036086	2.4637194	30.99129822	1.62147114	-22.25368872
1.99	199	0	-0.544	-0.669	-37.7006364	6.302538	2.6929026	30.60741636	1.65011904	-22.19639292
2	200	-0.014	-0.533	-0.679	-37.9298196	6.1306506	2.7501984	30.23499366	1.67876694	-22.13909712
2.01	201	-0.016	-0.514	-0.688	-37.528749	6.5317212	2.6356068	29.8511118	1.718874	-22.08180132
2.02	202	-0.001	-0.497	-0.689	-36.1536498	7.5630456	2.3491278	29.48441868	1.76471064	-22.02450552
2.03	203	0.013	-0.489	-0.677	-34.8358464	7.5630456	2.1772404	29.1349143	1.81627686	-21.96720972
2.04	204	0.019	-0.496	-0.637	-34.0337052	6.0733548	2.6356068	28.7911395	1.85065434	-21.90991392
2.05	205	0.022	-0.49	-0.671	-33.518043	6.016059	4.010706	28.45882386	1.87357266	-21.84688854
2.06	206	0.023	-0.48	-0.673	-31.7418732	6.5317212	5.443101	28.13796738	1.90222056	-21.76667442
2.07	207	0.034	-0.473	-0.683	-29.507337	7.9641162	5.72958	27.84002922	1.93659804	-21.67500114
2.08	208	0.038	-0.469	-0.702	-26.929026	8.59437	5.5003968	27.56500938	1.98243468	-21.58332786
2.09	209	0.019	-0.464	-0.689	-23.2620948	8.4797784	5.72958	27.33582618	2.02827132	-21.49165458
2.1	210	-0.01	-0.466	-0.708	-18.7357266	9.9121734	6.2452422	27.15247962	2.07410796	-21.38852214
2.11	211	-0.025	-0.477	-0.709	-13.750992	11.5164558	6.589017	27.0149697	2.14286292	-21.27393054
2.12	212	-0.05	-0.494	-0.641	-10.313244	11.5164558	6.302538	26.91183726	2.21161788	-21.16506852
2.13	213	-0.057	-0.476	-0.659	-8.1360036	12.6623718	5.72958	26.83162314	2.29756158	-21.05047692
2.14	214	-0.067	-0.464	-0.654	-4.6982556	12.7196676	5.6722842	26.79151608	2.3777757	-20.9416149
2.15	215	-0.059	-0.468	-0.671	-0.7448454	14.8396122	5.72958	26.79724566	2.46944898	-20.82129372
2.16	216	-0.022	-0.483	-0.7	3.437748	16.9595568	5.8441716	26.83735272	2.58977016	-20.68951338
2.17	217	0.007	-0.52	-0.741	8.021412	18.4492476	5.9587632	26.92329642	2.72728008	-20.54627388
2.18	218	0.031	-0.569	-0.764	13.1207382	20.3973048	6.3598338	27.06080634	2.87624916	-20.39157522
2.19	219	0.056	-0.621	-0.748	18.2773602	20.912967	7.448454	27.25561206	3.02521824	-20.23114698
2.2	220	0.072	-0.658	-0.74	22.2880662	21.0275586	8.4797784	27.50771358	3.17418732	-20.05353
2.21	221	0.075	-0.692	-0.71	28.3041252	20.626488	8.9954406	27.79992216	3.31742682	-19.87591302
2.22	222	0.061	-0.725	-0.671	32.085648	20.7410796	8.1932994	28.13796738	3.46066632	-19.69829604
2.23	223	0.05	-0.74	-0.649	35.2942128	21.6578124	7.1046792	28.49893092	3.61536498	-19.53213822
2.24	224	0.041	-0.755	-0.66	37.5860448	22.1734746	6.589017	28.88854236	3.7815228	-19.3659804
2.25	225	0.034	-0.775	-0.664	39.0184398	22.058883	6.9900876	29.31826086	3.93622146	-19.18836342
2.26	226	0.046	-0.795	-0.666	40.5081306	22.9756158	7.6203414	29.74224978	4.10237928	-19.00501686
2.27	227	0.072	-0.828	-0.642	42.3415962	24.1788276	8.021412	30.18342744	4.2685371	-18.81594072
2.28	228	0.085	-0.874	-0.646	42.9145542	25.496631	8.880849	30.63033468	4.44615408	-18.60394626
2.29	229	0.081	-0.902	-0.621	43.544808	27.1582092	10.0840608	31.08870108	4.62377106	-18.37476306
2.3	230	0.068	-0.92	-0.606	43.258329	28.6479	10.886202	31.56425622	4.8128472	-18.12266154
2.31	231	0.049	-0.919	-0.595	41.7113424	30.7105488	11.2872726	32.00543388	5.0133825	-17.85910086
2.32	232	0.021	-0.892	-0.573	40.10706	32.0283522	10.5424272	32.43515238	5.22537696	-17.59554018
2.33	233	-0.007	-0.876	-0.54	38.2735944	33.804522	9.2246238	32.84195256	5.45456016	-17.3319795
2.34	234	-0.021	-0.872	-0.527	35.4088044	35.8671708	7.734933	33.22583442	5.71239126	-17.06268924
2.35	235	-0.03	-0.867	-0.495	31.8564648	36.7839036	6.7609044	33.59825712	5.97022236	-16.79339898
2.36	236	-0.026	-0.851	-0.467	28.7624916	37.815228	6.016059	33.91338402	6.2452422	-16.52410872
2.37	237	-0.012	-0.84	-0.434	23.9496444	39.9351726	5.6149884	34.18267428	6.53745078	-16.24908888
2.38	238	0.013	-0.821	-0.379	20.3973048	40.2216516	5.6149884	34.41758706	6.82965936	-15.96833946
2.39	239	0.027	-0.796	-0.341	16.7303736	39.9924684	5.6722842	34.61812236	7.12186794	-15.68186046
2.4	240	0.033	-0.746	-0.307	13.0634424	39.534102	5.5003968	34.81292808	7.40261736	-15.40111104
2.41	241	0.032	-0.67	-0.284	10.313244	38.8465524	5.156622	34.950438	7.68336678	-15.1260912
2.42	242	0.031	-0.594	-0.252	8.4797784	37.4141574	5.0993262	35.0650296	7.95265704	-14.86253052
2.43	243	0.028	-0.522	-0.216	6.4171296	35.6952834	4.7555514	35.16243246	8.21048814	-14.610429
2.44	244	0.019	-0.433	-0.15	4.5263682	34.950438	3.2658606	35.236917	8.46831924	-14.37551622
2.45	245	0.024	-0.33	-0.084	3.2085648	35.9244666	1.0313244	35.31140154	8.74333908	-14.1520626
2.46	246	0.043	-0.252	-0.101	-0.0572958	34.7785506	-0.572958	35.33431986	9.0240885	-13.94579772
2.47	247	0.066	-0.17	-0.079	-3.6669312	35.1796212	-1.145916	35.3228607	9.3105675	-13.74526242
2.48	248	0.07	-0.113	-0.06	-3.7815228	34.091001	-1.145916	35.31140154	9.58558734	-13.5504567
2.49	249	0.053	-0.081	-0.053	-4.7555514	32.8304934	-1.718874	35.2942128	9.8548776	-13.36711014
2.5	250	0.052	-0.043	-0.063	-5.6149884	33.6899304	-3.4950438	35.25410574	10.14708618	-13.18949316
2.51	251	0.074	0.007	-0.079	-7.161975	32.945085	-6.2452422	35.20253952	10.43929476	-13.04625366
2.52	252	0.067	0.051	-0.135	-8.8235532	30.9970278	-8.59437	35.13378456	10.73723292	-12.93166206
2.53	253	0.084	0.096	-0.121	-15.0687954	25.496631	-10.2559482	34.99054506	10.99506402	-12.8629071
2.54	254	0.121	0.166	0.028	-8.1360036	17.4179232	-10.7716104	34.90460136	11.19559932	-12.84571836
2.55	255	0.138	0.183	0.027	-6.1306506	6.3598338	-8.880849	34.82438724	11.30446134	-12.88582542
2.56	256	0.149	0.205	0.013	-17.9908812	5.9587632	-6.4744254	34.6353111	11.38467546	-12.90301416
2.57	257	0.196	0.219	0.027	-24.350715	6.589017	-5.8441716	34.38893916	11.47061916	-12.90874374
2.58	258	0.203	0.156	-0.058	-25.3247436	0.572958	-8.7089616	34.11391932	11.5164558	-12.98322828
2.59	259	0.18	0.034	-0.252	-30.4240698	-8.9381448	-10.7716104	33.7758741	11.50499664	-13.1207382
2.6	260	0.047	-0.154	-0.365	-33.804522	-30.3094782	-10.2559482	33.38626266	11.30446134	-13.38429888
2.61	261	-0.199	-0.386	-0.152	-34.0337052	-46.0085274	-9.8548776	32.97946248	10.98360486	-13.73380326
2.62	262	-0.481	-0.657	-0.217	-40.9092012	-35.4088044	-12.3758928	32.50963692	10.75442166	-14.04320058
2.63	263	-0.632	-0.889	-0.044	-46.982556	-22.1161788	-17.9908812	31.98251556	10.66274838	-14.31822042
2.64	264	-0.595	-1.108	0.147	-58.9573782	-7.3911582	-21.4286292	31.34653218	10.70285544	-14.54167404
2.65	265	-0.445	-1.291	0.01	-82.6205436	14.9542038	-23.777757	30.49855434	10.93203864	-14.66199522
2.66	266	-0.382	-1.399	0.072	-104.278356	37.815228	-29.9084076	29.42712288	11.38467546	-14.7250206
2.67	267	-0.429	-1.556	0.12	-129.0301416	57.4103916	-40.966497	28.09213074	12.04930674	-14.79377556
2.68	268	-0.284	-1.548	-0.131	-157.1623794	85.370742	-50.8213746	26.47638918	13.00041702	-14.83388262
2.69	269	0.249	-1.304	-0.497	-192.513888	93.3348582	-68.0674104	24.4653066	14.08903722	-15.02295876
2.7	270	0.984	-0.905	-0.993	-170.2831176	79.5838662	-70.9894962	22.64330016	15.06306582	-15.33808566
2.71	271	1.738	-0.175	-1.085	-141.9789924	38.5027776	-55.576926	21.10204314	15.60164634	-15.70477878
2.72	272	2.305	0.966	-1.165	-141.0622596	-19.3659804	-34.8358464	19.56078612	15.5271618	-16.11157896
2.73	273	2.433	2.458	-1.302	-141.4060344	-85.7718126	-27.3873924	17.9908812	14.79950514	-16.6730778
2.74	274	1.626	2.556	-1.228	-114.4770084	-116.9980236	-33.3461556	16.66734822	13.79109906	-17.38354572
2.75	275	0.221	1.23	-1.975	-83.651868	-146.5626564	-46.7533728	15.63029424	12.52486188	-18.28881936
2.76	276	0.096	-0.126	-3.342	-108.9193158	-158.8812534	-61.2492102	14.32967958	11.16695142	-19.34306208
2.77	277	0.459	-0.725	-3.989	-194.8630158	-84.1102344	-110.2371192	12.1180617	10.58826384	-20.63794716
2.78	278	1.063	0.406	-3.996	-218.4115896	-29.507337	-135.2753838	9.64861272	10.53669762	-22.0302351
2.79	279	0.798	1.242	-3.996	-147.6512766	4.9274388	-104.7367224	7.95838662	10.72577376	-23.05582992
2.8	280	0.538	0.951	-3.996	-124.045407	39.4195104	-50.5921914	6.61193532	11.16122184	-23.49700758
2.81	281	0.521	1.248	-3.996	-123.8162238	66.6923112	9.6256944	5.3858052	11.79147564	-23.30220186
2.82	282	0.307	0.963	-3.916	-79.068204	77.5785132	44.690724	4.68679644	12.50767314	-22.75216218
2.83	283	0.508	0.196	-2.656	-89.4387438	77.922288	77.4639216	3.96486936	13.20095232	-21.87553644
2.84	284	0.745	-0.418	-1.501	-80.7297822	59.7595194	103.0178484	3.39764094	13.71088494	-20.76399792
2.85	285	0.716	-0.557	-1.048	-31.7418732	23.9496444	82.0475856	3.2945085	13.90569066	-19.90456092
2.86	286	0.51	-0.178	-0.849	-19.2513888	21.1421502	19.2513888	3.14553942	14.10049638	-19.68683688
2.87	287	0.523	0.241	-0.497	-28.6479	13.0061466	-31.3980984	2.7788463	14.24373588	-19.9962342
2.88	288	0.496	0.457	-0.243	-30.4813656	6.9327918	-45.7220484	2.3491278	14.32967958	-20.4546006
2.89	289	0.446	0.539	-0.339	-36.382833	2.4064236	-33.4607472	1.89649098	14.36405706	-20.79264582
2.9	290	0.346	0.522	-0.492	-47.555514	-2.86479	-14.0947668	1.32926256	14.34686832	-20.94734448
2.91	291	0.086	0.465	-0.483	-36.8411994	-4.6409598	1.8334656	0.96256944	14.2953021	-20.93015574
2.92	292	-0.183	0.219	-0.369	-24.923673	-1.2032118	8.9954406	0.73338624	14.27811336	-20.83848246
2.93	293	-0.307	0.108	-0.419	-23.2620948	14.037471	15.5271618	0.53858052	14.4098937	-20.66659506
2.94	294	-0.279	0.138	-0.507	-19.480572	26.9863218	17.7044022	0.38388186	14.67345438	-20.47751892
2.95	295	-0.13	0.219	-0.576	-10.1413566	35.4661002	15.5844576	0.29793816	15.00577002	-20.30563152
2.96	296	0.003	0.245	-0.663	-0.859437	35.5806918	10.4278356	0.32085648	15.3552744	-20.18531034
2.97	297	0.134	0.235	-0.729	3.2658606	27.6738714	4.6409598	0.36096354	15.63029424	-20.12801454
2.98	298	0.214	0.274	-0.756	4.583664	17.0168526	2.3491278	0.41825934	15.79645206	-20.09936664
2.99	299	0.296	0.319	-0.793	5.5576926	9.3392154	2.86479	0.48128472	15.88812534	-20.06498916
3	300	0.328	0.381	-0.887	1.6042824	3.7815228	3.0366774	0.16615782	15.97406904	-20.12801454
3.01	301	0.318	0.421	-0.946	-0.4583664	-1.3750992	1.145916	0.16615782	15.9568803	-20.11655538
3.02	302	0.29	0.385	-0.971	-1.7761698	-1.5469866	-0.0572958	0.14896908	15.94542114	-20.11655538
3.03	303	0.327	0.328	-0.999	-5.6722842	-0.1718874	-0.7448454	0.0859437	15.93969156	-20.12228496
3.04	304	0.357	0.308	-1.035	-7.0473834	-3.437748	0.572958	0.01718874	15.90531408	-20.11655538
3.05	305	0.384	0.261	-1.077	-0.859437	-11.6310474	3.2085648	-0.01145916	15.80218164	-20.09936664
3.06	306	0.432	0.205	-0.964	2.5210152	-25.2674478	6.6463128	0.0286479	15.55008012	-20.03634126
3.07	307	0.421	0.211	-0.869	8.8235532	-41.4821592	10.6570188	0.14896908	15.14327994	-19.9389384
3.08	308	0.336	0.174	-0.972	7.2192708	-39.4768062	8.9954406	0.24637194	14.7536685	-19.85872428
3.09	309	0.254	0.195	-1.068	1.4896908	-26.2414764	4.9847346	0.27501984	14.4958374	-19.81861722
3.1	310	0.188	0.18	-1.104	8.7089616	-14.9542038	3.3804522	0.3437748	14.32967958	-19.7956989
3.11	311	0.172	0.138	-1.012	18.1054728	-9.453807	4.583664	0.53858052	14.2380063	-19.74986226
3.12	312	0.191	0.094	-0.94	22.5172494	-1.7761698	6.2452422	0.78495246	14.22081756	-19.69256646
3.13	313	0.222	0.038	-0.961	20.2827132	8.8235532	6.7036086	1.00840608	14.30676126	-19.61808192
3.14	314	0.294	-0.002	-1.03	13.6364004	16.902261	6.2452422	1.16310474	14.47864866	-19.54932696
3.15	315	0.363	-0.036	-1.05	9.3965112	19.8816426	6.2452422	1.27196676	14.68491354	-19.47484242
3.16	316	0.419	-0.082	-1.035	6.1879464	19.3086846	6.2452422	1.35218088	14.87398968	-19.40035788
3.17	317	0.484	-0.113	-1.062	-0.8021412	16.7303736	7.448454	1.36364004	15.0401475	-19.31441418
3.18	318	0.501	-0.127	-1.078	-7.734933	10.1413566	10.7143146	1.31207382	15.13182078	-19.19982258
3.19	319	0.453	-0.126	-1.051	-10.8289062	2.6929026	15.1260912	1.24331886	15.1547391	-19.03939434
3.2	320	0.354	-0.105	-0.957	-8.6516658	-3.6669312	19.3659804	1.22040054	15.1260912	-18.84458862
3.21	321	0.271	-0.052	-0.88	-5.9014674	-10.6570188	21.772404	1.21467096	15.01722918	-18.621135
3.22	322	0.144	-0.009	-0.87	-5.0993262	-18.1054728	23.204799	1.22613012	14.83388262	-18.3919518
3.23	323	0.013	0.008	-0.856	-6.2452422	-20.2254174	23.4339822	1.22613012	14.62761774	-18.1627686
3.24	324	-0.036	-0.02	-0.828	-7.3338624	-10.886202	21.5432208	1.20894138	14.51302614	-17.94504456
3.25	325	0.012	-0.07	-0.833	-9.6829902	-3.2658606	18.2773602	1.16310474	14.44427118	-17.75596842
3.26	326	0.05	-0.115	-0.842	-7.9641162	-8.1360036	14.4385416	1.12299768	14.35832748	-17.60699934
3.27	327	0.107	-0.172	-0.83	-2.8074942	-10.6570188	9.740286	1.1172681	14.24946546	-17.51532606
3.28	328	0.152	-0.217	-0.855	-2.578311	-8.7089616	5.5576926	1.10580894	14.16352176	-17.45803026
3.29	329	0.196	-0.25	-0.867	-2.9220858	-7.2192708	3.8961144	1.08289062	14.08903722	-17.42365278
3.3	330	0.211	-0.28	-0.885	-0.859437	-7.8495246	4.010706	1.20894138	14.00309352	-17.35489782
3.31	331	0.199	-0.309	-0.89	2.578311	-8.7089616	4.7555514	1.24331886	13.91714982	-17.31479076
3.32	332	0.211	-0.33	-0.908	4.9847346	-6.1879464	5.3285094	1.31207382	13.85412444	-17.26322454
3.33	333	0.255	-0.312	-0.945	6.2452422	0.286479	4.6409598	1.38655836	13.85412444	-17.21165832
3.34	334	0.298	-0.273	-0.99	6.7609044	4.870143	2.1199446	1.45531332	13.90569066	-17.18874
3.35	335	0.322	-0.257	-1.015	7.8495246	6.8182002	-0.6302538	1.58709366	13.99163436	-17.18301042
3.36	336	0.341	-0.272	-1.016	8.880849	8.0787078	-3.4950438	1.66730778	14.07184848	-17.2173879
3.37	337	0.33	-0.294	-1.007	8.9954406	9.5683986	-5.9014674	1.7475219	14.16925134	-17.26895412
3.38	338	0.32	-0.289	-0.998	7.734933	10.4278356	-7.1046792	1.8048177	14.27811336	-17.33770908
3.39	339	0.341	-0.26	-0.986	6.7036086	10.2559482	-7.8495246	1.85638392	14.3812458	-17.41219362
3.4	340	0.359	-0.216	-0.97	5.8441716	9.2819196	-8.2505952	1.93086846	14.50156698	-17.48667816
3.41	341	0.368	-0.186	-0.955	5.2712136	7.161975	-8.0787078	1.96524594	14.57605152	-17.56689228
3.42	342	0.372	-0.168	-0.937	4.5263682	4.6409598	-7.2192708	1.99389384	14.62761774	-17.63564724
3.43	343	0.372	-0.151	-0.921	3.5523396	1.3178034	-6.0733548	2.01108258	14.64480648	-17.69867262
3.44	344	0.369	-0.128	-0.914	2.6356068	-2.1772404	-5.2139178	2.02254174	14.62188816	-17.75596842
3.45	345	0.353	-0.097	-0.911	1.7761698	-5.5003968	-4.6409598	2.04546006	14.62188816	-17.80753464
3.46	346	0.347	-0.05	-0.911	0.859437	-8.2505952	-4.297185	2.04546006	14.54167404	-17.85337128
3.47	347	0.325	-0.012	-0.907	-0.2291832	-11.0007936	-4.1252976	2.02827132	14.43281202	-17.9049375
3.48	348	0.303	0.03	-0.919	-1.718874	-13.8655836	-4.010706	1.99962342	14.30103168	-17.95650372
3.49	349	0.282	0.055	-0.934	-2.4064236	-17.5325148	-3.7815228	1.96524594	14.1234147	-18.00806994
3.5	350	0.256	0.075	-0.946	-2.4637194	-19.3659804	-3.6669312	1.89649098	13.93433856	-18.06536574
3.51	351	0.226	0.086	-0.966	-2.3491278	-19.5951636	-3.724227	1.8621135	13.74526242	-18.11120238
3.52	352	0.201	0.09	-0.982	-1.7761698	-18.1054728	-3.9534102	1.8334656	13.56764544	-18.1627686
3.53	353	0.184	0.079	-0.995	-0.6875496	-15.5844576	-4.4690724	1.81627686	13.41294678	-18.2200644
3.54	354	0.182	0.061	-1.004	0.286479	-12.4331886	-4.8128472	1.81054728	13.2926256	-18.2773602
3.55	355	0.191	0.041	-1.012	1.3750992	-9.2819196	-5.156622	1.7761698	13.18376358	-18.34038558
3.56	356	0.209	0.019	-1.011	2.3491278	-6.3598338	-5.2712136	1.78762896	13.1207382	-18.39768138
3.57	357	0.226	0	-1.008	3.2658606	-3.9534102	-5.0420304	1.81054728	13.08636072	-18.45497718
3.58	358	0.238	-0.012	-0.999	3.8961144	-3.437748	-4.3544808	1.83919518	13.05198324	-18.50081382
3.59	359	0.242	-0.024	-0.989	4.6982556	-3.9534102	-3.4950438	1.87930224	13.01760576	-18.54092088
3.6	360	0.241	-0.039	-0.975	5.0420304	-4.6982556	-2.8074942	1.9194093	12.97176912	-18.57529836
3.61	361	0.237	-0.052	-0.966	4.6982556	-4.6409598	-1.8907614	1.95951636	12.92593248	-18.59821668
3.62	362	0.229	-0.063	-0.96	3.9534102	-3.6669312	-1.3178034	1.99962342	12.891555	-18.60967584
3.63	363	0.221	-0.07	-0.958	3.437748	-2.2345362	-0.9740286	2.0340009	12.87436626	-18.621135
3.64	364	0.212	-0.075	-0.962	2.9220858	-0.9167328	-1.0313244	2.05691922	12.8629071	-18.63259416
3.65	365	0.206	-0.077	-0.965	2.1199446	-0.1718874	-1.3178034	2.11421502	12.81707046	-18.63832374
3.66	366	0.203	-0.08	-0.972	1.2032118	-0.4583664	-1.3178034	2.12567418	12.81134088	-18.6497829
3.67	367	0.201	-0.082	-0.977	0.286479	-1.0886202	-1.145916	2.12567418	12.79988172	-18.66124206
3.68	368	0.199	-0.084	-0.982	-0.1145916	-1.8334656	-0.5156622	2.12567418	12.78269298	-18.67270122
3.69	369	0.192	-0.088	-0.982	-0.4010706	-2.86479	0.1145916	2.1199446	12.75404508	-18.67270122
3.7	370	0.183	-0.09	-0.977	-0.7448454	-3.3804522	0.8021412	2.15432208	12.65664222	-18.6497829
3.71	371	0.177	-0.091	-0.969	-1.0313244	-2.86479	1.3750992	2.1485925	12.62799432	-18.63832374
3.72	372	0.18	-0.097	-0.964	-0.9167328	-1.4896908	1.8907614	2.14286292	12.61653516	-18.621135
3.73	373	0.183	-0.105	-0.959	-0.6875496	0.6302538	2.4637194	2.14286292	12.61653516	-18.5924871
3.74	374	0.188	-0.11	-0.955	-0.8021412	1.8907614	2.8074942	2.14286292	12.63945348	-18.5638392
3.75	375	0.192	-0.112	-0.954	-0.6875496	2.7501984	3.0939732	2.18869956	12.63945348	-18.51800256
3.76	376	0.195	-0.11	-0.95	-0.3437748	3.151269	3.3804522	2.19442914	12.66810138	-18.48362508
3.77	377	0.199	-0.108	-0.945	-0.4583664	3.3231564	3.3804522	2.19442914	12.69674928	-18.44351802
3.78	378	0.204	-0.104	-0.945	-0.572958	3.6096354	3.151269	2.20015872	12.73112676	-18.40914054
3.79	379	0.212	-0.101	-0.945	-0.4010706	3.724227	2.9793816	2.20015872	12.77123382	-18.37476306
3.8	380	0.223	-0.104	-0.947	0	3.7815228	2.6929026	2.25745452	12.8056113	-18.334656
3.81	381	0.234	-0.109	-0.946	0.1718874	4.010706	2.4064236	2.2631841	12.84571836	-18.3060081
3.82	382	0.24	-0.11	-0.946	0.1718874	4.1252976	2.1199446	2.26891368	12.88582542	-18.28308978
3.83	383	0.244	-0.106	-0.949	0.1145916	4.010706	1.7761698	2.27464326	12.92593248	-18.26017146
3.84	384	0.246	-0.098	-0.952	0.2291832	3.7815228	1.432395	2.28037284	12.96030996	-18.24298272
3.85	385	0.248	-0.089	-0.957	0.4010706	3.437748	1.2032118	2.3204799	13.02333534	-18.22579398
3.86	386	0.254	-0.079	-0.961	0.4583664	2.9793816	1.0313244	2.33193906	13.05198324	-18.21433482
3.87	387	0.26	-0.073	-0.965	0.3437748	2.4064236	0.9740286	2.33766864	13.07490156	-18.19714608
3.88	388	0.266	-0.068	-0.967	0.286479	1.7761698	0.9167328	2.34339822	13.0920903	-18.18568692
3.89	389	0.268	-0.065	-0.965	0	1.2032118	0.8021412	2.34339822	13.10354946	-18.17995734
3.9	390	0.27	-0.063	-0.961	-0.286479	1.0886202	0.6875496	2.34339822	13.2066819	-18.17995734
3.91	391	0.275	-0.059	-0.961	-0.286479	1.3750992	0.572958	2.34339822	13.22387064	-18.16849818
3.92	392	0.279	-0.056	-0.961	0.1145916	1.5469866	0.4010706	2.34339822	13.2353298	-18.16849818
3.93	393	0.285	-0.055	-0.962	0.4010706	1.6042824	0.1718874	2.3491278	13.25251854	-18.1627686
3.94	394	0.29	-0.051	-0.962	0.3437748	1.2605076	0	2.35485738	13.2639777	-18.1627686
3.95	395	0.291	-0.05	-0.963	0.286479	0.6302538	0	2.26891368	13.63067082	-18.20860524
3.96	396	0.29	-0.05	-0.96	0.3437748	0	0	2.27464326	13.63067082	-18.20860524
3.97	397	0.288	-0.052	-0.96	0.5156622	-0.7448454	0	2.28037284	13.62494124	-18.20860524
3.98	398	0.282	-0.055	-0.958	0.8021412	-1.4896908	0.0572958	2.28610242	13.6077525	-18.20860524
3.99	399	0.275	-0.06	-0.955	0.859437	-2.005353	0.0572958	2.29756158	13.59056376	-18.20860524
4	400	0.269	-0.064	-0.952	0.572958	-2.1199446	-0.1145916	2.31475032	13.62494124	-18.21433482
4.01	401	0.266	-0.066	-0.949	0.3437748	-2.005353	-0.1718874	2.31475032	13.60202292	-18.2200644
4.02	402	0.264	-0.069	-0.949	0.1718874	-2.005353	-0.286479	2.31475032	13.58483418	-18.2200644
4.03	403	0.264	-0.074	-0.955	0.4010706	-2.1772404	-0.2291832	2.3204799	13.56191586	-18.22579398
4.04	404	0.261	-0.08	-0.962	0.9740286	-2.4637194	-0.1718874	2.33193906	13.53899754	-18.23152356
4.05	405	0.251	-0.085	-0.966	1.4896908	-3.0366774	-0.1145916	2.37204612	13.51034964	-18.22579398
4.06	406	0.24	-0.088	-0.968	1.6042824	-3.437748	-0.1145916	2.38923486	13.47597216	-18.23152356
4.07	407	0.23	-0.087	-0.965	1.6042824	-3.7815228	-0.286479	2.4064236	13.44159468	-18.23725314
4.08	408	0.223	-0.088	-0.961	1.432395	-4.0680018	-0.3437748	2.41788276	13.40148762	-18.24298272
4.09	409	0.219	-0.09	-0.955	1.0313244	-3.8961144	-0.4583664	2.42934192	13.36138056	-18.25444188
4.1	410	0.22	-0.093	-0.954	0.3437748	-3.2658606	-0.4010706	2.48090814	13.30408476	-18.2487123
4.11	411	0.222	-0.095	-0.954	0	-2.8074942	-0.3437748	2.48090814	13.28116644	-18.25444188
4.12	412	0.222	-0.098	-0.955	0	-2.6356068	-0.1145916	2.48090814	13.25251854	-18.25444188
4.13	413	0.223	-0.1	-0.948	-0.3437748	-2.1199446	-0.0572958	2.47517856	13.22960022	-18.26017146
4.14	414	0.218	-0.097	-0.948	-0.7448454	-1.7761698	0	2.46944898	13.21241148	-18.26017146
4.15	415	0.214	-0.089	-0.954	-0.6302538	-1.4896908	-0.1718874	2.52674478	13.14365652	-18.24298272
4.16	416	0.211	-0.083	-0.958	-0.286479	-1.2032118	-0.3437748	2.5210152	13.13219736	-18.2487123
4.17	417	0.209	-0.075	-0.965	-0.4583664	-0.9167328	-0.3437748	2.51528562	13.1207382	-18.25444188
4.18	418	0.208	-0.07	-0.971	-0.3437748	-0.9167328	-0.286479	2.51528562	13.11500862	-18.25444188
4.19	419	0.211	-0.074	-0.971	-0.0572958	-1.0886202	-0.1718874	2.50955604	13.10354946	-18.26017146
4.2	420	0.215	-0.081	-0.967	0.1145916	-0.859437	0	2.61841806	13.0061466	-18.23152356
4.21	421	0.22	-0.081	-0.964	0.286479	-0.1718874	0.0572958	2.61841806	13.00041702	-18.23152356
4.22	422	0.225	-0.076	-0.965	0.3437748	0.6875496	0.1145916	2.62414764	13.01187618	-18.22579398
4.23	423	0.231	-0.07	-0.965	0.4583664	1.2032118	0.2291832	2.62987722	13.02333534	-18.22579398
4.24	424	0.238	-0.068	-0.964	0.572958	0.9740286	0.286479	2.6356068	13.02906492	-18.2200644
4.25	425	0.241	-0.068	-0.966	0.4583664	0.572958	0.5156622	2.65279554	13.07490156	-18.21433482
4.26	426	0.245	-0.069	-0.965	0.4583664	0.0572958	0.6302538	2.65852512	13.07490156	-18.20860524
4.27	427	0.243	-0.068	-0.963	0.5156622	-0.286479	0.7448454	2.6642547	13.06917198	-18.20287566
4.28	428	0.243	-0.07	-0.962	0.5156622	-0.286479	0.6875496	2.66998428	13.06917198	-18.1914165
4.29	429	0.243	-0.07	-0.958	0.3437748	-0.0572958	0.6302538	2.67571386	13.06917198	-18.18568692
4.3	430	0.246	-0.075	-0.955	0.0572958	0.286479	0.6302538	2.7215505	13.13792694	-18.17422776
4.31	431	0.25	-0.078	-0.955	-0.1718874	0.6302538	0.6302538	2.7215505	13.14365652	-18.16849818
4.32	432	0.253	-0.079	-0.958	-0.0572958	0.9167328	0.6302538	2.7215505	13.15511568	-18.1627686
4.33	433	0.254	-0.078	-0.959	0.1145916	0.859437	0.6302538	2.7215505	13.16084526	-18.15703902
4.34	434	0.252	-0.076	-0.959	0.2291832	0.6875496	0.4583664	2.72728008	13.16657484	-18.15130944
4.35	435	0.251	-0.078	-0.962	0.1145916	0.572958	0.4010706	2.7788463	13.24678896	-18.13985028
4.36	436	0.252	-0.08	-0.966	0.2291832	0.3437748	0.4583664	2.7788463	13.25251854	-18.1341207
4.37	437	0.252	-0.087	-0.964	0.4583664	-0.1145916	0.6875496	2.78457588	13.24678896	-18.12839112
4.38	438	0.252	-0.091	-0.961	0.2291832	-0.4010706	0.6875496	2.79030546	13.24105938	-18.11693196
4.39	439	0.25	-0.094	-0.958	0	-0.7448454	0.572958	2.79030546	13.2353298	-18.11693196
4.4	440	0.246	-0.091	-0.956	0	-1.0313244	0.3437748	2.87624916	13.2639777	-18.09401364
4.41	441	0.242	-0.09	-0.952	0.0572958	-0.9740286	0.1145916	2.87624916	13.25251854	-18.09401364
4.42	442	0.241	-0.086	-0.952	0	-0.7448454	-0.0572958	2.87624916	13.24105938	-18.09974322
4.43	443	0.241	-0.084	-0.955	0	-0.7448454	-0.1718874	2.87624916	13.2353298	-18.09974322
4.44	444	0.242	-0.081	-0.959	0.1718874	-0.8021412	-0.1718874	2.87624916	13.22960022	-18.09974322
4.45	445	0.242	-0.082	-0.959	0.3437748	-1.0886202	-0.1718874	2.91062664	13.2353298	-18.09974322
4.46	446	0.239	-0.081	-0.959	0.2291832	-1.145916	-0.1718874	2.91062664	13.22387064	-18.1054728
4.47	447	0.237	-0.08	-0.959	0.2291832	-1.145916	-0.1718874	2.91635622	13.21241148	-18.1054728
4.48	448	0.236	-0.078	-0.958	0.286479	-1.0313244	-0.1718874	2.91635622	13.2066819	-18.11120238
4.49	449	0.234	-0.079	-0.957	0.1718874	-0.9740286	-0.1718874	2.9220858	13.19522274	-18.11120238
4.5	450	0.233	-0.081	-0.96	0.1145916	-0.859437	-0.0572958	2.97365202	13.178034	-18.09974322
4.51	451	0.235	-0.08	-0.961	0.4583664	-0.6302538	0	2.9793816	13.17230442	-18.09974322
4.52	452	0.236	-0.078	-0.963	0.6302538	-0.4583664	0	2.98511118	13.16657484	-18.1054728
4.53	453	0.235	-0.076	-0.961	0.6875496	-0.572958	0	2.99084076	13.16084526	-18.1054728
4.54	454	0.235	-0.076	-0.961	0.572958	-0.6875496	-0.0572958	2.99657034	13.15511568	-18.1054728
4.55	455	0.234	-0.077	-0.959	0.5156622	-0.9740286	0	3.01375908	13.1493861	-18.1054728
4.56	456	0.234	-0.08	-0.959	0.572958	-1.0886202	0.0572958	3.01948866	13.13792694	-18.1054728
4.57	457	0.234	-0.08	-0.961	0.5156622	-1.0886202	0.1718874	3.02521824	13.12646778	-18.1054728
4.58	458	0.237	-0.081	-0.96	0.5156622	-1.0313244	0.286479	3.03094782	13.11500862	-18.09974322
4.59	459	0.237	-0.08	-0.96	0.3437748	-0.6875496	0.2291832	3.0366774	13.10927904	-18.09974322
4.6	460	0.235	-0.082	-0.961	0.2291832	-0.4010706	0.3437748	3.08251404	13.11500862	-18.08828406
4.61	461	0.235	-0.083	-0.961	-0.1145916	-0.5156622	0.2291832	3.08251404	13.10927904	-18.08255448
4.62	462	0.234	-0.084	-0.96	-0.2291832	-0.8021412	0.3437748	3.08251404	13.09781988	-18.08255448
4.63	463	0.234	-0.086	-0.96	-0.1718874	-1.0886202	0.4583664	3.08251404	13.08636072	-18.0768249
4.64	464	0.235	-0.087	-0.959	-0.1145916	-1.2032118	0.4583664	3.08251404	13.07490156	-18.07109532
4.65	465	0.234	-0.088	-0.957	-0.1718874	-0.9740286	0.4583664	3.1226211	13.06917198	-18.05963616
4.66	466	0.234	-0.087	-0.957	-0.0572958	-0.572958	0.4583664	3.1226211	13.0634424	-18.05390658
4.67	467	0.234	-0.085	-0.958	-0.1718874	0	0.3437748	3.1226211	13.0634424	-18.048177
4.68	468	0.236	-0.086	-0.957	-0.2291832	0.0572958	0.4010706	3.1226211	13.0634424	-18.048177
4.69	469	0.236	-0.083	-0.96	-0.3437748	0.2291832	0.3437748	3.11689152	13.06917198	-18.04244742
4.7	470	0.237	-0.085	-0.961	-0.3437748	0.0572958	0.3437748	3.1799169	13.09781988	-18.02525868
4.71	471	0.239	-0.085	-0.961	-0.3437748	-0.1145916	0.286479	3.17418732	13.09781988	-18.02525868
4.72	472	0.24	-0.084	-0.961	-0.2291832	-0.3437748	0.2291832	3.17418732	13.0920903	-18.0195291
4.73	473	0.24	-0.083	-0.965	0	-0.2291832	0.1718874	3.17418732	13.08636072	-18.0195291
4.74	474	0.239	-0.082	-0.964	0.1145916	-0.1145916	0.1145916	3.17418732	13.08636072	-18.0195291
4.75	475	0.238	-0.082	-0.962	-0.0572958	-0.1145916	-0.0572958	3.22575354	13.11500862	-18.00806994
4.76	476	0.236	-0.082	-0.96	-0.572958	-0.0572958	-0.2291832	3.22002396	13.11500862	-18.01379952
4.77	477	0.239	-0.084	-0.955	-1.145916	0.4583664	-0.4583664	3.2085648	13.1207382	-18.01379952
4.78	478	0.242	-0.084	-0.954	-1.432395	0.7448454	-0.4010706	3.19137606	13.12646778	-18.0195291
4.79	479	0.245	-0.084	-0.955	-1.6042824	0.5156622	-0.3437748	3.17418732	13.13219736	-18.02525868
4.8	480	0.246	-0.085	-0.957	-1.6042824	0.0572958	-0.2291832	3.1799169	13.16084526	-18.0195291
4.81	481	0.245	-0.085	-0.954	-1.3178034	-0.1718874	-0.1718874	3.16845774	13.15511568	-18.02525868
4.82	482	0.243	-0.087	-0.951	-1.6615782	-0.5156622	-0.2291832	3.151269	13.1493861	-18.02525868
4.83	483	0.238	-0.086	-0.954	-1.8907614	-0.7448454	-0.4010706	3.12835068	13.14365652	-18.03098826
4.84	484	0.236	-0.085	-0.955	-1.6615782	-1.0313244	-0.4583664	3.11116194	13.13219736	-18.03671784
4.85	485	0.234	-0.081	-0.956	-1.6615782	-0.859437	-0.572958	3.09970278	13.12646778	-18.04244742
4.86	486	0.232	-0.078	-0.964	-1.6615782	-0.7448454	-0.4583664	3.08251404	13.11500862	-18.048177
4.87	487	0.232	-0.077	-0.965	-1.432395	-0.6302538	-0.4010706	3.0653253	13.10927904	-18.05390658
4.88	488	0.233	-0.08	-0.964	-1.2032118	-0.4583664	-0.3437748	3.05386614	13.10354946	-18.05390658
4.89	489	0.236	-0.082	-0.962	-1.0886202	-0.3437748	-0.286479	3.04240698	13.10354946	-18.05963616
4.9	490	0.238	-0.083	-0.962	-0.9740286	-0.2291832	-0.286479	3.05386614	13.10927904	-18.05963616
4.91	491	0.237	-0.079	-0.961	-1.0313244	-0.286479	-0.286479	3.04240698	13.10927904	-18.05963616
4.92	492	0.235	-0.077	-0.962	-0.7448454	-0.3437748	-0.2291832	3.03094782	13.10354946	-18.06536574
4.93	493	0.234	-0.076	-0.961	-0.6875496	-0.5156622	-0.1718874	3.02521824	13.09781988	-18.06536574
4.94	494	0.232	-0.077	-0.96	-0.6875496	-0.5156622	-0.2291832	3.01948866	13.09781988	-18.07109532
4.95	495	0.232	-0.078	-0.958	-0.6875496	-0.3437748	-0.2291832	3.03094782	13.08636072	-18.07109532
4.96	496	0.233	-0.078	-0.959	-0.9167328	0	-0.2291832	3.01948866	13.08636072	-18.07109532
4.97	497	0.234	-0.079	-0.962	-0.9167328	0.2291832	-0.2291832	3.0080295	13.0920903	-18.07109532
4.98	498	0.234	-0.078	-0.961	-0.9740286	0.5156622	-0.2291832	2.99657034	13.09781988	-18.0768249
4.99	499	0.234	-0.077	-0.962	-0.859437	0.6875496	-0.286479	2.98511118	13.10354946	-18.0768249
5	500	0.235	-0.079	-0.962	-0.6875496	0.6875496	-0.286479	3.00229992	13.11500862	-18.0768249
5.01	501	0.233	-0.077	-0.96	-0.5156622	0.1145916	-0.2291832	2.99657034	13.1207382	-18.0768249
5.02	502	0.231	-0.077	-0.957	-0.286479	0	-0.2291832	2.99084076	13.1207382	-18.08255448
5.03	503	0.23	-0.079	-0.959	-0.286479	0	-0.2291832	2.98511118	13.11500862	-18.08255448
5.04	504	0.231	-0.08	-0.962	-0.286479	0	-0.2291832	2.98511118	13.11500862	-18.08828406
5.05	505	0.234	-0.082	-0.962	-0.2291832	0	-0.1145916	3.0939732	13.1207382	-18.06536574
5.06	506	0.234	-0.084	-0.961	-0.4010706	0.1718874	-0.0572958	3.08824362	13.1207382	-18.06536574
5.07	507	0.234	-0.086	-0.958	-0.5156622	0.2291832	0	3.08251404	13.12646778	-18.06536574
5.08	508	0.235	-0.085	-0.957	-0.6302538	0.2291832	0	3.07678446	13.12646778	-18.06536574
5.09	509	0.236	-0.084	-0.956	-0.6875496	0.2291832	0	3.07105488	13.13219736	-18.06536574
5.1	510	0.237	-0.083	-0.958	-0.6302538	0.1718874	-0.0572958	3.09970278	13.13792694	-18.05390658
5.11	511	0.235	-0.082	-0.961	-0.6302538	0	-0.1145916	3.0939732	13.13792694	-18.05963616
5.12	512	0.233	-0.081	-0.962	-0.5156622	0	-0.2291832	3.08824362	13.13792694	-18.05963616
5.13	513	0.233	-0.079	-0.963	-0.3437748	0.1718874	-0.2291832	3.08251404	13.14365652	-18.06536574
5.14	514	0.234	-0.079	-0.964	-0.1718874	0.2291832	-0.2291832	3.08251404	13.14365652	-18.06536574
5.15	515	0.234	-0.077	-0.965	-0.1718874	0.1145916	-0.2291832	3.09970278	13.14365652	-18.06536574
5.16	516	0.235	-0.078	-0.964	-0.286479	0.1145916	-0.2291832	3.0939732	13.14365652	-18.06536574
5.17	517	0.237	-0.078	-0.961	-0.286479	0.2291832	-0.2291832	3.08824362	13.1493861	-18.06536574
5.18	518	0.239	-0.076	-0.961	-0.3437748	0.3437748	-0.2291832	3.08824362	13.15511568	-18.07109532
5.19	519	0.24	-0.077	-0.96	-0.2291832	0.4583664	-0.1718874	3.08251404	13.15511568	-18.07109532
5.2	520	0.24	-0.074	-0.96	-0.2291832	0.4583664	-0.1145916	3.08251404	13.18376358	-18.07109532
5.21	521	0.239	-0.074	-0.96	0	0.2291832	-0.1145916	3.08251404	13.18949316	-18.0768249
5.22	522	0.237	-0.073	-0.96	0	0.1145916	-0.1145916	3.08251404	13.18949316	-18.0768249
5.23	523	0.232	-0.073	-0.96	0	-0.0572958	-0.286479	3.07678446	13.18949316	-18.0768249
5.24	524	0.23	-0.077	-0.959	-0.1718874	-0.1145916	-0.3437748	3.07678446	13.18949316	-18.08255448
5.25	525	0.232	-0.078	-0.957	-0.286479	-0.0572958	-0.2291832	3.10543236	13.18949316	-18.0768249
5.26	526	0.236	-0.08	-0.959	-0.286479	0.1145916	0	3.10543236	13.18949316	-18.0768249
5.27	527	0.24	-0.081	-0.962	-0.1718874	0.286479	0	3.09970278	13.19522274	-18.0768249
5.28	528	0.242	-0.082	-0.962	-0.2291832	0.4010706	0	3.09970278	13.19522274	-18.0768249
5.29	529	0.238	-0.08	-0.962	-0.3437748	0.3437748	0	3.0939732	13.20095232	-18.0768249
5.3	530	0.237	-0.08	-0.961	-0.1718874	0.286479	0.0572958	3.15699858	13.21241148	-18.06536574
5.31	531	0.233	-0.08	-0.96	0	-0.0572958	0.0572958	3.15699858	13.2066819	-18.05963616
5.32	532	0.231	-0.082	-0.959	0.0572958	-0.286479	0.1145916	3.16272816	13.2066819	-18.05963616
5.33	533	0.227	-0.083	-0.959	0.1145916	-0.2291832	0.1145916	3.16272816	13.20095232	-18.05963616
5.34	534	0.23	-0.084	-0.958	-0.0572958	-0.2291832	0	3.16272816	13.20095232	-18.05963616
5.35	535	0.232	-0.084	-0.96	-0.1718874	-0.1718874	0	3.2085648	13.18376358	-18.048177
5.36	536	0.233	-0.082	-0.96	-0.1718874	-0.0572958	0	3.2085648	13.18376358	-18.048177
5.37	537	0.236	-0.081	-0.96	-0.1718874	0.0572958	0.0572958	3.2085648	13.18376358	-18.048177
5.38	538	0.235	-0.079	-0.959	-0.1718874	0.0572958	0	3.20283522	13.18376358	-18.04244742
5.39	539	0.235	-0.078	-0.962	0	0.0572958	0	3.20283522	13.18376358	-18.048177
5.4	540	0.234	-0.077	-0.962	0	0	0	3.20283522	13.17230442	-18.048177
5.41	541	0.232	-0.077	-0.962	0	-0.1718874	0	3.20283522	13.17230442	-18.048177
5.42	542	0.23	-0.077	-0.96	-0.1145916	-0.3437748	0	3.19710564	13.16657484	-18.048177
5.43	543	0.228	-0.077	-0.96	-0.0572958	-0.3437748	-0.0572958	3.19710564	13.16657484	-18.048177
5.44	544	0.229	-0.077	-0.963	0.1145916	-0.1145916	-0.1718874	3.19710564	13.16084526	-18.048177
5.45	545	0.232	-0.076	-0.967	0.4010706	0.1145916	-0.1145916	3.19710564	13.15511568	-18.048177
5.46	546	0.233	-0.076	-0.967	0.4583664	0.286479	-0.1145916	3.20283522	13.15511568	-18.05390658
5.47	547	0.236	-0.075	-0.969	0.4010706	0.286479	-0.1718874	3.2085648	13.16084526	-18.05390658
5.48	548	0.236	-0.076	-0.964	0.1718874	0	-0.1718874	3.2085648	13.16084526	-18.05390658
5.49	549	0.237	-0.077	-0.96	-0.1145916	-0.1718874	-0.1718874	3.2085648	13.15511568	-18.05963616
5.5	550	0.238	-0.08	-0.958	-0.4583664	-0.2291832	-0.1145916	3.22002396	13.16657484	-18.05963616
5.51	551	0.238	-0.08	-0.959	-0.7448454	-0.2291832	-0.0572958	3.2085648	13.16084526	-18.05963616
5.52	552	0.238	-0.079	-0.963	-0.572958	-0.286479	0	3.20283522	13.16084526	-18.05963616
5.53	553	0.238	-0.08	-0.96	-0.286479	-0.1145916	0.0572958	3.20283522	13.16084526	-18.05963616
5.54	554	0.236	-0.085	-0.955	-0.7448454	-0.1145916	0	3.19137606	13.15511568	-18.05963616
5.55	555	0.232	-0.085	-0.953	-1.2605076	-0.3437748	0	3.19137606	13.15511568	-18.05390658
5.56	556	0.232	-0.082	-0.953	-0.9167328	-0.2291832	-0.0572958	3.1799169	13.1493861	-18.05390658
5.57	557	0.233	-0.078	-0.956	-0.5156622	-0.1718874	-0.1145916	3.17418732	13.1493861	-18.05963616
5.58	558	0.232	-0.074	-0.961	-0.4583664	-0.0572958	-0.1145916	3.16845774	13.1493861	-18.05963616
5.59	559	0.231	-0.072	-0.969	-0.286479	-0.1145916	-0.0572958	3.16845774	13.1493861	-18.05963616
5.6	560	0.231	-0.073	-0.972	-0.0572958	-0.286479	-0.0572958	3.15699858	13.11500862	-18.05963616
5.61	561	0.231	-0.077	-0.97	0.1145916	-0.5156622	0	3.15699858	13.10927904	-18.06536574
5.62	562	0.232	-0.078	-0.967	0.4010706	-0.572958	0	3.16272816	13.10354946	-18.06536574
5.63	563	0.233	-0.077	-0.966	0.4583664	-0.286479	0	3.16845774	13.10354946	-18.06536574
5.64	564	0.234	-0.075	-0.964	0.3437748	-0.0572958	0	3.16845774	13.10354946	-18.06536574
5.65	565	0.232	-0.073	-0.961	0.1145916	-0.0572958	0	3.13408026	13.07490156	-18.07109532
5.66	566	0.232	-0.073	-0.96	0	0.0572958	0	3.13408026	13.07490156	-18.07109532
5.67	567	0.233	-0.074	-0.962	0.1718874	0	0.0572958	3.13408026	13.07490156	-18.07109532
5.68	568	0.234	-0.076	-0.962	0.1145916	0	0.0572958	3.13408026	13.07490156	-18.07109532
5.69	569	0.233	-0.075	-0.962	0	0	0	3.13408026	13.07490156	-18.07109532
5.7	570	0.233	-0.075	-0.963	0	0.0572958	-0.0572958	3.13408026	13.05771282	-18.07109532
5.71	571	0.233	-0.074	-0.964	0	0.2291832	-0.0572958	3.13408026	13.05771282	-18.07109532
5.72	572	0.232	-0.076	-0.963	0	0.2291832	-0.0572958	3.13408026	13.0634424	-18.07109532
5.73	573	0.229	-0.076	-0.963	0.0572958	0.1145916	0	3.13408026	13.0634424	-18.07109532
5.74	574	0.229	-0.076	-0.961	0.2291832	0	0.0572958	3.13980984	13.0634424	-18.07109532
5.75	575	0.227	-0.077	-0.962	0.2291832	0.1718874	0.1145916	3.14553942	13.05198324	-18.06536574
5.76	576	0.228	-0.078	-0.963	0.2291832	0.4010706	0.0572958	3.151269	13.05771282	-18.06536574
5.77	577	0.229	-0.079	-0.964	0.1145916	0.286479	0.1145916	3.151269	13.05771282	-18.06536574
5.78	578	0.231	-0.079	-0.964	0.0572958	0.1145916	0.1145916	3.151269	13.05771282	-18.05963616
5.79	579	0.232	-0.082	-0.96	-0.0572958	0	0.1145916	3.151269	13.05771282	-18.05963616
5.8	580	0.232	-0.082	-0.959	-0.2291832	-0.0572958	0.2291832	3.1799169	13.0634424	-18.048177
5.81	581	0.232	-0.082	-0.959	-0.2291832	0	0.2291832	3.1799169	13.0634424	-18.048177
5.82	582	0.231	-0.08	-0.958	0	0.1145916	0.1718874	3.1799169	13.0634424	-18.048177
5.83	583	0.232	-0.079	-0.959	0.0572958	0.4583664	0.2291832	3.1799169	13.06917198	-18.04244742
5.84	584	0.232	-0.077	-0.961	0.0572958	0.572958	0.1145916	3.1799169	13.07490156	-18.04244742
5.85	585	0.231	-0.076	-0.962	0.0572958	0.572958	0.1145916	3.1799169	13.07490156	-18.03671784
5.86	586	0.231	-0.075	-0.962	0.2291832	0.4583664	0.0572958	3.1799169	13.08063114	-18.03671784
5.87	587	0.23	-0.075	-0.964	0.1718874	0.286479	0	3.18564648	13.08636072	-18.03671784
5.88	588	0.231	-0.075	-0.964	0.1718874	0.2291832	-0.0572958	3.18564648	13.08636072	-18.03671784
5.89	589	0.234	-0.074	-0.965	0.1718874	0.1145916	0	3.18564648	13.08636072	-18.03671784
5.9	590	0.234	-0.073	-0.965	0.1718874	0.1145916	0	3.1799169	13.08636072	-18.03671784
5.91	591	0.235	-0.073	-0.963	0.1718874	0.1145916	0.0572958	3.18564648	13.08636072	-18.03671784
5.92	592	0.234	-0.073	-0.962	0.2291832	0.1145916	0.0572958	3.18564648	13.0920903	-18.03671784
5.93	593	0.235	-0.074	-0.961	0.1718874	0.1145916	0.1145916	3.18564648	13.0920903	-18.03671784
5.94	594	0.233	-0.073	-0.96	0.1145916	0.0572958	0.1145916	3.19137606	13.0920903	-18.03671784
5.95	595	0.232	-0.074	-0.961	0.1145916	0.0572958	0.0572958	3.1799169	13.0920903	-18.03671784
5.96	596	0.233	-0.074	-0.961	0	0.0572958	0	3.1799169	13.0920903	-18.03671784
5.97	597	0.232	-0.074	-0.961	0	-0.0572958	-0.0572958	3.1799169	13.0920903	-18.03671784
5.98	598	0.233	-0.074	-0.961	0	-0.1145916	0	3.17418732	13.08636072	-18.03671784
5.99	599	0.233	-0.076	-0.963	0	-0.0572958	0.0572958	3.17418732	13.08636072	-18.03671784
6	600	0.232	-0.077	-0.962	0	-0.0572958	0.0572958	3.19710564	13.0634424	-18.03098826
6.01	601	0.232	-0.078	-0.962	-0.0572958	-0.1145916	0.1145916	3.19710564	13.0634424	-18.03098826
6.02	602	0.23	-0.077	-0.962	-0.0572958	0	0.1145916	3.19710564	13.0634424	-18.02525868
6.03	603	0.23	-0.077	-0.962	0	0.1145916	0.1145916	3.19710564	13.0634424	-18.02525868
6.04	604	0.231	-0.077	-0.962	0.0572958	0.1718874	0.2291832	3.19710564	13.0634424	-18.02525868
6.05	605	0.231	-0.077	-0.964	0.1145916	0.1145916	0.1718874	3.20283522	13.05771282	-18.0195291
6.06	606	0.232	-0.076	-0.965	0.1718874	0.1718874	0.1145916	3.20283522	13.0634424	-18.0195291
6.07	607	0.231	-0.077	-0.965	0.2291832	0.0572958	0.1145916	3.2085648	13.0634424	-18.0195291
6.08	608	0.231	-0.079	-0.963	0.1718874	0	0.0572958	3.2085648	13.0634424	-18.0195291
