TimeStamp(s)	FrameCounter	AccX	AccY	AccZ	GyrX	GyrY	GyrZ	EulerX	EulerY	EulerZ
0.01	1	0.063	-1.002	-0.057	-6.2452422	0	-1.2605076	84.60297828	3.21429438	-62.01697392
0.02	2	0.065	-1.006	-0.057	-8.7089616	0.572958	-1.8907614	84.51703458	3.23148312	-62.01124434
0.03	3	0.066	-1.01	-0.058	-9.2819196	0.6875496	-2.0626488	84.41963172	3.24867186	-62.00551476
0.04	4	0.066	-1.012	-0.061	-9.7975818	0.9740286	-2.1199446	84.32222886	3.27159018	-61.99978518
0.05	5	0.068	-1.014	-0.063	-10.5424272	1.2605076	-2.1199446	84.21909642	3.30023808	-61.98832602
0.06	6	0.074	-1.017	-0.063	-11.5737516	1.145916	-2.291832	84.09877524	3.31742682	-61.98259644
0.07	7	0.074	-1.015	-0.063	-12.4904844	0.8021412	-2.8074942	83.97272448	3.34607472	-61.97686686
0.08	8	0.07	-1.013	-0.055	-13.0061466	0.4010706	-3.7815228	83.84094414	3.38618178	-61.97686686
0.09	9	0.068	-1.009	-0.05	-13.8082878	1.0886202	-4.4117766	83.70343422	3.42628884	-61.97113728
0.1	10	0.071	-1.005	-0.054	-15.0114996	2.2345362	-4.3544808	83.55446514	3.47785506	-61.95394854
0.11	11	0.079	-0.998	-0.065	-15.756345	3.3231564	-3.7815228	83.3940369	3.51223254	-61.93103022
0.12	12	0.087	-0.994	-0.071	-15.6417534	4.2398892	-3.0939732	83.23933824	3.54661002	-61.89092316
0.13	13	0.093	-0.993	-0.074	-15.0687954	4.8128472	-2.7501984	83.09036916	3.5809875	-61.8508161
0.14	14	0.099	-0.994	-0.077	-14.896908	5.0420304	-2.86479	82.94140008	3.6096354	-61.80497946
0.15	15	0.099	-0.993	-0.078	-14.4385416	5.443101	-3.4950438	82.79816058	3.65547204	-61.75341324
0.16	16	0.099	-0.992	-0.082	-13.8082878	5.7868758	-4.1825934	82.66065066	3.70130868	-61.70184702
0.17	17	0.102	-0.988	-0.086	-13.1207382	6.302538	-4.4117766	82.52887032	3.7528749	-61.64455122
0.18	18	0.108	-0.986	-0.089	-12.2613012	6.9327918	-4.297185	82.40854914	3.79871154	-61.58152584
0.19	19	0.111	-0.983	-0.087	-11.2872726	7.6203414	-3.8388186	82.29395754	3.84454818	-61.51277088
0.2	20	0.11	-0.982	-0.084	-10.6570188	8.307891	-3.3231564	82.19655468	3.8961144	-61.43255676
0.21	21	0.106	-0.982	-0.088	-10.0840608	9.2819196	-2.8074942	82.09915182	3.93622146	-61.34661306
0.22	22	0.102	-0.98	-0.09	-9.1100322	10.2559482	-2.4637194	82.01320812	3.97059894	-61.2492102
0.23	23	0.101	-0.979	-0.088	-7.9641162	11.0580894	-2.291832	81.93872358	4.00497642	-61.14034818
0.24	24	0.104	-0.978	-0.089	-6.8182002	11.9748222	-2.1772404	81.8756982	4.0393539	-61.03148616
0.25	25	0.111	-0.979	-0.085	-5.6149884	12.891555	-2.1199446	81.82986156	4.08519054	-60.89970582
0.26	26	0.121	-0.983	-0.092	-4.6982556	13.3499214	-1.7761698	81.7897545	4.11956802	-60.77365506
0.27	27	0.13	-0.983	-0.099	-4.010706	13.464513	-1.4896908	81.75537702	4.14821592	-60.64187472
0.28	28	0.135	-0.981	-0.101	-2.9220858	13.3499214	-1.0886202	81.7324587	4.17113424	-60.51009438
0.29	29	0.135	-0.979	-0.104	-1.8334656	13.0061466	-0.8021412	81.72099954	4.19405256	-60.38404362
0.3	30	0.135	-0.974	-0.105	-1.0313244	12.8342592	-0.572958	81.72099954	4.2398892	-60.2465337
0.31	31	0.134	-0.97	-0.106	-0.5156622	13.1207382	-0.4010706	81.72672912	4.26280752	-60.12048294
0.32	32	0.141	-0.968	-0.109	-0.5156622	13.6364004	-0.3437748	81.72672912	4.27999626	-59.9887026
0.33	33	0.138	-0.983	-0.117	0	13.8655836	-0.572958	81.73818828	4.30291458	-59.85119268
0.34	34	0.131	-0.995	-0.129	1.0886202	13.8082878	-0.6875496	81.75537702	4.3258329	-59.71368276
0.35	35	0.128	-0.993	-0.137	3.0366774	13.178034	-0.1718874	81.7897545	4.36021038	-59.57617284
0.36	36	0.132	-0.979	-0.137	5.2139178	12.891555	0.1145916	81.85277988	4.37166954	-59.45012208
0.37	37	0.141	-0.958	-0.123	5.9587632	12.3758928	-0.0572958	81.92153484	4.38885828	-59.3298009
0.38	38	0.149	-0.944	-0.115	5.3858052	12.0894138	-0.5156622	81.98456022	4.40604702	-59.20947972
0.39	39	0.162	-0.953	-0.098	3.7815228	11.745639	-1.2032118	82.03039686	4.43469492	-59.09488812
0.4	40	0.171	-0.982	-0.089	2.2345362	11.4018642	-1.4896908	82.06477434	4.4977203	-58.96883736
0.41	41	0.175	-1.022	-0.094	1.2032118	10.599723	-0.6875496	82.08769266	4.51490904	-58.86570492
0.42	42	0.171	-1.046	-0.101	1.3750992	9.5683986	0.9167328	82.1048814	4.52063862	-58.76830206
0.43	43	0.16	-1.06	-0.1	1.7761698	7.9641162	3.2658606	82.12779972	4.49199072	-58.68235836
0.44	44	0.146	-1.068	-0.097	1.8334656	6.3598338	5.7868758	82.15071804	4.44615408	-58.6136034
0.45	45	0.134	-1.08	-0.102	1.7761698	4.5263682	8.1932994	82.17936594	4.3831287	-58.55057802
0.46	46	0.113	-1.089	-0.108	1.6042824	2.578311	10.2559482	82.19655468	4.27999626	-58.51047096
0.47	47	0.098	-1.096	-0.104	0.859437	1.6615782	12.7769634	82.20801384	4.15967508	-58.47609348
0.48	48	0.091	-1.086	-0.113	-0.6875496	1.432395	15.756345	82.20801384	4.00497642	-58.441716
0.49	49	0.076	-1.061	-0.123	-2.2345362	0	18.2200644	82.18509552	3.82735944	-58.41879768
0.5	50	0.058	-1.031	-0.132	-3.2658606	-3.0366774	19.1367972	82.15071804	3.63255372	-58.42452726
0.51	51	0.041	-1.01	-0.124	-4.1825934	-8.021412	19.3659804	82.1048814	3.43201842	-58.48182306
0.52	52	0.021	-1.006	-0.119	-5.9587632	-12.7196676	19.7097552	82.04185602	3.22002396	-58.57922592
0.53	53	0	-0.996	-0.121	-8.3651868	-15.183387	20.1681216	81.95018274	3.0080295	-58.6995471
0.54	54	-0.021	-0.976	-0.12	-8.4797784	-15.9282324	20.3973048	81.85850946	2.78457588	-58.83132744
0.55	55	-0.048	-0.954	-0.113	-6.4744254	-15.0687954	19.9389384	81.7897545	2.56112226	-58.9573782
0.56	56	-0.065	-0.936	-0.099	-4.3544808	-12.318597	19.0222056	81.74391786	2.35485738	-59.05478106
0.57	57	-0.08	-0.922	-0.075	-3.2658606	-8.4224826	17.4179232	81.70954038	2.1772404	-59.11207686
0.58	58	-0.103	-0.904	-0.054	-4.7555514	-5.5576926	15.183387	81.66370374	2.01681216	-59.14645434
0.59	59	-0.125	-0.88	-0.026	-7.0473834	-4.9847346	12.6623718	81.5892192	1.88503182	-59.18083182
0.6	60	-0.125	-0.872	-0.001	-9.167328	-5.9587632	9.6256944	81.50900508	1.75898106	-59.23239804
0.61	61	-0.108	-0.898	0.008	-12.7769634	-7.2192708	7.3338624	81.37722474	1.67876694	-59.29542342
0.62	62	-0.098	-0.946	0.019	-16.4438946	-7.5057498	5.7868758	81.21106692	1.61001198	-59.3584488
0.63	63	-0.103	-1.021	0.023	-18.048177	-6.302538	5.156622	81.02772036	1.5469866	-59.4157446
0.64	64	-0.11	-1.084	0.028	-16.5584862	-4.3544808	6.4744254	80.86156254	1.47823164	-59.45012208
0.65	65	-0.095	-1.139	0.023	-13.6936962	-2.9793816	9.2246238	80.74124136	1.36936962	-59.4730404
0.66	66	-0.062	-1.148	0.008	-9.9694692	-3.0939732	11.5164558	80.63810892	1.24904844	-59.48449956
0.67	67	-0.041	-1.127	-0.009	-6.0733548	-4.4117766	13.0061466	80.57508354	1.1172681	-59.50741788
0.68	68	-0.033	-1.073	-0.014	-2.578311	-6.1306506	13.750992	80.55216522	0.9740286	-59.54752494
0.69	69	-0.044	-1.026	-0.012	-1.3750992	-7.6776372	13.9228794	80.53497648	0.82505952	-59.59909116
0.7	70	-0.055	-0.988	-0.007	-3.437748	-7.7922288	12.8342592	80.52351732	0.67609044	-59.66211654
0.71	71	-0.063	-0.973	-0.001	-5.6149884	-7.3338624	11.172681	80.4719511	0.55576926	-59.71368276
0.72	72	-0.063	-0.969	0	-9.2819196	-6.589017	9.1100322	80.37454824	0.45263682	-59.76524898
0.73	73	-0.066	-0.971	-0.003	-12.1467096	-6.3598338	7.5057498	80.25422706	0.3724227	-59.8168152
0.74	74	-0.069	-0.981	-0.001	-13.750992	-6.589017	6.589017	80.11098756	0.29220858	-59.874111
0.75	75	-0.074	-1.001	-0.006	-15.2979786	-6.9900876	6.5317212	79.97920722	0.20626488	-59.93713638
0.76	76	-0.084	-1.014	-0.018	-16.6730778	-7.0473834	6.6463128	79.8130494	0.12605076	-59.99443218
0.77	77	-0.087	-1.018	-0.035	-16.902261	-6.6463128	7.1046792	79.641162	0.04583664	-60.05172798
0.78	78	-0.092	-1.012	-0.04	-15.9282324	-6.5317212	7.161975	79.48073376	-0.0286479	-60.1032942
0.79	79	-0.094	-0.996	-0.035	-14.7823164	-5.6722842	7.0473834	79.33176468	-0.10886202	-60.14913084
0.8	80	-0.095	-0.981	-0.024	-13.8082878	-4.4690724	6.3598338	79.21717308	-0.2005353	-60.1892379
0.81	81	-0.094	-0.973	-0.006	-14.32395	-2.86479	5.3285094	79.07393358	-0.2578311	-60.20642664
0.82	82	-0.096	-0.972	0.006	-15.4125702	-0.9740286	4.297185	78.91923492	-0.30366774	-60.21215622
0.83	83	-0.1	-0.975	0.016	-15.6417534	1.432395	3.0366774	78.75880668	-0.33231564	-60.19496748
0.84	84	-0.102	-0.979	0.025	-15.3552744	4.4690724	1.8907614	78.59837844	-0.3437748	-60.14913084
0.85	85	-0.108	-0.987	0.028	-15.6990492	8.021412	1.0313244	78.47805726	-0.36669312	-60.0746463
0.86	86	-0.104	-0.987	0.024	-15.9855282	11.45916	0.1718874	78.31189944	-0.34950438	-59.96578428
0.87	87	-0.097	-0.998	0.022	-15.6990492	13.8655836	-0.2291832	78.1514712	-0.32658606	-59.82827436
0.88	88	-0.083	-1.015	0.01	-15.0114996	15.0114996	-0.2291832	77.99104296	-0.29793816	-59.68503486
0.89	89	-0.061	-1.031	0.006	-11.45916	15.8709366	-0.5156622	77.87645136	-0.26356068	-59.53606578
0.9	90	-0.056	-1.036	0.003	-5.6149884	17.3606274	-0.859437	77.85353304	-0.23491278	-59.36990796
0.91	91	-0.069	-1.019	-0.016	-1.3750992	18.5638392	-0.9167328	77.8363443	-0.19480572	-59.19229098
0.92	92	-0.1	-0.97	0.011	1.0313244	22.1161788	-2.3491278	77.84207388	-0.13178034	-58.9860261
0.93	93	-0.112	-0.951	0.036	4.9847346	27.2728008	-4.0680018	77.88791052	-0.04010706	-58.728195
0.94	94	-0.095	-0.962	0.038	7.2192708	29.6219286	-5.2712136	77.95666548	0.06302538	-58.44744558
0.95	95	-0.072	-0.975	0.025	6.9900876	31.9710564	-7.161975	78.04833876	0.17761698	-58.155237
0.96	96	-0.093	-1.018	-0.02	5.7868758	34.37748	-9.453807	78.09990498	0.33231564	-57.8401101
0.97	97	-0.1	-1.108	-0.063	0.6875496	31.226211	-9.6829902	78.10563456	0.48128472	-57.5536311
0.98	98	-0.078	-1.196	-0.076	-7.0473834	25.4393352	-8.4224826	78.03115002	0.60733548	-57.3244479
0.99	99	0.016	-1.336	-0.183	-9.8548776	16.9595568	-5.2712136	77.93374716	0.6875496	-57.16974924
1	100	0.158	-1.459	-0.27	-11.745639	16.042824	-0.6875496	77.81342598	0.72765666	-57.01505058
1.01	101	0.278	-1.468	-0.289	-6.9900876	13.6936962	5.5003968	77.74467102	0.69900876	-56.87181108
1.02	102	0.259	-1.445	-0.356	6.9327918	7.6203414	9.5111028	77.81342598	0.61879464	-56.77440822
1.03	103	0.162	-1.369	-0.364	21.6005166	-0.8021412	10.313244	78.03115002	0.52139178	-56.76294906
1.04	104	0.076	-1.272	-0.35	32.7159018	-0.9740286	9.3392154	78.36346566	0.4297185	-56.7514899
1.05	105	-0.003	-1.149	-0.33	37.0703826	2.1772404	7.5630456	78.73015878	0.36096354	-56.71138284
1.06	106	-0.045	-1.023	-0.327	34.663959	8.3651868	3.7815228	79.08539274	0.3437748	-56.61970956
1.07	107	-0.06	-0.891	-0.337	31.5699858	15.756345	-2.291832	79.40624922	0.39534102	-56.4650109
1.08	108	-0.04	-0.786	-0.313	28.9916748	18.5638392	-8.9381448	79.6984578	0.50993262	-56.29885308
1.09	109	-0.016	-0.722	-0.275	24.637194	19.6524594	-14.037471	79.94482974	0.68182002	-56.12696568
1.1	110	-0.002	-0.714	-0.244	17.761698	21.0275586	-15.5271618	80.11671714	0.86516658	-55.94361912
1.11	111	-0.013	-0.771	-0.247	6.9327918	24.350715	-13.6364004	80.1854721	1.0313244	-55.73162466
1.12	112	-0.03	-0.813	-0.304	-5.72958	27.788463	-9.9694692	80.1281763	1.16883432	-55.47379356
1.13	113	-0.045	-0.838	-0.359	-14.6677248	28.074942	-5.6722842	79.97920722	1.26623718	-55.21023288
1.14	114	-0.042	-0.868	-0.374	-17.5898106	24.8090814	-1.718874	79.80159024	1.3178034	-54.96959052
1.15	115	-0.006	-0.898	-0.368	-17.2460358	20.2254174	1.0313244	79.60105494	1.32926256	-54.7747848
1.16	116	0.053	-0.929	-0.345	-14.3812458	15.8709366	1.6042824	79.45781544	1.34072172	-54.62008614
1.17	117	0.122	-0.96	-0.327	-10.313244	13.0061466	-0.1145916	79.354683	1.35791046	-54.49403538
1.18	118	0.155	-0.986	-0.317	-7.161975	12.6623718	-4.6982556	79.28019846	1.42666542	-54.37944378
1.19	119	0.171	-0.989	-0.318	-3.9534102	13.3499214	-10.6570188	79.2400914	1.5469866	-54.27058176
1.2	120	0.182	-0.973	-0.323	0	13.5218088	-16.4438946	79.21717308	1.75898106	-54.16171974
1.21	121	0.183	-0.96	-0.318	3.2085648	13.1207382	-20.6837838	79.25155056	1.98243468	-54.07004646
1.22	122	0.166	-0.965	-0.293	5.3858052	10.7716104	-22.7464326	79.30884636	2.22307704	-54.00702108
1.23	123	0.137	-0.967	-0.254	7.7922288	7.161975	-23.3766864	79.3833309	2.4637194	-53.97837318
1.24	124	0.098	-0.974	-0.214	8.59437	5.3285094	-23.0902074	79.47500418	2.69863218	-53.96691402
1.25	125	0.059	-0.975	-0.176	5.6722842	4.3544808	-22.4026578	79.5265704	2.9220858	-53.96118444
1.26	126	0.03	-0.97	-0.144	0.4583664	3.3804522	-21.6005166	79.53229998	3.13980984	-53.96691402
1.27	127	0.028	-0.961	-0.109	-5.0420304	1.718874	-22.058883	79.48073376	3.35753388	-53.98983234
1.28	128	0.045	-0.961	-0.134	-10.9434978	2.8074942	-22.8610242	79.36614216	3.5809875	-54.0012915
1.29	129	0.073	-0.949	-0.167	-15.2406828	5.5003968	-23.2620948	79.2114435	3.81590028	-53.99556192
1.3	130	0.097	-0.934	-0.197	-17.0741484	8.021412	-22.4026578	79.03382652	4.05654264	-53.95545486
1.31	131	0.122	-0.912	-0.216	-15.6417534	9.5683986	-21.0848544	78.87339828	4.27426668	-53.90388864
1.32	132	0.129	-0.881	-0.206	-11.2299768	8.9381448	-19.5378678	78.76453626	4.48053156	-53.858052
1.33	133	0.14	-0.877	-0.164	-3.9534102	4.9274388	-18.1627686	78.7244292	4.66387812	-53.84086326
1.34	134	0.124	-0.893	-0.111	-4.3544808	-0.1145916	-16.5584862	78.67286298	4.82430636	-53.87524074
1.35	135	0.104	-0.918	-0.014	-3.724227	-2.7501984	-14.3812458	78.67286298	4.96754586	-53.92680696
1.36	136	0.085	-0.956	-0.001	-9.1100322	-4.9274388	-11.6310474	78.56973054	5.0706783	-53.99556192
1.37	137	0.079	-0.987	-0.027	-15.2979786	-3.724227	-9.2246238	78.4093023	5.15089242	-54.05285772
1.38	138	0.086	-1.006	-0.057	-18.4492476	-2.291832	-7.8495246	78.22022616	5.22537696	-54.09296478
1.39	139	0.088	-1.004	-0.075	-16.3865988	-3.0939732	-7.734933	78.04833876	5.29413192	-54.13880142
1.4	140	0.096	-0.983	-0.078	-11.3445684	-5.7868758	-9.2246238	77.9509359	5.37434604	-54.21328596
1.41	141	0.096	-0.964	-0.068	-4.4117766	-9.0527364	-11.0580894	77.8936401	5.46601932	-54.32214798
1.42	142	0.097	-0.939	-0.046	3.4950438	-13.0061466	-13.0634424	77.91655842	5.56915176	-54.47684664
1.43	143	0.099	-0.907	0.01	10.4278356	-18.1627686	-14.3812458	78.00250212	5.67801378	-54.68311152
1.44	144	0.115	-0.899	0.059	15.469866	-25.3820394	-15.5271618	78.13428246	5.78114622	-54.96386094
1.45	145	0.133	-0.904	0.086	15.756345	-28.9916748	-16.615782	78.28898112	5.9014674	-55.27325826
1.46	146	0.16	-0.932	0.084	13.3499214	-29.9084076	-17.4179232	78.39784314	6.02178858	-55.59984432
1.47	147	0.189	-0.955	0.066	11.745639	-29.7365202	-18.621135	78.48378684	6.15356892	-55.92643038
1.48	148	0.209	-0.973	0.044	13.5218088	-30.7678446	-20.05353	78.58691928	6.29680842	-56.27020518
1.49	149	0.215	-0.972	0.037	14.5531332	-33.1742682	-20.3973048	78.70151088	6.4457775	-56.63116872
1.5	150	0.217	-0.942	0.036	15.0687954	-36.955791	-20.1108258	78.82756164	6.589017	-57.02650974
1.51	151	0.21	-0.902	0.034	15.5271618	-40.7373138	-19.3659804	78.94215324	6.71506776	-57.46195782
1.52	152	0.195	-0.87	0.033	15.0687954	-45.8939358	-17.761698	79.04528568	6.8182002	-57.94324254
1.53	153	0.173	-0.862	0.039	13.5791046	-50.420304	-15.6417534	79.1254998	6.88695516	-58.4703639
1.54	154	0.156	-0.877	0.047	12.2040054	-54.5456016	-13.0634424	79.18852518	6.9327918	-59.02613316
1.55	155	0.149	-0.907	0.056	10.8289062	-58.6708992	-9.8548776	79.25155056	6.93852138	-59.6162799
1.56	156	0.153	-0.947	0.055	8.9954406	-62.9680842	-6.302538	79.27446888	6.9041439	-60.2465337
1.57	157	0.157	-0.982	0.055	7.3338624	-67.8382272	-3.0939732	79.27446888	6.82965936	-60.92262414
1.58	158	0.133	-1.026	0.051	6.3598338	-72.6510744	-0.5156622	79.2687393	6.72079734	-61.63309206
1.59	159	0.132	-1.064	0.036	4.8128472	-76.3180056	1.4896908	79.2400914	6.58328742	-62.38366704
1.6	160	0.143	-1.092	0.025	-0.7448454	-80.4433032	3.3804522	79.16560686	6.42858876	-63.16288992
1.61	161	0.168	-1.109	-0.001	-3.437748	-82.4486562	4.5263682	79.05101526	6.25097178	-63.96503112
1.62	162	0.195	-1.154	-0.048	-3.8388186	-81.4173318	5.3285094	78.94215324	6.06762522	-64.75571316
1.63	163	0.217	-1.208	-0.119	-2.0626488	-76.2607098	6.589017	78.85047996	5.87854908	-65.4890994
1.64	164	0.217	-1.242	-0.18	2.9793816	-67.0933818	8.0787078	78.82756164	5.68947294	-66.13081236
1.65	165	0.184	-1.27	-0.228	11.5737516	-54.7747848	9.740286	78.90204618	5.50612638	-66.64647456
1.66	166	0.099	-1.293	-0.253	18.1627686	-45.2063862	11.1153852	79.05101526	5.32277982	-67.07046348
1.67	167	-0.06	-1.313	-0.225	23.0902074	-39.6486936	12.032118	79.25728014	5.14516284	-67.43142702
1.68	168	-0.214	-1.316	-0.186	18.5638392	-26.1841806	13.5791046	79.42916754	4.97327544	-67.66061022
1.69	169	-0.304	-1.301	-0.115	11.9175264	-16.9595568	14.1520626	79.54375914	4.8128472	-67.80384972
1.7	170	-0.272	-1.275	-0.173	2.6356068	-15.5271618	14.5531332	79.56094788	4.62377106	-67.93563006
1.71	171	-0.096	-1.245	-0.215	-3.0939732	-19.767051	15.5844576	79.52084082	4.4404245	-68.10178788
1.72	172	0.119	-1.225	-0.261	-4.4690724	-23.6058696	18.4492476	79.46354502	4.22270046	-68.30232318
1.73	173	0.311	-1.204	-0.31	0.4010706	-31.8564648	23.6058696	79.45208586	3.94195104	-68.57161344
1.74	174	0.42	-1.169	-0.325	6.7036086	-39.0757356	29.3927454	79.50365208	3.59817624	-68.8981995
1.75	175	0.469	-1.083	-0.291	12.032118	-45.6074568	33.0596766	79.60678452	3.22575354	-69.28208136
1.76	176	0.417	-0.956	-0.291	13.2926256	-54.9466722	32.6013102	79.72137612	2.82468294	-69.7576365
1.77	177	0.292	-0.827	-0.321	10.2559482	-60.733548	27.8457588	79.8130494	2.4637194	-70.3019466
1.78	178	0.126	-0.714	-0.356	5.9014674	-62.7961968	20.9702628	79.85888604	2.16578124	-70.88063418
1.79	179	-0.034	-0.655	-0.39	-0.1718874	-59.0719698	13.8082878	79.8416973	1.94232762	-71.43640344
1.8	180	-0.194	-0.648	-0.434	-8.5370742	-51.6808116	7.3338624	79.71564654	1.77044022	-71.9348769
1.81	181	-0.336	-0.706	-0.463	-16.902261	-40.1643558	1.6042824	79.53802956	1.6902261	-72.33021792
1.82	182	-0.414	-0.794	-0.473	-23.3766864	-24.2361234	-3.151269	79.2973872	1.67876694	-72.57086028
1.83	183	-0.459	-0.915	-0.49	-25.8977016	-8.0787078	-7.2765666	79.03382652	1.73606274	-72.66826314
1.84	184	-0.465	-1.04	-0.442	-21.9442914	12.4904844	-10.4851314	78.8103729	1.85638392	-72.57086028
1.85	185	-0.399	-1.105	-0.384	-15.8709366	26.1841806	-10.4278356	78.64421508	1.97097552	-72.34167708
1.86	186	-0.294	-1.142	-0.309	-10.886202	34.8931422	-6.9900876	78.54108264	2.09702628	-72.01509102
1.87	187	-0.147	-1.166	-0.282	-9.167328	38.5600734	-0.6302538	78.45513894	2.17151082	-71.64266832
1.88	188	0.003	-1.18	-0.284	-9.6256944	39.0184398	7.448454	78.36919524	2.16578124	-71.2473273
1.89	189	0.121	-1.209	-0.284	-9.2819196	37.7006364	15.9282324	78.28325154	2.07410796	-70.85198628
1.9	190	0.168	-1.233	-0.282	-9.5111028	36.0390582	22.2880662	78.19730784	1.92513888	-70.45664526
1.91	191	0.159	-1.258	-0.295	-7.2192708	33.4034514	25.8977016	78.12855288	1.73033316	-70.07849298
1.92	192	0.097	-1.242	-0.254	-1.6042824	28.1322378	27.1582092	78.1228233	1.51260912	-69.74617734
1.93	193	0.015	-1.145	-0.228	0.9740286	24.2361234	25.6685184	78.13428246	1.30634424	-69.45969834
1.94	194	-0.038	-1.023	-0.224	1.2032118	21.0275586	21.8869956	78.1514712	1.13445684	-69.2133264
1.95	195	-0.041	-0.932	-0.213	0.0572958	18.5065434	16.7876694	78.14574162	0.99121734	-69.00133194
1.96	196	-0.031	-0.878	-0.213	-1.7761698	16.5011904	12.2040054	78.12855288	0.89954406	-68.81798538
1.97	197	-0.01	-0.846	-0.212	-4.0680018	14.7250206	8.7089616	78.08844582	0.84224826	-68.65755714
1.98	198	-0.001	-0.836	-0.227	-6.7609044	13.5218088	6.875496	78.01969086	0.79641162	-68.50858806
1.99	199	-0.001	-0.812	-0.224	-8.4797784	12.2040054	5.9587632	77.93374716	0.76203414	-68.3825373
2	200	0.003	-0.784	-0.203	-10.2559482	12.1467096	5.6149884	77.81915556	0.72765666	-68.25075696
2.01	201	0	-0.754	-0.19	-12.0894138	12.0894138	6.1879464	77.69883438	0.6875496	-68.11897662
2.02	202	-0.006	-0.727	-0.18	-14.610429	12.7196676	7.3911582	77.5498653	0.63598338	-67.9814667
2.03	203	-0.006	-0.714	-0.184	-17.0741484	13.0634424	8.880849	77.3779779	0.572958	-67.8382272
2.04	204	-0.025	-0.722	-0.181	-19.2513888	14.1520626	10.7716104	77.1774426	0.49274388	-67.68352854
2.05	205	-0.04	-0.74	-0.185	-20.4546006	15.4125702	12.605076	76.97117772	0.39534102	-67.50591156
2.06	206	-0.069	-0.77	-0.189	-19.1367972	16.1001198	14.32395	76.776372	0.286479	-67.322565
2.07	207	-0.078	-0.818	-0.175	-18.048177	17.3606274	16.1574156	76.58729586	0.16042824	-67.11630012
2.08	208	-0.065	-0.864	-0.173	-17.9335854	19.8816426	17.8189938	76.4039493	0.0286479	-66.88711692
2.09	209	-0.045	-0.887	-0.169	-15.6990492	22.0015872	17.8762896	76.24352106	-0.09740286	-66.6350154
2.1	210	-0.034	-0.902	-0.139	-13.0634424	23.5485738	16.7303736	76.1174703	-0.21199446	-66.36572514
2.11	211	-0.021	-0.919	-0.112	-12.891555	23.3766864	14.9542038	75.97996038	-0.30939732	-66.10789404
2.12	212	-0.022	-0.935	-0.118	-14.3812458	22.9756158	12.7196676	75.8309913	-0.38388186	-65.85579252
2.13	213	-0.028	-0.939	-0.108	-14.6677248	22.2307704	10.1986524	75.67629264	-0.43544808	-65.62087974
2.14	214	-0.03	-0.935	-0.118	-13.750992	21.7151082	7.9068204	75.53305314	-0.46982556	-65.39169654
2.15	215	-0.028	-0.924	-0.113	-12.032118	21.0275586	6.1879464	75.42419112	-0.4870143	-65.1739725
2.16	216	-0.006	-0.923	-0.059	-8.021412	19.4232762	4.9847346	75.33824742	-0.49274388	-64.9734372
2.17	217	0.003	-0.926	-0.025	-7.448454	17.3033316	4.0680018	75.2580333	-0.49274388	-64.8015498
2.18	218	0.001	-0.919	-0.018	-8.0787078	15.9282324	2.86479	75.1720896	-0.4870143	-64.64112156
2.19	219	-0.001	-0.911	-0.013	-6.3598338	14.9542038	0.9740286	75.10333464	-0.4583664	-64.49215248
2.2	220	-0.012	-0.918	-0.066	-4.4690724	12.891555	-0.9167328	75.09760506	-0.42398892	-64.3718313
2.21	221	-0.021	-0.93	-0.114	-1.0313244	9.740286	-1.8334656	75.08041632	-0.38388186	-64.2858876
2.22	222	-0.02	-0.948	-0.09	5.6722842	6.7036086	-2.005353	75.13771212	-0.34950438	-64.22286222
2.23	223	-0.025	-0.987	-0.021	13.5218088	6.1306506	-2.1199446	75.27522204	-0.3151269	-64.171296
2.24	224	-0.048	-1.021	0.033	18.7930224	9.6829902	-3.0366774	75.46429818	-0.2578311	-64.07962272
2.25	225	-0.082	-1.048	0.066	21.6005166	14.7823164	-4.3544808	75.72212928	-0.19480572	-63.95357196
2.26	226	-0.136	-1.073	0.095	22.9756158	21.3140376	-5.9014674	75.95131248	-0.09167328	-63.75876624
2.27	227	-0.191	-1.091	0.055	20.4546006	29.9657034	-7.5630456	76.15757736	0.04010706	-63.4837464
2.28	228	-0.247	-1.098	-0.012	15.6990492	38.2735944	-8.4224826	76.31227602	0.20626488	-63.13424202
2.29	229	-0.286	-1.091	-0.064	11.2872726	44.1750618	-8.59437	76.42113804	0.37815228	-62.72171226
2.3	230	-0.291	-1.079	-0.118	6.1306506	49.2170922	-9.5683986	76.489893	0.55003968	-62.27480502
2.31	231	-0.243	-1.069	-0.207	1.0313244	53.9726436	-11.2299768	76.50135216	0.76776372	-61.77633156
2.32	232	-0.149	-1.082	-0.252	-0.5156622	58.0979412	-12.3758928	76.49562258	1.00840608	-61.24348062
2.33	233	-0.034	-1.095	-0.293	-2.7501984	56.5509546	-11.2872726	76.46697468	1.2318597	-60.72208884
2.34	234	0.093	-1.101	-0.355	-2.6356068	51.3943326	-9.2246238	76.44405636	1.42666542	-60.2465337
2.35	235	0.195	-1.123	-0.398	0.2291832	42.4561878	-7.161975	76.43832678	1.59855282	-59.85119268
2.36	236	0.259	-1.127	-0.401	3.7815228	32.658606	-7.6203414	76.48416342	1.74179232	-59.55325452
2.37	237	0.282	-1.117	-0.407	6.302538	24.6944898	-10.1413566	76.55291838	1.8907614	-59.33553048
2.38	238	0.279	-1.108	-0.393	8.8235532	15.8136408	-13.6364004	76.64459166	2.05691922	-59.20947972
2.39	239	0.238	-1.091	-0.394	8.880849	8.4224826	-18.2200644	76.73053536	2.25172494	-59.16937266
2.4	240	0.189	-1.064	-0.404	7.161975	3.3804522	-23.3193906	76.78210158	2.49809688	-59.1865614
2.41	241	0.137	-1.043	-0.414	7.3911582	2.578311	-26.4706596	76.85658612	2.76165756	-59.22093888
2.42	242	0.103	-1.029	-0.408	7.9641162	3.437748	-27.8457588	76.93107066	3.04240698	-59.2438572
2.43	243	0.079	-0.996	-0.399	9.7975818	4.5263682	-28.0176462	77.02847352	3.3231564	-59.26104594
2.44	244	0.05	-0.95	-0.39	11.745639	4.0680018	-26.8717302	77.1487947	3.59244666	-59.28396426
2.45	245	0.032	-0.913	-0.386	13.0061466	3.151269	-24.637194	77.24619756	3.83308902	-59.30688258
2.46	246	0.038	-0.871	-0.373	13.5218088	1.2032118	-20.9702628	77.3779779	4.0393539	-59.34126006
2.47	247	0.07	-0.835	-0.344	13.178034	-1.0313244	-16.6730778	77.50975824	4.19978214	-59.38136712
2.48	248	0.092	-0.833	-0.321	10.8289062	-5.443101	-11.6310474	77.61289068	4.30291458	-59.46158124
2.49	249	0.124	-0.84	-0.29	7.5630456	-9.6256944	-7.9068204	77.68737522	4.36593996	-59.57044326
2.5	250	0.145	-0.872	-0.269	5.9587632	-12.9488508	-5.156622	77.71029354	4.41750618	-59.7022236
2.51	251	0.151	-0.9	-0.243	5.5003968	-15.6990492	-3.2658606	77.75613018	4.42323576	-59.86265184
2.52	252	0.148	-0.936	-0.23	3.8961144	-17.2460358	-2.2345362	77.79050766	4.4117766	-60.03453924
2.53	253	0.143	-0.97	-0.239	1.145916	-16.7303736	-1.9480572	77.79050766	4.40031744	-60.20069706
2.54	254	0.136	-0.99	-0.253	-1.718874	-15.6417534	-2.3491278	77.76185976	4.39458786	-60.3611253
2.55	255	0.115	-1.011	-0.26	-3.5523396	-14.2093584	-3.8961144	77.69883438	4.41750618	-60.51009438
2.56	256	0.11	-1.024	-0.277	-4.583664	-11.6883432	-6.6463128	77.64153858	4.45761324	-60.63614514
2.57	257	0.099	-1.019	-0.291	-3.5523396	-8.7662574	-9.2246238	77.59570194	4.53209778	-60.73927758
2.58	258	0.093	-0.99	-0.293	-1.2605076	-5.8441716	-10.599723	77.5785132	4.62377106	-60.8194917
2.59	259	0.089	-0.96	-0.273	0	-4.7555514	-11.4018642	77.57278362	4.7269035	-60.89397624
2.6	260	0.092	-0.947	-0.262	-0.859437	-4.1252976	-12.1467096	77.53267656	4.8414951	-60.95700162
2.61	261	0.089	-0.938	-0.252	-2.4637194	-2.6929026	-12.1467096	77.49829908	4.9560867	-61.01429742
2.62	262	0.074	-0.934	-0.236	-3.9534102	-0.5156622	-11.745639	77.45819202	5.0706783	-61.04294532
2.63	263	0.071	-0.935	-0.224	-5.6722842	2.2345362	-11.2872726	77.40089622	5.17954032	-61.0486749
2.64	264	0.075	-0.948	-0.228	-8.4797784	6.0733548	-11.1153852	77.31495252	5.2998615	-61.01429742
2.65	265	0.084	-0.943	-0.247	-11.2872726	9.453807	-10.9434978	77.18890176	5.42591226	-60.94554246
2.66	266	0.098	-0.931	-0.266	-12.5477802	11.2299768	-10.5424272	77.06858058	5.54623344	-60.85959876
2.67	267	0.117	-0.915	-0.269	-12.032118	9.453807	-10.2559482	76.95398898	5.66082504	-60.7908438
2.68	268	0.146	-0.899	-0.248	-10.6570188	6.4744254	-10.5424272	76.84512696	5.77541664	-60.75073674
2.69	269	0.163	-0.904	-0.205	-8.4224826	2.86479	-11.3445684	76.75918326	5.89000824	-60.75073674
2.7	270	0.167	-0.923	-0.176	-8.307891	0.0572958	-11.9175264	76.68469872	6.03324774	-60.77365506
2.71	271	0.16	-0.934	-0.155	-9.5683986	0	-11.6883432	76.58156628	6.14783934	-60.79657338
2.72	272	0.164	-0.947	-0.161	-11.45916	0.9740286	-10.7716104	76.4612451	6.25097178	-60.81376212
2.73	273	0.17	-0.947	-0.185	-12.5477802	1.3750992	-9.7975818	76.33519434	6.34837464	-60.82522128
2.74	274	0.184	-0.932	-0.194	-11.5737516	0.0572958	-8.9954406	76.21487316	6.43431834	-60.8481396
2.75	275	0.201	-0.921	-0.184	-8.6516658	-2.3491278	-8.3651868	76.13465904	6.54890994	-60.8767875
2.76	276	0.18	-0.924	-0.155	-4.8128472	-4.8128472	-8.1932994	76.07736324	6.6176649	-60.94554246
2.77	277	0.178	-0.933	-0.106	-2.7501984	-6.875496	-7.734933	76.03725618	6.6749607	-61.03148616
2.78	278	0.161	-0.946	-0.066	-2.005353	-7.5630456	-6.9327918	76.00860828	6.72652692	-61.12315944
2.79	279	0.143	-0.975	-0.044	-4.010706	-7.9068204	-5.6722842	75.95704206	6.76663398	-61.21483272
2.8	280	0.119	-0.982	-0.059	-7.3911582	-9.167328	-3.724227	75.92266458	6.78382272	-61.306506
2.81	281	0.114	-0.989	-0.08	-8.880849	-9.6256944	-2.2345362	75.81953214	6.78382272	-61.40390886
2.82	282	0.121	-0.983	-0.083	-8.4797784	-11.5737516	-1.145916	75.72212928	6.76663398	-61.52423004
2.83	283	0.138	-0.978	-0.072	-4.010706	-15.0114996	0	75.66483348	6.7322565	-61.66746954
2.84	284	0.163	-0.977	-0.056	0.1145916	-17.4179232	0.6875496	75.65337432	6.69214944	-61.83362736
2.85	285	0.183	-0.969	-0.015	2.578311	-21.199446	1.432395	75.71067012	6.65204238	-62.0227035
2.86	286	0.195	-0.978	0.019	3.7815228	-24.064236	2.4637194	75.72785886	6.57755784	-62.2518867
2.87	287	0.205	-1.004	0.025	2.9220858	-25.3820394	3.7815228	75.73358844	6.48588456	-62.49252906
2.88	288	0.217	-1.006	0.001	2.5210152	-25.1528562	4.9847346	75.73931802	6.38275212	-62.72171226
2.89	289	0.226	-0.996	0.001	5.3285094	-27.215505	5.3285094	75.76796592	6.2738901	-62.97381378
2.9	290	0.212	-0.982	-0.006	8.1360036	-31.2835068	4.6982556	75.85390962	6.18221682	-63.2545632
2.91	291	0.197	-0.969	-0.007	11.0580894	-35.0077338	3.7815228	75.93985332	6.06762522	-63.58687884
2.92	292	0.182	-0.971	0.019	13.0061466	-39.9924684	2.8074942	76.03725618	5.9587632	-63.96503112
2.93	293	0.17	-0.985	0.02	11.8029348	-44.690724	1.7761698	76.1174703	5.84990118	-64.39474962
2.94	294	0.163	-0.991	0.01	10.0840608	-48.4722468	1.432395	76.18049568	5.73530958	-64.86457518
2.95	295	0.184	-1.003	0.012	8.9954406	-53.858052	1.2605076	76.24925064	5.62071798	-65.3745078
2.96	296	0.206	-1.006	0.039	7.161975	-63.0826758	1.145916	76.27216896	5.47747848	-65.98757286
2.97	297	0.216	-1.014	0.052	3.0366774	-71.333271	1.145916	76.24925064	5.32277982	-66.67512246
2.98	298	0.228	-1.015	0.003	-2.7501984	-76.3180056	1.3178034	76.16330694	5.14516284	-67.41423828
2.99	299	0.239	-1.013	-0.092	-5.8441716	-75.057498	1.6042824	76.04871534	4.97327544	-68.13616536
3	300	0.23	-1.038	-0.169	-6.9327918	-66.6923112	0.572958	75.93985332	4.83576552	-68.7836079
3.01	301	0.166	-1.108	-0.261	-7.5057498	-51.3370368	-1.2605076	75.82526172	4.73836266	-69.28208136
3.02	302	0.068	-1.171	-0.321	-9.9694692	-35.4661002	-1.6042824	75.69921096	4.67533728	-69.63158574
3.03	303	-0.082	-1.176	-0.376	-8.4797784	-24.5798982	-1.5469866	75.59607852	4.63523022	-69.8722281
3.04	304	-0.226	-1.159	-0.476	0.4010706	-22.7464326	-1.4896908	75.59034894	4.60085274	-70.09568172
3.05	305	-0.354	-1.182	-0.425	3.6669312	-22.1161788	-0.8021412	75.6018081	4.52063862	-70.31913534
3.06	306	-0.417	-1.19	-0.395	-1.8907614	-18.8503182	1.4896908	75.5731602	4.4690724	-70.5024819
3.07	307	-0.369	-1.195	-0.348	-5.7868758	-14.1520626	4.297185	75.50440524	4.39458786	-70.62853266
3.08	308	-0.244	-1.225	-0.309	-10.7143146	-5.2712136	6.0733548	75.39554322	4.32010332	-70.66291014
3.09	309	-0.088	-1.25	-0.323	-14.3812458	4.583664	6.6463128	75.25230372	4.2685371	-70.60561434
3.1	310	0.081	-1.261	-0.337	-12.9488508	11.45916	7.6776372	75.12625296	4.22270046	-70.473834
3.11	311	0.279	-1.237	-0.389	-9.9694692	13.0634424	9.7975818	75.03457968	4.1539455	-70.32486492
3.12	312	0.367	-1.199	-0.401	-5.0420304	9.8548776	13.5218088	74.98874304	4.04508348	-70.19308458
3.13	313	0.391	-1.141	-0.4	-2.0626488	5.0420304	18.1627686	74.97728388	3.88465524	-70.1014113
3.14	314	0.352	-1.073	-0.414	-0.8021412	0.9167328	22.2880662	74.9715543	3.67266078	-70.03265634
3.15	315	0.251	-0.998	-0.457	-1.8334656	-2.7501984	24.7517856	74.9142585	3.45493674	-69.99254928
3.16	316	0.112	-0.919	-0.505	-3.9534102	-6.8182002	26.1268848	74.87415144	3.19137606	-69.99254928
3.17	317	-0.011	-0.844	-0.536	-4.9847346	-10.2559482	26.4133638	74.82258522	2.91062664	-70.02119718
3.18	318	-0.109	-0.786	-0.533	-4.0680018	-12.1467096	25.1528562	74.78247816	2.64133638	-70.0727634
3.19	319	-0.163	-0.738	-0.495	-3.6669312	-11.6883432	21.6578124	74.7423711	2.4064236	-70.1300592
3.2	320	-0.161	-0.725	-0.47	-3.7815228	-8.3651868	16.5011904	74.63923866	2.1772404	-70.18162542
3.21	321	-0.113	-0.735	-0.422	-4.010706	-4.297185	11.4018642	74.5991316	2.0626488	-70.19308458
3.22	322	-0.063	-0.745	-0.39	-6.2452422	-0.1718874	6.589017	74.53610622	1.99389384	-70.17589584
3.23	323	-0.023	-0.763	-0.385	-9.167328	1.6042824	3.7815228	74.44443294	1.95951636	-70.15297752
3.24	324	0.015	-0.781	-0.37	-12.032118	2.9220858	2.2345362	74.32411176	1.9480572	-70.11860004
3.25	325	0.047	-0.804	-0.381	-15.0687954	3.9534102	2.1199446	74.12357646	1.94232762	-70.07849298
3.26	326	0.064	-0.842	-0.39	-15.469866	4.297185	3.5523396	73.96314822	1.91367972	-70.02692676
3.27	327	0.06	-0.903	-0.406	-14.896908	3.2658606	6.9900876	73.81417914	1.85638392	-69.97536054
3.28	328	0.036	-0.947	-0.393	-12.605076	1.9480572	10.8289062	73.68812838	1.75325148	-69.9295239
3.29	329	0.004	-0.986	-0.374	-10.599723	2.2345362	14.7250206	73.57926636	1.62147114	-69.86649852
3.3	330	-0.031	-1.009	-0.349	-9.1100322	2.8074942	18.5638392	73.47613392	1.432395	-69.79201398
3.31	331	-0.064	-1.013	-0.346	-7.7922288	4.1825934	21.7151082	73.40164938	1.23758928	-69.69461112
3.32	332	-0.097	-0.997	-0.332	-6.7609044	5.443101	23.6058696	73.33289442	1.02559482	-69.57428994
3.33	333	-0.098	-0.986	-0.318	-8.7662574	5.0420304	24.2361234	73.24695072	0.80787078	-69.45969834
3.34	334	-0.092	-0.973	-0.356	-11.9748222	3.8388186	23.9496444	73.12662954	0.58441716	-69.3565659
3.35	335	-0.066	-0.953	-0.345	-11.45916	3.0366774	22.4599536	72.9948492	0.36669312	-69.26489262
3.36	336	-0.013	-0.951	-0.319	-10.4851314	0.572958	20.05353	72.89171676	0.1718874	-69.20186724
3.37	337	0.024	-0.952	-0.285	-11.6310474	-2.1199446	17.0741484	72.77139558	0.00572958	-69.17321934
3.38	338	0.044	-0.964	-0.254	-11.0580894	-4.9847346	14.4958374	72.65680398	-0.1432395	-69.17894892
3.39	339	0.044	-0.98	-0.213	-10.1413566	-7.5630456	12.6623718	72.55940112	-0.28074942	-69.2133264
3.4	340	0.036	-0.993	-0.176	-11.6310474	-9.6256944	11.4018642	72.46772784	-0.40680018	-69.2706222
3.41	341	0.002	-0.995	-0.189	-14.896908	-11.0007936	11.172681	72.31875876	-0.5443101	-69.34510674
3.42	342	-0.042	-0.981	-0.211	-15.6990492	-10.4851314	12.0894138	72.15833052	-0.69327918	-69.40813212
3.43	343	-0.087	-0.959	-0.229	-15.8136408	-9.7975818	13.6364004	72.00363186	-0.84797784	-69.46542792
3.44	344	-0.139	-0.942	-0.243	-14.1520626	-7.3338624	15.469866	71.86039236	-1.01986524	-69.48834624
3.45	345	-0.176	-0.925	-0.197	-11.172681	-4.1252976	16.4438946	71.76871908	-1.2318597	-69.48834624
3.46	346	-0.181	-0.901	-0.166	-8.4797784	1.0886202	17.18874	71.68277538	-1.39228794	-69.42532086
3.47	347	-0.172	-0.885	-0.136	-5.6722842	6.1306506	16.7303736	71.61975	-1.53552744	-69.31645884
3.48	348	-0.144	-0.877	-0.083	-4.3544808	10.3705398	14.7250206	71.57391336	-1.64438946	-69.16748976
3.49	349	-0.118	-0.872	-0.042	-3.4950438	13.464513	11.45916	71.52807672	-1.71314442	-69.00706152
3.5	350	-0.102	-0.866	-0.05	-3.8388186	16.042824	7.5057498	71.52807672	-1.75898106	-68.83517412
3.51	351	-0.099	-0.855	-0.051	-2.6356068	18.8503182	3.4950438	71.49369924	-1.73606274	-68.64609798
3.52	352	-0.104	-0.845	-0.038	0.9167328	21.7151082	-1.7761698	71.49369924	-1.65584862	-68.44556268
3.53	353	-0.108	-0.841	-0.03	5.2712136	23.5485738	-6.016059	71.53953588	-1.52979786	-68.24502738
3.54	354	-0.119	-0.839	-0.007	10.026765	24.8663772	-10.1413566	71.63120916	-1.36364004	-68.0387625
3.55	355	-0.135	-0.826	-0.005	13.9228794	26.7571386	-13.6936962	71.7916374	-1.1745639	-67.83249762
3.56	356	-0.144	-0.812	-0.012	17.8189938	30.366774	-16.5011904	71.9635248	-0.92819196	-67.59185526
3.57	357	-0.142	-0.808	-0.003	22.1734746	34.8358464	-18.621135	72.18124884	-0.65317212	-67.31683542
3.58	358	-0.141	-0.83	-0.016	24.923673	39.3622146	-20.05353	72.42762078	-0.35523396	-67.00170852
3.59	359	-0.125	-0.863	-0.024	27.2728008	44.2896534	-20.3973048	72.69691104	-0.03437748	-66.6350154
3.6	360	-0.105	-0.918	-0.026	29.2781538	49.4462754	-19.767051	73.00630836	0.26929026	-66.22248564
3.61	361	-0.088	-0.979	-0.079	28.1322378	52.7694318	-18.8503182	73.28705778	0.59014674	-65.76984882
3.62	362	-0.078	-1.025	-0.216	24.0069402	55.0612638	-17.1314442	73.53342972	0.89381448	-65.2885641
3.63	363	-0.027	-1.069	-0.299	20.912967	53.285094	-13.750992	73.74542418	1.16310474	-64.81873854
3.64	364	0.042	-1.106	-0.303	21.2567418	45.550161	-9.9121734	73.96314822	1.3750992	-64.40620878
3.65	365	0.083	-1.126	-0.293	21.9442914	38.8465524	-5.6722842	74.19233142	1.53552744	-64.04524524
3.66	366	0.093	-1.122	-0.288	22.9756158	33.6899304	-2.9793816	74.4272442	1.64438946	-63.73011834
3.67	367	0.057	-1.083	-0.317	22.058883	30.5386614	-3.8388186	74.6564274	1.75898106	-63.44363934
3.68	368	0.006	-1.014	-0.35	20.5118964	32.085648	-7.448454	74.86842186	1.90795014	-63.15143076
3.69	369	0.003	-0.988	-0.349	20.3973048	33.2888598	-10.7143146	75.0861459	2.0912967	-62.85922218
3.7	370	0.043	-1.003	-0.353	19.5951636	32.372127	-12.7769634	75.27522204	2.291832	-62.57847276
3.71	371	0.101	-1.041	-0.329	19.9389384	30.939732	-14.1520626	75.4872165	2.49809688	-62.3091825
3.72	372	0.126	-1.078	-0.322	18.6784308	29.507337	-15.756345	75.68202222	2.71582092	-62.06281056
3.73	373	0.113	-1.119	-0.337	17.475219	28.6479	-16.8449652	75.87109836	2.94500412	-61.8221682
3.74	374	0.083	-1.167	-0.352	16.7876694	28.4187168	-16.615782	76.04871534	3.16272816	-61.58725542
3.75	375	0.069	-1.212	-0.36	16.1001198	29.4500412	-15.0687954	76.21487316	3.37472262	-61.3351539
3.76	376	0.052	-1.216	-0.38	14.32395	31.6845774	-13.6364004	76.3753014	3.57525792	-61.06013406
3.77	377	0.031	-1.187	-0.415	13.9228794	33.5753388	-12.605076	76.53000006	3.76433406	-60.7621959
3.78	378	0.021	-1.131	-0.42	16.8449652	34.0337052	-11.8602306	76.7190762	3.9534102	-60.45852816
3.79	379	0.029	-1.06	-0.384	19.9962342	34.1482968	-11.8602306	76.93680024	4.13675676	-60.14913084
3.8	380	0.06	-0.998	-0.356	21.0848544	33.7472262	-11.9175264	77.1487947	4.32010332	-59.8454631
3.81	381	0.097	-0.945	-0.337	20.2254174	32.8877892	-10.886202	77.3779779	4.49199072	-59.54752494
3.82	382	0.138	-0.894	-0.303	18.9649098	32.1429438	-8.9381448	77.58997236	4.6409598	-59.25531636
3.83	383	0.168	-0.856	-0.276	17.8189938	30.7105488	-6.7036086	77.79050766	4.76128098	-58.96883736
3.84	384	0.177	-0.848	-0.282	13.8082878	28.7624916	-4.4117766	77.94520632	4.85868384	-58.69381752
3.85	385	0.167	-0.853	-0.277	11.1153852	26.929026	-2.005353	78.05406834	4.95035712	-58.43025684
3.86	386	0.164	-0.864	-0.267	10.026765	25.0955604	-0.1718874	78.17438952	4.99619376	-58.1838849
3.87	387	0.152	-0.873	-0.239	10.0840608	22.1734746	0.7448454	78.2947107	5.03057124	-57.96616086
3.88	388	0.148	-0.894	-0.218	8.880849	18.5065434	1.0313244	78.39784314	5.05348956	-57.7828143
3.89	389	0.145	-0.917	-0.211	6.0733548	15.9855282	0.859437	78.47232768	5.0706783	-57.62238606
3.9	390	0.153	-0.957	-0.22	2.6356068	16.042824	0.1718874	78.48951642	5.1279741	-57.46195782
3.91	391	0.161	-1.01	-0.223	0.2291832	17.5325148	-0.572958	78.50670516	5.16808116	-57.29007042
3.92	392	0.17	-1.047	-0.223	-0.859437	19.3659804	-1.3750992	78.51243474	5.2139178	-57.10672386
3.93	393	0.171	-1.054	-0.233	-1.0313244	20.9702628	-1.718874	78.51816432	5.26548402	-56.90045898
3.94	394	0.156	-1.039	-0.237	-1.2605076	22.1734746	-0.6302538	78.51816432	5.31132066	-56.68846452
3.95	395	0.133	-1.008	-0.232	-1.145916	22.5745452	1.3178034	78.51243474	5.34569814	-56.4650109
3.96	396	0.107	-0.974	-0.209	-1.2605076	22.4599536	3.2658606	78.51816432	5.35142772	-56.2358277
3.97	397	0.088	-0.948	-0.186	-1.7761698	22.4599536	4.7555514	78.51816432	5.33996856	-56.0066445
3.98	398	0.077	-0.938	-0.165	-4.0680018	23.3766864	5.5003968	78.495246	5.3285094	-55.77173172
3.99	399	0.082	-0.937	-0.16	-7.6776372	24.923673	5.156622	78.4379502	5.31705024	-55.51390062
4	400	0.102	-0.947	-0.17	-11.8029348	27.0436176	3.8388186	78.33481776	5.3285094	-55.24461036
4.01	401	0.131	-0.951	-0.195	-14.610429	28.4187168	2.4637194	78.208767	5.35142772	-54.96386094
4.02	402	0.165	-0.949	-0.212	-15.0114996	28.3041252	1.3750992	78.08271624	5.39153478	-54.68311152
4.03	403	0.183	-0.933	-0.2	-12.3758928	25.496631	0.5156622	77.97385422	5.42591226	-54.43673958
4.04	404	0.191	-0.915	-0.166	-8.880849	21.6578124	-0.0572958	77.89936968	5.46601932	-54.22474512
4.05	405	0.196	-0.902	-0.114	-6.9327918	18.6784308	-0.5156622	77.8649922	5.54623344	-54.0299394
4.06	406	0.197	-0.904	-0.087	-7.448454	17.4179232	-0.9167328	77.8076964	5.5863405	-53.86378158
4.07	407	0.203	-0.917	-0.068	-11.2299768	17.9908812	-1.5469866	77.70456396	5.63217714	-53.69189418
4.08	408	0.193	-0.934	-0.077	-15.9855282	19.2513888	-2.3491278	77.55559488	5.68947294	-53.5142772
4.09	409	0.189	-0.946	-0.087	-18.1627686	19.8816426	-3.151269	77.38943706	5.75249832	-53.32520106
4.1	410	0.186	-0.953	-0.097	-18.2200644	19.194093	-3.3804522	77.24046798	5.8441716	-53.1418545
4.11	411	0.19	-0.948	-0.09	-17.4179232	18.2200644	-2.9220858	77.07431016	5.90719698	-52.9699671
4.12	412	0.179	-0.938	-0.068	-15.183387	16.2147114	-2.1199446	76.93680024	5.9587632	-52.82099802
4.13	413	0.166	-0.932	-0.052	-13.178034	13.9801752	-0.7448454	76.81647906	5.99314068	-52.68921768
4.14	414	0.155	-0.927	-0.037	-12.4904844	11.9748222	0.6875496	76.69615788	6.00459984	-52.5688965
4.15	415	0.142	-0.917	-0.025	-10.4851314	9.5111028	2.86479	76.6617804	6.016059	-52.46003448
4.16	416	0.14	-0.905	-0.029	-8.1360036	4.8128472	5.156622	76.58156628	5.97595194	-52.40273868
4.17	417	0.152	-0.89	-0.035	-4.6982556	1.3750992	8.1360036	76.53572964	5.89573782	-52.3683612
4.18	418	0.169	-0.868	-0.044	2.3491278	-3.2085648	12.1467096	76.56437754	5.77541664	-52.37409078
4.19	419	0.18	-0.851	-0.037	11.9175264	-9.8548776	16.1001198	76.67896914	5.59779966	-52.43138658
4.2	420	0.187	-0.833	-0.003	21.8296998	-17.761698	19.3086846	76.91388192	5.39153478	-52.55170776
4.21	421	0.188	-0.815	0.033	30.7678446	-24.4080108	21.6578124	77.21182008	5.13943326	-52.7407839
4.22	422	0.192	-0.805	0.099	37.3568616	-30.9970278	23.0902074	77.57278362	4.85868384	-52.98715584
4.23	423	0.193	-0.816	0.158	40.4508348	-37.9871154	22.8610242	77.96239506	4.57220484	-53.30801232
4.24	424	0.213	-0.837	0.177	37.0703826	-44.2323576	20.8556712	78.31762902	4.297185	-53.69189418
4.25	425	0.227	-0.868	0.174	31.7418732	-49.3889796	17.761698	78.64421508	4.06227222	-54.13307184
4.26	426	0.23	-0.913	0.134	22.91832	-53.9726436	14.6677248	78.85047996	3.82735944	-54.62581572
4.27	427	0.239	-0.958	0.073	14.7823164	-58.728195	12.7196676	78.97080114	3.6096354	-55.1758554
4.28	428	0.233	-0.986	0.031	9.8548776	-64.2285918	11.6310474	79.04528568	3.39764094	-55.78319088
4.29	429	0.212	-1.013	0.02	7.3338624	-69.4998054	11.0580894	79.09112232	3.17418732	-56.44209258
4.3	430	0.188	-1.032	0.019	6.6463128	-72.5937786	10.5424272	79.14841812	2.96792244	-57.1239126
4.31	431	0.151	-1.046	-0.005	7.1046792	-73.625103	10.1413566	79.19425476	2.75592798	-57.82292136
4.32	432	0.096	-1.049	0.007	10.0840608	-70.9894962	8.9381448	79.27446888	2.55539268	-58.4990118
4.33	433	0.054	-1.055	-0.013	11.9748222	-66.0620574	6.6463128	79.37760132	2.38923486	-59.13499518
4.34	434	-0.012	-1.085	-0.077	10.8289062	-60.0459984	3.3231564	79.47500418	2.2631841	-59.71368276
4.35	435	-0.1	-1.12	-0.078	8.59437	-52.8840234	-0.7448454	79.56094788	2.17151082	-60.23507454
4.36	436	-0.186	-1.157	-0.162	-0.0572958	-42.2843004	-4.3544808	79.54948872	2.15432208	-60.65333388
4.37	437	-0.27	-1.176	-0.294	-7.7922288	-33.9191136	-7.2192708	79.45781544	2.17151082	-61.00283826
4.38	438	-0.274	-1.145	-0.46	-9.167328	-21.3713334	-9.2246238	79.36041258	2.22880662	-61.22629188
4.39	439	-0.222	-1.074	-0.502	-2.1199446	-7.6776372	-8.7089616	79.33749426	2.29756158	-61.31796516
4.4	440	-0.177	-1.013	-0.412	4.8128472	4.7555514	-7.9641162	79.30884636	2.31475032	-61.30077642
4.41	441	-0.151	-1.001	-0.421	2.291832	14.9542038	-5.443101	79.33749426	2.38923486	-61.16899608
4.42	442	-0.127	-1.036	-0.45	-1.432395	25.1528562	-3.3804522	79.3260351	2.4637194	-60.92835372
4.43	443	-0.095	-1.104	-0.48	-1.8907614	34.950438	-2.291832	79.32030552	2.53820394	-60.5903085
4.44	444	-0.057	-1.142	-0.549	-0.7448454	41.825934	-3.437748	79.3260351	2.64133638	-60.1892379
4.45	445	-0.007	-1.133	-0.564	5.2712136	47.7846972	-6.0733548	79.36614216	2.77311672	-59.7308715
4.46	446	0.063	-1.105	-0.532	12.6623718	50.4775998	-8.1932994	79.51511124	2.92781538	-59.24958678
4.47	447	0.101	-1.091	-0.496	17.7044022	46.6387812	-8.4224826	79.70991696	3.08251404	-58.80840912
4.48	448	0.13	-1.09	-0.428	18.3919518	39.9924684	-7.734933	79.91045226	3.22002396	-58.43025684
4.49	449	0.157	-1.086	-0.398	15.9855282	35.1223254	-7.5057498	80.08806924	3.34607472	-58.0979412
4.5	450	0.169	-1.068	-0.385	14.5531332	30.939732	-8.0787078	80.21984958	3.48931422	-57.80573262
4.51	451	0.197	-1.045	-0.394	14.7250206	28.2468294	-9.8548776	80.3860074	3.62682414	-57.54217194
4.52	452	0.214	-1.031	-0.37	18.1054728	25.8404058	-11.8602306	80.58081312	3.7815228	-57.30725916
4.53	453	0.217	-1.042	-0.303	22.4599536	22.8610242	-13.3499214	80.82145548	3.94195104	-57.10099428
4.54	454	0.206	-1.076	-0.256	25.8404058	19.767051	-13.0634424	81.09074574	4.0966497	-56.9233773
4.55	455	0.178	-1.077	-0.267	29.1062664	16.329303	-11.3445684	81.37722474	4.24561878	-56.77440822
4.56	456	0.139	-1.023	-0.28	35.1796212	13.1207382	-9.1100322	81.74391786	4.3544808	-56.65408704
4.57	457	0.099	-0.941	-0.267	41.4248634	11.5737516	-7.2192708	82.16790678	4.4404245	-56.54522502
4.58	458	0.06	-0.874	-0.228	46.6387812	10.313244	-5.156622	82.6491915	4.50917946	-56.44782216
4.59	459	0.026	-0.834	-0.182	48.6441342	8.9381448	-2.7501984	83.14766496	4.54928652	-56.35614888
4.6	460	0.002	-0.83	-0.177	45.6647526	7.5057498	-0.0572958	83.60030178	4.54928652	-56.28166434
4.61	461	-0.006	-0.831	-0.173	41.0237928	6.7609044	2.4637194	84.0242907	4.53209778	-56.2071798
4.62	462	0.007	-0.839	-0.19	38.2162986	6.016059	4.0680018	84.41390214	4.50344988	-56.13842484
4.63	463	0.031	-0.848	-0.202	36.4401288	5.8441716	4.1825934	84.79205442	4.4690724	-56.06966988
4.64	464	0.056	-0.853	-0.211	37.2995658	5.8441716	3.3804522	85.1702067	4.4404245	-56.0066445
4.65	465	0.067	-0.859	-0.203	39.7632852	6.1306506	2.0626488	85.55408856	4.42896534	-55.94361912
4.66	466	0.07	-0.854	-0.198	42.5134836	6.8182002	1.0886202	85.98953664	4.42323576	-55.86913458
4.67	467	0.052	-0.846	-0.186	47.0398518	7.2765666	1.2032118	86.47082136	4.41750618	-55.79465004
4.68	468	0.037	-0.838	-0.155	52.712136	7.9068204	2.4064236	87.01513146	4.40031744	-55.70870634
4.69	469	0.026	-0.829	-0.138	57.4103916	8.9954406	4.5263682	87.6052782	4.36021038	-55.61130348
4.7	470	0.033	-0.814	-0.097	61.7648724	8.4797784	7.3911582	88.22980242	4.29145542	-55.51390062
4.71	471	0.048	-0.827	-0.078	62.3378304	6.302538	10.886202	88.8657858	4.18832298	-55.44514566
4.72	472	0.07	-0.842	-0.069	60.9054354	2.291832	14.0947668	89.48458044	4.05654264	-55.41076818
4.73	473	0.057	-0.861	-0.055	60.733548	-1.718874	16.7303736	90.10337508	3.89038482	-55.42222734
4.74	474	0	-0.893	-0.056	61.306506	-3.6669312	19.8243468	90.72216972	3.70130868	-55.45660482
4.75	475	-0.052	-0.927	-0.037	62.5097178	-3.151269	22.345362	91.35242352	3.47212548	-55.48525272
4.76	476	-0.11	-0.957	0.016	61.1919144	-0.572958	22.345362	91.97121816	3.25440144	-55.4909823
4.77	477	-0.13	-0.986	0.033	55.5196302	2.2345362	19.767051	92.53844658	3.05959572	-55.47379356
4.78	478	-0.124	-1.009	0.015	48.3576552	3.724227	16.1574156	93.03119046	2.89916748	-55.43941608
4.79	479	-0.102	-0.972	0.019	44.4615408	9.453807	11.1153852	93.48382728	2.78457588	-55.3477428
4.8	480	-0.058	-0.914	0.037	42.8572584	19.1367972	4.8128472	93.91927536	2.71009134	-55.15866666
4.81	481	0.005	-0.874	0.048	42.4561878	25.5539268	0.8021412	94.36045302	2.68144344	-54.90083556
4.82	482	0.023	-0.817	0.034	48.987909	28.4187168	1.3750992	94.87038564	2.64133638	-54.61435656
4.83	483	0.031	-0.771	0.019	60.9054354	28.7624916	6.016059	95.49490986	2.5496631	-54.32787756
4.84	484	0.015	-0.75	0.052	74.1407652	28.5906042	14.32395	96.256944	2.3777757	-54.0585873
4.85	485	-0.008	-0.738	0.114	84.7404882	27.1582092	24.2934192	97.12211058	2.10275586	-53.80648578
4.86	486	-0.049	-0.722	0.155	90.0117018	24.9809688	33.6326346	98.04457296	1.73606274	-53.6002209
4.87	487	-0.099	-0.695	0.15	92.246238	22.1734746	40.1643558	98.9784945	1.31207382	-53.4283335
4.88	488	-0.123	-0.642	0.137	92.5900128	18.621135	42.3415962	99.9238752	0.86516658	-53.30801232
4.89	489	-0.113	-0.582	0.109	91.7305758	14.9542038	40.9092012	100.8520672	0.44117766	-53.2277982
4.9	490	-0.07	-0.535	0.078	93.678633	9.3392154	37.3568616	101.7974479	0.0572958	-53.1991503
4.91	491	-0.013	-0.5	0.106	99.5228046	2.86479	31.799169	102.8115835	-0.24637194	-53.2277982
4.92	492	0.052	-0.489	0.177	102.3875946	-4.2398892	24.4653066	103.8486375	-0.46409598	-53.30801232
4.93	493	0.13	-0.507	0.178	97.7466348	-8.9381448	16.2720072	104.8455844	-0.59014674	-53.42260392
4.94	494	0.158	-0.544	0.142	90.240885	-10.599723	6.7609044	105.7623172	-0.62452422	-53.52573636
4.95	495	0.149	-0.571	0.083	79.068204	-10.026765	-1.6042824	106.5587288	-0.56149884	-53.60595048
4.96	496	0.133	-0.567	-0.05	66.3485364	-8.880849	-5.6722842	107.2290897	-0.47555514	-53.66324628
4.97	497	0.126	-0.508	-0.139	59.1292656	-9.8548776	-5.3285094	107.8306956	-0.38961144	-53.73200124
4.98	498	0.124	-0.43	-0.199	56.3790672	-11.8602306	-2.005353	108.4093832	-0.32658606	-53.8294041
4.99	499	0.101	-0.332	-0.202	56.0352924	-15.8709366	3.7815228	108.9823412	-0.30939732	-53.97837318
5	500	0.058	-0.225	-0.121	58.3844202	-21.0848544	9.6256944	109.5610288	-0.3151269	-54.2018268
5.01	501	0.019	-0.158	-0.03	58.9000824	-24.4080108	14.32395	110.1626347	-0.36096354	-54.46538748
5.02	502	-0.031	-0.152	0.021	58.2125328	-24.7517856	17.5325148	110.7642406	-0.4297185	-54.7461369
5.03	503	-0.083	-0.196	0.08	54.6601932	-22.058883	17.9908812	111.3200098	-0.50993262	-55.003968
5.04	504	-0.066	-0.307	0.113	45.7793442	-19.8816426	16.329303	111.7898354	-0.57868758	-55.23888078
5.05	505	0.011	-0.479	0.055	30.4240698	-24.1215318	14.8396122	112.0877735	-0.61879464	-55.50817104
5.06	506	0.115	-0.743	-0.135	7.3911582	-36.4974246	14.0947668	112.1737172	-0.6016059	-55.8920529
5.07	507	0.242	-1.144	-0.451	-30.0229992	-65.3745078	18.621135	111.8815087	-0.5156622	-56.55668418
5.08	508	0.522	-1.672	-0.506	-63.598338	-97.4601558	34.37748	111.2569844	-0.45263682	-57.57654942
5.09	509	1.439	-2.376	-1.058	-22.7464326	-79.8130494	60.7908438	111.0507196	-0.71046792	-58.5276597
5.1	510	1.724	-2.247	-0.045	188.8469568	-33.2888598	97.7466348	112.981588	-1.47250206	-59.16937266
5.11	511	0.079	-1.329	0.971	291.7502136	-40.7373138	94.6526616	115.9724288	-2.14286292	-59.87984058
5.12	512	-0.942	-0.73	1.156	227.5216218	-24.2934192	31.2835068	118.2986383	-2.29756158	-60.20069706
5.13	513	-1.26	-0.756	0.533	111.6695142	0.9740286	-24.9809688	119.4273655	-2.08556712	-60.05745756
5.14	514	-1.177	-0.78	0.198	45.8939358	24.350715	-38.8465524	119.8742728	-1.87357266	-59.65065738
5.15	515	-0.894	-0.763	0.001	50.993262	29.6792244	-32.7731976	120.3440983	-1.8048177	-59.23812762
5.16	516	-0.481	-0.919	0.113	74.0261736	20.2254174	-21.3713334	121.0832141	-1.73033316	-58.95164862
5.17	517	-0.099	-1.149	0.249	78.9536124	15.6417534	-4.1252976	121.8738962	-1.7761698	-58.79122038
5.18	518	0.184	-1.111	0.304	73.8542862	20.1681216	17.8189938	122.6187416	-2.03973048	-58.70527668
5.19	519	0.293	-0.963	0.304	77.1774426	36.382833	35.3515086	123.3979645	-2.53820394	-58.59068508
5.2	520	0.275	-0.849	0.292	93.105675	54.4883058	42.8572584	124.3089677	-3.18564648	-58.37296104
5.21	521	0.244	-0.814	0.242	95.2829154	57.5249832	44.4615408	125.260078	-3.88465524	-58.155237
5.22	522	0.187	-0.759	0.159	80.8443738	51.6808116	41.6540466	126.0564896	-4.5263682	-57.97762002
5.23	523	0.149	-0.67	-0.026	73.3959198	47.2117392	36.955791	126.7841462	-5.11078536	-57.82292136
5.24	524	0.128	-0.576	-0.101	82.6205436	44.690724	32.2002396	127.6034762	-5.6436363	-57.65676354
5.25	525	0.095	-0.492	-0.063	96.543423	42.1697088	26.8144344	128.5373977	-6.11346186	-57.48487614
5.26	526	0.049	-0.394	-0.006	106.283709	39.5913978	20.1108258	129.5916404	-6.52026204	-57.2958
5.27	527	-0.002	-0.318	0.049	108.4609494	34.4920716	10.2559482	130.6688015	-6.82965936	-57.08953512
5.28	528	-0.018	-0.244	0.111	98.8925508	33.7472262	3.6096354	131.6371005	-7.08176088	-56.85462234
5.29	529	-0.017	-0.182	0.156	90.813843	34.5493674	-0.1145916	132.5194558	-7.32240324	-56.59106166
5.3	530	0	-0.135	0.116	87.949053	34.950438	-1.6042824	133.3731632	-7.55158644	-56.31604182
5.31	531	0.017	-0.084	0.114	91.1576178	32.8304934	-1.6615782	134.2612481	-7.76931048	-56.0639403
5.32	532	0.028	-0.093	0.121	97.4601558	26.2414764	2.2345362	135.218088	-7.97557536	-55.88632332
5.33	533	0.077	-0.131	0.17	103.1897358	18.8503182	9.740286	136.255142	-8.18184024	-55.81183878
5.34	534	0.064	-0.126	0.271	103.705398	12.3758928	16.2147114	137.3093847	-8.38810512	-55.8347571
5.35	535	0.008	-0.112	0.283	102.845961	12.0894138	22.2880662	138.369357	-8.62874748	-55.90924164
5.36	536	-0.03	-0.104	0.243	101.2416786	16.042824	24.5798982	139.406411	-8.91522648	-55.9779966
5.37	537	-0.028	-0.126	0.15	102.9605526	21.8869956	26.929026	140.4606537	-9.25900128	-56.0352924
5.38	538	-0.021	-0.156	0.049	106.856667	25.78311	27.6165756	141.5492739	-9.63715356	-56.08112904
5.39	539	-0.018	-0.174	-0.032	114.4197126	28.4187168	25.1528562	142.7066491	-10.02103542	-56.09831778
5.4	540	0.007	-0.146	-0.077	122.7848994	30.1375908	20.7410796	143.9270496	-10.39345812	-56.07539946
5.41	541	0.011	-0.078	-0.077	131.7230442	24.5798982	18.4492476	145.2620417	-10.70285544	-56.06966988
5.42	542	-0.154	0.133	0.247	141.1195554	10.7143146	24.4653066	146.7173551	-10.93776822	-56.20145022
5.43	543	-0.164	-0.546	0.845	152.6360112	-19.0222056	21.0275586	148.3216375	-10.89766116	-56.45928132
5.44	544	-0.257	0.215	2.106	813.7149516	-267.8005692	78.495246	156.921737	-8.94960396	-58.2698286
5.45	545	-0.862	1.189	1.803	147.8804598	42.6280752	74.771019	158.5145603	-9.61996482	-58.8141387
5.46	546	-0.413	-0.09	2.105	-55.290447	138.5985402	5.2139178	157.8556586	-10.9148499	-58.3844202
5.47	547	-0.664	-0.591	3.807	122.8421952	41.0237928	16.7303736	159.0989774	-11.36748672	-58.3844202
5.48	548	-1.164	-0.696	3.922	161.1730854	1.8907614	32.372127	160.7892035	-11.51072622	-58.6708992
5.49	549	-1.875	-1.045	3.999	168.5642436	-11.8602306	37.8725238	162.5768325	-11.52791496	-59.04905148
5.5	550	-1.504	-1.467	3.999	178.1326422	-12.7196676	40.5081306	164.4733235	-11.53364454	-59.45585166
5.51	551	-1.618	-0.501	3.998	170.6841882	-4.1825934	39.0757356	166.2781412	-11.60812908	-59.83400394
5.52	552	-1.155	0.168	3.562	144.8437824	-11.0007936	32.085648	167.8136686	-11.58521076	-60.15486042
5.53	553	-0.499	0.11	2.741	117.3417984	-22.7464326	21.8296998	169.0569875	-11.41332336	-60.40123236
5.54	554	-0.313	0.187	1.969	100.9551996	-27.6738714	14.3812458	170.1226894	-11.17841058	-60.57884934
5.55	555	-0.365	-0.023	1.525	86.4020664	-35.7525792	1.718874	171.027963	-10.84036536	-60.63614514
5.56	556	-0.174	0.006	1.243	82.9070226	-46.6387812	0.6875496	171.8816704	-10.39345812	-60.69344094
5.57	557	-0.153	-0.077	1.111	70.4165382	-50.420304	3.6096354	172.6207862	-9.90644382	-60.77365506
5.58	558	-0.111	-0.141	1.063	59.0719698	-53.1132066	3.6669312	173.2395809	-9.3965112	-60.85386918
5.59	559	-0.269	-0.03	1.053	35.1223254	-50.5348956	1.145916	173.6120036	-8.90376732	-60.91116498
5.6	560	-0.282	-0.06	0.999	11.5737516	-46.1804148	-2.5210152	173.7380543	-8.45686008	-60.92262414
5.61	561	-0.127	-0.185	1.004	-10.026765	-39.534102	-3.6669312	173.6406515	-8.06724864	-60.91689456
5.62	562	-0.093	-0.284	0.979	-24.064236	-26.7571386	-2.86479	173.4000091	-7.79795838	-60.91689456
5.63	563	-0.107	-0.269	0.844	-24.923673	-14.32395	-0.0572958	173.1479076	-7.6489893	-60.92835372
5.64	564	-0.117	-0.165	0.768	-16.615782	-4.5263682	1.2605076	172.9817498	-7.60888224	-60.94554246
5.65	565	-0.185	-0.127	0.769	-8.5370742	2.9793816	2.6929026	172.8958061	-7.65471888	-60.97419036
5.66	566	-0.095	0.016	0.718	-2.3491278	7.2765666	3.6669312	172.8786173	-7.72920342	-61.00283826
5.67	567	-0.158	-0.003	0.68	7.5630456	10.1986524	5.0420304	172.9588315	-7.83806544	-61.04294532
5.68	568	-0.16	-0.044	0.647	12.5477802	5.2712136	3.8961144	173.0906118	-7.89536124	-61.0773228
5.69	569	0.231	0.09	0.581	17.475219	0.4010706	2.1199446	173.2682288	-7.90109082	-61.09451154
5.7	570	0.056	0.034	0.625	19.8243468	-3.7815228	1.3178034	173.4744937	-7.83806544	-61.1059707
5.71	571	-0.09	-0.029	0.709	22.4026578	-7.2192708	2.1772404	173.7036769	-7.77504006	-61.1346186
5.72	572	-0.158	-0.078	0.757	18.8503182	-8.4797784	1.6615782	173.9042122	-7.69482594	-61.15180734
5.73	573	-0.142	-0.058	0.804	14.2666542	-9.3965112	1.2032118	174.0531812	-7.60315266	-61.17472566
5.74	574	-0.067	-0.052	0.864	8.59437	-7.7922288	1.145916	174.1391249	-7.52866812	-61.1919144
5.75	575	-0.112	-0.037	0.894	2.8074942	-4.583664	1.2605076	174.2250686	-7.4771019	-61.20910314
5.76	576	-0.12	-0.02	0.911	-0.3437748	-3.2658606	1.145916	174.2250686	-7.448454	-61.22629188
5.77	577	-0.122	-0.052	0.962	-1.6042824	-3.2085648	0.9167328	174.2078799	-7.4198061	-61.23775104
5.78	578	-0.131	-0.069	1.004	-2.4637194	-3.4950438	0.572958	174.1849616	-7.38542862	-61.24348062
5.79	579	-0.133	-0.06	1.022	-4.1825934	-3.5523396	0.5156622	174.1448545	-7.34532156	-61.25493978
5.8	580	-0.133	-0.038	1.028	-5.6149884	-3.4950438	0.1718874	174.1563137	-7.31667366	-61.26639894
5.81	581	-0.139	-0.04	1.031	-5.7868758	-2.8074942	0	174.0932883	-7.28802576	-61.27212852
5.82	582	-0.146	-0.045	1.047	-5.2712136	-1.8334656	-0.1145916	174.0417221	-7.27083702	-61.27212852
5.83	583	-0.146	-0.062	1.058	-4.6409598	-0.3437748	-0.3437748	173.9958854	-7.26510744	-61.26639894
5.84	584	-0.144	-0.06	1.061	-3.0939732	0.2291832	-0.572958	173.961508	-7.27083702	-61.26066936
5.85	585	-0.139	-0.063	1.044	-1.432395	0.6302538	-0.7448454	174.0990179	-7.32813282	-61.28358768
5.86	586	-0.116	0.053	1.023	-0.1718874	0.2291832	0.4583664	174.0990179	-7.32813282	-61.28931726
5.87	587	-0.107	0.043	0.955	-0.9167328	-0.859437	1.2032118	174.0932883	-7.32240324	-61.30077642
5.88	588	-0.222	-0.107	0.968	-0.4583664	-4.0680018	0.572958	174.0875587	-7.28229618	-61.306506
5.89	589	-0.197	-0.239	1.029	3.8388186	-7.0473834	-0.9740286	174.1276658	-7.21354122	-61.30077642
5.9	590	-0.086	-0.154	1.078	4.6409598	-5.6149884	-2.1199446	174.1448545	-7.1333271	-61.2778581
5.91	591	-0.146	-0.104	1.022	-2.6929026	9.3965112	-1.6615782	174.110477	-7.2192708	-61.25493978
5.92	592	-0.107	-0.004	0.858	-8.9954406	17.2460358	-2.9793816	174.0130742	-7.38542862	-61.21483272
5.93	593	-0.123	-0.02	0.812	-10.2559482	14.5531332	-2.7501984	173.8984826	-7.52866812	-61.17472566
5.94	594	-0.139	-0.008	0.821	-5.9587632	9.7975818	-1.9480572	173.8354572	-7.6203414	-61.14607776
5.95	595	-0.132	0.013	0.904	-0.3437748	2.9220858	-0.9167328	174.0760996	-7.66617804	-61.16899608
5.96	596	-0.187	-0.042	1.019	3.6096354	-4.0680018	-0.2291832	174.1162066	-7.62607098	-61.16899608
5.97	597	-0.24	-0.098	1.109	5.8441716	-7.1046792	-0.2291832	174.1735024	-7.55731602	-61.17472566
5.98	598	-0.276	-0.082	1.102	6.4171296	-5.443101	-1.145916	174.2422574	-7.5057498	-61.1632665
5.99	599	0.066	-0.046	0.955	5.7868758	-15.6990492	-1.3750992	174.2995532	-7.34532156	-61.1632665
6	600	0.008	-0.034	0.976	8.1360036	-24.4653066	-2.291832	174.3912265	-7.08749046	-61.15180734
6.01	601	-0.181	-0.103	1.003	7.1046792	-22.2307704	-2.2345362	174.465711	-6.86976642	-61.14607776
6.02	602	-0.186	-0.054	1.028	6.9900876	-23.0329116	-2.6929026	174.534466	-6.64058322	-61.1346186
6.03	603	-0.168	-0.049	1.06	3.9534102	-21.772404	-2.9793816	174.574573	-6.42285918	-61.11742986
6.04	604	-0.122	-0.081	1.047	-0.8021412	-18.5065434	-3.2085648	174.5688434	-6.23378304	-61.10024112
6.05	605	-0.111	-0.049	1.033	-3.8388186	-15.9855282	-3.7815228	174.5401955	-6.06762522	-61.07159322
6.06	606	-0.134	0.126	1.066	-9.6829902	-14.5531332	-2.9793816	174.4427927	-5.91865614	-61.05440448
6.07	607	-0.059	0.279	1.044	-25.3820394	-9.2819196	-6.0733548	174.1849616	-5.82125328	-61.00283826
6.08	608	-0.04	-0.464	0.874	-38.9038482	0.286479	-12.4331886	173.7724318	-5.80979412	-60.88251708
6.09	609	-0.108	-0.44	0.823	-22.9756158	-11.4018642	-4.8128472	173.537519	-5.68947294	-60.84241002
6.1	610	-0.094	-0.179	0.794	-25.6685184	-18.3919518	-2.7501984	173.2911471	-5.50612638	-60.83668044
6.11	611	-0.195	0.038	0.775	-26.6998428	-12.8342592	-1.432395	173.0218568	-5.37434604	-60.83668044
6.12	612	-0.073	-0.088	0.727	-26.4706596	-6.9900876	0.9167328	172.7582962	-5.30559108	-60.85386918
6.13	613	-0.034	-0.159	0.81	-17.1314442	-4.583664	-0.4583664	172.5864088	-5.25402486	-60.85386918
6.14	614	-0.155	-0.169	0.998	-4.1825934	0.859437	-0.1718874	172.5405721	-5.26548402	-60.85386918
6.15	615	-0.16	-0.082	1.17	4.010706	7.0473834	0.5156622	172.5978679	-5.33996856	-60.85386918
6.16	616	-0.107	-0.068	1.259	8.1360036	12.318597	0.1145916	172.678082	-5.46028974	-60.84241002
6.17	617	-0.114	-0.078	1.248	10.8289062	16.1001198	0.1145916	172.7812145	-5.62071798	-60.82522128
6.18	618	-0.125	-0.107	1.191	11.8029348	16.6730778	0.4583664	172.9015357	-5.7868758	-60.81376212
6.19	619	-0.144	-0.103	1.145	11.8029348	14.037471	0.9167328	173.0161273	-5.9301153	-60.80803254
6.2	620	-0.147	-0.099	1.112	10.7143146	9.740286	1.3178034	173.1307189	-6.03897732	-60.81376212
6.21	621	-0.13	-0.094	1.088	9.3392154	5.0993262	1.432395	173.2281217	-6.09054354	-60.82522128
6.22	622	-0.135	-0.12	1.059	7.3338624	1.5469866	1.3178034	173.3026063	-6.11346186	-60.83668044
6.23	623	-0.152	-0.108	1.043	4.4117766	-3.0366774	1.4896908	173.3484429	-6.08481396	-60.85386918
6.24	624	-0.138	-0.074	1.024	1.0313244	-5.6149884	1.3178034	173.3656316	-6.02751816	-60.87105792
6.25	625	-0.091	-0.095	0.985	-2.1199446	-8.1932994	0.9167328	173.3427133	-5.91865614	-60.88251708
6.26	626	-0.063	-0.105	0.946	-4.297185	-10.5424272	0.6302538	173.3026063	-5.8155237	-60.89970582
6.27	627	-0.077	-0.085	0.916	-5.8441716	-12.0894138	0.3437748	173.2453105	-5.69520252	-60.91689456
6.28	628	-0.096	-0.057	0.909	-7.5057498	-13.0061466	0	173.1708259	-5.56915176	-60.92835372
6.29	629	-0.088	-0.065	0.909	-9.740286	-13.0061466	-0.1718874	173.0734231	-5.43737142	-60.93981288
6.3	630	-0.085	-0.086	0.913	-11.172681	-12.1467096	-0.2291832	172.9760202	-5.31705024	-60.95127204
6.31	631	-0.095	-0.083	0.923	-12.032118	-10.886202	-0.4010706	172.855699	-5.20818822	-60.95700162
6.32	632	-0.092	-0.116	0.938	-12.1467096	-9.9694692	-0.4010706	172.7353778	-5.11078536	-60.9627312
6.33	633	-0.092	-0.067	0.962	-11.4018642	-8.9954406	-0.9167328	172.6207862	-5.01911208	-60.9627312
6.34	634	-0.095	-0.02	0.961	-11.5737516	-8.59437	-0.9740286	172.5004651	-4.93316838	-60.9627312
6.35	635	-0.109	-0.031	0.959	-11.9748222	-8.4224826	-0.9740286	172.4145214	-4.85868384	-60.96846078
6.36	636	-0.113	-0.081	0.968	-11.3445684	-8.1360036	-1.0313244	172.2999298	-4.77274014	-60.96846078
6.37	637	-0.103	-0.114	0.998	-8.8235532	-7.5630456	-0.8021412	172.2139861	-4.6982556	-60.96846078
6.38	638	-0.091	-0.109	1.037	-4.870143	-6.1306506	-0.6302538	172.1624198	-4.63523022	-60.96846078
6.39	639	-0.088	-0.109	1.067	0.286479	-3.0939732	-0.4583664	172.1681494	-4.60658232	-60.96846078
6.4	640	-0.09	-0.109	1.089	4.7555514	0.1718874	-0.1145916	172.242634	-4.60658232	-60.96846078
6.41	641	-0.096	-0.103	1.103	8.4224826	2.578311	0.0572958	172.3285777	-4.63523022	-60.9627312
6.42	642	-0.101	-0.096	1.11	10.8289062	4.1825934	0.2291832	172.4374397	-4.68106686	-60.9627312
6.43	643	-0.102	-0.092	1.102	11.9748222	4.6982556	0.3437748	172.5577609	-4.7269035	-60.95700162
6.44	644	-0.104	-0.087	1.081	12.3758928	4.1252976	0.4010706	172.6838116	-4.76701056	-60.95700162
6.45	645	-0.104	-0.082	1.056	12.1467096	3.0939732	0.3437748	172.8327807	-4.8128472	-60.9627312
6.46	646	-0.102	-0.079	1.03	11.172681	2.005353	0.3437748	172.9416427	-4.83576552	-60.9627312
6.47	647	-0.097	-0.08	1.01	9.740286	0.859437	0.3437748	173.0447752	-4.8414951	-60.9627312
6.48	648	-0.095	-0.081	0.99	7.9641162	0.1718874	0.1718874	173.1249893	-4.84722468	-60.9627312
6.49	649	-0.093	-0.081	0.973	6.2452422	-0.2291832	0.1145916	173.1880147	-4.84722468	-60.96846078
6.5	650	-0.092	-0.082	0.961	4.583664	-0.8021412	0.0572958	173.2739584	-4.85295426	-60.97419036
6.51	651	-0.09	-0.083	0.952	3.0366774	-1.3750992	0	173.3026063	-4.83576552	-60.97419036
6.52	652	-0.088	-0.084	0.953	1.432395	-1.8334656	0	173.319795	-4.81857678	-60.97419036
6.53	653	-0.09	-0.093	0.955	-0.0572958	-2.3491278	-0.1145916	173.319795	-4.79565846	-60.97419036
6.54	654	-0.089	-0.093	0.961	-1.3178034	-2.86479	-0.0572958	173.3026063	-4.76701056	-60.97419036
6.55	655	-0.091	-0.092	0.974	-2.6356068	-3.151269	-0.0572958	173.3026063	-4.74982182	-60.98564952
6.56	656	-0.094	-0.092	0.99	-3.3804522	-3.0366774	0	173.2682288	-4.71544434	-60.98564952
6.57	657	-0.096	-0.091	1.003	-3.8961144	-2.6929026	-0.0572958	173.2281217	-4.69252602	-60.98564952
6.58	658	-0.098	-0.091	1.015	-4.010706	-2.0626488	-0.0572958	173.1880147	-4.6696077	-60.9913791
6.59	659	-0.097	-0.09	1.024	-3.8961144	-1.3750992	-0.0572958	173.1479076	-4.65814854	-60.9913791
6.6	660	-0.096	-0.089	1.032	-3.7815228	-0.7448454	-0.1145916	173.1593668	-4.6696077	-60.99710868
6.61	661	-0.094	-0.091	1.038	-3.724227	-0.4010706	-0.1145916	173.1249893	-4.66387812	-60.99710868
6.62	662	-0.096	-0.095	1.038	-3.6669312	0	-0.1145916	173.0848822	-4.66387812	-60.9913791
6.63	663	-0.096	-0.096	1.037	-3.2085648	0.4010706	-0.1718874	173.0505047	-4.66387812	-60.9913791
6.64	664	-0.098	-0.096	1.033	-2.6356068	0.572958	-0.1718874	173.0218568	-4.6696077	-60.9913791
6.65	665	-0.098	-0.093	1.031	-1.718874	0.7448454	-0.1145916	173.0848822	-4.72117392	-60.99710868
6.66	666	-0.097	-0.092	1.032	-0.9740286	0.9167328	-0.0572958	173.0734231	-4.7269035	-60.99710868
6.67	667	-0.097	-0.089	1.03	-0.286479	1.0886202	0	173.0734231	-4.73836266	-60.99710868
6.68	668	-0.097	-0.088	1.019	0.2291832	1.0313244	0.0572958	173.0734231	-4.74982182	-60.99710868
6.69	669	-0.097	-0.087	1.012	0.6302538	1.0886202	0	173.0791526	-4.76128098	-60.99710868
6.7	670	-0.098	-0.083	1.01	1.0886202	0.9167328	0.1145916	173.210933	-4.81857678	-61.01429742
6.71	671	-0.097	-0.082	1.009	1.432395	0.6302538	0.1145916	173.2281217	-4.83003594	-61.01429742
6.72	672	-0.095	-0.08	1.004	1.3750992	0.4010706	0.1718874	173.2453105	-4.83576552	-61.01429742
6.73	673	-0.094	-0.081	1.001	1.2032118	0	0.1145916	173.2567696	-4.83576552	-61.01429742
6.74	674	-0.095	-0.081	0.998	0.9167328	-0.3437748	0.0572958	173.2624992	-4.83003594	-61.020027
6.75	675	-0.092	-0.081	0.998	0.6302538	-0.6302538	0.0572958	173.4343866	-4.870143	-61.03721574
6.76	676	-0.094	-0.081	0.994	0.286479	-0.859437	0.1145916	173.4343866	-4.86441342	-61.04294532
6.77	677	-0.094	-0.081	0.995	0	-1.145916	0.0572958	173.4343866	-4.85295426	-61.04294532
6.78	678	-0.095	-0.08	0.999	-0.4583664	-1.4896908	0	173.4343866	-4.83576552	-61.04294532
6.79	679	-0.094	-0.082	1.004	-0.9740286	-1.7761698	0	173.4229274	-4.81857678	-61.04294532
6.8	680	-0.094	-0.081	1.004	-1.3178034	-1.8334656	-0.0572958	173.4744937	-4.82430636	-61.05440448
6.81	681	-0.093	-0.082	1	-1.2605076	-1.718874	-0.1145916	173.4630345	-4.80711762	-61.05440448
6.82	682	-0.094	-0.082	1	-1.0313244	-1.6042824	-0.1145916	173.4515753	-4.78992888	-61.05440448
6.83	683	-0.092	-0.084	1.003	-1.0313244	-1.2032118	-0.1145916	173.4401162	-4.77846972	-61.05440448
6.84	684	-0.092	-0.086	1.004	-0.9167328	-1.0886202	-0.1145916	173.428657	-4.76701056	-61.05440448
6.85	685	-0.092	-0.088	1.007	-0.8021412	-0.9740286	-0.0572958	173.5088711	-4.78992888	-61.06586364
6.86	686	-0.092	-0.089	1.009	-0.6875496	-0.6875496	-0.1145916	173.5031416	-4.7841993	-61.06586364
6.87	687	-0.093	-0.091	1.013	-0.6302538	-0.3437748	-0.0572958	173.497412	-4.77846972	-61.06586364
6.88	688	-0.092	-0.091	1.017	-0.6302538	0	-0.0572958	173.4916824	-4.77846972	-61.06586364
6.89	689	-0.094	-0.092	1.017	-0.4583664	0.1145916	0	173.4859528	-4.77846972	-61.06013406
6.9	690	-0.094	-0.092	1.018	-0.1718874	0.2291832	0	173.6635698	-4.86441342	-61.08878196
6.91	691	-0.095	-0.091	1.021	-0.1718874	0.286479	0	173.6578402	-4.86441342	-61.08878196
6.92	692	-0.095	-0.091	1.023	-0.1145916	0.286479	0.0572958	173.6578402	-4.870143	-61.08878196
6.93	693	-0.095	-0.09	1.021	-0.1718874	0.1145916	0	173.6578402	-4.870143	-61.08878196
6.94	694	-0.095	-0.09	1.018	-0.1145916	0	0	173.6578402	-4.870143	-61.08878196
6.95	695	-0.094	-0.089	1.014	0	-0.1718874	0	173.9214009	-4.97327544	-61.12315944
6.96	696	-0.094	-0.09	1.016	-0.2291832	-0.3437748	0.0572958	173.9214009	-4.96754586	-61.12315944
6.97	697	-0.095	-0.089	1.012	-0.3437748	-0.6302538	0.0572958	173.9156713	-4.96181628	-61.12888902
6.98	698	-0.095	-0.088	1.01	-0.3437748	-0.9740286	0	173.9099417	-4.9560867	-61.12888902
6.99	699	-0.093	-0.089	1.01	-0.7448454	-1.145916	0.0572958	173.9042122	-4.94462754	-61.12888902
7	700	-0.092	-0.088	1.005	-0.9740286	-1.2032118	0.0572958	173.9271305	-4.94462754	-61.1346186
7.01	701	-0.092	-0.087	1.001	-1.2032118	-1.2605076	0	173.9156713	-4.93316838	-61.14034818
7.02	702	-0.092	-0.086	1.001	-1.432395	-1.2605076	0	173.8984826	-4.91597964	-61.14034818
7.03	703	-0.093	-0.085	1.004	-1.6042824	-1.3178034	0	173.8812938	-4.90452048	-61.14034818
7.04	704	-0.093	-0.085	1.003	-1.7761698	-1.2032118	0	173.8641051	-4.89306132	-61.14034818
7.05	705	-0.092	-0.085	1	-1.8334656	-1.0886202	0	173.8755643	-4.89306132	-61.14607776
7.06	706	-0.091	-0.086	0.999	-1.8334656	-0.859437	0	173.8583755	-4.88160216	-61.14607776
7.07	707	-0.091	-0.086	1.001	-1.6042824	-0.8021412	-0.0572958	173.8411868	-4.87587258	-61.14607776
7.08	708	-0.091	-0.086	1.004	-1.3178034	-0.8021412	-0.0572958	173.8297276	-4.870143	-61.14607776
7.09	709	-0.091	-0.087	1.01	-1.145916	-0.6875496	0	173.8182685	-4.85868384	-61.14607776
7.1	710	-0.093	-0.088	1.014	-0.7448454	-0.572958	-0.0572958	173.8698347	-4.88160216	-61.15753692
7.11	711	-0.093	-0.088	1.015	-0.4583664	-0.4010706	0	173.8641051	-4.88160216	-61.15753692
7.12	712	-0.092	-0.089	1.014	-0.1718874	-0.1718874	0	173.8641051	-4.87587258	-61.15753692
7.13	713	-0.092	-0.09	1.015	0.1145916	-0.1718874	0	173.8641051	-4.87587258	-61.15753692
7.14	714	-0.093	-0.089	1.016	0.3437748	-0.1718874	0.0572958	173.8698347	-4.87587258	-61.15753692
7.15	715	-0.091	-0.09	1.016	0.4010706	-0.1718874	0	173.9500488	-4.89306132	-61.16899608
7.16	716	-0.091	-0.089	1.013	0.572958	-0.1718874	0.0572958	173.9557784	-4.89306132	-61.16899608
7.17	717	-0.09	-0.089	1.012	0.6302538	-0.2291832	0	173.961508	-4.88733174	-61.16899608
7.18	718	-0.091	-0.09	1.014	0.572958	-0.2291832	0.0572958	173.9729671	-4.88733174	-61.16899608
7.19	719	-0.091	-0.089	1.014	0.4583664	-0.4010706	0	173.9729671	-4.88160216	-61.16899608
7.2	720	-0.091	-0.09	1.011	0.2291832	-0.286479	0	174.0646404	-4.91025006	-61.18045524
7.21	721	-0.09	-0.09	1.008	0	-0.3437748	0	174.0646404	-4.90452048	-61.18045524
7.22	722	-0.09	-0.09	1.005	-0.3437748	-0.3437748	0	174.0589108	-4.8987909	-61.18045524
7.23	723	-0.09	-0.09	1.004	-0.572958	-0.4010706	0	174.0531812	-4.89306132	-61.18045524
7.24	724	-0.091	-0.089	1.006	-0.8021412	-0.4583664	0	174.0417221	-4.89306132	-61.18045524
7.25	725	-0.091	-0.09	1.008	-0.9167328	-0.4010706	0	174.0589108	-4.8987909	-61.18618482
7.26	726	-0.092	-0.089	1.008	-1.0886202	-0.4010706	0	174.0474517	-4.8987909	-61.18618482
7.27	727	-0.091	-0.089	1.008	-1.2605076	-0.2291832	0	174.0359925	-4.89306132	-61.18618482
7.28	728	-0.091	-0.089	1.007	-1.432395	0	0	174.0188038	-4.89306132	-61.18618482
7.29	729	-0.091	-0.09	1.006	-1.3178034	-0.1145916	0	174.0073446	-4.89306132	-61.18618482
7.3	730	-0.092	-0.089	1.008	-1.0886202	-0.1718874	0	174.0302629	-4.91025006	-61.1919144
7.31	731	-0.092	-0.087	1.011	-0.9167328	-0.0572958	0	174.0245333	-4.91025006	-61.1919144
7.32	732	-0.091	-0.089	1.013	-0.9167328	-0.0572958	0	174.0130742	-4.90452048	-61.1919144
7.33	733	-0.091	-0.09	1.011	-0.9167328	-0.0572958	0.0572958	174.001615	-4.90452048	-61.1919144
7.34	734	-0.092	-0.09	1.009	-0.6302538	-0.1145916	0	173.9958854	-4.90452048	-61.1919144
7.35	735	-0.092	-0.09	1.011	-0.4583664	-0.1718874	0.0572958	174.0417221	-4.9274388	-61.20337356
7.36	736	-0.092	-0.09	1.013	-0.3437748	-0.1145916	0	174.0359925	-4.92170922	-61.20337356
7.37	737	-0.093	-0.089	1.014	-0.1718874	-0.0572958	0	174.0359925	-4.92170922	-61.20337356
7.38	738	-0.092	-0.088	1.013	0	-0.1718874	0.0572958	174.0359925	-4.92170922	-61.20337356
7.39	739	-0.092	-0.088	1.012	0.0572958	-0.1718874	0.0572958	174.0359925	-4.92170922	-61.20337356
7.4	740	-0.093	-0.088	1.011	0.0572958	-0.2291832	0.0572958	174.1219362	-4.96181628	-61.21483272
7.41	741	-0.092	-0.089	1.011	0.0572958	-0.3437748	0.0572958	174.1219362	-4.9560867	-61.21483272
7.42	742	-0.091	-0.088	1.009	0.1145916	-0.4010706	0	174.1219362	-4.9560867	-61.21483272
7.43	743	-0.091	-0.087	1.008	0	-0.4010706	0	174.1219362	-4.95035712	-61.2205623
7.44	744	-0.091	-0.087	1.007	-0.1718874	-0.5156622	0	174.1219362	-4.94462754	-61.2205623
7.45	745	-0.09	-0.088	1.006	-0.4010706	-0.6302538	0	174.1333954	-4.94462754	-61.2205623
7.46	746	-0.091	-0.089	1.006	-0.572958	-0.6875496	0	174.1276658	-4.93889796	-61.2205623
7.47	747	-0.09	-0.09	1.003	-0.6875496	-0.6875496	0	174.1219362	-4.93316838	-61.2205623
7.48	748	-0.091	-0.09	1.005	-0.8021412	-0.6875496	0	174.1162066	-4.92170922	-61.2205623
7.49	749	-0.09	-0.09	1.008	-0.7448454	-0.6875496	0	174.1047475	-4.91597964	-61.2205623
7.5	750	-0.09	-0.09	1.01	-0.6875496	-0.7448454	0	174.1162066	-4.91597964	-61.22629188
7.51	751	-0.09	-0.091	1.009	-0.6875496	-0.572958	0	174.1047475	-4.91025006	-61.22629188
7.52	752	-0.091	-0.091	1.009	-0.572958	-0.4010706	0	174.0990179	-4.90452048	-61.22629188
7.53	753	-0.09	-0.09	1.009	-0.4583664	-0.286479	0	174.0932883	-4.90452048	-61.22629188
7.54	754	-0.091	-0.09	1.012	-0.2291832	-0.2291832	0	174.0932883	-4.8987909	-61.22629188
7.55	755	-0.091	-0.09	1.016	-0.286479	-0.1718874	0	174.1276658	-4.91597964	-61.23202146
7.56	756	-0.091	-0.088	1.016	-0.2291832	-0.1718874	0	174.1219362	-4.91597964	-61.23202146
7.57	757	-0.092	-0.091	1.015	-0.1718874	-0.2291832	0	174.1219362	-4.91025006	-61.23202146
7.58	758	-0.091	-0.09	1.016	-0.1718874	-0.2291832	0.0572958	174.1219362	-4.91025006	-61.23202146
7.59	759	-0.09	-0.089	1.011	0	-0.2291832	0	174.1219362	-4.90452048	-61.23202146
7.6	760	-0.09	-0.09	1.01	0	-0.1718874	0	174.1620433	-4.92170922	-61.23775104
7.61	761	-0.089	-0.09	1.013	-0.1718874	-0.286479	0	174.1563137	-4.91597964	-61.23775104
7.62	762	-0.09	-0.09	1.015	-0.3437748	-0.572958	0	174.1563137	-4.91025006	-61.23775104
7.63	763	-0.09	-0.089	1.016	-0.572958	-0.572958	0	174.1448545	-4.90452048	-61.23775104
7.64	764	-0.091	-0.09	1.013	-0.8021412	-0.5156622	0	174.1391249	-4.8987909	-61.23775104
7.65	765	-0.09	-0.09	1.007	-0.859437	-0.4583664	0	174.1448545	-4.90452048	-61.24348062
7.66	766	-0.09	-0.089	1.006	-0.9167328	-0.286479	0	174.1391249	-4.8987909	-61.24348062
7.67	767	-0.09	-0.09	1.006	-0.859437	-0.1718874	0	174.1276658	-4.8987909	-61.24348062
7.68	768	-0.091	-0.088	1.006	-0.6302538	-0.0572958	0	174.1219362	-4.8987909	-61.24348062
7.69	769	-0.09	-0.089	1.006	-0.3437748	0.1145916	0	174.1162066	-4.8987909	-61.24348062
7.7	770	-0.09	-0.089	1.003	-0.1718874	0.286479	0	174.1505841	-4.92170922	-61.2492102
7.71	771	-0.091	-0.089	1.004	0.0572958	0.286479	0	174.1505841	-4.9274388	-61.2492102
7.72	772	-0.091	-0.089	1.004	0.2291832	0.286479	0	174.1505841	-4.9274388	-61.2492102
7.73	773	-0.09	-0.089	1.008	0.286479	0.2291832	0	174.1563137	-4.9274388	-61.2492102
7.74	774	-0.091	-0.089	1.012	0.4010706	0.2291832	0	174.1620433	-4.93316838	-61.2492102
7.75	775	-0.091	-0.089	1.016	0.3437748	0.286479	0	174.1906912	-4.95035712	-61.2492102
7.76	776	-0.091	-0.089	1.015	0.3437748	0.2291832	0	174.1964207	-4.95035712	-61.2492102
7.77	777	-0.091	-0.09	1.014	0.4010706	0.1718874	0	174.2021503	-4.95035712	-61.2492102
7.78	778	-0.091	-0.09	1.013	0.4583664	0.2291832	0	174.2078799	-4.9560867	-61.2492102
7.79	779	-0.091	-0.09	1.012	0.572958	0.0572958	0.0572958	174.2136095	-4.9560867	-61.2492102
7.8	780	-0.09	-0.09	1.011	0.6302538	0	0	174.2365278	-4.96181628	-61.25493978
7.81	781	-0.091	-0.09	1.01	0.6302538	0	0	174.2422574	-4.96181628	-61.25493978
7.82	782	-0.091	-0.09	1.01	0.6875496	0	0	174.2537165	-4.96181628	-61.25493978
7.83	783	-0.09	-0.089	1.007	0.6302538	0	0	174.2594461	-4.96181628	-61.25493978
7.84	784	-0.089	-0.089	1.006	0.572958	0.0572958	0	174.2651757	-4.96754586	-61.25493978
7.85	785	-0.09	-0.089	1.006	0.4583664	0.0572958	0	174.288094	-4.96754586	-61.25493978
7.86	786	-0.089	-0.091	1.007	0.286479	0.1145916	0	174.2938236	-4.97327544	-61.25493978
7.87	787	-0.09	-0.089	1.008	0.0572958	0.1718874	0	174.2938236	-4.97327544	-61.25493978
7.88	788	-0.09	-0.089	1.012	0	0.1145916	0	174.2938236	-4.97327544	-61.25493978
7.89	789	-0.09	-0.09	1.011	-0.286479	0.1145916	0	174.288094	-4.97327544	-61.25493978
7.9	790	-0.09	-0.089	1.01	-0.2291832	0.1145916	0	174.3282011	-4.99046418	-61.26066936
7.91	791	-0.09	-0.088	1.011	-0.1718874	0.0572958	-0.0572958	174.3282011	-4.99046418	-61.26066936
7.92	792	-0.091	-0.088	1.009	-0.2291832	0.1718874	-0.0572958	174.3224715	-4.99046418	-61.25493978
7.93	793	-0.089	-0.088	1.012	-0.0572958	0.1145916	-0.0572958	174.3224715	-4.99046418	-61.25493978
7.94	794	-0.089	-0.089	1.011	-0.0572958	0.2291832	0	174.3224715	-4.99619376	-61.25493978
7.95	795	-0.089	-0.089	1.009	0	0.286479	0	174.3453898	-5.00192334	-61.26066936
7.96	796	-0.089	-0.088	1.008	0	0.286479	0	174.3453898	-5.00192334	-61.26066936
7.97	797	-0.09	-0.088	1.01	0.1145916	0.3437748	0	174.3511194	-5.00765292	-61.26066936
7.98	798	-0.09	-0.088	1.01	0.286479	0.4583664	0	174.3511194	-5.0133825	-61.26066936
7.99	799	-0.09	-0.088	1.008	0.4010706	0.4010706	0.0572958	174.356849	-5.01911208	-61.26066936
8	800	-0.091	-0.089	1.008	0.5156622	0.3437748	0.0572958	174.3740377	-5.02484166	-61.26066936
8.01	801	-0.091	-0.088	1.011	0.5156622	0.286479	0	174.3797673	-5.03057124	-61.26066936
8.02	802	-0.091	-0.088	1.013	0.5156622	0.3437748	0	174.3854969	-5.03057124	-61.26066936
8.03	803	-0.091	-0.087	1.011	0.6302538	0.4010706	0.0572958	174.3912265	-5.03630082	-61.26066936
8.04	804	-0.091	-0.087	1.01	0.572958	0.4583664	0.0572958	174.396956	-5.0420304	-61.26066936
8.05	805	-0.091	-0.087	1.009	0.572958	0.5156622	0	174.4141448	-5.04775998	-61.26066936
8.06	806	-0.092	-0.087	1.009	0.6875496	0.5156622	0.0572958	174.4198744	-5.05348956	-61.26066936
8.07	807	-0.091	-0.087	1.01	0.6875496	0.5156622	0	174.4256039	-5.05921914	-61.26066936
8.08	808	-0.091	-0.087	1.009	0.572958	0.5156622	0.0572958	174.4313335	-5.06494872	-61.26066936
8.09	809	-0.091	-0.088	1.009	0.3437748	0.5156622	0.0572958	174.4370631	-5.0706783	-61.26066936
8.1	810	-0.091	-0.088	1.008	0.1145916	0.5156622	0.0572958	174.4427927	-5.07640788	-61.26639894
8.11	811	-0.091	-0.087	1.009	0.1145916	0.572958	0.0572958	174.4485223	-5.08213746	-61.26639894
8.12	812	-0.092	-0.088	1.009	0.1145916	0.4583664	0	174.4485223	-5.08786704	-61.26639894
8.13	813	-0.091	-0.087	1.011	0	0.4010706	0	174.4485223	-5.09359662	-61.26639894
8.14	814	-0.092	-0.088	1.012	0	0.3437748	0.0572958	174.4485223	-5.09359662	-61.26639894
8.15	815	-0.092	-0.086	1.013	0	0.4010706	0.0572958	174.465711	-5.0993262	-61.26639894
8.16	816	-0.092	-0.087	1.012	-0.0572958	0.4583664	0.1145916	174.465711	-5.10505578	-61.26639894
8.17	817	-0.092	-0.087	1.009	-0.0572958	0.4583664	0.0572958	174.465711	-5.11078536	-61.26639894
8.18	818	-0.093	-0.085	1.009	-0.0572958	0.5156622	0	174.465711	-5.11651494	-61.26639894
8.19	819	-0.092	-0.085	1.011	0	0.572958	0	174.465711	-5.12224452	-61.26639894
8.2	820	-0.092	-0.087	1.013	-0.1718874	0.4010706	0	174.465711	-5.12224452	-61.26639894
8.21	821	-0.092	-0.087	1.009	-0.1718874	0.572958	0	174.465711	-5.1279741	-61.26639894
8.22	822	-0.092	-0.087	1.007	0	0.572958	0	174.465711	-5.13943326	-61.26639894
8.23	823	-0.093	-0.086	1.006	0.0572958	0.6875496	0	174.465711	-5.14516284	-61.26639894
8.24	824	-0.094	-0.085	1.007	0.1718874	0.7448454	0	174.465711	-5.15089242	-61.26639894
8.25	825	-0.094	-0.086	1.005	0.2291832	0.859437	0	174.4771702	-5.16808116	-61.26639894
8.26	826	-0.093	-0.085	1.007	0.1718874	0.9740286	0	174.4771702	-5.17954032	-61.26639894
8.27	827	-0.094	-0.084	1.009	0.0572958	1.0886202	0	174.4771702	-5.19099948	-61.26639894
8.28	828	-0.093	-0.086	1.01	0	1.2032118	0	174.4771702	-5.20245864	-61.26639894
8.29	829	-0.095	-0.086	1.013	-0.1145916	1.145916	0	174.4771702	-5.2139178	-61.26639894
8.3	830	-0.096	-0.086	1.016	-0.572958	0.4583664	0	174.4771702	-5.22537696	-61.26639894
8.31	831	-0.095	-0.087	1.016	-0.9740286	0.286479	-0.0572958	174.465711	-5.22537696	-61.26639894
8.32	832	-0.094	-0.088	1.012	-1.0313244	0.572958	-0.0572958	174.4542518	-5.23110654	-61.26639894
8.33	833	-0.094	-0.087	1.008	-1.0313244	0.9167328	0	174.4485223	-5.2425657	-61.26639894
8.34	834	-0.095	-0.086	1.006	-1.0313244	0.9740286	0	174.4370631	-5.24829528	-61.26066936
8.35	835	-0.096	-0.084	1.007	-1.2032118	1.0313244	0	174.4313335	-5.26548402	-61.26066936
8.36	836	-0.097	-0.085	1.008	-1.3178034	0.859437	0	174.4141448	-5.2712136	-61.26066936
8.37	837	-0.098	-0.086	1.011	-1.5469866	0.7448454	0	174.396956	-5.28267276	-61.26066936
8.38	838	-0.098	-0.086	1.011	-1.6615782	0.572958	0	174.3797673	-5.28840234	-61.26066936
8.39	839	-0.097	-0.087	1.006	-1.6615782	0.9740286	0	174.3625786	-5.29413192	-61.26066936
8.4	840	-0.098	-0.085	0.999	-1.432395	1.3750992	0	174.356849	-5.31132066	-61.26066936
8.41	841	-0.098	-0.085	1.002	-1.3750992	1.6042824	-0.0572958	174.3396602	-5.3285094	-61.26066936
8.42	842	-0.099	-0.084	1.009	-1.7761698	1.7761698	-0.0572958	174.3224715	-5.34569814	-61.25493978
8.43	843	-0.1	-0.088	1.011	-2.1772404	1.7761698	-0.0572958	174.2995532	-5.36288688	-61.25493978
8.44	844	-0.1	-0.089	1.012	-2.1772404	1.718874	0	174.2766349	-5.38007562	-61.25493978
8.45	845	-0.1	-0.088	1.012	-2.2345362	1.6042824	0	174.2594461	-5.39726436	-61.25493978
8.46	846	-0.099	-0.088	1.014	-2.2345362	1.718874	0.0572958	174.2365278	-5.4144531	-61.25493978
8.47	847	-0.102	-0.087	1.011	-2.2345362	2.005353	0	174.2136095	-5.43737142	-61.25493978
8.48	848	-0.097	-0.09	1.01	-2.1199446	2.2345362	0	174.1906912	-5.45456016	-61.2492102
8.49	849	-0.102	-0.093	1.01	-2.0626488	2.1199446	0	174.1677728	-5.47747848	-61.2492102
8.5	850	-0.107	-0.091	1.011	-2.0626488	1.8334656	0	174.1563137	-5.5003968	-61.2492102
8.51	851	-0.098	-0.092	1.014	-2.1199446	1.718874	0	174.1333954	-5.51758554	-61.2492102
8.52	852	-0.106	-0.091	1.008	-2.005353	1.8907614	0	174.1162066	-5.53477428	-61.2492102
8.53	853	-0.101	-0.091	1.004	-1.7761698	1.6042824	-0.0572958	174.0932883	-5.55196302	-61.24348062
8.54	854	-0.104	-0.091	1.006	-1.6615782	1.6615782	-0.0572958	174.0760996	-5.56915176	-61.24348062
