TimeStamp(s)	FrameCounter	AccX	AccY	AccZ	GyrX	GyrY	GyrZ	EulerX	EulerY	EulerZ
0.01	1	-0.008	-1	0.17	-0.286479	1.3178034	0.572958	98.70920424	0.25210152	-25.72008462
0.02	2	-0.001	-1.012	0.159	-0.572958	1.432395	0.9740286	98.70347466	0.24064236	-25.70862546
0.03	3	0.004	-1.015	0.152	-0.6302538	1.2032118	1.145916	98.69774508	0.2291832	-25.6971663
0.04	4	0.008	-1.01	0.149	-0.572958	1.0313244	1.0313244	98.6920155	0.21772404	-25.68570714
0.05	5	0.007	-1.005	0.149	-0.4583664	0.859437	0.9167328	98.64617886	0.22345362	-25.68570714
0.06	6	0.001	-1.001	0.15	-0.6875496	0.5156622	0.8021412	98.6347197	0.21199446	-25.68570714
0.07	7	-0.005	-1.002	0.148	-1.0313244	0.3437748	0.7448454	98.62899012	0.20626488	-25.67997756
0.08	8	-0.009	-1.001	0.146	-1.0886202	0.4010706	0.6302538	98.61180138	0.2005353	-25.67997756
0.09	9	-0.011	-0.999	0.146	-0.9740286	0.6302538	0.572958	98.6060718	0.18907614	-25.67424798
0.1	10	-0.011	-0.999	0.148	-1.2032118	0.9167328	0.4010706	98.56023516	0.1718874	-25.66278882
0.11	11	-0.012	-1.001	0.145	-1.718874	1.3750992	0.2291832	98.54304642	0.16615782	-25.64560008
0.12	12	-0.013	-1.003	0.141	-2.1199446	1.6615782	0.1145916	98.52585768	0.16042824	-25.63414092
0.13	13	-0.013	-1.004	0.139	-2.4064236	2.1199446	0.0572958	98.49720978	0.15469866	-25.6112226
0.14	14	-0.012	-1.004	0.141	-2.4064236	2.0626488	0	98.47429146	0.15469866	-25.59403386
0.15	15	-0.012	-1.006	0.141	-2.4637194	2.005353	-0.1145916	98.42272524	0.1432395	-25.57111554
0.16	16	-0.01	-1.008	0.143	-2.6356068	1.9480572	-0.286479	98.39980692	0.1432395	-25.54819722
0.17	17	-0.008	-1.008	0.143	-2.86479	1.9480572	-0.3437748	98.37115902	0.1432395	-25.53100848
0.18	18	-0.007	-1.011	0.143	-3.151269	1.8334656	-0.5156622	98.33678154	0.1432395	-25.51381974
0.19	19	-0.006	-1.013	0.141	-3.6669312	1.9480572	-0.6302538	98.29667448	0.14896908	-25.49090142
0.2	20	-0.009	-1.014	0.139	-4.1252976	1.9480572	-0.6875496	98.23937868	0.14896908	-25.47371268
0.21	21	-0.012	-1.018	0.137	-4.7555514	2.3491278	-0.859437	98.19354204	0.15469866	-25.44506478
0.22	22	-0.013	-1.019	0.134	-5.3285094	2.8074942	-0.9167328	98.13624624	0.15469866	-25.41641688
0.23	23	-0.012	-1.019	0.131	-5.72958	2.8074942	-0.7448454	98.07895044	0.16042824	-25.38776898
0.24	24	-0.009	-1.018	0.131	-6.2452422	2.9220858	-0.6875496	98.01592506	0.16042824	-25.35912108
0.25	25	-0.007	-1.017	0.128	-6.9327918	2.8074942	-0.572958	97.92998136	0.16042824	-25.33047318
0.26	26	-0.006	-1.015	0.124	-7.5057498	2.6929026	-0.4583664	97.85549682	0.16042824	-25.30755486
0.27	27	-0.006	-1.018	0.123	-8.021412	2.4064236	-0.572958	97.76955312	0.16042824	-25.28463654
0.28	28	-0.007	-1.023	0.116	-8.7662574	2.291832	-0.6302538	97.68360942	0.16615782	-25.26171822
0.29	29	-0.006	-1.025	0.111	-9.8548776	2.291832	-0.8021412	97.58047698	0.16615782	-25.2387999
0.3	30	-0.007	-1.031	0.112	-10.6570188	2.4637194	-0.6875496	97.4601558	0.16615782	-25.21588158
0.31	31	-0.008	-1.038	0.111	-12.605076	2.6929026	-0.7448454	97.33410504	0.1718874	-25.18723368
0.32	32	-0.009	-1.038	0.105	-15.0114996	2.86479	-0.9167328	97.17940638	0.17761698	-25.15858578
0.33	33	-0.008	-1.041	0.109	-17.7044022	3.3804522	-0.859437	97.0017894	0.17761698	-25.12993788
0.34	34	-0.005	-1.043	0.102	-21.3140376	4.297185	-0.7448454	96.78406536	0.17761698	-25.08410124
0.35	35	-0.008	-1.041	0.086	-23.9496444	4.4690724	-0.5156622	96.53196384	0.1718874	-25.04399418
0.36	36	-0.01	-1.037	0.077	-25.0955604	3.8961144	-0.4010706	96.27986232	0.1718874	-25.0096167
0.37	37	-0.012	-1.039	0.065	-26.8144344	3.3231564	-0.2291832	96.00484248	0.16615782	-24.9809688
0.38	38	-0.013	-1.04	0.055	-28.3041252	2.9793816	-0.2291832	95.71836348	0.16615782	-24.9523209
0.39	39	-0.012	-1.047	0.06	-31.2835068	3.0366774	-0.286479	95.397507	0.16042824	-24.923673
0.4	40	-0.011	-1.049	0.044	-36.0390582	3.2085648	-0.8021412	95.0250843	0.16042824	-24.90075468
0.41	41	-0.009	-1.039	0.041	-37.5860448	3.4950438	-1.3750992	94.64120244	0.1718874	-24.8663772
0.42	42	0	-1.037	0.068	-37.815228	4.6982556	-1.9480572	94.25732058	0.18334656	-24.82054056
0.43	43	0.001	-1.033	0.066	-37.0130868	6.016059	-2.6356068	93.8791683	0.2005353	-24.76324476
0.44	44	-0.004	-1.04	0.046	-35.6379876	5.6722842	-3.3804522	93.51820476	0.22345362	-24.71167854
0.45	45	-0.01	-1.034	0.047	-35.523396	2.1199446	-3.9534102	93.15724122	0.2578311	-24.6944898
0.46	46	-0.004	-1.027	0.041	-36.5547204	0.8021412	-4.297185	92.78481852	0.29793816	-24.68876022
0.47	47	-0.018	-1.019	0.03	-37.1276784	0.0572958	-4.583664	92.40666624	0.3437748	-24.68876022
0.48	48	-0.023	-1.022	0.028	-39.3622146	-0.7448454	-4.8128472	92.00559564	0.38388186	-24.70021938
0.49	49	-0.032	-1.014	0.023	-42.8572584	-0.6875496	-4.9847346	91.57014756	0.43544808	-24.70594896
0.5	50	-0.037	-1.009	0.008	-45.0917946	-0.286479	-4.6409598	91.11178116	0.47555514	-24.71167854
0.51	51	-0.046	-1.005	-0.025	-46.5814854	0.2291832	-3.6669312	90.63622602	0.50420304	-24.71740812
0.52	52	-0.035	-1.005	-0.054	-45.7793442	1.718874	-2.6356068	90.17213004	0.52712136	-24.70594896
0.53	53	-0.023	-0.997	-0.056	-44.0604702	3.9534102	-1.8907614	89.7252228	0.5443101	-24.67157148
0.54	54	-0.015	-0.98	-0.042	-43.3156248	4.6982556	-0.8021412	89.28404514	0.5443101	-24.62573484
0.55	55	-0.007	-0.948	-0.026	-43.6021038	4.2398892	0.2291832	88.8371379	0.53858052	-24.59135736
0.56	56	-0.006	-0.917	-0.011	-44.117766	2.9220858	1.2032118	88.39023066	0.52139178	-24.56843904
0.57	57	-0.013	-0.904	-0.013	-44.9199072	2.0626488	1.718874	87.93759384	0.50420304	-24.5512503
0.58	58	-0.02	-0.907	-0.033	-46.123119	2.291832	1.4896908	87.46776828	0.48128472	-24.53406156
0.59	59	-0.024	-0.918	-0.067	-46.8106686	2.5210152	0.9740286	86.99221314	0.46982556	-24.51114324
0.6	60	-0.022	-0.946	-0.066	-46.9252602	2.8074942	0.2291832	86.51092842	0.46409598	-24.48822492
0.61	61	-0.009	-0.973	-0.042	-46.2377106	5.2139178	-0.572958	86.04110286	0.46409598	-24.44238828
0.62	62	0.001	-0.987	-0.049	-45.9512316	6.7609044	-1.3750992	85.57700688	0.47555514	-24.3793629
0.63	63	0.005	-0.986	-0.033	-46.1804148	7.9068204	-1.6615782	85.10718132	0.49274388	-24.31060794
0.64	64	0.002	-0.976	-0.01	-46.3523022	7.9641162	-1.8334656	84.63735576	0.5156622	-24.2361234
0.65	65	-0.007	-0.962	-0.013	-46.7533728	7.3911582	-1.3178034	84.16180062	0.52712136	-24.16736844
0.66	66	-0.012	-0.955	-0.043	-48.414951	7.5057498	-0.6302538	83.67478632	0.53285094	-24.09861348
0.67	67	-0.019	-0.946	-0.083	-50.3630082	7.2765666	0.3437748	83.15912412	0.53285094	-24.0355881
0.68	68	-0.017	-0.959	-0.098	-50.2484166	7.448454	0.9740286	82.6491915	0.52712136	-23.96110356
0.69	69	-0.013	-0.969	-0.115	-48.987909	7.1046792	1.432395	82.15071804	0.5156622	-23.89807818
0.7	70	-0.007	-0.971	-0.106	-47.3836266	5.156622	1.3750992	81.6751629	0.49847346	-23.84651196
0.71	71	-0.003	-0.96	-0.075	-45.7220484	4.1252976	0.5156622	81.21106692	0.49847346	-23.81213448
0.72	72	0.002	-0.941	-0.083	-46.4668938	6.2452422	-1.0313244	80.73551178	0.50993262	-23.75483868
0.73	73	0.002	-0.927	-0.098	-47.4409224	7.5630456	-2.3491278	80.25422706	0.53858052	-23.6918133
0.74	74	-0.002	-0.909	-0.087	-48.3003594	8.2505952	-2.86479	79.76148318	0.572958	-23.61732876
0.75	75	-0.015	-0.894	-0.101	-48.7587258	7.161975	-2.5210152	79.2687393	0.6016059	-23.56003296
0.76	76	-0.031	-0.896	-0.148	-48.0711762	6.4744254	-1.0886202	78.781725	0.61879464	-23.50273716
0.77	77	-0.036	-0.927	-0.156	-46.7533728	5.156622	0.859437	78.30616986	0.61306506	-23.45117094
0.78	78	-0.044	-0.958	-0.162	-45.6647526	3.8961144	1.8334656	77.84207388	0.6016059	-23.41679346
0.79	79	-0.046	-0.971	-0.127	-44.1750618	3.7815228	1.2605076	77.39516664	0.59014674	-23.38241598
0.8	80	-0.034	-0.965	-0.11	-44.0604702	5.156622	-0.572958	76.95398898	0.59587632	-23.33657934
0.81	81	-0.017	-0.931	-0.13	-44.1750618	7.448454	-2.6929026	76.50708174	0.6302538	-23.27355396
0.82	82	0.001	-0.907	-0.153	-45.1490904	9.3392154	-4.8128472	76.04298576	0.69327918	-23.19906942
0.83	83	0.016	-0.886	-0.182	-44.690724	10.1413566	-5.0420304	75.59034894	0.76203414	-23.11312572
0.84	84	0.026	-0.907	-0.189	-44.404245	11.0580894	-3.8961144	75.13771212	0.81932994	-23.02145244
0.85	85	0.025	-0.933	-0.206	-44.0604702	10.7716104	-1.5469866	74.69653446	0.85370742	-22.92404958
0.86	86	0.018	-0.95	-0.219	-43.4875122	7.6203414	0.9740286	74.2553568	0.859437	-22.85529462
0.87	87	0.006	-0.972	-0.207	-41.1956802	4.0680018	2.578311	73.83709746	0.83651868	-22.80945798
0.88	88	-0.005	-0.976	-0.196	-40.7373138	2.5210152	2.2345362	73.41883812	0.81932994	-22.78653966
0.89	89	-0.008	-0.949	-0.217	-40.8519054	3.151269	0	73.00630836	0.82505952	-22.75789176
0.9	90	-0.001	-0.944	-0.23	-39.6486936	4.297185	-3.0366774	72.61096734	0.859437	-22.72924386
0.91	91	0.011	-0.943	-0.22	-40.680018	4.6409598	-5.443101	72.192708	0.9167328	-22.70632554
0.92	92	0.028	-0.927	-0.248	-41.3102718	4.3544808	-6.0733548	71.77444866	0.98548776	-22.68340722
0.93	93	0.042	-0.924	-0.24	-40.393539	2.9220858	-4.4117766	71.36764848	1.0313244	-22.67194806
0.94	94	0.037	-0.929	-0.252	-39.1330314	0.6302538	-2.291832	70.96657788	1.04851314	-22.67767764
0.95	95	0.025	-0.947	-0.265	-38.5600734	-2.8074942	-0.1718874	70.57696644	1.03705398	-22.70632554
0.96	96	0.008	-0.952	-0.269	-36.669312	-4.5263682	0.572958	70.20454374	1.01413566	-22.75216218
0.97	97	-0.001	-0.956	-0.282	-36.2682414	-4.1825934	-0.5156622	69.83785062	1.0026765	-22.79799882
0.98	98	-0.004	-0.959	-0.28	-34.663959	-2.6356068	-2.8074942	69.48834624	1.01413566	-22.8323763
0.99	99	-0.003	-0.945	-0.286	-33.6326346	-2.0626488	-5.443101	69.14457144	1.05424272	-22.87821294
1	100	0.007	-0.94	-0.265	-31.7418732	-1.0313244	-7.3911582	68.82944454	1.1172681	-22.91259042
1.01	101	0.034	-0.931	-0.295	-33.518043	1.145916	-7.448454	68.48566974	1.18602306	-22.92977916
1.02	102	0.043	-0.912	-0.297	-32.7159018	-1.2605076	-5.443101	68.1533541	1.2318597	-22.96415664
1.03	103	0.035	-0.912	-0.322	-31.4553942	-3.9534102	-2.6929026	67.83249762	1.23758928	-23.01572286
1.04	104	0.011	-0.9	-0.321	-28.8197874	-6.016059	0	67.54028904	1.21467096	-23.07301866
1.05	105	-0.014	-0.903	-0.32	-27.0436176	-6.8182002	1.6042824	67.27099878	1.16310474	-23.13031446
1.06	106	-0.031	-0.902	-0.322	-26.929026	-6.1879464	1.432395	66.99597894	1.12299768	-23.18761026
1.07	107	-0.03	-0.89	-0.279	-25.1528562	-4.4690724	0.2291832	66.73814784	1.10580894	-23.22771732
1.08	108	0	-0.909	-0.333	-25.2674478	-2.4064236	-1.718874	66.48031674	1.10580894	-23.2620948
1.09	109	0.021	-0.932	-0.328	-25.2674478	-1.6615782	-2.5210152	66.22248564	1.12299768	-23.28501312
1.1	110	0.042	-0.921	-0.341	-26.0122932	-2.3491278	-2.4064236	65.96465454	1.13445684	-23.3193906
1.11	111	0.033	-0.926	-0.348	-25.5539268	-2.1199446	-1.432395	65.70682344	1.14018642	-23.3480385
1.12	112	-0.001	-0.925	-0.381	-23.3193906	-1.0313244	0.1145916	65.46618108	1.12872726	-23.35949766
1.13	113	-0.041	-0.923	-0.341	-22.4026578	-0.4010706	0.6875496	65.24272746	1.1172681	-23.35949766
1.14	114	-0.066	-0.913	-0.331	-22.1161788	1.0886202	0	65.01927384	1.12299768	-23.35376808
1.15	115	-0.072	-0.898	-0.375	-21.1421502	3.8388186	-1.3750992	64.8015498	1.12872726	-23.3193906
1.16	116	-0.051	-0.92	-0.404	-20.2254174	5.3858052	-3.4950438	64.59528492	1.18029348	-23.2907427
1.17	117	-0.03	-0.951	-0.398	-19.7097552	4.1825934	-4.4117766	64.39474962	1.2318597	-23.27355396
1.18	118	-0.02	-0.951	-0.412	-20.1681216	2.9793816	-3.724227	64.19421432	1.27769634	-23.2620948
1.19	119	0.006	-0.933	-0.439	-19.767051	2.6929026	-3.0366774	63.98794944	1.31207382	-23.25063564
1.2	120	0.031	-0.953	-0.446	-18.9649098	1.718874	-2.0626488	63.7988733	1.34072172	-23.24490606
1.21	121	0.053	-0.925	-0.444	-19.480572	0.9167328	-0.859437	63.598338	1.35218088	-23.24490606
1.22	122	0.054	-0.9	-0.419	-18.1627686	0	-0.2291832	63.41499144	1.35218088	-23.24490606
1.23	123	0.051	-0.905	-0.434	-17.9335854	1.0886202	-0.2291832	63.23164488	1.35218088	-23.23917648
1.24	124	0.054	-0.915	-0.378	-16.5584862	1.5469866	-0.7448454	63.06548706	1.36364004	-23.22771732
1.25	125	0.056	-0.91	-0.406	-17.7044022	1.6615782	-1.432395	62.88787008	1.39228794	-23.22198774
1.26	126	0.048	-0.927	-0.446	-17.9908812	0.6302538	-0.8021412	62.70452352	1.39801752	-23.22198774
1.27	127	0.046	-0.948	-0.449	-17.7044022	-0.4583664	0.2291832	62.52117696	1.39228794	-23.22771732
1.28	128	0.054	-0.96	-0.465	-18.1054728	-0.4583664	1.4896908	62.3378304	1.3750992	-23.22771732
1.29	129	0.062	-0.976	-0.467	-19.1367972	-0.6302538	2.4637194	62.14302468	1.3464513	-23.22198774
1.3	130	0.062	-0.949	-0.472	-20.2827132	-1.8334656	3.3231564	61.9367598	1.3178034	-23.22198774
1.31	131	0.05	-0.942	-0.454	-19.8243468	-3.3231564	4.2398892	61.7362245	1.2605076	-23.2334469
1.32	132	0.054	-0.941	-0.436	-20.7410796	-3.5523396	5.156622	61.52423004	1.19748222	-23.24490606
1.33	133	0.033	-0.961	-0.443	-21.8296998	-4.3544808	5.2712136	61.306506	1.12872726	-23.2620948
1.34	134	0.044	-0.959	-0.416	-21.7151082	-4.583664	3.7815228	61.08305238	1.07143146	-23.28501312
1.35	135	0.038	-0.963	-0.439	-22.4599536	-4.0680018	1.718874	60.86532834	1.03705398	-23.31366102
1.36	136	0.018	-0.945	-0.463	-23.6058696	-4.010706	0	60.62468598	1.01413566	-23.3480385
1.37	137	0.006	-0.949	-0.505	-23.777757	-3.3231564	-1.6615782	60.38404362	1.00840608	-23.38814556
1.38	138	-0.002	-0.97	-0.499	-24.2934192	-2.9793816	-2.5210152	60.13767168	1.01413566	-23.42825262
1.39	139	-0.004	-0.951	-0.497	-26.069589	-4.010706	-2.6356068	59.874111	1.01413566	-23.47981884
1.4	140	-0.012	-0.94	-0.512	-27.6165756	-5.443101	-2.5210152	59.59336158	1.0026765	-23.53711464
1.41	141	-0.004	-0.948	-0.456	-28.0176462	-5.72958	-2.3491278	59.31261216	0.99121734	-23.60014002
1.42	142	0.004	-0.938	-0.463	-30.5386614	-4.8128472	-2.1199446	58.99748526	0.98548776	-23.65743582
1.43	143	0.014	-0.9	-0.454	-31.3980984	-4.4117766	-1.9480572	58.68235836	0.9740286	-23.70900204
1.44	144	0.015	-0.905	-0.466	-30.1948866	-4.4690724	-1.9480572	58.37296104	0.96829902	-23.75483868
1.45	145	0.019	-0.898	-0.496	-31.6272816	-4.0680018	-2.1199446	58.05210456	0.96256944	-23.8064049
1.46	146	0.027	-0.895	-0.519	-31.1689152	-2.6929026	-2.5210152	57.73697766	0.96256944	-23.84078238
1.47	147	0.036	-0.895	-0.53	-30.8824362	-1.6042824	-2.7501984	57.42185076	0.9740286	-23.87515986
1.48	148	0.028	-0.907	-0.525	-30.2521824	-1.6042824	-2.4637194	57.11818302	0.98548776	-23.90380776
1.49	149	0.018	-0.888	-0.521	-30.9970278	-1.8334656	-1.3750992	56.79732654	0.97975818	-23.92672608
1.5	150	0.005	-0.859	-0.484	-31.1116194	-2.3491278	0.0572958	56.48792922	0.96256944	-23.9496444
1.51	151	-0.01	-0.858	-0.502	-30.4240698	-2.8074942	0.4583664	56.1785319	0.93965112	-23.96683314
1.52	152	-0.019	-0.856	-0.501	-30.4813656	-4.7555514	0.9740286	55.86913458	0.89954406	-24.0069402
1.53	153	-0.021	-0.858	-0.521	-30.080295	-6.4744254	0.9167328	55.56546684	0.85370742	-24.05850642
1.54	154	-0.027	-0.883	-0.48	-29.1062664	-6.589017	0	55.26752868	0.81932994	-24.11007264
1.55	155	0.003	-0.881	-0.46	-29.4500412	-3.0939732	-0.6302538	54.9753201	0.8021412	-24.14445012
1.56	156	0.026	-0.894	-0.563	-31.51269	-2.005353	-1.432395	54.6601932	0.79641162	-24.16736844
1.57	157	0.044	-0.919	-0.552	-31.1689152	-2.4637194	-1.2032118	54.33933672	0.79068204	-24.19601634
1.58	158	0.055	-0.907	-0.557	-31.0543236	-2.8074942	-0.9167328	54.02420982	0.77922288	-24.23039382
1.59	159	0.043	-0.895	-0.556	-30.1375908	-2.2345362	-0.2291832	53.72054208	0.76203414	-24.24758256
1.6	160	0.013	-0.905	-0.549	-29.8511118	-1.3178034	0	53.4283335	0.75057498	-24.25904172
1.61	161	-0.021	-0.886	-0.536	-29.507337	-1.2605076	0.4583664	53.13039534	0.73338624	-24.27050088
1.62	162	-0.054	-0.875	-0.558	-29.7365202	-1.3750992	0.286479	52.8267276	0.72192708	-24.28196004
1.63	163	-0.065	-0.872	-0.571	-29.8511118	-1.0313244	0.0572958	52.52305986	0.71046792	-24.2934192
1.64	164	-0.054	-0.892	-0.571	-29.6792244	-0.3437748	-0.2291832	52.21939212	0.70473834	-24.29914878
1.65	165	-0.035	-0.895	-0.576	-29.9084076	-0.4583664	-0.6302538	51.92718354	0.69900876	-24.30487836
1.66	166	-0.013	-0.866	-0.538	-29.5646328	-0.5156622	-1.3750992	51.62924538	0.69900876	-24.31633752
1.67	167	0.016	-0.892	-0.56	-28.8197874	0.6875496	-2.291832	51.3370368	0.7161975	-24.32779668
1.68	168	0.027	-0.879	-0.569	-28.9916748	1.5469866	-3.2658606	51.03909864	0.75057498	-24.33925584
1.69	169	0.033	-0.824	-0.594	-29.3354496	3.2085648	-4.4117766	50.74116048	0.8021412	-24.33925584
1.7	170	0.038	-0.846	-0.621	-27.4446882	3.7815228	-5.156622	50.47187022	0.859437	-24.34498542
1.71	171	0.033	-0.869	-0.635	-26.9863218	2.5210152	-4.9847346	50.19685038	0.91100322	-24.35644458
1.72	172	0.022	-0.86	-0.649	-26.5852512	0.6302538	-3.9534102	49.92183054	0.9453807	-24.3793629
1.73	173	0.025	-0.85	-0.641	-25.2674478	-2.1199446	-2.3491278	49.66399944	0.9453807	-24.41374038
1.74	174	0.027	-0.828	-0.628	-23.4339822	-3.3231564	-1.0886202	49.42908666	0.92819196	-24.44811786
1.75	175	0.026	-0.828	-0.62	-21.9442914	-3.2085648	-0.7448454	49.2170922	0.91100322	-24.47676576
1.76	176	0.02	-0.828	-0.606	-21.0848544	-2.4064236	-0.9740286	48.99936816	0.90527364	-24.50541366
1.77	177	0.002	-0.804	-0.571	-20.8556712	-2.291832	-1.2032118	48.7873737	0.89381448	-24.52833198
1.78	178	-0.014	-0.81	-0.527	-18.5638392	-1.5469866	-2.005353	48.59829756	0.89954406	-24.55697988
1.79	179	-0.018	-0.823	-0.54	-18.2773602	-0.859437	-2.3491278	48.414951	0.90527364	-24.5798982
1.8	180	-0.015	-0.822	-0.568	-18.621135	0.2291832	-3.2658606	48.24879318	0.92246238	-24.59708694
1.81	181	-0.002	-0.841	-0.583	-17.8189938	1.0886202	-3.2658606	48.06544662	0.95111028	-24.6085461
1.82	182	-0.003	-0.837	-0.592	-17.18874	0.9167328	-2.9220858	47.89355922	0.97975818	-24.62573484
1.83	183	0.005	-0.828	-0.594	-16.3865988	1.432395	-2.9220858	47.7274014	1.00840608	-24.63146442
1.84	184	0.015	-0.832	-0.587	-15.756345	2.0626488	-2.86479	47.56697316	1.03705398	-24.637194
1.85	185	0.016	-0.766	-0.599	-15.8709366	2.8074942	-2.291832	47.41800408	1.07143146	-24.63146442
1.86	186	0.019	-0.786	-0.589	-13.9801752	4.010706	-2.4064236	47.27476458	1.11153852	-24.62000526
1.87	187	0.019	-0.796	-0.585	-13.4072172	4.4690724	-2.291832	47.13725466	1.15737516	-24.59708694
1.88	188	0.023	-0.788	-0.58	-13.750992	4.6982556	-2.291832	46.99974474	1.2032118	-24.5798982
1.89	189	0.018	-0.798	-0.585	-13.6364004	4.8128472	-2.0626488	46.86223482	1.24904844	-24.55697988
1.9	190	0.019	-0.819	-0.585	-13.8082878	4.3544808	-1.8907614	46.7533728	1.2891555	-24.53979114
1.91	191	0.018	-0.836	-0.576	-14.32395	3.7815228	-1.5469866	46.6101333	1.32353298	-24.5226024
1.92	192	0.025	-0.843	-0.568	-15.3552744	3.0939732	-1.3750992	46.44970506	1.35218088	-24.51114324
1.93	193	0.033	-0.819	-0.562	-17.0168526	2.9793816	-1.145916	46.27781766	1.3750992	-24.4939545
1.94	194	0.034	-0.818	-0.56	-17.475219	3.0939732	-0.9740286	46.10020068	1.4037471	-24.48249534
1.95	195	0.025	-0.812	-0.565	-18.5065434	2.9220858	-1.0886202	45.94550202	1.42666542	-24.4653066
1.96	196	0.006	-0.802	-0.571	-19.3086846	3.3231564	-1.6042824	45.74496672	1.4610429	-24.45384744
1.97	197	-0.01	-0.794	-0.574	-19.9962342	3.8388186	-2.0626488	45.54443142	1.49542038	-24.44238828
1.98	198	-0.011	-0.791	-0.577	-20.626488	4.4690724	-2.4637194	45.33243696	1.54125702	-24.42519954
1.99	199	-0.002	-0.798	-0.581	-21.1421502	4.5263682	-2.6356068	45.1204425	1.58709366	-24.41374038
2	200	0.012	-0.797	-0.581	-21.6005166	3.6096354	-2.5210152	44.92563678	1.62720072	-24.40228122
2.01	201	0.024	-0.787	-0.572	-21.9442914	2.1199446	-2.1772404	44.70218316	1.65584862	-24.40228122
2.02	202	0.032	-0.78	-0.559	-22.1734746	0.859437	-1.7761698	44.47872954	1.66730778	-24.4080108
2.03	203	0.03	-0.783	-0.552	-22.2307704	0.5156622	-1.7761698	44.24954634	1.68449652	-24.41946996
2.04	204	0.039	-0.744	-0.559	-22.6891368	0.5156622	-2.291832	44.02036314	1.69595568	-24.43092912
2.05	205	0.032	-0.76	-0.561	-22.0015872	0.2291832	-1.6615782	43.831287	1.70741484	-24.44238828
2.06	206	0.029	-0.763	-0.55	-21.4286292	-0.1718874	-1.4896908	43.61356296	1.718874	-24.45384744
2.07	207	0.029	-0.763	-0.53	-22.4599536	-1.7761698	-1.145916	43.38437976	1.70741484	-24.47676576
2.08	208	0.023	-0.749	-0.51	-24.0069402	-4.870143	-0.6875496	43.13800782	1.67303736	-24.51687282
2.09	209	0.015	-0.74	-0.535	-24.7517856	-5.72958	-0.3437748	42.8859063	1.6329303	-24.55697988
2.1	210	0.015	-0.731	-0.552	-24.064236	-5.72958	0	42.66818226	1.58709366	-24.59708694
2.11	211	0.016	-0.722	-0.527	-22.8037284	-7.161975	0.3437748	42.43899906	1.53552744	-24.64292358
2.12	212	0.008	-0.712	-0.532	-20.7410796	-9.2246238	0.572958	42.2270046	1.4610429	-24.70594896
2.13	213	0.014	-0.688	-0.388	-19.3659804	-7.8495246	0.4010706	42.03219888	1.39801752	-24.75751518
2.14	214	0.033	-0.68	-0.384	-21.4286292	-1.6042824	0	41.81447484	1.38082878	-24.76897434
2.15	215	0.041	-0.637	-0.535	-23.9496444	-1.2032118	-0.2291832	41.58529164	1.3750992	-24.7804335
2.16	216	0.035	-0.618	-0.46	-17.18874	-1.2032118	-0.572958	41.40767466	1.36936962	-24.79189266
2.17	217	0.029	-0.604	-0.485	-14.896908	1.3750992	-1.0313244	41.25870558	1.38655836	-24.79189266
2.18	218	0.02	-0.549	-0.517	-11.2299768	-0.7448454	-0.7448454	41.14411398	1.38082878	-24.80335182
2.19	219	0.017	-0.556	-0.49	-2.5210152	-4.0680018	-0.6302538	41.11546608	1.35791046	-24.83199972
2.2	220	-0.015	-0.506	-0.486	2.9220858	-8.4224826	0.2291832	41.15557314	1.2891555	-24.88929552
2.21	221	-0.02	-0.474	-0.389	10.4278356	-10.4278356	0.9740286	41.25870558	1.20894138	-24.9523209
2.22	222	-0.019	-0.504	-0.389	17.475219	-8.7662574	0.7448454	41.43632256	1.14018642	-25.00388712
2.23	223	-0.012	-0.464	-0.454	20.9702628	-7.5057498	0.286479	41.64831702	1.0886202	-25.04972376
2.24	224	-0.003	-0.471	-0.418	29.220858	-6.302538	-0.6302538	41.94625518	1.05424272	-25.10128998
2.25	225	0.021	-0.511	-0.444	34.8358464	-4.0680018	-1.3178034	42.30721872	1.03705398	-25.13566746
2.26	226	0.032	-0.535	-0.436	39.7632852	-4.7555514	-1.3178034	42.70828932	1.01986524	-25.1815041
2.27	227	0.024	-0.543	-0.388	45.0344988	-5.443101	-0.859437	43.16665572	0.99121734	-25.22161116
2.28	228	-0.009	-0.575	-0.422	50.2484166	-5.5003968	0.286479	43.67658834	0.95683986	-25.25598864
2.29	229	-0.026	-0.608	-0.397	55.9207008	-5.7868758	0.859437	44.24381676	0.92246238	-25.29036612
2.3	230	-0.023	-0.648	-0.413	60.2178858	-6.1879464	0.6875496	44.86834098	0.87662574	-25.33047318
2.31	231	-0.018	-0.671	-0.421	63.1972674	-7.8495246	0.286479	45.51005394	0.8307891	-25.3820394
2.32	232	-0.018	-0.672	-0.404	66.0620574	-7.2192708	0.1145916	46.1804148	0.79068204	-25.43360562
2.33	233	-0.004	-0.693	-0.431	69.9581718	-4.583664	-0.6875496	46.89088272	0.7734933	-25.4679831
2.34	234	0.007	-0.708	-0.441	73.2240324	-3.0939732	-1.0886202	47.63572812	0.7734933	-25.496631
2.35	235	0.009	-0.74	-0.436	77.1201468	-2.5210152	-1.3178034	48.43213974	0.77922288	-25.5252789
2.36	236	0.002	-0.801	-0.44	79.4119788	-3.3231564	-0.5156622	49.23428094	0.7734933	-25.54819722
2.37	237	0	-0.859	-0.403	80.7297822	-5.3285094	0.7448454	50.05934046	0.7448454	-25.5825747
2.38	238	0.005	-0.92	-0.439	80.3860074	-6.2452422	2.1772404	50.87294082	0.69900876	-25.61695218
2.39	239	0.008	-1.001	-0.447	79.4119788	-8.3651868	3.5523396	51.6808116	0.6302538	-25.65705924
2.4	240	0.009	-1.08	-0.392	77.922288	-8.021412	4.7555514	52.48868238	0.55576926	-25.68570714
2.41	241	0.013	-1.17	-0.481	74.0261736	-5.6722842	5.3858052	53.23925736	0.49274388	-25.6971663
2.42	242	0.003	-1.264	-0.515	70.760313	-3.9534102	6.1879464	53.96118444	0.4297185	-25.69143672
2.43	243	-0.033	-1.359	-0.557	67.7809314	-2.4064236	7.734933	54.64873404	0.36096354	-25.66278882
2.44	244	-0.091	-1.456	-0.554	64.9734372	-0.9740286	9.5683986	55.30763574	0.286479	-25.6112226
2.45	245	-0.142	-1.499	-0.493	59.3584488	0	11.2299768	55.91497122	0.2005353	-25.54819722
2.46	246	-0.171	-1.487	-0.466	52.5975444	2.0626488	12.318597	56.45355174	0.1145916	-25.46225352
2.47	247	-0.189	-1.452	-0.43	45.3209778	5.5576926	12.2040054	56.91191814	0.04583664	-25.34193234
2.48	248	-0.195	-1.43	-0.428	37.0703826	11.3445684	10.313244	57.28434084	0.02291832	-25.19296326
2.49	249	-0.173	-1.413	-0.441	29.1635622	18.4492476	8.7662574	57.582279	0.05156622	-24.98669838
2.5	250	-0.14	-1.418	-0.444	22.2307704	24.1788276	8.1932994	57.8114622	0.10313244	-24.73459686
2.51	251	-0.12	-1.421	-0.434	17.1314442	27.9030546	9.5111028	57.9833496	0.16615782	-24.44811786
2.52	252	-0.108	-1.395	-0.398	10.886202	30.7105488	11.6310474	58.09221162	0.21772404	-24.1215318
2.53	253	-0.066	-1.321	-0.365	6.016059	32.4867186	13.6936962	58.14950742	0.26929026	-23.77202742
2.54	254	-0.054	-1.253	-0.328	2.9793816	30.1948866	14.610429	58.17815532	0.29220858	-23.43971178
2.55	255	-0.049	-1.168	-0.296	-0.9740286	30.1375908	13.9801752	58.19534406	0.32085648	-23.10739614
2.56	256	-0.024	-1.098	-0.274	-5.2712136	31.0543236	12.4904844	58.13804826	0.3724227	-22.7750805
2.57	257	-0.002	-1.021	-0.289	-11.0580894	31.2835068	11.0007936	58.02345666	0.4297185	-22.45422402
2.58	258	0.014	-0.971	-0.32	-17.1314442	31.1689152	9.7975818	57.85156926	0.50420304	-22.13336754
2.59	259	0.027	-0.929	-0.323	-22.5172494	30.0229992	8.9381448	57.62238606	0.57868758	-21.83542938
2.6	260	0.047	-0.885	-0.337	-27.2728008	29.4500412	8.1360036	57.35882538	0.6589017	-21.5432208
2.61	261	0.07	-0.839	-0.311	-31.51269	32.4294228	6.875496	57.0379689	0.76203414	-21.23382348
2.62	262	0.085	-0.808	-0.332	-35.236917	37.528749	5.9587632	56.67700536	0.90527364	-20.8843191
2.63	263	0.095	-0.789	-0.276	-40.3362432	35.2942128	5.156622	56.27020518	1.04278356	-20.56346262
2.64	264	0.095	-0.782	-0.266	-47.4409224	32.6013102	3.0366774	55.78892046	1.18029348	-20.27698362
2.65	265	0.093	-0.769	-0.169	-56.6655462	31.799169	1.145916	55.23888078	1.34072172	-20.00769336
2.66	266	0.065	-0.738	-0.242	-64.9161414	30.7678446	0.4010706	54.57997908	1.49542038	-19.75559184
2.67	267	0.018	-0.709	-0.36	-70.2446508	27.5592798	0.286479	53.86951116	1.63865988	-19.53213822
2.68	268	-0.02	-0.647	-0.292	-69.614397	21.3713334	0.9740286	53.16477282	1.74179232	-19.35452124
2.69	269	-0.012	-0.643	-0.204	-71.6770458	22.2307704	0.0572958	52.44284574	1.8621135	-19.18263384
2.7	270	0.053	-0.616	-0.296	-79.5265704	29.3354496	-1.6615782	51.64070454	2.03973048	-18.95918022
2.71	271	0.087	-0.607	-0.396	-84.3967134	28.4187168	-3.724227	50.78699712	2.22307704	-18.7643745
2.72	272	0.094	-0.611	-0.448	-92.3608296	27.6165756	-5.5576926	49.85307558	2.42361234	-18.58675752
2.73	273	0.056	-0.627	-0.508	-97.116381	24.637194	-6.302538	48.8733174	2.61268848	-18.44351802
2.74	274	0.028	-0.649	-0.529	-101.8146366	24.350715	-7.161975	47.841993	2.8074942	-18.3060081
2.75	275	0.03	-0.655	-0.56	-108.6901326	26.5279554	-8.9381448	46.74191364	3.03094782	-18.17422776
2.76	276	0.044	-0.659	-0.51	-113.5602756	25.0955604	-9.5683986	45.59599764	3.24867186	-18.05390658
2.77	277	0.045	-0.649	-0.52	-117.8001648	17.5325148	-8.7089616	44.39851542	3.41482968	-17.99661078
2.78	278	0.061	-0.657	-0.459	-119.3471514	14.1520626	-7.9641162	43.18957404	3.5523396	-17.95650372
2.79	279	0.073	-0.691	-0.385	-124.331886	12.6623718	-8.5370742	41.92333686	3.68411994	-17.9335854
2.8	280	0.075	-0.719	-0.356	-130.1187618	14.3812458	-10.3705398	40.61699262	3.8388186	-17.91639666
2.81	281	0.072	-0.735	-0.345	-131.0354946	16.9595568	-12.1467096	39.28773006	4.02216516	-17.89920792
2.82	282	0.03	-0.782	-0.284	-130.4052408	17.9908812	-13.8082878	37.9584675	4.22843004	-17.88774876
2.83	283	-0.017	-0.798	-0.289	-133.0408476	20.05353	-14.7250206	36.60628662	4.45188366	-17.88201918
2.84	284	-0.057	-0.791	-0.22	-133.212735	19.8816426	-14.610429	35.25410574	4.67533728	-17.88201918
2.85	285	-0.069	-0.762	-0.158	-133.7283972	18.8503182	-14.610429	33.9191136	4.88160216	-17.88774876
2.86	286	-0.067	-0.721	-0.06	-132.1814106	18.048177	-15.0687954	32.5726623	5.09359662	-17.91066708
2.87	287	-0.054	-0.669	-0.042	-133.1554392	19.5951636	-16.3865988	31.21475184	5.32277982	-17.93931498
2.88	288	-0.051	-0.596	-0.006	-134.0148762	19.2513888	-17.8189938	29.84538222	5.5576926	-17.9908812
2.89	289	-0.048	-0.507	0.057	-133.3273266	19.5951636	-19.5378678	28.48174218	5.79833496	-18.05963616
2.9	290	-0.049	-0.401	0.112	-132.7543686	19.8816426	-20.5691922	27.14102046	6.0447069	-18.13985028
2.91	291	-0.04	-0.258	0.143	-131.493861	19.480572	-21.772404	25.79456916	6.29680842	-18.23725314
2.92	292	-0.032	-0.124	0.2	-132.5824812	21.1421502	-23.0329116	24.43092912	6.5603691	-18.35184474
2.93	293	0.008	0	0.207	-136.936962	22.345362	-25.496631	23.02145244	6.8468481	-18.48362508
2.94	294	0.054	0.132	0.215	-142.0362882	17.9335854	-28.7051958	21.55467996	7.09894962	-18.67270122
2.95	295	0.084	0.283	0.232	-147.3075018	10.5424272	-32.6013102	20.01342294	7.29375534	-18.93053232
2.96	296	0.081	0.416	0.211	-151.2036162	6.1306506	-34.2055926	18.44351802	7.44272442	-19.22847048
2.97	297	0.053	0.52	0.162	-151.7765742	0.859437	-34.3201842	16.86215394	7.5343977	-19.54359738
2.98	298	0.039	0.573	0.113	-142.666542	0.6302538	-33.2888598	15.37246314	7.61461182	-19.85872428
2.99	299	0.08	0.562	0.027	-123.8162238	5.5003968	-31.9710564	14.07184848	7.734933	-20.14520328
3	300	0.183	0.605	-0.074	-102.0438198	12.605076	-33.231564	12.96030996	7.92973872	-20.43741186
3.01	301	0.517	0.751	-0.34	-70.3592424	0.9167328	-38.2735944	12.19827582	8.01568242	-20.80410498
3.02	302	0.848	0.854	-0.428	-63.0826758	-26.6998428	-36.8984952	11.49926706	7.82660628	-21.2280939
3.03	303	0.904	0.997	-0.398	-59.587632	-45.3209778	-26.2987722	10.85182452	7.43126526	-21.58332786
3.04	304	0.948	1.037	-1.039	-34.950438	-57.4676874	-11.5737516	10.47940182	6.89268474	-21.81251106
3.05	305	0.308	0.551	-2.33	-51.7381074	-82.1048814	0.4010706	9.94655088	6.09054354	-21.9729393
3.06	306	0.186	0.02	-3.919	-133.6711014	-61.9940556	-1.9480572	8.58291084	5.47747848	-22.10471964
3.07	307	1.234	0.755	-3.996	-129.8895786	-13.5218088	-40.966497	7.22500038	5.3858052	-22.52297898
3.08	308	-0.211	1.16	-3.996	-15.6417534	-67.322565	-17.3606274	7.05311298	4.74409224	-22.79226924
3.09	309	-0.874	0.06	-3.996	91.7305758	-81.1308528	-11.1153852	7.97557536	3.9820581	-23.03864118
3.1	310	-0.656	0.271	-3.924	-19.5378678	48.414951	-3.724227	7.77504006	4.45188366	-22.99280454
3.11	311	-0.639	0.648	-3.139	-52.8267276	64.2858876	-2.9793816	7.23072996	5.08213746	-22.91832
3.12	312	-0.044	0.654	-2.549	-26.8717302	43.6593996	14.2093584	6.97289886	5.48320806	-22.71205512
3.13	313	0.391	0.524	-1.904	-29.3354496	7.6203414	31.6845774	6.70933818	5.51758554	-22.38546906
3.14	314	0.831	0.143	-1.335	-31.1689152	-4.2398892	31.2835068	6.42285918	5.43737142	-22.07607174
3.15	315	0.869	-0.324	-1.065	-22.9756158	-2.2345362	22.4599536	6.22805346	5.42018268	-21.8583477
3.16	316	0.616	-0.588	-0.871	1.9480572	5.9014674	15.8136408	6.26816052	5.46601932	-21.69218988
3.17	317	0.171	-0.523	-0.745	32.8304934	14.3812458	9.7975818	6.60620574	5.59779966	-21.57759828
3.18	318	-0.072	-0.293	-0.552	27.3873924	12.2040054	8.9381448	6.89268474	5.71239126	-21.47446584
3.19	319	-0.164	0.107	-0.341	2.4637194	7.5630456	9.6829902	6.9327918	5.77541664	-21.36560382
3.2	320	-0.181	0.371	-0.254	-10.9434978	5.0420304	9.2246238	6.7895523	5.79260538	-21.26820096
3.21	321	-0.104	0.41	-0.217	-15.8709366	5.3858052	5.9014674	6.63485364	5.83844202	-21.199446
3.22	322	-0.048	0.326	-0.201	-15.756345	1.8907614	1.3178034	6.4744254	5.84990118	-21.18225726
3.23	323	-0.062	0.254	-0.219	-11.9175264	3.151269	-3.5523396	6.35410422	5.88427866	-21.21090516
3.24	324	-0.091	0.26	-0.267	-9.3965112	8.3651868	-6.7036086	6.25097178	5.97595194	-21.26820096
3.25	325	-0.074	0.284	-0.334	-5.9014674	10.4851314	-6.875496	6.15356892	6.0733548	-21.31976718
3.26	326	-0.043	0.287	-0.39	-4.2398892	9.3392154	-6.302538	6.1020027	6.17075766	-21.3713334
3.27	327	0.018	0.233	-0.475	-5.8441716	8.1932994	-7.1046792	6.03324774	6.26243094	-21.43435878
3.28	328	0.031	0.164	-0.557	-11.6310474	8.5370742	-8.2505952	5.90719698	6.34837464	-21.50311374
3.29	329	0.034	0.109	-0.657	-15.1260912	6.7609044	-7.161975	5.74676874	6.42285918	-21.56613912
3.3	330	0.04	0.049	-0.781	-14.896908	7.2192708	-4.583664	5.56342218	6.48588456	-21.6005166
3.31	331	0.065	0.003	-0.9	-17.3606274	11.2872726	-2.0626488	5.3858052	6.59474658	-21.60624618
3.32	332	0.103	-0.034	-0.978	-19.480572	16.5011904	-1.7761698	5.1852699	6.75517482	-21.6005166
3.33	333	0.106	-0.015	-1.049	-22.4026578	24.1788276	-5.2712136	4.95035712	6.99581718	-21.62343492
3.34	334	0.101	0.036	-1.102	-26.1268848	30.080295	-10.1413566	4.6696077	7.29375534	-21.69218988
3.35	335	0.093	0.109	-1.207	-27.7311672	29.4500412	-14.037471	4.36021038	7.58596392	-21.8010519
3.36	336	0.007	0.194	-1.328	-25.0382646	25.78311	-15.9855282	4.07946096	7.8495246	-21.93283224
3.37	337	-0.002	0.244	-1.396	-21.5432208	22.631841	-17.475219	3.8388186	8.08443738	-22.08180132
3.38	338	0.057	0.244	-1.43	-17.0741484	19.7097552	-16.6730778	3.6382833	8.28497268	-22.2307704
3.39	339	0.176	0.228	-1.451	-12.7196676	17.3606274	-13.9228794	3.48931422	8.46831924	-22.35109158
3.4	340	0.265	0.203	-1.43	-7.448454	14.6677248	-9.5683986	3.38618178	8.61728832	-22.43703528
3.41	341	0.317	0.185	-1.352	-0.1145916	11.5164558	-2.8074942	3.38618178	8.73187992	-22.45422402
3.42	342	0.326	0.152	-1.225	4.0680018	8.2505952	1.3750992	3.42628884	8.81209404	-22.43703528
3.43	343	0.318	0.103	-1.083	3.0939732	5.6722842	4.1252976	3.4663959	8.86938984	-22.39119864
3.44	344	0.282	0.056	-0.942	3.2085648	4.297185	5.72958	3.50650296	8.9094969	-22.32817326
3.45	345	0.273	-0.019	-0.844	4.8128472	5.3285094	6.1879464	3.55806918	9.00689976	-22.27087746
3.46	346	0.273	-0.083	-0.815	3.2658606	7.0473834	6.875496	3.60390582	9.06992514	-22.19639292
3.47	347	0.275	-0.144	-0.816	0.4010706	8.9954406	7.5057498	3.62109456	9.15586884	-22.11044922
3.48	348	0.279	-0.202	-0.813	-0.5156622	10.7716104	8.0787078	3.62682414	9.2532717	-22.01877594
3.49	349	0.271	-0.198	-0.791	-1.8334656	11.3445684	8.307891	3.62109456	9.36213372	-21.92710266
3.5	350	0.25	-0.171	-0.794	-0.5156622	11.172681	7.9641162	3.66120162	9.49391406	-21.83542938
3.51	351	0.219	-0.172	-0.826	1.432395	10.4851314	6.9900876	3.68984952	9.5970465	-21.75521526
3.52	352	0.224	-0.163	-0.861	3.2085648	8.6516658	5.9014674	3.72995658	9.67726062	-21.6864603
3.53	353	0.228	-0.161	-0.88	5.72958	3.9534102	5.8441716	3.79871154	9.7116381	-21.62343492
3.54	354	0.248	-0.167	-0.926	7.0473834	1.3750992	6.589017	3.87892566	9.72309726	-21.55467996
3.55	355	0.267	-0.174	-0.974	7.734933	0.1145916	7.6203414	4.010706	9.75747474	-21.48019542
3.56	356	0.273	-0.2	-1.021	8.4224826	-1.718874	9.2819196	4.11383844	9.73455642	-21.38852214
3.57	357	0.273	-0.224	-1.064	8.8235532	-3.6669312	10.7143146	4.22270046	9.68871978	-21.2853897
3.58	358	0.284	-0.241	-1.101	8.1360036	-4.7555514	11.2872726	4.3258329	9.63715356	-21.17652768
3.59	359	0.289	-0.24	-1.106	7.9641162	-5.443101	11.172681	4.42323576	9.57412818	-21.07339524
3.6	360	0.283	-0.252	-1.081	7.8495246	-4.9847346	9.740286	4.54928652	9.53402112	-20.97599238
3.61	361	0.259	-0.273	-1.054	6.0733548	-5.0420304	7.6776372	4.62377106	9.4824549	-20.90723742
3.62	362	0.23	-0.29	-1.01	3.0939732	-6.016059	4.870143	4.66387812	9.41942952	-20.86140078
3.63	363	0.2	-0.286	-0.933	-1.7761698	-6.7609044	1.5469866	4.65241896	9.35067456	-20.8556712
3.64	364	0.163	-0.236	-0.86	-4.4690724	-7.8495246	-1.145916	4.60085274	9.27619002	-20.87285994
3.65	365	0.121	-0.185	-0.821	-4.0680018	-5.9014674	-3.0366774	4.583664	9.20170548	-20.90723742
3.66	366	0.093	-0.144	-0.829	-4.583664	-2.9220858	-4.010706	4.53209778	9.17878716	-20.94734448
3.67	367	0.076	-0.123	-0.843	-6.4171296	-1.6042824	-4.297185	4.45761324	9.16159842	-20.99318112
3.68	368	0.084	-0.113	-0.89	-7.8495246	-0.2291832	-4.583664	4.37166954	9.167328	-21.03901776
3.69	369	0.104	-0.128	-0.927	-9.0527364	0.9167328	-4.870143	4.2685371	9.17878716	-21.0848544
3.7	370	0.116	-0.14	-0.947	-9.6829902	1.2605076	-5.5576926	4.18832298	9.17305758	-21.13069104
3.71	371	0.127	-0.148	-0.964	-9.7975818	2.0626488	-6.3598338	4.07946096	9.1959759	-21.19371642
3.72	372	0.12	-0.138	-0.965	-8.880849	1.8907614	-6.4744254	3.97632852	9.21889422	-21.2567418
3.73	373	0.106	-0.121	-0.96	-6.1306506	1.4896908	-5.8441716	3.90757356	9.23608296	-21.3140376
3.74	374	0.099	-0.094	-0.956	-3.9534102	0.7448454	-4.6982556	3.85600734	9.24754212	-21.35987424
3.75	375	0.101	-0.056	-0.947	-1.9480572	-0.4010706	-3.3231564	3.77579322	9.167328	-21.39425172
3.76	376	0.104	-0.029	-0.937	-0.0572958	-2.1772404	-1.8334656	3.77006364	9.14440968	-21.41144046
3.77	377	0.109	-0.029	-0.936	1.4896908	-3.0939732	-0.6302538	3.78725238	9.11576178	-21.42289962
3.78	378	0.109	-0.047	-0.944	2.9793816	-1.6042824	-0.1718874	3.81590028	9.09857304	-21.4286292
3.79	379	0.11	-0.083	-0.961	3.9534102	-0.4583664	-0.4010706	3.85600734	9.09284346	-21.4286292
3.8	380	0.096	-0.114	-0.957	3.8961144	0.8021412	-1.4896908	3.9247623	9.05846598	-21.43435878
3.81	381	0.109	-0.131	-0.959	3.8961144	7.0473834	-2.578311	3.95913978	9.12722094	-21.4572771
3.82	382	0.113	-0.132	-0.963	2.4064236	10.7143146	-2.1199446	3.9820581	9.23608296	-21.46873626
3.83	383	0.114	-0.119	-0.974	1.3178034	11.0580894	-0.3437748	3.99351726	9.34494498	-21.4572771
3.84	384	0.111	-0.116	-0.985	0.2291832	8.6516658	2.005353	3.99924684	9.43088868	-21.4286292
3.85	385	0.1	-0.111	-0.977	-1.7761698	6.302538	4.1825934	3.99924684	9.44234784	-21.37706298
3.86	386	0.091	-0.104	-0.971	-3.724227	4.583664	5.7868758	3.97059894	9.4824549	-21.30830802
3.87	387	0.087	-0.102	-0.982	-4.1252976	3.7815228	6.5317212	3.94195104	9.51683238	-21.23955306
3.88	388	0.096	-0.11	-0.992	-2.9220858	2.9220858	5.9587632	3.91903272	9.5397507	-21.17652768
3.89	389	0.109	-0.117	-0.995	-1.5469866	2.291832	5.156622	3.91330314	9.56266902	-21.12496146
3.9	390	0.12	-0.125	-0.995	-1.0886202	2.291832	4.4117766	3.94768062	9.52256196	-21.06193608
3.91	391	0.126	-0.13	-0.989	-1.0313244	1.8907614	3.9534102	3.94195104	9.5397507	-21.02182902
3.92	392	0.128	-0.129	-0.982	-1.0313244	1.9480572	3.8388186	3.94195104	9.55693944	-20.98172196
3.93	393	0.135	-0.122	-0.975	-0.7448454	2.6929026	3.6669312	3.94195104	9.57985776	-20.9416149
3.94	394	0.149	-0.11	-0.975	-0.5156622	4.0680018	3.5523396	3.94195104	9.61996482	-20.90150784
3.95	395	0.165	-0.101	-0.978	-0.572958	5.8441716	3.0939732	3.94768062	9.67153104	-20.86140078
3.96	396	0.185	-0.101	-0.983	-0.572958	8.307891	2.1772404	3.94195104	9.75174516	-20.83275288
3.97	397	0.208	-0.106	-0.981	-0.6875496	10.5424272	1.0886202	3.93622146	9.8548776	-20.80983456
3.98	398	0.234	-0.113	-0.978	-0.6302538	11.5164558	0.1718874	3.93049188	9.9694692	-20.7983754
3.99	399	0.26	-0.117	-0.976	-0.572958	11.45916	-0.1145916	3.9247623	10.0840608	-20.78691624
4	400	0.277	-0.117	-0.97	-0.7448454	10.313244	-0.2291832	3.93622146	10.2559482	-20.78691624
4.01	401	0.285	-0.111	-0.965	-1.145916	8.7662574	0	3.9247623	10.3418919	-20.78118666
4.02	402	0.284	-0.101	-0.968	-1.0313244	7.2192708	0.286479	3.91330314	10.41064686	-20.7697275
4.03	403	0.28	-0.091	-0.969	-0.6875496	5.9014674	0.4010706	3.90757356	10.46794266	-20.75826834
4.04	404	0.275	-0.085	-0.968	-0.4010706	4.9847346	0.1718874	3.90757356	10.51950888	-20.75253876
4.05	405	0.27	-0.085	-0.964	-0.4583664	4.0680018	0	3.8961144	10.70285544	-20.76399792
4.06	406	0.26	-0.086	-0.959	-0.572958	2.9793816	-0.286479	3.89038482	10.73150334	-20.7697275
4.07	407	0.254	-0.087	-0.956	-0.572958	1.6615782	-0.3437748	3.88465524	10.74869208	-20.7697275
4.08	408	0.248	-0.088	-0.96	-0.286479	0.5156622	-0.1718874	3.87892566	10.75442166	-20.7697275
4.09	409	0.244	-0.085	-0.966	-0.1718874	-0.286479	0	3.87892566	10.75442166	-20.7697275
4.1	410	0.241	-0.081	-0.973	0	-1.145916	0.1145916	3.84454818	10.92057948	-20.7983754
4.11	411	0.238	-0.084	-0.98	0.1718874	-1.9480572	0.286479	3.84454818	10.90339074	-20.7983754
4.12	412	0.23	-0.092	-0.979	-0.0572958	-2.6929026	0.5156622	3.84454818	10.87474284	-20.7983754
4.13	413	0.218	-0.097	-0.974	-0.3437748	-3.5523396	0.7448454	3.84454818	10.84036536	-20.79264582
4.14	414	0.204	-0.102	-0.972	-0.286479	-4.0680018	0.8021412	3.84454818	10.8002583	-20.78691624
4.15	415	0.19	-0.106	-0.972	0	-4.2398892	0.572958	3.87319608	10.7429625	-20.77545708
4.16	416	0.179	-0.106	-0.971	0.572958	-3.8961144	0.4583664	3.87892566	10.70285544	-20.77545708
4.17	417	0.17	-0.11	-0.969	1.0313244	-3.4950438	0.2291832	3.89038482	10.66847796	-20.77545708
4.18	418	0.164	-0.114	-0.97	1.3178034	-3.2658606	0.1145916	3.90184398	10.63983006	-20.78118666
4.19	419	0.16	-0.122	-0.97	1.3750992	-3.4950438	0	3.91903272	10.60545258	-20.78118666
4.2	420	0.158	-0.13	-0.968	1.3178034	-3.8961144	-0.1718874	3.99351726	10.52523846	-20.77545708
4.21	421	0.158	-0.138	-0.968	1.145916	-4.4117766	-0.4583664	4.00497642	10.47940182	-20.78118666
4.22	422	0.155	-0.137	-0.97	0.9167328	-4.5263682	-0.7448454	4.010706	10.43356518	-20.79264582
4.23	423	0.153	-0.138	-0.974	0.8021412	-4.3544808	-1.0886202	4.01643558	10.39345812	-20.80983456
4.24	424	0.15	-0.137	-0.976	0.859437	-3.7815228	-1.2605076	4.02216516	10.35908064	-20.8270233
4.25	425	0.146	-0.136	-0.976	0.7448454	-3.2658606	-1.2605076	4.0966497	10.26167778	-20.8270233
4.26	426	0.144	-0.132	-0.973	0.6302538	-2.8074942	-1.145916	4.0966497	10.23302988	-20.83848246
4.27	427	0.142	-0.126	-0.971	0.5156622	-2.578311	-0.9740286	4.10237928	10.21011156	-20.84994162
4.28	428	0.142	-0.115	-0.969	0.3437748	-2.4064236	-0.859437	4.10237928	10.18719324	-20.86140078
4.29	429	0.144	-0.108	-0.972	0.2291832	-2.291832	-0.7448454	4.10237928	10.16427492	-20.87285994
4.3	430	0.146	-0.103	-0.974	0.286479	-2.4637194	-0.6875496	4.1252976	10.06114248	-20.87285994
4.31	431	0.148	-0.1	-0.975	0.2291832	-2.5210152	-0.6302538	4.1252976	10.03822416	-20.87858952
4.32	432	0.151	-0.1	-0.976	0.4010706	-2.1772404	-0.5156622	4.13102718	10.01530584	-20.8843191
4.33	433	0.155	-0.102	-0.978	0.4010706	-1.6042824	-0.3437748	4.13102718	9.9981171	-20.89004868
4.34	434	0.16	-0.103	-0.977	0.4583664	-0.8021412	-0.1718874	4.13675676	9.99238752	-20.89577826
4.35	435	0.166	-0.103	-0.975	0.6302538	-0.1145916	0	4.20551172	9.9121734	-20.87285994
4.36	436	0.171	-0.102	-0.972	0.8021412	0.3437748	0.2291832	4.21697088	9.91790298	-20.87285994
4.37	437	0.175	-0.102	-0.968	0.6302538	0.572958	0.4010706	4.22270046	9.92363256	-20.86713036
4.38	438	0.177	-0.099	-0.966	0.4010706	0.6875496	0.6302538	4.22843004	9.92936214	-20.86140078
4.39	439	0.178	-0.098	-0.965	0.4010706	0.8021412	0.8021412	4.23415962	9.93509172	-20.84994162
4.4	440	0.18	-0.098	-0.966	0.4583664	1.0313244	0.859437	4.25707794	9.94655088	-20.83848246
4.41	441	0.183	-0.101	-0.97	0.572958	1.6042824	0.859437	4.26280752	9.96373962	-20.8270233
4.42	442	0.185	-0.106	-0.971	0.6875496	2.1772404	0.859437	4.27426668	9.98092836	-20.81556414
4.43	443	0.189	-0.112	-0.974	0.4010706	2.6929026	0.859437	4.27999626	10.00957626	-20.80410498
4.44	444	0.193	-0.116	-0.975	0.1718874	2.578311	0.9167328	4.27999626	10.03249458	-20.79264582
4.45	445	0.195	-0.119	-0.972	-0.0572958	2.1772404	1.0313244	4.33156248	10.0840608	-20.77545708
4.46	446	0.198	-0.119	-0.971	-0.4583664	1.6615782	1.145916	4.3258329	10.10124954	-20.76399792
4.47	447	0.199	-0.119	-0.97	-0.859437	1.2605076	1.2032118	4.32010332	10.1127087	-20.74680918
4.48	448	0.198	-0.118	-0.973	-1.0313244	0.7448454	1.2032118	4.31437374	10.11843828	-20.73535002
4.49	449	0.195	-0.119	-0.973	-0.8021412	0.2291832	1.145916	4.30864416	10.11843828	-20.72389086
4.5	450	0.194	-0.124	-0.966	-1.2032118	0.2291832	0.9167328	4.36593996	10.14708618	-20.70670212
4.51	451	0.19	-0.123	-0.963	-1.7761698	0.4010706	0.7448454	4.34875122	10.15281576	-20.69524296
4.52	452	0.187	-0.122	-0.961	-1.432395	0.4583664	0.572958	4.33729206	10.15854534	-20.68951338
4.53	453	0.187	-0.12	-0.96	-1.0886202	0.4010706	0.5156622	4.3258329	10.15854534	-20.6837838
4.54	454	0.187	-0.117	-0.966	-1.0313244	0.286479	0.3437748	4.31437374	10.16427492	-20.67805422
4.55	455	0.184	-0.113	-0.968	-1.0313244	0	0.2291832	4.37166954	10.16427492	-20.66659506
4.56	456	0.181	-0.108	-0.968	-0.9740286	-0.4583664	0.1718874	4.36021038	10.15854534	-20.66659506
4.57	457	0.177	-0.107	-0.968	-0.6875496	-0.859437	0.0572958	4.3544808	10.15281576	-20.66659506
4.58	458	0.177	-0.108	-0.967	-0.2291832	-0.859437	-0.0572958	4.34875122	10.1413566	-20.66659506
4.59	459	0.177	-0.11	-0.966	0	-0.7448454	-0.2291832	4.34875122	10.13562702	-20.67232464
4.6	460	0.178	-0.113	-0.968	0.1718874	-0.572958	-0.1718874	4.45761324	10.1127087	-20.6551359
4.61	461	0.18	-0.115	-0.968	0.286479	-0.6875496	0	4.46334282	10.10697912	-20.6551359
4.62	462	0.182	-0.116	-0.969	0.3437748	-1.3178034	0	4.46334282	10.08979038	-20.6551359
4.63	463	0.183	-0.114	-0.969	0.4583664	-1.8907614	0	4.4690724	10.07260164	-20.66086548
4.64	464	0.184	-0.113	-0.971	0.4010706	-2.3491278	0	4.47480198	10.04968332	-20.66086548
4.65	465	0.185	-0.112	-0.974	0.286479	-2.291832	-0.1718874	4.50344988	10.03822416	-20.66086548
4.66	466	0.185	-0.112	-0.975	0.286479	-2.0626488	-0.2291832	4.50344988	10.01530584	-20.66659506
4.67	467	0.183	-0.115	-0.975	0.3437748	-1.8334656	-0.2291832	4.50917946	9.9981171	-20.67232464
4.68	468	0.18	-0.12	-0.975	0.1718874	-1.718874	-0.2291832	4.50917946	9.98092836	-20.67805422
4.69	469	0.175	-0.121	-0.973	0	-1.3750992	-0.1145916	4.50917946	9.9694692	-20.67805422
4.7	470	0.173	-0.115	-0.971	-0.1145916	-1.0313244	-0.1718874	4.583664	9.92936214	-20.66659506
4.71	471	0.174	-0.11	-0.969	-0.3437748	-0.572958	-0.1718874	4.57793442	9.91790298	-20.66659506
4.72	472	0.176	-0.106	-0.97	-0.4583664	-0.3437748	-0.1718874	4.57220484	9.91790298	-20.67232464
4.73	473	0.176	-0.106	-0.971	-0.5156622	-0.4583664	0	4.57220484	9.9121734	-20.67232464
4.74	474	0.177	-0.11	-0.972	-0.4010706	-0.4583664	0	4.56647526	9.90644382	-20.67232464
4.75	475	0.178	-0.115	-0.969	-0.4010706	-0.3437748	0.1145916	4.65814854	9.89498466	-20.6551359
4.76	476	0.177	-0.12	-0.968	-0.6875496	-0.4010706	0.1718874	4.65241896	9.88925508	-20.6551359
4.77	477	0.176	-0.123	-0.963	-0.9167328	-0.572958	0.2291832	4.6409598	9.8835255	-20.64940632
4.78	478	0.177	-0.121	-0.96	-1.0886202	-0.286479	0.1145916	4.63523022	9.8835255	-20.64940632
4.79	479	0.176	-0.117	-0.962	-1.145916	-0.0572958	0.0572958	4.62377106	9.8835255	-20.64940632
4.8	480	0.176	-0.111	-0.965	-1.0313244	0	0.0572958	4.65814854	9.87206634	-20.63794716
4.81	481	0.177	-0.107	-0.967	-0.859437	0	0.0572958	4.64668938	9.87206634	-20.63794716
4.82	482	0.176	-0.108	-0.97	-0.5156622	0.0572958	0.1718874	4.6409598	9.87206634	-20.63794716
4.83	483	0.172	-0.112	-0.971	-0.3437748	0.1718874	0.1718874	4.6409598	9.87779592	-20.63221758
4.84	484	0.169	-0.115	-0.972	-0.286479	0.3437748	0.3437748	4.63523022	9.87779592	-20.63221758
4.85	485	0.167	-0.116	-0.971	-0.1718874	0.572958	0.3437748	4.70398518	9.83768886	-20.60929926
4.86	486	0.168	-0.115	-0.969	-0.2291832	0.7448454	0.4010706	4.70398518	9.84341844	-20.60356968
4.87	487	0.173	-0.113	-0.97	-0.286479	0.7448454	0.3437748	4.6982556	9.8548776	-20.5978401
4.88	488	0.178	-0.111	-0.97	-0.286479	0.5156622	0.4583664	4.6982556	9.8548776	-20.59211052
4.89	489	0.183	-0.111	-0.971	-0.4583664	0	0.4583664	4.69252602	9.8548776	-20.58638094
4.9	490	0.185	-0.111	-0.972	-0.572958	-0.3437748	0.4583664	4.72117392	9.87779592	-20.58065136
4.91	491	0.184	-0.115	-0.97	-0.5156622	-0.6875496	0.3437748	4.71544434	9.87206634	-20.58065136
4.92	492	0.181	-0.121	-0.968	-0.3437748	-0.7448454	0.286479	4.71544434	9.86060718	-20.57492178
4.93	493	0.176	-0.123	-0.966	-0.286479	-0.3437748	0.1718874	4.70971476	9.86060718	-20.57492178
4.94	494	0.174	-0.121	-0.967	-0.1718874	0.0572958	0.1145916	4.70971476	9.86060718	-20.57492178
4.95	495	0.175	-0.115	-0.968	-0.4010706	0.5156622	0	4.76128098	9.86060718	-20.56346262
4.96	496	0.179	-0.111	-0.969	-0.5156622	0.6875496	-0.1145916	4.7555514	9.86633676	-20.56346262
4.97	497	0.182	-0.108	-0.97	-0.572958	0.572958	-0.1145916	4.74982182	9.87206634	-20.56346262
4.98	498	0.185	-0.108	-0.97	-0.572958	0.2291832	-0.0572958	4.74409224	9.87206634	-20.56346262
4.99	499	0.185	-0.11	-0.971	-0.5156622	0	-0.0572958	4.73836266	9.87206634	-20.56346262
5	500	0.183	-0.113	-0.969	-0.5156622	-0.286479	0	4.78992888	9.90071424	-20.55773304
5.01	501	0.182	-0.116	-0.969	-0.3437748	-0.572958	0	4.7841993	9.89498466	-20.55773304
5.02	502	0.182	-0.117	-0.97	-0.2291832	-0.4583664	0	4.7841993	9.88925508	-20.55773304
5.03	503	0.182	-0.117	-0.969	-0.286479	-0.286479	0.1145916	4.77846972	9.88925508	-20.55773304
5.04	504	0.185	-0.114	-0.969	-0.4010706	-0.286479	0.1145916	4.77846972	9.8835255	-20.55773304
5.05	505	0.186	-0.111	-0.969	-0.572958	-0.2291832	0.1718874	4.80138804	9.91790298	-20.55773304
5.06	506	0.187	-0.111	-0.968	-0.572958	-0.3437748	0.2291832	4.79565846	9.91790298	-20.55200346
5.07	507	0.185	-0.112	-0.967	-0.6875496	-0.572958	0.1718874	4.78992888	9.9121734	-20.55200346
5.08	508	0.182	-0.114	-0.967	-0.7448454	-0.4583664	0.0572958	4.7841993	9.90644382	-20.55200346
5.09	509	0.177	-0.114	-0.967	-0.6302538	-0.3437748	0.1145916	4.77274014	9.90071424	-20.55200346
5.1	510	0.174	-0.114	-0.967	-0.572958	-0.1718874	0.0572958	4.83576552	9.87779592	-20.53481472
5.11	511	0.175	-0.114	-0.968	-0.4010706	0.0572958	0.0572958	4.83003594	9.87779592	-20.53481472
5.12	512	0.173	-0.115	-0.971	-0.4010706	0.2291832	0.1145916	4.83003594	9.87779592	-20.53481472
5.13	513	0.175	-0.113	-0.973	-0.4583664	0.1718874	0.1145916	4.82430636	9.8835255	-20.52908514
5.14	514	0.175	-0.113	-0.973	-0.6302538	0	0.1145916	4.81857678	9.8835255	-20.52908514
5.15	515	0.177	-0.113	-0.97	-0.6302538	-0.2291832	0.0572958	4.85295426	9.87779592	-20.52335556
5.16	516	0.179	-0.114	-0.966	-0.8021412	-0.4010706	0.0572958	4.84722468	9.87779592	-20.52335556
5.17	517	0.178	-0.116	-0.965	-0.9740286	-0.572958	0.0572958	4.83576552	9.87206634	-20.52335556
5.18	518	0.179	-0.115	-0.967	-1.0886202	-0.4010706	0.0572958	4.82430636	9.86633676	-20.52335556
5.19	519	0.178	-0.115	-0.969	-0.7448454	-0.1145916	0	4.8128472	9.86060718	-20.52335556
5.2	520	0.177	-0.118	-0.966	-0.572958	0	0.0572958	4.88733174	9.86633676	-20.50616682
5.21	521	0.177	-0.12	-0.959	-1.0313244	0	0.0572958	4.87587258	9.86633676	-20.50616682
5.22	522	0.179	-0.119	-0.958	-1.3178034	-0.1718874	0.0572958	4.86441342	9.86633676	-20.50616682
5.23	523	0.18	-0.117	-0.96	-1.2605076	-0.4583664	0.0572958	4.85295426	9.86060718	-20.50616682
5.24	524	0.181	-0.113	-0.965	-1.3750992	-0.572958	0	4.83576552	9.8548776	-20.50616682
5.25	525	0.179	-0.11	-0.97	-1.2032118	-0.572958	0	4.83576552	9.84914802	-20.50616682
5.26	526	0.177	-0.11	-0.971	-0.7448454	-0.5156622	0	4.83003594	9.84341844	-20.50616682
5.27	527	0.175	-0.113	-0.971	-0.4010706	-0.5156622	0	4.82430636	9.83768886	-20.50616682
5.28	528	0.175	-0.113	-0.972	0.1145916	-0.3437748	0	4.82430636	9.83768886	-20.50616682
5.29	529	0.176	-0.112	-0.973	0.0572958	-0.1145916	-0.0572958	4.82430636	9.83768886	-20.5118964
5.3	530	0.177	-0.107	-0.973	0	0.0572958	-0.0572958	4.84722468	9.84914802	-20.50616682
5.31	531	0.181	-0.106	-0.972	0.1145916	0.1718874	0	4.85295426	9.84914802	-20.50616682
5.32	532	0.182	-0.109	-0.97	0.286479	0	0	4.85295426	9.84914802	-20.50616682
5.33	533	0.184	-0.111	-0.969	0.3437748	0	0	4.85868384	9.84914802	-20.50616682
5.34	534	0.183	-0.113	-0.97	0.286479	-0.0572958	0	4.86441342	9.84914802	-20.50616682
5.35	535	0.183	-0.112	-0.969	0.3437748	-0.0572958	0	4.90452048	9.87779592	-20.50616682
5.36	536	0.181	-0.111	-0.971	0.4010706	0	0	4.91025006	9.87779592	-20.50616682
5.37	537	0.18	-0.111	-0.971	0.4583664	0.1145916	-0.1718874	4.91025006	9.87779592	-20.50616682
5.38	538	0.18	-0.114	-0.969	0.4583664	0.1718874	-0.0572958	4.91597964	9.87779592	-20.50616682
5.39	539	0.179	-0.116	-0.967	0.2291832	0.1718874	-0.0572958	4.92170922	9.8835255	-20.50616682
5.4	540	0.179	-0.115	-0.967	0.1145916	0.0572958	0.0572958	5.01911208	9.89498466	-20.49470766
5.41	541	0.18	-0.115	-0.969	0.1718874	-0.0572958	0.0572958	5.01911208	9.89498466	-20.48897808
5.42	542	0.182	-0.113	-0.972	0.1145916	0	0.0572958	5.02484166	9.89498466	-20.48897808
5.43	543	0.18	-0.111	-0.972	0.286479	0	0.0572958	5.02484166	9.89498466	-20.48897808
5.44	544	0.179	-0.112	-0.972	0.4010706	0	0.0572958	5.03057124	9.89498466	-20.48897808
5.45	545	0.176	-0.115	-0.972	0.4010706	0	0.0572958	5.08213746	9.87779592	-20.47751892
5.46	546	0.175	-0.118	-0.971	0.4010706	0	0	5.08213746	9.87779592	-20.47751892
5.47	547	0.173	-0.119	-0.966	0.2291832	0.1145916	0.0572958	5.08786704	9.87779592	-20.47751892
5.48	548	0.175	-0.116	-0.964	0	0.1718874	0.1145916	5.08786704	9.87779592	-20.47751892
5.49	549	0.177	-0.114	-0.964	-0.1145916	0.1718874	0.1718874	5.08786704	9.87779592	-20.47178934
5.5	550	0.179	-0.111	-0.964	-0.1718874	0.1718874	0.0572958	5.09359662	9.90071424	-20.47178934
5.51	551	0.18	-0.109	-0.966	-0.1145916	0	0	5.09359662	9.90071424	-20.47178934
5.52	552	0.179	-0.109	-0.968	-0.0572958	0	0	5.08786704	9.90071424	-20.47178934
5.53	553	0.177	-0.11	-0.97	0.0572958	0.1145916	-0.0572958	5.09359662	9.90644382	-20.47178934
5.54	554	0.176	-0.112	-0.971	0.2291832	0.2291832	-0.0572958	5.09359662	9.90644382	-20.47178934
5.55	555	0.176	-0.115	-0.971	0.286479	0.1145916	0	5.14516284	9.8835255	-20.46033018
5.56	556	0.176	-0.115	-0.971	0.286479	0.0572958	0.0572958	5.15089242	9.88925508	-20.46033018
5.57	557	0.177	-0.113	-0.968	0.1718874	0	0.0572958	5.15089242	9.88925508	-20.46033018
5.58	558	0.179	-0.11	-0.968	0.0572958	0.0572958	0.0572958	5.15089242	9.88925508	-20.46033018
5.59	559	0.18	-0.11	-0.969	0	-0.0572958	0	5.15089242	9.88925508	-20.46033018
5.6	560	0.181	-0.11	-0.969	0.0572958	-0.1145916	0.1145916	5.16808116	9.90644382	-20.46033018
5.61	561	0.182	-0.112	-0.971	0.0572958	-0.1145916	0.0572958	5.16808116	9.90644382	-20.46033018
5.62	562	0.182	-0.114	-0.971	0.0572958	-0.0572958	0.0572958	5.16808116	9.90644382	-20.46033018
5.63	563	0.18	-0.116	-0.969	0.1145916	0	0.0572958	5.16808116	9.90644382	-20.4546006
5.64	564	0.179	-0.116	-0.968	-0.0572958	0.0572958	0	5.16808116	9.90644382	-20.4546006
5.65	565	0.178	-0.115	-0.967	-0.0572958	0.0572958	0	5.20818822	9.91790298	-20.44887102
5.66	566	0.179	-0.113	-0.968	0	0.1145916	-0.0572958	5.20818822	9.91790298	-20.4546006
5.67	567	0.181	-0.111	-0.969	-0.0572958	0.1145916	-0.0572958	5.20818822	9.91790298	-20.4546006
5.68	568	0.182	-0.11	-0.969	-0.0572958	0.1145916	0	5.20818822	9.91790298	-20.4546006
5.69	569	0.183	-0.112	-0.97	-0.0572958	0	0	5.20818822	9.91790298	-20.44887102
5.7	570	0.181	-0.115	-0.969	0	-0.1145916	0	5.25975444	9.93509172	-20.44314144
5.71	571	0.178	-0.117	-0.969	0	-0.1718874	0.0572958	5.25975444	9.93509172	-20.44314144
5.72	572	0.177	-0.117	-0.967	-0.0572958	-0.1718874	0	5.25402486	9.92936214	-20.44314144
5.73	573	0.176	-0.114	-0.968	-0.1145916	0	0	5.25402486	9.92936214	-20.44314144
5.74	574	0.175	-0.112	-0.969	-0.0572958	0.0572958	0	5.25402486	9.93509172	-20.44314144
5.75	575	0.177	-0.111	-0.969	-0.0572958	0.1718874	-0.0572958	5.2425657	9.92936214	-20.44887102
5.76	576	0.179	-0.11	-0.971	-0.1145916	0.1718874	0	5.23683612	9.92936214	-20.44887102
5.77	577	0.18	-0.112	-0.972	-0.0572958	0	0	5.23683612	9.93509172	-20.44887102
5.78	578	0.18	-0.113	-0.97	-0.0572958	-0.2291832	0	5.23683612	9.92936214	-20.44887102
5.79	579	0.177	-0.115	-0.967	0	-0.4010706	0	5.23683612	9.92363256	-20.44887102
5.8	580	0.176	-0.115	-0.967	-0.0572958	-0.4583664	0	5.25402486	9.90644382	-20.44314144
5.81	581	0.176	-0.113	-0.966	-0.1718874	-0.1718874	-0.0572958	5.24829528	9.90644382	-20.44314144
5.82	582	0.178	-0.113	-0.967	-0.1718874	0	0	5.24829528	9.90644382	-20.44314144
5.83	583	0.179	-0.111	-0.969	-0.2291832	0.0572958	-0.1145916	5.24829528	9.90644382	-20.44314144
5.84	584	0.181	-0.111	-0.969	-0.1145916	0	-0.0572958	5.2425657	9.90644382	-20.44887102
5.85	585	0.181	-0.113	-0.97	-0.1145916	-0.1718874	0	5.25402486	9.9121734	-20.44314144
5.86	586	0.18	-0.116	-0.97	-0.1145916	-0.286479	0	5.25402486	9.90644382	-20.44314144
5.87	587	0.178	-0.116	-0.969	-0.0572958	-0.1145916	0	5.25402486	9.90644382	-20.44887102
5.88	588	0.176	-0.113	-0.97	0.0572958	0	-0.0572958	5.25402486	9.90644382	-20.44887102
5.89	589	0.176	-0.112	-0.969	0	0.1718874	-0.0572958	5.25402486	9.9121734	-20.44887102
5.9	590	0.177	-0.11	-0.969	-0.0572958	0.4010706	-0.1145916	5.24829528	9.91790298	-20.44887102
5.91	591	0.18	-0.109	-0.968	-0.0572958	0.4583664	-0.1718874	5.24829528	9.92363256	-20.44887102
5.92	592	0.182	-0.111	-0.968	-0.1718874	0.3437748	0	5.2425657	9.92363256	-20.44887102
5.93	593	0.182	-0.113	-0.97	-0.4010706	0	0	5.2425657	9.92363256	-20.4546006
5.94	594	0.181	-0.115	-0.972	-0.3437748	-0.0572958	0	5.23683612	9.92363256	-20.4546006
5.95	595	0.18	-0.116	-0.97	-0.0572958	0	0	5.35142772	9.92936214	-20.43168228
5.96	596	0.178	-0.119	-0.964	-0.3437748	0	0	5.34569814	9.92936214	-20.43168228
5.97	597	0.179	-0.116	-0.958	-0.9740286	0	0.0572958	5.33423898	9.92936214	-20.43168228
5.98	598	0.18	-0.113	-0.96	-0.9167328	0	0.0572958	5.3285094	9.92936214	-20.43168228
5.99	599	0.18	-0.109	-0.961	-0.7448454	-0.0572958	0	5.31705024	9.92363256	-20.43168228
6	600	0.181	-0.107	-0.967	-0.572958	0	0	5.29413192	9.92936214	-20.43741186
6.01	601	0.18	-0.104	-0.973	-0.1718874	0	0	5.28840234	9.92936214	-20.43741186
6.02	602	0.179	-0.108	-0.973	0.286479	-0.1718874	0	5.29413192	9.92363256	-20.43741186
6.03	603	0.178	-0.114	-0.971	0.5156622	-0.286479	0.0572958	5.2998615	9.92363256	-20.43741186
6.04	604	0.177	-0.117	-0.971	0.4010706	-0.4583664	0.1145916	5.30559108	9.91790298	-20.43168228
6.05	605	0.176	-0.112	-0.969	0.0572958	-0.3437748	0	5.29413192	9.90644382	-20.43168228
6.06	606	0.178	-0.107	-0.969	0	-0.1718874	0.0572958	5.29413192	9.90071424	-20.43168228
6.07	607	0.18	-0.105	-0.971	0.1718874	-0.2291832	0	5.2998615	9.90071424	-20.43168228
6.08	608	0.182	-0.108	-0.97	0.3437748	-0.1718874	0	5.2998615	9.90071424	-20.43168228
6.09	609	0.18	-0.112	-0.972	0.3437748	-0.2291832	0	5.30559108	9.89498466	-20.43741186
6.1	610	0.179	-0.116	-0.972	0.2291832	-0.1718874	0	5.32277982	9.88925508	-20.43168228
6.11	611	0.177	-0.116	-0.97	0.1718874	-0.1718874	0	5.3285094	9.88925508	-20.43168228
