TimeStamp(s)	FrameCounter	AccX	AccY	AccZ	GyrX	GyrY	GyrZ	EulerX	EulerY	EulerZ
0.01	1	-0.052	-1.007	-0.002	0.7448454	-0.572958	-0.4583664	89.30123388	-3.66120162	-51.9959385
0.02	2	-0.044	-1.009	-0.012	1.2032118	-0.572958	0.0572958	89.31269304	-3.66120162	-52.00166808
0.03	3	-0.044	-1.009	-0.016	1.145916	-1.0886202	0.0572958	89.3241522	-3.66120162	-52.01312724
0.04	4	-0.046	-1.011	-0.016	0.859437	-1.2032118	-0.0572958	89.33561136	-3.66120162	-52.0245864
0.05	5	-0.046	-1.013	-0.012	0.8021412	-1.145916	0	89.2668564	-3.59817624	-52.07615262
0.06	6	-0.044	-1.012	-0.012	0.9740286	-0.9167328	0	89.27831556	-3.59817624	-52.0818822
0.07	7	-0.045	-1.011	-0.013	0.8021412	-0.7448454	0.0572958	89.28977472	-3.59817624	-52.09334136
0.08	8	-0.047	-1.009	-0.012	0.859437	-0.859437	0	89.2955043	-3.59817624	-52.09907094
0.09	9	-0.048	-1.007	-0.011	0.8021412	-0.859437	-0.0572958	89.30696346	-3.59817624	-52.1105301
0.1	10	-0.05	-1.006	-0.013	0.859437	-0.9167328	-0.0572958	89.22674934	-3.54661002	-52.15636674
0.11	11	-0.05	-1.007	-0.015	1.0313244	-0.859437	-0.1145916	89.2382085	-3.54088044	-52.1678259
0.12	12	-0.05	-1.007	-0.012	1.3750992	-0.9167328	-0.0572958	89.25539724	-3.54088044	-52.17355548
0.13	13	-0.05	-1.007	-0.005	1.2605076	-0.9167328	-0.0572958	89.2668564	-3.54088044	-52.18501464
0.14	14	-0.05	-1.005	-0.004	0.8021412	-0.859437	0	89.27831556	-3.54088044	-52.19074422
0.15	15	-0.05	-1.002	-0.007	0.286479	-0.859437	0	89.17518312	-3.47212548	-52.24804002
0.16	16	-0.05	-1	-0.007	0.2291832	-0.7448454	0.1145916	89.17518312	-3.47212548	-52.25949918
0.17	17	-0.049	-1	-0.01	0.286479	-0.6302538	0.2291832	89.1809127	-3.47212548	-52.26522876
0.18	18	-0.048	-1.003	-0.011	0.3437748	-0.572958	0.1718874	89.18664228	-3.47785506	-52.27095834
0.19	19	-0.049	-1.003	-0.009	0.4583664	-0.572958	0.0572958	89.19237186	-3.47785506	-52.27668792
0.2	20	-0.048	-1.003	-0.008	0.5156622	-0.572958	0.0572958	89.1236169	-3.42055926	-52.31679498
0.21	21	-0.047	-1.003	-0.009	0.4583664	-0.6875496	0	89.12934648	-3.42055926	-52.32252456
0.22	22	-0.046	-1.002	-0.009	0.4583664	-0.8021412	0	89.13507606	-3.42055926	-52.32825414
0.23	23	-0.047	-1.005	-0.008	0.5156622	-0.859437	0	89.14080564	-3.42055926	-52.3397133
0.24	24	-0.047	-1.006	-0.01	0.4583664	-0.859437	0.0572958	89.14653522	-3.42055926	-52.34544288
0.25	25	-0.049	-1.007	-0.007	0.3437748	-0.859437	0.1718874	89.10069858	-3.3804522	-52.37982036
0.26	26	-0.05	-1.007	-0.006	0.3437748	-0.859437	0.2291832	89.10642816	-3.3804522	-52.38554994
0.27	27	-0.048	-1.007	-0.004	0.2291832	-0.8021412	0.2291832	89.10642816	-3.3804522	-52.3970091
0.28	28	-0.046	-1.006	-0.006	0.1145916	-0.6875496	0.1145916	89.11215774	-3.38618178	-52.40273868
0.29	29	-0.045	-1.006	-0.006	0.1145916	-0.9740286	0.1145916	89.11215774	-3.38618178	-52.41419784
0.3	30	-0.047	-1.007	-0.005	0.4583664	-1.3750992	0.1145916	89.094969	-3.35753388	-52.43711616
0.31	31	-0.048	-1.009	-0.002	0.5156622	-1.145916	0.1718874	89.10069858	-3.35753388	-52.44857532
0.32	32	-0.048	-1.009	-0.001	0.3437748	-0.9740286	0.1718874	89.10069858	-3.36326346	-52.46003448
0.33	33	-0.048	-1.009	-0.003	0.2291832	-0.9167328	0.1718874	89.10642816	-3.36326346	-52.47149364
0.34	34	-0.049	-1.009	-0.006	0.2291832	-0.9167328	0.2291832	89.11215774	-3.36326346	-52.47722322
0.35	35	-0.049	-1.007	-0.007	0.3437748	-1.0313244	0.4010706	89.07778026	-3.34034514	-52.50587112
0.36	36	-0.049	-1.005	-0.005	0.572958	-1.145916	0.4583664	89.08350984	-3.34034514	-52.51733028
0.37	37	-0.048	-1.003	-0.002	0.7448454	-1.145916	0.4010706	89.08923942	-3.34607472	-52.52878944
0.38	38	-0.048	-1.005	-0.001	0.6875496	-0.9167328	0.4583664	89.10069858	-3.3518043	-52.5402486
0.39	39	-0.048	-1.007	-0.001	0.3437748	-0.9167328	0.4010706	89.10642816	-3.35753388	-52.55170776
0.4	40	-0.049	-1.007	-0.002	0	-0.6302538	0.3437748	89.03194362	-3.28304934	-52.58608524
0.41	41	-0.049	-1.007	-0.004	-0.286479	-0.0572958	0.2291832	89.03194362	-3.28304934	-52.58608524
0.42	42	-0.051	-1.006	-0.007	-0.2291832	-0.286479	0.1145916	89.02621404	-3.28304934	-52.59181482
0.43	43	-0.051	-1.003	-0.004	-0.1145916	-0.1718874	0.0572958	89.02621404	-3.28304934	-52.59181482
0.44	44	-0.05	-1.003	-0.003	-0.2291832	0	0	89.02621404	-3.28877892	-52.59181482
0.45	45	-0.049	-1.003	-0.005	-0.3437748	0.0572958	0.1718874	88.95745908	-3.23148312	-52.62046272
0.46	46	-0.049	-1.001	-0.005	-0.3437748	0.0572958	0.3437748	88.95745908	-3.2372127	-52.62046272
0.47	47	-0.05	-1.002	-0.004	-0.286479	-0.0572958	0.4010706	88.9517295	-3.24294228	-52.62046272
0.48	48	-0.053	-1.002	0	-0.5156622	-0.286479	0.4010706	88.94599992	-3.24294228	-52.62046272
0.49	49	-0.054	-1.004	0.001	-0.6302538	-0.1145916	0.2291832	88.94027034	-3.24867186	-52.6261923
0.5	50	-0.052	-1.007	0	-0.8021412	0.1718874	0	88.90589286	-3.2085648	-52.63192188
0.51	51	-0.051	-1.009	-0.003	-0.6875496	0.6302538	-0.0572958	88.90016328	-3.2085648	-52.6261923
0.52	52	-0.051	-1.011	-0.006	-0.6875496	0.7448454	0	88.88870412	-3.2085648	-52.62046272
0.53	53	-0.05	-1.009	-0.005	-0.5156622	0.6302538	0.0572958	88.88297454	-3.2085648	-52.61473314
0.54	54	-0.05	-1.007	-0.005	-0.2291832	0.4010706	0.1145916	88.88297454	-3.21429438	-52.60900356
0.55	55	-0.05	-1.007	-0.005	-0.0572958	0.2291832	0.1145916	88.80276042	-3.13980984	-52.63765146
0.56	56	-0.049	-1.008	-0.003	-0.1718874	0.1718874	0.286479	88.80276042	-3.13980984	-52.63765146
0.57	57	-0.046	-1.009	-0.003	-0.2291832	0.3437748	0.2291832	88.79703084	-3.14553942	-52.63192188
0.58	58	-0.046	-1.011	-0.002	-0.1718874	0.6302538	0.286479	88.79703084	-3.151269	-52.6261923
0.59	59	-0.047	-1.01	0	-0.2291832	0.6875496	0.2291832	88.79130126	-3.151269	-52.62046272
0.6	60	-0.049	-1.008	0	-0.2291832	0.6302538	0.1145916	88.77411252	-3.11689152	-52.62046272
0.61	61	-0.051	-1.004	-0.003	-0.2291832	0.4010706	0	88.77411252	-3.11689152	-52.61473314
0.62	62	-0.052	-1.002	-0.004	0	0.1718874	-0.0572958	88.77411252	-3.11689152	-52.61473314
0.63	63	-0.053	-1.004	-0.005	0.2291832	0.2291832	-0.1145916	88.77411252	-3.11689152	-52.61473314
0.64	64	-0.052	-1.005	-0.004	0.4010706	0.2291832	-0.1145916	88.7798421	-3.11689152	-52.60900356
0.65	65	-0.051	-1.007	-0.002	0.4010706	0.1718874	0	88.76265336	-3.07678446	-52.62046272
0.66	66	-0.051	-1.007	-0.002	0.3437748	0	0	88.76265336	-3.07678446	-52.61473314
0.67	67	-0.052	-1.005	-0.001	0.2291832	0	-0.0572958	88.76838294	-3.07678446	-52.61473314
0.68	68	-0.053	-1.003	-0.002	0.1145916	0.1145916	-0.1145916	88.76838294	-3.07105488	-52.61473314
0.69	69	-0.052	-1.003	-0.002	0.286479	0.0572958	-0.1718874	88.77411252	-3.07105488	-52.61473314
0.7	70	-0.052	-1.006	-0.001	0.3437748	0.2291832	-0.2291832	88.76838294	-3.04240698	-52.61473314
0.71	71	-0.05	-1.008	0	0.1718874	0.3437748	-0.0572958	88.76838294	-3.04240698	-52.61473314
0.72	72	-0.05	-1.007	0	0.1145916	0.3437748	-0.0572958	88.76838294	-3.04240698	-52.60900356
0.73	73	-0.05	-1.005	0.001	0	0.3437748	0	88.76838294	-3.04240698	-52.60900356
0.74	74	-0.05	-1.004	0	0	0.286479	0	88.76838294	-3.04240698	-52.60327398
0.75	75	-0.051	-1.005	-0.001	0	0.1145916	0	88.7511942	-2.99657034	-52.60900356
0.76	76	-0.053	-1.006	-0.002	0	0	0.1145916	88.7511942	-2.99657034	-52.60900356
0.77	77	-0.054	-1.006	-0.001	0.1145916	0	0.1718874	88.75692378	-3.00229992	-52.60900356
0.78	78	-0.055	-1.005	0	0.286479	0.2291832	0.2291832	88.75692378	-3.00229992	-52.60900356
0.79	79	-0.055	-1.004	-0.001	0.4583664	0.3437748	0.286479	88.76265336	-3.0080295	-52.60327398
0.8	80	-0.053	-1.005	0	0.4583664	0.3437748	0.286479	88.76838294	-2.99657034	-52.60327398
0.81	81	-0.051	-1.006	0.003	0.4010706	0.1718874	0.2291832	88.76838294	-2.99657034	-52.5975444
0.82	82	-0.051	-1.007	0.004	0.3437748	0	0.2291832	88.77411252	-3.00229992	-52.5975444
0.83	83	-0.051	-1.008	0.003	0.3437748	-0.0572958	0.286479	88.7798421	-3.00229992	-52.5975444
0.84	84	-0.051	-1.012	0.002	0.4010706	-0.2291832	0.286479	88.7798421	-3.0080295	-52.60327398
0.85	85	-0.053	-1.013	0.002	0.4010706	-0.2291832	0.2291832	88.79130126	-3.00229992	-52.60327398
0.86	86	-0.056	-1.012	0.002	0.4010706	-0.1145916	0.286479	88.79703084	-3.00229992	-52.60327398
0.87	87	-0.056	-1.011	0.002	0.3437748	-0.1145916	0.1718874	88.79703084	-3.00229992	-52.60327398
0.88	88	-0.056	-1.009	0.001	0.572958	-0.0572958	0.0572958	88.80849	-3.0080295	-52.60900356
0.89	89	-0.056	-1.007	0.002	0.6875496	0	0.0572958	88.81421958	-3.0080295	-52.60900356
0.9	90	-0.055	-1.005	0.004	0.7448454	0	0	88.83140832	-3.00229992	-52.60327398
0.91	91	-0.055	-1.004	0.004	0.7448454	-0.0572958	0	88.8371379	-2.99657034	-52.60327398
0.92	92	-0.054	-1.004	0.003	0.4583664	0	-0.0572958	88.84286748	-2.99657034	-52.60327398
0.93	93	-0.054	-1.003	0.004	0.3437748	0	-0.0572958	88.84859706	-2.99657034	-52.60900356
0.94	94	-0.053	-1.004	0.002	0.2291832	0.0572958	-0.0572958	88.84859706	-2.99657034	-52.60327398
0.95	95	-0.054	-1.005	0.004	0.1718874	-0.0572958	0	88.87724496	-2.97365202	-52.5975444
0.96	96	-0.053	-1.004	0.004	0.0572958	0	-0.1718874	88.87724496	-2.97365202	-52.5975444
0.97	97	-0.054	-1.003	0.004	0.0572958	0.0572958	-0.1718874	88.87724496	-2.96792244	-52.5975444
0.98	98	-0.053	-1.001	0.002	0	0	-0.0572958	88.87724496	-2.96792244	-52.5975444
0.99	99	-0.052	-1	0.003	-0.0572958	-0.1145916	-0.0572958	88.87724496	-2.96792244	-52.5975444
1	100	-0.054	-1	0.005	-0.1145916	-0.1718874	-0.0572958	88.88870412	-2.96219286	-52.5975444
1.01	101	-0.053	-1	0.004	-0.286479	-0.3437748	-0.0572958	88.88870412	-2.95646328	-52.60327398
1.02	102	-0.054	-1.002	0.005	-0.4010706	-0.4010706	-0.1718874	88.88297454	-2.95646328	-52.60900356
1.03	103	-0.053	-1.008	0.008	-0.5156622	-0.286479	-0.286479	88.87724496	-2.95646328	-52.60900356
1.04	104	-0.054	-1.011	0.011	-0.5156622	0	-0.3437748	88.87151538	-2.9507337	-52.60900356
1.05	105	-0.056	-1.014	0.011	-0.7448454	0.1145916	-0.5156622	88.87724496	-2.94500412	-52.60327398
1.06	106	-0.055	-1.014	0.007	-0.9167328	0.286479	-0.4010706	88.87151538	-2.93927454	-52.60327398
1.07	107	-0.055	-1.013	0.008	-1.0313244	0	-0.2291832	88.86005622	-2.93927454	-52.60327398
1.08	108	-0.053	-1.012	0.008	-0.9740286	-0.2291832	-0.1145916	88.84859706	-2.93354496	-52.60327398
1.09	109	-0.054	-1.011	0.004	-0.859437	-0.2291832	-0.0572958	88.8371379	-2.93354496	-52.60900356
1.1	110	-0.052	-1.013	0.004	-0.9167328	-0.3437748	0	88.8371379	-2.92781538	-52.60900356
1.11	111	-0.051	-1.011	0.008	-0.859437	-0.1718874	0	88.83140832	-2.92781538	-52.60900356
1.12	112	-0.05	-1.008	0.009	-0.9167328	0	0	88.81994916	-2.92781538	-52.60900356
1.13	113	-0.051	-1.005	0.009	-0.9167328	0.2291832	-0.0572958	88.80849	-2.92781538	-52.60900356
1.14	114	-0.052	-1.001	0.005	-0.7448454	0.2291832	-0.0572958	88.80276042	-2.92781538	-52.60327398
1.15	115	-0.056	-0.999	0.004	-0.6302538	0	-0.0572958	88.80849	-2.92781538	-52.60327398
1.16	116	-0.057	-1.001	0.007	-0.572958	-0.1718874	-0.1145916	88.80276042	-2.92781538	-52.60327398
1.17	117	-0.058	-1.001	0.008	-0.5156622	-0.2291832	-0.2291832	88.79703084	-2.9220858	-52.60900356
1.18	118	-0.056	-1.003	0.009	-0.6875496	-0.1718874	-0.3437748	88.79130126	-2.9220858	-52.60900356
1.19	119	-0.055	-1.003	0.006	-0.9740286	0	-0.3437748	88.7798421	-2.91635622	-52.60900356
1.2	120	-0.053	-1.002	0.007	-1.145916	0	-0.2291832	88.7798421	-2.91062664	-52.60327398
1.21	121	-0.053	-1.002	0.007	-1.2032118	0	-0.0572958	88.76838294	-2.91062664	-52.60900356
1.22	122	-0.053	-1	0.007	-1.2605076	0.0572958	0	88.7511942	-2.91062664	-52.60327398
1.23	123	-0.053	-0.998	0.005	-1.2605076	0.0572958	0	88.73973504	-2.91062664	-52.60327398
1.24	124	-0.054	-0.999	0.004	-1.145916	0.1718874	0	88.72827588	-2.91062664	-52.60327398
1.25	125	-0.054	-1.002	0.005	-0.9740286	0.1718874	0.0572958	88.73400546	-2.91062664	-52.5975444
1.26	126	-0.055	-1.005	0.008	-0.9740286	0.1145916	0.1145916	88.72827588	-2.91062664	-52.5975444
1.27	127	-0.055	-1.007	0.008	-1.0313244	0.0572958	0.1145916	88.71681672	-2.91062664	-52.59181482
1.28	128	-0.054	-1.009	0.006	-1.0313244	0	0.1145916	88.70535756	-2.91062664	-52.5975444
1.29	129	-0.054	-1.011	0.008	-1.2032118	-0.1145916	0.0572958	88.6938984	-2.91635622	-52.5975444
1.3	130	-0.053	-1.012	0.009	-1.4896908	0.1718874	0.1145916	88.6938984	-2.91062664	-52.59181482
1.31	131	-0.051	-1.011	0.007	-1.5469866	0.286479	0.2291832	88.67670966	-2.91062664	-52.58608524
1.32	132	-0.051	-1.01	0.005	-1.2605076	0.286479	0.286479	88.65952092	-2.91635622	-52.58608524
1.33	133	-0.05	-1.009	0.007	-1.145916	0.1718874	0.3437748	88.64806176	-2.9220858	-52.58035566
1.34	134	-0.051	-1.008	0.007	-1.145916	0	0.3437748	88.6366026	-2.9220858	-52.58035566
1.35	135	-0.049	-1.008	0.007	-0.6875496	0	0.3437748	88.65952092	-2.89916748	-52.57462608
1.36	136	-0.049	-1.008	0.006	-0.2291832	-0.1718874	0.3437748	88.65952092	-2.90489706	-52.57462608
1.37	137	-0.051	-1.008	0.008	-0.286479	-0.4010706	0.3437748	88.65379134	-2.91062664	-52.58035566
1.38	138	-0.051	-1.008	0.009	-0.286479	-0.4010706	0.4010706	88.65379134	-2.91062664	-52.58608524
1.39	139	-0.053	-1.008	0.007	-0.3437748	-0.3437748	0.3437748	88.64806176	-2.91635622	-52.59181482
1.4	140	-0.054	-1.007	0.005	-0.4010706	-0.1718874	0.3437748	88.67098008	-2.91635622	-52.58608524
1.41	141	-0.056	-1.005	0.006	-0.4010706	-0.2291832	0.3437748	88.6652505	-2.9220858	-52.58608524
1.42	142	-0.056	-1.004	0.005	-0.286479	-0.1718874	0.5156622	88.65952092	-2.92781538	-52.58608524
1.43	143	-0.056	-1.005	0.004	-0.1718874	-0.2291832	0.5156622	88.65952092	-2.93354496	-52.59181482
1.44	144	-0.056	-1.004	0.005	-0.1718874	-0.3437748	0.5156622	88.65952092	-2.93927454	-52.59181482
1.45	145	-0.057	-1.004	0.007	-0.2291832	-0.4010706	0.4583664	88.68816882	-2.9507337	-52.59181482
1.46	146	-0.057	-1.003	0.007	-0.1718874	-0.3437748	0.3437748	88.68816882	-2.95646328	-52.59181482
1.47	147	-0.057	-1.003	0.006	-0.2291832	-0.2291832	0.3437748	88.68243924	-2.95646328	-52.5975444
1.48	148	-0.058	-1.002	0.005	-0.4010706	0	0.3437748	88.68243924	-2.96219286	-52.5975444
1.49	149	-0.058	-1.001	0.002	-0.4010706	0	0.3437748	88.67670966	-2.96792244	-52.5975444
1.5	150	-0.058	-1	0.001	-0.4010706	0	0.3437748	88.68243924	-2.98511118	-52.59181482
1.51	151	-0.058	-0.999	0.003	-0.2291832	-0.0572958	0.3437748	88.68243924	-2.99084076	-52.59181482
1.52	152	-0.058	-0.999	0.003	-0.1718874	-0.1145916	0.3437748	88.67670966	-2.99084076	-52.59181482
1.53	153	-0.057	-1	0.004	-0.2291832	-0.3437748	0.4010706	88.67670966	-2.99657034	-52.5975444
1.54	154	-0.057	-1.001	0.005	-0.2291832	-0.5156622	0.4583664	88.67098008	-3.00229992	-52.60327398
1.55	155	-0.058	-1.002	0.007	-0.3437748	-0.6875496	0.4010706	88.68816882	-3.0080295	-52.60327398
1.56	156	-0.06	-1.003	0.008	-0.3437748	-0.6302538	0.0572958	88.68816882	-3.01375908	-52.61473314
1.57	157	-0.061	-1.007	0.011	-0.6875496	-0.286479	0	88.67670966	-3.01375908	-52.61473314
1.58	158	-0.063	-1.011	0.012	-1.0313244	0.4010706	-0.0572958	88.6652505	-3.01375908	-52.60900356
1.59	159	-0.064	-1.012	0.006	-1.3178034	1.0313244	0	88.65379134	-3.01375908	-52.60327398
1.6	160	-0.063	-1.013	0.003	-1.3178034	1.145916	0.2291832	88.64233218	-3.01948866	-52.58608524
1.61	161	-0.062	-1.015	0.004	-0.9167328	0.859437	0.5156622	88.6366026	-3.02521824	-52.58035566
1.62	162	-0.061	-1.015	0.007	-0.7448454	0.6875496	0.572958	88.62514344	-3.03094782	-52.57462608
1.63	163	-0.059	-1.015	0.006	-0.572958	0.6302538	0.6302538	88.61941386	-3.04240698	-52.56316692
1.64	164	-0.058	-1.015	0.004	-0.7448454	0.572958	0.7448454	88.61368428	-3.04813656	-52.55743734
1.65	165	-0.057	-1.01	0.002	-0.8021412	0.6875496	0.859437	88.6079547	-3.05386614	-52.55170776
1.66	166	-0.057	-1.006	0.001	-0.5156622	0.8021412	0.9740286	88.60222512	-3.0653253	-52.5402486
1.67	167	-0.059	-1.003	0.003	0	0.859437	0.9167328	88.60222512	-3.07678446	-52.53451902
1.68	168	-0.063	-1.001	0.005	0.286479	1.2032118	0.8021412	88.6079547	-3.08251404	-52.52305986
1.69	169	-0.062	-0.998	0.003	0	1.0886202	0.5156622	88.60222512	-3.08824362	-52.5116007
1.7	170	-0.06	-0.996	0.003	0.1145916	0.859437	0.3437748	88.61941386	-3.0939732	-52.50014154
1.71	171	-0.06	-0.996	0.002	0	0.6875496	0.3437748	88.61368428	-3.09970278	-52.48868238
1.72	172	-0.059	-0.995	0.001	-0.1145916	0.5156622	0.4583664	88.61368428	-3.10543236	-52.4829528
1.73	173	-0.059	-0.997	0	0	0.4583664	0.6302538	88.61368428	-3.11116194	-52.47722322
1.74	174	-0.058	-0.996	-0.002	0.0572958	0.2291832	0.7448454	88.61368428	-3.11689152	-52.47722322
1.75	175	-0.058	-0.994	0	0.2291832	0.1145916	0.6302538	88.62514344	-3.12835068	-52.47149364
1.76	176	-0.057	-0.994	0.001	0.2291832	0.0572958	0.5156622	88.63087302	-3.13408026	-52.47149364
1.77	177	-0.059	-0.994	0.001	0.286479	0.0572958	0.286479	88.63087302	-3.13980984	-52.47149364
1.78	178	-0.062	-0.995	0	0.3437748	0	0.2291832	88.6366026	-3.13980984	-52.47149364
1.79	179	-0.065	-0.999	0	0.5156622	-0.1145916	0.2291832	88.64233218	-3.13980984	-52.47149364
1.8	180	-0.067	-1.003	0.002	0.4583664	-0.0572958	0.2291832	88.67098008	-3.17418732	-52.46576406
1.81	181	-0.067	-1.004	0.005	0.4583664	-0.1718874	0.2291832	88.67098008	-3.17418732	-52.46576406
1.82	182	-0.068	-1.005	0.007	0.4583664	-0.1718874	0.2291832	88.67670966	-3.1799169	-52.47149364
1.83	183	-0.069	-1.006	0.003	0.2291832	0	0.3437748	88.68243924	-3.18564648	-52.47149364
1.84	184	-0.068	-1.007	0.001	0.1145916	0.1718874	0.4583664	88.68243924	-3.18564648	-52.46576406
1.85	185	-0.069	-1.009	0.003	0.0572958	0.3437748	0.572958	88.6938984	-3.21429438	-52.46003448
1.86	186	-0.069	-1.008	-0.001	0.1145916	0.4583664	0.4010706	88.6938984	-3.22002396	-52.4543049
1.87	187	-0.067	-1.009	0	0.1718874	0.3437748	0.286479	88.69962798	-3.22575354	-52.44857532
1.88	188	-0.066	-1.009	0.001	0.2291832	0.286479	0.2291832	88.69962798	-3.22575354	-52.44857532
1.89	189	-0.065	-1.009	0	0.2291832	0	0.1718874	88.70535756	-3.23148312	-52.44857532
1.9	190	-0.065	-1.01	0	0.2291832	-0.1145916	0.1718874	88.71681672	-3.25440144	-52.44857532
1.91	191	-0.067	-1.011	0	0.2291832	-0.2291832	0.2291832	88.7225463	-3.25440144	-52.44857532
1.92	192	-0.068	-1.008	0	0.2291832	-0.286479	0.2291832	88.7225463	-3.26013102	-52.44857532
1.93	193	-0.069	-1.008	0	0.1718874	-0.2291832	0.1718874	88.7225463	-3.26013102	-52.4543049
1.94	194	-0.07	-1.006	0.001	0.1718874	-0.0572958	0.0572958	88.72827588	-3.26013102	-52.4543049
1.95	195	-0.071	-1.004	0	0.1145916	-0.1145916	0	88.73400546	-3.32888598	-52.44857532
1.96	196	-0.07	-1.004	0.002	0.0572958	-0.1145916	0.0572958	88.73400546	-3.32888598	-52.4543049
1.97	197	-0.071	-1.003	0.003	0	-0.1145916	0.1145916	88.73400546	-3.33461556	-52.4543049
1.98	198	-0.071	-1.005	0.001	-0.1145916	0	0	88.73400546	-3.33461556	-52.4543049
1.99	199	-0.07	-1.008	0	-0.3437748	0.1718874	0.0572958	88.72827588	-3.33461556	-52.4543049
2	200	-0.069	-1.008	0.001	-0.4010706	0.1718874	0.0572958	88.72827588	-3.35753388	-52.44857532
2.01	201	-0.069	-1.006	0.001	-0.4010706	0.286479	0.0572958	88.7225463	-3.35753388	-52.44284574
2.02	202	-0.069	-1.002	0.001	-0.4583664	0.0572958	-0.0572958	88.71681672	-3.35753388	-52.44284574
2.03	203	-0.069	-0.999	0	-0.4583664	0.0572958	-0.0572958	88.71108714	-3.35753388	-52.44284574
2.04	204	-0.069	-0.996	0	-0.4010706	0.0572958	-0.0572958	88.70535756	-3.3518043	-52.44284574
2.05	205	-0.068	-0.996	0	-0.4010706	0	-0.1718874	88.71108714	-3.3804522	-52.44284574
2.06	206	-0.069	-0.996	0.001	-0.1718874	0	-0.1718874	88.70535756	-3.3804522	-52.44284574
2.07	207	-0.071	-0.998	0.003	-0.0572958	-0.4010706	-0.1145916	88.70535756	-3.3804522	-52.44284574
2.08	208	-0.074	-1.001	0.005	-0.1718874	-0.2291832	-0.2291832	88.70535756	-3.37472262	-52.44857532
2.09	209	-0.074	-1.001	0.006	-0.286479	-0.1718874	-0.286479	88.70535756	-3.36899304	-52.44857532
2.1	210	-0.072	-1.002	0.006	-0.4010706	-0.0572958	-0.4010706	88.7225463	-3.39764094	-52.44857532
2.11	211	-0.071	-1.005	0.007	-0.4010706	0.286479	-0.4583664	88.71681672	-3.39191136	-52.44284574
2.12	212	-0.073	-1.006	0.006	-0.286479	0.4583664	-0.3437748	88.71108714	-3.38618178	-52.43711616
2.13	213	-0.074	-1.005	0.001	-0.1145916	0.572958	-0.1718874	88.71108714	-3.38618178	-52.43138658
2.14	214	-0.075	-1.007	0.002	0.0572958	0.2291832	-0.0572958	88.71108714	-3.38618178	-52.43138658
2.15	215	-0.074	-1.01	0.005	0.1718874	0.0572958	-0.0572958	88.74546462	-3.42628884	-52.41992742
2.16	216	-0.072	-1.012	0.007	0.2291832	-0.1145916	-0.1718874	88.74546462	-3.42628884	-52.425657
2.17	217	-0.07	-1.013	0.007	-0.0572958	-0.286479	-0.1145916	88.74546462	-3.42628884	-52.425657
2.18	218	-0.07	-1.011	0.003	-0.1718874	-0.286479	-0.1718874	88.74546462	-3.42055926	-52.43138658
2.19	219	-0.069	-1.007	0	0	0	-0.0572958	88.74546462	-3.42055926	-52.43138658
2.2	220	-0.07	-1.002	0	0.2291832	0.1145916	0	88.74546462	-3.45493674	-52.425657
2.21	221	-0.074	-1.001	0.003	0.5156622	0.2291832	-0.1145916	88.7511942	-3.44920716	-52.425657
2.22	222	-0.074	-1.001	0.005	0.6302538	0.0572958	-0.1145916	88.75692378	-3.44920716	-52.425657
2.23	223	-0.075	-1.001	0.004	0.572958	0.0572958	-0.1718874	88.76265336	-3.44920716	-52.425657
2.24	224	-0.076	-1.001	0.004	0.286479	-0.2291832	-0.1145916	88.76838294	-3.44347758	-52.425657
2.25	225	-0.076	-1.002	0.002	0.1145916	-0.3437748	-0.1145916	88.77411252	-3.48358464	-52.425657
2.26	226	-0.074	-1.003	0.003	0.0572958	-0.572958	0	88.77411252	-3.48358464	-52.43138658
2.27	227	-0.074	-1.003	0.002	-0.2291832	-0.5156622	0.0572958	88.77411252	-3.48358464	-52.43711616
2.28	228	-0.074	-1.002	0.001	-0.286479	-0.7448454	0.1145916	88.76838294	-3.48358464	-52.44857532
2.29	229	-0.074	-1.003	0.004	-0.4583664	-0.572958	0.1718874	88.76265336	-3.48358464	-52.4543049
2.3	230	-0.078	-1.004	0.012	-0.6875496	0.2291832	0.1718874	88.77411252	-3.51223254	-52.44284574
2.31	231	-0.081	-1.005	0.008	-0.8021412	1.3750992	0.3437748	88.76838294	-3.51223254	-52.43138658
2.32	232	-0.077	-1.005	0.001	-0.6875496	1.6615782	0.4583664	88.75692378	-3.51796212	-52.41419784
2.33	233	-0.074	-1.005	0	-0.4583664	1.4896908	0.572958	88.7511942	-3.5236917	-52.3970091
2.34	234	-0.072	-1.008	0.002	-0.286479	1.2605076	0.6302538	88.74546462	-3.52942128	-52.38554994
2.35	235	-0.069	-1.012	0.002	-0.2291832	1.145916	0.859437	88.74546462	-3.54088044	-52.37409078
2.36	236	-0.065	-1.01	0	-0.4583664	0.6302538	0.9740286	88.73973504	-3.5523396	-52.3683612
2.37	237	-0.064	-1.007	0.003	-0.3437748	0.4583664	1.0313244	88.73400546	-3.56379876	-52.36263162
2.38	238	-0.065	-1.006	0.003	-0.3437748	0.6302538	1.0886202	88.72827588	-3.57525792	-52.35690204
2.39	239	-0.066	-1.005	0.006	-0.3437748	0.8021412	1.145916	88.72827588	-3.58671708	-52.34544288
2.4	240	-0.062	-1.004	0.004	-0.6302538	0.9167328	1.0313244	88.7225463	-3.59244666	-52.3397133
2.41	241	-0.062	-1.002	0.005	-0.6875496	0.8021412	0.9167328	88.71681672	-3.59817624	-52.32825414
2.42	242	-0.06	-1.004	0.004	-0.859437	0.7448454	0.7448454	88.70535756	-3.6096354	-52.32252456
2.43	243	-0.059	-1.006	0	-0.859437	0.4583664	0.8021412	88.6938984	-3.61536498	-52.31679498
2.44	244	-0.061	-1.007	-0.001	-0.6302538	-0.1145916	0.9740286	88.68816882	-3.62682414	-52.31679498
2.45	245	-0.061	-1.009	0.001	-0.4583664	-0.7448454	0.9740286	88.68816882	-3.62682414	-52.32825414
2.46	246	-0.064	-1.009	0	-0.4010706	-1.0886202	1.145916	88.68243924	-3.6382833	-52.33398372
2.47	247	-0.069	-1.007	0	-0.4010706	-1.2605076	1.145916	88.68243924	-3.64974246	-52.35117246
2.48	248	-0.073	-1.008	0	-0.4583664	-1.2032118	1.0886202	88.67670966	-3.66120162	-52.36263162
2.49	249	-0.077	-1.006	0.001	-0.4583664	-1.0886202	1.0886202	88.67098008	-3.67266078	-52.37409078
2.5	250	-0.078	-1.005	0	-0.5156622	-1.0886202	1.0886202	88.67098008	-3.6955791	-52.37982036
2.51	251	-0.079	-1.005	0.001	-0.5156622	-0.9740286	1.0313244	88.6652505	-3.70703826	-52.39127952
2.52	252	-0.08	-1.005	0	-0.6302538	-0.9167328	1.0313244	88.65952092	-3.71849742	-52.40273868
2.53	253	-0.081	-1.006	0	-0.7448454	-0.8021412	1.0313244	88.65379134	-3.724227	-52.40846826
2.54	254	-0.082	-1.006	0	-0.859437	-0.6302538	1.2032118	88.64233218	-3.74141574	-52.41419784
2.55	255	-0.084	-1.005	0	-0.9167328	-0.572958	1.3178034	88.6366026	-3.76433406	-52.41992742
2.56	256	-0.084	-1.003	-0.001	-1.0313244	-0.286479	1.4896908	88.62514344	-3.7815228	-52.425657
2.57	257	-0.084	-1	-0.003	-1.0886202	-0.1718874	1.4896908	88.61368428	-3.79871154	-52.425657
2.58	258	-0.086	-0.997	-0.003	-1.0313244	0	1.4896908	88.60222512	-3.8101707	-52.425657
2.59	259	-0.085	-0.997	-0.002	-1.0313244	0	1.5469866	88.59076596	-3.82735944	-52.425657
2.6	260	-0.086	-0.998	-0.001	-0.9740286	-0.1718874	1.6615782	88.58503638	-3.85600734	-52.425657
2.61	261	-0.086	-0.999	-0.001	-1.0886202	-0.4583664	1.6615782	88.57357722	-3.87319608	-52.43138658
2.62	262	-0.089	-1	-0.001	-1.432395	-0.6875496	1.5469866	88.55638848	-3.89038482	-52.43711616
2.63	263	-0.092	-1.002	-0.001	-1.718874	-0.6875496	1.2605076	88.53919974	-3.90184398	-52.44284574
2.64	264	-0.092	-1.005	0	-2.0626488	-0.6302538	1.145916	88.522011	-3.91330314	-52.44857532
2.65	265	-0.09	-1.005	-0.003	-2.1199446	-0.3437748	1.145916	88.49909268	-3.94195104	-52.4543049
2.66	266	-0.089	-1.006	-0.006	-2.1199446	0.0572958	1.2032118	88.47617436	-3.9534102	-52.4543049
2.67	267	-0.09	-1.004	-0.007	-2.0626488	0.286479	1.3178034	88.45325604	-3.96486936	-52.44857532
2.68	268	-0.092	-1.004	-0.002	-1.8334656	0.4010706	1.5469866	88.4360673	-3.9820581	-52.44284574
2.69	269	-0.093	-1.003	0.001	-1.8907614	0.4583664	1.4896908	88.41314898	-3.99924684	-52.43711616
2.7	270	-0.095	-1.005	0	-2.1772404	0.859437	1.5469866	88.39596024	-4.02789474	-52.43138658
2.71	271	-0.095	-1.006	-0.001	-2.4637194	1.3750992	1.6042824	88.36731234	-4.04508348	-52.41419784
2.72	272	-0.096	-1.007	-0.002	-2.3491278	2.3491278	1.7761698	88.34439402	-4.06227222	-52.39127952
2.73	273	-0.095	-1.01	-0.005	-2.0626488	3.3231564	2.1199446	88.3214757	-4.08519054	-52.35690204
2.74	274	-0.09	-1.007	-0.004	-1.7761698	3.7815228	2.5210152	88.29855738	-4.10810886	-52.32252456
2.75	275	-0.087	-1.006	-0.003	-1.5469866	3.8961144	2.9793816	88.28136864	-4.14248634	-52.2824175
2.76	276	-0.085	-1.006	-0.004	-1.6615782	3.8388186	3.3231564	88.25845032	-4.17686382	-52.24231044
2.77	277	-0.084	-1.005	-0.006	-1.6615782	3.6096354	3.6669312	88.24126158	-4.2112413	-52.20220338
2.78	278	-0.083	-1.002	-0.005	-1.7761698	3.5523396	4.1252976	88.21834326	-4.25134836	-52.1678259
2.79	279	-0.083	-1.001	-0.003	-1.6615782	3.5523396	4.4690724	88.19542494	-4.297185	-52.13344842
2.8	280	-0.084	-1.001	-0.002	-1.5469866	3.8388186	4.6409598	88.1782362	-4.34302164	-52.09334136
2.81	281	-0.084	-1.002	-0.005	-1.4896908	4.2398892	4.870143	88.16104746	-4.39458786	-52.04750472
2.82	282	-0.084	-1	-0.012	-1.432395	4.010706	5.0993262	88.14385872	-4.44615408	-52.00739766
2.83	283	-0.084	-0.998	-0.007	-1.3178034	3.724227	5.2139178	88.12666998	-4.4977203	-51.9672906
2.84	284	-0.085	-0.999	-0.005	-1.3178034	4.010706	5.3285094	88.10948124	-4.54928652	-51.92718354
2.85	285	-0.083	-1.003	-0.01	-1.6042824	4.0680018	5.5003968	88.08656292	-4.60085274	-51.88707648
2.86	286	-0.081	-1.005	-0.012	-1.6042824	3.8961144	5.8441716	88.06937418	-4.66387812	-51.84696942
2.87	287	-0.081	-1.005	-0.015	-1.4896908	3.3804522	6.302538	88.04645586	-4.72117392	-51.80686236
2.88	288	-0.085	-1.009	-0.013	-1.4896908	2.86479	6.6463128	88.02926712	-4.78992888	-51.77821446
2.89	289	-0.085	-1.007	-0.012	-1.718874	2.4637194	6.7609044	88.01207838	-4.85868384	-51.74956656
2.9	290	-0.085	-1.005	-0.01	-1.8907614	2.4064236	6.9900876	87.98916006	-4.9274388	-51.72664824
2.91	291	-0.088	-1.005	-0.008	-1.9480572	2.4064236	7.2192708	87.96624174	-4.99619376	-51.69800034
2.92	292	-0.09	-1.007	-0.011	-2.0626488	2.578311	7.3911582	87.94332342	-5.0706783	-51.66935244
2.93	293	-0.092	-1.007	-0.012	-2.1772404	2.6929026	7.6203414	87.9204051	-5.14516284	-51.64070454
2.94	294	-0.09	-1.009	-0.012	-2.578311	2.7501984	7.9068204	87.8917572	-5.22537696	-51.61205664
2.95	295	-0.086	-1.006	-0.017	-2.8074942	2.6356068	8.1360036	87.85737972	-5.30559108	-51.58340874
2.96	296	-0.085	-1.007	-0.019	-3.0366774	2.2345362	8.4224826	87.82300224	-5.3858052	-51.56049042
2.97	297	-0.09	-1.011	-0.016	-2.9220858	1.6615782	8.7662574	87.78862476	-5.47747848	-51.5375721
2.98	298	-0.092	-1.006	-0.017	-3.2658606	1.4896908	8.9381448	87.75424728	-5.56342218	-51.52038336
2.99	299	-0.098	-1.006	-0.014	-3.5523396	1.2605076	9.167328	87.7198698	-5.65509546	-51.50319462
3	300	-0.105	-1.008	-0.007	-3.3231564	1.5469866	9.3392154	87.68549232	-5.74676874	-51.48600588
3.01	301	-0.102	-1.011	-0.011	-3.9534102	1.8907614	9.5111028	87.63965568	-5.8441716	-51.46308756
3.02	302	-0.098	-1.007	-0.016	-4.7555514	2.0626488	9.7975818	87.58808946	-5.94157446	-51.44016924
3.03	303	-0.099	-1.006	-0.022	-4.8128472	1.3750992	10.1413566	87.54225282	-6.0447069	-51.4229805
3.04	304	-0.104	-1.01	-0.023	-4.4690724	1.2605076	10.599723	87.4906866	-6.14783934	-51.40579176
3.05	305	-0.107	-1.01	-0.022	-4.3544808	0.8021412	11.0580894	87.44484996	-6.25670136	-51.3943326
3.06	306	-0.111	-1.006	-0.019	-4.4690724	0.5156622	11.4018642	87.39901332	-6.37129296	-51.38287344
3.07	307	-0.117	-1.001	-0.014	-4.8128472	0.4583664	11.4018642	87.3474471	-6.48588456	-51.37141428
3.08	308	-0.121	-1.002	-0.017	-4.870143	0.6875496	11.45916	87.30161046	-6.60047616	-51.35995512
3.09	309	-0.122	-1.003	-0.02	-4.8128472	0.9740286	11.5737516	87.25004424	-6.71506776	-51.34849596
3.1	310	-0.124	-1.001	-0.021	-4.6982556	0.4583664	11.8602306	87.19847802	-6.83538894	-51.3370368
3.11	311	-0.131	-1.001	-0.018	-5.0420304	0.4583664	12.032118	87.1469118	-6.94998054	-51.32557764
3.12	312	-0.135	-0.999	-0.014	-5.3858052	1.0313244	12.2613012	87.089616	-7.0760313	-51.31411848
3.13	313	-0.133	-0.997	-0.015	-5.72958	1.4896908	12.318597	87.0323202	-7.19635248	-51.29120016
3.14	314	-0.133	-0.995	-0.022	-5.72958	1.2605076	12.3758928	86.96929482	-7.32240324	-51.27401142
3.15	315	-0.136	-1	-0.026	-5.6149884	0.6302538	12.6623718	86.91199902	-7.448454	-51.26255226
3.16	316	-0.138	-1	-0.024	-5.9587632	0.3437748	13.1207382	86.84897364	-7.57450476	-51.2510931
3.17	317	-0.143	-1.001	-0.02	-6.7036086	0.4010706	13.8655836	86.78021868	-7.71774426	-51.23963394
3.18	318	-0.149	-0.999	-0.022	-6.875496	0.6875496	14.4385416	86.70573414	-7.86098376	-51.22817478
3.19	319	-0.153	-1.001	-0.019	-7.1046792	0.7448454	14.7250206	86.63697918	-8.00422326	-51.21098604
3.2	320	-0.153	-1.005	-0.025	-7.6776372	1.2605076	14.7823164	86.55676506	-8.15319234	-51.18806772
3.21	321	-0.156	-1.005	-0.026	-7.8495246	1.4896908	15.183387	86.47082136	-8.30216142	-51.1651494
3.22	322	-0.161	-1.006	-0.021	-8.2505952	1.9480572	15.469866	86.38487766	-8.45686008	-51.1365015
3.23	323	-0.165	-1.003	-0.022	-8.0787078	2.2345362	15.8709366	86.29893396	-8.61728832	-51.1078536
3.24	324	-0.168	-0.995	-0.028	-8.0787078	1.6615782	16.1574156	86.20726068	-8.77771656	-51.0792057
3.25	325	-0.167	-0.996	-0.025	-8.3651868	1.145916	16.4438946	86.12704656	-8.9381448	-51.06201696
3.26	326	-0.161	-0.999	-0.027	-8.5370742	1.2605076	16.8449652	86.03537328	-9.1100322	-51.03909864
3.27	327	-0.155	-0.999	-0.037	-8.8235532	1.145916	17.2460358	85.93797042	-9.2819196	-51.01618032
3.28	328	-0.158	-1	-0.038	-8.6516658	0.6875496	17.5898106	85.85202672	-9.453807	-50.993262
3.29	329	-0.166	-0.999	-0.037	-8.7662574	0.4010706	17.8762896	85.76035344	-9.63142398	-50.98180284
3.3	330	-0.176	-1	-0.033	-8.7662574	0.7448454	18.2773602	85.66868016	-9.81477054	-50.95888452
3.31	331	-0.178	-0.996	-0.035	-8.9381448	0.859437	18.5638392	85.5712773	-9.9981171	-50.9359662
3.32	332	-0.182	-0.991	-0.038	-9.2246238	0.6875496	18.8503182	85.47387444	-10.18719324	-50.91877746
3.33	333	-0.184	-0.989	-0.043	-9.3392154	0.572958	19.194093	85.37647158	-10.37626938	-50.89585914
3.34	334	-0.186	-0.985	-0.044	-9.3965112	0.6302538	19.3659804	85.27906872	-10.5710751	-50.8786704
3.35	335	-0.187	-0.982	-0.045	-9.3392154	0.7448454	19.4232762	85.18166586	-10.76015124	-50.85575208
3.36	336	-0.19	-0.984	-0.046	-9.2819196	0.859437	19.5951636	85.084263	-10.95495696	-50.82710418
3.37	337	-0.195	-0.984	-0.047	-9.9121734	0.6875496	19.767051	84.97540098	-11.14976268	-50.80418586
3.38	338	-0.199	-0.987	-0.048	-9.8548776	0.859437	20.05353	84.87226854	-11.35029798	-50.78126754
3.39	339	-0.2	-0.985	-0.048	-9.6829902	0.6875496	20.5691922	84.7691361	-11.55656286	-50.75834922
3.4	340	-0.2	-0.986	-0.048	-10.0840608	0.8021412	21.0275586	84.66600366	-11.76282774	-50.72970132
3.41	341	-0.206	-0.987	-0.053	-10.1413566	1.145916	21.5432208	84.55714164	-11.9748222	-50.70105342
3.42	342	-0.213	-0.99	-0.054	-10.026765	1.145916	22.2880662	84.44827962	-12.19827582	-50.66667594
3.43	343	-0.219	-0.993	-0.051	-10.4278356	1.3178034	22.8610242	84.33368802	-12.42172944	-50.63229846
3.44	344	-0.224	-0.992	-0.052	-11.4018642	1.6042824	23.1475032	84.20763726	-12.65091264	-50.59792098
3.45	345	-0.227	-0.993	-0.054	-12.2613012	1.9480572	23.3193906	84.07585692	-12.88582542	-50.55208434
3.46	346	-0.233	-0.988	-0.058	-12.3758928	2.0626488	23.204799	83.94407658	-13.11500862	-50.51197728
3.47	347	-0.236	-0.99	-0.057	-12.318597	2.1772404	23.4339822	83.80656666	-13.34419182	-50.46614064
3.48	348	-0.24	-0.995	-0.061	-13.0634424	2.2345362	23.777757	83.66332716	-13.5791046	-50.41457442
3.49	349	-0.242	-0.989	-0.064	-14.0947668	2.0626488	24.2361234	83.5086285	-13.81974696	-50.36873778
3.5	350	-0.251	-0.99	-0.065	-14.8396122	2.005353	24.637194	83.34820026	-14.06038932	-50.32290114
3.51	351	-0.256	-0.995	-0.067	-14.9542038	2.5210152	25.2674478	83.18204244	-14.31249084	-50.27133492
3.52	352	-0.259	-0.994	-0.072	-15.6417534	3.0939732	25.7258142	83.01015504	-14.56459236	-50.20830954
3.53	353	-0.26	-0.985	-0.071	-16.2720072	3.6096354	26.1268848	82.82680848	-14.81669388	-50.13955458
3.54	354	-0.259	-0.986	-0.069	-16.329303	4.4117766	26.7571386	82.64346192	-15.08025456	-50.06507004
3.55	355	-0.263	-0.989	-0.075	-16.7303736	5.0420304	27.788463	82.4486562	-15.34954482	-49.97912634
3.56	356	-0.273	-0.985	-0.079	-17.6471064	5.156622	28.8770832	82.2481209	-15.63029424	-49.88745306
3.57	357	-0.271	-0.974	-0.077	-18.1627686	5.6722842	29.4500412	82.03612644	-15.91677324	-49.7900502
3.58	358	-0.266	-0.972	-0.078	-18.4492476	6.0733548	30.3094782	81.8184024	-16.20898182	-49.68691776
3.59	359	-0.271	-0.973	-0.073	-19.7097552	6.2452422	31.1689152	81.5892192	-16.51264956	-49.57805574
3.6	360	-0.274	-0.976	-0.086	-20.5691922	6.016059	32.2575354	81.34857684	-16.82204688	-49.46919372
3.61	361	-0.279	-0.973	-0.086	-21.772404	5.443101	33.0023808	81.09647532	-17.14290336	-49.36606128
3.62	362	-0.283	-0.968	-0.087	-23.491278	5.2712136	33.6326346	80.82718506	-17.46375984	-49.25719926
3.63	363	-0.288	-0.967	-0.095	-24.5226024	4.9274388	34.4347758	80.54643564	-17.80180506	-49.15406682
3.64	364	-0.291	-0.963	-0.099	-25.6685184	4.7555514	34.8358464	80.25422706	-18.1341207	-49.0452048
3.65	365	-0.29	-0.959	-0.1	-26.4133638	5.156622	35.1223254	79.95055932	-18.47216592	-48.93634278
3.66	366	-0.287	-0.956	-0.102	-26.642547	5.8441716	35.809875	79.641162	-18.81594072	-48.81029202
3.67	367	-0.286	-0.949	-0.101	-26.8717302	5.5576926	36.3255372	79.3260351	-19.1654451	-48.68997084
3.68	368	-0.297	-0.95	-0.101	-27.4446882	5.3858052	37.1849742	79.0109082	-19.52640864	-48.56392008
3.69	369	-0.299	-0.952	-0.108	-28.4760126	4.9847346	38.1590028	78.67859256	-19.89310176	-48.43786932
3.7	370	-0.305	-0.952	-0.117	-29.6219286	4.2398892	39.247623	78.33481776	-20.26552446	-48.31754814
3.71	371	-0.31	-0.949	-0.124	-30.4813656	3.2085648	40.1643558	77.98531338	-20.6551359	-48.19722696
3.72	372	-0.318	-0.947	-0.123	-31.5699858	2.86479	40.8519054	77.62434984	-21.05047692	-48.08263536
3.73	373	-0.327	-0.937	-0.12	-32.8877892	3.4950438	41.4821592	77.24619756	-21.45154752	-47.95085502
3.74	374	-0.331	-0.923	-0.132	-34.3201842	4.1825934	41.9978214	76.84512696	-21.85261812	-47.8133451
3.75	375	-0.331	-0.913	-0.143	-34.6066632	4.0680018	42.5707794	76.44405636	-22.2594183	-47.6701056
3.76	376	-0.336	-0.91	-0.147	-34.7785506	4.4117766	43.0291458	76.0315266	-22.66621848	-47.52113652
3.77	377	-0.343	-0.904	-0.156	-35.0650296	4.6409598	43.258329	75.61326726	-23.07874824	-47.36070828
3.78	378	-0.351	-0.903	-0.163	-35.2942128	4.1825934	43.4302164	75.19500792	-23.491278	-47.20028004
3.79	379	-0.375	-0.904	-0.157	-35.4661002	4.297185	43.6593996	74.76528942	-23.90380776	-47.0398518
3.8	380	-0.389	-0.899	-0.152	-36.7839036	4.7555514	43.4875122	74.32984134	-24.31060794	-46.8679644
3.81	381	-0.385	-0.879	-0.166	-38.0444112	4.870143	44.0031744	73.86574536	-24.7231377	-46.69034742
3.82	382	-0.393	-0.871	-0.186	-38.101707	3.0366774	45.1490904	73.41310854	-25.1528562	-46.5241896
3.83	383	-0.4	-0.881	-0.182	-38.7319608	2.86479	45.83664	72.94328298	-25.5825747	-46.3523022
3.84	384	-0.402	-0.877	-0.193	-40.0497642	4.1825934	46.0085274	72.45626868	-26.0122932	-46.16322606
3.85	385	-0.407	-0.86	-0.208	-39.7632852	4.1252976	46.1804148	71.96925438	-26.4420117	-45.96842034
3.86	386	-0.411	-0.857	-0.209	-39.6486936	4.3544808	46.123119	71.4765105	-26.8717302	-45.76788504
3.87	387	-0.423	-0.85	-0.213	-39.3049188	5.9587632	46.123119	70.97230746	-27.28998954	-45.53870184
3.88	388	-0.436	-0.834	-0.22	-38.8465524	6.7036086	45.83664	70.46810442	-27.70824888	-45.30378906
3.89	389	-0.45	-0.826	-0.217	-39.0184398	7.8495246	45.6647526	69.95244222	-28.11504906	-45.05168754
3.9	390	-0.447	-0.831	-0.229	-38.7319608	10.1413566	46.5814854	69.43105044	-28.52184924	-44.76520854
3.91	391	-0.439	-0.826	-0.235	-38.101707	10.5424272	47.841993	68.8981995	-28.934379	-44.46727038
3.92	392	-0.451	-0.816	-0.23	-38.7892566	11.8602306	48.5868384	68.34243024	-29.34690876	-44.1464139
3.93	393	-0.452	-0.818	-0.249	-38.5027776	13.0061466	49.6754586	67.7809314	-29.7651681	-43.79690952
3.94	394	-0.473	-0.834	-0.26	-38.674665	13.2353298	50.5348956	67.2079734	-30.18915702	-43.44167556
3.95	395	-0.458	-0.819	-0.247	-40.2216516	14.9542038	51.1651494	66.6063675	-30.60741636	-43.0577937
3.96	396	-0.446	-0.821	-0.254	-41.1383844	17.5325148	51.4516284	65.97038412	-31.01421654	-42.63380478
3.97	397	-0.433	-0.801	-0.27	-41.3102718	18.1627686	51.7381074	65.32294158	-31.42101672	-42.1983567
3.98	398	-0.434	-0.8	-0.282	-41.539455	18.3919518	52.425657	64.66403988	-31.82208732	-41.74571988
3.99	399	-0.448	-0.8	-0.288	-42.5707794	18.8503182	52.998615	63.98794944	-32.2288875	-41.2816239
4	400	-0.429	-0.786	-0.293	-40.8519054	19.194093	53.2277982	63.31758858	-32.62422852	-40.80606876
4.01	401	-0.4	-0.792	-0.289	-39.4768062	19.8243468	53.1132066	62.64722772	-33.01383996	-40.31332488
4.02	402	-0.371	-0.791	-0.285	-38.961144	20.5691922	52.425657	61.97686686	-33.39199224	-39.81485142
4.03	403	-0.37	-0.772	-0.282	-38.1590028	19.0222056	51.9672906	61.31223558	-33.76441494	-39.32210754
4.04	404	-0.367	-0.766	-0.309	-37.0130868	14.4385416	52.3683612	60.68198178	-34.15975596	-38.86947072
4.05	405	-0.352	-0.78	-0.314	-36.8411994	11.1153852	52.139178	60.0746463	-34.55509698	-38.4454818
4.06	406	-0.353	-0.814	-0.32	-36.4974246	8.9954406	50.2484166	59.47876998	-34.950438	-38.05014078
4.07	407	-0.367	-0.811	-0.315	-37.7579322	7.3911582	49.560867	58.87716408	-35.34004944	-37.66625892
4.08	408	-0.363	-0.756	-0.328	-38.7892566	4.6982556	49.9619376	58.2698286	-35.74684962	-37.30529538
4.09	409	-0.334	-0.733	-0.329	-37.1849742	1.2032118	50.0192334	57.6968706	-36.17083854	-36.96725016
4.1	410	-0.317	-0.724	-0.311	-37.24227	-0.9740286	50.0192334	57.13537176	-36.58909788	-36.65785284
4.11	411	-0.268	-0.702	-0.291	-37.2995658	-3.2085648	51.2224452	56.57387292	-37.03600512	-36.34845552
4.12	412	-0.225	-0.634	-0.302	-35.6379876	-7.2765666	53.0559108	56.04102198	-37.51728984	-36.06197652
4.13	413	-0.187	-0.579	-0.305	-33.2888598	-12.3758928	54.2591226	55.55400768	-38.03295204	-35.809875
4.14	414	-0.169	-0.578	-0.294	-31.226211	-15.6990492	54.6028974	55.10137086	-38.57153256	-35.58642138
4.15	415	-0.155	-0.585	-0.303	-29.1062664	-19.3086846	54.5456016	54.69457068	-39.11011308	-35.39734524
4.16	416	-0.135	-0.573	-0.3	-27.3873924	-24.5798982	53.9726436	54.33360714	-39.68880066	-35.25983532
4.17	417	-0.113	-0.555	-0.298	-25.78311	-29.9084076	54.0872352	54.01848024	-40.29040656	-35.17389162
4.18	418	-0.103	-0.522	-0.286	-22.8037284	-35.0650296	54.5456016	53.76637872	-40.93211952	-35.12805498
4.19	419	-0.082	-0.488	-0.28	-20.7410796	-39.7632852	53.0559108	53.571573	-41.58529164	-35.14524372
4.2	420	-0.049	-0.475	-0.264	-19.0795014	-44.0604702	50.5348956	53.43979266	-42.2270046	-35.23118742
4.21	421	-0.009	-0.477	-0.236	-17.475219	-47.7846972	46.7533728	53.37676728	-42.87444714	-35.38588608
4.22	422	0.026	-0.466	-0.207	-15.2979786	-51.4516284	42.398892	53.38249686	-43.50470094	-35.61506928
4.23	423	0.061	-0.471	-0.216	-12.318597	-54.2018268	39.9351726	53.46271098	-44.13495474	-35.8958187
4.24	424	0.097	-0.448	-0.217	-8.6516658	-58.155237	38.7319608	53.62313922	-44.7766677	-36.2395935
4.25	425	0.12	-0.365	-0.209	-4.6409598	-65.4318036	38.3308902	53.89242948	-45.4355694	-36.67504158
4.26	426	0.113	-0.206	-0.198	-2.3491278	-75.0002022	36.7839036	54.29350008	-46.1517669	-37.24799958
4.27	427	0.1	-0.128	-0.2	0.572958	-82.6778394	34.663959	54.81489186	-46.89088272	-37.94700834
4.28	428	0.127	-0.192	-0.184	2.9220858	-87.2042076	33.518043	55.4336865	-47.63572812	-38.72623122
4.29	429	0.123	-0.294	-0.155	4.1825934	-92.9910834	30.080295	56.16134316	-48.38057352	-39.63723444
4.3	430	0.118	-0.363	-0.149	5.5003968	-100.554129	23.0329116	57.05515764	-49.07958228	-40.73158422
4.31	431	0.095	-0.48	-0.148	7.7922288	-103.705398	15.2406828	58.08075246	-49.7327544	-41.95771434
4.32	432	0.098	-0.525	-0.127	8.307891	-105.710751	7.1046792	59.22093888	-50.31144198	-43.30989522
4.33	433	0.051	-0.425	-0.093	8.4797784	-109.434978	-2.0626488	60.48717606	-50.80991544	-44.82250434
4.34	434	0.036	-0.335	-0.071	10.6570188	-111.7841058	-9.6256944	61.879464	-51.22817478	-46.45543464
4.35	435	0.044	-0.273	-0.049	14.610429	-114.0759378	-14.32395	63.40353228	-51.58340874	-48.19149738
4.36	436	0.039	-0.238	0.027	20.2827132	-114.7061916	-16.7876694	65.02500342	-51.89280606	-49.97912634
4.37	437	0.058	-0.288	-0.026	23.204799	-113.2165008	-15.8709366	66.68085204	-52.17355548	-51.76102572
4.38	438	0.087	-0.376	-0.052	26.6998428	-110.580894	-10.313244	68.33670066	-52.46576406	-53.49135888
4.39	439	0.083	-0.454	-0.038	35.3515086	-108.002583	-1.8334656	70.03838592	-52.7980797	-55.15866666
4.4	440	0.058	-0.491	0.023	43.3729206	-107.5442166	9.3965112	71.80309656	-53.18769114	-56.79732654
4.41	441	0.015	-0.443	0.067	47.0398518	-108.1744704	21.0275586	73.5964551	-53.66897586	-58.4130681
4.42	442	-0.034	-0.379	0.087	53.8007562	-108.1744704	30.9970278	75.46429818	-54.21901554	-60.02880966
4.43	443	-0.078	-0.288	0.115	56.2071798	-107.3150334	37.3568616	77.3779779	-54.79770312	-61.66173996
4.44	444	-0.091	-0.19	0.099	59.1292656	-109.0912032	40.393539	79.39479006	-55.37066112	-63.3691548
4.45	445	-0.138	-0.143	-0.074	63.02538	-115.9094034	39.4195104	81.59494878	-55.90924164	-65.24272746
4.46	446	-0.354	-0.162	-0.21	73.4532156	-133.1554392	35.809875	84.23628516	-56.3790672	-67.50591156
4.47	447	-0.831	-0.294	-0.196	77.2920342	-144.1562328	41.1956802	87.14118222	-56.84889276	-70.02692676
4.48	448	-1.724	-0.38	-0.249	70.8176088	-154.69866	55.9779966	90.21796668	-57.39320286	-72.80577306
4.49	449	-2.15	-0.444	0.044	86.5739538	-158.1937038	91.3295052	93.63852594	-58.19534406	-75.77942508
4.5	450	-2.975	-0.175	0.055	89.2095606	-156.8759004	165.1264956	97.36848252	-59.63346864	-79.05674484
4.51	451	-3.884	-0.492	-0.014	142.8957252	-131.4365652	188.0448156	101.6026421	-61.21483272	-82.23093216
4.52	452	-3.999	-1.53	-0.327	178.762896	-43.0291458	160.6574232	104.8455844	-62.6529573	-83.84667372
4.53	453	-3.999	-1.243	-0.471	119.9201094	191.5398594	250.5545334	103.5392402	-65.58077268	-81.06782742
4.54	454	-3.936	-0.912	2.104	-56.9520252	204.1449354	407.3158422	100.2561908	-70.0154676	-78.15720078
4.55	455	-2.872	-0.463	1.49	-78.7244292	115.737516	419.7490308	98.04457296	-74.34703008	-76.68469872
4.56	456	-2.287	-0.306	-0.131	174.179232	128.1134088	408.1179834	96.67520334	-78.54681222	-73.47613392
4.57	457	-1.732	-0.759	-0.229	147.9377556	160.5428316	376.5479976	90.03462012	-82.4200083	-65.23699788
4.58	458	-1.91	0.124	0.318	-4.010706	136.650483	345.1498992	72.0494685	-85.67440974	-47.21746878
4.59	459	-2.092	1.015	-0.134	-23.3193906	62.8534926	302.6937114	29.0203227	-87.76570644	-4.36593996
4.6	460	-1.523	1.696	-0.746	-21.3713334	48.3003594	208.3275288	-22.70059596	-87.376095	47.17163214
4.61	461	-1.53	0.842	0.51	-0.8021412	43.6021038	140.8330764	-40.393539	-86.2588269	64.88176392
4.62	462	-1.421	-0.316	0.452	-11.45916	26.7571386	117.0553194	-49.25146968	-85.24469124	73.64229174
4.63	463	-1.011	-0.308	0.163	-50.7640788	14.037471	100.8979038	-55.42795692	-84.3680655	79.3260351
4.64	464	-0.881	0.194	0.169	-37.24227	10.4851314	86.1728832	-59.42720376	-83.58884262	82.9643184
4.65	465	-1.048	0.561	0.116	-21.199446	9.8548776	72.192708	-62.04562182	-82.90129302	85.38793074
4.66	466	-1.092	0.631	0.12	-18.7357266	11.8029348	49.560867	-63.2259153	-82.40854914	86.38487766
4.67	467	-1.048	0.528	0.167	-16.5584862	9.740286	21.3140376	-63.48947598	-82.17363636	86.48228052
4.68	468	-1.171	0.647	0.159	-17.3033316	6.2452422	-3.437748	-63.18007866	-82.17363636	85.98380706
4.69	469	-1.205	0.706	0.19	-9.8548776	8.6516658	-23.1475032	-61.95394854	-82.3340646	84.64881492
4.7	470	-1.42	0.702	0.155	0.286479	20.4546006	-38.8465524	-59.24958678	-82.5632478	81.92153484
4.71	471	-1.534	0.632	0.18	1.2605076	35.4661002	-44.8053156	-55.1185596	-82.74086478	77.76185976
4.72	472	-1.289	0.4	0.268	8.307891	58.3844202	-48.3003594	-49.19990346	-82.75232394	71.87185152
4.73	473	-1.092	0.237	0.432	4.8128472	70.760313	-58.0979412	-42.19262712	-82.66065066	64.84738644
4.74	474	-0.592	0.274	0.533	-21.2567418	68.1247062	-59.3584488	-35.76976794	-82.49449284	58.14377784
4.75	475	-0.157	0.456	0.367	-21.9442914	59.014674	-49.274388	-30.86524746	-82.26530964	52.95850794
4.76	476	0.061	0.55	0.175	-3.0366774	56.8374336	-30.7105488	-27.11810214	-81.91007568	49.1311485
4.77	477	0	0.572	0.066	4.010706	55.4050386	-10.4278356	-24.88929552	-81.45743886	46.91953062
4.78	478	-0.227	0.665	-0.059	5.8441716	57.3530958	12.605076	-24.14445012	-80.88448086	46.21479228
4.79	479	-0.354	0.841	-0.212	10.9434978	54.3164184	25.8404058	-24.20174592	-80.28287496	46.3809501
4.8	480	-0.484	0.848	-0.345	23.3766864	46.696077	28.1895336	-24.56270946	-79.70991696	46.97682642
4.81	481	-0.562	0.686	-0.448	47.8992888	38.4454818	20.5691922	-24.25904172	-79.2687393	47.1544434
4.82	482	-0.662	0.585	-0.532	64.0567044	35.523396	10.8289062	-23.39387514	-78.8963166	46.93098978
4.83	483	-0.785	0.547	-0.531	74.6564274	42.112413	4.4117766	-22.05315342	-78.48951642	46.32938388
4.84	484	-0.862	0.485	-0.53	79.927641	51.852699	4.5263682	-20.57492178	-77.9795838	45.64183428
4.85	485	-0.903	0.394	-0.509	78.8390208	56.5509546	9.740286	-19.37743956	-77.40089622	45.22357494
4.86	486	-0.921	0.302	-0.49	76.7190762	55.003968	12.318597	-18.3633039	-76.8336678	44.977203
4.87	487	-0.961	0.221	-0.496	75.630456	48.0711762	8.1360036	-17.3319795	-76.3466535	44.70218316
4.88	488	-0.984	0.247	-0.488	72.5364828	40.7946096	0.8021412	-16.17460434	-75.9455829	44.2610055
4.89	489	-1.043	0.353	-0.467	68.9268474	35.8671708	-7.7922288	-14.81669388	-75.61899684	43.5734559
4.9	490	-1.092	0.451	-0.364	67.036086	36.382833	-15.5844576	-13.28116644	-75.29241078	42.685371
4.91	491	-1.122	0.493	-0.248	64.5150708	41.539455	-20.1681216	-11.57948118	-74.92571766	41.5967508
4.92	492	-1.095	0.401	-0.114	64.3431834	49.5035712	-23.4339822	-9.79185222	-74.47881042	40.41072774
4.93	493	-1.004	0.194	-0.14	51.7954032	56.722842	-27.7311672	-8.03860074	-73.95741864	39.12730182
4.94	494	-0.916	0.032	-0.19	34.2055926	57.9833496	-32.5440144	-6.39994086	-73.4245677	37.76939136
4.95	495	-0.894	-0.045	-0.264	18.5065434	52.0245864	-36.4401288	-4.88160216	-72.94328298	36.37710342
4.96	496	-0.885	-0.061	-0.309	11.172681	41.7113424	-40.5654264	-3.41482968	-72.55940112	34.95616758
4.97	497	-0.873	-0.078	-0.338	2.005353	31.9137606	-42.398892	-2.05691922	-72.26146296	33.5466909
4.98	498	-0.844	-0.06	-0.434	-7.9641162	21.199446	-42.2270046	-0.83651868	-72.06092766	32.17732128
4.99	499	-0.838	-0.036	-0.371	-3.9534102	9.740286	-41.0810886	0.36096354	-71.9635248	30.86524746
5	500	-0.787	-0.081	-0.467	-12.2040054	5.3285094	-39.1330314	1.43812458	-71.8775811	29.59901028
5.01	501	-0.733	-0.083	-0.517	-19.3086846	-1.8334656	-35.4661002	2.31475032	-71.88331068	28.47028302
5.02	502	-0.645	-0.069	-0.495	-21.0848544	-2.578311	-33.6326346	3.1226211	-71.89476984	27.39312198
5.03	503	-0.609	-0.054	-0.488	-16.2720072	-5.5576926	-32.4294228	3.9534102	-71.9348769	26.34460884
5.04	504	-0.633	-0.077	-0.408	-10.313244	-9.1100322	-30.3094782	4.79565846	-71.99790228	25.34766192
5.05	505	-0.693	-0.109	-0.376	-9.6829902	-11.8029348	-25.3820394	5.54623344	-72.0781164	24.4653066
5.06	506	-0.779	-0.137	-0.368	-8.8235532	-12.318597	-18.334656	6.06762522	-72.18124884	23.82359364
5.07	507	-0.86	-0.131	-0.355	-6.8182002	-11.2872726	-12.3758928	6.42858876	-72.2786517	23.37095682
5.08	508	-0.907	-0.114	-0.343	-5.3285094	-8.3651868	-9.0527364	6.69214944	-72.35313624	23.03864118
5.09	509	-0.926	-0.085	-0.347	-3.2658606	-5.2712136	-8.307891	6.93852138	-72.3932433	22.7464326
5.1	510	-0.935	-0.071	-0.341	-0.286479	-3.0366774	-9.6256944	7.28229618	-72.38751372	22.38546906
5.11	511	-0.942	-0.072	-0.33	0.9167328	-2.1772404	-11.2872726	7.6489893	-72.3932433	22.0015872
5.12	512	-0.956	-0.067	-0.321	1.6042824	-0.9167328	-12.0894138	8.0500599	-72.38751372	21.60624618
5.13	513	-0.965	-0.066	-0.307	2.3491278	-0.9740286	-11.3445684	8.42821218	-72.38178414	21.2280939
5.14	514	-0.979	-0.062	-0.303	2.6356068	-3.0366774	-9.453807	8.7662574	-72.39897288	20.90150784
5.15	515	-0.996	-0.062	-0.285	3.0939732	-5.2139178	-6.7609044	9.05846598	-72.44480952	20.63794716
5.16	516	-1.007	-0.073	-0.279	3.2085648	-6.589017	-4.3544808	9.27046044	-72.50210532	20.4546006
5.17	517	-1.02	-0.086	-0.284	2.291832	-7.734933	-2.8074942	9.4251591	-72.57086028	20.3113611
5.18	518	-1.025	-0.091	-0.27	1.0313244	-8.1932994	-2.6356068	9.57412818	-72.64534482	20.1681216
5.19	519	-1.007	-0.095	-0.277	-1.3178034	-8.2505952	-3.0366774	9.70590852	-72.71982936	20.01342294
5.2	520	-0.991	-0.079	-0.278	-2.005353	-10.3705398	-3.2658606	9.8835255	-72.8229618	19.81288764
5.21	521	-0.976	-0.081	-0.277	-3.0939732	-13.0634424	-3.0939732	10.03249458	-72.94328298	19.6238115
5.22	522	-0.947	-0.069	-0.293	-6.302538	-14.9542038	-2.4637194	10.14708618	-73.08652248	19.44046494
5.23	523	-0.925	-0.058	-0.283	-5.9014674	-17.2460358	-1.9480572	10.27313694	-73.2526803	19.2513888
5.24	524	-0.904	-0.061	-0.279	-6.7036086	-19.0222056	-1.7761698	10.39345812	-73.43029728	19.05658308
5.25	525	-0.89	-0.065	-0.277	-7.448454	-21.0848544	-1.145916	10.5137793	-73.63083258	18.85604778
5.26	526	-0.889	-0.071	-0.274	-7.734933	-22.6891368	0.1718874	10.59399342	-73.84855662	18.69561954
5.27	527	-0.891	-0.064	-0.271	-8.021412	-23.777757	1.7761698	10.62264132	-74.0834694	18.58102794
5.28	528	-0.913	-0.048	-0.275	-6.9327918	-24.5798982	3.437748	10.61691174	-74.32984134	18.51800256
5.29	529	-0.925	-0.038	-0.273	-6.7036086	-24.8090814	5.0993262	10.55961594	-74.58194286	18.51227298
5.3	530	-0.943	-0.021	-0.273	-6.302538	-24.4653066	6.7036086	10.41637644	-74.8283148	18.5924871
5.31	531	-0.97	-0.003	-0.275	-5.5003968	-23.8923486	8.1360036	10.24448904	-75.07468674	18.71280828
5.32	532	-0.997	0.021	-0.275	-4.6409598	-23.0902074	9.1100322	10.03822416	-75.3153291	18.88469568
5.33	533	-1.02	0.053	-0.26	-3.2085648	-20.4546006	9.5683986	9.80331138	-75.53305314	19.09669014
5.34	534	-1.03	0.08	-0.251	-1.8334656	-16.4438946	9.7975818	9.53402112	-75.70494054	19.35452124
5.35	535	-1.031	0.098	-0.245	-0.3437748	-12.891555	10.026765	9.09284346	-75.85390962	19.80142848
5.36	536	-1.026	0.101	-0.243	0.5156622	-9.167328	9.9121734	8.77771656	-75.96277164	20.13374412
5.37	537	-1.021	0.101	-0.233	1.0313244	-6.016059	9.2819196	8.46831924	-76.0315266	20.46605976
5.38	538	-1.015	0.1	-0.218	2.0626488	-3.0939732	7.9068204	8.1932994	-76.07736324	20.7697275
5.39	539	-1.009	0.09	-0.213	2.578311	-1.3750992	6.1306506	7.98703452	-76.09455198	21.01036986
5.4	540	-1.005	0.084	-0.201	2.6929026	-0.4583664	4.7555514	7.45991316	-76.15184778	21.56040954
5.41	541	-1	0.078	-0.202	2.2345362	0.286479	3.4950438	7.34532156	-76.15757736	21.70364904
5.42	542	-0.998	0.084	-0.201	2.2345362	0.9167328	2.4064236	7.26510744	-76.1461182	21.81251106
5.43	543	-0.989	0.085	-0.205	2.005353	2.005353	1.3178034	7.2192708	-76.12892946	21.88126602
5.44	544	-0.985	0.091	-0.207	1.8334656	3.2658606	0	7.21354122	-76.10028156	21.89845476
5.45	545	-0.988	0.094	-0.198	3.437748	4.4117766	-1.5469866	6.99581718	-76.08309282	22.1448267
5.46	546	-0.988	0.086	-0.192	3.6096354	4.8128472	-2.7501984	7.11613836	-76.03725618	22.06461258
5.47	547	-0.993	0.082	-0.195	3.3231564	4.6409598	-3.3804522	7.25364828	-75.98568996	21.95002098
5.48	548	-0.997	0.067	-0.202	3.8961144	4.4117766	-3.8388186	7.4198061	-75.93412374	21.82397022
5.49	549	-1	0.056	-0.21	4.2398892	4.297185	-4.1252976	7.60315266	-75.8882871	21.68073072
5.5	550	-1.001	0.048	-0.216	5.3285094	5.0420304	-4.4117766	7.67190762	-75.84818004	21.6578124
5.51	551	-1.002	0.041	-0.219	6.3598338	6.4171296	-4.3544808	7.86671334	-75.7736955	21.52030248
5.52	552	-1	0.037	-0.222	7.7922288	7.3911582	-4.1825934	8.06151906	-75.69921096	21.3999813
5.53	553	-0.997	0.028	-0.23	7.6776372	8.3651868	-4.010706	8.23913604	-75.60753768	21.29684886
5.54	554	-0.997	0.023	-0.243	7.6203414	8.7662574	-3.5523396	8.3938347	-75.5158644	21.21090516
5.55	555	-0.992	0.013	-0.241	7.8495246	9.3965112	-3.2658606	8.4797784	-75.42419112	21.20517558
5.56	556	-0.985	0.007	-0.252	7.6776372	9.9121734	-3.0366774	8.60582916	-75.32105868	21.15360936
5.57	557	-0.98	0	-0.257	7.5630456	10.5424272	-2.9220858	8.72615034	-75.21219666	21.10777272
5.58	558	-0.978	-0.003	-0.264	7.161975	11.3445684	-2.7501984	8.8235532	-75.09760506	21.07912482
5.59	559	-0.972	-0.003	-0.271	6.4744254	11.9175264	-2.7501984	8.91522648	-74.9715543	21.0562065
5.6	560	-0.964	0	-0.274	6.4171296	12.7196676	-2.9220858	8.94960396	-74.83977396	21.07912482
5.61	561	-0.952	-0.006	-0.277	5.9587632	13.3499214	-3.0939732	9.03554766	-74.70226404	21.0562065
5.62	562	-0.942	-0.012	-0.29	4.6982556	12.7196676	-2.9220858	9.09857304	-74.57621328	21.03328818
5.63	563	-0.934	-0.017	-0.293	3.6096354	12.1467096	-2.7501984	9.15586884	-74.45016252	21.01036986
5.64	564	-0.926	-0.016	-0.294	2.578311	11.5737516	-2.6929026	9.20170548	-74.33557092	20.98745154
5.65	565	-0.92	-0.015	-0.3	2.1199446	10.5424272	-2.4064236	9.16159842	-74.20379058	21.04474734
5.66	566	-0.917	-0.012	-0.302	1.8907614	8.9381448	-2.2345362	9.20170548	-74.1121173	21.02182902
5.67	567	-0.912	-0.012	-0.309	1.0886202	7.6776372	-2.1772404	9.23608296	-74.03763276	20.9989107
5.68	568	-0.905	-0.012	-0.319	1.0313244	6.1879464	-2.005353	9.27619002	-73.97460738	20.96453322
5.69	569	-0.901	-0.016	-0.328	0.4583664	4.4690724	-2.005353	9.31629708	-73.92304116	20.92442616
5.7	570	-0.899	-0.022	-0.328	0.286479	3.0366774	-1.8907614	9.1959759	-73.7969904	21.03328818
5.71	571	-0.898	-0.023	-0.331	-0.3437748	1.7761698	-1.6042824	9.23608296	-73.77980166	20.98745154
5.72	572	-0.903	-0.022	-0.332	-0.4583664	0.572958	-1.0313244	9.26473086	-73.7683425	20.95307406
5.73	573	-0.91	-0.013	-0.329	-0.3437748	-0.5156622	-0.4583664	9.27619002	-73.77407208	20.93588532
5.74	574	-0.918	-0.003	-0.316	0.2291832	-2.005353	0.1145916	9.28764918	-73.7969904	20.92442616
5.75	575	-0.923	0.001	-0.319	-0.1718874	-3.2085648	0.4583664	8.98398144	-73.75115376	21.21090516
5.76	576	-0.93	0.008	-0.327	-0.572958	-4.1252976	0.6875496	8.97825186	-73.79126082	21.21090516
5.77	577	-0.938	0.012	-0.322	-0.286479	-4.8128472	0.8021412	8.97825186	-73.83709746	21.21090516
5.78	578	-0.944	0.021	-0.312	0.572958	-5.0420304	0.5156622	9.00117018	-73.88866368	21.19371642
5.79	579	-0.941	0.02	-0.305	1.3750992	-5.2139178	0.4583664	9.02981808	-73.9402299	21.17652768
5.8	580	-0.946	0.022	-0.302	1.6615782	-5.5576926	0.572958	8.84647152	-73.97460738	21.36560382
5.81	581	-0.953	0.02	-0.299	1.8334656	-5.6149884	0.9167328	8.86938984	-74.03190318	21.36560382
5.82	582	-0.958	0.024	-0.294	1.6615782	-5.6149884	1.2032118	8.880849	-74.08919898	21.3713334
5.83	583	-0.96	0.027	-0.287	1.9480572	-5.2712136	1.145916	8.89803774	-74.1407652	21.37706298
5.84	584	-0.96	0.032	-0.283	2.4064236	-4.6409598	1.0313244	8.91522648	-74.18660184	21.38279256
5.85	585	-0.962	0.035	-0.278	2.6356068	-4.2398892	0.859437	8.6803137	-74.23243848	21.63489408
5.86	586	-0.961	0.038	-0.271	3.151269	-4.2398892	0.6302538	8.72042076	-74.27254554	21.63489408
5.87	587	-0.958	0.037	-0.264	3.0366774	-4.297185	0.286479	8.7662574	-74.3126526	21.61197576
5.88	588	-0.96	0.035	-0.265	3.2085648	-4.5263682	0.1145916	8.8235532	-74.35848924	21.58905744
5.89	589	-0.964	0.033	-0.26	3.4950438	-4.5263682	0	8.89230816	-74.40432588	21.55467996
5.9	590	-0.966	0.033	-0.259	3.4950438	-4.2398892	-0.1718874	8.7376095	-74.45016252	21.73802652
5.91	591	-0.968	0.027	-0.26	3.437748	-4.1825934	-0.2291832	8.80636446	-74.49026958	21.70364904
5.92	592	-0.975	0.025	-0.263	3.0366774	-3.5523396	-0.4010706	8.880849	-74.52464706	21.6578124
5.93	593	-0.981	0.026	-0.261	3.0366774	-3.151269	-0.8021412	8.96106312	-74.55329496	21.60624618
5.94	594	-0.979	0.03	-0.253	2.9793816	-2.5210152	-1.2032118	9.0527364	-74.57621328	21.5432208
5.95	595	-0.974	0.031	-0.249	3.437748	-1.8907614	-1.3178034	8.88657858	-74.61059076	21.73802652
5.96	596	-0.969	0.024	-0.252	3.8388186	-2.005353	-1.432395	8.98971102	-74.6277795	21.66927156
5.97	597	-0.967	0.023	-0.258	3.7815228	-1.9480572	-1.6615782	9.10430262	-74.64496824	21.58905744
5.98	598	-0.966	0.019	-0.255	5.2712136	-1.2032118	-2.2345362	9.24754212	-74.65069782	21.49738416
5.99	599	-0.97	0.008	-0.264	5.156622	-0.7448454	-2.7501984	9.40224078	-74.6564274	21.38852214
6	600	-0.979	0.001	-0.269	5.0993262	-0.6302538	-2.8074942	9.43088868	-74.6564274	21.40571088
6.01	601	-0.985	-0.004	-0.258	4.7555514	0	-2.578311	9.57412818	-74.65069782	21.30830802
6.02	602	-0.983	-0.004	-0.26	3.724227	0.4583664	-2.1199446	9.6829902	-74.63923866	21.23382348
6.03	603	-0.975	0.004	-0.259	3.6669312	0.9167328	-1.6615782	9.78039306	-74.6277795	21.17652768
6.04	604	-0.967	0.004	-0.252	3.4950438	1.432395	-1.4896908	9.86060718	-74.61059076	21.12496146
6.05	605	-0.966	0.004	-0.256	3.151269	1.718874	-1.3178034	9.71736768	-74.5991316	21.29111928
6.06	606	-0.97	0.002	-0.263	2.6929026	2.005353	-1.145916	9.77466348	-74.57621328	21.26247138
6.07	607	-0.976	0.003	-0.265	2.3491278	2.1772404	-0.859437	9.81477054	-74.55329496	21.24528264
6.08	608	-0.976	0.005	-0.266	2.1772404	2.6929026	-0.6302538	9.83768886	-74.52464706	21.23955306
6.09	609	-0.974	0.007	-0.27	1.7761698	3.3804522	-0.572958	9.8548776	-74.49026958	21.24528264
6.1	610	-0.969	0.012	-0.271	1.4896908	3.8388186	-0.572958	9.60850566	-74.45016252	21.49738416
6.11	611	-0.962	0.011	-0.273	1.2605076	4.3544808	-0.7448454	9.61423524	-74.41005546	21.49738416
6.12	612	-0.955	0.007	-0.274	0.9167328	4.2398892	-0.8021412	9.6256944	-74.36421882	21.49738416
6.13	613	-0.949	0.001	-0.274	0.9167328	3.8388186	-0.7448454	9.63715356	-74.32411176	21.49738416
6.14	614	-0.947	0	-0.276	0.8021412	3.3804522	-0.572958	9.64288314	-74.28973428	21.49738416
6.15	615	-0.948	-0.001	-0.282	1.0313244	2.9793816	-0.3437748	9.31629708	-74.2267089	21.82397022
6.16	616	-0.949	0.001	-0.288	1.145916	2.5210152	-0.0572958	9.3105675	-74.20379058	21.84115896
6.17	617	-0.949	0.006	-0.285	0.859437	2.3491278	-0.2291832	9.31629708	-74.18087226	21.84688854
6.18	618	-0.949	0.01	-0.282	1.0886202	2.6356068	-0.4583664	9.32775624	-74.15222436	21.84688854
6.19	619	-0.947	0.01	-0.282	1.3178034	2.8074942	-0.6302538	9.34494498	-74.12357646	21.84115896
6.2	620	-0.945	0.01	-0.284	1.432395	2.5210152	-0.4583664	9.01835892	-74.07201024	22.16201544
6.21	621	-0.943	0.008	-0.286	1.4896908	1.6615782	-0.286479	9.03554766	-74.0548215	22.16201544
6.22	622	-0.943	0.007	-0.284	1.3178034	0.9167328	-0.2291832	9.0527364	-74.04336234	22.16201544
6.23	623	-0.948	0.007	-0.287	1.0886202	0.9167328	-0.1145916	9.05846598	-74.03763276	22.16201544
6.24	624	-0.953	0.01	-0.289	1.432395	1.0886202	0	9.06992514	-74.0261736	22.16774502
6.25	625	-0.953	0.013	-0.286	1.3178034	1.3178034	-0.1718874	8.48550798	-73.9688778	22.74070302
6.26	626	-0.947	0.018	-0.292	0.9740286	1.432395	-0.3437748	8.49696714	-73.95741864	22.73497344
6.27	627	-0.946	0.017	-0.29	1.4896908	1.145916	-0.4583664	8.51988546	-73.94595948	22.72924386
6.28	628	-0.949	0.01	-0.289	1.145916	0.859437	-0.572958	8.54853336	-73.93450032	22.71205512
6.29	629	-0.952	0.012	-0.293	1.3750992	0.1718874	-0.6302538	8.58291084	-73.92877074	22.6891368
6.3	630	-0.953	0.013	-0.287	1.5469866	-0.1145916	-0.6302538	8.04433032	-73.90012284	23.22198774
6.31	631	-0.954	0.015	-0.29	0.9740286	-0.286479	-0.6875496	8.0787078	-73.90585242	23.19333984
6.32	632	-0.955	0.016	-0.289	1.0886202	0	-0.8021412	8.11881486	-73.90585242	23.16469194
6.33	633	-0.956	0.014	-0.291	0.6875496	0	-0.9167328	8.15892192	-73.90012284	23.13031446
6.34	634	-0.955	0.018	-0.289	1.0886202	0	-1.0886202	8.21048814	-73.90012284	23.0902074
6.35	635	-0.949	0.017	-0.285	0.859437	-0.1145916	-1.2605076	7.56877518	-73.86001578	23.70327246
6.36	636	-0.95	0.018	-0.289	0.572958	-0.4583664	-1.432395	7.62607098	-73.86001578	23.65170624
6.37	637	-0.952	0.016	-0.287	0.859437	-0.6302538	-1.432395	7.68909636	-73.86574536	23.59441044
6.38	638	-0.952	0.012	-0.287	0.859437	-0.7448454	-1.3750992	7.75212174	-73.87147494	23.54284422
6.39	639	-0.951	0.008	-0.283	1.0313244	-0.7448454	-1.3750992	7.81514712	-73.87720452	23.48554842
6.4	640	-0.952	0.008	-0.283	0.7448454	-0.8021412	-1.3178034	7.43699484	-73.86001578	23.85224154
6.41	641	-0.954	0.012	-0.281	1.2605076	-0.6875496	-1.3178034	7.50002022	-73.86574536	23.80067532
6.42	642	-0.954	0.011	-0.281	1.2032118	-0.5156622	-1.3750992	7.5630456	-73.86574536	23.74337952
6.43	643	-0.951	0.011	-0.28	1.2605076	-0.4583664	-1.432395	7.63180056	-73.87147494	23.68608372
6.44	644	-0.953	0.008	-0.276	1.3178034	-0.6875496	-1.432395	7.70055552	-73.87720452	23.6345175
6.45	645	-0.955	0.007	-0.277	1.2605076	-0.572958	-1.3750992	7.39688778	-73.87720452	23.93245566
6.46	646	-0.958	0.006	-0.276	1.2605076	-0.286479	-1.2032118	7.45418358	-73.87720452	23.88661902
6.47	647	-0.963	0.005	-0.275	1.0313244	-0.1718874	-0.859437	7.49429064	-73.87720452	23.85224154
6.48	648	-0.967	0.004	-0.275	0.8021412	0.1145916	-0.6875496	7.52866812	-73.87720452	23.82359364
6.49	649	-0.968	0.006	-0.28	0.3437748	0.4010706	-0.859437	7.5630456	-73.87147494	23.79494574
6.5	650	-0.964	0.011	-0.282	0.4010706	0.3437748	-1.2032118	7.05311298	-73.86574536	24.28768962
6.51	651	-0.962	0.007	-0.278	0.2291832	0.286479	-1.432395	7.1046792	-73.86001578	24.2361234
6.52	652	-0.958	0.003	-0.279	-0.1718874	-0.0572958	-1.5469866	7.15624542	-73.86001578	24.1788276
6.53	653	-0.955	0.002	-0.278	-0.4010706	-0.1718874	-1.432395	7.20208206	-73.86001578	24.12726138
6.54	654	-0.953	0.001	-0.274	-0.4583664	-0.286479	-1.2605076	7.24218912	-73.86001578	24.07569516
6.55	655	-0.957	0.001	-0.271	-0.286479	-0.2291832	-1.2032118	6.74944524	-73.86001578	24.54552072
6.56	656	-0.962	0	-0.274	-0.2291832	-0.1718874	-1.0313244	6.78382272	-73.86001578	24.50541366
6.57	657	-0.965	0	-0.273	-0.1718874	0	-0.9167328	6.81247062	-73.86001578	24.47103618
6.58	658	-0.96	0.001	-0.272	-0.1718874	0	-0.7448454	6.83538894	-73.86001578	24.44238828
6.59	659	-0.955	0.003	-0.273	-0.286479	-0.1145916	-0.7448454	6.85830726	-73.86001578	24.41374038
6.6	660	-0.953	0.003	-0.278	-0.1718874	-0.1145916	-0.6875496	6.12492102	-73.8256383	25.11847872
6.61	661	-0.954	0.004	-0.28	-0.1145916	0	-0.6875496	6.14783934	-73.8256383	25.08983082
6.62	662	-0.956	0.008	-0.281	0	0.4010706	-0.6302538	6.16502808	-73.81990872	25.07264208
6.63	663	-0.958	0.01	-0.283	0	0.6302538	-0.572958	6.18221682	-73.81417914	25.05545334
6.64	664	-0.958	0.015	-0.279	0.2291832	0.5156622	-0.6302538	6.20513514	-73.80844956	25.03253502
6.65	665	-0.957	0.014	-0.281	-0.0572958	0.4583664	-0.8021412	5.63217714	-73.77407208	25.5825747
6.66	666	-0.958	0.016	-0.286	0.1718874	0.4583664	-1.0313244	5.66655462	-73.7683425	25.54819722
6.67	667	-0.955	0.014	-0.278	1.145916	0.859437	-1.3178034	5.71812084	-73.75688334	25.50236058
6.68	668	-0.953	0.012	-0.283	0.8021412	0.8021412	-1.3750992	5.76968706	-73.75115376	25.45652394
6.69	669	-0.955	0.011	-0.282	0.8021412	0.6875496	-1.3750992	5.82698286	-73.7396946	25.4106873
6.7	670	-0.955	0.009	-0.284	0.6875496	0.859437	-1.432395	5.59207008	-73.71677628	25.63414092
6.71	671	-0.954	0.009	-0.28	0.8021412	0.8021412	-1.4896908	5.64936588	-73.70531712	25.5825747
6.72	672	-0.953	0.011	-0.284	0.9167328	0.859437	-1.432395	5.70666168	-73.69385796	25.53673806
6.73	673	-0.954	0.012	-0.282	0.9167328	0.7448454	-1.4896908	5.76395748	-73.6823988	25.48517184
6.74	674	-0.956	0.013	-0.281	1.0313244	0.9740286	-1.3750992	5.8155237	-73.67666922	25.4393352
6.75	675	-0.957	0.012	-0.284	1.0886202	1.3178034	-1.2605076	5.60925882	-73.64229174	25.64560008
6.76	676	-0.952	0.014	-0.288	1.145916	1.3178034	-1.0886202	5.65509546	-73.63083258	25.61695218
6.77	677	-0.949	0.012	-0.281	1.3750992	1.4896908	-1.2605076	5.7009321	-73.61364384	25.57684512
6.78	678	-0.949	0.007	-0.285	1.432395	1.3178034	-1.2605076	5.75249832	-73.5964551	25.53673806
6.79	679	-0.951	0.002	-0.281	1.6615782	1.3178034	-1.432395	5.8155237	-73.58499594	25.49090142
6.8	680	-0.95	0	-0.285	1.432395	1.145916	-1.3750992	5.68374336	-73.55634804	25.62841134
6.81	681	-0.95	0	-0.284	1.4896908	0.859437	-1.0886202	5.73530958	-73.54488888	25.58830428
6.82	682	-0.95	0.002	-0.287	1.6615782	0.572958	-1.0886202	5.7868758	-73.5391593	25.5539268
6.83	683	-0.951	0.006	-0.285	2.1772404	0.286479	-1.0313244	5.8441716	-73.53342972	25.51954932
6.84	684	-0.954	0.007	-0.287	2.5210152	0.1718874	-1.0886202	5.90719698	-73.53342972	25.47944226
6.85	685	-0.953	0.008	-0.291	2.8074942	0.1145916	-1.145916	5.78114622	-73.5105114	25.62268176
6.86	686	-0.951	0.007	-0.293	2.9793816	-0.0572958	-1.3178034	5.85563076	-73.5105114	25.57684512
6.87	687	-0.952	0.007	-0.293	3.3804522	-0.286479	-1.432395	5.94157446	-73.5105114	25.5252789
6.88	688	-0.949	0.005	-0.291	3.724227	-0.4583664	-1.3750992	6.02751816	-73.5105114	25.47371268
6.89	689	-0.945	0	-0.292	3.6669312	-0.5156622	-1.3178034	6.11346186	-73.51624098	25.42214646
6.9	690	-0.946	-0.001	-0.291	3.724227	-0.7448454	-1.2032118	6.08481396	-73.50478182	25.47944226
6.91	691	-0.947	-0.004	-0.291	3.4950438	-1.0886202	-1.2032118	6.17075766	-73.51624098	25.43360562
6.92	692	-0.953	-0.002	-0.289	3.2085648	-1.4896908	-1.0886202	6.25097178	-73.52770014	25.3820394
6.93	693	-0.957	-0.002	-0.287	3.0939732	-1.5469866	-0.9740286	6.31972674	-73.54488888	25.34193234
6.94	694	-0.957	0	-0.285	2.9793816	-1.145916	-0.859437	6.3884817	-73.55634804	25.30755486
6.95	695	-0.954	0	-0.286	2.578311	-0.7448454	-0.6875496	6.25670136	-73.55061846	25.45652394
6.96	696	-0.952	-0.001	-0.281	2.5210152	-0.7448454	-0.4583664	6.302538	-73.55634804	25.43360562
6.97	697	-0.949	-0.002	-0.282	1.8907614	-0.859437	-0.2291832	6.33691548	-73.56207762	25.41641688
6.98	698	-0.951	0	-0.275	2.3491278	-0.9167328	-0.286479	6.37702254	-73.57353678	25.40495772
6.99	699	-0.951	0	-0.273	2.0626488	-0.859437	-0.3437748	6.41140002	-73.57926636	25.38776898
7	700	-0.95	0.004	-0.275	1.8907614	-0.9740286	-0.1718874	6.19367598	-73.59072552	25.6112226
7.01	701	-0.952	0.003	-0.278	1.8907614	-1.0886202	-0.0572958	6.22232388	-73.60218468	25.60549302
7.02	702	-0.956	0.005	-0.278	1.7761698	-1.3750992	-0.0572958	6.25097178	-73.61364384	25.59403386
7.03	703	-0.958	0.006	-0.279	1.5469866	-1.0886202	-0.1718874	6.27961968	-73.625103	25.5825747
7.04	704	-0.96	0.006	-0.279	1.4896908	-0.7448454	-0.2291832	6.30826758	-73.63656216	25.56538596
7.05	705	-0.964	0.005	-0.282	1.0886202	-0.572958	-0.1718874	5.89000824	-73.63083258	25.97791572
7.06	706	-0.967	0.005	-0.284	0.8021412	-0.1718874	-0.1718874	5.90719698	-73.63656216	25.96645656
7.07	707	-0.967	0.009	-0.282	0.6302538	0	-0.5156622	5.9301153	-73.63083258	25.94926782
7.08	708	-0.964	0.014	-0.28	0.4010706	0.0572958	-0.859437	5.96449278	-73.63083258	25.92061992
7.09	709	-0.96	0.012	-0.281	0.286479	0.2291832	-1.0886202	6.00459984	-73.625103	25.88051286
7.1	710	-0.956	0.008	-0.285	0.3437748	0	-1.2032118	5.58061092	-73.5964551	26.28731304
7.11	711	-0.953	0.007	-0.282	0.7448454	-0.1145916	-1.2605076	5.63217714	-73.60218468	26.2414764
7.12	712	-0.951	0.004	-0.276	1.0313244	-0.1718874	-1.2605076	5.68374336	-73.60218468	26.19563976
7.13	713	-0.957	0.001	-0.276	1.0313244	0	-1.2605076	5.73530958	-73.5964551	26.1555327
7.14	714	-0.963	0	-0.277	0.6875496	-0.0572958	-1.0313244	5.78114622	-73.5964551	26.11542564
7.15	715	-0.963	0.002	-0.278	1.0313244	-0.0572958	-0.9167328	5.51758554	-73.60218468	26.37898632
7.16	716	-0.957	0.003	-0.277	1.145916	0	-0.9167328	5.5576926	-73.60218468	26.34460884
7.17	717	-0.953	0.005	-0.279	1.5469866	-0.1718874	-1.0886202	5.6149884	-73.60218468	26.30450178
7.18	718	-0.951	0.002	-0.282	1.6615782	-0.2291832	-1.145916	5.6722842	-73.60218468	26.26439472
7.19	719	-0.955	0.003	-0.284	1.7761698	0	-1.0886202	5.72958	-73.60218468	26.21855808
7.2	720	-0.958	0.003	-0.284	2.0626488	0.3437748	-0.9167328	5.5576926	-73.58499594	26.40190464
7.21	721	-0.957	0.005	-0.282	2.005353	0.6302538	-0.9740286	5.60925882	-73.57926636	26.37325674
7.22	722	-0.958	0.005	-0.282	2.3491278	0.8021412	-0.9167328	5.66082504	-73.5678072	26.33887926
7.23	723	-0.958	0.004	-0.282	2.4637194	0.859437	-1.0313244	5.71812084	-73.56207762	26.30450178
7.24	724	-0.956	0.003	-0.285	2.4064236	0.8021412	-1.0886202	5.78114622	-73.55061846	26.2701243
7.25	725	-0.956	0.001	-0.285	2.4064236	0.4583664	-1.145916	5.67801378	-73.53342972	26.39044548
7.26	726	-0.954	0.001	-0.285	2.291832	0.2291832	-1.145916	5.74103916	-73.53342972	26.35033842
7.27	727	-0.956	0.002	-0.285	2.4637194	0.1718874	-1.2032118	5.80406454	-73.52770014	26.30450178
7.28	728	-0.954	0	-0.28	2.578311	0.4583664	-1.145916	5.86708992	-73.52197056	26.26439472
7.29	729	-0.952	0	-0.287	2.2345362	0.572958	-1.0886202	5.92438572	-73.51624098	26.23001724
7.3	730	-0.95	-0.001	-0.286	2.4064236	0.5156622	-1.0313244	5.83844202	-73.49332266	26.33887926
7.31	731	-0.949	-0.004	-0.289	1.7761698	0.286479	-1.0313244	5.89000824	-73.49332266	26.2987722
7.32	732	-0.949	-0.001	-0.284	1.7761698	0	-0.9167328	5.94157446	-73.48759308	26.26439472
7.33	733	-0.951	-0.002	-0.28	1.6615782	0.286479	-0.9740286	5.9874111	-73.48759308	26.23574682
7.34	734	-0.952	0	-0.283	1.7761698	0.4010706	-0.859437	6.03324774	-73.4818635	26.20136934
7.35	735	-0.95	-0.001	-0.28	1.3178034	0.6302538	-0.8021412	5.80979412	-73.45894518	26.43055254
7.36	736	-0.948	0	-0.289	0.9740286	0.4010706	-0.6302538	5.83844202	-73.4532156	26.40763422
7.37	737	-0.95	-0.002	-0.287	1.3178034	0.2291832	-0.7448454	5.87854908	-73.4532156	26.3847159
7.38	738	-0.952	-0.004	-0.289	1.0313244	0.1145916	-0.6875496	5.91292656	-73.44748602	26.36179758
7.39	739	-0.955	-0.003	-0.289	1.3178034	0	-0.6302538	5.94730404	-73.44748602	26.33314968
7.4	740	-0.954	-0.002	-0.287	1.432395	0	-0.4583664	5.67801378	-73.4245677	26.60816952
7.41	741	-0.952	0	-0.287	1.0313244	-0.0572958	-0.3437748	5.7009321	-73.4245677	26.59671036
7.42	742	-0.951	0	-0.288	0.8021412	0	-0.286479	5.71812084	-73.4245677	26.5852512
7.43	743	-0.953	0.001	-0.286	0.9740286	0.2291832	-0.3437748	5.74103916	-73.41883812	26.57379204
7.44	744	-0.952	0	-0.29	0.6875496	0.4583664	-0.4010706	5.7582279	-73.41310854	26.56233288
7.45	745	-0.953	0.001	-0.292	0.5156622	0.6302538	-0.572958	5.43737142	-73.37873106	26.8717302
7.46	746	-0.955	0.001	-0.288	0.6875496	0.6302538	-0.6302538	5.46601932	-73.3672719	26.84881188
7.47	747	-0.954	0.001	-0.286	0.6875496	0.572958	-0.8021412	5.5003968	-73.36154232	26.82016398
7.48	748	-0.952	0.001	-0.285	0.8021412	0	-0.7448454	5.5290447	-73.36154232	26.79724566
7.49	749	-0.952	0	-0.287	0.572958	-0.4583664	-0.572958	5.5576926	-73.3672719	26.77432734
7.5	750	-0.956	0.002	-0.29	0.6875496	-0.8021412	-0.572958	5.31132066	-73.35581274	27.02069928
7.51	751	-0.958	0.003	-0.29	0.572958	-0.9167328	-0.8021412	5.34569814	-73.36154232	26.9863218
7.52	752	-0.957	0.004	-0.289	0.6875496	-0.572958	-0.9167328	5.39153478	-73.3672719	26.95194432
7.53	753	-0.959	0.002	-0.285	0.9740286	-0.1718874	-0.9167328	5.43164184	-73.3672719	26.91756684
7.54	754	-0.955	0.004	-0.282	0.572958	0	-0.9167328	5.46601932	-73.3672719	26.88318936
7.55	755	-0.953	0.007	-0.287	0.5156622	-0.0572958	-0.9167328	5.16808116	-73.35581274	27.17539794
7.56	756	-0.948	0.006	-0.281	1.0313244	-0.1145916	-0.9167328	5.20818822	-73.35581274	27.14102046
7.57	757	-0.946	0.005	-0.286	0.9167328	-0.1718874	-0.9167328	5.25402486	-73.36154232	27.10664298
7.58	758	-0.947	0	-0.281	0.8021412	-0.4583664	-0.859437	5.29413192	-73.36154232	27.0722655
7.59	759	-0.95	-0.002	-0.282	0.572958	-0.4010706	-0.6875496	5.32277982	-73.3672719	27.0436176
7.6	760	-0.954	-0.001	-0.285	0.8021412	-0.572958	-0.6302538	5.0993262	-73.36154232	27.26707122
7.61	761	-0.956	0	-0.285	0.7448454	-0.572958	-0.572958	5.1279741	-73.3672719	27.2441529
7.62	762	-0.955	0.002	-0.286	0.4010706	-0.3437748	-0.5156622	5.15089242	-73.3672719	27.22696416
7.63	763	-0.957	0.002	-0.282	0.572958	-0.1145916	-0.6302538	5.17954032	-73.3672719	27.20404584
7.64	764	-0.955	0.003	-0.285	0.286479	0	-0.859437	5.20818822	-73.3672719	27.17539794
7.65	765	-0.956	0.003	-0.282	0.4010706	0.0572958	-0.859437	4.88733174	-73.3672719	27.47906568
7.66	766	-0.956	0.002	-0.282	0.5156622	0.0572958	-0.8021412	4.92170922	-73.3672719	27.45041778
7.67	767	-0.959	-0.003	-0.285	0.0572958	-0.0572958	-0.8021412	4.95035712	-73.3672719	27.42176988
7.68	768	-0.962	-0.002	-0.285	-0.1718874	-0.1145916	-0.9167328	4.9847346	-73.3672719	27.3873924
7.69	769	-0.964	0	-0.288	-0.572958	-0.1145916	-1.0313244	5.0133825	-73.3672719	27.35301492
7.7	770	-0.963	0.004	-0.285	-0.5156622	0	-1.2032118	4.73263308	-73.3672719	27.60511644
7.71	771	-0.957	0.005	-0.284	-0.4583664	0.286479	-1.3178034	4.77274014	-73.36154232	27.5592798
7.72	772	-0.948	0.002	-0.284	-0.286479	0.2291832	-1.2032118	4.80711762	-73.35581274	27.51917274
7.73	773	-0.946	-0.002	-0.281	-0.2291832	0	-1.145916	4.84722468	-73.35581274	27.47906568
7.74	774	-0.948	-0.006	-0.28	-0.1718874	-0.2291832	-1.0313244	4.88160216	-73.36154232	27.43895862
7.75	775	-0.955	-0.008	-0.279	0	-0.286479	-0.859437	4.62377106	-73.37300148	27.68533056
7.76	776	-0.957	-0.008	-0.278	-0.1145916	-0.2291832	-0.572958	4.6409598	-73.37300148	27.66241224
7.77	777	-0.956	-0.004	-0.282	-0.1718874	-0.2291832	-0.3437748	4.65241896	-73.37300148	27.65095308
7.78	778	-0.953	-0.001	-0.279	-0.0572958	0	-0.4010706	4.66387812	-73.37300148	27.63376434
7.79	779	-0.949	0	-0.282	-0.1145916	0	-0.286479	4.67533728	-73.37300148	27.62230518
7.8	780	-0.948	0	-0.281	-0.286479	-0.1145916	-0.286479	4.17686382	-73.338624	28.09786032
