TimeStamp(s)	FrameCounter	AccX	AccY	AccZ	GyrX	GyrY	GyrZ	EulerX	EulerY	EulerZ
0.01	1	-0.016	-1.006	0.041	-1.6042824	-0.6875496	0	90.6706035	-0.57868758	-53.92107738
0.02	2	-0.018	-1.001	0.039	-4.0680018	-1.7761698	0.2291832	90.63049644	-0.57868758	-53.93826612
0.03	3	-0.017	-1.003	0.038	-4.2398892	-1.6042824	0.1718874	90.5846598	-0.58441716	-53.95545486
0.04	4	-0.016	-1.003	0.037	-4.297185	-1.4896908	0.286479	90.53882316	-0.58441716	-53.9726436
0.05	5	-0.015	-1.003	0.037	-4.297185	-1.6615782	0.4583664	90.50444568	-0.59014674	-53.98983234
0.06	6	-0.014	-1.004	0.038	-4.4690724	-2.0626488	0.6875496	90.45860904	-0.59587632	-54.01275066
0.07	7	-0.013	-1.002	0.036	-4.8128472	-2.005353	0.7448454	90.40704282	-0.60733548	-54.0299394
0.08	8	-0.012	-1.002	0.034	-4.9274388	-1.8907614	0.572958	90.36120618	-0.61306506	-54.05285772
0.09	9	-0.011	-1.004	0.034	-4.870143	-1.718874	0.286479	90.30963996	-0.61306506	-54.07004646
0.1	10	-0.015	-1.007	0.036	-4.6409598	-1.432395	0.1145916	90.2695329	-0.61306506	-54.08150562
0.11	11	-0.016	-1.01	0.035	-4.583664	-1.2032118	0.1145916	90.22369626	-0.61306506	-54.09296478
0.12	12	-0.018	-1.012	0.038	-4.583664	-1.0886202	0	90.17785962	-0.61879464	-54.10442394
0.13	13	-0.02	-1.01	0.039	-4.8128472	-0.4010706	-0.1145916	90.1262934	-0.61306506	-54.11015352
0.14	14	-0.021	-1.008	0.04	-4.9274388	0.1718874	-0.4010706	90.07472718	-0.61306506	-54.11015352
0.15	15	-0.019	-1.011	0.043	-4.6409598	1.145916	-0.6875496	90.0403497	-0.60733548	-54.09869436
0.16	16	-0.019	-1.014	0.043	-4.9274388	1.7761698	-0.9167328	89.98878348	-0.6016059	-54.08150562
0.17	17	-0.016	-1.013	0.044	-5.5576926	2.3491278	-0.859437	89.93148768	-0.59014674	-54.0585873
0.18	18	-0.009	-1.011	0.041	-6.1879464	2.86479	-1.0313244	89.8684623	-0.58441716	-54.0299394
0.19	19	-0.002	-1.008	0.039	-6.5317212	3.151269	-1.0886202	89.79970734	-0.572958	-53.99556192
0.2	20	0.003	-1.004	0.035	-6.7609044	3.151269	-1.145916	89.73668196	-0.55576926	-53.96691402
0.21	21	0.008	-1.002	0.036	-6.7036086	2.8074942	-1.0313244	89.667927	-0.5443101	-53.93826612
0.22	22	0.009	-1	0.042	-6.2452422	2.4637194	-0.6875496	89.60490162	-0.53858052	-53.9153478
0.23	23	0.01	-0.999	0.041	-6.2452422	2.005353	-0.4010706	89.54187624	-0.53858052	-53.89815906
0.24	24	0.011	-1	0.045	-6.4744254	1.718874	-0.4010706	89.47312128	-0.53285094	-53.88097032
0.25	25	0.014	-1.005	0.043	-6.8182002	1.7761698	-0.5156622	89.41582548	-0.5156622	-53.86378158
0.26	26	0.015	-1.01	0.038	-7.161975	1.718874	-0.8021412	89.34134094	-0.50993262	-53.84659284
0.27	27	0.013	-1.014	0.034	-7.6776372	1.9480572	-1.145916	89.2668564	-0.49847346	-53.8294041
0.28	28	0.007	-1.015	0.03	-7.9641162	2.578311	-1.3750992	89.1809127	-0.4870143	-53.8007562
0.29	29	0	-1.014	0.026	-8.0787078	3.3804522	-1.718874	89.10069858	-0.46982556	-53.76637872
0.3	30	-0.006	-1.011	0.025	-8.021412	4.4117766	-1.8907614	89.02048446	-0.45263682	-53.72627166
0.31	31	-0.01	-1.006	0.022	-8.4797784	5.6149884	-1.718874	88.93454076	-0.43544808	-53.66897586
0.32	32	-0.008	-1.001	0.023	-8.4797784	6.1879464	-1.6042824	88.84859706	-0.41825934	-53.61168006
0.33	33	-0.001	-0.999	0.024	-8.3651868	6.6463128	-1.432395	88.76265336	-0.40680018	-53.5429251
0.34	34	0.005	-0.999	0.023	-8.2505952	7.0473834	-1.3750992	88.67670966	-0.38961144	-53.47417014
0.35	35	0.007	-0.998	0.024	-8.1932994	7.3911582	-1.3750992	88.59649554	-0.3724227	-53.40541518
0.36	36	0.005	-0.997	0.025	-8.1360036	7.8495246	-1.2605076	88.51055184	-0.36096354	-53.32520106
0.37	37	0.004	-0.994	0.026	-8.1360036	8.59437	-1.3750992	88.43033772	-0.34950438	-53.24498694
0.38	38	0.004	-0.993	0.025	-8.2505952	9.2819196	-1.6615782	88.34439402	-0.33231564	-53.15331366
0.39	39	0.002	-0.991	0.028	-8.4224826	9.9694692	-1.8334656	88.25272074	-0.3151269	-53.0559108
0.4	40	0.003	-0.992	0.025	-8.3651868	10.6570188	-1.9480572	88.17250662	-0.29220858	-52.95277836
0.41	41	0.002	-0.993	0.021	-8.307891	11.2299768	-1.8907614	88.08656292	-0.27501984	-52.83818676
0.42	42	0.001	-0.991	0.017	-8.3651868	11.5737516	-1.7761698	88.00061922	-0.2578311	-52.72932474
0.43	43	-0.001	-0.99	0.018	-8.1932994	11.5164558	-1.4896908	87.91467552	-0.24064236	-52.61473314
0.44	44	0	-0.992	0.02	-8.021412	11.1153852	-1.2032118	87.8344614	-0.2291832	-52.50587112
0.45	45	0.007	-0.994	0.016	-8.021412	10.3705398	-1.2605076	87.75424728	-0.21199446	-52.40273868
0.46	46	0.014	-0.99	0.009	-8.307891	9.2246238	-1.432395	87.66830358	-0.19480572	-52.3110654
0.47	47	0.018	-0.978	0	-9.3965112	7.6776372	-2.2345362	87.57090072	-0.1718874	-52.23658086
0.48	48	0.016	-0.965	-0.011	-10.2559482	6.4744254	-3.437748	87.46776828	-0.13750992	-52.17928506
0.49	49	0.007	-0.948	-0.024	-10.7716104	5.5576926	-4.9847346	87.35890626	-0.09167328	-52.12771884
0.5	50	-0.01	-0.934	-0.031	-11.1153852	4.6409598	-6.6463128	87.24431466	-0.0286479	-52.0818822
0.51	51	-0.026	-0.929	-0.035	-10.8289062	3.6669312	-8.2505952	87.12972306	0.05156622	-52.0532343
0.52	52	-0.042	-0.937	-0.029	-10.7716104	2.4064236	-9.5111028	87.02086104	0.1432395	-52.03604556
0.53	53	-0.053	-0.965	-0.017	-11.5164558	0.0572958	-10.1986524	86.90626944	0.24637194	-52.04177514
0.54	54	-0.049	-1.016	-0.017	-13.9801752	-3.0939732	-10.1986524	86.76302994	0.3437748	-52.07615262
0.55	55	-0.023	-1.065	-0.033	-19.9389384	-7.0473834	-9.453807	86.55676506	0.43544808	-52.15636674
0.56	56	0.014	-1.1	-0.053	-22.8610242	-10.1986524	-8.4797784	86.32758186	0.50993262	-52.26522876
0.57	57	0.05	-1.115	-0.062	-22.9756158	-14.4958374	-7.161975	86.09266908	0.572958	-52.41419784
0.58	58	0.073	-1.104	-0.053	-19.7097552	-18.8503182	-5.443101	85.89213378	0.61879464	-52.60327398
0.59	59	0.06	-1.072	-0.033	-13.8082878	-20.9702628	-4.010706	85.75462386	0.64744254	-52.81526844
0.6	60	0.032	-1.031	-0.007	-7.448454	-21.1421502	-2.9793816	85.6858689	0.67036086	-53.0272629
0.61	61	-0.012	-0.99	0.02	-3.2085648	-20.6837838	-2.2345362	85.657221	0.68182002	-53.23352778
0.62	62	-0.062	-0.961	0.05	-1.8907614	-19.1367972	-2.0626488	85.63430268	0.69327918	-53.42260392
0.63	63	-0.1	-0.956	0.074	-2.1199446	-16.3865988	-2.6929026	85.61711394	0.71046792	-53.58876174
0.64	64	-0.109	-0.978	0.096	-3.8961144	-13.5791046	-3.4950438	85.57700688	0.73911582	-53.72627166
0.65	65	-0.108	-1.013	0.104	-6.2452422	-10.3705398	-3.9534102	85.54835898	0.7448454	-53.82367452
0.66	66	-0.093	-1.039	0.099	-8.1932994	-8.0787078	-3.2658606	85.46241528	0.7734933	-53.90388864
0.67	67	-0.078	-1.055	0.099	-7.9641162	-6.9900876	-1.6615782	85.38220116	0.78495246	-53.97837318
0.68	68	-0.064	-1.068	0.108	-5.72958	-5.3285094	0.8021412	85.32490536	0.7734933	-54.0299394
0.69	69	-0.053	-1.094	0.11	-4.8128472	-3.151269	4.1252976	85.27906872	0.73338624	-54.0585873
0.7	70	-0.034	-1.11	0.105	-5.5003968	-1.7761698	8.4797784	85.2561504	0.63598338	-54.06431688
0.71	71	-0.014	-1.097	0.097	-6.3598338	-1.3178034	12.7769634	85.18739544	0.50993262	-54.06431688
0.72	72	-0.003	-1.064	0.089	-5.5576926	-1.0313244	15.469866	85.13582922	0.35523396	-54.06431688
0.73	73	0	-1.023	0.082	-4.1252976	-0.286479	17.0168526	85.08999258	0.18907614	-54.05285772
0.74	74	0.004	-0.984	0.072	-3.2085648	0.4010706	17.761698	85.06134468	0.01145916	-54.03566898
0.75	75	0.002	-0.949	0.071	-3.2085648	0.572958	17.3033316	85.0556151	-0.15469866	-54.01275066
0.76	76	0.005	-0.929	0.071	-3.8388186	0.0572958	16.042824	85.01550804	-0.3151269	-53.99556192
0.77	77	0.005	-0.918	0.068	-5.72958	-0.4583664	14.7250206	84.95821224	-0.4583664	-53.98983234
0.78	78	0	-0.922	0.065	-7.6776372	-0.9167328	13.3499214	84.87799812	-0.59587632	-53.98983234
0.79	79	-0.011	-0.927	0.062	-9.453807	-1.3750992	11.8602306	84.78632484	-0.71046792	-53.99556192
0.8	80	-0.024	-0.934	0.06	-9.5683986	-2.0626488	10.599723	84.7118403	-0.82505952	-54.0012915
0.81	81	-0.039	-0.938	0.065	-8.880849	-2.6356068	9.9694692	84.6258966	-0.92819196	-54.01848024
0.82	82	-0.052	-0.945	0.071	-7.8495246	-2.578311	9.5683986	84.54568248	-1.01986524	-54.03566898
0.83	83	-0.062	-0.945	0.076	-7.1046792	-2.1772404	9.2819196	84.47119794	-1.1172681	-54.05285772
0.84	84	-0.07	-0.943	0.081	-6.3598338	-1.3178034	8.9954406	84.40817256	-1.20894138	-54.0585873
0.85	85	-0.076	-0.941	0.088	-5.5576926	-0.6302538	8.880849	84.40244298	-1.3178034	-54.04712814
0.86	86	-0.084	-0.947	0.099	-5.0993262	0.1145916	8.7662574	84.35087676	-1.4037471	-54.03566898
0.87	87	-0.086	-0.951	0.108	-5.72958	2.1772404	8.3651868	84.29358096	-1.48396122	-54.00702108
0.88	88	-0.087	-0.955	0.112	-7.161975	4.7555514	7.5057498	84.21909642	-1.55844576	-53.95545486
0.89	89	-0.084	-0.955	0.107	-8.4224826	7.734933	6.3598338	84.12742314	-1.61574156	-53.86951116
0.9	90	-0.077	-0.959	0.096	-8.880849	9.8548776	5.3858052	84.07012734	-1.67303736	-53.76637872
0.91	91	-0.07	-0.96	0.097	-8.3651868	12.1467096	4.4117766	83.97845406	-1.70741484	-53.64032796
0.92	92	-0.069	-0.961	0.101	-7.3911582	14.32395	3.5523396	83.89823994	-1.73033316	-53.49708846
0.93	93	-0.078	-0.963	0.102	-6.3598338	15.5844576	3.151269	83.8237554	-1.75325148	-53.3423898
0.94	94	-0.088	-0.971	0.107	-5.5003968	16.6730778	3.0366774	83.76073002	-1.77044022	-53.1705024
0.95	95	-0.1	-0.981	0.11	-5.2139178	18.2773602	3.151269	83.7378117	-1.79908812	-52.98142626
0.96	96	-0.105	-0.995	0.111	-5.6722842	19.767051	3.5523396	83.66905674	-1.82200644	-52.78662054
0.97	97	-0.106	-1.02	0.111	-8.2505952	21.7151082	4.4117766	83.57738346	-1.84492476	-52.5688965
0.98	98	-0.099	-1.041	0.107	-11.2872726	23.491278	5.5576926	83.4513327	-1.88503182	-52.32825414
0.99	99	-0.087	-1.052	0.1	-12.5477802	25.0955604	6.1879464	83.31382278	-1.92513888	-52.07615262
1	100	-0.084	-1.067	0.089	-12.7196676	26.5279554	6.589017	83.18777202	-1.97097552	-51.80686236
1.01	101	-0.084	-1.08	0.076	-12.4331886	26.8717302	7.5057498	83.0502621	-2.02254174	-51.53184252
1.02	102	-0.098	-1.098	0.075	-11.6310474	25.496631	8.4797784	82.91848176	-2.08556712	-51.27401142
1.03	103	-0.099	-1.114	0.087	-10.4278356	22.91832	9.0527364	82.79816058	-2.15432208	-51.03909864
1.04	104	-0.08	-1.131	0.097	-9.7975818	19.5378678	9.2246238	82.68929856	-2.22307704	-50.83283376
1.05	105	-0.062	-1.137	0.102	-10.2559482	16.2720072	8.1932994	82.60335486	-2.291832	-50.66094636
1.06	106	-0.045	-1.135	0.111	-10.8289062	14.037471	6.016059	82.48303368	-2.33766864	-50.51770686
1.07	107	-0.03	-1.135	0.11	-9.453807	13.2353298	3.4950438	82.37990124	-2.36058696	-50.38592652
1.08	108	-0.028	-1.134	0.118	-6.4744254	13.0061466	1.0313244	82.3054167	-2.36058696	-50.25414618
1.09	109	-0.036	-1.124	0.145	-1.718874	13.8082878	-0.8021412	82.28249838	-2.33766864	-50.12236584
1.1	110	-0.073	-1.117	0.157	4.297185	14.6677248	-2.0626488	82.35698292	-2.30329116	-49.97339676
1.11	111	-0.12	-1.22	0.022	5.443101	17.5898106	-1.2032118	82.40281956	-2.27464326	-49.80150936
1.12	112	-0.065	-1.445	0.11	-4.583664	13.178034	6.6463128	82.34552376	-2.32620948	-49.66399944
1.13	113	0.06	-1.517	0.107	-2.6356068	-2.5210152	15.2979786	82.32260544	-2.48090814	-49.66972902
1.14	114	0.059	-1.365	-0.08	0.5156622	-10.6570188	18.621135	82.3340646	-2.67571386	-49.74994314
1.15	115	0.022	-1.36	0.012	15.5844576	-10.313244	24.5798982	82.50022242	-2.9220858	-49.8186981
1.16	116	-0.006	-1.283	0.034	26.2987722	-10.5424272	26.5279554	82.77524226	-3.19137606	-49.88745306
1.17	117	-0.045	-1.19	-0.072	28.2468294	-11.2299768	23.4339822	83.06745084	-3.43201842	-49.96766718
1.18	118	-0.114	-1.179	-0.069	27.501984	-9.5111028	18.2773602	83.35392984	-3.62109456	-50.03642214
1.19	119	-0.175	-1.123	-0.077	21.199446	-12.7196676	10.313244	83.57738346	-3.72995658	-50.14528416
1.2	120	-0.219	-1.048	-0.183	24.350715	-5.9587632	1.2605076	83.81229624	-3.77006364	-50.20257996
1.21	121	-0.244	-0.979	-0.225	32.085648	5.443101	-6.875496	84.13315272	-3.68984952	-50.15101374
1.22	122	-0.253	-0.932	-0.215	34.7212548	13.9801752	-14.2093584	84.47692752	-3.54088044	-50.02496298
1.23	123	-0.261	-0.907	-0.207	30.8251404	17.0168526	-19.8816426	84.77486568	-3.32888598	-49.87026432
1.24	124	-0.246	-0.871	-0.244	26.5279554	16.9595568	-21.9442914	85.03269678	-3.09970278	-49.71556566
1.25	125	-0.211	-0.808	-0.257	25.5539268	21.2567418	-20.2827132	85.26760956	-2.8934379	-49.52075994
1.26	126	-0.146	-0.761	-0.276	24.7517856	29.507337	-16.615782	85.49679276	-2.71009134	-49.24001052
1.27	127	-0.11	-0.741	-0.261	20.3973048	36.1536498	-12.0894138	85.6858689	-2.57258142	-48.89050614
1.28	128	-0.094	-0.744	-0.194	12.4331886	34.8931422	-7.5630456	85.78900134	-2.48090814	-48.54673134
1.29	129	-0.068	-0.775	-0.175	2.2345362	31.9710564	-2.8074942	85.79473092	-2.4350715	-48.23160444
1.3	130	0.002	-0.813	-0.17	-6.9900876	29.7365202	1.2605076	85.69159848	-2.42934192	-47.93939586
1.31	131	0.081	-0.875	-0.185	-13.9801752	27.6165756	5.5003968	85.53689982	-2.46944898	-47.66437602
1.32	132	0.135	-0.94	-0.205	-17.4179232	22.6891368	9.8548776	85.34782368	-2.55539268	-47.43519282
1.33	133	0.154	-1.003	-0.191	-16.6730778	15.6990492	12.9488508	85.1702067	-2.68144344	-47.27476458
1.34	134	0.121	-1.048	-0.166	-13.6936962	9.3965112	12.7196676	85.02123762	-2.80176462	-47.17163214
1.35	135	0.052	-1.048	-0.144	-8.59437	4.3544808	8.7662574	84.9123756	-2.86479	-47.1257955
1.36	136	-0.03	-1.028	-0.126	-4.6409598	1.8907614	3.3231564	84.86080938	-2.8934379	-47.10287718
1.37	137	-0.095	-1.008	-0.109	-2.6929026	0.859437	-2.6929026	84.83216148	-2.87051958	-47.0971476
1.38	138	-0.121	-0.99	-0.086	-0.4010706	0.7448454	-8.9381448	84.83216148	-2.7788463	-47.0971476
1.39	139	-0.11	-0.98	-0.063	1.8334656	0.8021412	-14.4958374	84.84935022	-2.6356068	-47.10287718
1.4	140	-0.081	-0.966	-0.046	2.578311	0.4583664	-18.7357266	84.8837277	-2.45798982	-47.11433634
1.41	141	-0.057	-0.957	-0.026	1.6615782	-0.1145916	-21.485925	84.90091644	-2.24026578	-47.13152508
1.42	142	-0.031	-0.953	-0.008	-0.4010706	-0.4583664	-23.0329116	84.89518686	-2.01681216	-47.1544434
1.43	143	-0.016	-0.95	-0.009	-3.2085648	-0.4583664	-23.4339822	84.86080938	-1.78189938	-47.1830913
1.44	144	-0.013	-0.94	-0.015	-4.5263682	-0.1718874	-22.631841	84.81497274	-1.55844576	-47.20028004
1.45	145	-0.012	-0.931	-0.002	-4.5263682	0	-21.4286292	84.78632484	-1.3464513	-47.22319836
1.46	146	-0.008	-0.928	0.009	-4.010706	-0.4010706	-20.2254174	84.74621778	-1.145916	-47.2403871
1.47	147	0.001	-0.931	0.016	-4.4690724	-1.718874	-19.3086846	84.70038114	-0.95683986	-47.28049416
1.48	148	0.009	-0.923	0.019	-5.7868758	-4.010706	-18.5638392	84.64308534	-0.7734933	-47.33778996
1.49	149	0.013	-0.903	0.02	-7.0473834	-7.1046792	-17.4179232	84.5686008	-0.60733548	-47.42373366
1.5	150	0.018	-0.871	0.028	-6.4744254	-9.6829902	-16.329303	84.52276416	-0.45263682	-47.53259568
1.51	151	0.02	-0.854	0.044	-4.583664	-11.9748222	-16.042824	84.47692752	-0.29793816	-47.66437602
1.52	152	0.029	-0.847	0.063	-3.3804522	-13.178034	-16.2720072	84.44255004	-0.14896908	-47.8133451
1.53	153	0.03	-0.847	0.07	-2.6929026	-14.6677248	-16.9595568	84.41963172	0.00572958	-47.97377334
1.54	154	0.03	-0.84	0.075	-0.572958	-15.6417534	-17.8762896	84.41390214	0.1718874	-48.14566074
1.55	155	0.035	-0.839	0.079	1.8334656	-16.042824	-18.048177	84.44827962	0.3437748	-48.31754814
1.56	156	0.035	-0.839	0.077	3.4950438	-16.2147114	-17.4179232	84.48838668	0.50420304	-48.49516512
1.57	157	0.039	-0.846	0.079	5.2139178	-16.3865988	-16.5011904	84.5399529	0.6589017	-48.66705252
1.58	158	0.032	-0.863	0.081	6.8182002	-16.7876694	-15.6990492	84.60870786	0.8021412	-48.85039908
1.59	159	0.022	-0.883	0.093	8.3651868	-17.7044022	-14.6677248	84.69465156	0.93392154	-49.03374564
1.6	160	0.007	-0.905	0.106	8.9381448	-18.621135	-13.6364004	84.80924316	1.0599723	-49.22855136
1.61	161	-0.003	-0.929	0.115	9.3392154	-19.0222056	-12.5477802	84.90091644	1.16883432	-49.42335708
1.62	162	-0.014	-0.959	0.123	8.6516658	-18.6784308	-11.2872726	84.98686014	1.27196676	-49.6181628
1.63	163	-0.005	-0.989	0.126	6.302538	-17.0168526	-10.0840608	85.04988552	1.36364004	-49.79577978
1.64	164	0.016	-1.028	0.105	2.5210152	-15.0687954	-9.1100322	85.07280384	1.44385416	-49.95047844
1.65	165	0.035	-1.068	0.08	-2.1199446	-13.8082878	-8.4797784	85.07280384	1.52406828	-50.08798836
1.66	166	0.054	-1.12	0.046	-4.1252976	-13.1207382	-7.5630456	85.03269678	1.59282324	-50.22549828
1.67	167	0.072	-1.162	0.03	-3.5523396	-14.1520626	-6.9327918	84.99258972	1.65011904	-50.37446736
1.68	168	0.071	-1.189	0.04	-1.7761698	-15.5844576	-6.7036086	84.9696714	1.70741484	-50.5348956
1.69	169	0.069	-1.209	0.09	0.9167328	-18.048177	-6.875496	84.97540098	1.76471064	-50.71824216
1.7	170	0.078	-1.228	0.14	3.0366774	-21.6005166	-6.875496	85.02123762	1.82773602	-50.9359662
1.71	171	0.101	-1.246	0.193	3.7815228	-25.9549974	-6.9900876	85.0556151	1.87930224	-51.1937973
1.72	172	0.119	-1.262	0.24	4.870143	-32.0283522	-6.2452422	85.09572216	1.92513888	-51.51465378
1.73	173	0.133	-1.279	0.275	6.2452422	-38.2735944	-4.8128472	85.15301796	1.95378678	-51.89853564
1.74	174	0.156	-1.295	0.301	7.734933	-42.0551172	-2.9793816	85.22177292	1.95951636	-52.31679498
1.75	175	0.175	-1.321	0.302	9.453807	-45.8939358	-1.8334656	85.32490536	1.95951636	-52.7694318
1.76	176	0.173	-1.357	0.256	10.4278356	-46.8106686	-3.0366774	85.41657864	1.96524594	-53.23352778
1.77	177	0.144	-1.38	0.187	10.5424272	-44.0604702	-5.3858052	85.51971108	1.99389384	-53.66897586
1.78	178	0.065	-1.371	0.006	16.1574156	-45.9512316	-9.2819196	85.66868016	2.06837838	-54.12734226
1.79	179	-0.063	-1.379	-0.078	32.0283522	-60.6189564	-13.178034	85.98380706	2.17151082	-54.73467774
1.8	180	-0.139	-1.389	0.116	34.2628884	-60.6189564	-15.0114996	86.32185228	2.29756158	-55.33628364
1.81	181	-0.15	-1.383	-0.023	26.8717302	-45.7220484	-15.5844576	86.57968338	2.44080108	-55.79465004
1.82	182	-0.194	-1.359	-0.309	31.4553942	-42.2270046	-14.9542038	86.88335112	2.578311	-56.21863896
1.83	183	-0.178	-1.27	-0.419	34.091001	-43.3729206	-11.2299768	87.21566676	2.68144344	-56.64835746
1.84	184	-0.138	-1.126	-0.415	31.0543236	-41.0237928	-8.1932994	87.5193345	2.76165756	-57.05515764
1.85	185	-0.151	-0.981	-0.46	23.3193906	-39.0757356	-6.3598338	87.70268106	2.8074942	-57.45049866
1.86	186	-0.148	-0.87	-0.538	21.3140376	-37.4714532	-4.2398892	87.90321636	2.84760126	-57.82292136
1.87	187	-0.08	-0.793	-0.475	18.3919518	-31.3980984	-1.9480572	88.08083334	2.86479	-58.13231868
1.88	188	0	-0.74	-0.448	10.5424272	-26.1268848	0.0572958	88.1782362	2.86479	-58.39014978
1.89	189	0.041	-0.694	-0.43	3.2658606	-24.7517856	0.6302538	88.20115452	2.85333084	-58.63079214
1.9	190	0.094	-0.684	-0.351	-3.2658606	-22.1161788	0.6302538	88.11521082	2.85906042	-58.86570492
1.91	191	0.129	-0.708	-0.305	-11.8029348	-19.480572	1.3750992	87.98916006	2.84187168	-59.05478106
1.92	192	0.12	-0.744	-0.295	-15.5271618	-20.1681216	1.8334656	87.82300224	2.82468294	-59.25531636
1.93	193	0.098	-0.789	-0.256	-17.18874	-20.626488	2.9220858	87.63965568	2.79030546	-59.46158124
1.94	194	0.066	-0.846	-0.213	-19.194093	-20.05353	5.3285094	87.43912038	2.73300966	-59.66211654
1.95	195	0.028	-0.929	-0.191	-21.3140376	-18.7357266	9.5683986	87.19847802	2.62414764	-59.85119268
1.96	196	-0.03	-1.007	-0.186	-21.1421502	-18.334656	13.9801752	86.9750244	2.48090814	-60.02880966
1.97	197	-0.067	-1.074	-0.142	-19.9962342	-17.3606274	17.9908812	86.76875952	2.29756158	-60.1892379
1.98	198	-0.109	-1.107	-0.079	-17.18874	-14.610429	20.5118964	86.59114254	2.08556712	-60.32674782
1.99	199	-0.114	-1.084	-0.027	-14.9542038	-11.4018642	21.0848544	86.43644388	1.87357266	-60.42988026
2	200	-0.12	-1.035	0.003	-15.6417534	-7.7922288	19.8243468	86.2874748	1.65011904	-60.49290564
2.01	201	-0.119	-0.974	0.007	-17.7044022	-4.6409598	18.2773602	86.10985782	1.46677248	-60.52728312
2.02	202	-0.095	-0.93	0.011	-18.8503182	-3.8961144	16.6730778	85.9150521	1.29488508	-60.5616606
2.03	203	-0.065	-0.914	0.022	-19.4232762	-3.0939732	15.9282324	85.72024638	1.13445684	-60.57884934
2.04	204	-0.046	-0.913	0.031	-20.626488	-2.291832	16.4438946	85.50825192	0.96829902	-60.59603808
2.05	205	-0.022	-0.909	0.029	-21.5432208	-2.1199446	17.761698	85.30198704	0.78495246	-60.60176766
2.06	206	-0.009	-0.899	0.025	-21.1421502	-2.1199446	19.5951636	85.08999258	0.59014674	-60.60749724
2.07	207	-0.004	-0.893	0.011	-19.9389384	-1.7761698	21.5432208	84.88945728	0.3724227	-60.61322682
2.08	208	-0.009	-0.875	0.005	-17.8189938	-0.4010706	23.0329116	84.70611072	0.1432395	-60.59603808
2.09	209	-0.017	-0.871	0	-15.3552744	1.3750992	24.1788276	84.55141206	-0.09167328	-60.5616606
2.1	210	-0.024	-0.861	0.007	-13.2353298	2.8074942	24.4653066	84.4253613	-0.33804522	-60.51009438
2.11	211	-0.041	-0.862	0.007	-12.605076	4.8128472	24.2934192	84.29931054	-0.572958	-60.44133942
2.12	212	-0.054	-0.865	0	-12.3758928	6.0733548	23.6631654	84.1675302	-0.80787078	-60.3611253
2.13	213	-0.063	-0.862	0	-12.1467096	7.448454	22.5745452	84.04147944	-1.02559482	-60.26372244
2.14	214	-0.072	-0.859	0.002	-10.5424272	9.3965112	21.2567418	83.93261742	-1.22613012	-60.15486042
2.15	215	-0.077	-0.861	0.016	-7.734933	11.8602306	20.1108258	83.86386246	-1.42666542	-60.01162092
2.16	216	-0.085	-0.861	0.033	-7.2765666	14.3812458	18.7357266	83.78364834	-1.59855282	-59.85119268
2.17	217	-0.091	-0.864	0.035	-6.875496	16.1001198	17.18874	83.7091638	-1.75898106	-59.6735757
2.18	218	-0.089	-0.876	0.033	-6.0733548	16.9595568	15.6417534	83.64040884	-1.90222056	-59.49022914
2.19	219	-0.084	-0.879	0.019	-4.4690724	17.9908812	14.2093584	83.58311304	-2.02827132	-59.301153
2.2	220	-0.082	-0.878	0.029	-0.859437	20.1681216	12.8342592	83.58311304	-2.14286292	-59.08342896
2.21	221	-0.087	-0.883	0.049	3.2085648	22.9756158	11.45916	83.60603136	-2.24026578	-58.8427866
2.22	222	-0.096	-0.882	0.064	6.6463128	24.923673	9.740286	83.65759758	-2.31475032	-58.59068508
2.23	223	-0.093	-0.88	0.084	10.5424272	27.215505	7.7922288	83.74927086	-2.36631654	-58.30993566
2.24	224	-0.092	-0.879	0.102	12.891555	28.2468294	6.4171296	83.86959204	-2.4064236	-58.02345666
2.25	225	-0.093	-0.878	0.129	14.7823164	29.8511118	5.5003968	84.03002028	-2.44653066	-57.71978892
2.26	226	-0.093	-0.879	0.174	15.9282324	32.7731976	4.9274388	84.17325978	-2.46944898	-57.38747328
2.27	227	-0.099	-0.899	0.215	15.756345	35.6952834	4.7555514	84.3107697	-2.48663772	-57.02650974
2.28	228	-0.117	-0.941	0.221	13.0634424	36.8411994	4.9274388	84.4253613	-2.50955604	-56.65981662
2.29	229	-0.131	-0.994	0.221	9.453807	36.5547204	5.5576926	84.49984584	-2.53820394	-56.2931235
2.3	230	-0.122	-1.069	0.203	5.3858052	36.2109456	6.7036086	84.56287122	-2.58977016	-55.92643038
2.31	231	-0.082	-1.118	0.182	0.9167328	33.0023808	8.021412	84.55714164	-2.64706596	-55.58838516
2.32	232	-0.027	-1.148	0.185	0	29.0489706	9.2246238	84.5399529	-2.7215505	-55.29617658
2.33	233	0.038	-1.152	0.191	-0.4583664	24.1788276	9.9121734	84.51703458	-2.80176462	-55.04980464
2.34	234	0.083	-1.127	0.207	-0.1718874	18.5065434	9.7975818	84.50557542	-2.88770832	-54.85499892
2.35	235	0.102	-1.085	0.226	2.6929026	14.1520626	8.6516658	84.58578954	-2.93354496	-54.70602984
2.36	236	0.099	-1.072	0.227	5.156622	11.0580894	7.2192708	84.63162618	-2.99657034	-54.59143824
2.37	237	0.074	-1.078	0.222	8.4797784	7.6203414	6.5317212	84.7118403	-3.05386614	-54.50549454
2.38	238	0.019	-1.127	0.23	11.9175264	2.005353	6.1879464	84.83216148	-3.11116194	-54.48257622
2.39	239	-0.027	-1.219	0.215	7.448454	-4.870143	5.443101	84.9123756	-3.16845774	-54.52268328
2.4	240	-0.057	-1.331	0.126	-0.859437	-9.3965112	5.7868758	84.91810518	-3.23148312	-54.60862698
2.41	241	-0.072	-1.438	-0.037	-11.9748222	-15.183387	8.021412	84.80351358	-3.3231564	-54.75759606
2.42	242	-0.04	-1.507	-0.202	-16.8449652	-22.2880662	12.4331886	84.64881492	-3.46066632	-54.96386094
2.43	243	0.026	-1.531	-0.356	-13.178034	-26.8717302	18.7930224	84.53422332	-3.6669312	-55.21596246
2.44	244	0.084	-1.527	-0.454	-3.151269	-29.6792244	25.496631	84.52276416	-3.93622146	-55.48525272
2.45	245	0.145	-1.523	-0.481	-0.3437748	-36.5547204	33.2888598	84.54568248	-4.28572584	-55.81756836
2.46	246	0.204	-1.42	-0.534	2.0626488	-41.7686382	40.680018	84.60297828	-4.71544434	-56.19572064
2.47	247	0.138	-1.203	-0.575	15.5844576	-42.112413	43.544808	84.797784	-5.17381074	-56.57387292
2.48	248	0.007	-1.015	-0.525	25.0955604	-39.4768062	41.1383844	85.09572216	-5.60352924	-56.9233773
2.49	249	-0.12	-0.874	-0.463	23.0902074	-40.4508348	35.236917	85.370742	-5.97022236	-57.2958
2.5	250	-0.215	-0.802	-0.459	16.7303736	-38.5600734	27.3873924	85.5426294	-6.2738901	-57.65676354
2.51	251	-0.296	-0.778	-0.422	10.8289062	-34.7212548	19.194093	85.69732806	-6.48015498	-57.9833496
2.52	252	-0.36	-0.781	-0.338	3.8388186	-33.7472262	12.2613012	85.77754218	-6.6176649	-58.30993566
2.53	253	-0.405	-0.817	-0.289	-4.4117766	-32.1429438	7.5630456	85.7718126	-6.70933818	-58.62506256
2.54	254	-0.387	-0.863	-0.261	-12.9488508	-29.5646328	5.443101	85.68013932	-6.77809314	-58.91727114
2.55	255	-0.322	-0.916	-0.232	-19.7097552	-26.2414764	5.3858052	85.49106318	-6.86976642	-59.17510224
2.56	256	-0.238	-0.955	-0.215	-23.491278	-24.2934192	5.3285094	85.2847983	-6.9327918	-59.4157446
2.57	257	-0.145	-0.982	-0.194	-24.4080108	-23.2620948	4.010706	85.06707426	-6.9900876	-59.6449278
2.58	258	-0.059	-1.003	-0.165	-23.6631654	-23.2620948	1.2605076	84.86080938	-7.0187355	-59.87984058
2.59	259	0.017	-1.015	-0.139	-21.5432208	-24.350715	-1.2605076	84.67173324	-7.02446508	-60.12621252
2.6	260	0.073	-1.002	-0.113	-19.4232762	-26.7571386	-3.6669312	84.511305	-6.97862844	-60.40123236
2.61	261	0.091	-0.981	-0.084	-17.5898106	-30.4240698	-6.1306506	84.37379508	-6.93852138	-60.71062968
2.62	262	0.091	-0.962	-0.062	-17.475219	-33.6326346	-8.8235532	84.24201474	-6.875496	-61.05440448
2.63	263	0.093	-0.951	-0.049	-18.621135	-37.7006364	-11.5737516	84.09877524	-6.7895523	-61.44401592
2.64	264	0.093	-0.947	-0.051	-20.5118964	-41.3102718	-14.1520626	83.94980616	-6.68641986	-61.86800484
2.65	265	0.081	-0.939	-0.043	-22.5172494	-44.5761324	-16.5011904	83.78364834	-6.54318036	-62.33210082
2.66	266	0.067	-0.931	-0.041	-24.5798982	-47.4982182	-18.7930224	83.5945722	-6.39994086	-62.8248447
2.67	267	0.05	-0.919	-0.037	-25.5539268	-49.560867	-21.199446	83.39976648	-6.23378304	-63.34623648
2.68	268	0.037	-0.903	-0.032	-26.1841806	-51.1651494	-22.91832	83.1935016	-6.05616606	-63.87908742
2.69	269	0.023	-0.886	-0.024	-26.929026	-52.3110654	-24.2934192	82.98723672	-5.86708992	-64.4291271
2.7	270	0.01	-0.869	-0.015	-26.9863218	-51.852699	-24.923673	82.77524226	-5.66655462	-64.9734372
2.71	271	-0.02	-0.862	-0.011	-25.1528562	-50.5348956	-24.8090814	82.58043654	-5.4717489	-65.51201772
2.72	272	-0.036	-0.859	-0.007	-22.4026578	-48.8160216	-24.4080108	82.40854914	-5.28267276	-66.02767992
2.73	273	-0.048	-0.857	0.001	-20.8556712	-46.7533728	-23.3766864	82.24239132	-5.10505578	-66.5204238
2.74	274	-0.063	-0.846	0.005	-16.615782	-45.9512316	-22.8037284	82.12207014	-4.93316838	-67.0074381
2.75	275	-0.04	-0.84	0.023	-13.0061466	-47.3263308	-22.2307704	82.05331518	-4.76128098	-67.50591156
2.76	276	0.019	-0.834	0.032	-10.7143146	-49.847346	-20.9702628	81.9902898	-4.6123119	-68.02157376
2.77	277	0.082	-0.824	0.037	-9.2246238	-53.0559108	-18.9649098	81.95018274	-4.48053156	-68.57161344
2.78	278	0.134	-0.823	0.051	-7.6203414	-58.441716	-16.4438946	81.92153484	-4.38885828	-69.17321934
2.79	279	0.193	-0.832	0.056	-5.2712136	-66.463128	-13.1207382	81.932994	-4.33156248	-69.84930978
2.8	280	0.244	-0.842	0.057	-3.3804522	-73.911582	-10.9434978	81.97310106	-4.27999626	-70.59415518
2.81	281	0.279	-0.843	0.106	-0.5156622	-83.1362058	-9.5111028	82.04185602	-4.27999626	-71.42494428
2.82	282	0.292	-0.855	0.156	1.2032118	-92.1889422	-8.880849	82.1335293	-4.29145542	-72.34167708
2.83	283	0.303	-0.864	0.17	1.432395	-99.4655088	-8.59437	82.23666174	-4.31437374	-73.338624
2.84	284	0.29	-0.847	0.196	1.7761698	-106.7993712	-7.2765666	82.35125334	-4.3544808	-74.3985963
2.85	285	0.237	-0.851	0.183	-0.9740286	-116.023995	-6.875496	82.46011536	-4.38885828	-75.55024188
2.86	286	0.173	-0.86	0.181	-6.1879464	-127.0247886	-8.307891	82.51168158	-4.4404245	-76.81647906
2.87	287	0.127	-0.9	0.219	-10.886202	-126.910197	-11.9175264	82.51741116	-4.45188366	-78.08271624
2.88	288	0.08	-0.957	0.154	-17.6471064	-119.5763346	-14.2666542	82.44292662	-4.43469492	-79.28592804
2.89	289	0.029	-0.947	0.096	-24.1215318	-112.6435428	-15.3552744	82.29968712	-4.40031744	-80.4146553
2.9	290	-0.003	-0.924	0.011	-23.3193906	-103.4762148	-15.9282324	82.1621772	-4.3544808	-81.45743886
2.91	291	0.003	-0.918	-0.078	-20.626488	-97.0590852	-15.0114996	82.04185602	-4.31437374	-82.43719704
2.92	292	0.01	-0.902	-0.167	-20.912967	-94.7099574	-11.6883432	81.91007568	-4.30291458	-83.38830732
2.93	293	0.01	-0.852	-0.208	-21.8296998	-96.3715356	-6.8182002	81.77256576	-4.34875122	-84.35087676
2.94	294	0	-0.792	-0.19	-21.3713334	-100.1530584	-1.8334656	81.646515	-4.44615408	-85.3420941
2.95	295	-0.015	-0.736	-0.163	-24.7517856	-102.6740736	2.9220858	81.48608676	-4.59512316	-86.35050018
2.96	296	-0.034	-0.717	-0.14	-28.9916748	-100.4395374	4.3544808	81.28555146	-4.76701056	-87.33598794
2.97	297	-0.001	-0.727	-0.12	-32.8877892	-96.0850566	3.5523396	81.0449091	-4.92170922	-88.28136864
2.98	298	0	-0.754	-0.142	-35.6379876	-90.7565472	1.2605076	80.76988926	-5.05348956	-89.17518312
2.99	299	0.021	-0.776	-0.175	-35.1223254	-86.516658	-1.3178034	80.500599	-5.16235158	-90.02889054
3	300	0.079	-0.752	-0.175	-31.9710564	-85.657221	-2.9220858	80.25995664	-5.2425657	-90.88259796
3.01	301	0.157	-0.713	-0.152	-25.8404058	-87.7198698	-1.9480572	80.09379882	-5.35142772	-91.74776454
3.02	302	0.225	-0.663	-0.114	-18.4492476	-91.2149136	1.3178034	80.00212554	-5.5003968	-92.6473086
3.03	303	0.272	-0.631	-0.048	-10.4851314	-95.2256196	6.6463128	79.99639596	-5.7009321	-93.56977098
3.04	304	0.297	-0.621	0.03	-10.313244	-99.2936214	10.7143146	80.00212554	-5.95303362	-94.53234042
3.05	305	0.295	-0.631	0.077	-15.756345	-106.570188	14.8396122	79.97347764	-6.23378304	-95.55220566
3.06	306	0.278	-0.638	0.065	-24.5798982	-115.737516	19.0222056	79.86461562	-6.589017	-96.66374418
3.07	307	0.261	-0.637	0.004	-34.2628884	-124.5610692	23.6058696	79.67553948	-7.00727634	-97.84976724
3.08	308	0.227	-0.591	-0.055	-42.112413	-130.4625366	28.5333084	79.42343796	-7.48856106	-99.08735652
3.09	309	0.178	-0.542	-0.059	-46.8106686	-134.4159468	32.6013102	79.13695896	-8.02714158	-100.3593233
3.1	310	0.118	-0.499	-0.057	-50.5348956	-135.3326796	34.663959	78.82756164	-8.58291084	-101.63129
3.11	311	0.052	-0.466	-0.057	-51.6808116	-138.4839486	35.2942128	78.5238939	-9.16159842	-102.9319047
3.12	312	0.02	-0.453	-0.05	-50.3057124	-141.234147	33.6326346	78.24887406	-9.740286	-104.2611673
3.13	313	0.027	-0.419	-0.054	-47.6128098	-143.0103168	30.7105488	78.02542044	-10.29605526	-105.6190777
3.14	314	0.057	-0.34	-0.045	-44.4615408	-146.2761774	27.7311672	77.84780346	-10.8289062	-107.0113657
3.15	315	0.106	-0.249	0.002	-37.7006364	-154.9278432	26.2987722	77.77331892	-11.36175714	-108.4953269
3.16	316	0.146	-0.177	0.075	-31.226211	-166.15782	25.4393352	77.80196682	-11.9175264	-110.0881501
3.17	317	0.17	-0.15	0.144	-31.1689152	-174.9240774	25.5539268	77.8649922	-12.48475482	-111.7783762
3.18	318	0.167	-0.113	0.201	-37.4714532	-182.2579398	26.5852512	77.89936968	-13.07490156	-113.5430869
3.19	319	0.145	-0.057	0.192	-44.1750618	-187.2426744	26.5279554	77.89936968	-13.67650746	-115.3593637
3.2	320	0.068	-0.002	0.176	-43.3156248	-186.21135	28.7051958	77.93374716	-14.2953021	-117.1756406
3.21	321	-0.051	0.008	0.208	-33.804522	-186.4405332	32.8304934	78.07125708	-14.94847422	-118.9804583
3.22	322	-0.095	0.004	0.232	-27.8457588	-186.4405332	37.6433406	78.28898112	-15.64748298	-120.785276
3.23	323	-0.103	0.019	0.278	-28.4187168	-181.914165	42.7426668	78.51243474	-16.38086922	-122.544257
3.24	324	-0.106	0.039	0.315	-30.7678446	-175.5543312	46.9252602	78.71297004	-17.1314442	-124.2402127
3.25	325	-0.111	-0.013	0.24	-36.7839036	-166.6734822	49.3316838	78.85620954	-17.89920792	-125.8502247
3.26	326	-0.065	-0.094	0.073	-48.9306132	-148.7398968	53.5142772	78.82756164	-18.67270122	-127.2768901
3.27	327	-0.055	-0.18	-0.171	-62.7961968	-125.0767314	63.4837464	78.59264886	-19.50349032	-128.4399949
3.28	328	-0.015	-0.166	-0.304	-64.9734372	-110.9819646	77.5785132	78.28898112	-20.4546006	-129.4369418
3.29	329	-0.04	-0.118	-0.412	-57.9833496	-110.4090066	90.3554766	78.05979792	-21.53176164	-130.3995112
3.3	330	-0.078	-0.007	-0.551	-47.8992888	-121.2379128	105.710751	77.96239506	-22.78653966	-131.4365652
3.31	331	-0.056	0.144	-0.563	-35.236917	-140.8330764	121.4098002	78.11709372	-24.21893466	-132.6684249
3.32	332	0.012	0.318	-0.408	-16.4438946	-169.3663848	138.7704276	78.61556718	-25.86332412	-134.1867636
3.33	333	0.019	0.368	-0.035	9.5111028	-195.2640864	157.276971	79.5552183	-27.71397846	-135.9915813
3.34	334	-0.034	0.245	0.139	21.9442914	-209.1869658	178.8774876	80.76988926	-29.75943852	-137.9797456
3.35	335	-0.084	-0.004	0.21	38.101707	-217.8959274	190.5658308	82.3054167	-31.8851127	-140.1512564
3.36	336	-0.208	-0.287	0.285	50.420304	-226.3757058	198.3580596	84.15034146	-34.03943478	-142.5347617
3.37	337	-0.734	-0.609	0.332	41.8832298	-234.7981884	207.5826834	86.12131698	-36.22240476	-145.1531797
3.38	338	-1.44	-1.07	0.289	18.3919518	-227.6362134	210.9631356	87.9777009	-38.36526768	-147.8518119
3.39	339	-2.162	-1.405	0.325	7.8495246	-219.9585762	216.5208282	89.84554398	-40.49667144	-150.619199
3.4	340	-2.895	-1.661	0.473	20.6837838	-217.0364904	227.6362134	92.02851396	-42.66245268	-153.5412848
3.41	341	-3.703	-1.639	0.537	32.5440144	-202.7698362	238.4651196	94.43493756	-44.85688182	-156.4920185
3.42	342	-3.576	-1.679	0.682	45.6074568	-187.5864492	245.0541366	97.07627394	-47.0398518	-159.4943185
3.43	343	-3.377	-1.576	0.819	36.2682414	-168.163173	264.2482296	99.73479906	-49.34314296	-162.5252663
3.44	344	-3.907	-1.729	0.739	74.0261736	-146.0469942	246.944898	102.7829356	-51.4229805	-165.476
3.45	345	-3.9	-3.888	1.026	229.4123832	-109.9506402	105.137793	106.7535346	-52.11625968	-167.5443784
3.46	346	-3.072	-2.087	0.877	84.511305	20.05353	194.6911284	108.1343633	-54.02420982	-168.1975505
3.47	347	-2.355	-0.111	1.504	-5.2712136	31.4553942	280.3483494	108.9536933	-56.76867864	-169.2517932
3.48	348	-1.665	-0.257	1.517	128.1707046	15.5271618	283.61421	111.5663818	-59.46158124	-170.7987798
3.49	349	-1.973	-0.54	0.588	240.1266978	52.4829528	290.9480724	115.1760172	-62.32064166	-172.1337719
3.5	350	-2.173	-0.463	1.651	108.575541	15.5271618	342.1705176	119.1809936	-65.40888528	-175.3652551
3.51	351	-2.455	0.198	1.242	48.9306132	2.4637194	354.2026356	123.9537337	-68.41691478	179.9947557
3.52	352	-2.199	0.551	0.308	162.6054804	-8.9954406	349.6189716	131.5167793	-71.1040878	173.7036769
3.53	353	-1.785	0.414	0.167	143.3540916	0.6302538	321.715917	140.0710423	-73.338624	166.2552229
3.54	354	-1.484	0.658	0.68	119.0606724	-12.4904844	286.0779294	149.6566296	-74.87415144	157.5577204
3.55	355	-1.478	0.5	0.924	124.618365	-39.4768062	250.2107586	160.0214398	-75.5731602	148.1554796
3.56	356	-1.545	-0.506	1.119	125.0767314	-63.1972674	222.021225	170.099771	-75.53878272	139.0798249
3.57	357	-1.153	-0.93	0.861	31.8564648	-84.1675302	216.3489408	178.7571664	-74.90852892	130.4739958
3.58	358	-0.671	-0.567	0.567	-21.2567418	-98.7779592	220.2450552	-173.8583755	-73.83136788	122.6072824
3.59	359	-0.871	-0.286	0.369	9.5683986	-108.2317662	228.2091714	-167.0573641	-72.39897288	115.6229244
3.6	360	-0.969	0.184	0.397	3.5523396	-97.40286	228.037284	-161.2991362	-70.85198628	109.612595
3.61	361	-1.015	0.556	0.252	34.8931422	-83.5372764	197.4986226	-156.7441201	-69.3852138	105.1664409
3.62	362	-0.7	1.038	0.084	53.1705024	-72.479187	166.15782	-153.1860509	-68.05022166	101.9349578
3.63	363	-0.774	1.158	0.356	110.4663024	-59.7022236	163.4649174	-149.3529619	-66.77252532	99.01287198
3.64	364	-0.815	0.812	0.308	140.8903722	-54.4883058	148.1669388	-145.7948927	-65.55212478	96.69239208
3.65	365	-0.836	0.726	0.321	128.2852962	-50.0765292	139.9736394	-142.7009195	-64.35464256	94.72714614
3.66	366	-0.879	0.744	0.465	130.7490156	-52.3110654	130.1760576	-139.9908281	-63.1686195	93.20307786
3.67	367	-0.894	0.769	0.528	131.4365652	-56.3217714	121.9254624	-137.6245116	-61.98259644	92.0457027
3.68	368	-0.897	0.665	0.406	119.0033766	-55.3477428	99.408213	-135.791046	-60.92835372	91.35242352
3.69	369	-0.877	0.735	0.369	95.2829154	-54.7747848	79.068204	-134.5248088	-60.0173505	91.0143783
3.7	370	-0.836	0.656	0.279	83.0216142	-52.6548402	57.2958	-133.6309943	-59.26104594	90.96854166
3.71	371	-0.745	0.65	0.254	69.900876	-55.9779966	40.2216516	-133.1382505	-58.60787382	91.23210234
3.72	372	-0.876	0.795	0.115	59.014674	-53.1705024	31.3980984	-132.8231236	-58.0406454	91.57587714
3.73	373	-0.707	0.639	0.173	57.868758	-57.9833496	15.3552744	-132.748639	-57.55936068	92.1889422
3.74	374	-0.473	0.638	0.153	50.8786704	-61.020027	7.0473834	-132.8517715	-57.11818302	92.93951718
3.75	375	-0.457	0.611	0.222	37.815228	-67.4371566	1.6042824	-133.1726279	-56.65408704	93.79895418
3.76	376	-0.53	0.56	0.197	37.815228	-63.02538	-4.5263682	-133.5278619	-56.27593476	94.69849824
3.77	377	-0.588	0.424	0.314	36.2109456	-58.0406454	-9.167328	-133.8773663	-55.96080786	95.5693944
3.78	378	-0.58	0.358	0.37	30.5386614	-50.420304	-10.313244	-134.2096819	-55.70297676	96.35434686
3.79	379	-0.622	0.317	0.422	20.2827132	-37.4714532	-9.0527364	-134.4847018	-55.5196302	96.9444936
3.8	380	-0.676	0.366	0.417	0.9167328	-23.491278	-5.8441716	-134.7826399	-55.38784986	97.32264588
3.81	381	-0.696	0.409	0.419	-20.05353	-14.7823164	-6.2452422	-135.2008993	-55.33055406	97.58620656
3.82	382	-0.671	0.459	0.342	-30.7105488	-8.1360036	-7.3338624	-135.6764544	-55.3190949	97.78101228
3.83	383	-0.609	0.508	0.369	-37.815228	-6.0733548	-6.589017	-136.186387	-55.3190949	97.94144052
3.84	384	-0.587	0.593	0.379	-49.9046418	-5.7868758	-1.2032118	-136.7650746	-55.27898784	98.02738422
3.85	385	-0.607	0.604	0.433	-48.8733174	-7.0473834	0.572958	-137.2979255	-55.18158498	98.08468002
3.86	386	-0.611	0.525	0.496	-46.4668938	-11.45916	1.718874	-137.865154	-55.07845254	98.19927162
3.87	387	-0.639	0.506	0.505	-41.1383844	-18.2200644	4.5263682	-138.4094641	-54.91229472	98.35969986
3.88	388	-0.662	0.547	0.53	-35.809875	-22.2307704	7.8495246	-138.9022079	-54.69457068	98.5201281
3.89	389	-0.663	0.612	0.583	-33.7472262	-22.2880662	9.5111028	-139.3491152	-54.46538748	98.65190844
3.9	390	-0.663	0.688	0.613	-33.5753388	-18.1054728	8.3651868	-139.7444562	-54.23620428	98.72639298
3.91	391	-0.741	0.729	0.607	-34.7212548	-11.745639	4.3544808	-140.156986	-54.1158831	98.8066071
3.92	392	-0.839	0.697	0.558	-34.1482968	-7.5057498	-2.6929026	-140.5981636	-54.07577604	98.9211987
3.93	393	-0.886	0.627	0.51	-30.8251404	-8.021412	-10.5424272	-141.0966371	-54.07577604	99.1503819
3.94	394	-0.893	0.592	0.489	-26.4133638	-11.6310474	-16.329303	-141.6409472	-54.0872352	99.4941567
3.95	395	-0.907	0.591	0.512	-22.631841	-15.0114996	-22.4599536	-142.2253643	-54.09869436	99.94106394
3.96	396	-0.924	0.595	0.559	-21.2567418	-15.9855282	-30.7678446	-142.9129139	-54.16171974	100.5197515
3.97	397	-0.935	0.581	0.584	-22.058883	-12.4904844	-41.7686382	-143.703596	-54.31068882	101.2244899
3.98	398	-0.921	0.562	0.587	-18.6784308	-3.8961144	-54.8320806	-144.5401147	-54.59716782	102.0209015
3.99	399	-0.93	0.526	0.589	-16.5584862	4.010706	-65.2026204	-145.4281996	-54.99823842	102.8975272
4	400	-0.922	0.463	0.606	-14.6677248	10.026765	-73.338624	-146.3621211	-55.47952314	103.8486375
4.01	401	-0.909	0.421	0.605	-13.3499214	15.0114996	-78.3806544	-147.3304201	-56.02956282	104.8570436
4.02	402	-0.902	0.384	0.571	-9.0527364	17.5898106	-81.0162612	-148.3044487	-56.60252082	105.9055567
4.03	403	-0.896	0.324	0.556	-3.0366774	21.1421502	-80.6151906	-149.2097224	-57.19266756	106.9483403
4.04	404	-0.864	0.304	0.551	-0.9740286	23.3766864	-77.635809	-150.0748889	-57.7828143	107.9567464
4.05	405	-0.877	0.355	0.529	-1.145916	23.8923486	-76.6617804	-150.9457851	-58.3557723	108.970882
4.06	406	-0.88	0.361	0.498	3.8388186	24.637194	-77.5212174	-151.8224108	-58.94018946	110.0308543
4.07	407	-0.874	0.341	0.502	12.032118	25.3247436	-78.781725	-152.6589295	-59.52460662	111.1423928
4.08	408	-0.883	0.297	0.522	17.0168526	25.7258142	-77.7504006	-153.4668003	-60.1032942	112.2711201
4.09	409	-0.903	0.236	0.571	23.3193906	27.8457588	-74.3126526	-154.1715386	-60.6762522	113.3482811
4.1	410	-0.943	0.155	0.613	27.2728008	33.4607472	-71.2759752	-154.7960629	-61.2778581	114.3681464
4.11	411	-0.989	0.175	0.623	27.215505	43.0864416	-66.749607	-155.2888067	-61.94248938	115.233313
4.12	412	-1.02	0.203	0.668	23.3193906	52.998615	-65.9474658	-155.7529027	-62.69306436	116.0182654
4.13	413	-1.079	0.328	0.651	18.048177	62.0513514	-66.5777196	-156.2456466	-63.51812388	116.7688404
4.14	414	-1.125	0.423	0.66	16.2720072	72.1354122	-67.609044	-156.7326609	-64.43485668	117.4793083
4.15	415	-1.15	0.436	0.672	23.491278	81.5892192	-67.036086	-157.0936244	-65.42607402	118.1267509
4.16	416	-1.19	0.31	0.731	29.3927454	82.505952	-67.7236356	-157.4431288	-66.44020968	118.8257596
4.17	417	-1.263	0.28	0.76	27.6165756	84.2821218	-66.5204238	-157.8155515	-67.45434534	119.5190388
4.18	418	-1.264	0.35	0.874	29.507337	93.1629708	-60.447069	-157.9874389	-68.53150638	120.0175123
4.19	419	-1.112	0.302	0.838	35.6379876	111.8414016	-60.1032942	-157.9358727	-69.77482524	120.3326392
4.2	420	-0.714	0.129	0.571	27.4446882	128.8009584	-66.5204238	-157.9702502	-71.18430192	120.6477661
4.21	421	-0.419	-0.042	0.203	0.1145916	121.0660254	-68.2965936	-158.4572645	-72.5364828	121.1405099
4.22	422	-0.337	-0.155	-0.097	-13.5218088	84.6831924	-61.8221682	-159.4255635	-73.53342972	121.9942174
4.23	423	-0.291	-0.358	-0.06	-5.156622	54.9466722	-55.0612638	-160.5714795	-74.22097932	123.1229446
4.24	424	-0.344	-0.36	-0.057	-4.9847346	63.311859	-50.3630082	-161.5512377	-74.9715543	124.0740549
4.25	425	-0.497	-0.22	-0.077	-5.6149884	75.630456	-44.117766	-162.2731648	-75.8309913	124.7501453
4.26	426	-0.688	0.022	-0.113	-4.010706	74.4272442	-35.6952834	-162.720072	-76.6331325	125.1569455
4.27	427	-0.819	0.173	-0.063	12.032118	62.9680842	-27.5592798	-162.8747707	-77.30922294	125.4319654
4.28	428	-0.88	0.12	0.019	35.9817624	48.987909	-20.5691922	-162.7028833	-77.83061472	125.6210415
4.29	429	-0.941	-0.041	0.074	60.0459984	35.0077338	-8.6516658	-161.9580379	-78.19157826	125.477802
4.3	430	-1.009	-0.178	0.131	67.9528188	24.5798982	0.6875496	-160.9496318	-78.4379502	125.1512159
4.31	431	-1.073	-0.175	0.188	58.4990118	17.8762896	4.6409598	-159.8380933	-78.59837844	124.618365
4.32	432	-1.098	-0.118	0.196	46.9252602	12.7196676	6.9327918	-158.8124984	-78.6957813	124.0568662
4.33	433	-1.062	-0.058	0.202	42.112413	9.2819196	7.6776372	-157.8556586	-78.75880668	123.5125561
4.34	434	-1.019	-0.055	0.205	41.539455	9.2246238	8.307891	-156.8644412	-78.81610248	122.9338685
4.35	435	-1.015	-0.081	0.195	38.5027776	12.3758928	10.026765	-155.8732239	-78.90204618	122.3150738
4.36	436	-1.032	-0.134	0.206	34.7785506	17.9908812	11.745639	-154.5783388	-79.01663778	121.3525044
4.37	437	-1.042	-0.155	0.241	27.9030546	24.5226024	12.4904844	-153.1344847	-79.17706602	120.1664813
4.38	438	-1.046	-0.115	0.282	14.9542038	31.2835068	14.7823164	-151.5015544	-79.3833309	118.6596018
4.39	439	-1.041	-0.059	0.296	2.1199446	37.9871154	18.1054728	-149.5936042	-79.6125141	116.7344629
4.4	440	-1.028	-0.032	0.276	-7.1046792	40.5081306	19.8816426	-147.645547	-79.8416973	114.6775437
4.41	441	-1.012	-0.032	0.233	-14.0947668	38.7892566	20.05353	-145.6172757	-80.04796218	112.4659258
4.42	442	-0.972	-0.019	0.176	-20.7410796	33.2888598	19.8816426	-143.7723509	-80.19120168	110.3746291
4.43	443	-0.933	0.021	0.121	-24.8090814	26.7571386	19.8816426	-142.1508798	-80.27714538	108.4724086
4.44	444	-0.885	0.059	0.072	-23.8923486	21.0848544	19.3659804	-140.729944	-80.31152286	106.7821825
4.45	445	-0.82	0.087	0.045	-22.5745452	15.6990492	18.5065434	-139.4866251	-80.31725244	105.2867621
4.46	446	-0.787	0.105	0.02	-20.4546006	10.8289062	17.475219	-138.5068669	-80.27714538	104.0778207
4.47	447	-0.788	0.133	0.013	-21.7151082	6.589017	16.5584862	-137.7562919	-80.20839042	103.0923329
4.48	448	-0.847	0.177	-0.005	-20.5118964	6.9327918	15.9855282	-137.0114465	-80.15109462	102.1297635
4.49	449	-0.875	0.191	-0.004	-18.334656	11.2299768	14.3812458	-136.1577391	-80.1281763	101.0640616
4.5	450	-0.875	0.196	-0.022	-13.750992	18.1054728	13.464513	-134.822747	-80.16255378	99.56864124
4.51	451	-0.909	0.201	-0.025	-9.6256944	25.0955604	14.2666542	-133.2929491	-80.22557916	97.9185222
4.52	452	-0.936	0.199	0.004	-4.1252976	28.361421	17.3033316	-131.4308356	-80.28287496	95.97619458
4.53	453	-0.969	0.194	0.035	0.6875496	29.507337	20.626488	-129.3166206	-80.30579328	93.83906124
4.54	454	-0.984	0.192	0.058	4.1825934	28.5333084	22.91832	-127.1336506	-80.29433412	91.66182084
4.55	455	-0.999	0.202	0.082	6.8182002	24.6944898	24.5226024	-125.0022469	-80.23130874	89.57052414
4.56	456	-1.012	0.221	0.1	8.59437	19.767051	25.3247436	-123.1515925	-80.1281763	87.7771656
4.57	457	-1.019	0.231	0.115	8.9381448	14.4385416	25.0382646	-121.5988763	-79.99066638	86.29320438
4.58	458	-1.035	0.25	0.138	8.4224826	9.453807	23.2620948	-120.3842054	-79.8416973	85.14728838
4.59	459	-1.034	0.272	0.147	7.6203414	6.302538	20.2254174	-119.4502838	-79.6984578	84.27639222
4.6	460	-1.033	0.295	0.157	7.7922288	4.4117766	17.0168526	-118.6997089	-79.53229998	83.58884262
4.61	461	-1.025	0.297	0.151	5.9014674	2.7501984	13.178034	-118.1668579	-79.42916754	83.11328748
4.62	462	-1.01	0.298	0.143	4.1252976	1.718874	8.880849	-117.8230831	-79.36041258	82.80389016
4.63	463	-0.996	0.294	0.137	2.5210152	0.9740286	4.1825934	-117.6454661	-79.3260351	82.6491915
4.64	464	-0.994	0.294	0.13	0.6302538	0.1145916	0.0572958	-117.6282774	-79.3260351	82.63773234
4.65	465	-1.001	0.298	0.125	-1.3750992	-0.7448454	-3.8961144	-117.5938999	-79.25155056	82.58616612
4.66	466	-1.004	0.296	0.108	-3.4950438	-1.6042824	-7.5630456	-117.8918381	-79.30884636	82.85545638
4.67	467	-1.001	0.281	0.091	-4.4690724	-2.8074942	-10.3705398	-118.3272862	-79.38906048	83.2507974
4.68	468	-0.994	0.256	0.076	-4.583664	-4.1252976	-12.1467096	-118.8830554	-79.47500418	83.7664596
4.69	469	-0.986	0.227	0.071	-3.6669312	-5.5576926	-12.9488508	-119.5190388	-79.56094788	84.38525424
4.7	470	-0.978	0.205	0.068	-2.1772404	-6.7036086	-13.1207382	-120.103456	-79.63543242	84.95821224
4.71	471	-0.971	0.186	0.069	-0.4583664	-7.3911582	-13.1207382	-120.825383	-79.70991696	85.68013932
4.72	472	-0.964	0.175	0.071	0.859437	-7.734933	-12.9488508	-121.5473101	-79.7844015	86.4307143
4.73	473	-0.962	0.169	0.078	1.8334656	-7.6776372	-12.5477802	-122.2635076	-79.85315646	87.1755597
4.74	474	-0.96	0.164	0.079	2.4637194	-7.3911582	-12.318597	-122.9567868	-79.91618184	87.90321636
4.75	475	-0.962	0.159	0.081	3.4950438	-6.9327918	-11.8029348	-123.5526631	-79.97920722	88.5506589
4.76	476	-0.964	0.148	0.083	4.6409598	-6.589017	-11.3445684	-124.1771873	-80.0422326	89.22674934
4.77	477	-0.97	0.134	0.093	5.3285094	-6.1879464	-10.9434978	-124.7616045	-80.0995284	89.87992146
4.78	478	-0.974	0.122	0.104	5.5576926	-5.6149884	-10.6570188	-125.3173738	-80.1568242	90.50444568
4.79	479	-0.98	0.106	0.119	5.3858052	-4.583664	-10.1986524	-125.8215768	-80.21412	91.0716741
4.8	480	-0.98	0.091	0.132	4.6982556	-3.5523396	-9.5683986	-126.4518306	-80.28287496	91.75349412
4.81	481	-0.982	0.083	0.137	3.4950438	-3.0366774	-8.59437	-126.8586308	-80.33444118	92.20613094
4.82	482	-0.987	0.076	0.138	2.3491278	-2.8074942	-7.0473834	-127.2138647	-80.37454824	92.5900128
4.83	483	-0.994	0.069	0.137	1.145916	-2.4064236	-5.443101	-127.5118029	-80.40319614	92.9051397
4.84	484	-0.997	0.066	0.136	-0.572958	-1.6615782	-3.7815228	-127.7352565	-80.42611446	93.12859332
4.85	485	-0.991	0.067	0.128	-2.578311	-0.6875496	-2.291832	-128.4457244	-80.500599	93.81614292
4.86	486	-0.987	0.074	0.124	-4.6409598	0.1145916	-0.859437	-128.520209	-80.51205816	93.83906124
4.87	487	-0.981	0.09	0.121	-6.7036086	0.6875496	0.286479	-128.5431273	-80.51205816	93.7932246
4.88	488	-0.979	0.102	0.122	-7.7922288	0.9740286	1.0313244	-128.5373977	-80.50632858	93.71301048
4.89	489	-0.979	0.111	0.124	-8.8235532	1.0886202	1.6615782	-128.5144794	-80.500599	93.5926893
4.9	490	-0.983	0.115	0.122	-9.5683986	0.9740286	2.0626488	-128.5775048	-80.48913984	93.55831182
4.91	491	-0.984	0.115	0.123	-9.740286	0.859437	2.4064236	-128.5488569	-80.47768068	93.42653148
4.92	492	-0.986	0.113	0.124	-10.1986524	1.0313244	2.86479	-128.5030202	-80.46049194	93.27183282
4.93	493	-0.99	0.116	0.124	-10.2559482	1.0886202	3.5523396	-128.4228061	-80.43757362	93.08848626
4.94	494	-0.991	0.119	0.124	-9.9694692	1.2605076	4.3544808	-128.3082145	-80.40892572	92.86503264
4.95	495	-0.993	0.126	0.125	-9.5683986	1.4896908	5.0993262	-128.2050821	-80.37454824	92.66449734
4.96	496	-0.992	0.13	0.127	-8.7662574	1.718874	5.5576926	-128.0102764	-80.34017076	92.37801834
4.97	497	-0.995	0.136	0.127	-7.5630456	1.6615782	6.016059	-127.7925523	-80.3000637	92.08008018
4.98	498	-0.996	0.139	0.132	-6.589017	1.2605076	6.0733548	-127.5862874	-80.25995664	91.80506034
4.99	499	-0.995	0.15	0.129	-6.2452422	0.9167328	6.0733548	-127.3972113	-80.21412	91.54722924
5	500	-0.994	0.161	0.13	-5.2712136	1.2605076	6.1879464	-127.1852168	-80.15109462	91.2722094
5.01	501	-0.994	0.166	0.133	-4.4690724	1.6615782	6.2452422	-126.9388449	-80.11098756	90.97427124
5.02	502	-0.994	0.167	0.136	-3.6096354	2.4064236	6.1879464	-126.6523659	-80.0708805	90.64768518
5.03	503	-0.992	0.168	0.142	-2.8074942	3.0939732	6.016059	-126.337239	-80.0422326	90.2981808
5.04	504	-0.993	0.171	0.143	-2.1199446	3.3231564	5.9014674	-126.0049234	-80.0135847	89.93721726
5.05	505	-0.993	0.175	0.144	-1.3750992	3.437748	5.6149884	-125.7241739	-79.95055932	89.6392791
5.06	506	-0.994	0.175	0.141	-0.8021412	3.8961144	5.3858052	-125.3746696	-79.927641	89.27831556
5.07	507	-0.993	0.174	0.136	-0.1718874	4.7555514	5.0993262	-124.9907877	-79.91045226	88.88297454
5.08	508	-0.995	0.176	0.131	0.286479	5.8441716	4.8128472	-124.5610692	-79.90472268	88.44752646
5.09	509	-0.996	0.18	0.13	1.0313244	7.161975	4.6409598	-124.0740549	-79.90472268	87.96051216
5.1	510	-0.997	0.182	0.13	1.6042824	8.6516658	4.1825934	-123.5297448	-79.89326352	87.42766122
5.11	511	-0.998	0.182	0.13	2.1199446	10.0840608	3.724227	-122.9166797	-79.91045226	86.82032574
5.12	512	-0.999	0.181	0.13	2.3491278	11.1153852	3.2658606	-122.257778	-79.93910016	86.17861278
5.13	513	-0.999	0.18	0.127	2.6929026	11.9748222	2.86479	-121.5702284	-79.97920722	85.50252234
5.14	514	-1	0.179	0.124	2.7501984	12.8342592	2.3491278	-120.8425718	-80.01931428	84.797784
5.15	515	-1.001	0.18	0.12	2.8074942	13.8655836	2.0626488	-120.0977264	-80.05369176	84.06439776
5.16	516	-1.002	0.181	0.115	2.9793816	14.896908	1.6615782	-119.2783964	-80.11098756	83.26225656
5.17	517	-1.003	0.181	0.111	3.0939732	15.8709366	1.145916	-118.4075003	-80.17401294	82.40854914
5.18	518	-1.001	0.179	0.108	2.9220858	16.902261	0.4583664	-117.4964971	-80.2427679	81.51473466
5.19	519	-1	0.177	0.103	2.6929026	17.7044022	0	-116.5511164	-80.31725244	80.57508354
5.2	520	-1	0.174	0.099	2.5210152	18.2200644	-0.4010706	-115.5885469	-80.3860074	79.62397326
5.21	521	-0.995	0.171	0.094	2.4064236	18.8503182	-0.7448454	-114.5744113	-80.46622152	78.61556718
5.22	522	-0.994	0.169	0.085	2.4064236	19.1367972	-1.0313244	-113.5258981	-80.54643564	77.5785132
5.23	523	-0.99	0.164	0.079	2.6356068	19.5378678	-1.2605076	-112.4430075	-80.63237934	76.50708174
5.24	524	-0.987	0.161	0.072	2.578311	19.7097552	-1.3178034	-111.331469	-80.71259346	75.4012728
5.25	525	-0.988	0.161	0.063	2.9220858	19.7097552	-1.0886202	-110.185553	-80.787078	74.27254554
5.26	526	-0.989	0.16	0.059	3.437748	19.6524594	-0.9167328	-109.0224482	-80.85583296	73.12662954
5.27	527	-0.99	0.157	0.058	3.4950438	19.7097552	-0.8021412	-107.8421548	-80.91885834	71.9635248
5.28	528	-0.988	0.154	0.057	3.3231564	19.6524594	-0.8021412	-106.6504021	-80.98188372	70.7889609
5.29	529	-0.983	0.15	0.057	2.9793816	19.8243468	-0.8021412	-105.4357312	-81.03917952	69.5857491
5.3	530	-0.98	0.147	0.058	2.5210152	20.1108258	-0.6302538	-104.2382489	-81.09074574	68.39399646
5.31	531	-0.978	0.145	0.056	2.0626488	19.7097552	-0.4010706	-103.0006597	-81.13658238	67.16213676
5.32	532	-0.979	0.143	0.05	2.1772404	18.7357266	-0.1718874	-101.8146366	-81.17095986	65.98184328
5.33	533	-0.983	0.14	0.042	2.1772404	18.048177	0.1718874	-100.6515319	-81.19960776	64.8301977
5.34	534	-0.984	0.139	0.037	1.7761698	17.8762896	0.6875496	-99.4941567	-81.2167965	63.67282254
5.35	535	-0.984	0.141	0.034	1.4896908	18.2773602	1.3178034	-98.32532238	-81.23398524	62.49825864
5.36	536	-0.985	0.143	0.028	1.5469866	18.5638392	1.8334656	-97.11065142	-81.23398524	61.28358768
5.37	537	-0.984	0.146	0.022	1.3178034	18.5065434	2.1772404	-95.89598046	-81.22825566	60.06891672
5.38	538	-0.985	0.151	0.018	0.9167328	18.3919518	2.4637194	-94.69849824	-81.2167965	58.86570492
5.39	539	-0.987	0.153	0.015	0.572958	18.1054728	2.578311	-93.52393434	-81.19960776	57.67968186
5.4	540	-0.989	0.155	0.012	0.1718874	17.5898106	2.5210152	-92.39520708	-81.17668944	56.53376586
5.41	541	-0.986	0.155	0.01	0	17.0741484	2.291832	-91.30658688	-81.15377112	55.42795692
5.42	542	-0.984	0.156	0.009	-0.8021412	16.615782	2.1199446	-90.25807374	-81.1308528	54.36225504
5.43	543	-0.986	0.159	0.003	-1.6042824	16.3865988	2.1772404	-89.24393808	-81.1022049	53.3137419
5.44	544	-0.987	0.16	-0.005	-1.9480572	16.3865988	2.1199446	-88.235532	-81.073557	52.27095834
5.45	545	-0.991	0.161	-0.008	-2.7501984	16.329303	2.1772404	-87.2328555	-81.03917952	51.2224452
5.46	546	-0.992	0.163	-0.009	-3.7815228	15.756345	2.005353	-86.29893396	-81.00480204	50.23695744
5.47	547	-0.992	0.167	-0.011	-4.2398892	14.610429	1.6615782	-85.44522654	-80.97042456	49.3316838
5.48	548	-0.991	0.176	-0.014	-4.870143	13.5218088	1.3178034	-84.67173324	-80.94177666	48.49516512
5.49	549	-0.985	0.18	-0.021	-5.0993262	12.891555	0.6875496	-83.938347	-80.91885834	47.6987535
5.5	550	-0.977	0.18	-0.024	-5.3285094	12.4904844	0.1145916	-83.1935016	-80.88448086	46.88515314
5.51	551	-0.97	0.179	-0.032	-5.443101	12.2040054	0	-82.51168158	-80.86729212	46.13457816
5.52	552	-0.965	0.176	-0.036	-5.6149884	11.6310474	0	-81.86423904	-80.85010338	45.42411024
5.53	553	-0.958	0.173	-0.04	-5.6149884	11.1153852	-0.0572958	-81.25690356	-80.83291464	44.7480198
5.54	554	-0.955	0.172	-0.042	-5.3285094	10.0840608	0.1145916	-80.70686388	-80.80999632	44.13495474
5.55	555	-0.953	0.173	-0.045	-5.2712136	8.9954406	0.2291832	-80.13390588	-80.77561884	43.49897136
5.56	556	-0.95	0.175	-0.049	-4.6982556	8.1360036	0.4583664	-79.70991696	-80.75270052	43.01768664
5.57	557	-0.948	0.177	-0.053	-4.0680018	7.2192708	0.572958	-79.33176468	-80.7297822	42.59369772
5.58	558	-0.95	0.178	-0.053	-3.3231564	5.9014674	0.7448454	-79.02809694	-80.71259346	42.24992292
5.59	559	-0.954	0.18	-0.054	-2.6929026	4.870143	0.8021412	-78.781725	-80.68967514	41.9691735
5.6	560	-0.958	0.183	-0.056	-2.1772404	3.9534102	0.6875496	-78.33481776	-80.62092018	41.49361836
5.61	561	-0.959	0.184	-0.06	-1.718874	3.151269	0.4010706	-78.17438952	-80.60946102	41.3102718
5.62	562	-0.96	0.183	-0.061	-1.0886202	2.005353	0.4010706	-78.07125708	-80.60373144	41.20140978
5.63	563	-0.963	0.18	-0.062	-0.286479	1.4896908	0.1145916	-77.99104296	-80.59800186	41.11546608
5.64	564	-0.966	0.176	-0.059	0.1145916	0.6875496	0	-77.9509359	-80.59227228	41.06962944
5.65	565	-0.967	0.175	-0.057	0.5156622	0.0572958	-0.1145916	-76.78210158	-80.40319614	39.90079512
5.66	566	-0.969	0.174	-0.056	0.8021412	-0.6875496	-0.2291832	-76.81074948	-80.40892572	39.9351726
5.67	567	-0.969	0.174	-0.057	1.2032118	-1.3750992	-0.4010706	-76.86804528	-80.4146553	40.00965714
5.68	568	-0.973	0.174	-0.057	1.432395	-2.0626488	-0.6302538	-76.95971856	-80.42611446	40.11851916
5.69	569	-0.974	0.173	-0.056	1.4896908	-2.6356068	-0.859437	-77.08576932	-80.4433032	40.26175866
5.7	570	-0.976	0.173	-0.05	1.5469866	-3.3804522	-0.9740286	-77.12587638	-80.43757362	40.31332488
5.71	571	-0.975	0.172	-0.045	1.6042824	-3.9534102	-1.2032118	-77.31495252	-80.46049194	40.53104892
5.72	572	-0.974	0.17	-0.04	1.6042824	-4.583664	-1.432395	-77.54413572	-80.48341026	40.77742086
5.73	573	-0.973	0.17	-0.037	1.6042824	-5.2139178	-1.5469866	-77.80196682	-80.51205816	41.05817028
5.74	574	-0.974	0.171	-0.038	1.718874	-5.72958	-1.6615782	-78.0941754	-80.54070606	41.37329718
5.75	575	-0.975	0.168	-0.032	1.718874	-6.0733548	-1.8334656	-78.38638398	-80.56362438	41.68842408
5.76	576	-0.978	0.167	-0.029	1.5469866	-6.4171296	-1.8334656	-78.71869962	-80.59800186	42.04365804
5.77	577	-0.982	0.166	-0.025	1.718874	-7.0473834	-1.7761698	-79.09112232	-80.63237934	42.43899906
5.78	578	-0.985	0.165	-0.021	1.7761698	-7.5057498	-1.7761698	-79.49219292	-80.66675682	42.86298798
5.79	579	-0.99	0.164	-0.017	1.5469866	-7.7922288	-1.7761698	-79.91618184	-80.7011343	43.30989522
5.8	580	-0.989	0.164	-0.013	1.145916	-7.7922288	-1.8907614	-80.39173698	-80.7297822	43.8026391
5.81	581	-0.987	0.162	-0.005	0.5156622	-7.448454	-2.0626488	-80.80426674	-80.76415968	44.2323576
5.82	582	-0.985	0.159	0	0	-6.7609044	-2.1199446	-81.1881486	-80.79853716	44.62196904
5.83	583	-0.987	0.158	0.004	-0.4010706	-6.9327918	-2.0626488	-81.59494878	-80.83291464	45.02303964
5.84	584	-0.99	0.157	0.001	-0.1718874	-7.448454	-1.8907614	-82.03039686	-80.86156254	45.4642173
5.85	585	-0.993	0.157	0	-0.286479	-7.3911582	-1.6615782	-82.54605906	-80.89594002	45.98560908
5.86	586	-0.995	0.157	0.001	-0.572958	-6.875496	-1.4896908	-82.9643184	-80.91885834	46.40386842
5.87	587	-0.996	0.158	0.003	-0.6302538	-6.1879464	-1.2032118	-83.34247068	-80.94177666	46.7820207
5.88	588	-0.995	0.16	0.004	-0.6302538	-5.5003968	-0.9167328	-83.68624548	-80.9589654	47.12006592
5.89	589	-0.996	0.165	0.004	-0.6875496	-4.8128472	-0.7448454	-83.98418364	-80.97042456	47.41800408
5.9	590	-0.999	0.167	0.006	-0.6875496	-4.2398892	-0.6875496	-84.4253613	-80.97042456	47.85918174
5.91	591	-0.999	0.168	0.008	-0.6302538	-3.8961144	-0.7448454	-84.67173324	-80.9876133	48.09409452
5.92	592	-0.998	0.167	0.009	-0.3437748	-3.6669312	-0.859437	-84.90091644	-80.99907246	48.32327772
5.93	593	-0.998	0.165	0.01	-0.1145916	-3.437748	-0.859437	-85.10718132	-81.01053162	48.53527218
5.94	594	-0.998	0.163	0.011	0	-3.151269	-0.859437	-85.30198704	-81.02199078	48.7300779
5.95	595	-0.998	0.161	0.015	-0.0572958	-2.6929026	-0.8021412	-85.80619008	-81.03344994	49.23428094
5.96	596	-1.001	0.161	0.014	0	-2.2345362	-0.6302538	-85.93797042	-81.03917952	49.37179086
5.97	597	-0.999	0.159	0.016	0	-1.718874	-0.4583664	-86.04683244	-81.0449091	49.48065288
5.98	598	-0.998	0.159	0.016	0	-0.9740286	-0.3437748	-86.10985782	-81.05063868	49.54367826
5.99	599	-0.997	0.159	0.016	-0.0572958	-0.1718874	-0.2291832	-86.12131698	-81.05636826	49.55513742
6	600	-0.996	0.16	0.014	0	0.1718874	-0.1718874	-87.3187992	-81.0162612	50.74689006
6.01	601	-0.996	0.159	0.01	0.1145916	0.5156622	-0.0572958	-87.28442172	-81.0162612	50.71251258
6.02	602	-0.995	0.159	0.007	0.2291832	0.859437	0	-87.22139634	-81.0162612	50.65521678
6.03	603	-0.996	0.159	0.006	0.286479	1.2605076	0.0572958	-87.13545264	-81.0162612	50.56927308
6.04	604	-0.996	0.159	0.007	0.3437748	1.8334656	0.2291832	-87.01513146	-81.01053162	50.45468148
6.05	605	-0.993	0.156	0.006	0.4010706	2.1199446	0.3437748	-87.0323202	-81.01053162	50.46614064
6.06	606	-0.991	0.156	0.005	0.3437748	2.3491278	0.4583664	-86.88335112	-80.99907246	50.31717156
6.07	607	-0.99	0.157	0	0.3437748	2.3491278	0.5156622	-86.72865246	-80.99334288	50.16820248
6.08	608	-0.991	0.157	-0.002	0.4583664	2.3491278	0.6302538	-86.57968338	-80.9876133	50.0192334
6.09	609	-0.99	0.156	-0.003	0.4583664	2.5210152	0.7448454	-86.41925514	-80.97615414	49.86453474
6.1	610	-0.989	0.155	-0.001	0.4583664	2.7501984	0.9167328	-86.2874748	-80.96469498	49.73848398
6.11	611	-0.988	0.156	-0.004	0.4010706	2.9220858	0.9740286	-86.10985782	-80.95323582	49.55513742
6.12	612	-0.987	0.158	-0.006	0.4583664	3.0939732	1.145916	-85.9150521	-80.94177666	49.36606128
6.13	613	-0.985	0.16	-0.007	0.3437748	3.0939732	1.3750992	-85.72597596	-80.92458792	49.18271472
6.14	614	-0.987	0.16	-0.007	0.2291832	3.0939732	1.5469866	-85.53689982	-80.9016696	48.99363858
6.15	615	-0.99	0.162	-0.005	0.3437748	3.2085648	1.5469866	-85.36501242	-80.87875128	48.8160216
6.16	616	-0.99	0.162	-0.007	0.2291832	3.2085648	1.6042824	-85.1702067	-80.86156254	48.62121588
6.17	617	-0.989	0.162	-0.009	0	3.0939732	1.4896908	-84.98686014	-80.8443738	48.43786932
6.18	618	-0.989	0.166	-0.009	-0.0572958	3.0939732	1.4896908	-84.80924316	-80.82145548	48.25452276
6.19	619	-0.988	0.169	-0.012	-0.0572958	2.86479	1.432395	-84.64308534	-80.80426674	48.08836494
6.2	620	-0.986	0.17	-0.013	-0.286479	2.6929026	1.2032118	-84.4540092	-80.76415968	47.88782964
6.21	621	-0.985	0.171	-0.015	-0.286479	2.4064236	1.0313244	-84.31649928	-80.75270052	47.74459014
6.22	622	-0.985	0.171	-0.018	-0.3437748	2.291832	0.7448454	-84.18471894	-80.74124136	47.6128098
6.23	623	-0.983	0.172	-0.02	-0.3437748	2.0626488	0.5156622	-84.07012734	-80.73551178	47.48675904
6.24	624	-0.983	0.171	-0.022	-0.4010706	2.0626488	0.4010706	-83.94980616	-80.7297822	47.36070828
6.25	625	-0.981	0.171	-0.022	-0.2291832	1.8907614	0.3437748	-83.66905674	-80.68394556	47.07422928
6.26	626	-0.98	0.168	-0.022	-0.0572958	1.718874	0.2291832	-83.5659243	-80.67821598	46.97109684
6.27	627	-0.979	0.168	-0.021	0	1.4896908	0.1145916	-83.47425102	-80.6724864	46.87942356
6.28	628	-0.979	0.167	-0.021	0	1.2605076	0	-83.39976648	-80.6724864	46.79920944
6.29	629	-0.979	0.165	-0.026	0.0572958	1.145916	0	-83.33101152	-80.6724864	46.73045448
6.3	630	-0.979	0.165	-0.027	0.1145916	1.0313244	0	-82.77524226	-80.62664976	46.17468522
6.31	631	-0.98	0.165	-0.028	0.1718874	0.859437	0	-82.71794646	-80.62092018	46.123119
6.32	632	-0.982	0.166	-0.027	0.4010706	0.6302538	0	-82.6778394	-80.62092018	46.08301194
6.33	633	-0.982	0.168	-0.028	0.5156622	0.2291832	0	-82.65492108	-80.62092018	46.0658232
6.34	634	-0.981	0.168	-0.026	0.4010706	-0.1718874	-0.2291832	-82.66065066	-80.62664976	46.07728236
6.35	635	-0.978	0.164	-0.021	0.1718874	-0.5156622	-0.572958	-82.54605906	-80.6151906	45.96269076
6.36	636	-0.975	0.158	-0.016	0	-0.6302538	-0.6302538	-82.58043654	-80.62092018	45.99706824
6.37	637	-0.975	0.157	-0.012	-0.4583664	-0.572958	-0.6302538	-82.6205436	-80.62664976	46.03144572
6.38	638	-0.979	0.155	-0.013	-0.1145916	-1.8907614	-0.4010706	-82.72940562	-80.63810892	46.14030774
6.39	639	-0.982	0.154	-0.016	0	-2.1772404	-0.2291832	-82.85545638	-80.63810892	46.27208808
6.4	640	-0.985	0.156	-0.014	-0.4583664	-1.8334656	0	-82.95285924	-80.66102724	46.36949094
6.41	641	-0.985	0.159	-0.012	-0.4010706	-1.2032118	0.286479	-83.03880294	-80.65529766	46.44397548
6.42	642	-0.985	0.161	-0.014	-0.4583664	-0.6875496	0.6302538	-83.09036916	-80.65529766	46.4955417
6.43	643	-0.988	0.166	-0.017	-0.6302538	-0.2291832	0.8021412	-83.11901706	-80.6438385	46.51846002
6.44	644	-0.991	0.17	-0.018	-0.6875496	-0.1718874	0.6875496	-83.14193538	-80.63810892	46.53564876
6.45	645	-0.991	0.174	-0.015	-0.5156622	-0.3437748	0.5156622	-83.1648537	-80.58081312	46.5528375
6.46	646	-0.99	0.174	-0.016	-0.1718874	-0.9740286	0.1718874	-83.22787908	-80.58081312	46.6101333
6.47	647	-0.988	0.174	-0.016	0	-1.2032118	-0.1145916	-83.29663404	-80.58081312	46.68461784
6.48	648	-0.987	0.173	-0.016	0.1145916	-1.2032118	-0.286479	-83.365389	-80.5865427	46.7533728
6.49	649	-0.988	0.171	-0.015	0.3437748	-1.145916	-0.4010706	-83.42841438	-80.59227228	46.82212776
6.5	650	-0.986	0.169	-0.012	0.5156622	-1.145916	-0.4010706	-83.52581724	-80.58081312	46.9252602
6.51	651	-0.987	0.166	-0.01	0.6875496	-1.2032118	-0.4010706	-83.58884262	-80.5865427	46.99401516
6.52	652	-0.987	0.163	-0.007	0.6875496	-1.2605076	-0.4010706	-83.651868	-80.59227228	47.06277012
6.53	653	-0.987	0.163	-0.007	0.6875496	-1.2032118	-0.4583664	-83.71489338	-80.59800186	47.13725466
6.54	654	-0.987	0.164	-0.006	0.7448454	-1.145916	-0.4583664	-83.77218918	-80.60946102	47.20600962
6.55	655	-0.987	0.163	-0.01	0.7448454	-1.0886202	-0.4010706	-83.86386246	-80.60946102	47.30341248
6.56	656	-0.989	0.165	-0.012	0.6875496	-1.0313244	-0.3437748	-83.91542868	-80.6151906	47.36070828
6.57	657	-0.99	0.165	-0.012	0.8021412	-0.9167328	-0.3437748	-83.95553574	-80.62092018	47.4122745
6.58	658	-0.991	0.164	-0.013	0.9167328	-0.6875496	-0.2291832	-83.98991322	-80.62664976	47.45811114
6.59	659	-0.99	0.164	-0.011	0.9167328	-0.4583664	-0.286479	-84.00710196	-80.62664976	47.48102946
6.6	660	-0.988	0.162	-0.011	0.8021412	-0.3437748	-0.3437748	-84.0529386	-80.63237934	47.53832526
6.61	661	-0.986	0.162	-0.009	0.7448454	-0.3437748	-0.286479	-84.06439776	-80.63810892	47.555514
6.62	662	-0.988	0.16	-0.011	0.7448454	-0.5156622	-0.1718874	-84.08731608	-80.63810892	47.58989148
6.63	663	-0.986	0.158	-0.011	0.6302538	-0.4583664	-0.1718874	-84.1102344	-80.6438385	47.61853938
6.64	664	-0.985	0.158	-0.011	0.6302538	-0.4583664	-0.0572958	-84.12742314	-80.6438385	47.64718728
6.65	665	-0.984	0.157	-0.01	0.572958	-0.3437748	0	-84.12742314	-80.66675682	47.65291686
6.66	666	-0.983	0.159	-0.01	0.6875496	-0.0572958	0.286479	-84.12742314	-80.66675682	47.65864644
6.67	667	-0.984	0.158	-0.009	0.7448454	-0.0572958	0.4583664	-84.12742314	-80.66102724	47.6701056
6.68	668	-0.986	0.159	-0.01	0.7448454	-0.1145916	0.572958	-84.13315272	-80.65529766	47.68156476
6.69	669	-0.986	0.159	-0.009	0.6302538	-0.2291832	0.6875496	-84.14461188	-80.64956808	47.6987535
6.7	670	-0.988	0.162	-0.007	0.6302538	-0.286479	0.7448454	-84.1961781	-80.64956808	47.76177888
6.71	671	-0.99	0.162	-0.01	0.5156622	-0.3437748	0.7448454	-84.21909642	-80.63810892	47.7846972
6.72	672	-0.991	0.165	-0.01	0.4010706	-0.286479	0.7448454	-84.23628516	-80.63237934	47.80761552
6.73	673	-0.991	0.167	-0.012	0.286479	-0.1718874	0.6302538	-84.2534739	-80.62664976	47.82480426
6.74	674	-0.992	0.17	-0.013	0.1718874	0.1145916	0.572958	-84.24201474	-80.62092018	47.82480426
6.75	675	-0.992	0.169	-0.013	0	0.4010706	0.5156622	-84.19044852	-80.56935396	47.76750846
6.76	676	-0.991	0.169	-0.012	0.1145916	0.5156622	0.4010706	-84.16180062	-80.56935396	47.73886056
6.77	677	-0.99	0.166	-0.009	0	0.6302538	0.3437748	-84.12742314	-80.56362438	47.70448308
6.78	678	-0.988	0.169	-0.008	-0.2291832	0.6302538	0.1718874	-84.09304566	-80.5578948	47.66437602
6.79	679	-0.985	0.168	-0.011	-0.3437748	0.572958	0.1145916	-84.06439776	-80.5578948	47.62999854
6.8	680	-0.985	0.166	-0.013	-0.3437748	0.6302538	0.1145916	-83.98418364	-80.54070606	47.54405484
6.81	681	-0.984	0.163	-0.015	-0.286479	0.7448454	0.1718874	-83.938347	-80.53497648	47.4982182
6.82	682	-0.985	0.162	-0.014	-0.1145916	0.859437	0.1718874	-83.89251036	-80.53497648	47.44665198
6.83	683	-0.985	0.16	-0.012	-0.0572958	0.7448454	0.286479	-83.84667372	-80.5292469	47.40081534
6.84	684	-0.986	0.159	-0.011	-0.1718874	0.7448454	0.4010706	-83.80656666	-80.52351732	47.36070828
6.85	685	-0.987	0.161	-0.011	-0.286479	0.8021412	0.4583664	-83.7664596	-80.52351732	47.31487164
6.86	686	-0.988	0.163	-0.014	-0.5156622	1.0313244	0.4583664	-83.7091638	-80.51778774	47.25184626
6.87	687	-0.987	0.164	-0.017	-0.6875496	1.145916	0.4583664	-83.651868	-80.51205816	47.18882088
6.88	688	-0.986	0.167	-0.019	-0.4583664	1.2032118	0.5156622	-83.58884262	-80.500599	47.12006592
6.89	689	-0.988	0.168	-0.02	-0.1145916	1.0313244	0.5156622	-83.5372764	-80.49486942	47.06277012
6.9	690	-0.99	0.17	-0.019	-0.0572958	0.859437	0.4583664	-83.38830732	-80.46622152	46.91380104
6.91	691	-0.99	0.168	-0.016	-0.1145916	0.859437	0.286479	-83.34247068	-80.46049194	46.86223482
6.92	692	-0.986	0.166	-0.011	-0.4583664	0.7448454	0.0572958	-83.30236362	-80.46049194	46.81639818
6.93	693	-0.981	0.162	-0.005	-0.9740286	0.7448454	-0.0572958	-83.26798614	-80.46049194	46.77056154
6.94	694	-0.978	0.159	-0.004	-1.6042824	1.145916	0	-83.21641992	-80.46049194	46.70753616
6.95	695	-0.981	0.16	-0.005	-1.432395	0.3437748	0	-83.2794453	-80.4719511	46.7533728
6.96	696	-0.983	0.16	-0.013	-0.7448454	-0.0572958	0.286479	-83.29663404	-80.46622152	46.75910238
6.97	697	-0.986	0.161	-0.015	-0.859437	0.1145916	0.4010706	-83.30236362	-80.46622152	46.7533728
6.98	698	-0.985	0.163	-0.017	-0.8021412	0.8021412	0.6302538	-83.26798614	-80.45476236	46.71326574
6.99	699	-0.986	0.167	-0.02	-0.4583664	1.4896908	0.9740286	-83.1935016	-80.4433032	46.63305162
7	700	-0.986	0.17	-0.023	-0.286479	2.0626488	1.2032118	-83.00442546	-80.42038488	46.4382459
7.01	701	-0.989	0.174	-0.023	-0.286479	2.291832	1.145916	-82.88410428	-80.40319614	46.31792472
7.02	702	-0.989	0.176	-0.018	-0.1718874	1.7761698	0.6302538	-82.792431	-80.39173698	46.21479228
7.03	703	-0.99	0.176	-0.017	0	1.0313244	0.286479	-82.7351352	-80.39173698	46.15749648
7.04	704	-0.989	0.174	-0.018	0	0.572958	-0.0572958	-82.70075772	-80.39173698	46.123119
7.05	705	-0.988	0.17	-0.018	-0.1145916	0.5156622	-0.1718874	-82.56897738	-80.36308908	45.98560908
7.06	706	-0.986	0.169	-0.02	-0.0572958	0.572958	-0.1718874	-82.52887032	-80.36308908	45.9512316
7.07	707	-0.986	0.167	-0.02	-0.0572958	0.6875496	-0.1718874	-82.48876326	-80.36308908	45.90539496
7.08	708	-0.984	0.165	-0.02	0.1145916	0.5156622	0	-82.45438578	-80.36308908	45.87101748
