TimeStamp(s)	FrameCounter	AccX	AccY	AccZ	GyrX	GyrY	GyrZ	EulerX	EulerY	EulerZ
0.01	1	-0.007	-1.004	-0.084	-2.6356068	0	-0.1145916	86.46509178	-0.37815228	-22.32817326
0.02	2	-0.006	-1.004	-0.083	-2.86479	0	-0.1145916	86.43644388	-0.37815228	-22.32817326
0.03	3	-0.004	-1.006	-0.084	-3.2658606	0	-0.0572958	86.4020664	-0.37815228	-22.32817326
0.04	4	-0.001	-1.006	-0.085	-3.6096354	0	0.0572958	86.36195934	-0.37815228	-22.32817326
0.05	5	-0.002	-1.005	-0.084	-3.7815228	0	0.0572958	86.27028606	-0.35523396	-22.33963242
0.06	6	-0.001	-1.004	-0.08	-4.010706	0	0.1145916	86.22444942	-0.36096354	-22.33963242
0.07	7	-0.002	-1.005	-0.08	-4.4117766	-0.0572958	0.1718874	86.18434236	-0.36096354	-22.33963242
0.08	8	-0.002	-1.004	-0.081	-4.870143	-0.2291832	0.1145916	86.13277614	-0.36669312	-22.345362
0.09	9	0	-1.004	-0.079	-4.9847346	-0.6302538	0.1145916	86.08120992	-0.36669312	-22.35109158
0.1	10	0.001	-1	-0.082	-5.3285094	-0.8021412	0.1145916	85.99526622	-0.34950438	-22.36828032
0.11	11	0	-1.001	-0.08	-5.6149884	-1.3178034	0.1145916	85.93797042	-0.35523396	-22.37973948
0.12	12	-0.001	-1	-0.081	-5.72958	-1.432395	0.0572958	85.88067462	-0.35523396	-22.39692822
0.13	13	0	-0.998	-0.084	-5.5576926	-1.4896908	0	85.82337882	-0.35523396	-22.41411696
0.14	14	0.001	-0.996	-0.084	-5.3858052	-1.5469866	0	85.7718126	-0.36096354	-22.4313057
0.15	15	0.001	-0.994	-0.085	-5.3858052	-1.5469866	0	85.6858689	-0.3437748	-22.45422402
0.16	16	0	-0.993	-0.088	-5.156622	-1.6615782	-0.1718874	85.63430268	-0.3437748	-22.47141276
0.17	17	0.002	-0.991	-0.085	-4.8128472	-1.6615782	-0.1145916	85.58846604	-0.3437748	-22.4886015
0.18	18	0	-0.994	-0.087	-4.9274388	-1.8334656	-0.1718874	85.53689982	-0.3437748	-22.50579024
0.19	19	0	-0.995	-0.084	-5.0420304	-1.8907614	-0.286479	85.4853336	-0.33804522	-22.52297898
0.2	20	0	-0.998	-0.084	-5.0420304	-2.005353	-0.4583664	85.41657864	-0.32658606	-22.55162688
0.21	21	0	-0.997	-0.083	-5.156622	-2.005353	-0.4583664	85.35928284	-0.32085648	-22.5745452
0.22	22	0	-0.997	-0.082	-4.9847346	-2.005353	-0.6875496	85.3134462	-0.3151269	-22.59173394
0.23	23	-0.001	-0.996	-0.08	-4.7555514	-1.8907614	-0.8021412	85.26187998	-0.30939732	-22.61465226
0.24	24	-0.001	-0.995	-0.078	-4.3544808	-1.7761698	-0.9167328	85.21604334	-0.29793816	-22.631841
0.25	25	0	-0.993	-0.077	-4.297185	-1.6042824	-0.9167328	85.15874754	-0.27501984	-22.65475932
0.26	26	0.005	-0.99	-0.077	-4.2398892	-1.5469866	-0.8021412	85.11864048	-0.26929026	-22.67194806
0.27	27	0.008	-0.989	-0.078	-4.0680018	-1.432395	-0.6302538	85.07853342	-0.26356068	-22.6891368
0.28	28	0.008	-0.988	-0.08	-4.1252976	-1.5469866	-0.4583664	85.03269678	-0.26356068	-22.70632554
0.29	29	0.006	-0.987	-0.08	-4.0680018	-1.8907614	-0.4583664	84.99258972	-0.2578311	-22.72351428
0.3	30	0.002	-0.989	-0.072	-4.0680018	-2.4064236	-0.6302538	84.94675308	-0.24064236	-22.75216218
0.31	31	-0.001	-0.995	-0.072	-4.1252976	-2.6356068	-0.9740286	84.90664602	-0.23491278	-22.78081008
0.32	32	-0.001	-0.997	-0.071	-4.1825934	-2.4637194	-1.3178034	84.86080938	-0.22345362	-22.80945798
0.33	33	0.002	-0.999	-0.068	-4.1825934	-2.4637194	-1.6042824	84.82070232	-0.21199446	-22.8323763
0.34	34	0.01	-0.994	-0.063	-4.2398892	-2.7501984	-1.718874	84.77486568	-0.19480572	-22.8610242
0.35	35	0.017	-0.99	-0.057	-4.297185	-3.6669312	-1.9480572	84.7404882	-0.16042824	-22.90686084
0.36	36	0.022	-0.993	-0.048	-4.6982556	-4.1825934	-2.2345362	84.69465156	-0.13750992	-22.95269748
0.37	37	0.028	-0.997	-0.054	-6.1306506	-4.297185	-2.3491278	84.63162618	-0.12032118	-22.99853412
0.38	38	0.036	-0.997	-0.064	-7.161975	-4.297185	-2.2345362	84.55714164	-0.09740286	-23.04437076
0.39	39	0.042	-0.994	-0.071	-7.161975	-4.4690724	-1.9480572	84.48838668	-0.0859437	-23.0902074
0.4	40	0.038	-0.984	-0.078	-6.9900876	-4.6409598	-1.8907614	84.40817256	-0.04583664	-23.1475032
0.41	41	0.031	-0.966	-0.082	-6.9327918	-4.583664	-2.1772404	84.3394176	-0.0286479	-23.19333984
0.42	42	0.027	-0.952	-0.089	-6.7609044	-3.8961144	-2.6356068	84.27066264	-0.00572958	-23.23917648
0.43	43	0.026	-0.941	-0.095	-6.9900876	-1.8334656	-3.4950438	84.20190768	0.02291832	-23.2620948
0.44	44	0.028	-0.932	-0.102	-7.3911582	0.0572958	-4.010706	84.12742314	0.06302538	-23.2620948
0.45	45	0.029	-0.928	-0.116	-8.0787078	2.0626488	-4.583664	84.0242907	0.12605076	-23.25636522
0.46	46	0.042	-0.934	-0.134	-10.1413566	4.7555514	-5.2139178	83.92115826	0.17761698	-23.21625816
0.47	47	0.045	-0.917	-0.154	-11.45916	7.448454	-5.2139178	83.80656666	0.23491278	-23.1475032
0.48	48	0.056	-0.902	-0.173	-11.6883432	9.6829902	-4.2398892	83.68624548	0.286479	-23.05582992
0.49	49	0.074	-0.887	-0.189	-12.032118	11.8602306	-2.6356068	83.56019472	0.32085648	-22.94123832
0.5	50	0.083	-0.854	-0.201	-11.172681	13.0061466	-0.2291832	83.4226848	0.35523396	-22.82664672
0.51	51	0.078	-0.803	-0.21	-8.307891	12.318597	2.9793816	83.3367411	0.33231564	-22.70059596
0.52	52	0.063	-0.74	-0.212	-6.6463128	10.1413566	5.3285094	83.26798614	0.29220858	-22.59746352
0.53	53	0.032	-0.67	-0.215	-5.2139178	6.016059	7.1046792	83.21641992	0.22345362	-22.52870856
0.54	54	-0.012	-0.613	-0.207	-3.3804522	0.2291832	7.5057498	83.17631286	0.14896908	-22.5172494
0.55	55	-0.055	-0.57	-0.192	-1.2605076	-4.9847346	5.6722842	83.15339454	0.08021412	-22.56308604
0.56	56	-0.09	-0.545	-0.176	-0.4583664	-8.021412	1.5469866	83.15339454	0.0572958	-22.63757058
0.57	57	-0.105	-0.548	-0.134	-1.5469866	-8.5370742	-5.2139178	83.1362058	0.10313244	-22.72924386
0.58	58	-0.129	-0.584	-0.072	-6.3598338	-7.161975	-14.037471	83.07318042	0.23491278	-22.81518756
0.59	59	-0.121	-0.653	-0.07	-17.2460358	-4.9847346	-22.5172494	82.89556344	0.45263682	-22.89540168
0.6	60	-0.101	-0.763	-0.085	-24.2361234	-3.8961144	-27.0436176	82.6491915	0.69900876	-22.96415664
0.61	61	-0.101	-0.938	-0.099	-25.9549974	-5.443101	-29.3354496	82.38563082	0.97975818	-23.05582992
0.62	62	-0.129	-1.152	-0.094	-24.8090814	-10.3705398	-28.8197874	82.12779972	1.24904844	-23.19906942
0.63	63	-0.172	-1.331	-0.057	-23.204799	-14.0947668	-28.4187168	81.89288694	1.51260912	-23.3766864
0.64	64	-0.193	-1.508	-0.025	-20.2254174	-12.5477802	-29.1635622	81.68089248	1.78189938	-23.54284422
0.65	65	-0.183	-1.63	-0.033	-18.8503182	-7.1046792	-31.1689152	81.49181634	2.07410796	-23.6631654
0.66	66	-0.081	-1.669	-0.017	-12.7196676	-3.2085648	-31.4553942	81.360036	2.3777757	-23.73764994
0.67	67	0.051	-1.694	0.029	-6.016059	-0.4583664	-22.345362	81.29128104	2.59549974	-23.777757
0.68	68	0.105	-1.69	0.046	-3.0939732	-4.8128472	-7.8495246	81.26263314	2.66998428	-23.8350528
0.69	69	0.143	-1.711	0.133	6.0733548	-11.5164558	8.1360036	81.31992894	2.57258142	-23.93818524
0.7	70	0.121	-1.772	0.234	9.7975818	-15.183387	21.4286292	81.42306138	2.34339822	-24.05277684
0.71	71	0.038	-1.806	0.282	4.6982556	-17.9908812	30.4240698	81.46889802	2.02254174	-24.18455718
0.72	72	-0.062	-1.799	0.274	-3.5523396	-21.7151082	34.950438	81.42879096	1.65584862	-24.350715
0.73	73	-0.14	-1.762	0.244	-11.8602306	-23.3193906	35.8671708	81.30846978	1.27196676	-24.52833198
0.74	74	-0.187	-1.706	0.186	-18.3919518	-23.3193906	35.1796212	81.11939364	0.89954406	-24.70594896
0.75	75	-0.21	-1.645	0.134	-23.491278	-22.8037284	34.6066632	80.88448086	0.52139178	-24.87783636
0.76	76	-0.224	-1.56	0.085	-27.8457588	-23.2620948	34.091001	80.60946102	0.15469866	-25.05545334
0.77	77	-0.235	-1.456	0.041	-31.7418732	-24.4653066	33.4034514	80.28860454	-0.20626488	-25.24452948
0.78	78	-0.242	-1.364	-0.002	-33.9191136	-26.2414764	32.2575354	79.95055932	-0.56149884	-25.45079436
0.79	79	-0.268	-1.283	-0.044	-37.815228	-27.5592798	30.653253	79.57240704	-0.90527364	-25.6685184
0.8	80	-0.296	-1.204	-0.096	-43.3156248	-26.642547	28.5906042	79.14268854	-1.24904844	-25.87478328
0.81	81	-0.312	-1.115	-0.152	-48.0711762	-23.4339822	25.78311	78.6671334	-1.54125702	-26.06385942
0.82	82	-0.308	-0.999	-0.209	-48.414951	-20.3973048	22.2880662	78.1801191	-1.79908812	-26.22428766
0.83	83	-0.26	-0.88	-0.25	-41.0237928	-18.1627686	19.194093	77.77331892	-2.02254174	-26.36179758
0.84	84	-0.189	-0.78	-0.249	-31.1689152	-17.9335854	18.2773602	77.4639216	-2.2345362	-26.50503708
0.85	85	-0.083	-0.681	-0.236	-20.7983754	-19.9962342	18.7930224	77.25192714	-2.45798982	-26.65973574
0.86	86	0.02	-0.593	-0.206	-10.3705398	-23.2620948	19.4232762	77.16025386	-2.6929026	-26.8430823
0.87	87	0.101	-0.493	-0.19	-1.8334656	-25.8977016	19.7097552	77.15452428	-2.93354496	-27.04934718
0.88	88	0.142	-0.389	-0.192	5.6722842	-28.2468294	18.6784308	77.22900882	-3.16845774	-27.28425996
0.89	89	0.12	-0.308	-0.163	12.605076	-28.7624916	17.0741484	77.3779779	-3.39191136	-27.52490232
0.9	90	0.048	-0.253	-0.084	16.042824	-27.9030546	15.469866	77.55559488	-3.58671708	-27.76554468
0.91	91	-0.029	-0.217	-0.064	14.610429	-24.637194	14.2666542	77.7217527	-3.77006364	-27.97180956
0.92	92	-0.079	-0.18	-0.043	12.0894138	-20.626488	12.8342592	77.85926262	-3.93049188	-28.14369696
0.93	93	-0.099	-0.154	-0.029	8.5370742	-16.329303	11.172681	77.95666548	-4.0680018	-28.28120688
0.94	94	-0.096	-0.138	-0.022	3.724227	-12.605076	9.2246238	78.00250212	-4.1825934	-28.38433932
0.95	95	-0.068	-0.14	-0.008	2.4637194	-8.9381448	6.1306506	78.0368796	-4.26280752	-28.45882386
0.96	96	-0.042	-0.144	0.018	3.0366774	-5.0993262	2.5210152	78.07125708	-4.297185	-28.5046605
0.97	97	-0.026	-0.14	0.032	2.7501984	-0.1718874	-0.7448454	78.09990498	-4.28572584	-28.5046605
0.98	98	0.006	-0.15	0.016	1.3178034	7.161975	-2.9793816	78.11136414	-4.24561878	-28.44163512
0.99	99	0.006	-0.196	-0.073	-8.7662574	10.0840608	-1.8907614	78.01396128	-4.2112413	-28.34996184
1	100	0.058	-0.293	-0.183	-23.6631654	10.0840608	3.8961144	77.7504006	-4.22270046	-28.2468294
1.01	101	0.123	-0.494	-0.346	-39.0757356	9.0527364	15.6417534	77.34933	-4.36021038	-28.12650822
1.02	102	0.185	-0.791	-0.449	-43.6593996	-1.5469866	34.4920716	76.90242276	-4.70398518	-28.074942
1.03	103	0.233	-1.171	-0.379	-41.3675676	-10.599723	54.6028974	76.47843384	-5.25975444	-28.05775326
1.04	104	0.18	-1.557	-0.201	-40.2789474	-13.9228794	56.2071798	76.07736324	-5.83271244	-28.06348284
1.05	105	-0.026	-1.873	-0.152	-35.6379876	-6.589017	29.507337	75.7163997	-6.13638018	-28.05775326
1.06	106	-0.29	-1.878	-0.109	-33.518043	-6.0733548	-6.2452422	75.38408406	-6.09054354	-28.13796738
1.07	107	-0.369	-1.762	-0.117	-17.7044022	-3.437748	-29.9657034	75.21792624	-5.8155237	-28.2468294
1.08	108	-0.292	-1.793	-0.149	-13.9228794	3.437748	-36.1536498	75.08041632	-5.46028974	-28.3041252
1.09	109	-0.198	-1.871	-0.193	-7.6776372	11.9748222	-31.4553942	74.99447262	-5.1279741	-28.26974772
1.1	110	-0.105	-2.094	-0.154	-2.8074942	18.7357266	-26.1841806	74.95436556	-4.83576552	-28.15515612
1.11	111	-0.026	-2.245	-0.082	-3.6096354	24.637194	-24.8663772	74.90279934	-4.53782736	-27.98326872
1.12	112	-0.053	-2.19	-0.038	-13.0061466	34.2628884	-27.8457588	74.7423711	-4.19405256	-27.72543762
1.13	113	-0.114	-2.106	-0.048	-19.767051	46.6387812	-32.0283522	74.5131879	-3.7815228	-27.36447408
1.14	114	-0.164	-2.046	-0.073	-22.4026578	56.5509546	-34.0337052	74.24962722	-3.3231564	-26.91183726
1.15	115	-0.138	-2.004	-0.055	-21.3140376	65.2599162	-33.804522	73.9975257	-2.84187168	-26.37898632
1.16	116	-0.034	-1.915	-0.029	-21.8296998	71.046792	-32.2575354	73.73396502	-2.36058696	-25.78883958
1.17	117	0.081	-1.761	-0.006	-21.0848544	75.057498	-30.3094782	73.48759308	-1.87930224	-25.15858578
1.18	118	0.148	-1.605	0.012	-17.761698	78.3233586	-29.6792244	73.27559862	-1.39801752	-24.4939545
1.19	119	0.161	-1.459	0.035	-15.6417534	79.6984578	-29.793816	73.09225206	-0.91100322	-23.81786406
1.2	120	0.155	-1.3	0.034	-15.0114996	81.8184024	-29.7365202	72.93182382	-0.40680018	-23.12458488
1.21	121	0.159	-1.144	-0.019	-12.8342592	83.9956428	-28.7624916	72.78858432	0.08021412	-22.41411696
1.22	122	0.155	-0.951	-0.043	-6.6463128	84.1675302	-27.1009134	72.71409978	0.56149884	-21.69218988
1.23	123	0.164	-0.785	-0.068	2.9220858	82.4486562	-22.6891368	72.74274768	0.99694692	-20.9702628
1.24	124	0.175	-0.609	-0.093	13.4072172	78.781725	-17.1314442	72.8802576	1.36936962	-20.27125404
1.25	125	0.185	-0.453	-0.065	23.6058696	72.5937786	-12.891555	73.13235912	1.70168526	-19.61808192
1.26	126	0.163	-0.322	-0.057	29.5646328	66.463128	-9.3392154	73.44175644	1.96524594	-19.00501686
1.27	127	0.113	-0.196	-0.096	29.2781538	63.0826758	-4.6409598	73.75115376	2.17151082	-18.40914054
1.28	128	0.069	-0.068	-0.144	23.491278	59.1865614	1.5469866	74.00325528	2.30329116	-17.83618254
1.29	129	0.059	0.034	-0.191	17.3606274	53.6861646	8.8235532	74.198061	2.35485738	-17.29760202
1.3	130	0.068	0.135	-0.234	12.7196676	46.4668938	14.9542038	74.31838218	2.32620948	-16.81058772
1.31	131	0.063	0.192	-0.277	8.1360036	34.091001	18.621135	74.41578504	2.2345362	-16.43243544
1.32	132	0.016	0.245	-0.272	8.5370742	23.9496444	19.7097552	74.50745832	2.10275586	-16.15168602
1.33	133	-0.051	0.295	-0.228	13.9228794	14.2093584	18.2773602	74.6564274	1.95951636	-15.96833946
1.34	134	-0.094	0.301	-0.166	21.6578124	5.8441716	15.183387	74.87988102	1.8334656	-15.8709366
1.35	135	-0.094	0.278	-0.093	26.7571386	0.2291832	12.2613012	75.1434417	1.70741484	-15.83082954
1.36	136	-0.079	0.219	0.005	28.2468294	-5.7868758	10.2559482	75.4299207	1.59855282	-15.85374786
1.37	137	-0.026	0.105	-0.013	22.9756158	-11.0580894	6.302538	75.66483348	1.5183387	-15.94542114
1.38	138	0.18	-0.201	-0.139	14.7823164	-3.2658606	-2.86479	75.81380256	1.53552744	-15.9855282
1.39	139	0.264	-0.545	-0.37	-1.432395	8.9381448	-20.7410796	75.79661382	1.75898106	-15.94542114
1.4	140	0.153	-0.993	-0.436	-11.45916	1.0313244	-38.388186	75.67056306	2.13140376	-16.03136484
1.41	141	0.07	-1.673	-0.479	-27.501984	-2.4637194	-46.0085274	75.38408406	2.56685184	-16.17460434
1.42	142	0.085	-2.184	-0.392	-22.7464326	-9.6256944	-32.7731976	75.1434417	2.85906042	-16.35222132
1.43	143	0.134	-2.047	-0.455	-15.183387	-18.2773602	-18.1054728	74.98301346	2.98511118	-16.56994536
1.44	144	0.089	-1.858	-0.633	-15.4125702	-21.7151082	-11.745639	74.81685564	3.04813656	-16.8163173
1.45	145	-0.038	-1.905	-0.635	1.8907614	-21.2567418	-17.18874	74.82258522	3.16272816	-17.06268924
1.46	146	-0.026	-1.926	-0.547	8.021412	-20.2827132	-19.9962342	74.89134018	3.31169724	-17.30906118
1.47	147	0.209	-1.992	-0.427	12.0894138	-17.1314442	-11.6883432	75.00593178	3.38618178	-17.5038669
1.48	148	0.461	-2.106	-0.298	8.021412	-17.761698	2.578311	75.08041632	3.31742682	-17.66429514
1.49	149	0.472	-2.027	-0.267	-4.6409598	-24.4080108	12.5477802	75.02312052	3.13980984	-17.87056002
1.5	150	0.339	-1.982	-0.327	-13.9801752	-32.085648	17.3606274	74.87415144	2.89916748	-18.1341207
1.51	151	0.177	-1.988	-0.326	-16.902261	-37.6433406	20.912967	74.69080488	2.61268848	-18.44351802
1.52	152	0.05	-1.986	-0.313	-17.5325148	-41.9405256	25.0382646	74.50745832	2.26891368	-18.78729282
1.53	153	-0.057	-1.912	-0.274	-12.9488508	-45.263682	30.080295	74.3699484	1.87357266	-19.14252678
1.54	154	-0.153	-1.77	-0.205	-5.9014674	-48.414951	35.523396	74.30692302	1.41520626	-19.51494948
1.55	155	-0.199	-1.613	-0.144	3.0939732	-52.139178	40.5081306	74.3413005	0.89381448	-19.90456092
1.56	156	-0.2	-1.429	-0.086	10.2559482	-55.290447	43.3729206	74.45016252	0.34950438	-20.31709068
1.57	157	-0.134	-1.251	-0.054	18.2200644	-57.6968706	44.7480198	74.64496824	-0.20626488	-20.75253876
1.58	158	-0.052	-1.072	-0.01	26.356068	-60.9054354	44.2896534	74.92571766	-0.7734933	-21.22236432
1.59	159	-0.01	-0.892	0.023	29.8511118	-64.457775	39.8778768	75.24657414	-1.30061466	-21.73802652
1.6	160	0.002	-0.723	0.044	30.3094782	-65.1453246	32.2575354	75.59034894	-1.75325148	-22.28233662
1.61	161	-0.016	-0.592	0.072	28.934379	-63.311859	22.4026578	75.91120542	-2.10275586	-22.83810588
1.62	162	-0.074	-0.472	0.032	24.8663772	-59.3584488	10.9434978	76.19195484	-2.33193906	-23.38241598
1.63	163	-0.162	-0.375	-0.014	19.9389384	-55.576926	1.6615782	76.42113804	-2.45798982	-23.91526692
1.64	164	-0.251	-0.269	-0.147	13.0061466	-51.279741	-6.2452422	76.58729586	-2.50382646	-24.42519954
1.65	165	-0.307	-0.144	-0.291	10.7716104	-43.3729206	-12.8342592	76.70188746	-2.4923673	-24.8663772
1.66	166	-0.334	-0.022	-0.34	13.8655836	-32.2575354	-18.2773602	76.8623157	-2.3777757	-25.21588158
1.67	167	-0.317	0.11	-0.329	18.334656	-19.3086846	-22.7464326	77.05712142	-2.19442914	-25.45079436
1.68	168	-0.206	0.238	-0.293	23.5485738	-6.7609044	-25.5539268	77.30349336	-1.95378678	-25.57111554
1.69	169	-0.048	0.343	-0.215	26.2987722	1.9480572	-25.8977016	77.57278362	-1.69595568	-25.60549302
1.7	170	0.12	0.406	-0.131	24.5226024	5.443101	-22.4026578	77.80196682	-1.45531332	-25.59976344
1.71	171	0.201	0.399	-0.108	22.91832	2.005353	-14.8396122	78.0368796	-1.30634424	-25.60549302
1.72	172	0.201	0.297	-0.068	23.9496444	-5.5003968	-5.9014674	78.27752196	-1.25477802	-25.6685184
1.73	173	0.158	0.154	-0.026	23.0329116	-14.3812458	3.4950438	78.51816432	-1.31207382	-25.80029874
1.74	174	0.105	0.028	0.02	22.2307704	-18.7930224	11.4018642	78.7530771	-1.44958374	-25.96072698
1.75	175	0.034	-0.113	-0.014	10.1986524	-16.7876694	18.4492476	78.85620954	-1.65584862	-26.08677774
1.76	176	-0.081	-0.299	-0.176	-8.59437	-21.2567418	25.8404058	78.77599542	-1.9480572	-26.24720598
1.77	177	-0.2	-0.618	-0.355	-23.1475032	-31.4553942	37.1276784	78.55827138	-2.36058696	-26.48784834
1.78	178	-0.089	-1.363	-0.734	-58.3271244	-38.101707	57.1812084	77.9795838	-2.99084076	-26.75140902
1.79	179	0.398	-2.294	-0.869	-101.5854534	-37.5860448	79.354683	76.97117772	-3.8388186	-26.9576739
1.8	180	0.506	-2.546	-0.574	-40.5081306	-5.443101	66.9214944	76.55291838	-4.50344988	-26.86027104
1.81	181	0.031	-1.898	-0.24	10.6570188	11.745639	36.4974246	76.64459166	-4.83003594	-26.65973574
1.82	182	-0.51	-1.483	-0.313	-15.8709366	21.9442914	20.7983754	76.45551552	-4.99046418	-26.40190464
1.83	183	-0.651	-1.495	-0.362	-7.0473834	26.2414764	7.5057498	76.35811266	-5.00765292	-26.13261438
1.84	184	-0.513	-1.663	-0.309	0.3437748	23.6631654	1.7761698	76.34092392	-4.97327544	-25.8977016
1.85	185	-0.391	-1.841	-0.331	-2.6929026	20.912967	5.443101	76.2893577	-4.9847346	-25.67997756
1.86	186	-0.12	-2.077	-0.21	-4.5263682	21.7151082	10.7143146	76.22060274	-5.04775998	-25.44506478
1.87	187	0.123	-2.03	-0.136	-17.8189938	27.215505	9.2246238	76.00860828	-5.08213746	-25.16431536
1.88	188	0.15	-1.881	-0.139	-28.6479	34.3201842	-0.3437748	75.6877518	-5.00765292	-24.83199972
1.89	189	0.126	-1.83	-0.13	-37.1849742	37.7579322	-11.745639	75.27522204	-4.8128472	-24.49968408
1.9	190	0.154	-1.825	-0.132	-48.3003594	38.961144	-22.0015872	74.75383026	-4.51490904	-24.18455718
1.91	191	0.203	-1.817	-0.163	-58.8427866	38.4454818	-31.7418732	74.12930604	-4.1252976	-23.90380776
1.92	192	0.282	-1.743	-0.185	-61.1346186	35.809875	-40.3362432	73.48759308	-3.65547204	-23.67462456
1.93	193	0.346	-1.616	-0.21	-58.7854908	32.6013102	-46.5814854	72.87452802	-3.13408026	-23.50273716
1.94	194	0.308	-1.428	-0.214	-51.3943326	30.1375908	-51.1078536	72.34167708	-2.57258142	-23.37095682
1.95	195	0.194	-1.271	-0.169	-37.7006364	29.1635622	-53.6861646	71.95779522	-1.98243468	-23.2620948
1.96	196	0.096	-1.102	-0.149	-28.7624916	31.2835068	-53.7434604	71.65985706	-1.38655836	-23.13031446
1.97	197	0	-0.937	-0.083	-18.3919518	36.096354	-51.3370368	71.46505134	-0.8021412	-22.95269748
1.98	198	-0.034	-0.795	-0.028	-9.8548776	42.7426668	-46.982556	71.35618932	-0.23491278	-22.69486638
1.99	199	-0.034	-0.678	-0.017	-2.7501984	48.5295426	-39.6486936	71.31608226	0.27501984	-22.36255074
2	200	-0.02	-0.595	-0.024	-0.3437748	50.1911208	-30.7678446	71.32181184	0.70473834	-21.98439846
2.01	201	-0.007	-0.509	-0.029	-1.0313244	47.269035	-21.2567418	71.31035268	1.04278356	-21.60624618
2.02	202	-0.013	-0.387	-0.013	-0.859437	43.7739912	-10.8289062	71.3046231	1.27196676	-21.22236432
2.03	203	-0.001	-0.29	-0.045	-6.1306506	42.112413	-0.2291832	71.24159772	1.39801752	-20.8270233
2.04	204	0.018	-0.164	-0.148	-16.042824	41.7686382	9.740286	71.08689906	1.42666542	-20.40303438
2.05	205	0.041	-0.045	-0.199	-19.0795014	40.2216516	18.7357266	70.88063418	1.36936962	-19.9675863
2.06	206	0.075	0.043	-0.196	-22.2307704	34.6066632	24.8663772	70.66291014	1.23758928	-19.56078612
2.07	207	0.058	0.133	-0.255	-26.642547	25.0382646	28.3041252	70.39361988	1.04851314	-19.23420006
2.08	208	-0.017	0.23	-0.293	-26.0122932	12.8342592	31.0543236	70.1300592	0.79068204	-19.01647602
2.09	209	-0.1	0.296	-0.176	-17.9908812	1.8334656	32.6013102	69.95244222	0.49274388	-18.89042526
2.1	210	-0.144	0.224	-0.046	-12.1467096	-1.9480572	30.8251404	69.8149323	0.17761698	-18.79875198
2.11	211	-0.103	0.038	-0.26	-26.7571386	3.3231564	22.7464326	69.54564204	-0.01718874	-18.68988996
2.12	212	-0.129	-0.168	-0.285	-31.6845774	23.4339822	11.4018642	69.21905598	-0.05156622	-18.43205886
2.13	213	-0.271	-0.467	-0.112	-36.8984952	2.9793816	-1.3750992	68.84663328	-0.03437748	-18.41487012
2.14	214	-0.452	-0.888	-0.513	-58.728195	-16.042824	-10.4851314	68.25075696	0	-18.60394626
2.15	215	-0.375	-1.529	-0.597	-63.6556338	2.2345362	-15.756345	67.60331442	0.13750992	-18.6497829
2.16	216	0	-1.967	-0.343	-52.3683612	8.5370742	-18.2200644	67.07046348	0.33231564	-18.64405332
2.17	217	0.414	-1.877	-0.247	-43.0864416	6.016059	-19.1367972	66.6350154	0.52139178	-18.66697164
2.18	218	0.669	-1.499	-0.305	-30.7678446	-2.005353	-9.5111028	66.3198885	0.59587632	-18.72426744
2.19	219	0.702	-1.42	-0.322	-22.1734746	-10.5424272	2.6356068	66.09643488	0.53285094	-18.81021114
2.2	220	0.638	-1.219	-0.467	-25.7258142	-18.1054728	9.0527364	65.8328742	0.40680018	-18.94772106
2.21	221	0.498	-1.197	-0.347	-10.1413566	-28.934379	16.615782	65.73547134	0.14896908	-19.14825636
2.22	222	0.392	-1.25	-0.147	-2.5210152	-41.8832298	23.3193906	65.7182826	-0.21772404	-19.43473536
2.23	223	0.264	-1.225	0.035	0.7448454	-52.1964738	24.6944898	65.73547134	-0.64171296	-19.81288764
2.24	224	0.136	-1.233	-0.03	-5.0993262	-59.3584488	23.2620948	65.69536428	-1.07716104	-20.25979488
2.25	225	0.057	-1.231	-0.008	-1.6615782	-63.4837464	22.7464326	65.72974176	-1.52406828	-20.74680918
2.26	226	-0.089	-1.2	-0.008	9.5111028	-65.7755784	22.4026578	65.85006294	-1.9767051	-21.2567418
2.27	227	-0.175	-1.36	0.012	10.0840608	-74.8283148	25.8977016	65.98757286	-2.49809688	-21.83542938
2.28	228	-0.19	-1.161	0.706	43.0291458	-61.2492102	28.934379	66.45739842	-2.98511118	-22.27660704
2.29	229	-0.159	-0.924	0.204	42.112413	-47.6701056	32.4294228	66.90430566	-3.44920716	-22.58600436
2.3	230	-0.367	-1.243	0.276	8.1360036	-35.1223254	22.2880662	67.04754516	-3.79871154	-22.81518756
2.31	231	-0.401	-1.147	-0.023	4.583664	-17.475219	16.3865988	67.09911138	-4.010706	-22.91259042
2.32	232	-0.495	-0.998	0.018	28.361421	-23.9496444	24.350715	67.40277912	-4.32010332	-23.03864118
2.33	233	-0.38	-0.836	0.073	32.0283522	-34.8358464	34.7212548	67.74655392	-4.7555514	-23.2334469
2.34	234	-0.222	-0.7	0.032	35.523396	-35.2942128	33.0023808	68.13043578	-5.17954032	-23.4339822
2.35	235	-0.123	-0.526	-0.082	39.8778768	-30.8251404	24.4080108	68.56015428	-5.50612638	-23.62878792
2.36	236	-0.018	-0.348	-0.187	40.1643558	-34.37748	16.8449652	69.00133194	-5.77541664	-23.88661902
2.37	237	0.088	-0.215	-0.243	40.10706	-36.0390582	10.3705398	69.4425096	-5.98168152	-24.18455718
2.38	238	0.18	-0.169	-0.346	32.8304934	-30.366774	7.448454	69.80920272	-6.14783934	-24.44238828
2.39	239	0.127	-0.147	-0.528	10.3705398	-21.6578124	8.1360036	69.93525348	-6.29107884	-24.62000526
2.4	240	-0.03	-0.088	-0.666	-8.9381448	-11.5737516	10.886202	69.76336608	-6.44004792	-24.68303064
2.41	241	-0.176	-0.038	-0.651	-15.2406828	-2.005353	13.8655836	69.60866742	-6.57755784	-24.65438274
2.42	242	-0.235	-0.007	-0.545	-14.8396122	7.0473834	16.615782	69.4425096	-6.70933818	-24.52833198
2.43	243	-0.213	0.031	-0.405	-17.6471064	13.6364004	21.0848544	69.23624472	-6.86403684	-24.32779668
2.44	244	-0.159	0.102	-0.287	-27.2728008	18.334656	23.2620948	68.9268474	-7.02446508	-24.07569516
2.45	245	-0.08	0.236	-0.208	-34.6066632	19.5951636	22.6891368	68.52004722	-7.17916374	-23.8064049
2.46	246	-0.012	0.224	-0.172	-35.1223254	13.6364004	22.0015872	68.13616536	-7.33959198	-23.60014002
2.47	247	0.013	0.119	-0.157	-37.7579322	2.2345362	21.4286292	67.74082434	-7.5343977	-23.50273716
2.48	248	0.035	0.008	-0.076	-38.8465524	-5.443101	21.0848544	67.34548332	-7.75212174	-23.47981884
2.49	249	0.076	-0.094	-0.033	-42.4561878	-6.589017	21.0275586	66.91576482	-7.97557536	-23.4626301
2.5	250	0.102	-0.161	-0.078	-52.139178	-5.2139178	21.5432208	66.3771843	-8.18184024	-23.42825262
2.51	251	0.068	-0.141	-0.13	-58.2125328	-3.3231564	22.2880662	65.7755784	-8.40529386	-23.3766864
2.52	252	-0.026	-0.071	-0.118	-60.0459984	-2.2345362	22.0015872	65.15678376	-8.6230179	-23.30793144
2.53	253	-0.223	-0.046	-0.056	-63.598338	-1.7761698	20.8556712	64.50361164	-8.8235532	-23.23917648
2.54	254	-0.409	-0.073	-0.037	-72.0208206	9.0527364	21.4286292	63.74730708	-8.98971102	-23.07301866
2.55	255	-0.464	-0.136	-0.063	-87.1469118	31.3980984	21.485925	62.80192638	-9.08711388	-22.6891368
2.56	256	-0.373	-0.209	-0.066	-105.3669762	61.8221682	17.2460358	61.6216329	-8.98398144	-22.058883
2.57	257	-0.239	-0.309	-0.083	-117.45639	80.500599	9.1100322	60.3038295	-8.7089616	-21.30830802
2.58	258	-0.087	-0.496	0.095	-120.1492926	77.5785132	-1.7761698	58.97456694	-8.34226848	-20.64367674
2.59	259	0.063	-0.772	0.087	-149.255559	68.75496	-4.297185	57.37028454	-7.98130494	-20.0821779
2.6	260	0.203	-0.926	-0.191	-190.3939434	71.5624542	3.2085648	55.35347238	-7.64325972	-19.46911284
2.61	261	0.256	-0.896	-0.43	-222.9379578	74.9429064	11.2872726	52.99288542	-7.35105114	-18.79875198
2.62	262	0.202	-0.803	-0.657	-229.2977916	63.2545632	14.4385416	50.58646182	-7.12186794	-18.20860524
2.63	263	0.094	-0.666	-0.659	-213.999813	44.5761324	19.7097552	48.35192562	-7.0187355	-17.74450926
2.64	264	0.021	-0.478	-0.48	-194.519241	37.0703826	24.5226024	46.31792472	-6.98435802	-17.3033316
2.65	265	-0.084	-0.269	-0.147	-193.373325	28.8770832	23.9496444	44.30684214	-6.9900876	-16.9309089
2.66	266	-0.012	0.021	-0.149	-206.2075842	24.923673	18.907614	42.17543838	-6.97289886	-16.62151158
2.67	267	-0.094	0.198	-0.183	-228.896721	24.637194	13.6936962	39.81485142	-6.91560306	-16.3579509
2.68	268	-0.185	0.288	-0.497	-265.5087372	37.7579322	11.0007936	37.07611218	-6.73798608	-16.03136484
2.69	269	-0.394	0.071	-1.023	-316.272816	67.7809314	9.6829902	33.804522	-6.302538	-15.54435054
2.7	270	-0.855	-0.102	-2.139	-378.4960548	110.294415	12.032118	29.87403012	-5.50612638	-14.8396122
2.71	271	-1.335	-0.107	-3.312	-393.908625	143.5832748	17.475219	25.78311	-4.40604702	-13.9801752
2.72	272	-1.264	0.106	-3.98	-365.4326124	136.7077788	24.350715	22.0015872	-3.33461556	-13.16657484
2.73	273	-0.401	0.326	-3.996	-309.970278	103.13244	21.8869956	18.81021114	-2.50955604	-12.56496894
2.74	274	0.232	0.558	-3.996	-270.3788802	59.1865614	30.8824362	16.042824	-2.08556712	-12.06649548
2.75	275	1.275	0.43	-3.996	-282.5828856	34.7785506	42.4561878	13.1493861	-1.89649098	-11.55083328
2.76	276	1.541	0.794	-3.996	-260.1802278	24.7517856	39.1903272	10.49659056	-1.7761698	-11.09819646
2.77	277	0.387	1.443	-3.986	-230.7874824	17.2460358	-4.297185	8.14746276	-1.6329303	-11.09246688
2.78	278	-0.397	1.496	-3.5	-220.5315342	17.1314442	-46.0658232	5.91865614	-1.432395	-11.51072622
2.79	279	0.038	1.166	-2.916	-205.6346262	15.8709366	-55.9207008	3.84454818	-1.25477802	-12.032118
2.8	280	0.414	0.785	-2.412	-181.7995734	17.18874	-41.252976	1.99962342	-1.08289062	-12.41027028
2.81	281	0.564	0.545	-2.143	-155.3862096	8.7089616	-21.199446	0.42398892	-1.00840608	-12.605076
2.82	282	0.705	0.548	-1.715	-122.9567868	6.875496	-7.9641162	-0.81932994	-0.95683986	-12.67383096
2.83	283	0.535	0.617	-1.377	-93.1629708	6.9900876	-3.3231564	-1.76471064	-0.89381448	-12.69674928
2.84	284	0.317	0.633	-1.141	-69.900876	4.0680018	-3.6096354	-2.47517856	-0.86516658	-12.73112676
2.85	285	0.134	0.706	-0.949	-52.3110654	6.302538	-2.6356068	-3.07105488	-0.8021412	-12.75404508
2.86	286	-0.02	0.817	-0.861	-43.258329	9.2246238	0.9167328	-3.51223254	-0.7161975	-12.74258592
2.87	287	-0.131	0.881	-0.817	-40.7373138	9.6829902	5.5003968	-3.93049188	-0.61879464	-12.6910197
2.88	288	-0.151	0.849	-0.8	-41.3102718	8.0787078	9.3392154	-4.34875122	-0.53858052	-12.59361684
2.89	289	-0.153	0.743	-0.756	-43.9458786	6.0733548	9.5111028	-4.79565846	-0.47555514	-12.50194356
2.9	290	-0.101	0.658	-0.725	-49.1025006	5.2712136	6.3598338	-5.38007562	-0.44117766	-12.4331886
2.91	291	-0.056	0.591	-0.714	-54.3164184	4.6409598	0	-5.9301153	-0.4010706	-12.42745902
2.92	292	-0.034	0.532	-0.725	-58.441716	5.2139178	-6.8182002	-6.52599162	-0.36096354	-12.49621398
2.93	293	-0.022	0.497	-0.74	-59.3584488	6.1306506	-12.6623718	-7.12759752	-0.32085648	-12.62226474
2.94	294	-0.006	0.467	-0.73	-57.868758	6.6463128	-16.042824	-7.71774426	-0.28074942	-12.78269298
2.95	295	0.044	0.443	-0.72	-55.3477428	6.5317212	-16.615782	-8.31935016	-0.23491278	-12.9488508
2.96	296	0.093	0.399	-0.716	-51.3943326	6.6463128	-14.896908	-8.84074194	-0.19480572	-13.09781988
2.97	297	0.106	0.333	-0.723	-46.696077	9.5111028	-10.6570188	-9.31629708	-0.12605076	-13.21241148
2.98	298	0.094	0.303	-0.735	-41.6540466	14.4385416	-6.0733548	-9.740286	0	-13.28689602
2.99	299	0.123	0.304	-0.758	-38.3308902	17.4179232	-3.5523396	-10.13562702	0.15469866	-13.34419182
3	300	0.171	0.316	-0.781	-37.6433406	15.6990492	-4.1252976	-10.54815678	0.33231564	-13.41294678
3.01	301	0.2	0.339	-0.806	-36.2682414	11.6883432	-5.9014674	-10.92057948	0.43544808	-13.48170174
3.02	302	0.185	0.346	-0.837	-34.950438	8.4797784	-7.2192708	-11.27581344	0.49847346	-13.56191586
3.03	303	0.121	0.341	-0.881	-32.2002396	6.1306506	-6.6463128	-11.6023995	0.5443101	-13.6364004
3.04	304	0.043	0.308	-0.866	-27.3300966	4.1825934	-4.9847346	-11.88314892	0.572958	-13.68796662
3.05	305	-0.008	0.288	-0.903	-22.4026578	1.4896908	-3.3231564	-12.15243918	0.55576926	-13.71661452
3.06	306	-0.036	0.292	-0.965	-16.8449652	-0.859437	-2.6929026	-12.318597	0.53858052	-13.73953284
3.07	307	-0.036	0.313	-1.002	-8.3651868	-2.6929026	-3.6669312	-12.4045407	0.50420304	-13.76818074
3.08	308	-0.033	0.312	-1.029	-1.3750992	-3.5523396	-5.72958	-12.42172944	0.4583664	-13.81974696
3.09	309	-0.012	0.296	-1.024	3.6669312	-3.2658606	-7.734933	-12.38162238	0.40680018	-13.88850192
3.1	310	0	0.268	-1.018	8.7662574	-2.4064236	-9.2819196	-12.31286742	0.36096354	-13.97444562
3.11	311	-0.01	0.242	-1.009	15.1260912	-1.5469866	-10.3705398	-12.15816876	0.32085648	-14.07184848
3.12	312	-0.027	0.223	-0.989	21.1421502	0.4583664	-11.1153852	-11.9461743	0.30939732	-14.18644008
3.13	313	-0.054	0.231	-0.981	27.5592798	3.3231564	-10.7716104	-11.66542488	0.32085648	-14.30103168
3.14	314	-0.075	0.259	-0.973	35.0077338	6.2452422	-10.4278356	-11.31019092	0.36669312	-14.41562328
3.15	315	-0.09	0.291	-0.946	42.0551172	11.745639	-9.8548776	-10.90339074	0.44690724	-14.53021488
3.16	316	-0.103	0.301	-0.959	44.3469492	15.9282324	-8.4224826	-10.4564835	0.59014674	-14.64480648
3.17	317	-0.111	0.279	-0.943	43.6021038	17.761698	-5.9587632	-10.02103542	0.76203414	-14.73075018
3.18	318	-0.115	0.244	-0.852	43.4302164	17.8189938	-3.437748	-9.57985776	0.93392154	-14.79377556
3.19	319	-0.081	0.205	-0.876	42.97185	18.3919518	-1.8334656	-9.15013926	1.11153852	-14.84534178
3.2	320	-0.062	0.183	-0.94	43.2010332	18.621135	-0.286479	-8.72042076	1.28342592	-14.8682601
3.21	321	-0.043	0.17	-0.975	46.409598	16.5584862	1.6042824	-8.2505952	1.45531332	-14.87971926
3.22	322	-0.031	0.159	-0.977	48.70143	13.8082878	3.2085648	-7.75785132	1.59855282	-14.8682601
3.23	323	-0.019	0.154	-1.027	48.70143	11.1153852	4.1252976	-7.26510744	1.718874	-14.84534178
3.24	324	-0.027	0.158	-1.089	48.7587258	10.026765	3.437748	-6.77236356	1.82773602	-14.82242346
3.25	325	-0.033	0.153	-1.083	49.7327544	9.740286	3.437748	-6.2738901	1.9194093	-14.79950514
3.26	326	-0.025	0.162	-1.111	50.6494872	10.7143146	4.0680018	-5.7582279	2.03973048	-14.77085724
3.27	327	-0.014	0.148	-1.045	53.1705024	12.9488508	4.583664	-5.21964738	2.1772404	-14.73647976
3.28	328	0.004	0.125	-1.03	49.3889796	14.1520626	5.3285094	-4.71544434	2.32620948	-14.6963727
3.29	329	0.013	0.132	-1.064	42.2270046	14.4385416	6.5317212	-4.28572584	2.47517856	-14.64480648
3.3	330	0.019	0.135	-1.077	34.3201842	12.2040054	7.3911582	-3.94768062	2.60122932	-14.57605152
3.31	331	0.048	0.127	-1.128	27.3873924	7.1046792	7.7922288	-3.6669312	2.67571386	-14.50729656
3.32	332	0.123	0.111	-1.115	27.6738714	4.7555514	9.453807	-3.38618178	2.73300966	-14.41562328
3.33	333	0.184	0.079	-1.139	28.0176462	-0.6302538	11.6883432	-3.0939732	2.73873924	-14.30103168
3.34	334	0.229	0.084	-1.154	29.2781538	-7.5630456	14.4385416	-2.79030546	2.66998428	-14.15779218
3.35	335	0.273	0.092	-1.025	34.4920716	-9.5683986	15.9282324	-2.44080108	2.6356068	-14.0088231
3.36	336	0.295	0.086	-0.961	38.2735944	-10.0840608	15.2979786	-2.04546006	2.54393352	-13.85985402
3.37	337	0.267	0.074	-0.948	45.7793442	-9.9694692	11.0580894	-1.56990492	2.45226024	-13.75672158
3.38	338	0.164	0.052	-0.898	49.6754586	-8.7662574	6.5317212	-1.06570188	2.37204612	-13.6936962
3.39	339	0.04	0.057	-0.837	46.0085274	-6.1306506	2.1772404	-0.59587632	2.31475032	-13.67650746
3.4	340	-0.049	0.047	-0.859	28.8197874	-0.6875496	-3.151269	-0.3151269	2.26891368	-13.69942578
3.41	341	-0.134	0.029	-0.939	3.724227	6.302538	-5.9014674	-0.28074942	2.33193906	-13.75672158
3.42	342	-0.191	0.017	-1.064	-24.9809688	12.7769634	-8.8235532	-0.53858052	2.45798982	-13.84266528
3.43	343	-0.175	0.067	-1.036	-39.820581	25.4393352	-10.1986524	-0.95111028	2.70436176	-13.93433856
3.44	344	-0.064	0.062	-1.018	-40.2789474	34.5493674	-8.8235532	-1.36936962	3.0366774	-14.02028226
3.45	345	0.203	-0.036	-1.029	-50.1911208	46.3523022	-2.578311	-1.88503182	3.51796212	-14.04893016
3.46	346	0.428	-0.103	-1.16	-48.8160216	10.6570188	7.2192708	-2.37204612	3.62109456	-13.96871604
3.47	347	0.347	-0.178	-0.883	-35.1223254	-36.0390582	9.7975818	-2.7215505	3.2658606	-13.8655836
3.48	348	0.397	-0.212	-0.666	-21.8296998	-36.7266078	17.0741484	-2.92781538	2.90489706	-13.68223704
3.49	349	0.316	-0.247	-0.53	-15.9855282	-35.8671708	24.5226024	-3.07105488	2.56112226	-13.43013552
3.5	350	0.189	-0.258	-0.492	-24.1788276	-22.8610242	23.9496444	-3.27731976	2.36058696	-13.18376358
3.51	351	0.067	-0.201	-0.574	-36.5547204	-12.4904844	17.18874	-3.6382833	2.24026578	-13.0061466
3.52	352	-0.056	-0.142	-0.679	-41.9978214	0.2291832	4.297185	-4.06227222	2.24026578	-12.96030996
3.53	353	-0.125	-0.142	-0.867	-41.7113424	11.172681	-8.4224826	-4.49199072	2.34339822	-13.04625366
3.54	354	-0.15	-0.162	-1.023	-38.7892566	13.3499214	-13.6936962	-4.89306132	2.45798982	-13.18376358
3.55	355	-0.152	-0.192	-1.123	-32.2002396	13.0634424	-9.1100322	-5.19672906	2.5496631	-13.27543686
3.56	356	-0.1	-0.196	-1.175	-28.8770832	12.032118	-0.1718874	-5.48893764	2.6642547	-13.28116644
3.57	357	-0.011	-0.113	-1.208	-23.6058696	10.9434978	7.3911582	-5.72958	2.7788463	-13.21241148
3.58	358	0.08	0.017	-1.255	-14.9542038	7.8495246	11.0007936	-5.8728195	2.86479	-13.10927904
3.59	359	0.179	0.148	-1.256	-6.8182002	1.432395	10.4278356	-5.94157446	2.88770832	-13.0061466
3.6	360	0.25	0.233	-1.164	-1.432395	-5.7868758	6.875496	-5.9874111	2.8934379	-12.94312122
3.61	361	0.253	0.239	-1.043	0.7448454	-12.032118	3.6096354	-5.97595194	2.7788463	-12.90301416
3.62	362	0.196	0.212	-0.962	0.4010706	-17.5898106	4.1825934	-5.96449278	2.61268848	-12.84571836
3.63	363	0.121	0.212	-0.931	-3.7815228	-21.8296998	7.1046792	-5.99887026	2.40069402	-12.75977466
3.64	364	0.056	0.238	-0.922	-6.1306506	-22.7464326	9.5111028	-6.05616606	2.18869956	-12.64518306
3.65	365	0.007	0.267	-0.914	-5.156622	-19.4232762	10.1986524	-6.1592985	1.98816426	-12.52486188
3.66	366	-0.019	0.273	-0.926	-3.9534102	-13.5791046	10.026765	-6.19367598	1.8621135	-12.41599986
3.67	367	-0.043	0.258	-0.958	-3.8961144	-7.9641162	9.7975818	-6.22805346	1.79335854	-12.31286742
3.68	368	-0.056	0.234	-0.984	-4.870143	-4.583664	9.6829902	-6.2738901	1.75898106	-12.21546456
3.69	369	-0.07	0.227	-1.011	-6.4171296	-2.1772404	9.2819196	-6.33691548	1.7475219	-12.1180617
3.7	370	-0.084	0.219	-1.021	-6.9327918	0	8.4797784	-6.46296624	1.67303736	-12.02065884
3.71	371	-0.079	0.21	-1.011	-6.4744254	1.7761698	8.1932994	-6.52599162	1.70168526	-11.94044472
3.72	372	-0.05	0.198	-1.004	-4.4117766	3.8961144	7.734933	-6.57182826	1.7475219	-11.86596018
3.73	373	-0.019	0.185	-0.987	-3.3231564	6.1306506	7.2192708	-6.60620574	1.81627686	-11.79720522
3.74	374	0.009	0.197	-0.965	-3.6669312	7.448454	6.4744254	-6.64058322	1.89649098	-11.73990942
3.75	375	0.025	0.22	-0.951	-2.86479	7.3338624	5.72958	-6.7609044	1.95951636	-11.6883432
3.76	376	0.021	0.249	-0.945	-2.6356068	6.9327918	4.297185	-6.78382272	2.0340009	-11.65396572
3.77	377	0.025	0.26	-0.953	-2.291832	6.016059	3.9534102	-6.80674104	2.09702628	-11.61958824
3.78	378	0.028	0.259	-0.956	-1.145916	4.010706	5.5003968	-6.8182002	2.14286292	-11.56802202
3.79	379	0.035	0.248	-0.963	-0.1718874	2.4637194	7.0473834	-6.8182002	2.1772404	-11.49926706
3.8	380	0.044	0.237	-0.972	0	1.9480572	7.5057498	-6.94998054	2.2058883	-11.4305121
3.81	381	0.051	0.229	-0.981	0.1718874	1.8907614	6.7036086	-6.94998054	2.22880662	-11.36748672
3.82	382	0.052	0.214	-0.987	0.8021412	2.005353	4.9847346	-6.93852138	2.25745452	-11.32165008
3.83	383	0.05	0.192	-0.989	1.4896908	2.8074942	3.0366774	-6.92133264	2.28610242	-11.29300218
3.84	384	0.054	0.165	-0.99	2.0626488	4.2398892	1.0313244	-6.89841432	2.33193906	-11.2872726
3.85	385	0.063	0.139	-0.998	3.0366774	5.8441716	-0.6302538	-6.89268474	2.4064236	-11.30446134
3.86	386	0.073	0.116	-1.003	4.1825934	7.2765666	-1.9480572	-6.85257768	2.47517856	-11.32737966
3.87	387	0.082	0.097	-1.005	5.6149884	8.7662574	-2.578311	-6.79528188	2.56112226	-11.36175714
3.88	388	0.092	0.082	-1.007	6.7036086	9.453807	-2.6929026	-6.7322565	2.64706596	-11.4018642
3.89	389	0.098	0.063	-1.001	7.3911582	9.5111028	-2.6929026	-6.65777196	2.73873924	-11.43624168
3.9	390	0.107	0.046	-0.991	7.9068204	9.5111028	-2.8074942	-6.5603691	2.86479	-11.47634874
3.91	391	0.115	0.032	-0.977	8.0787078	9.3392154	-2.9793816	-6.48015498	2.9507337	-11.5164558
3.92	392	0.119	0.026	-0.966	8.0787078	8.9954406	-3.437748	-6.39994086	3.0366774	-11.56229244
3.93	393	0.121	0.03	-0.957	7.2192708	8.4797784	-3.8961144	-6.3311859	3.11689152	-11.60812908
3.94	394	0.124	0.043	-0.952	5.72958	7.6203414	-4.1252976	-6.2738901	3.19137606	-11.65396572
3.95	395	0.132	0.057	-0.952	3.4950438	5.7868758	-4.0680018	-6.22805346	3.31169724	-11.71126152
3.96	396	0.139	0.075	-0.959	1.9480572	2.9793816	-3.9534102	-6.21086472	3.34034514	-11.75709816
3.97	397	0.143	0.088	-0.969	1.0313244	-0.2291832	-3.437748	-6.19940556	3.33461556	-11.79147564
3.98	398	0.145	0.105	-0.975	0.5156622	-3.3804522	-2.86479	-6.19367598	3.30023808	-11.81439396
3.99	399	0.142	0.124	-0.981	0.5156622	-5.9014674	-2.291832	-6.1879464	3.2372127	-11.8315827
4	400	0.135	0.141	-0.981	0.5156622	-7.3911582	-2.1772404	-6.23951262	3.23148312	-11.86596018
4.01	401	0.12	0.156	-0.973	0.286479	-8.7089616	-2.5210152	-6.23378304	3.13980984	-11.88314892
4.02	402	0.108	0.167	-0.972	1.0886202	-9.1100322	-3.2085648	-6.22232388	3.04813656	-11.91179682
4.03	403	0.089	0.167	-0.98	2.291832	-9.5111028	-3.6669312	-6.19940556	2.9507337	-11.94044472
4.04	404	0.072	0.161	-0.985	2.6929026	-9.5683986	-4.010706	-6.17075766	2.85333084	-11.9748222
4.05	405	0.06	0.158	-0.988	2.7501984	-8.880849	-4.010706	-6.1879464	2.75592798	-12.00919968
4.06	406	0.048	0.157	-0.99	3.0366774	-8.1360036	-3.5523396	-6.15356892	2.67571386	-12.03784758
4.07	407	0.038	0.156	-0.987	3.2085648	-7.5057498	-2.9220858	-6.12492102	2.59549974	-12.0607659
4.08	408	0.029	0.156	-0.986	3.151269	-6.6463128	-2.291832	-6.09054354	2.53247436	-12.07795464
4.09	409	0.022	0.158	-0.986	3.0366774	-5.6722842	-1.8907614	-6.06189564	2.46944898	-12.09514338
4.1	410	0.014	0.159	-0.988	2.578311	-4.9274388	-1.4896908	-6.11346186	2.37204612	-12.10087296
4.11	411	0.012	0.16	-0.984	2.1772404	-4.297185	-1.3178034	-6.09054354	2.32620948	-12.10660254
4.12	412	0.012	0.158	-0.98	1.7761698	-4.010706	-1.2032118	-6.0733548	2.28610242	-12.1180617
4.13	413	0.013	0.154	-0.979	1.432395	-3.7815228	-1.145916	-6.05616606	2.24599536	-12.12379128
4.14	414	0.012	0.146	-0.983	1.0313244	-3.4950438	-1.0313244	-6.05043648	2.21161788	-12.13525044
4.15	415	0.01	0.14	-0.985	0.8021412	-3.3231564	-0.7448454	-6.13638018	2.09702628	-12.12952086
4.16	416	0.01	0.133	-0.985	0.8021412	-3.3804522	-0.4583664	-6.1306506	2.0626488	-12.12952086
4.17	417	0.01	0.126	-0.986	0.859437	-3.4950438	-0.2291832	-6.11919144	2.02827132	-12.12952086
4.18	418	0.01	0.121	-0.982	1.145916	-3.4950438	0	-6.10773228	1.99389384	-12.12379128
4.19	419	0.012	0.116	-0.978	1.3178034	-3.437748	0	-6.09054354	1.95951636	-12.12379128
4.2	420	0.012	0.113	-0.98	1.432395	-3.3231564	0	-6.12492102	1.8621135	-12.10660254
4.21	421	0.012	0.11	-0.986	1.6615782	-2.9220858	-0.1718874	-6.10773228	1.8334656	-12.10660254
4.22	422	0.013	0.108	-0.988	2.005353	-2.4064236	-0.286479	-6.09054354	1.81054728	-12.11233212
4.23	423	0.017	0.105	-0.988	2.291832	-1.7761698	-0.3437748	-6.06762522	1.78762896	-12.11233212
4.24	424	0.021	0.102	-0.986	2.291832	-1.2605076	-0.3437748	-6.0447069	1.7761698	-12.1180617
4.25	425	0.026	0.102	-0.985	2.4637194	-0.572958	-0.4583664	-6.06189564	1.74179232	-12.1180617
4.26	426	0.031	0.102	-0.987	2.7501984	-0.1145916	-0.5156622	-6.03324774	1.74179232	-12.12379128
4.27	427	0.037	0.103	-0.988	2.9220858	0.4583664	-0.6302538	-6.00459984	1.74179232	-12.12952086
4.28	428	0.043	0.106	-0.989	3.0366774	0.9740286	-0.6875496	-5.97595194	1.75325148	-12.13525044
4.29	429	0.049	0.108	-0.986	3.2085648	1.4896908	-0.8021412	-5.94157446	1.77044022	-12.1467096
4.3	430	0.055	0.111	-0.979	3.3804522	1.7761698	-0.8021412	-5.95303362	1.81627686	-12.16389834
4.31	431	0.059	0.116	-0.975	3.437748	1.9480572	-0.8021412	-5.91865614	1.8334656	-12.1753575
4.32	432	0.062	0.117	-0.974	3.2658606	2.1772404	-0.9167328	-5.89000824	1.85638392	-12.18681666
4.33	433	0.064	0.118	-0.977	2.7501984	2.3491278	-0.859437	-5.86136034	1.87930224	-12.19827582
4.34	434	0.064	0.12	-0.982	2.2345362	2.2345362	-0.6302538	-5.83844202	1.90222056	-12.2040054
4.35	435	0.064	0.121	-0.984	1.9480572	1.718874	-0.4010706	-5.91292656	1.9767051	-12.22692372
4.36	436	0.062	0.121	-0.984	1.8907614	1.2032118	-0.1718874	-5.89573782	1.98816426	-12.22692372
4.37	437	0.06	0.122	-0.981	1.8334656	0.5156622	-0.0572958	-5.87854908	1.99389384	-12.2326533
4.38	438	0.059	0.124	-0.977	2.005353	0.1145916	-0.0572958	-5.85563076	1.99389384	-12.2326533
4.39	439	0.057	0.127	-0.977	2.1199446	-0.1718874	-0.0572958	-5.83271244	1.99389384	-12.2326533
4.4	440	0.055	0.127	-0.98	2.1772404	-0.3437748	-0.1718874	-5.95303362	2.02827132	-12.24984204
4.41	441	0.053	0.126	-0.982	2.005353	-0.4583664	-0.2291832	-5.93584488	2.02827132	-12.24984204
4.42	442	0.052	0.126	-0.981	1.7761698	-0.572958	-0.3437748	-5.91292656	2.02254174	-12.25557162
4.43	443	0.051	0.121	-0.981	1.5469866	-0.4583664	-0.4010706	-5.9014674	2.01681216	-12.25557162
4.44	444	0.049	0.119	-0.981	1.432395	-0.4010706	-0.2291832	-5.88427866	2.01108258	-12.2613012
4.45	445	0.049	0.117	-0.983	1.3178034	-0.4583664	-0.2291832	-6.00459984	2.02827132	-12.27276036
4.46	446	0.048	0.116	-0.986	1.4896908	-0.5156622	-0.286479	-5.9874111	2.02827132	-12.27276036
4.47	447	0.052	0.112	-0.986	1.432395	0.1718874	-0.0572958	-5.97595194	2.02827132	-12.27276036
4.48	448	0.053	0.107	-0.979	0.2291832	0.8021412	0.0572958	-5.97022236	2.0340009	-12.27276036
4.49	449	0.054	0.104	-0.972	-1.2032118	0.1718874	0.0572958	-5.98168152	2.03973048	-12.27276036
4.5	450	0.056	0.107	-0.968	-0.6875496	-0.7448454	-0.2291832	-6.1020027	2.09702628	-12.29567868
4.51	451	0.054	0.104	-0.969	0.4583664	-1.3750992	-0.4583664	-6.09627312	2.08556712	-12.29567868
4.52	452	0.05	0.101	-0.978	0	-1.718874	-0.6302538	-6.09627312	2.06837838	-12.30140826
4.53	453	0.049	0.107	-0.987	-0.8021412	-1.432395	-0.6875496	-6.1020027	2.05118964	-12.30713784
4.54	454	0.048	0.11	-0.989	-0.4010706	-1.2605076	-0.6302538	-6.10773228	2.03973048	-12.31286742
4.55	455	0.046	0.11	-0.988	0.0572958	-1.4896908	-0.6875496	-6.18221682	2.02827132	-12.32432658
4.56	456	0.043	0.111	-0.988	0.6302538	-1.8334656	-0.6875496	-6.17648724	2.01108258	-12.33005616
4.57	457	0.04	0.11	-0.986	1.0886202	-1.8334656	-0.7448454	-6.16502808	1.99389384	-12.33578574
4.58	458	0.039	0.111	-0.984	1.2605076	-1.718874	-0.8021412	-6.15356892	1.97097552	-12.34151532
4.59	459	0.039	0.112	-0.984	1.2032118	-1.5469866	-0.859437	-6.13638018	1.95951636	-12.35297448
4.6	460	0.038	0.113	-0.982	1.0313244	-1.3750992	-0.8021412	-6.19367598	1.93086846	-12.35870406
4.61	461	0.039	0.113	-0.981	0.9167328	-1.145916	-0.7448454	-6.18221682	1.9194093	-12.36443364
4.62	462	0.04	0.113	-0.98	0.7448454	-0.9740286	-0.6302538	-6.17648724	1.90795014	-12.37016322
4.63	463	0.038	0.111	-0.982	0.5156622	-0.859437	-0.4583664	-6.17075766	1.90222056	-12.3758928
4.64	464	0.037	0.112	-0.984	0.3437748	-0.6302538	-0.4010706	-6.16502808	1.8907614	-12.38162238
4.65	465	0.036	0.112	-0.985	0.1718874	-0.4010706	-0.3437748	-6.42285918	1.81627686	-12.38162238
4.66	466	0.035	0.114	-0.984	0.1718874	-0.286479	-0.2291832	-6.4171296	1.81627686	-12.38162238
4.67	467	0.036	0.114	-0.984	0.2291832	-0.1145916	-0.1145916	-6.4171296	1.81627686	-12.38162238
4.68	468	0.037	0.114	-0.983	0.2291832	0.0572958	-0.0572958	-6.41140002	1.81627686	-12.38162238
4.69	469	0.037	0.113	-0.987	0.1718874	0.1145916	0	-6.41140002	1.81627686	-12.38735196
4.7	470	0.038	0.113	-0.989	0.1145916	0.0572958	0	-6.77809314	1.76471064	-12.38735196
4.71	471	0.037	0.113	-0.988	0.3437748	0.286479	0	-6.77809314	1.76471064	-12.38735196
4.72	472	0.037	0.112	-0.985	0.572958	0.2291832	0.0572958	-6.77236356	1.77044022	-12.38735196
4.73	473	0.038	0.111	-0.982	0.6302538	0.286479	0	-6.7609044	1.77044022	-12.38735196
4.74	474	0.04	0.109	-0.982	0.572958	0.286479	0	-6.75517482	1.7761698	-12.38735196
4.75	475	0.04	0.111	-0.984	0.4010706	0.2291832	-0.0572958	-6.86403684	1.79908812	-12.39881112
4.76	476	0.042	0.111	-0.986	0.3437748	0.4010706	-0.0572958	-6.86403684	1.8048177	-12.39881112
4.77	477	0.044	0.111	-0.987	0.4010706	0.286479	0	-6.85830726	1.81054728	-12.39881112
4.78	478	0.046	0.112	-0.985	0.572958	0.1718874	0	-6.85257768	1.81054728	-12.39881112
4.79	479	0.048	0.111	-0.981	0.7448454	0.0572958	0	-6.84111852	1.81054728	-12.39881112
4.8	480	0.051	0.11	-0.977	0.7448454	0	-0.0572958	-6.90987348	1.87930224	-12.41599986
4.81	481	0.052	0.108	-0.978	0.6302538	-0.0572958	-0.1718874	-6.9041439	1.87357266	-12.41599986
4.82	482	0.05	0.108	-0.982	0.572958	0	-0.1145916	-6.89841432	1.87357266	-12.41599986
4.83	483	0.048	0.107	-0.986	0.4010706	0.0572958	-0.1145916	-6.89268474	1.87357266	-12.41599986
4.84	484	0.047	0.108	-0.987	0.3437748	0.1145916	-0.1145916	-6.88695516	1.87930224	-12.42172944
4.85	485	0.048	0.108	-0.985	0.6302538	0.0572958	-0.1718874	-6.92706222	1.9194093	-12.4331886
4.86	486	0.049	0.107	-0.981	0.9740286	0.1145916	-0.286479	-6.92133264	1.9194093	-12.4331886
4.87	487	0.05	0.106	-0.982	1.0313244	0.0572958	-0.286479	-6.90987348	1.9194093	-12.43891818
4.88	488	0.048	0.105	-0.984	0.8021412	0	-0.3437748	-6.89841432	1.9194093	-12.43891818
4.89	489	0.045	0.107	-0.986	0.6875496	-0.1718874	-0.286479	-6.89268474	1.9194093	-12.44464776
4.9	490	0.043	0.11	-0.987	0.6302538	-0.2291832	-0.286479	-6.92706222	1.9194093	-12.45037734
4.91	491	0.043	0.111	-0.985	0.9167328	-0.4010706	-0.286479	-6.92133264	1.91367972	-12.45037734
4.92	492	0.045	0.113	-0.984	1.3750992	-0.4010706	-0.4010706	-6.9041439	1.90795014	-12.45610692
4.93	493	0.046	0.112	-0.986	1.8907614	-0.2291832	-0.4583664	-6.88695516	1.90222056	-12.4618365
4.94	494	0.045	0.111	-0.991	2.005353	-0.1145916	-0.4583664	-6.86403684	1.90222056	-12.46756608
4.95	495	0.043	0.11	-0.992	1.8907614	-0.1145916	-0.4583664	-6.86976642	1.90222056	-12.47329566
4.96	496	0.041	0.108	-0.993	1.6042824	0	-0.286479	-6.85830726	1.90222056	-12.47329566
4.97	497	0.04	0.11	-0.992	1.718874	0	-0.1145916	-6.83538894	1.90222056	-12.47902524
4.98	498	0.039	0.112	-0.992	2.291832	-0.1718874	-0.0572958	-6.81247062	1.90222056	-12.47902524
4.99	499	0.04	0.112	-0.991	3.0366774	-0.1145916	-0.1145916	-6.78382272	1.90222056	-12.47902524
5	500	0.043	0.109	-0.987	3.0939732	0.1718874	-0.0572958	-6.76663398	1.90795014	-12.47902524
5.01	501	0.043	0.104	-0.985	2.5210152	0.286479	0	-6.74371566	1.90795014	-12.48475482
5.02	502	0.042	0.1	-0.98	1.8907614	0.0572958	0	-6.72079734	1.90795014	-12.48475482
5.03	503	0.04	0.098	-0.978	1.6042824	-0.1718874	0	-6.7036086	1.90795014	-12.48475482
5.04	504	0.04	0.099	-0.977	1.6615782	-0.2291832	0	-6.68641986	1.90795014	-12.48475482
5.05	505	0.042	0.104	-0.98	1.718874	-0.1145916	0	-6.7036086	1.90795014	-12.48475482
5.06	506	0.043	0.108	-0.982	1.718874	0	0	-6.68641986	1.90795014	-12.48475482
5.07	507	0.044	0.108	-0.986	1.7761698	0.1145916	0	-6.66923112	1.90795014	-12.48475482
5.08	508	0.043	0.106	-0.99	1.8907614	0.0572958	-0.0572958	-6.6463128	1.90795014	-12.48475482
5.09	509	0.043	0.104	-0.99	1.9480572	0	-0.0572958	-6.62912406	1.90795014	-12.48475482
5.1	510	0.04	0.105	-0.991	2.291832	-0.1145916	0	-6.62912406	1.90222056	-12.48475482
5.11	511	0.04	0.103	-0.99	2.6356068	-0.0572958	-0.0572958	-6.60047616	1.90222056	-12.48475482
5.12	512	0.04	0.103	-0.99	3.0366774	0	-0.0572958	-6.56609868	1.90222056	-12.4904844
5.13	513	0.039	0.103	-0.988	3.2085648	-0.0572958	-0.1145916	-6.53745078	1.90222056	-12.4904844
5.14	514	0.038	0.101	-0.988	3.2658606	0	-0.2291832	-6.5030733	1.90222056	-12.4904844
5.15	515	0.039	0.101	-0.985	3.3231564	0	-0.286479	-6.48015498	1.90222056	-12.49621398
5.16	516	0.041	0.1	-0.984	3.2658606	0.0572958	-0.286479	-6.4457775	1.90222056	-12.50194356
5.17	517	0.042	0.098	-0.981	3.0939732	0.0572958	-0.286479	-6.4171296	1.90222056	-12.50194356
5.18	518	0.044	0.096	-0.98	3.0366774	0.1145916	-0.3437748	-6.38275212	1.90222056	-12.50767314
5.19	519	0.045	0.095	-0.982	2.9220858	0.1718874	-0.286479	-6.35410422	1.90795014	-12.51340272
5.2	520	0.044	0.092	-0.986	2.6929026	0.1145916	-0.1718874	-6.33691548	1.91367972	-12.51340272
5.21	521	0.044	0.093	-0.986	2.4637194	0.0572958	-0.1145916	-6.30826758	1.91367972	-12.5191323
5.22	522	0.045	0.093	-0.986	2.4637194	0.0572958	-0.0572958	-6.28534926	1.91367972	-12.5191323
5.23	523	0.046	0.091	-0.987	2.6929026	0.286479	0.0572958	-6.25670136	1.9194093	-12.5191323
5.24	524	0.044	0.09	-0.987	2.6929026	0.3437748	0	-6.22805346	1.9194093	-12.5191323
5.25	525	0.041	0.09	-0.988	2.578311	0.1145916	0	-6.21086472	1.9194093	-12.5191323
5.26	526	0.041	0.09	-0.986	2.578311	0.1145916	0	-6.18221682	1.9194093	-12.5191323
5.27	527	0.042	0.09	-0.983	2.5210152	0.2291832	0	-6.1592985	1.92513888	-12.5191323
5.28	528	0.043	0.089	-0.981	2.5210152	0.3437748	0	-6.1306506	1.92513888	-12.5191323
5.29	529	0.044	0.089	-0.983	2.3491278	0.4583664	0.1145916	-6.10773228	1.93086846	-12.5191323
5.3	530	0.044	0.089	-0.985	2.1199446	0.4010706	0.1718874	-6.09054354	1.94232762	-12.5191323
5.31	531	0.046	0.091	-0.985	2.1772404	0.3437748	0.286479	-6.06762522	1.9480572	-12.51340272
5.32	532	0.047	0.091	-0.985	2.1199446	0.4010706	0.286479	-6.05043648	1.95378678	-12.51340272
5.33	533	0.046	0.092	-0.985	2.2345362	0.1718874	0.286479	-6.02751816	1.95378678	-12.50767314
5.34	534	0.045	0.092	-0.984	2.1199446	0.2291832	0.286479	-6.00459984	1.95378678	-12.50767314
5.35	535	0.043	0.092	-0.986	2.1772404	0.286479	0.286479	-5.99887026	1.95951636	-12.50767314
5.36	536	0.041	0.092	-0.986	2.2345362	0.4583664	0.2291832	-5.97595194	1.96524594	-12.50194356
5.37	537	0.042	0.091	-0.986	2.2345362	0.572958	0.1718874	-5.95303362	1.97097552	-12.50194356
5.38	538	0.043	0.089	-0.986	2.2345362	0.5156622	0.1145916	-5.9301153	1.9767051	-12.50194356
5.39	539	0.044	0.089	-0.985	2.3491278	0.286479	0.1145916	-5.9014674	1.98243468	-12.50194356
5.4	540	0.044	0.087	-0.985	2.4637194	0.1145916	0.0572958	-5.89000824	1.98816426	-12.50194356
5.41	541	0.044	0.088	-0.983	2.4064236	0.0572958	0.0572958	-5.86708992	1.98816426	-12.50194356
5.42	542	0.043	0.087	-0.983	2.4064236	-0.0572958	0	-5.83844202	1.98816426	-12.50194356
5.43	543	0.041	0.087	-0.984	2.4064236	0	-0.0572958	-5.8155237	1.98816426	-12.50194356
5.44	544	0.042	0.088	-0.982	2.3491278	0.2291832	-0.0572958	-5.79260538	1.98816426	-12.50194356
5.45	545	0.041	0.086	-0.983	2.2345362	0.8021412	0	-5.78114622	1.99389384	-12.50194356
5.46	546	0.041	0.086	-0.985	2.2345362	1.0886202	0.0572958	-5.7582279	2.005353	-12.50194356
5.47	547	0.04	0.083	-0.986	1.8334656	1.3178034	0.2291832	-5.74103916	2.01681216	-12.50194356
5.48	548	0.04	0.082	-0.99	-0.4010706	1.0886202	0.3437748	-5.74103916	2.02827132	-12.50194356
5.49	549	0.039	0.084	-0.993	-0.9740286	0.8021412	0.4583664	-5.75249832	2.03973048	-12.49621398
5.5	550	0.04	0.084	-0.993	-0.4583664	0.9740286	0.5156622	-5.76395748	2.03973048	-12.4904844
5.51	551	0.044	0.081	-0.985	-0.4010706	1.3750992	0.5156622	-5.76968706	2.05691922	-12.48475482
5.52	552	0.047	0.079	-0.978	-0.859437	1.718874	0.572958	-5.78114622	2.07410796	-12.47902524
5.53	553	0.047	0.075	-0.974	-1.3750992	1.4896908	0.5156622	-5.79260538	2.0912967	-12.47902524
5.54	554	0.045	0.074	-0.976	-1.8907614	0.9740286	0.572958	-5.80979412	2.09702628	-12.47329566
5.55	555	0.044	0.075	-0.981	-2.3491278	0.9167328	0.572958	-5.83271244	2.10848544	-12.46756608
5.56	556	0.044	0.08	-0.988	-2.6356068	1.0313244	0.859437	-5.85563076	2.1199446	-12.45610692
5.57	557	0.045	0.085	-0.992	-2.578311	1.145916	0.9740286	-5.88427866	2.13140376	-12.45037734
5.58	558	0.044	0.088	-0.995	-2.2345362	1.0313244	0.9740286	-5.90719698	2.14286292	-12.43891818
5.59	559	0.043	0.089	-0.993	-1.6615782	0.6302538	0.7448454	-5.92438572	2.1485925	-12.4331886
5.6	560	0.044	0.088	-0.991	-1.2605076	0.4583664	0.572958	-5.94157446	2.15432208	-12.42745902
5.61	561	0.046	0.087	-0.989	-1.0886202	0.4583664	0.3437748	-5.95303362	2.15432208	-12.42172944
5.62	562	0.047	0.086	-0.988	-0.859437	0.5156622	0.1145916	-5.96449278	2.16005166	-12.42172944
5.63	563	0.049	0.085	-0.985	-0.7448454	0.5156622	0	-5.97022236	2.16578124	-12.42172944
5.64	564	0.052	0.083	-0.984	-0.6302538	0.3437748	-0.1718874	-5.97595194	2.17151082	-12.42172944
5.65	565	0.054	0.082	-0.984	-0.5156622	0.1718874	-0.2291832	-5.9874111	2.21161788	-12.4331886
5.66	566	0.055	0.082	-0.986	-0.572958	0	-0.286479	-5.99314068	2.21161788	-12.4331886
5.67	567	0.057	0.082	-0.988	-0.5156622	-0.1718874	-0.3437748	-5.99887026	2.21161788	-12.43891818
5.68	568	0.057	0.081	-0.987	-0.3437748	-0.4010706	-0.4010706	-6.00459984	2.2058883	-12.44464776
5.69	569	0.058	0.08	-0.984	-0.286479	-0.6302538	-0.4583664	-6.01032942	2.20015872	-12.44464776
5.7	570	0.059	0.08	-0.984	-0.4010706	-0.7448454	-0.5156622	-6.00459984	2.22880662	-12.45610692
5.71	571	0.06	0.079	-0.985	-0.572958	-0.859437	-0.6302538	-6.01032942	2.21734746	-12.4618365
5.72	572	0.058	0.077	-0.987	-0.7448454	-0.9167328	-0.6875496	-6.02178858	2.21161788	-12.46756608
5.73	573	0.056	0.077	-0.986	-0.8021412	-1.0313244	-0.6875496	-6.02751816	2.20015872	-12.47329566
5.74	574	0.054	0.075	-0.99	-0.6302538	-0.9740286	-0.5156622	-6.03324774	2.18869956	-12.47902524
5.75	575	0.05	0.073	-0.991	-0.6302538	-0.7448454	-0.286479	-6.01032942	2.18869956	-12.47902524
5.76	576	0.046	0.073	-0.991	-0.7448454	-0.6875496	-0.1145916	-6.016059	2.18296998	-12.48475482
5.77	577	0.045	0.073	-0.985	-0.8021412	-0.7448454	-0.0572958	-6.02751816	2.17151082	-12.48475482
5.78	578	0.044	0.072	-0.981	-0.9167328	-0.572958	0	-6.03324774	2.16578124	-12.48475482
5.79	579	0.043	0.071	-0.982	-1.0886202	-0.572958	0	-6.0447069	2.16005166	-12.47902524
5.8	580	0.042	0.072	-0.984	-1.3750992	-0.4583664	0	-6.02751816	2.14286292	-12.47902524
5.81	581	0.04	0.074	-0.985	-1.432395	-0.4010706	0.1145916	-6.0447069	2.13713334	-12.47329566
5.82	582	0.04	0.074	-0.986	-1.5469866	-0.4583664	0.1145916	-6.05616606	2.13140376	-12.47329566
5.83	583	0.039	0.075	-0.986	-1.4896908	-0.4010706	0.1718874	-6.0733548	2.12567418	-12.47329566
5.84	584	0.04	0.075	-0.985	-1.432395	-0.286479	0.3437748	-6.09054354	2.12567418	-12.46756608
5.85	585	0.041	0.075	-0.984	-1.3178034	-0.286479	0.286479	-6.07908438	2.11421502	-12.4618365
5.86	586	0.041	0.076	-0.983	-1.145916	-0.3437748	0.1718874	-6.09054354	2.10848544	-12.45610692
5.87	587	0.043	0.076	-0.984	-1.145916	-0.2291832	0.1145916	-6.1020027	2.10275586	-12.45610692
5.88	588	0.044	0.075	-0.985	-1.3178034	-0.3437748	0.0572958	-6.11346186	2.10275586	-12.45610692
5.89	589	0.045	0.076	-0.984	-1.3750992	-0.5156622	0	-6.12492102	2.09702628	-12.45610692
5.9	590	0.044	0.075	-0.984	-1.3750992	-0.7448454	-0.0572958	-6.11919144	2.0912967	-12.45610692
5.91	591	0.046	0.074	-0.984	-1.2605076	-0.9167328	-0.1718874	-6.1306506	2.07983754	-12.45610692
5.92	592	0.046	0.073	-0.982	-1.2032118	-0.9167328	-0.2291832	-6.14783934	2.06837838	-12.45610692
5.93	593	0.048	0.072	-0.983	-1.4896908	-0.859437	-0.3437748	-6.1592985	2.0626488	-12.4618365
5.94	594	0.049	0.072	-0.984	-1.5469866	-0.7448454	-0.3437748	-6.17648724	2.05118964	-12.4618365
5.95	595	0.049	0.072	-0.986	-1.6615782	-0.4583664	-0.3437748	-6.17075766	2.05691922	-12.46756608
5.96	596	0.047	0.073	-0.991	-1.718874	-0.4010706	-0.2291832	-6.1879464	2.05691922	-12.46756608
5.97	597	0.046	0.074	-0.988	-2.005353	-0.572958	-0.2291832	-6.21086472	2.04546006	-12.47329566
5.98	598	0.045	0.072	-0.984	-2.3491278	-0.0572958	-0.1145916	-6.23378304	2.04546006	-12.47329566
5.99	599	0.047	0.073	-0.984	-2.5210152	0.2291832	-0.0572958	-6.25670136	2.05118964	-12.47329566
6	600	0.049	0.075	-0.99	-2.3491278	0.286479	-0.1145916	-6.25670136	2.0626488	-12.47329566
6.01	601	0.052	0.072	-0.988	-2.2345362	0.1718874	-0.0572958	-6.27961968	2.0626488	-12.47329566
6.02	602	0.054	0.069	-0.981	-2.7501984	0.4583664	0.0572958	-6.30826758	2.06837838	-12.47329566
6.03	603	0.052	0.064	-0.979	-3.2085648	0.286479	0.2291832	-6.33691548	2.07410796	-12.47329566
6.04	604	0.048	0.064	-0.976	-3.4950438	-0.286479	0.1145916	-6.37702254	2.06837838	-12.47329566
6.05	605	0.048	0.066	-0.975	-3.5523396	-0.3437748	0.0572958	-6.3884817	2.06837838	-12.46756608
6.06	606	0.048	0.071	-0.981	-3.6669312	-0.1145916	0.1145916	-6.42285918	2.06837838	-12.46756608
6.07	607	0.047	0.076	-0.989	-3.8388186	-0.1145916	0.1145916	-6.46296624	2.06837838	-12.46756608
6.08	608	0.045	0.079	-0.993	-3.6669312	-0.1718874	0.1145916	-6.49734372	2.0626488	-12.4618365
6.09	609	0.043	0.078	-0.993	-3.151269	-0.5156622	0	-6.5317212	2.05691922	-12.4618365
6.1	610	0.042	0.077	-0.992	-2.6929026	-0.6302538	0	-6.53745078	2.04546006	-12.4618365
6.11	611	0.043	0.078	-0.991	-2.4064236	-0.572958	-0.1145916	-6.5603691	2.03973048	-12.4618365
6.12	612	0.044	0.077	-0.988	-2.1199446	-0.4583664	-0.0572958	-6.58328742	2.0340009	-12.4618365
6.13	613	0.044	0.075	-0.986	-2.0626488	-0.572958	-0.1145916	-6.60620574	2.02827132	-12.4618365
6.14	614	0.046	0.074	-0.982	-2.1772404	-0.6302538	-0.1718874	-6.62912406	2.02254174	-12.4618365
