TimeStamp(s)	FrameCounter	AccX	AccY	AccZ	GyrX	GyrY	GyrZ	EulerX	EulerY	EulerZ
0.01	1	0.002	-0.999	-0.111	0	-0.4583664	-0.4583664	80.85583296	0.4583664	-9.25900128
0.02	2	0.002	-1	-0.111	0.0572958	-0.2291832	-0.3437748	80.85583296	0.4583664	-9.26473086
0.03	3	0.004	-0.999	-0.111	0	-0.3437748	-0.3437748	80.85583296	0.46409598	-9.26473086
0.04	4	0.005	-1.002	-0.109	0	-0.2291832	-0.286479	80.85583296	0.46409598	-9.27046044
0.05	5	0.008	-1.003	-0.109	0	-0.2291832	-0.2291832	81.12512322	0.50420304	-9.25900128
0.06	6	0.01	-1.004	-0.109	-0.1145916	-0.2291832	-0.2291832	81.12512322	0.50993262	-9.26473086
0.07	7	0.012	-1.005	-0.11	-0.1145916	-0.1718874	0	81.12512322	0.50993262	-9.26473086
0.08	8	0.014	-1.005	-0.11	0	-0.2291832	0.2291832	81.11939364	0.50420304	-9.27046044
0.09	9	0.016	-1.004	-0.111	-0.1718874	-0.2291832	0.286479	81.11939364	0.50420304	-9.27046044
0.1	10	0.014	-1.003	-0.109	-0.3437748	-0.4010706	0.4010706	81.21106692	0.52712136	-9.27046044
0.11	11	0.012	-1.003	-0.108	-0.6875496	-0.6875496	0.286479	81.20533734	0.52139178	-9.27619002
0.12	12	0.009	-1.004	-0.107	-1.0313244	-0.6875496	0.0572958	81.19387818	0.52139178	-9.2819196
0.13	13	0.009	-1.005	-0.108	-1.145916	-0.7448454	-0.0572958	81.18241902	0.52139178	-9.29337876
0.14	14	0.013	-1.006	-0.109	-1.3178034	-0.7448454	-0.1145916	81.17095986	0.52139178	-9.29910834
0.15	15	0.018	-1.006	-0.111	-1.6042824	-0.8021412	-0.2291832	81.19387818	0.5443101	-9.30483792
0.16	16	0.018	-1.006	-0.112	-2.005353	-1.0886202	-0.286479	81.17668944	0.5443101	-9.31629708
0.17	17	0.015	-1.005	-0.111	-2.0626488	-1.3178034	-0.5156622	81.15377112	0.55003968	-9.33348582
0.18	18	0.013	-1.003	-0.11	-2.1772404	-0.9740286	-0.572958	81.1308528	0.55576926	-9.34494498
0.19	19	0.014	-1.001	-0.111	-2.2345362	-0.3437748	-0.6875496	81.10793448	0.56149884	-9.35067456
0.2	20	0.015	-1.002	-0.113	-2.4064236	0.1145916	-0.572958	81.11366406	0.57868758	-9.34494498
0.21	21	0.018	-1.003	-0.115	-2.7501984	0.4583664	-0.3437748	81.08501616	0.58441716	-9.34494498
0.22	22	0.023	-1.002	-0.119	-3.0366774	0.8021412	0.2291832	81.05063868	0.58441716	-9.33348582
0.23	23	0.029	-1.006	-0.122	-3.3231564	0.7448454	0.8021412	81.0162612	0.572958	-9.32775624
0.24	24	0.033	-1.007	-0.125	-3.7815228	0.286479	1.3178034	80.98188372	0.56149884	-9.32202666
0.25	25	0.035	-1.003	-0.125	-3.8961144	0	1.6615782	80.95323582	0.56722842	-9.31629708
0.26	26	0.038	-1.001	-0.125	-3.7815228	-0.1718874	1.9480572	80.91312876	0.55003968	-9.31629708
0.27	27	0.04	-0.999	-0.123	-3.5523396	-0.4583664	2.2345362	80.87875128	0.52712136	-9.32202666
0.28	28	0.041	-0.998	-0.12	-3.437748	-0.859437	2.5210152	80.8443738	0.49847346	-9.32202666
0.29	29	0.041	-1	-0.117	-3.3804522	-1.3750992	2.6929026	80.80999632	0.46982556	-9.33348582
0.3	30	0.042	-1.002	-0.115	-3.0366774	-2.005353	3.0366774	80.79280758	0.4583664	-9.35067456
0.31	31	0.045	-1	-0.115	-2.578311	-2.4637194	3.437748	80.76988926	0.41825934	-9.3678633
0.32	32	0.051	-0.996	-0.114	-2.005353	-3.2085648	3.9534102	80.74697094	0.37815228	-9.3965112
0.33	33	0.052	-0.995	-0.113	-1.4896908	-4.1252976	4.1252976	80.73551178	0.33231564	-9.43088868
0.34	34	0.052	-0.992	-0.114	-1.0313244	-5.0993262	4.2398892	80.72405262	0.28074942	-9.47099574
0.35	35	0.05	-0.993	-0.113	-0.7448454	-6.1879464	4.1825934	80.7297822	0.25210152	-9.52829154
0.36	36	0.049	-0.992	-0.115	-0.7448454	-7.3338624	4.1252976	80.72405262	0.2005353	-9.59131692
0.37	37	0.049	-0.993	-0.114	-0.6875496	-8.307891	4.010706	80.71832304	0.14896908	-9.66580146
0.38	38	0.054	-0.996	-0.111	-0.7448454	-9.0527364	4.0680018	80.70686388	0.09740286	-9.75174516
0.39	39	0.059	-0.998	-0.113	-1.2605076	-9.740286	3.9534102	80.69540472	0.04583664	-9.83768886
0.4	40	0.064	-1	-0.113	-1.9480572	-11.2872726	3.8961144	80.68967514	0.01145916	-9.94655088
0.41	41	0.066	-1	-0.117	-2.1772404	-12.605076	3.8961144	80.66675682	-0.04010706	-10.06114248
0.42	42	0.066	-0.997	-0.119	-1.8907614	-13.9801752	3.9534102	80.64956808	-0.09740286	-10.19292282
0.43	43	0.062	-0.997	-0.118	-1.4896908	-15.2406828	3.9534102	80.63810892	-0.15469866	-10.33616232
0.44	44	0.058	-0.996	-0.116	-1.3178034	-16.3865988	3.9534102	80.62664976	-0.21772404	-10.49086098
0.45	45	0.053	-0.998	-0.114	-1.0886202	-17.3033316	3.8961144	80.62664976	-0.26356068	-10.65128922
0.46	46	0.049	-0.995	-0.116	-0.859437	-18.2200644	3.8961144	80.62092018	-0.32658606	-10.8289062
0.47	47	0.045	-0.992	-0.113	-0.6302538	-19.0795014	3.7815228	80.6151906	-0.38961144	-11.00652318
0.48	48	0.042	-0.989	-0.113	-0.4010706	-20.2254174	3.724227	80.6151906	-0.45263682	-11.2013289
0.49	49	0.037	-0.988	-0.114	-0.3437748	-21.0275586	3.6096354	80.6151906	-0.5156622	-11.4018642
0.5	50	0.035	-0.989	-0.115	0	-22.0015872	3.6096354	80.62664976	-0.572958	-11.60812908
0.51	51	0.033	-0.988	-0.116	0.0572958	-22.8037284	3.6096354	80.63237934	-0.64171296	-11.82585312
0.52	52	0.026	-0.989	-0.114	0.0572958	-23.5485738	3.8961144	80.6438385	-0.71046792	-12.05503632
0.53	53	0.023	-0.991	-0.114	-0.4010706	-24.0069402	4.0680018	80.6438385	-0.78495246	-12.28421952
0.54	54	0.026	-0.994	-0.126	-1.2605076	-25.7258142	3.9534102	80.63810892	-0.85370742	-12.53059146
0.55	55	0.03	-0.996	-0.136	-1.145916	-29.6792244	2.9220858	80.63237934	-0.9167328	-12.81707046
0.56	56	0.051	-1.018	-0.137	-3.6096354	-38.101707	1.4896908	80.60946102	-0.98548776	-13.18376358
0.57	57	0.082	-1.041	-0.145	-5.5576926	-44.2323576	0.9740286	80.56935396	-1.05424272	-13.61921166
0.58	58	0.098	-1.048	-0.15	-5.2712136	-48.3003594	1.2605076	80.5292469	-1.13445684	-14.08903722
0.59	59	0.087	-1.033	-0.152	-2.6356068	-51.56622	1.6615782	80.51778774	-1.22040054	-14.59324026
0.6	60	0.05	-1.015	-0.141	-0.4583664	-53.1705024	2.291832	80.53497648	-1.30634424	-15.10890246
0.61	61	0.012	-1.003	-0.124	0.286479	-53.3423898	2.4064236	80.5578948	-1.4037471	-15.63029424
0.62	62	-0.017	-1.001	-0.111	0	-53.285094	2.0626488	80.57508354	-1.49542038	-16.14595644
0.63	63	-0.039	-1.006	-0.099	-1.145916	-53.5142772	1.432395	80.5865427	-1.58136408	-16.66734822
0.64	64	-0.042	-1.016	-0.094	-4.7555514	-53.9153478	0.5156622	80.5578948	-1.6615782	-17.20019916
0.65	65	-0.033	-1.017	-0.103	-8.6516658	-54.7747848	0	80.500599	-1.73606274	-17.7330501
0.66	66	-0.029	-1.009	-0.109	-10.6570188	-56.149884	0	80.4146553	-1.81627686	-18.28881936
0.67	67	-0.038	-0.998	-0.115	-11.4018642	-57.4103916	0	80.32298202	-1.89649098	-18.8503182
0.68	68	-0.063	-0.983	-0.106	-10.9434978	-57.582279	-0.286479	80.2427679	-1.97097552	-19.41754662
0.69	69	-0.087	-0.975	-0.091	-10.2559482	-56.0352924	-0.9740286	80.16255378	-2.04546006	-19.9675863
0.7	70	-0.098	-0.967	-0.078	-9.5111028	-54.0872352	-1.6615782	80.0995284	-2.10848544	-20.50043724
0.71	71	-0.11	-0.966	-0.062	-8.9381448	-52.3110654	-2.0626488	80.03650302	-2.16578124	-21.01609944
0.72	72	-0.124	-0.976	-0.051	-8.4797784	-50.4775998	-1.8907614	79.97347764	-2.21734746	-21.5145729
0.73	73	-0.139	-0.989	-0.044	-8.3651868	-49.6181628	-1.2032118	79.91618184	-2.28037284	-22.00731678
0.74	74	-0.146	-1.002	-0.035	-7.9068204	-48.70143	-0.4010706	79.85888604	-2.3491278	-22.48287192
0.75	75	-0.144	-1.011	-0.031	-7.6776372	-47.1544434	0.1718874	79.81877898	-2.42934192	-22.9469679
0.76	76	-0.135	-1.017	-0.031	-7.161975	-45.0344988	0.4583664	79.77294234	-2.50382646	-23.38814556
0.77	77	-0.123	-1.017	-0.026	-6.5317212	-42.7999626	0.859437	79.73283528	-2.57258142	-23.8064049
0.78	78	-0.115	-1.019	-0.017	-5.6149884	-40.9092012	1.6042824	79.6984578	-2.65279554	-24.20174592
0.79	79	-0.11	-1.023	-0.006	-5.7868758	-38.674665	2.2345362	79.65835074	-2.73300966	-24.57416862
0.8	80	-0.118	-1.024	-0.005	-6.1306506	-36.2682414	3.151269	79.641162	-2.82468294	-24.92940258
0.81	81	-0.127	-1.026	-0.001	-6.3598338	-34.37748	3.724227	79.59532536	-2.91635622	-25.25598864
0.82	82	-0.13	-1.029	0.007	-7.448454	-32.6013102	4.0680018	79.54375914	-3.00229992	-25.57111554
0.83	83	-0.132	-1.034	0.006	-8.59437	-31.3980984	4.1825934	79.47500418	-3.0939732	-25.8690537
0.84	84	-0.13	-1.038	-0.003	-10.4851314	-30.8824362	4.5263682	79.38906048	-3.18564648	-26.16699186
0.85	85	-0.127	-1.029	-0.014	-11.45916	-30.7678446	4.5263682	79.30884636	-3.28877892	-26.45920044
0.86	86	-0.124	-1.015	-0.021	-11.9748222	-30.8824362	4.2398892	79.2114435	-3.3804522	-26.7571386
0.87	87	-0.117	-0.999	-0.031	-12.6623718	-31.1689152	3.7815228	79.10258148	-3.4663959	-27.05507676
0.88	88	-0.108	-0.985	-0.039	-13.2353298	-32.0283522	2.9220858	78.99371946	-3.54661002	-27.36447408
0.89	89	-0.099	-0.972	-0.043	-13.6936962	-32.5440144	1.6615782	78.87912786	-3.62109456	-27.67960098
0.9	90	-0.091	-0.962	-0.04	-14.610429	-33.0596766	0.2291832	78.77026584	-3.67839036	-28.00618704
0.91	91	-0.09	-0.956	-0.037	-15.5844576	-33.518043	-1.6042824	78.6384855	-3.71849742	-28.33850268
0.92	92	-0.097	-0.954	-0.037	-16.615782	-33.804522	-3.2658606	78.495246	-3.74714532	-28.6765479
0.93	93	-0.109	-0.954	-0.041	-17.0741484	-33.518043	-4.5263682	78.34627692	-3.76433406	-29.01459312
0.94	94	-0.126	-0.957	-0.039	-16.5584862	-32.8304934	-5.443101	78.208767	-3.77006364	-29.34690876
0.95	95	-0.147	-0.963	-0.035	-15.8709366	-31.1689152	-5.9587632	78.08844582	-3.77579322	-29.66203566
0.96	96	-0.16	-0.967	-0.03	-14.6677248	-28.4187168	-6.1879464	77.96239506	-3.76433406	-29.95424424
0.97	97	-0.169	-0.969	-0.022	-13.1207382	-25.7258142	-6.3598338	77.84780346	-3.7528749	-30.2235345
0.98	98	-0.18	-0.974	-0.012	-11.8029348	-23.0329116	-6.3598338	77.74467102	-3.73568616	-30.45844728
0.99	99	-0.187	-0.972	-0.007	-11.172681	-19.8816426	-6.4171296	77.64726816	-3.70703826	-30.67044174
1	100	-0.19	-0.966	0	-9.7975818	-15.9282324	-6.6463128	77.60143152	-3.6955791	-30.84232914
1.01	101	-0.187	-0.964	0.01	-8.6516658	-11.3445684	-6.9327918	77.5212174	-3.64974246	-30.9683799
1.02	102	-0.182	-0.965	0.018	-7.161975	-6.9327918	-7.2192708	77.45246244	-3.59244666	-31.04859402
1.03	103	-0.183	-0.971	0.026	-5.72958	-2.5210152	-7.2765666	77.40089622	-3.52942128	-31.08870108
1.04	104	-0.183	-0.979	0.024	-4.6982556	2.3491278	-7.0473834	77.34933	-3.45493674	-31.0829715
1.05	105	-0.186	-0.99	0.021	-4.4690724	6.016059	-6.7609044	77.37224832	-3.4091001	-31.04286444
1.06	106	-0.189	-0.99	0.021	-3.9534102	9.2819196	-6.589017	77.32641168	-3.32888598	-30.9683799
1.07	107	-0.187	-0.992	0.027	-2.9220858	12.4904844	-6.7036086	77.28630462	-3.24294228	-30.85951788
1.08	108	-0.185	-0.991	0.03	-2.005353	15.6990492	-7.2765666	77.25765672	-3.13980984	-30.72200796
1.09	109	-0.18	-0.996	0.034	-1.5469866	18.6784308	-8.1932994	77.22900882	-3.02521824	-30.56157972
1.1	110	-0.172	-1.005	0.035	-1.7761698	21.0275586	-9.1100322	77.24046798	-2.91062664	-30.37823316
1.11	111	-0.161	-1.017	0.022	-1.8334656	22.345362	-9.8548776	77.2060905	-2.77311672	-30.18342744
1.12	112	-0.148	-1.032	0.022	-1.3750992	23.1475032	-10.3705398	77.18317218	-2.62987722	-29.97716256
1.13	113	-0.128	-1.05	0.019	-2.005353	23.5485738	-10.7143146	77.1487947	-2.48090814	-29.77662726
1.14	114	-0.104	-1.063	0	-2.7501984	23.3193906	-10.7143146	77.10868764	-2.33193906	-29.57036238
1.15	115	-0.086	-1.057	0.008	0	22.1161788	-10.4851314	77.13733554	-2.18869956	-29.38128624
1.16	116	-0.093	-1.054	0.031	2.005353	21.772404	-10.026765	77.1487947	-2.05118964	-29.1922101
1.17	117	-0.115	-1.071	0.022	3.5523396	21.6578124	-9.167328	77.1774426	-1.9194093	-29.00313396
1.18	118	-0.119	-1.115	0.009	4.3544808	22.5172494	-7.5630456	77.21182008	-1.79908812	-28.79686908
1.19	119	-0.12	-1.156	-0.004	5.2139178	22.058883	-5.156622	77.25192714	-1.70741484	-28.59633378
1.2	120	-0.129	-1.191	-0.029	6.2452422	15.5844576	-0.9740286	77.33787084	-1.67876694	-28.44163512
1.21	121	-0.136	-1.233	-0.091	4.2398892	7.9068204	3.151269	77.3779779	-1.6902261	-28.361421
1.22	122	-0.098	-1.263	-0.152	3.8388186	3.0366774	7.5057498	77.41235538	-1.75898106	-28.31558436
1.23	123	-0.035	-1.25	-0.155	8.1932994	-1.718874	11.8029348	77.49829908	-1.87357266	-28.3041252
1.24	124	-0.007	-1.18	-0.108	13.1207382	-6.1879464	13.9228794	77.63007942	-2.02254174	-28.3327731
1.25	125	-0.029	-1.11	-0.081	14.896908	-6.9900876	14.0947668	77.8076964	-2.16578124	-28.37288016
1.26	126	-0.072	-1.052	-0.089	14.0947668	-5.6149884	11.8602306	77.9509359	-2.291832	-28.40152806
1.27	127	-0.138	-0.998	-0.132	10.8289062	-2.5210152	6.016059	78.05979792	-2.35485738	-28.41298722
1.28	128	-0.183	-1.008	-0.132	8.021412	2.291832	0.5156622	78.14001204	-2.35485738	-28.38433932
1.29	129	-0.198	-1.034	-0.141	7.3911582	7.0473834	-2.4064236	78.21449658	-2.3204799	-28.32131394
1.3	130	-0.215	-1.01	-0.155	8.6516658	12.6623718	-3.8961144	78.30044028	-2.291832	-28.20672234
1.31	131	-0.22	-0.966	-0.157	9.9694692	17.7044022	-4.2398892	78.39211356	-2.22307704	-28.04056452
1.32	132	-0.187	-0.933	-0.174	9.8548776	22.1734746	-3.6669312	78.47805726	-2.14286292	-27.82857006
1.33	133	-0.125	-0.903	-0.216	8.7089616	25.2674478	-2.4637194	78.55827138	-2.07983754	-27.5879277
1.34	134	-0.067	-0.881	-0.248	7.5057498	26.5852512	-0.8021412	78.62129676	-2.02254174	-27.3300966
1.35	135	-0.004	-0.886	-0.285	5.2712136	26.1841806	1.718874	78.63275592	-1.98816426	-27.0722655
1.36	136	0.04	-0.897	-0.316	1.6042824	24.0069402	4.1825934	78.6384855	-1.98816426	-26.82589356
1.37	137	0.074	-0.914	-0.321	-0.0572958	21.3140376	5.3858052	78.62702634	-2.005353	-26.60816952
1.38	138	0.095	-0.933	-0.311	-0.8021412	18.621135	5.443101	78.60410802	-2.02827132	-26.41909338
1.39	139	0.107	-0.941	-0.303	-0.859437	16.7876694	4.297185	78.58691928	-2.04546006	-26.24720598
1.4	140	0.103	-0.943	-0.295	-0.1145916	15.9282324	1.8907614	78.53535306	-1.98816426	-26.08677774
1.41	141	0.088	-0.955	-0.281	1.6615782	15.8136408	-1.718874	78.54108264	-1.94232762	-25.93780866
1.42	142	0.065	-0.96	-0.265	3.6096354	15.183387	-5.6149884	78.57546012	-1.8621135	-25.79456916
1.43	143	0.047	-0.971	-0.25	5.3285094	14.0947668	-9.9121734	78.62129676	-1.74179232	-25.67997756
1.44	144	0.052	-0.984	-0.239	6.4744254	12.6623718	-13.178034	78.68432214	-1.59282324	-25.57684512
1.45	145	0.067	-0.999	-0.227	7.0473834	11.3445684	-15.3552744	78.74161794	-1.4037471	-25.496631
1.46	146	0.088	-1.012	-0.216	7.1046792	10.026765	-16.902261	78.8103729	-1.22040054	-25.42787604
1.47	147	0.108	-1.024	-0.213	6.0733548	8.4797784	-17.7044022	78.8676687	-1.03705398	-25.3820394
1.48	148	0.122	-1.023	-0.212	4.6982556	6.875496	-18.2773602	78.91923492	-0.84224826	-25.34766192
1.49	149	0.131	-1.017	-0.213	2.9220858	5.6722842	-18.907614	78.94788282	-0.65317212	-25.3247436
1.5	150	0.129	-1.007	-0.209	1.6615782	4.3544808	-19.480572	78.9536124	-0.41825934	-25.31901402
1.51	151	0.109	-0.995	-0.207	0.572958	3.2658606	-20.2254174	78.95934198	-0.21772404	-25.3247436
1.52	152	0.083	-0.982	-0.194	0.5156622	2.0626488	-21.0848544	78.96507156	-0.00572958	-25.34766192
1.53	153	0.066	-0.97	-0.188	0.4010706	1.9480572	-21.6005166	78.96507156	0.2005353	-25.36485066
1.54	154	0.053	-0.96	-0.176	0.3437748	1.7761698	-21.6005166	78.97080114	0.41252976	-25.38776898
1.55	155	0.05	-0.955	-0.163	0	1.2605076	-20.8556712	78.97080114	0.6302538	-25.41641688
1.56	156	0.05	-0.953	-0.154	-1.432395	0.6302538	-19.5378678	78.95934198	0.82505952	-25.44506478
1.57	157	0.054	-0.947	-0.153	-3.0939732	-0.286479	-17.475219	78.9249645	0.99121734	-25.48517184
1.58	158	0.057	-0.941	-0.151	-4.5263682	-1.3178034	-15.2979786	78.87912786	1.14018642	-25.5252789
1.59	159	0.07	-0.938	-0.143	-5.7868758	-2.005353	-13.3499214	78.81610248	1.26623718	-25.57111554
1.6	160	0.085	-0.941	-0.14	-7.734933	-2.5210152	-11.5164558	78.74734752	1.39228794	-25.61695218
1.61	161	0.095	-0.946	-0.137	-9.2246238	-3.4950438	-9.6829902	78.64994466	1.48396122	-25.67424798
1.62	162	0.106	-0.95	-0.131	-10.313244	-5.2712136	-7.5630456	78.54681222	1.5469866	-25.73727336
1.63	163	0.106	-0.951	-0.12	-10.7143146	-7.6776372	-5.6149884	78.4379502	1.58709366	-25.82894664
1.64	164	0.106	-0.955	-0.108	-10.9434978	-10.313244	-3.8388186	78.3233586	1.6042824	-25.93780866
1.65	165	0.105	-0.963	-0.102	-10.7716104	-12.6623718	-2.291832	78.23168532	1.62720072	-26.06385942
1.66	166	0.103	-0.96	-0.091	-9.9694692	-14.3812458	-1.145916	78.12855288	1.61001198	-26.20709892
1.67	167	0.087	-0.958	-0.08	-8.880849	-15.8136408	-0.2291832	78.0368796	1.58136408	-26.36179758
1.68	168	0.063	-0.956	-0.071	-7.1046792	-16.5011904	0.572958	77.96239506	1.5469866	-26.52222582
1.69	169	0.033	-0.955	-0.063	-6.302538	-15.756345	1.6042824	77.8936401	1.50114996	-26.67692448
1.7	170	0.008	-0.939	-0.055	-5.156622	-13.9228794	3.2085648	77.87645136	1.44385416	-26.80297524
1.71	171	-0.006	-0.917	-0.042	-2.1199446	-12.3758928	5.5576926	77.85353304	1.36364004	-26.91183726
1.72	172	-0.004	-0.911	-0.011	-0.572958	-13.3499214	8.3651868	77.84780346	1.2605076	-27.02642886
1.73	173	0.008	-0.903	0.008	1.0886202	-14.7823164	11.5164558	77.85926262	1.12299768	-27.14675004
1.74	174	0.029	-0.902	0.023	2.3491278	-16.1574156	14.2093584	77.88218094	0.95683986	-27.2728008
1.75	175	0.053	-0.911	0.037	4.1825934	-17.5325148	16.6730778	77.96239506	0.7734933	-27.40458114
1.76	176	0.078	-0.943	0.049	5.8441716	-19.0795014	17.3606274	78.02542044	0.56722842	-27.55355022
1.77	177	0.101	-0.979	0.061	6.7036086	-20.7410796	16.7303736	78.0941754	0.3724227	-27.72543762
1.78	178	0.127	-1.026	0.054	5.8441716	-20.626488	14.6677248	78.15720078	0.18907614	-27.89159544
1.79	179	0.135	-1.067	0.028	3.9534102	-18.6784308	11.8602306	78.20303742	0.04583664	-28.05202368
1.8	180	0.118	-1.086	-0.002	3.2658606	-18.3919518	9.740286	78.27179238	-0.0572958	-28.21245192
1.81	181	0.087	-1.098	-0.025	2.86479	-17.9908812	8.4797784	78.30616986	-0.1718874	-28.36715058
1.82	182	0.049	-1.099	-0.037	1.8334656	-15.5271618	7.6776372	78.32908818	-0.26929026	-28.5046605
1.83	183	-0.004	-1.073	-0.019	3.151269	-13.6936962	7.3338624	78.36346566	-0.36669312	-28.62498168
1.84	184	-0.051	-1.033	0.046	7.9641162	-15.6990492	7.9641162	78.44940936	-0.46982556	-28.75676202
1.85	185	-0.046	-1.012	0.099	11.9175264	-20.2254174	8.9381448	78.61556718	-0.59014674	-28.94010858
1.86	186	0.012	-1.023	0.1	14.6677248	-25.2674478	9.3965112	78.77026584	-0.72192708	-29.1635622
1.87	187	0.075	-1.038	0.104	16.2147114	-30.8251404	7.5057498	78.94788282	-0.84797784	-29.4500412
1.88	188	0.119	-1.085	0.131	18.4492476	-34.5493674	3.6669312	79.14268854	-0.93392154	-29.77662726
1.89	189	0.14	-1.144	0.139	16.4438946	-35.6379876	0	79.32030552	-0.99121734	-30.12613164
1.9	190	0.156	-1.18	0.065	12.891555	-35.523396	-3.151269	79.48073376	-0.99694692	-30.47563602
1.91	191	0.141	-1.212	-0.077	13.9801752	-36.2682414	-8.021412	79.63543242	-0.9740286	-30.84232914
1.92	192	0.064	-1.25	-0.154	19.0222056	-37.0703826	-15.756345	79.83596772	-0.87089616	-31.23194058
1.93	193	-0.006	-1.253	-0.223	18.907614	-32.2002396	-24.637194	80.03650302	-0.67609044	-31.58717454
1.94	194	-0.051	-1.204	-0.291	19.2513888	-26.5279554	-33.3461556	80.23703832	-0.38388186	-31.90230144
1.95	195	-0.073	-1.11	-0.323	18.334656	-23.204799	-38.3308902	80.4146553	-0.04583664	-32.18878044
1.96	196	-0.11	-1.028	-0.375	15.8709366	-23.1475032	-39.247623	80.58081312	0.30366774	-32.47525944
1.97	197	-0.137	-0.974	-0.4	14.8396122	-24.2934192	-36.7839036	80.7297822	0.6302538	-32.7731976
1.98	198	-0.132	-0.905	-0.397	8.9381448	-26.356068	-33.231564	80.82145548	0.92246238	-33.08259492
1.99	199	-0.056	-0.823	-0.372	8.59437	-24.1215318	-29.9084076	80.9016696	1.18602306	-33.36334434
2	200	0.037	-0.836	-0.349	8.5370742	-21.0848544	-27.3873924	80.9589654	1.432395	-33.61544586
2.01	201	0.12	-0.885	-0.313	4.1825934	-20.7410796	-25.6112226	80.99334288	1.6615782	-33.85608822
2.02	202	0.167	-0.937	-0.292	0.8021412	-21.7151082	-22.5745452	80.99907246	1.85638392	-34.10246016
2.03	203	0.182	-0.992	-0.259	-0.6302538	-22.6891368	-18.7357266	80.9876133	2.01108258	-34.35456168
2.04	204	0.141	-1.039	-0.241	-0.4010706	-23.3766864	-14.4958374	80.97615414	2.1199446	-34.6066632
2.05	205	0.063	-1.062	-0.233	0.7448454	-23.1475032	-9.9694692	80.96469498	2.18869956	-34.85303514
2.06	206	-0.017	-1.057	-0.21	3.2658606	-20.7983754	-4.9847346	80.9876133	2.21161788	-35.0650296
2.07	207	-0.106	-1.047	-0.187	6.302538	-16.615782	0.5156622	81.05063868	2.18296998	-35.22545784
2.08	208	-0.159	-1.039	-0.179	8.9954406	-10.313244	6.1879464	81.14231196	2.11421502	-35.31713112
2.09	209	-0.177	-1.03	-0.169	12.032118	-5.6722842	11.2299768	81.26263314	1.99389384	-35.3515086
2.1	210	-0.173	-1.021	-0.152	13.750992	-2.6356068	16.1574156	81.39441348	1.79335854	-35.35723818
2.11	211	-0.151	-1.019	-0.136	13.6936962	-0.6875496	20.5118964	81.53765298	1.59282324	-35.32859028
2.12	212	-0.131	-1.017	-0.128	13.0061466	0.4583664	24.4653066	81.66943332	1.35791046	-35.28848322
2.13	213	-0.114	-1.015	-0.113	12.5477802	1.0886202	27.501984	81.79548408	1.0886202	-35.236917
2.14	214	-0.092	-1.011	-0.1	10.9434978	1.718874	29.2781538	81.91007568	0.8021412	-35.1796212
2.15	215	-0.065	-1.006	-0.087	8.4797784	2.4064236	29.507337	82.00174896	0.50420304	-35.11659582
2.16	216	-0.037	-0.989	-0.086	3.8388186	3.6669312	28.1895336	82.04185602	0.2291832	-35.04211128
2.17	217	-0.017	-0.97	-0.102	-0.2291832	4.5263682	26.1268848	82.04185602	-0.01718874	-34.96189716
2.18	218	-0.011	-0.948	-0.12	-3.7815228	5.443101	22.9756158	82.00174896	-0.23491278	-34.87595346
2.19	219	-0.026	-0.929	-0.131	-6.3598338	6.7036086	19.480572	81.932994	-0.42398892	-34.78428018
2.2	220	-0.047	-0.92	-0.133	-8.1360036	8.0787078	16.2720072	81.8470503	-0.58441716	-34.68114774
2.21	221	-0.062	-0.917	-0.131	-9.5683986	9.0527364	13.9228794	81.74391786	-0.71046792	-34.5780153
2.22	222	-0.074	-0.916	-0.125	-11.3445684	9.453807	12.1467096	81.62932626	-0.81932994	-34.46915328
2.23	223	-0.076	-0.919	-0.122	-13.5791046	9.3392154	11.0007936	81.48608676	-0.9167328	-34.36029126
2.24	224	-0.071	-0.925	-0.119	-15.8136408	8.5370742	10.6570188	81.32565852	-1.01413566	-34.2628884
2.25	225	-0.07	-0.936	-0.104	-16.6730778	8.0787078	10.1413566	81.15377112	-1.1172681	-34.17121512
2.26	226	-0.065	-0.952	-0.095	-18.048177	8.307891	9.2246238	80.97042456	-1.19748222	-34.07381226
2.27	227	-0.053	-0.96	-0.085	-18.9649098	8.880849	8.021412	80.76988926	-1.26623718	-33.9764094
2.28	228	-0.043	-0.967	-0.069	-19.5951636	9.5683986	6.302538	80.56935396	-1.3178034	-33.87900654
2.29	229	-0.037	-0.97	-0.067	-20.5691922	10.0840608	4.1825934	80.3573595	-1.3464513	-33.77014452
2.3	230	-0.042	-0.962	-0.078	-22.2307704	10.3705398	1.718874	80.13963546	-1.35791046	-33.67274166
2.31	231	-0.05	-0.947	-0.092	-23.2620948	10.6570188	-0.859437	79.8989931	-1.33499214	-33.56960922
2.32	232	-0.054	-0.919	-0.11	-23.0902074	11.9175264	-4.2398892	79.66408032	-1.27769634	-33.4607472
2.33	233	-0.055	-0.891	-0.126	-20.626488	12.891555	-6.9900876	79.44635628	-1.19175264	-33.35188518
2.34	234	-0.053	-0.875	-0.122	-16.2720072	14.0947668	-9.5683986	79.28019846	-1.07716104	-33.231564
2.35	235	-0.055	-0.876	-0.097	-10.886202	15.756345	-11.6310474	79.17133644	-0.9453807	-33.09978366
2.36	236	-0.062	-0.888	-0.064	-6.6463128	17.5325148	-13.2353298	79.10258148	-0.79068204	-32.95654416
2.37	237	-0.072	-0.896	-0.045	-4.2398892	19.2513888	-14.896908	79.05101526	-0.61306506	-32.79611592
2.38	238	-0.082	-0.907	-0.021	-1.9480572	20.6837838	-16.1001198	79.02809694	-0.42398892	-32.62422852
2.39	239	-0.089	-0.929	-0.008	1.145916	22.5745452	-16.329303	79.03382652	-0.2291832	-32.43515238
2.4	240	-0.09	-0.955	0.019	5.0420304	24.9809688	-14.9542038	79.11404064	-0.05156622	-32.21742834
2.41	241	-0.088	-0.984	0.037	7.2192708	27.501984	-13.4072172	79.1827956	0.12032118	-31.9710564
2.42	242	-0.103	-1.01	0.038	7.5057498	28.361421	-11.4018642	79.25728014	0.27501984	-31.7132253
2.43	243	-0.119	-1.039	0.04	5.7868758	28.5906042	-8.880849	79.31457594	0.40680018	-31.44966462
2.44	244	-0.12	-1.064	0.034	2.5210152	28.5906042	-6.302538	79.33749426	0.5156622	-31.18037436
2.45	245	-0.105	-1.074	0.017	-0.859437	28.4760126	-4.5263682	79.36614216	0.58441716	-30.9110841
2.46	246	-0.078	-1.067	0	-3.0366774	28.361421	-3.5523396	79.33176468	0.66463128	-30.64179384
2.47	247	-0.049	-1.059	-0.016	-4.3544808	27.3300966	-2.6929026	79.28592804	0.73338624	-30.37823316
2.48	248	-0.023	-1.05	-0.017	-4.583664	24.637194	-1.432395	79.2400914	0.78495246	-30.14332038
2.49	249	-0.003	-1.04	0.004	-3.3231564	23.0902074	-0.7448454	79.20571392	0.8307891	-29.91986676
2.5	250	-0.002	-1.031	0.017	-1.8334656	23.3193906	-0.5156622	79.25155056	0.87089616	-29.69068356
2.51	251	-0.006	-1.034	0.041	0.572958	25.210152	-0.0572958	79.25728014	0.91100322	-29.44431162
2.52	252	-0.009	-1.094	0.043	0.5156622	27.8457588	1.9480572	79.26300972	0.93965112	-29.16929178
2.53	253	0.002	-1.18	0.03	-0.859437	26.5279554	6.589017	79.25728014	0.9167328	-28.89427194
2.54	254	0	-1.223	0.005	1.4896908	18.6784308	13.0634424	79.2687393	0.81360036	-28.68800706
2.55	255	-0.061	-1.214	-0.066	5.3858052	12.605076	21.2567418	79.33749426	0.61879464	-28.52757882
2.56	256	-0.086	-1.283	-0.132	0.4010706	10.026765	28.8197874	79.34322384	0.35523396	-28.37288016
2.57	257	0.031	-1.388	-0.218	-16.1574156	9.3392154	33.3461556	79.17706602	0.04010706	-28.22391108
2.58	258	0.197	-1.42	-0.354	-26.2414764	4.7555514	36.096354	78.91350534	-0.29793816	-28.11504906
2.59	259	0.254	-1.291	-0.392	-12.032118	-1.6042824	38.6173692	78.78745458	-0.68182002	-28.05775326
2.6	260	0.125	-1.117	-0.355	1.9480572	-3.151269	38.5600734	78.78745458	-1.05424272	-28.01191662
2.61	261	-0.072	-1	-0.317	5.5576926	-1.5469866	33.4034514	78.84475038	-1.38082878	-27.96607998
2.62	262	-0.21	-0.919	-0.307	4.870143	1.718874	24.1215318	78.89058702	-1.61574156	-27.9030546
2.63	263	-0.239	-0.896	-0.299	0	5.8441716	11.6310474	78.89058702	-1.718874	-27.82284048
2.64	264	-0.232	-0.905	-0.303	-1.2032118	11.9748222	3.3231564	78.87339828	-1.73033316	-27.7025193
2.65	265	-0.232	-0.918	-0.287	-0.2291832	16.042824	-0.9167328	78.80464332	-1.7761698	-27.54782064
2.66	266	-0.205	-0.938	-0.258	-0.5156622	18.4492476	-3.3804522	78.79318416	-1.71314442	-27.37020366
2.67	267	-0.134	-0.972	-0.25	-2.4064236	20.2254174	-4.010706	78.75880668	-1.63865988	-27.18112752
2.68	268	-0.049	-1.015	-0.261	-3.0366774	20.912967	-2.86479	78.71869962	-1.5756345	-26.9863218
2.69	269	0.006	-1.041	-0.263	-1.3178034	21.199446	-1.2032118	78.6957813	-1.52979786	-26.78005692
2.7	270	0.047	-1.04	-0.255	0.8021412	21.485925	0	78.67859256	-1.46677248	-26.56806246
2.71	271	0.081	-1.01	-0.243	2.4637194	22.345362	-0.6302538	78.6957813	-1.42093584	-26.356068
2.72	272	0.094	-0.984	-0.223	4.9274388	23.1475032	-2.9220858	78.73588836	-1.35791046	-26.13261438
2.73	273	0.103	-0.966	-0.206	6.3598338	23.6631654	-5.9587632	78.79318416	-1.25477802	-25.91489034
2.74	274	0.113	-0.952	-0.192	7.3911582	24.2361234	-9.2819196	78.86193912	-1.12872726	-25.69143672
2.75	275	0.121	-0.94	-0.18	7.3338624	25.0382646	-12.891555	78.9249645	-0.93392154	-25.47371268
2.76	276	0.122	-0.925	-0.176	7.5630456	25.8404058	-16.042824	78.99371946	-0.73338624	-25.25025906
2.77	277	0.116	-0.919	-0.178	7.3338624	25.8977016	-18.5065434	79.06247442	-0.50993262	-25.03253502
2.78	278	0.115	-0.917	-0.186	6.589017	24.9809688	-19.6524594	79.1254998	-0.28074942	-24.82054056
2.79	279	0.119	-0.913	-0.189	6.1306506	23.204799	-19.3659804	79.1827956	-0.05156622	-24.63146442
2.8	280	0.123	-0.908	-0.191	5.443101	20.6837838	-18.4492476	79.22863224	0.17761698	-24.45957702
2.81	281	0.126	-0.914	-0.193	4.1252976	18.5065434	-17.1314442	79.2687393	0.3724227	-24.31060794
2.82	282	0.126	-0.916	-0.195	2.7501984	16.2720072	-15.6417534	79.2973872	0.55576926	-24.1788276
2.83	283	0.132	-0.92	-0.198	1.5469866	14.3812458	-13.9228794	79.30884636	0.71046792	-24.064236
2.84	284	0.138	-0.919	-0.198	0.4583664	12.9488508	-12.2040054	79.31457594	0.85370742	-23.96110356
2.85	285	0.137	-0.921	-0.198	-0.9740286	11.6310474	-10.7143146	79.28592804	1.01413566	-23.86943028
2.86	286	0.125	-0.918	-0.203	-2.2345362	10.7716104	-9.453807	79.26300972	1.12299768	-23.777757
2.87	287	0.114	-0.914	-0.2	-2.7501984	10.599723	-8.1360036	79.2400914	1.22040054	-23.6918133
2.88	288	0.101	-0.914	-0.193	-3.0366774	10.886202	-7.448454	79.20571392	1.30634424	-23.60014002
2.89	289	0.097	-0.92	-0.181	-3.3231564	11.2872726	-7.2765666	79.17133644	1.39801752	-23.50273716
2.9	290	0.094	-0.927	-0.17	-3.8388186	11.8602306	-7.2192708	79.13122938	1.51260912	-23.39960472
2.91	291	0.099	-0.936	-0.161	-5.2139178	12.2040054	-6.6463128	79.07966316	1.59282324	-23.2907427
2.92	292	0.111	-0.946	-0.155	-5.9587632	12.2040054	-5.6722842	79.02236736	1.66730778	-23.18188068
2.93	293	0.124	-0.954	-0.147	-6.016059	11.6310474	-4.5263682	78.95934198	1.73033316	-23.07874824
2.94	294	0.13	-0.955	-0.136	-5.156622	11.4018642	-3.3804522	78.90777576	1.78189938	-22.9756158
2.95	295	0.13	-0.954	-0.121	-3.8961144	10.7716104	-2.005353	78.90204618	1.87357266	-22.87248336
2.96	296	0.127	-0.945	-0.094	-2.1772404	9.7975818	-1.145916	78.87912786	1.89649098	-22.78081008
2.97	297	0.115	-0.942	-0.077	-1.3750992	9.1100322	-0.4010706	78.8676687	1.9194093	-22.6891368
2.98	298	0.104	-0.939	-0.061	-0.572958	7.8495246	0.0572958	78.86193912	1.93086846	-22.61465226
2.99	299	0.104	-0.933	-0.054	-0.9167328	6.8182002	0.859437	78.85620954	1.93086846	-22.5458973
3	300	0.114	-0.933	-0.041	-1.4896908	5.443101	1.8907614	78.94215324	1.99389384	-22.48287192
3.01	301	0.129	-0.936	-0.019	-1.8907614	2.291832	2.9220858	78.9249645	1.97097552	-22.45422402
3.02	302	0.143	-0.947	-0.008	-3.0366774	-0.6875496	4.1252976	78.89058702	1.92513888	-22.45422402
3.03	303	0.158	-0.96	0.002	-4.5263682	-3.8961144	5.7868758	78.84475038	1.8621135	-22.48287192
3.04	304	0.169	-0.97	0.009	-6.8182002	-7.1046792	7.161975	78.77599542	1.78189938	-22.54016772
3.05	305	0.172	-0.97	0.009	-8.59437	-9.3392154	8.4797784	78.74161794	1.72460358	-22.61465226
3.06	306	0.165	-0.967	0.01	-9.9694692	-11.4018642	9.5683986	78.64421508	1.61001198	-22.70632554
3.07	307	0.148	-0.96	0.007	-11.172681	-12.605076	10.599723	78.5238939	1.48396122	-22.80945798
3.08	308	0.124	-0.95	0.008	-10.7716104	-13.2926256	11.745639	78.41503188	1.3464513	-22.91832
3.09	309	0.11	-0.946	0.012	-10.313244	-13.1207382	12.6623718	78.31189944	1.19748222	-23.02145244
3.1	310	0.094	-0.959	0.009	-10.7143146	-12.7769634	12.891555	78.24887406	1.07143146	-23.1188553
3.11	311	0.08	-0.969	0.009	-11.2872726	-11.745639	12.2613012	78.13428246	0.92819196	-23.21052858
3.12	312	0.063	-0.963	-0.023	-10.026765	-9.2246238	12.1467096	78.03115002	0.79068204	-23.27928354
3.13	313	0.044	-0.961	-0.034	-6.0733548	-7.9641162	11.5737516	77.96812464	0.66463128	-23.33084976
3.14	314	0.037	-0.958	-0.038	-2.1199446	-6.0733548	10.7143146	77.94520632	0.55003968	-23.37095682
3.15	315	0.043	-0.956	-0.035	-0.4010706	-2.7501984	9.6829902	78.05406834	0.48128472	-23.37095682
3.16	316	0.05	-0.959	-0.033	0.3437748	1.718874	8.6516658	78.05406834	0.4010706	-23.33657934
3.17	317	0.044	-0.966	-0.042	0.572958	4.6409598	8.1360036	78.05979792	0.33231564	-23.27928354
3.18	318	0.048	-0.959	-0.026	2.9793816	3.437748	8.307891	78.0941754	0.2578311	-23.22771732
3.19	319	0.076	-0.948	0.005	7.9641162	-3.5523396	8.021412	78.17438952	0.1718874	-23.24490606
3.2	320	0.126	-0.99	0.05	6.2452422	-14.037471	5.8441716	78.3233586	0.1432395	-23.36522724
3.21	321	0.189	-1.058	-0.007	2.4637194	-18.334656	2.4064236	78.34627692	0.0859437	-23.54284422
3.22	322	0.235	-1.212	-0.169	-0.9167328	-22.1734746	-2.4637194	78.34054734	0.07448454	-23.76056826
3.23	323	0.204	-1.351	-0.361	-3.151269	-22.9756158	-7.9641162	78.31189944	0.10886202	-24.00121062
3.24	324	0.118	-1.432	-0.383	0.4583664	-19.9389384	-13.750992	78.31762902	0.21199446	-24.22466424
3.25	325	0.025	-1.442	-0.392	-2.2345362	-12.0894138	-19.4232762	78.28898112	0.37815228	-24.3793629
3.26	326	-0.04	-1.339	-0.451	-6.4171296	-7.2765666	-25.210152	78.22595574	0.60733548	-24.49968408
3.27	327	-0.031	-1.192	-0.491	-5.156622	-5.5003968	-29.7365202	78.16865994	0.8880849	-24.61427568
3.28	328	-0.018	-1.096	-0.489	-8.8235532	-1.432395	-28.074942	78.07698666	1.15737516	-24.68876022
3.29	329	-0.008	-0.979	-0.489	-15.6417534	-2.6929026	-22.058883	77.91655842	1.36936962	-24.75751518
3.3	330	0.001	-0.902	-0.466	-22.058883	-5.6149884	-14.2666542	77.635809	1.48396122	-24.84918846
3.31	331	0.004	-0.904	-0.441	-31.1116194	-7.0473834	-9.5111028	77.3206821	1.56417534	-24.94086174
3.32	332	0.031	-0.979	-0.422	-36.3255372	-5.156622	-6.9900876	76.9482594	1.61574156	-25.0096167
3.33	333	0.062	-1.087	-0.443	-36.8984952	-3.724227	-4.6982556	76.57010712	1.65011904	-25.06118292
3.34	334	0.087	-1.195	-0.453	-35.809875	-2.9793816	-0.7448454	76.20914358	1.65011904	-25.0955604
3.35	335	0.111	-1.26	-0.454	-29.4500412	-3.437748	6.2452422	75.89974626	1.58136408	-25.11274914
3.36	336	0.099	-1.257	-0.464	-19.6524594	-4.6982556	13.5791046	75.69921096	1.43812458	-25.12993788
3.37	337	0.073	-1.188	-0.439	-13.750992	-4.4690724	18.6784308	75.56170104	1.24331886	-25.12993788
3.38	338	0.041	-1.135	-0.368	-14.610429	-3.5523396	24.064236	75.41273196	1.0026765	-25.10701956
3.39	339	-0.012	-1.103	-0.33	-20.1681216	-5.5576926	27.9603504	75.21219666	0.72192708	-25.08983082
3.4	340	-0.11	-1.051	-0.219	-26.069589	-6.589017	29.8511118	74.96009514	0.39534102	-25.08410124
3.41	341	-0.237	-0.986	0.006	-39.1903272	-6.589017	28.8197874	74.56475412	0.10313244	-25.07264208
3.42	342	-0.328	-0.856	0.037	-47.4982182	-6.6463128	27.8457588	74.0834694	-0.18334656	-25.0669125
3.43	343	-0.359	-0.78	0.043	-48.1857678	-2.005353	25.1528562	73.5964551	-0.4297185	-25.02107586
3.44	344	-0.337	-0.716	0.024	-55.1758554	4.583664	18.621135	73.03495626	-0.6016059	-24.92940258
3.45	345	-0.255	-0.663	-0.02	-57.0666168	13.8655836	12.891555	72.46199826	-0.71046792	-24.76897434
3.46	346	-0.144	-0.73	-0.05	-55.5196302	21.7151082	7.9641162	71.89476984	-0.73338624	-24.53979114
3.47	347	-0.067	-0.813	-0.113	-55.5196302	26.4706596	5.5576926	71.32181184	-0.7161975	-24.27623046
3.48	348	-0.049	-0.85	-0.22	-52.139178	27.2728008	5.5003968	70.7889609	-0.69327918	-24.0069402
3.49	349	-0.067	-0.855	-0.34	-46.1804148	24.4080108	6.0733548	70.31340576	-0.68182002	-23.76056826
3.5	350	-0.039	-0.871	-0.435	-39.6486936	18.7357266	6.4744254	69.87795768	-0.6875496	-23.56576254
3.51	351	0.073	-0.881	-0.486	-29.507337	10.7716104	6.9900876	69.57428994	-0.72192708	-23.44544136
3.52	352	0.168	-0.865	-0.485	-20.7410796	1.432395	7.1046792	69.36802506	-0.78495246	-23.4053343
3.53	353	0.206	-0.831	-0.493	-15.469866	-6.1879464	5.9014674	69.20759682	-0.86516658	-23.44544136
3.54	354	0.201	-0.849	-0.537	-14.7250206	-14.5531332	4.4117766	69.06435732	-0.95683986	-23.56576254
3.55	355	0.206	-0.952	-0.59	-16.1574156	-24.6944898	6.0733548	68.88101076	-1.07143146	-23.777757
3.56	356	0.2	-1.064	-0.594	-14.7823164	-38.101707	9.8548776	68.74350084	-1.2891555	-24.09861348
3.57	357	0.161	-1.075	-0.533	-11.0007936	-52.425657	11.6883432	68.65182756	-1.5756345	-24.54552072
3.58	358	0.092	-0.98	-0.452	-7.2192708	-62.6243094	8.880849	68.60026134	-1.86784308	-25.0955604
3.59	359	0.054	-0.89	-0.412	-4.0680018	-66.8069028	2.6929026	68.59453176	-2.1199446	-25.70862546
3.6	360	0.037	-0.865	-0.374	-0.572958	-68.2392978	-1.432395	68.6117205	-2.32620948	-26.35033842
3.61	361	0.011	-0.859	-0.338	0.9167328	-67.5517482	-3.5523396	68.65755714	-2.5210152	-26.99205138
3.62	362	-0.007	-0.849	-0.309	2.86479	-65.8328742	-3.724227	68.7263121	-2.70436176	-27.6165756
3.63	363	-0.036	-0.838	-0.291	4.6982556	-63.9421128	-2.6356068	68.8122558	-2.88770832	-28.22391108
3.64	364	-0.064	-0.834	-0.28	5.0993262	-61.4210976	-1.145916	68.90392908	-3.08251404	-28.80259866
3.65	365	-0.082	-0.837	-0.279	4.0680018	-58.155237	0.6875496	68.9841432	-3.28304934	-29.34117918
3.66	366	-0.084	-0.857	-0.27	3.0366774	-54.6601932	2.5210152	69.05289816	-3.48931422	-29.83965264
3.67	367	-0.066	-0.89	-0.268	0.9740286	-51.852699	3.6096354	69.0987348	-3.68984952	-30.31520778
3.68	368	-0.032	-0.92	-0.283	-2.2345362	-49.6181628	3.9534102	69.11592354	-3.89038482	-30.76211502
3.69	369	0	-0.933	-0.281	-4.7555514	-48.5295426	3.4950438	69.10446438	-4.07946096	-31.20329268
3.7	370	0.026	-0.939	-0.293	-7.6203414	-49.0452048	2.86479	69.0700869	-4.25134836	-31.6559295
3.71	371	0.053	-0.943	-0.324	-11.0007936	-50.8213746	2.4064236	69.00133194	-4.4404245	-32.12575506
3.72	372	0.072	-0.944	-0.346	-13.5791046	-52.4829528	3.2085648	68.90965866	-4.64668938	-32.6013102
3.73	373	0.074	-0.946	-0.375	-14.610429	-53.9153478	4.583664	68.80652622	-4.870143	-33.09405408
3.74	374	0.054	-0.922	-0.389	-15.0687954	-54.4883058	4.9274388	68.70339378	-5.0993262	-33.58679796
3.75	375	0.023	-0.901	-0.391	-14.8396122	-53.858052	3.724227	68.59453176	-5.30559108	-34.07381226
3.76	376	-0.007	-0.878	-0.397	-14.7823164	-52.0245864	1.145916	68.4971289	-5.48893764	-34.56082656
3.77	377	-0.02	-0.874	-0.39	-14.3812458	-50.1911208	-1.432395	68.40545562	-5.64936588	-35.0363817
3.78	378	-0.014	-0.89	-0.381	-13.9228794	-49.5035712	-3.724227	68.31951192	-5.78114622	-35.51193684
3.79	379	-0.002	-0.921	-0.377	-13.6936962	-50.2484166	-5.3285094	68.23356822	-5.90719698	-35.99895114
3.8	380	0.013	-0.957	-0.381	-13.9801752	-51.9099948	-5.9587632	68.14762452	-6.016059	-36.50888376
3.81	381	0.029	-0.965	-0.375	-15.0114996	-53.8007562	-5.9014674	68.06168082	-6.14783934	-37.03600512
3.82	382	0.028	-0.946	-0.374	-16.042824	-56.3217714	-5.6149884	67.96427796	-6.29107884	-37.58031522
3.83	383	0.023	-0.923	-0.381	-18.2200644	-59.874111	-5.0993262	67.84968636	-6.45723666	-38.1590028
3.84	384	0.052	-0.883	-0.393	-20.3973048	-64.9734372	-4.4117766	67.7236356	-6.64058322	-38.78352702
3.85	385	0.07	-0.849	-0.403	-21.8296998	-70.0727634	-4.2398892	67.5803961	-6.83538894	-39.45388788
3.86	386	0.078	-0.828	-0.413	-22.5172494	-75.916935	-4.4117766	67.45434534	-7.06457214	-40.17581496
3.87	387	0.084	-0.813	-0.407	-23.1475032	-81.0162612	-5.0420304	67.322565	-7.31094408	-40.95503784
3.88	388	0.093	-0.799	-0.407	-23.3766864	-86.0009958	-6.1306506	67.2079734	-7.5630456	-41.78009736
3.89	389	0.073	-0.81	-0.391	-22.5172494	-90.3554766	-6.7036086	67.10484096	-7.82660628	-42.64526394
3.9	390	0.021	-0.839	-0.371	-22.0015872	-93.678633	-6.4171296	67.01889726	-8.09589654	-43.544808
3.91	391	-0.029	-0.861	-0.362	-21.5432208	-95.683986	-5.0420304	66.93868314	-8.39956428	-44.45581122
3.92	392	-0.08	-0.869	-0.367	-20.626488	-96.4861272	-3.0366774	66.88138734	-8.72042076	-45.36681444
3.93	393	-0.112	-0.874	-0.372	-19.0222056	-95.7985776	-0.9740286	66.8355507	-9.06419556	-46.26062892
3.94	394	-0.123	-0.873	-0.382	-17.0168526	-94.3088868	1.0313244	66.81836196	-9.41942952	-47.13725466
3.95	395	-0.126	-0.854	-0.392	-14.8396122	-93.3348582	2.6356068	66.81836196	-9.78039306	-47.99669166
3.96	396	-0.133	-0.823	-0.398	-13.178034	-93.0483792	3.5523396	66.84700986	-10.15281576	-48.85612866
3.97	397	-0.125	-0.795	-0.399	-12.032118	-92.5900128	4.297185	66.88711692	-10.53096804	-49.7041065
3.98	398	-0.102	-0.787	-0.4	-10.9434978	-92.3608296	5.2712136	66.94441272	-10.9148499	-50.54635476
3.99	399	-0.084	-0.795	-0.404	-9.6256944	-93.7932246	6.2452422	67.02462684	-11.3159205	-51.40579176
4	400	-0.083	-0.813	-0.411	-8.0787078	-96.1423524	7.161975	67.1220297	-11.7169911	-52.27668792
4.01	401	-0.087	-0.811	-0.419	-5.72958	-98.0904096	7.3338624	67.2652692	-12.13525044	-53.17623198
4.02	402	-0.084	-0.798	-0.416	-3.151269	-99.0644382	6.9327918	67.4371566	-12.55350978	-54.08150562
4.03	403	-0.086	-0.78	-0.405	-0.8021412	-98.835255	6.1306506	67.64342148	-12.95458038	-54.99250884
4.04	404	-0.093	-0.77	-0.388	1.718874	-97.689339	5.5576926	67.88406384	-13.3499214	-55.90351206
4.05	405	-0.112	-0.769	-0.368	3.6096354	-96.0850566	5.2139178	68.13616536	-13.7223441	-56.79732654
4.06	406	-0.14	-0.785	-0.348	4.297185	-94.251591	5.6722842	68.40545562	-14.0947668	-57.67395228
4.07	407	-0.154	-0.804	-0.336	4.1825934	-91.9024632	6.9900876	68.6690163	-14.4671895	-58.53338928
4.08	408	-0.157	-0.826	-0.323	4.4117766	-89.7825186	8.9954406	68.93830656	-14.85107136	-59.36417838
4.09	409	-0.159	-0.84	-0.314	4.010706	-88.235532	11.0007936	69.20186724	-15.2406828	-60.17204916
4.1	410	-0.154	-0.848	-0.311	3.724227	-86.5739538	13.0634424	69.45969834	-15.63029424	-60.9627312
4.11	411	-0.142	-0.852	-0.306	3.6669312	-85.370742	14.896908	69.72325902	-16.042824	-61.74195408
4.12	412	-0.133	-0.851	-0.301	3.4950438	-84.7404882	16.4438946	69.9868197	-16.46108334	-62.5097178
4.13	413	-0.133	-0.843	-0.299	3.0939732	-84.2821218	17.761698	70.2446508	-16.89080184	-63.27175194
4.14	414	-0.123	-0.837	-0.29	3.3231564	-84.1102344	18.621135	70.51967064	-17.32052034	-64.03378608
4.15	415	-0.112	-0.832	-0.283	2.86479	-83.651868	19.194093	70.7889609	-17.73877968	-64.79582022
4.16	416	-0.107	-0.828	-0.267	2.9220858	-82.6778394	19.8816426	71.05825116	-18.16849818	-65.5463952
4.17	417	-0.112	-0.829	-0.259	3.151269	-81.646515	20.5118964	71.33900058	-18.60394626	-66.2912406
4.18	418	-0.112	-0.825	-0.258	2.9220858	-80.2714158	21.199446	71.61402042	-19.03366476	-67.02462684
4.19	419	-0.115	-0.816	-0.255	2.578311	-79.2973872	22.5745452	71.88904026	-19.46911284	-67.74655392
4.2	420	-0.131	-0.807	-0.257	1.6615782	-78.3806544	24.4080108	72.15833052	-19.90456092	-68.45702184
4.21	421	-0.147	-0.802	-0.266	1.2605076	-77.2920342	25.9549974	72.4218912	-20.36292732	-69.1560306
4.22	422	-0.143	-0.802	-0.264	1.6615782	-75.6877518	27.215505	72.69118146	-20.82129372	-69.83785062
4.23	423	-0.138	-0.8	-0.265	1.8907614	-74.0261736	28.7624916	72.96047172	-21.29111928	-70.5024819
4.24	424	-0.127	-0.8	-0.254	3.7815228	-73.3959198	30.5959572	73.2526803	-21.77813358	-71.1613836
4.25	425	-0.107	-0.801	-0.238	5.0420304	-73.5678072	32.1429438	73.55634804	-22.24795914	-71.8202853
4.26	426	-0.086	-0.798	-0.217	5.3285094	-73.5678072	33.3461556	73.87720452	-22.75216218	-72.48491658
4.27	427	-0.071	-0.796	-0.212	5.443101	-74.5991316	34.4347758	74.20952016	-23.2620948	-73.15527744
4.28	428	-0.065	-0.791	-0.211	6.3598338	-76.6617804	35.523396	74.56475412	-23.78348658	-73.8542862
4.29	429	-0.061	-0.78	-0.201	6.0733548	-78.208767	36.7266078	74.92571766	-24.3220671	-74.57621328
4.3	430	-0.06	-0.76	-0.187	5.7868758	-79.5838662	37.815228	75.30386994	-24.84345888	-75.30959952
4.31	431	-0.06	-0.742	-0.169	5.3285094	-80.3860074	38.7892566	75.6877518	-25.39349856	-76.0601745
4.32	432	-0.064	-0.724	-0.149	3.8388186	-80.8443738	39.3049188	76.07163366	-25.94353824	-76.82220864
4.33	433	-0.071	-0.709	-0.133	2.6356068	-81.4746276	39.4195104	76.44978594	-26.49357792	-77.59570194
4.34	434	-0.072	-0.697	-0.125	2.0626488	-82.6778394	39.820581	76.83939738	-27.0436176	-78.39211356
4.35	435	-0.054	-0.689	-0.116	1.3750992	-84.2821218	40.7373138	77.24619756	-27.58219812	-79.2114435
4.36	436	-0.028	-0.675	-0.113	0.9740286	-85.7718126	41.6540466	77.6644569	-28.14942654	-80.05369176
4.37	437	0.004	-0.665	-0.113	1.2605076	-86.6885454	42.5134836	78.0941754	-28.71665496	-80.91312876
4.38	438	0.027	-0.646	-0.089	2.1199446	-86.9750244	43.0291458	78.5525418	-29.28388338	-81.77829534
4.39	439	0.042	-0.617	-0.055	2.8074942	-88.1209404	43.7166954	79.03382652	-29.85684138	-82.67210982
4.4	440	0.045	-0.578	-0.033	3.6669312	-89.2668564	44.8626114	79.54948872	-30.41261064	-83.58884262
4.41	441	0.032	-0.547	-0.01	2.6356068	-90.527364	45.2063862	80.06515092	-30.99129822	-84.52276416
4.42	442	0.001	-0.517	0.017	-0.6875496	-92.7046044	44.690724	80.58081312	-31.55852664	-85.50252234
4.43	443	-0.037	-0.488	0.038	-4.4690724	-94.4807742	44.4615408	81.07928658	-32.1142959	-86.51092842
4.44	444	-0.052	-0.464	0.055	-8.4797784	-96.6580146	44.690724	81.56630088	-32.67579474	-87.55944156
4.45	445	-0.051	-0.442	0.056	-13.3499214	-99.7519878	45.3782736	82.0475856	-33.22010484	-88.65379134
4.46	446	-0.018	-0.427	0.085	-17.475219	-102.4448904	46.2950064	82.51168158	-33.78733326	-89.79397776
4.47	447	0.024	-0.424	0.095	-21.9442914	-103.6481022	46.5241896	82.95858882	-34.3488321	-90.9570825
4.48	448	0.054	-0.425	0.088	-27.215505	-103.0178484	45.9512316	83.35965942	-34.89887178	-92.12591682
4.49	449	0.068	-0.42	0.066	-31.51269	-100.6114248	45.6647526	83.72062296	-35.4374523	-93.28329198
4.5	450	0.048	-0.401	0.048	-33.7472262	-97.8612264	46.0085274	84.05866818	-35.9531145	-94.4234784
4.51	451	0.017	-0.365	0.047	-34.3201842	-95.683986	47.3836266	84.38525424	-36.4974246	-95.5407465
4.52	452	-0.031	-0.306	0.085	-32.945085	-95.5693944	49.3316838	84.73475862	-37.04746428	-96.66374418
4.53	453	-0.075	-0.252	0.094	-31.0543236	-95.5693944	52.1964738	85.12437006	-37.62615186	-97.79820102
4.54	454	-0.09	-0.212	0.111	-26.8144344	-95.3402112	55.6915176	85.56554772	-38.23348734	-98.93838744
4.55	455	-0.09	-0.195	0.132	-22.8610242	-94.4234784	60.1032942	86.07548034	-38.86947072	-100.090033
4.56	456	-0.103	-0.184	0.15	-21.199446	-92.4754212	64.9161414	86.58541296	-39.54556116	-101.2244899
4.57	457	-0.138	-0.172	0.133	-19.3086846	-91.2149136	69.9581718	87.12972306	-40.26748824	-102.3532171
4.58	458	-0.174	-0.13	0.168	-16.6730778	-93.678633	75.1720896	87.74278812	-41.02952238	-103.5335106
4.59	459	-0.173	-0.072	0.198	-14.7250206	-98.262297	80.0422326	88.44752646	-41.83166358	-104.7997478
4.6	460	-0.154	-0.004	0.203	-11.8602306	-101.700045	85.1988546	89.26112682	-42.685371	-106.1576582
4.61	461	-0.115	0.082	0.179	-8.3651868	-99.6373962	90.240885	90.11483424	-43.55626716	-107.5041095
4.62	462	-0.163	0.196	0.127	-2.5210152	-100.0384668	94.4807742	91.0716741	-44.4615408	-108.8963975
4.63	463	-0.156	0.292	0.109	4.3544808	-108.5182452	98.1477054	92.22904926	-45.37254402	-110.4491137
4.64	464	-0.078	0.382	0.047	5.8441716	-119.0606724	101.2416786	93.56977098	-46.28354724	-112.2080947
4.65	465	0.029	0.462	-0.037	8.307891	-127.9988172	103.705398	95.09956884	-47.20028004	-114.1618815
4.66	466	0.058	0.523	-0.054	19.0222056	-144.6145992	107.6588082	96.99033024	-48.07690578	-116.4365248
4.67	467	-0.319	0.499	0.124	39.7059894	-177.9607548	115.6802202	99.56291166	-48.90769488	-119.2955852
4.68	468	-0.938	0.35	0.287	63.6556338	-210.562065	126.1653516	102.8803385	-49.66972902	-122.7734402
4.69	469	-1.436	-0.058	0.438	110.294415	-233.7095682	124.1599986	107.0285544	-50.20257996	-126.692473
4.7	470	-1.723	-0.778	0.769	167.1891444	-251.9869284	98.548776	111.9273453	-50.22549828	-130.8063114
4.71	471	-1.615	-0.664	1.165	154.412181	-270.3788802	98.8925508	116.8662433	-49.93901928	-135.1550626
4.72	472	-3.705	-2.487	0.823	228.5529462	-234.2825262	4.7555514	121.5301214	-48.79883286	-138.19174
4.73	473	-3.648	-2.803	1.112	124.7902524	-112.013289	-5.6149884	123.7933055	-48.128472	-139.5038138
4.74	474	-3.875	-0.85	1.257	52.4829528	-83.07891	131.6084526	125.9189797	-48.70715958	-141.6180289
4.75	475	-3.718	-0.704	3.365	198.5872428	-231.188553	190.7377182	131.2818665	-48.71861874	-146.0126167
4.76	476	-3.674	-0.995	3.999	223.5109158	-449.0844804	169.7101596	138.2547654	-46.696077	-152.2865068
4.77	477	-2.693	-1.12	2.746	424.275399	-368.0682192	197.0402562	146.3678507	-44.97147342	-157.5233429
4.78	478	-1.766	-0.551	2.711	284.3590554	-296.6203566	187.930224	152.2120223	-43.3729206	-161.6944772
4.79	479	-1.475	0.154	2.621	187.5291534	-217.151082	153.9538146	156.2112691	-42.0837651	-164.7426137
4.8	480	-1.236	-0.092	1.624	98.835255	-123.8162238	105.137793	158.4744532	-41.35037886	-166.6104568
4.81	481	-1.099	-0.261	1.002	80.21412	-138.1974696	92.8764918	160.4339696	-40.38780942	-168.3293308
4.82	482	-0.893	-0.782	0.948	100.7833122	-157.2196752	94.3088868	162.5882917	-39.20178636	-170.059664
4.83	483	-0.653	-0.8	0.874	114.5916	-171.1998504	141.4060344	165.1837914	-37.9584675	-172.3113889
4.84	484	-2.243	-0.846	0.759	108.3463578	-190.5658308	100.1530584	167.3381135	-36.35991468	-174.0073446
4.85	485	-0.341	-1.062	1.03	80.9016696	-213.140376	42.7426668	168.736131	-34.38320958	-174.9641845
4.86	486	1.557	-0.083	1.15	69.4425096	-227.3497344	54.9466722	170.0539344	-32.26899456	-176.0184272
4.87	487	-0.156	1.898	0.571	108.6328368	-201.5093286	49.2170922	171.6352985	-30.38396274	-176.8778642
4.88	488	-1.663	1.29	0.785	112.4716554	-161.4595644	36.8984952	173.0906118	-28.85416488	-177.4794701
4.89	489	-0.427	-0.017	1.048	135.7337502	-145.817811	54.2591226	174.8324041	-27.48479526	-178.2013972
4.9	490	-0.076	-0.595	1.132	110.6381898	-142.2081756	56.4936588	176.2762583	-26.13261438	-178.8889468
4.91	491	-0.487	0.256	1.183	115.5656286	-142.1508798	45.550161	177.6971941	-24.76324476	-179.4217977
4.92	492	-0.458	0.196	1.173	105.1950888	-142.8384294	16.6730778	178.8545693	-23.36522724	-179.5936851
4.93	493	-0.169	-0.318	1.392	60.8481396	-148.96908	8.3651868	179.5192006	-21.89845476	-179.6567105
4.94	494	-0.119	0.425	1.2	23.1475032	-154.0684062	-4.583664	179.7426542	-20.38011606	-179.5707668
4.95	495	-0.052	-0.093	1.304	-16.042824	-162.9492552	-12.2040054	179.5707668	-18.7643745	-179.4160681
4.96	496	-0.218	0.757	1.212	-27.3873924	-164.2670586	-22.5745452	179.2327216	-17.13717378	-179.1467779
4.97	497	-0.381	0.841	1.181	-11.3445684	-142.380063	-16.615782	179.0837525	-15.72196752	-178.9577017
4.98	498	-0.252	0.239	1.381	10.026765	-125.0194356	-11.8602306	179.1639666	-14.49010782	-178.8201918
4.99	499	0.083	-0.674	1.287	58.155237	-125.7069852	-32.0283522	179.691088	-13.25251854	-178.4649578
5	500	0.004	-0.312	1.31	56.5509546	-150.687954	-99.9238752	-179.9489191	-11.76855732	-177.4049855
5.01	501	-0.127	0.1	1.217	52.3110654	-147.0783186	-128.9728458	-179.6567105	-10.32470316	-176.0470751
5.02	502	0.135	-0.358	1.343	57.4676874	-134.2440594	-136.9942578	-179.3014765	-9.0240885	-174.6146801
5.03	503	-0.014	-0.18	1.204	36.0390582	-131.2646778	-147.250206	-179.1410483	-7.75212174	-173.0791526
5.04	504	0.059	-0.289	1.25	21.8869956	-125.9361684	-137.6818074	-179.0837525	-6.53745078	-171.6467576
5.05	505	-0.055	-0.183	1.051	6.9327918	-117.9720522	-124.5037734	-179.1525074	-5.39153478	-170.3518726
5.06	506	-0.093	-0.041	1.006	-23.491278	-113.0446134	-100.9551996	-179.4619048	-4.28572584	-169.3033594
5.07	507	-0.244	0.462	0.871	9.2246238	-97.8612264	-67.3798608	-179.404609	-3.32888598	-168.5928915
5.08	508	-0.181	0.264	0.924	17.18874	-85.3134462	-52.0245864	-179.2499103	-2.4923673	-168.0428518
5.09	509	-0.315	0.522	0.818	15.2406828	-68.8122558	-30.8251404	-179.0952116	-1.82200644	-167.7048066
5.1	510	-0.254	0.296	0.818	30.9970278	-50.3057124	-14.896908	-178.762896	-1.3464513	-167.5329192
5.11	511	-0.156	0.207	0.812	23.4339822	-38.8465524	-4.9847346	-178.5222536	-0.96256944	-167.4584347
5.12	512	-0.071	0.064	0.814	17.5898106	-29.1635622	0.0572958	-178.3389071	-0.67609044	-167.4412459
5.13	513	-0.092	-0.005	0.825	8.0787078	-23.0902074	2.291832	-178.2529634	-0.45263682	-167.4527051
5.14	514	-0.05	0.028	0.828	-1.3750992	-17.3606274	4.1825934	-178.2644225	-0.27501984	-167.4870826
5.15	515	-0.011	0.05	0.845	-8.7662574	-13.0061466	5.3858052	-178.3446367	-0.1432395	-167.5329192
5.16	516	-0.002	0.057	0.863	-14.5531332	-9.6256944	6.302538	-178.4878762	-0.04583664	-167.590215
5.17	517	-0.012	0.058	0.896	-21.3140376	-6.7036086	7.2765666	-178.7056002	0.01718874	-167.65897
5.18	518	-0.014	0.076	0.927	-26.7571386	-3.151269	6.4171296	-178.9748905	0.05156622	-167.7277249
5.19	519	-0.002	0.043	0.951	-32.7159018	2.291832	5.443101	-179.3072061	0.03437748	-167.7850207
5.2	520	0.011	0.002	0.969	-36.2682414	6.875496	5.443101	-179.6796288	-0.01718874	-167.8423165
5.21	521	0.03	0.015	0.972	-38.2735944	10.0840608	5.8441716	179.9260007	-0.1145916	-167.9110715
5.22	522	0.032	-0.081	0.999	-41.539455	11.0580894	6.589017	179.5020118	-0.21772404	-167.9798264
5.23	523	0.041	-0.021	1.016	-43.3729206	11.2872726	7.1046792	179.0608342	-0.32658606	-168.054311
5.24	524	0.049	-0.039	1.041	-44.5761324	10.599723	7.448454	178.6081973	-0.4297185	-168.1345251
5.25	525	0.032	-0.057	1.061	-44.5761324	9.9121734	7.0473834	178.1498309	-0.5156622	-168.2090096
5.26	526	0.061	-0.028	1.071	-44.5188366	9.1100322	6.2452422	177.6971941	-0.6016059	-168.272035
5.27	527	0.046	-0.023	1.08	-44.7480198	6.9900876	6.1879464	177.2388277	-0.67036086	-168.34079
5.28	528	0.027	-0.026	1.09	-43.9458786	5.6722842	5.6722842	176.7976501	-0.72192708	-168.3980858
5.29	529	0.018	-0.041	1.098	-43.2010332	4.8128472	4.9274388	176.3564724	-0.76776372	-168.449652
5.3	530	0.042	-0.052	1.112	-43.6021038	3.151269	4.9847346	175.9152947	-0.78495246	-168.5012182
5.31	531	0.006	-0.086	1.126	-45.2063862	0.2291832	4.4117766	175.4569283	-0.79068204	-168.5470549
5.32	532	0.037	-0.074	1.148	-46.1804148	-2.005353	3.6096354	174.9871028	-0.76776372	-168.5871619
5.33	533	0.01	-0.047	1.135	-48.0711762	-4.010706	3.4950438	174.5000885	-0.72192708	-168.6329986
5.34	534	0.002	-0.124	1.135	-50.2484166	-5.7868758	3.5523396	173.9901559	-0.66463128	-168.6788352
5.35	535	-0.01	-0.095	1.136	-50.8786704	-6.9327918	3.5523396	173.4859528	-0.59587632	-168.7246718
5.36	536	-0.004	-0.092	1.128	-50.706783	-6.3598338	3.5523396	172.9702906	-0.53285094	-168.7705085
5.37	537	0.002	-0.1	1.128	-49.9619376	-5.8441716	3.4950438	172.4660876	-0.46982556	-168.8106155
5.38	538	0	-0.14	1.136	-48.0711762	-5.0993262	3.151269	171.9790733	-0.41825934	-168.8564522
5.39	539	0.024	-0.15	1.132	-44.7480198	-4.1252976	2.7501984	171.5264365	-0.37815228	-168.8908297
5.4	540	0.015	-0.142	1.147	-40.680018	-3.2085648	2.4637194	171.1139067	-0.3437748	-168.9252071
5.41	541	0.03	-0.154	1.161	-37.24227	-2.9793816	2.4064236	170.7357544	-0.3151269	-168.953855
5.42	542	0.02	-0.222	1.05	-35.6952834	-4.6409598	3.3804522	170.3747909	-0.26929026	-168.9996917
5.43	543	0.027	-0.207	1.008	-30.7105488	-5.443101	3.2085648	170.0653936	-0.21772404	-169.0397987
5.44	544	0.095	-0.185	0.958	-34.6066632	-9.740286	4.1825934	169.7158892	-0.12605076	-169.0970945
5.45	545	-0.047	-0.207	0.841	-34.7785506	-5.156622	4.1252976	169.3434665	-0.0859437	-169.1543903
5.46	546	-0.08	-0.069	0.717	-44.3469492	-3.2658606	5.0993262	168.8908297	-0.0572958	-169.2116861
5.47	547	0.014	0.119	0.628	-48.9306132	-0.5156622	6.5317212	168.3980858	-0.06302538	-169.2804411
5.48	548	0.049	-0.057	0.719	-30.8251404	0.6875496	3.9534102	168.0829589	-0.07448454	-169.3205482
5.49	549	0.039	-0.257	0.879	-4.9847346	12.891555	2.1199446	168.0313927	-0.2005353	-169.3205482
5.5	550	0.002	-0.208	1.064	14.9542038	26.4706596	1.5469866	168.2090096	-0.46409598	-169.2861707
5.51	551	-0.022	-0.555	1.169	29.9657034	30.7678446	0.5156622	168.5069478	-0.7734933	-169.2346045
5.52	552	0.023	-0.231	1.268	39.0757356	27.3300966	-1.2032118	168.9022888	-1.03705398	-169.1773087
5.53	553	0.012	-0.173	1.239	42.7999626	21.6578124	-2.6929026	169.3320073	-1.24904844	-169.1085537
5.54	554	0.004	-0.247	1.176	43.4302164	15.9855282	-2.4637194	169.7674554	-1.4037471	-169.0569875
5.55	555	-0.008	-0.23	1.123	39.3622146	9.5111028	-2.0626488	170.1513373	-1.49542038	-169.0168804
5.56	556	0.002	-0.174	1.066	33.0596766	3.6096354	-1.5469866	170.4836529	-1.52979786	-168.9939621
5.57	557	0.019	-0.166	0.984	25.496631	-1.8907614	-1.4896908	170.7472136	-1.51260912	-168.9767734
5.58	558	-0.016	-0.202	0.961	20.2827132	-4.7555514	-0.6875496	170.9534785	-1.46677248	-168.9767734
5.59	559	-0.023	-0.149	0.919	11.45916	-8.1360036	0.0572958	171.0680701	-1.38655836	-168.9882325
5.6	560	-0.016	-0.152	0.893	4.6409598	-8.4797784	0.6302538	171.1081771	-1.30061466	-169.0054213
5.61	561	-0.007	-0.149	0.876	-1.7761698	-7.0473834	0.9740286	171.0909884	-1.2318597	-169.02261
5.62	562	-0.002	-0.149	0.853	-7.6203414	-3.6096354	0.859437	171.0107743	-1.19748222	-169.0340692
5.63	563	-0.003	-0.141	0.832	-12.8342592	-0.2291832	0.6302538	170.8847235	-1.19175264	-169.0455283
5.64	564	-0.01	-0.14	0.827	-16.4438946	3.2085648	0.6875496	170.7128361	-1.22613012	-169.0455283
5.65	565	-0.013	-0.143	0.851	-17.1314442	5.9587632	0.6302538	170.5352191	-1.28342592	-169.0455283
5.66	566	-0.012	-0.138	0.901	-16.6730778	8.307891	0.7448454	170.3633317	-1.36364004	-169.0455283
5.67	567	-0.01	-0.133	0.933	-14.6677248	9.6829902	0	170.2143626	-1.45531332	-169.0340692
5.68	568	-0.006	-0.136	0.975	-12.4331886	10.5424272	-0.286479	170.0883119	-1.55844576	-169.0168804
5.69	569	-0.004	-0.148	1.013	-10.1413566	11.6310474	-0.286479	169.9794499	-1.67303736	-168.9996917
5.7	570	-0.003	-0.157	1.044	-7.9068204	12.8342592	-0.4010706	169.9049653	-1.78189938	-168.9767734
5.71	571	-0.005	-0.167	1.061	-6.1879464	13.5218088	-0.4583664	169.8419399	-1.91367972	-168.953855
5.72	572	-0.014	-0.173	1.072	-4.4690724	13.4072172	-0.4010706	169.7903737	-2.03973048	-168.9309367
5.73	573	-0.018	-0.17	1.078	-2.86479	13.0634424	-0.1145916	169.7617258	-2.17151082	-168.9080184
5.74	574	-0.027	-0.164	1.09	-0.9167328	12.6623718	0	169.7502667	-2.291832	-168.8908297
5.75	575	-0.036	-0.166	1.09	1.5469866	12.1467096	0.2291832	169.7674554	-2.4064236	-168.8736409
5.76	576	-0.033	-0.163	1.082	3.0366774	11.745639	0.4010706	169.8018329	-2.5210152	-168.8621818
5.77	577	-0.03	-0.162	1.076	4.8128472	11.2299768	0.572958	169.8476695	-2.6356068	-168.8507226
5.78	578	-0.032	-0.165	1.065	6.5317212	9.9694692	0.4010706	169.9106949	-2.73300966	-168.8392634
5.79	579	-0.033	-0.167	1.047	7.734933	7.6203414	0.1718874	169.990909	-2.8074942	-168.8278043
5.8	580	-0.031	-0.165	1.029	8.6516658	4.6409598	0.1718874	170.0825823	-2.8361421	-168.8220747
5.81	581	-0.027	-0.164	1.009	9.1100322	1.4896908	0	170.1742556	-2.85333084	-168.8220747
5.82	582	-0.025	-0.161	0.986	9.0527364	-1.2032118	0	170.2659289	-2.84187168	-168.8220747
5.83	583	-0.025	-0.158	0.968	8.307891	-4.4690724	-0.1718874	170.3518726	-2.80176462	-168.8220747
5.84	584	-0.025	-0.158	0.956	7.1046792	-6.0733548	-0.1718874	170.4263571	-2.73873924	-168.8278043
5.85	585	-0.024	-0.156	0.95	5.8441716	-6.8182002	-0.1718874	170.4836529	-2.65279554	-168.8392634
5.86	586	-0.023	-0.154	0.95	4.3544808	-6.9327918	-0.1718874	170.5294895	-2.58404058	-168.844993
5.87	587	-0.024	-0.155	0.953	2.9220858	-6.589017	-0.1145916	170.5581374	-2.5210152	-168.8507226
5.88	588	-0.025	-0.154	0.961	1.6615782	-5.7868758	-0.0572958	170.5753262	-2.4637194	-168.8564522
5.89	589	-0.024	-0.155	0.971	0.6875496	-4.7555514	-0.0572958	170.5867853	-2.41788276	-168.8621818
5.9	590	-0.024	-0.156	0.982	-0.1718874	-3.6096354	0	170.5810558	-2.33193906	-168.8679113
5.91	591	-0.024	-0.161	0.997	-1.0313244	-1.4896908	-0.0572958	170.5695966	-2.3204799	-168.8679113
5.92	592	-0.023	-0.161	1.01	-1.2605076	0.1145916	0	170.5581374	-2.3204799	-168.8679113
5.93	593	-0.025	-0.161	1.019	-1.3750992	1.6042824	0	170.5409487	-2.33766864	-168.8679113
5.94	594	-0.027	-0.165	1.023	-1.3750992	2.86479	0	170.5294895	-2.36058696	-168.8621818
5.95	595	-0.027	-0.164	1.026	-1.2605076	3.6669312	0.1145916	170.5123008	-2.36631654	-168.8564522
5.96	596	-0.028	-0.164	1.027	-1.2032118	4.297185	0.1145916	170.4951121	-2.41215318	-168.8564522
5.97	597	-0.028	-0.162	1.022	-1.2032118	4.5263682	0.1718874	170.4836529	-2.45226024	-168.8507226
5.98	598	-0.028	-0.158	1.015	-1.0313244	4.4117766	0.2291832	170.4721937	-2.49809688	-168.844993
5.99	599	-0.029	-0.16	1.009	-0.859437	3.9534102	0.1718874	170.4607346	-2.53820394	-168.844993
6	600	-0.028	-0.158	1.005	-0.8021412	3.4950438	0.1718874	170.455005	-2.52674478	-168.8392634
6.01	601	-0.028	-0.156	1.003	-0.8021412	2.6356068	0.286479	170.4492754	-2.5496631	-168.8392634
6.02	602	-0.029	-0.155	0.999	-0.859437	1.6615782	0.2291832	170.4378163	-2.56685184	-168.8392634
6.03	603	-0.028	-0.155	0.995	-0.8021412	0.859437	0.2291832	170.4320867	-2.578311	-168.8392634
6.04	604	-0.028	-0.155	0.995	-0.4583664	0.1145916	0.2291832	170.4263571	-2.578311	-168.844993
6.05	605	-0.027	-0.153	0.996	-0.1145916	-0.3437748	0.2291832	170.5123008	-2.3777757	-168.8507226
6.06	606	-0.028	-0.152	1	0.1145916	-1.2605076	0.1718874	170.5123008	-2.36631654	-168.8564522
6.07	607	-0.026	-0.154	1.003	0.4583664	-2.4064236	0.0572958	170.5180304	-2.34339822	-168.8564522
6.08	608	-0.027	-0.153	1.005	0.6875496	-3.0366774	0.0572958	170.52376	-2.30902074	-168.8621818
6.09	609	-0.026	-0.153	1.006	0.7448454	-3.4950438	0	170.5352191	-2.27464326	-168.8679113
6.1	610	-0.026	-0.153	1.009	0.9167328	-3.6096354	-0.0572958	170.5581374	-2.21161788	-168.8736409
6.11	611	-0.025	-0.153	1.011	1.145916	-3.6096354	-0.0572958	170.5695966	-2.1772404	-168.8736409
6.12	612	-0.025	-0.152	1.016	1.432395	-3.151269	-0.0572958	170.5867853	-2.1485925	-168.8793705
6.13	613	-0.025	-0.154	1.017	1.4896908	-2.5210152	-0.1718874	170.5982445	-2.1199446	-168.8793705
6.14	614	-0.026	-0.153	1.017	1.432395	-2.005353	-0.1718874	170.6154332	-2.10275586	-168.8793705
6.15	615	-0.026	-0.154	1.016	1.432395	-1.0886202	-0.0572958	170.6440811	-2.04546006	-168.8851001
6.16	616	-0.026	-0.155	1.015	1.2605076	-0.4583664	-0.0572958	170.6555403	-2.03973048	-168.8851001
6.17	617	-0.024	-0.156	1.014	1.0313244	0.1145916	-0.0572958	170.6669995	-2.03973048	-168.8793705
6.18	618	-0.023	-0.155	1.01	0.7448454	0.8021412	0	170.672729	-2.05118964	-168.8793705
6.19	619	-0.023	-0.156	1.007	0.5156622	1.3750992	0	170.6784586	-2.0626488	-168.8793705
6.2	620	-0.025	-0.156	1.006	0.286479	1.8334656	0.0572958	170.6841882	-2.0340009	-168.8793705
6.21	621	-0.025	-0.155	1.004	0.0572958	2.005353	0.1145916	170.6841882	-2.05118964	-168.8736409
6.22	622	-0.025	-0.154	1.002	-0.0572958	2.0626488	0.1145916	170.6784586	-2.07410796	-168.8736409
6.23	623	-0.025	-0.156	1.001	-0.286479	2.0626488	0.1145916	170.6784586	-2.0912967	-168.8736409
6.24	624	-0.025	-0.155	1.001	-0.5156622	1.7761698	0.1145916	170.672729	-2.11421502	-168.8736409
6.25	625	-0.025	-0.155	1.001	-0.7448454	1.3750992	0.1718874	170.6669995	-2.07410796	-168.8736409
6.26	626	-0.024	-0.156	1.002	-0.7448454	0.9740286	0.0572958	170.6612699	-2.08556712	-168.8736409
6.27	627	-0.025	-0.156	1.002	-0.859437	0.6302538	0	170.6498107	-2.0912967	-168.8679113
6.28	628	-0.025	-0.156	1.003	-0.9167328	0.4583664	0	170.6440811	-2.09702628	-168.8679113
6.29	629	-0.026	-0.155	1.005	-0.7448454	0.3437748	0	170.632622	-2.09702628	-168.8679113
6.3	630	-0.027	-0.156	1.006	-0.6302538	0.286479	0	170.6383516	-2.01108258	-168.8679113
6.31	631	-0.027	-0.154	1.008	-0.4010706	0.2291832	0	170.632622	-2.01681216	-168.8679113
6.32	632	-0.028	-0.154	1.008	-0.286479	0.3437748	0	170.6268924	-2.01681216	-168.8679113
6.33	633	-0.028	-0.154	1.009	-0.2291832	0.3437748	0	170.6268924	-2.02254174	-168.8679113
6.34	634	-0.028	-0.154	1.009	-0.1145916	0.5156622	0.0572958	170.6268924	-2.02827132	-168.8679113
6.35	635	-0.029	-0.154	1.01	-0.0572958	0.572958	0.1145916	170.6555403	-1.95951636	-168.8679113
6.36	636	-0.029	-0.154	1.009	0	0.6875496	0	170.6555403	-1.96524594	-168.8679113
6.37	637	-0.029	-0.153	1.009	0.1145916	0.8021412	0.0572958	170.6612699	-1.9767051	-168.8679113
6.38	638	-0.03	-0.152	1.007	0.286479	0.859437	0	170.6612699	-1.98243468	-168.8679113
6.39	639	-0.03	-0.153	1.008	0.4583664	0.9740286	0	170.6669995	-1.99389384	-168.8679113
6.4	640	-0.029	-0.153	1.007	0.572958	0.859437	0.0572958	170.6899178	-1.96524594	-168.8679113
6.41	641	-0.029	-0.154	1.005	0.4583664	0.6875496	0	170.6899178	-1.97097552	-168.8679113
6.42	642	-0.028	-0.153	1.005	0.3437748	0.6875496	0.0572958	170.6956474	-1.9767051	-168.8679113
6.43	643	-0.029	-0.153	1.004	0.2291832	0.572958	0.0572958	170.6956474	-1.98243468	-168.8679113
6.44	644	-0.029	-0.153	1.004	0	0.4010706	0.0572958	170.6956474	-1.98816426	-168.8679113
6.45	645	-0.029	-0.153	1.004	-0.1718874	0.286479	0.0572958	170.7242953	-1.87357266	-168.8679113
6.46	646	-0.029	-0.153	1.001	-0.286479	0.1718874	0.0572958	170.7242953	-1.87357266	-168.8679113
6.47	647	-0.029	-0.154	1.001	-0.286479	0	0	170.7185657	-1.87357266	-168.8679113
6.48	648	-0.03	-0.154	1.004	-0.286479	-0.0572958	0	170.7128361	-1.87357266	-168.8679113
6.49	649	-0.029	-0.155	1.006	-0.3437748	-0.2291832	0	170.7128361	-1.87357266	-168.8679113
6.5	650	-0.029	-0.154	1.005	-0.4010706	-0.3437748	0	170.7242953	-1.81627686	-168.8736409
6.51	651	-0.028	-0.154	1.006	-0.286479	-0.4583664	0	170.7242953	-1.81054728	-168.8736409
6.52	652	-0.028	-0.154	1.007	-0.1718874	-0.572958	0	170.7185657	-1.8048177	-168.8736409
6.53	653	-0.029	-0.154	1.007	-0.1145916	-0.572958	0	170.7185657	-1.79908812	-168.8736409
6.54	654	-0.028	-0.155	1.008	-0.1145916	-0.5156622	0	170.7185657	-1.79335854	-168.8736409
6.55	655	-0.027	-0.156	1.01	-0.0572958	-0.4583664	0	170.7185657	-1.73033316	-168.8736409
6.56	656	-0.028	-0.156	1.012	0	-0.4583664	0	170.7185657	-1.72460358	-168.8793705
6.57	657	-0.027	-0.157	1.011	0	-0.4583664	0	170.7185657	-1.718874	-168.8793705
6.58	658	-0.027	-0.155	1.009	0.0572958	-0.2291832	0	170.7185657	-1.718874	-168.8793705
6.59	659	-0.028	-0.155	1.009	0.1145916	-0.1145916	0.0572958	170.7242953	-1.718874	-168.8793705
6.6	660	-0.028	-0.156	1.006	0	0	0.0572958	170.7128361	-1.63865988	-168.8793705
6.61	661	-0.028	-0.153	1.005	0	0	0.0572958	170.7128361	-1.63865988	-168.8793705
6.62	662	-0.028	-0.153	1.004	-0.0572958	0.1145916	0.0572958	170.7071065	-1.63865988	-168.8793705
6.63	663	-0.028	-0.153	1.005	-0.1145916	0.286479	0.0572958	170.7071065	-1.63865988	-168.8793705
6.64	664	-0.028	-0.152	1.004	-0.1718874	0.286479	0	170.7071065	-1.64438946	-168.8793705
6.65	665	-0.029	-0.152	1.004	-0.1145916	0.286479	0	170.7128361	-1.63865988	-168.8793705
6.66	666	-0.03	-0.152	1.005	-0.286479	0.3437748	0	170.7128361	-1.64438946	-168.8793705
6.67	667	-0.029	-0.153	1.006	-0.3437748	0.3437748	0	170.7071065	-1.64438946	-168.8793705
6.68	668	-0.029	-0.153	1.006	-0.3437748	0.3437748	0	170.7013769	-1.65011904	-168.8793705
6.69	669	-0.03	-0.153	1.007	-0.1718874	0.286479	0	170.7013769	-1.65584862	-168.8793705
6.7	670	-0.029	-0.153	1.009	-0.1145916	0.1718874	-0.0572958	170.7185657	-1.6329303	-168.8793705
6.71	671	-0.028	-0.153	1.009	-0.0572958	0.3437748	0	170.7128361	-1.6329303	-168.8793705
6.72	672	-0.029	-0.155	1.009	0	0.286479	0	170.7128361	-1.63865988	-168.8793705
6.73	673	-0.029	-0.155	1.008	-0.0572958	0.3437748	0	170.7128361	-1.64438946	-168.8793705
6.74	674	-0.029	-0.154	1.006	0	0.2291832	0	170.7128361	-1.64438946	-168.8793705
6.75	675	-0.029	-0.154	1.005	0.0572958	0.1718874	0	170.7357544	-1.61001198	-168.8793705
6.76	676	-0.029	-0.154	1.006	0	0.0572958	0	170.7357544	-1.61001198	-168.8793705
6.77	677	-0.029	-0.154	1.006	0	0.1145916	0	170.7357544	-1.61001198	-168.8793705
6.78	678	-0.029	-0.153	1.006	0	0.1718874	-0.0572958	170.7357544	-1.61001198	-168.8736409
6.79	679	-0.029	-0.154	1.007	0.0572958	0.1718874	0	170.7357544	-1.61574156	-168.8736409
6.8	680	-0.029	-0.153	1.007	0	0.2291832	0	170.7529432	-1.59282324	-168.8736409
6.81	681	-0.029	-0.155	1.008	0	0.1145916	0	170.7529432	-1.59855282	-168.8736409
6.82	682	-0.03	-0.153	1.006	0	0.0572958	0	170.7529432	-1.59855282	-168.8736409
6.83	683	-0.029	-0.154	1.005	0	0.0572958	0	170.7529432	-1.59855282	-168.8793705
6.84	684	-0.029	-0.154	1.004	0	0.1145916	0.0572958	170.7529432	-1.59855282	-168.8793705
6.85	685	-0.029	-0.153	1.005	0	0.1145916	0	170.7758615	-1.6042824	-168.8793705
6.86	686	-0.029	-0.154	1.004	-0.0572958	0.1145916	0	170.7758615	-1.6042824	-168.8793705
6.87	687	-0.029	-0.153	1.005	-0.0572958	0.0572958	0	170.7758615	-1.6042824	-168.8793705
6.88	688	-0.028	-0.154	1.007	-0.0572958	0.1145916	0	170.7758615	-1.6042824	-168.8793705
6.89	689	-0.029	-0.153	1.007	-0.1145916	0	0.0572958	170.7701319	-1.6042824	-168.8793705
6.9	690	-0.03	-0.154	1.007	-0.1718874	0.1145916	0	170.7644023	-1.6042824	-168.8793705
6.91	691	-0.03	-0.153	1.009	-0.1145916	0	0	170.7644023	-1.6042824	-168.8793705
6.92	692	-0.03	-0.154	1.009	-0.1145916	-0.1145916	0.0572958	170.7644023	-1.6042824	-168.8793705
6.93	693	-0.029	-0.153	1.007	-0.1718874	-0.1718874	0	170.7586727	-1.6042824	-168.8793705
6.94	694	-0.029	-0.153	1.007	-0.1718874	-0.2291832	0	170.7586727	-1.59855282	-168.8793705
6.95	695	-0.03	-0.153	1.006	-0.0572958	-0.3437748	0	170.7644023	-1.59282324	-168.8793705
6.96	696	-0.03	-0.153	1.006	0	-0.3437748	0	170.7644023	-1.58709366	-168.8793705
6.97	697	-0.03	-0.153	1.007	0.1145916	-0.3437748	0	170.7701319	-1.58709366	-168.8793705
6.98	698	-0.03	-0.153	1.006	0	-0.3437748	0	170.7701319	-1.58136408	-168.8793705
6.99	699	-0.03	-0.154	1.007	0.0572958	-0.3437748	0	170.7701319	-1.5756345	-168.8793705
7	700	-0.029	-0.153	1.008	0	-0.3437748	0	170.7815911	-1.56990492	-168.8851001
7.01	701	-0.03	-0.153	1.007	0	-0.3437748	0	170.7815911	-1.56417534	-168.8851001
7.02	702	-0.03	-0.154	1.006	-0.0572958	-0.1718874	0	170.7815911	-1.56417534	-168.8851001
7.03	703	-0.029	-0.154	1.005	-0.0572958	-0.1718874	0	170.7758615	-1.55844576	-168.8851001
7.04	704	-0.03	-0.153	1.004	-0.1718874	-0.1145916	0	170.7758615	-1.55844576	-168.8851001
7.05	705	-0.03	-0.153	1.005	-0.0572958	-0.0572958	0	170.7873206	-1.56417534	-168.8851001
7.06	706	-0.029	-0.153	1.005	0	-0.1145916	0	170.7873206	-1.56417534	-168.8851001
7.07	707	-0.029	-0.153	1.005	-0.0572958	-0.1145916	-0.0572958	170.7815911	-1.55844576	-168.8851001
7.08	708	-0.029	-0.153	1.008	-0.1718874	-0.1718874	0	170.7815911	-1.55844576	-168.8851001
7.09	709	-0.028	-0.155	1.01	-0.4010706	-0.3437748	0	170.7758615	-1.55271618	-168.8851001
7.1	710	-0.029	-0.154	1.009	-0.5156622	-0.4010706	0	170.7701319	-1.5469866	-168.8851001
7.11	711	-0.029	-0.154	1.008	-0.4010706	-0.4583664	-0.0572958	170.7701319	-1.54125702	-168.8851001
7.12	712	-0.029	-0.154	1.008	-0.4010706	-0.286479	0	170.7644023	-1.54125702	-168.8851001
7.13	713	-0.03	-0.155	1.007	-0.4010706	-0.1145916	-0.0572958	170.7586727	-1.54125702	-168.8851001
7.14	714	-0.031	-0.154	1.007	-0.4010706	-0.0572958	0	170.7529432	-1.53552744	-168.8851001
7.15	715	-0.031	-0.153	1.005	-0.286479	-0.1145916	0	170.7644023	-1.5469866	-168.8851001
7.16	716	-0.029	-0.153	1.005	-0.1718874	0	0	170.7586727	-1.5469866	-168.8851001
7.17	717	-0.03	-0.153	1.005	-0.0572958	0.0572958	0	170.7586727	-1.5469866	-168.8851001
7.18	718	-0.03	-0.154	1.005	-0.0572958	0.1145916	0	170.7586727	-1.5469866	-168.8851001
7.19	719	-0.029	-0.154	1.006	0	0.0572958	0	170.7586727	-1.5469866	-168.8851001
7.2	720	-0.028	-0.155	1.005	0	0	0	170.741484	-1.5469866	-168.8851001
7.21	721	-0.029	-0.153	1.006	0.0572958	-0.0572958	0	170.741484	-1.54125702	-168.8851001
7.22	722	-0.029	-0.153	1.008	0.0572958	0	0	170.7472136	-1.54125702	-168.8851001
7.23	723	-0.029	-0.154	1.009	0.0572958	0	0	170.7472136	-1.54125702	-168.8851001
7.24	724	-0.029	-0.154	1.007	0.0572958	0	0	170.7472136	-1.5469866	-168.8851001
7.25	725	-0.029	-0.154	1.006	0.0572958	0.1145916	0	170.7472136	-1.5469866	-168.8793705
7.26	726	-0.03	-0.155	1.007	0	0.1145916	0.0572958	170.7472136	-1.5469866	-168.8851001
7.27	727	-0.028	-0.155	1.007	0	0.1145916	0	170.7472136	-1.5469866	-168.8793705
7.28	728	-0.029	-0.154	1.006	-0.0572958	0.1718874	-0.0572958	170.7472136	-1.55271618	-168.8793705
7.29	729	-0.029	-0.156	1.006	-0.0572958	0.1145916	0	170.7472136	-1.55271618	-168.8793705
7.3	730	-0.029	-0.154	1.005	-0.0572958	0.1145916	0	170.7529432	-1.54125702	-168.8793705
7.31	731	-0.029	-0.154	1.005	-0.0572958	0.2291832	0	170.7472136	-1.5469866	-168.8793705
7.32	732	-0.029	-0.154	1.006	0	0.1145916	0	170.7472136	-1.5469866	-168.8793705
7.33	733	-0.029	-0.155	1.005	0.0572958	0.1145916	0.0572958	170.7529432	-1.5469866	-168.8793705
7.34	734	-0.029	-0.154	1.007	0.0572958	0.0572958	0	170.7529432	-1.5469866	-168.8793705
7.35	735	-0.029	-0.155	1.006	0	0.0572958	0	170.7701319	-1.52979786	-168.8793705
7.36	736	-0.029	-0.156	1.005	-0.0572958	0.1145916	0	170.7701319	-1.53552744	-168.8851001
7.37	737	-0.029	-0.154	1.006	0	0.1145916	0.0572958	170.7701319	-1.53552744	-168.8851001
7.38	738	-0.029	-0.156	1.006	0.1145916	0.1145916	0.0572958	170.7701319	-1.53552744	-168.8851001
7.39	739	-0.029	-0.155	1.007	0.0572958	0.1145916	0	170.7701319	-1.53552744	-168.8851001
7.4	740	-0.03	-0.154	1.006	0	0.1145916	0.0572958	170.7701319	-1.55271618	-168.8851001
7.41	741	-0.03	-0.155	1.005	0	0.1145916	0.0572958	170.7701319	-1.55271618	-168.8851001
7.42	742	-0.029	-0.155	1.005	0	0.1145916	0	170.7701319	-1.55844576	-168.8851001
7.43	743	-0.029	-0.155	1.007	0	0	0.0572958	170.7701319	-1.55844576	-168.8851001
7.44	744	-0.03	-0.155	1.007	-0.0572958	0	0.0572958	170.7701319	-1.55844576	-168.8851001
7.45	745	-0.03	-0.156	1.008	-0.1718874	0	0.0572958	170.7586727	-1.56417534	-168.8851001
7.46	746	-0.03	-0.154	1.007	-0.1145916	0.0572958	0	170.7586727	-1.56417534	-168.8851001
7.47	747	-0.029	-0.154	1.007	-0.0572958	0	0	170.7586727	-1.56417534	-168.8851001
7.48	748	-0.029	-0.154	1.008	0.0572958	0	0	170.7586727	-1.56417534	-168.8908297
7.49	749	-0.03	-0.154	1.008	0.1145916	0	0.0572958	170.7586727	-1.56417534	-168.8908297
7.5	750	-0.029	-0.154	1.007	0.1718874	-0.1145916	0	170.7644023	-1.56990492	-168.8908297
7.51	751	-0.029	-0.154	1.008	0.1718874	0	0	170.7644023	-1.56990492	-168.8908297
7.52	752	-0.03	-0.154	1.007	0.3437748	0	0	170.7701319	-1.56990492	-168.8908297
7.53	753	-0.029	-0.153	1.007	0.286479	-0.0572958	-0.0572958	170.7758615	-1.56990492	-168.8908297
7.54	754	-0.03	-0.155	1.006	0.2291832	0	0	170.7758615	-1.56990492	-168.8908297
7.55	755	-0.03	-0.154	1.005	0.286479	-0.1145916	0	170.7873206	-1.56417534	-168.8908297
7.56	756	-0.03	-0.155	1.006	0.286479	0	0	170.7873206	-1.56417534	-168.8908297
7.57	757	-0.029	-0.153	1.006	0.286479	0	0	170.7930502	-1.56417534	-168.8908297
7.58	758	-0.03	-0.153	1.005	0.3437748	0.0572958	-0.0572958	170.7930502	-1.56417534	-168.8851001
7.59	759	-0.03	-0.153	1.005	0.4010706	0	0	170.7987798	-1.56417534	-168.8851001
7.6	760	-0.031	-0.155	1.004	0.4583664	0	-0.0572958	170.8045094	-1.56990492	-168.8851001
7.61	761	-0.029	-0.156	1.006	0.4583664	0.1145916	-0.0572958	170.810239	-1.56990492	-168.8851001
7.62	762	-0.029	-0.155	1.009	0.2291832	0	-0.1145916	170.810239	-1.56990492	-168.8851001
7.63	763	-0.029	-0.154	1.01	0	-0.2291832	-0.0572958	170.810239	-1.56417534	-168.8851001
7.64	764	-0.028	-0.155	1.007	-0.1145916	-0.2291832	-0.0572958	170.810239	-1.56417534	-168.8851001
7.65	765	-0.03	-0.155	1.007	0	-0.286479	0	170.8045094	-1.55844576	-168.8851001
7.66	766	-0.029	-0.156	1.008	-0.1145916	-0.2291832	-0.0572958	170.8045094	-1.55844576	-168.8851001
7.67	767	-0.029	-0.155	1.006	-0.0572958	-0.1718874	0	170.8045094	-1.55271618	-168.8851001
7.68	768	-0.029	-0.154	1.005	0	-0.1718874	0	170.8045094	-1.55271618	-168.8851001
7.69	769	-0.029	-0.154	1.006	0	-0.0572958	-0.0572958	170.8045094	-1.55271618	-168.8793705
7.7	770	-0.029	-0.154	1.005	0	0	-0.0572958	170.7930502	-1.55844576	-168.8793705
7.71	771	-0.03	-0.153	1.006	0.0572958	0.1145916	0	170.7930502	-1.55844576	-168.8793705
7.72	772	-0.029	-0.153	1.006	0.1145916	0.1145916	-0.0572958	170.7930502	-1.56417534	-168.8793705
7.73	773	-0.03	-0.153	1.005	0.2291832	0.1145916	0	170.7987798	-1.56417534	-168.8793705
7.74	774	-0.03	-0.153	1.006	0.2291832	0.1718874	-0.0572958	170.7987798	-1.56417534	-168.8793705
7.75	775	-0.03	-0.154	1.006	0.3437748	0	0	170.8045094	-1.56417534	-168.8793705
7.76	776	-0.03	-0.154	1.007	0.3437748	0	0	170.8045094	-1.56417534	-168.8793705
7.77	777	-0.029	-0.153	1.007	0.3437748	-0.1145916	0	170.810239	-1.56417534	-168.8793705
7.78	778	-0.03	-0.154	1.008	0.286479	-0.0572958	0	170.8159685	-1.56417534	-168.8793705
7.79	779	-0.029	-0.153	1.007	0.3437748	-0.0572958	0	170.8159685	-1.56417534	-168.8793705
7.8	780	-0.029	-0.154	1.007	0.3437748	-0.0572958	0	170.8216981	-1.55844576	-168.8793705
7.81	781	-0.029	-0.154	1.006	0.286479	-0.1145916	0.0572958	170.8274277	-1.55844576	-168.8793705
7.82	782	-0.03	-0.154	1.005	0.3437748	-0.1145916	0.0572958	170.8274277	-1.55844576	-168.8793705
7.83	783	-0.029	-0.153	1.006	0.2291832	-0.1145916	0.0572958	170.8331573	-1.55844576	-168.8793705
7.84	784	-0.03	-0.152	1.006	0.1718874	0	0	170.8331573	-1.55844576	-168.8793705
7.85	785	-0.03	-0.153	1.004	0.2291832	0	0.0572958	170.8388869	-1.55844576	-168.8851001
7.86	786	-0.029	-0.154	1.005	0.2291832	0	0.0572958	170.8388869	-1.55844576	-168.8851001
7.87	787	-0.029	-0.154	1.006	0.2291832	0	0	170.8388869	-1.55844576	-168.8851001
7.88	788	-0.029	-0.153	1.007	0.1718874	0.0572958	0.1145916	170.8446164	-1.55844576	-168.8851001
7.89	789	-0.029	-0.153	1.007	0.1145916	0	0	170.8446164	-1.55844576	-168.8851001
7.9	790	-0.029	-0.154	1.006	0.0572958	0.0572958	0.0572958	170.8388869	-1.55844576	-168.8851001
7.91	791	-0.029	-0.153	1.007	0.0572958	0.1145916	0.0572958	170.8388869	-1.55844576	-168.8851001
7.92	792	-0.029	-0.154	1.007	0.0572958	0.1145916	0.0572958	170.8446164	-1.55844576	-168.8851001
7.93	793	-0.029	-0.153	1.007	0	0.1145916	0	170.8446164	-1.56417534	-168.8851001
7.94	794	-0.031	-0.154	1.006	-0.0572958	0.2291832	0	170.8446164	-1.56417534	-168.8851001
7.95	795	-0.03	-0.153	1.007	0.0572958	0.0572958	0	170.8446164	-1.56417534	-168.8851001
7.96	796	-0.03	-0.152	1.006	0	0.1145916	0	170.850346	-1.56990492	-168.8851001
7.97	797	-0.029	-0.152	1.007	0	0.2291832	0	170.850346	-1.56990492	-168.8851001
7.98	798	-0.028	-0.152	1.007	0.0572958	0.1145916	0.0572958	170.850346	-1.56990492	-168.8908297
7.99	799	-0.03	-0.152	1.006	0	0.1145916	0	170.850346	-1.5756345	-168.8908297
8	800	-0.029	-0.152	1.007	0	0.1718874	0	170.8618052	-1.5756345	-168.8908297
8.01	801	-0.03	-0.152	1.007	0.1145916	0	0	170.8618052	-1.5756345	-168.8908297
8.02	802	-0.03	-0.152	1.007	0.1145916	0.1145916	0.0572958	170.8618052	-1.5756345	-168.8908297
8.03	803	-0.031	-0.152	1.008	0.0572958	0.1145916	0	170.8618052	-1.58136408	-168.8908297
8.04	804	-0.03	-0.152	1.007	0.0572958	0.0572958	0	170.8675348	-1.58136408	-168.8908297
8.05	805	-0.029	-0.153	1.008	0	0	0	170.8560756	-1.5756345	-168.8851001
8.06	806	-0.03	-0.152	1.007	0	0.1145916	-0.0572958	170.8560756	-1.5756345	-168.8851001
8.07	807	-0.031	-0.151	1.007	-0.0572958	0.0572958	0	170.8560756	-1.58136408	-168.8851001
8.08	808	-0.029	-0.152	1.006	0	0.0572958	0	170.8560756	-1.58136408	-168.8851001
8.09	809	-0.029	-0.152	1.004	0	0.0572958	0	170.8560756	-1.58136408	-168.8851001
