TimeStamp(s)	FrameCounter	AccX	AccY	AccZ	GyrX	GyrY	GyrZ	EulerX	EulerY	EulerZ
0.01	1	-0.072	-0.99	0.168	-0.286479	-1.0313244	-0.6302538	97.09919226	-3.30596766	-27.49052484
0.02	2	-0.07	-0.99	0.168	-0.2291832	-0.9167328	-0.5156622	97.09919226	-3.30023808	-27.501984
0.03	3	-0.071	-0.992	0.168	-0.2291832	-0.9167328	-0.5156622	97.09346268	-3.28877892	-27.50771358
0.04	4	-0.071	-0.992	0.168	-0.1145916	-0.859437	-0.5156622	97.09346268	-3.28304934	-27.51917274
0.05	5	-0.072	-0.994	0.169	0	-0.9167328	-0.5156622	97.1450289	-3.30023808	-27.53636148
0.06	6	-0.071	-0.996	0.169	0	-0.8021412	-0.572958	97.1450289	-3.2945085	-27.54782064
0.07	7	-0.069	-0.996	0.168	-0.1145916	-0.8021412	-0.6302538	97.1450289	-3.28877892	-27.55355022
0.08	8	-0.069	-0.995	0.169	-0.1718874	-0.8021412	-0.6875496	97.13929932	-3.27731976	-27.5592798
0.09	9	-0.069	-0.996	0.168	-0.1718874	-0.7448454	-0.7448454	97.13929932	-3.27159018	-27.56500938
0.1	10	-0.069	-0.995	0.17	-0.5156622	-0.7448454	-0.7448454	97.1736768	-3.27731976	-27.58219812
0.11	11	-0.068	-0.994	0.169	-0.572958	-0.859437	-0.6302538	97.16794722	-3.2658606	-27.5879277
0.12	12	-0.068	-0.994	0.168	-0.6302538	-0.9740286	-0.6875496	97.16221764	-3.26013102	-27.59938686
0.13	13	-0.068	-0.994	0.168	-0.6302538	-1.145916	-0.6875496	97.15648806	-3.24867186	-27.61084602
0.14	14	-0.07	-0.995	0.169	-0.6302538	-1.0886202	-0.7448454	97.15075848	-3.24294228	-27.6165756
0.15	15	-0.07	-0.996	0.167	-0.6875496	-1.2032118	-0.859437	97.16221764	-3.24294228	-27.63376434
0.16	16	-0.069	-0.994	0.167	-0.7448454	-1.432395	-0.859437	97.15648806	-3.23148312	-27.65095308
0.17	17	-0.07	-0.993	0.167	-0.859437	-1.432395	-0.9740286	97.15075848	-3.22002396	-27.66241224
0.18	18	-0.069	-0.993	0.168	-0.572958	-1.3750992	-1.0313244	97.1450289	-3.20283522	-27.6738714
0.19	19	-0.07	-0.994	0.168	-0.5156622	-1.3178034	-1.0886202	97.13929932	-3.19137606	-27.68533056
0.2	20	-0.071	-0.996	0.17	-0.4583664	-1.2032118	-1.0886202	97.16221764	-3.19137606	-27.7025193
0.21	21	-0.071	-0.997	0.168	-0.4583664	-1.0886202	-1.0886202	97.15648806	-3.1799169	-27.71397846
0.22	22	-0.072	-0.999	0.168	-0.6302538	-1.145916	-0.9740286	97.15075848	-3.16845774	-27.72543762
0.23	23	-0.072	-0.998	0.169	-0.8021412	-1.0313244	-0.9740286	97.1450289	-3.15699858	-27.7311672
0.24	24	-0.071	-0.997	0.17	-0.859437	-1.0313244	-0.9740286	97.13356974	-3.14553942	-27.74262636
0.25	25	-0.07	-0.995	0.171	-0.859437	-1.0313244	-0.9740286	97.15075848	-3.14553942	-27.75408552
0.26	26	-0.069	-0.994	0.17	-1.0313244	-0.9167328	-0.9740286	97.1450289	-3.13408026	-27.76554468
0.27	27	-0.07	-0.993	0.17	-1.0313244	-0.8021412	-0.9740286	97.13356974	-3.1226211	-27.77127426
0.28	28	-0.069	-0.992	0.17	-0.9167328	-0.859437	-1.0313244	97.12211058	-3.11116194	-27.77700384
0.29	29	-0.068	-0.992	0.171	-0.859437	-0.9167328	-1.0313244	97.116381	-3.09970278	-27.788463
0.3	30	-0.067	-0.992	0.17	-0.859437	-0.8021412	-1.0886202	97.13356974	-3.0939732	-27.79992216
0.31	31	-0.067	-0.992	0.17	-0.7448454	-0.9167328	-1.0886202	97.12784016	-3.08251404	-27.80565174
0.32	32	-0.066	-0.992	0.169	-0.6302538	-0.859437	-1.145916	97.12211058	-3.07105488	-27.8171109
0.33	33	-0.066	-0.993	0.168	-0.6302538	-0.7448454	-1.145916	97.116381	-3.05959572	-27.82284048
0.34	34	-0.066	-0.993	0.169	-0.572958	-0.7448454	-1.0313244	97.11065142	-3.04813656	-27.82857006
0.35	35	-0.067	-0.994	0.168	-0.4583664	-0.8021412	-0.9740286	97.13929932	-3.04813656	-27.84002922
0.36	36	-0.066	-0.994	0.167	-0.5156622	-0.7448454	-1.0313244	97.13356974	-3.0366774	-27.8457588
0.37	37	-0.065	-0.994	0.165	-0.6302538	-0.7448454	-1.0313244	97.12784016	-3.02521824	-27.85148838
0.38	38	-0.064	-0.994	0.167	-0.572958	-0.8021412	-0.9740286	97.12211058	-3.01375908	-27.86294754
0.39	39	-0.063	-0.995	0.166	-0.572958	-0.8021412	-1.0313244	97.116381	-3.00229992	-27.86867712
0.4	40	-0.062	-0.995	0.164	-0.4583664	-0.5156622	-0.6875496	97.42577832	-3.07678446	-27.91451376
0.41	41	-0.062	-0.995	0.166	0	0.1145916	0	97.42577832	-3.07678446	-27.91451376
0.42	42	-0.062	-0.996	0.163	-0.0572958	0.0572958	0	97.42577832	-3.07678446	-27.91451376
0.43	43	-0.062	-0.997	0.163	-0.0572958	0.1145916	0	97.42577832	-3.07678446	-27.91451376
0.44	44	-0.062	-0.996	0.164	0	0.1145916	0	97.42577832	-3.07678446	-27.91451376
0.45	45	-0.063	-0.997	0.165	0	0	0	97.6320432	-3.14553942	-27.94316166
0.46	46	-0.064	-0.996	0.165	-0.0572958	0	0.1145916	97.6320432	-3.14553942	-27.94316166
0.47	47	-0.065	-0.995	0.165	-0.0572958	-0.1145916	0.1718874	97.6320432	-3.14553942	-27.94889124
0.48	48	-0.065	-0.994	0.164	-0.0572958	-0.1145916	0.2291832	97.6320432	-3.151269	-27.94889124
0.49	49	-0.064	-0.993	0.164	0	0	0.2291832	97.6320432	-3.151269	-27.94889124
0.5	50	-0.065	-0.993	0.163	0	0	0.286479	97.70652774	-3.19710564	-27.96607998
0.51	51	-0.065	-0.993	0.164	0	-0.0572958	0.2291832	97.70652774	-3.19710564	-27.97180956
0.52	52	-0.064	-0.994	0.166	0	0	0.2291832	97.70652774	-3.20283522	-27.97180956
0.53	53	-0.064	-0.994	0.166	0	-0.1145916	0.286479	97.70652774	-3.20283522	-27.97180956
0.54	54	-0.065	-0.992	0.166	0.0572958	0	0.2291832	97.70652774	-3.2085648	-27.97180956
0.55	55	-0.065	-0.992	0.165	0.1145916	0	0.3437748	97.7466348	-3.22575354	-27.98326872
0.56	56	-0.064	-0.992	0.164	0.1718874	0	0.286479	97.7466348	-3.22575354	-27.98326872
0.57	57	-0.065	-0.992	0.165	0.286479	0	0.3437748	97.75236438	-3.23148312	-27.98326872
0.58	58	-0.063	-0.994	0.164	0.286479	-0.0572958	0.3437748	97.75236438	-3.23148312	-27.98326872
0.59	59	-0.064	-0.994	0.163	0.4010706	0.0572958	0.4583664	97.75809396	-3.2372127	-27.98326872
0.6	60	-0.066	-0.995	0.167	0.4583664	0.2291832	0.4010706	97.7752827	-3.24867186	-27.98326872
0.61	61	-0.065	-0.995	0.166	0.3437748	0.3437748	0.4010706	97.78101228	-3.25440144	-27.98326872
0.62	62	-0.066	-0.994	0.165	0.286479	0.2291832	0.3437748	97.78674186	-3.26013102	-27.97753914
0.63	63	-0.066	-0.992	0.164	0.286479	0.286479	0.3437748	97.78674186	-3.2658606	-27.97753914
0.64	64	-0.065	-0.992	0.166	0.4010706	0.4010706	0.4010706	97.79247144	-3.2658606	-27.97180956
0.65	65	-0.065	-0.995	0.165	0.286479	0.4583664	0.5156622	97.80966018	-3.27731976	-27.97180956
0.66	66	-0.063	-0.997	0.165	0.3437748	0.6875496	0.5156622	97.80966018	-3.28304934	-27.96607998
0.67	67	-0.063	-0.997	0.165	0.1718874	0.4583664	0.4583664	97.80966018	-3.28877892	-27.9603504
0.68	68	-0.064	-0.998	0.164	0	0.3437748	0.4583664	97.80966018	-3.2945085	-27.95462082
0.69	69	-0.063	-0.997	0.166	0	0.1718874	0.4583664	97.80966018	-3.30023808	-27.95462082
0.7	70	-0.063	-0.995	0.164	0.0572958	0.1145916	0.5156622	97.8325785	-3.30596766	-27.95462082
0.71	71	-0.063	-0.992	0.163	0.0572958	0.0572958	0.3437748	97.8325785	-3.31169724	-27.95462082
0.72	72	-0.064	-0.989	0.165	0.1718874	0.1145916	0.2291832	97.83830808	-3.31169724	-27.95462082
0.73	73	-0.065	-0.989	0.164	0.286479	0.1145916	0.2291832	97.83830808	-3.31742682	-27.95462082
0.74	74	-0.065	-0.99	0.165	0.4010706	0.1718874	0.1718874	97.84403766	-3.31742682	-27.94889124
0.75	75	-0.064	-0.992	0.166	0.3437748	0.2291832	0.1718874	97.87268556	-3.3231564	-27.94889124
0.76	76	-0.064	-0.992	0.165	0.2291832	0.2291832	0.1718874	97.87268556	-3.3231564	-27.94889124
0.77	77	-0.063	-0.994	0.164	0.4010706	0.3437748	0.2291832	97.87841514	-3.32888598	-27.94316166
0.78	78	-0.063	-0.994	0.166	0.5156622	0.3437748	0.2291832	97.88414472	-3.32888598	-27.94316166
0.79	79	-0.063	-0.995	0.166	0.4583664	0.3437748	0.2291832	97.88414472	-3.33461556	-27.93743208
0.8	80	-0.063	-0.995	0.165	0.572958	0.3437748	0.2291832	97.90133346	-3.33461556	-27.93743208
0.81	81	-0.063	-0.995	0.163	0.572958	0.3437748	0.1718874	97.90706304	-3.34034514	-27.9317025
0.82	82	-0.064	-0.995	0.166	0.572958	0.286479	0.1145916	97.91279262	-3.34034514	-27.92597292
0.83	83	-0.064	-0.995	0.166	0.5156622	0.286479	0.1145916	97.9185222	-3.34607472	-27.92597292
0.84	84	-0.064	-0.994	0.166	0.6302538	0.286479	0.0572958	97.92425178	-3.34607472	-27.92024334
0.85	85	-0.063	-0.996	0.165	0.572958	0.4010706	0	97.9471701	-3.34607472	-27.92024334
0.86	86	-0.063	-0.994	0.165	0.6302538	0.4010706	0.0572958	97.95289968	-3.34607472	-27.91451376
0.87	87	-0.064	-0.994	0.165	0.572958	0.2291832	0.1145916	97.95862926	-3.3518043	-27.91451376
0.88	88	-0.064	-0.994	0.166	0.572958	0.3437748	0.0572958	97.96435884	-3.3518043	-27.90878418
0.89	89	-0.065	-0.995	0.166	0.6875496	0.5156622	0.1145916	97.97008842	-3.3518043	-27.9030546
0.9	90	-0.065	-0.995	0.168	0.6302538	0.5156622	0.0572958	97.98727716	-3.35753388	-27.89732502
0.91	91	-0.065	-0.996	0.167	0.5156622	0.572958	0.1145916	97.99300674	-3.35753388	-27.89159544
0.92	92	-0.065	-0.995	0.166	0.1718874	0.3437748	0	97.99300674	-3.35753388	-27.89159544
0.93	93	-0.065	-0.994	0.168	0.2291832	0.2291832	0.1145916	97.99873632	-3.36326346	-27.88586586
0.94	94	-0.064	-0.994	0.168	0.1718874	0.1718874	0.1145916	97.99873632	-3.36326346	-27.88586586
0.95	95	-0.063	-0.993	0.167	0.1718874	0.0572958	0.2291832	98.03884338	-3.35753388	-27.88586586
0.96	96	-0.063	-0.994	0.168	0.1145916	0.0572958	0.2291832	98.03884338	-3.35753388	-27.88586586
0.97	97	-0.063	-0.995	0.168	0.0572958	0	0.3437748	98.03884338	-3.36326346	-27.88586586
0.98	98	-0.063	-0.995	0.168	-0.0572958	-0.0572958	0.3437748	98.03884338	-3.36326346	-27.88586586
0.99	99	-0.063	-0.995	0.168	-0.0572958	-0.1145916	0.4010706	98.03884338	-3.36899304	-27.88586586
1	100	-0.064	-0.996	0.17	0	-0.1145916	0.4583664	98.06749128	-3.36899304	-27.89159544
1.01	101	-0.062	-0.996	0.169	0	-0.1145916	0.572958	98.06749128	-3.37472262	-27.89159544
1.02	102	-0.063	-0.995	0.171	-0.0572958	-0.1145916	0.5156622	98.06749128	-3.3804522	-27.89732502
1.03	103	-0.064	-0.995	0.172	-0.0572958	0	0.5156622	98.06749128	-3.38618178	-27.89732502
1.04	104	-0.064	-0.993	0.173	-0.0572958	0.0572958	0.5156622	98.06749128	-3.39191136	-27.89732502
1.05	105	-0.064	-0.994	0.174	-0.1718874	0.286479	0.572958	98.0904096	-3.39764094	-27.89159544
1.06	106	-0.063	-0.994	0.172	-0.286479	0.2291832	0.5156622	98.08468002	-3.40337052	-27.89159544
1.07	107	-0.062	-0.993	0.172	-0.286479	0.2291832	0.4010706	98.08468002	-3.4091001	-27.89159544
1.08	108	-0.061	-0.993	0.171	-0.1718874	0.286479	0.4010706	98.07895044	-3.41482968	-27.88586586
1.09	109	-0.06	-0.992	0.171	-0.0572958	0.1718874	0.3437748	98.07895044	-3.41482968	-27.88586586
1.1	110	-0.062	-0.993	0.171	-0.1145916	0	0.2291832	98.13051666	-3.40337052	-27.88586586
1.11	111	-0.063	-0.993	0.172	-0.1718874	-0.0572958	0.1718874	98.13051666	-3.40337052	-27.88586586
1.12	112	-0.065	-0.995	0.171	-0.2291832	-0.1145916	0.1718874	98.12478708	-3.40337052	-27.88586586
1.13	113	-0.068	-0.996	0.171	-0.5156622	-0.0572958	0.0572958	98.1190575	-3.40337052	-27.88586586
1.14	114	-0.07	-0.997	0.17	-0.8021412	0.1145916	0.1718874	98.11332792	-3.4091001	-27.88586586
1.15	115	-0.071	-0.998	0.169	-1.0886202	0.3437748	0.286479	98.10759834	-3.42055926	-27.88586586
1.16	116	-0.071	-0.998	0.169	-1.2605076	0.4583664	0.3437748	98.09613918	-3.42628884	-27.88013628
1.17	117	-0.07	-0.997	0.168	-1.2605076	0.572958	0.3437748	98.07895044	-3.42628884	-27.8744067
1.18	118	-0.069	-0.996	0.171	-1.2032118	0.572958	0.4010706	98.06749128	-3.43201842	-27.86867712
1.19	119	-0.068	-0.995	0.17	-1.2605076	0.572958	0.3437748	98.05603212	-3.437748	-27.86867712
1.2	120	-0.067	-0.994	0.169	-1.3178034	0.5156622	0.1145916	98.05030254	-3.44347758	-27.86294754
1.21	121	-0.067	-0.993	0.169	-1.145916	0.5156622	0	98.03884338	-3.44347758	-27.85721796
1.22	122	-0.067	-0.993	0.168	-1.0313244	0.5156622	-0.1145916	98.02738422	-3.44347758	-27.85148838
1.23	123	-0.066	-0.993	0.169	-0.9740286	0.4583664	-0.1145916	98.01592506	-3.44347758	-27.8457588
1.24	124	-0.065	-0.993	0.169	-0.859437	0.286479	-0.1145916	98.0044659	-3.44347758	-27.8457588
1.25	125	-0.065	-0.992	0.169	-0.9167328	0.1145916	-0.1718874	98.01019548	-3.437748	-27.84002922
1.26	126	-0.065	-0.993	0.168	-0.9167328	0.0572958	-0.1145916	98.0044659	-3.437748	-27.84002922
1.27	127	-0.064	-0.994	0.168	-0.859437	0	0	97.99300674	-3.437748	-27.84002922
1.28	128	-0.064	-0.994	0.166	-0.9167328	-0.0572958	-0.0572958	97.98154758	-3.437748	-27.84002922
1.29	129	-0.063	-0.995	0.167	-0.859437	0	-0.1145916	97.975818	-3.437748	-27.84002922
1.3	130	-0.065	-0.993	0.165	-0.8021412	-0.1718874	-0.1145916	97.975818	-3.437748	-27.8457588
1.31	131	-0.066	-0.994	0.166	-0.7448454	-0.0572958	-0.1718874	97.97008842	-3.43201842	-27.8457588
1.32	132	-0.067	-0.993	0.166	-0.8021412	0.1145916	-0.1145916	97.95862926	-3.43201842	-27.8457588
1.33	133	-0.068	-0.994	0.165	-0.7448454	0	-0.2291832	97.95289968	-3.43201842	-27.8457588
1.34	134	-0.068	-0.992	0.167	-0.8021412	0	-0.2291832	97.94144052	-3.42628884	-27.8457588
1.35	135	-0.069	-0.993	0.168	-0.7448454	0	-0.1718874	97.95289968	-3.437748	-27.85148838
1.36	136	-0.068	-0.994	0.167	-0.6302538	0.1718874	-0.1145916	97.9471701	-3.437748	-27.8457588
1.37	137	-0.067	-0.998	0.17	-0.572958	0.1718874	-0.2291832	97.94144052	-3.43201842	-27.8457588
1.38	138	-0.067	-1	0.167	-0.7448454	0.1718874	-0.2291832	97.92998136	-3.43201842	-27.84002922
1.39	139	-0.067	-1	0.166	-0.9167328	0	-0.286479	97.92425178	-3.43201842	-27.84002922
1.4	140	-0.069	-0.998	0.168	-1.0313244	-0.1718874	-0.286479	97.92998136	-3.437748	-27.8457588
1.41	141	-0.068	-0.996	0.168	-0.7448454	-0.2291832	-0.286479	97.9185222	-3.43201842	-27.85148838
1.42	142	-0.067	-0.994	0.168	0.0572958	-0.286479	-0.286479	97.92425178	-3.42628884	-27.85148838
1.43	143	-0.066	-0.991	0.166	0.0572958	-0.0572958	-0.2291832	97.92425178	-3.42628884	-27.85148838
1.44	144	-0.066	-0.99	0.166	0.286479	0.0572958	-0.1718874	97.92425178	-3.42628884	-27.85148838
1.45	145	-0.066	-0.988	0.167	0.4583664	0.1718874	-0.1145916	97.95289968	-3.42628884	-27.85148838
1.46	146	-0.067	-0.988	0.166	0.6302538	0.2291832	0	97.95862926	-3.42628884	-27.8457588
1.47	147	-0.067	-0.988	0.164	0.8021412	0.1145916	-0.1145916	97.96435884	-3.42628884	-27.8457588
1.48	148	-0.066	-0.988	0.164	0.9167328	0.0572958	-0.1718874	97.975818	-3.42628884	-27.8457588
1.49	149	-0.066	-0.99	0.165	1.0313244	0.0572958	-0.2291832	97.98727716	-3.42055926	-27.8457588
1.5	150	-0.065	-0.991	0.163	1.0886202	0	-0.2291832	97.99873632	-3.42055926	-27.8457588
1.51	151	-0.065	-0.991	0.162	1.0313244	0.0572958	-0.1718874	98.01019548	-3.42055926	-27.8457588
1.52	152	-0.066	-0.992	0.162	0.9740286	-0.0572958	0.0572958	98.02165464	-3.42055926	-27.8457588
1.53	153	-0.066	-0.993	0.162	1.0313244	-0.1145916	0	98.0331138	-3.42055926	-27.8457588
1.54	154	-0.067	-0.994	0.162	1.0886202	0	0	98.04457296	-3.42055926	-27.8457588
1.55	155	-0.067	-0.994	0.163	1.0886202	0	0	98.05603212	-3.42055926	-27.8457588
1.56	156	-0.066	-0.996	0.162	0.8021412	0.0572958	0	98.06749128	-3.42055926	-27.8457588
1.57	157	-0.065	-0.994	0.161	0.8021412	-0.1145916	0	98.07322086	-3.42055926	-27.8457588
1.58	158	-0.066	-0.994	0.162	0.7448454	-0.1145916	-0.0572958	98.08468002	-3.42055926	-27.85148838
1.59	159	-0.066	-0.994	0.163	0.6875496	0	-0.1145916	98.0904096	-3.42055926	-27.8457588
1.6	160	-0.066	-0.995	0.161	0.7448454	0.1718874	0	98.0904096	-3.42055926	-27.8457588
1.61	161	-0.066	-0.997	0.161	0.8021412	0.2291832	-0.0572958	98.10186876	-3.42055926	-27.8457588
1.62	162	-0.066	-0.998	0.161	0.6875496	0.1718874	-0.0572958	98.10759834	-3.42055926	-27.84002922
1.63	163	-0.066	-0.997	0.163	0.4583664	0	-0.0572958	98.11332792	-3.42055926	-27.84002922
1.64	164	-0.064	-0.997	0.164	0.2291832	-0.1718874	0	98.11332792	-3.42055926	-27.8457588
1.65	165	-0.063	-0.994	0.165	0.1718874	-0.3437748	0	98.13051666	-3.41482968	-27.8457588
1.66	166	-0.063	-0.993	0.166	0.2291832	-0.4583664	0	98.13624624	-3.4091001	-27.85148838
1.67	167	-0.064	-0.992	0.167	0.4010706	-0.572958	0	98.14197582	-3.4091001	-27.85721796
1.68	168	-0.065	-0.992	0.168	0.4583664	-0.572958	0	98.1477054	-3.4091001	-27.86294754
1.69	169	-0.065	-0.991	0.168	0.5156622	-0.6302538	-0.0572958	98.15343498	-3.4091001	-27.86867712
1.7	170	-0.067	-0.99	0.168	0.6875496	-0.572958	-0.1145916	98.16489414	-3.41482968	-27.88013628
1.71	171	-0.067	-0.989	0.168	0.8021412	-0.572958	-0.1145916	98.1763533	-3.4091001	-27.88013628
1.72	172	-0.068	-0.989	0.17	0.9167328	-0.572958	-0.1145916	98.18781246	-3.4091001	-27.88586586
1.73	173	-0.067	-0.988	0.17	1.0313244	-0.5156622	0	98.19927162	-3.4091001	-27.89159544
1.74	174	-0.067	-0.989	0.17	1.0886202	-0.4010706	0	98.21073078	-3.40337052	-27.89732502
1.75	175	-0.067	-0.991	0.17	1.0886202	-0.4010706	0.0572958	98.22791952	-3.4091001	-27.9030546
1.76	176	-0.066	-0.992	0.17	1.145916	-0.4010706	0.0572958	98.24510826	-3.4091001	-27.90878418
1.77	177	-0.066	-0.994	0.17	1.145916	-0.5156622	0.1145916	98.25656742	-3.4091001	-27.91451376
1.78	178	-0.07	-0.995	0.171	0.5156622	-0.3437748	0.1145916	98.262297	-3.41482968	-27.91451376
1.79	179	-0.069	-0.994	0.17	0.3437748	-0.2291832	0.1145916	98.262297	-3.41482968	-27.92024334
1.8	180	-0.068	-0.995	0.171	0.3437748	-0.1145916	0.1145916	98.2909449	-3.42628884	-27.92597292
1.81	181	-0.069	-0.994	0.172	0.2291832	-0.1718874	0.0572958	98.2909449	-3.42628884	-27.92597292
1.82	182	-0.068	-0.993	0.171	0.1718874	-0.1145916	0	98.29667448	-3.42628884	-27.92597292
1.83	183	-0.067	-0.991	0.17	0.2291832	-0.1145916	0	98.29667448	-3.42628884	-27.9317025
1.84	184	-0.067	-0.992	0.172	0.2291832	-0.0572958	0	98.30240406	-3.42628884	-27.9317025
1.85	185	-0.068	-0.993	0.172	0.1718874	-0.0572958	0.0572958	98.36542944	-3.44920716	-27.93743208
1.86	186	-0.068	-0.994	0.171	0.1145916	-0.0572958	0.0572958	98.36542944	-3.44920716	-27.93743208
1.87	187	-0.068	-0.995	0.171	0.0572958	0	0.1145916	98.36542944	-3.44920716	-27.94316166
1.88	188	-0.068	-0.995	0.17	-0.0572958	0.1145916	0.1718874	98.36542944	-3.45493674	-27.93743208
1.89	189	-0.066	-0.993	0.17	-0.0572958	0.1718874	0.1718874	98.36542944	-3.45493674	-27.93743208
1.9	190	-0.067	-0.992	0.17	-0.0572958	0.1145916	0.1718874	98.3768886	-3.46066632	-27.93743208
1.91	191	-0.066	-0.992	0.169	-0.0572958	0.0572958	0.1718874	98.37115902	-3.46066632	-27.93743208
1.92	192	-0.064	-0.992	0.169	-0.0572958	0.0572958	0.1145916	98.37115902	-3.4663959	-27.93743208
1.93	193	-0.063	-0.991	0.168	0.0572958	0.0572958	0.1145916	98.37115902	-3.4663959	-27.93743208
1.94	194	-0.064	-0.992	0.169	0.0572958	0	0.0572958	98.37115902	-3.4663959	-27.93743208
1.95	195	-0.066	-0.993	0.17	0	-0.0572958	0.0572958	98.39407734	-3.47212548	-27.93743208
1.96	196	-0.067	-0.992	0.17	0.1145916	-0.0572958	0	98.39407734	-3.47212548	-27.93743208
1.97	197	-0.068	-0.993	0.171	0.1145916	0.1718874	0	98.39407734	-3.47212548	-27.93743208
1.98	198	-0.068	-0.994	0.169	0.0572958	0.1718874	0	98.39980692	-3.47212548	-27.93743208
1.99	199	-0.067	-0.991	0.169	0	0.0572958	0	98.39980692	-3.47212548	-27.93743208
2	200	-0.066	-0.991	0.172	0	0	0	98.4628323	-3.48931422	-27.94316166
2.01	201	-0.067	-0.992	0.172	0.1718874	0.2291832	0	98.4628323	-3.48931422	-27.93743208
2.02	202	-0.066	-0.995	0.172	0.2291832	0.3437748	0.0572958	98.46856188	-3.48931422	-27.93743208
2.03	203	-0.065	-0.998	0.173	0.286479	0.3437748	0	98.46856188	-3.48931422	-27.9317025
2.04	204	-0.064	-0.999	0.172	0.0572958	0.1145916	0	98.46856188	-3.48931422	-27.9317025
2.05	205	-0.066	-0.998	0.171	-0.2291832	-0.0572958	-0.0572958	98.46856188	-3.48931422	-27.9317025
2.06	206	-0.065	-0.996	0.172	-0.286479	-0.1718874	0.0572958	98.46856188	-3.48931422	-27.9317025
2.07	207	-0.065	-0.993	0.171	-0.1718874	-0.2291832	0.1145916	98.4628323	-3.48931422	-27.93743208
2.08	208	-0.065	-0.99	0.175	-0.1718874	-0.1718874	0.2291832	98.4628323	-3.48931422	-27.93743208
2.09	209	-0.067	-0.989	0.173	0.0572958	-0.0572958	0.2291832	98.4628323	-3.4950438	-27.93743208
2.1	210	-0.068	-0.989	0.174	0.0572958	0.1145916	0.1145916	98.49720978	-3.50650296	-27.94316166
2.11	211	-0.067	-0.991	0.174	0.1145916	0.1145916	0.1718874	98.49720978	-3.50650296	-27.93743208
2.12	212	-0.067	-0.99	0.172	0.1145916	0.1145916	0.1145916	98.49720978	-3.51223254	-27.93743208
2.13	213	-0.067	-0.99	0.172	0.1718874	0	0	98.49720978	-3.51223254	-27.93743208
2.14	214	-0.068	-0.99	0.172	0.2291832	0	0.0572958	98.50293936	-3.51223254	-27.93743208
2.15	215	-0.069	-0.99	0.173	0.286479	-0.1145916	0	98.52585768	-3.52942128	-27.94316166
2.16	216	-0.069	-0.99	0.173	0.3437748	-0.1145916	0.0572958	98.52585768	-3.52942128	-27.94316166
2.17	217	-0.07	-0.99	0.173	0.3437748	0	0	98.53158726	-3.52942128	-27.94316166
2.18	218	-0.071	-0.99	0.173	0.5156622	-0.1145916	0	98.53731684	-3.52942128	-27.94889124
2.19	219	-0.07	-0.991	0.174	0.572958	-0.0572958	0	98.54304642	-3.52942128	-27.94889124
2.2	220	-0.071	-0.991	0.175	0.572958	-0.0572958	0	98.56596474	-3.54088044	-27.94889124
2.21	221	-0.068	-0.992	0.173	0.572958	-0.1145916	0	98.57169432	-3.54088044	-27.94889124
2.22	222	-0.069	-0.992	0.174	0.5156622	-0.2291832	0	98.5774239	-3.54088044	-27.95462082
2.23	223	-0.07	-0.991	0.176	0.572958	-0.1145916	0	98.58315348	-3.54088044	-27.95462082
2.24	224	-0.07	-0.993	0.174	0.6302538	0.0572958	0	98.58888306	-3.54088044	-27.95462082
2.25	225	-0.071	-0.994	0.175	0.5156622	0.286479	0	98.60034222	-3.54661002	-27.95462082
2.26	226	-0.07	-0.995	0.175	0.6302538	0.4583664	0	98.6060718	-3.54661002	-27.94889124
2.27	227	-0.068	-0.998	0.176	0.4010706	0.4010706	0	98.61180138	-3.54661002	-27.94316166
2.28	228	-0.068	-0.997	0.174	0.2291832	0.286479	0	98.61180138	-3.54661002	-27.94316166
2.29	229	-0.065	-0.996	0.174	0.0572958	0.1145916	0.0572958	98.61753096	-3.5523396	-27.93743208
2.3	230	-0.066	-0.995	0.177	-0.1145916	0	0	98.65763802	-3.54088044	-27.94316166
2.31	231	-0.064	-0.993	0.177	-0.2291832	0	0	98.65763802	-3.54088044	-27.94316166
2.32	232	-0.065	-0.991	0.176	-0.2291832	-0.0572958	0	98.65190844	-3.54088044	-27.94316166
2.33	233	-0.065	-0.99	0.176	-0.1718874	0	-0.0572958	98.65190844	-3.54088044	-27.94316166
2.34	234	-0.065	-0.988	0.178	-0.0572958	-0.0572958	-0.0572958	98.65190844	-3.53515086	-27.94316166
2.35	235	-0.067	-0.988	0.178	0	-0.1718874	-0.1145916	98.68055634	-3.54088044	-27.94316166
2.36	236	-0.067	-0.987	0.178	0.1145916	-0.1145916	-0.1145916	98.68055634	-3.53515086	-27.94889124
2.37	237	-0.068	-0.989	0.178	0.1718874	-0.2291832	-0.1145916	98.68628592	-3.53515086	-27.94889124
2.38	238	-0.067	-0.988	0.178	0.286479	-0.2291832	-0.1145916	98.68628592	-3.53515086	-27.95462082
2.39	239	-0.067	-0.988	0.177	0.4010706	-0.1145916	-0.0572958	98.6920155	-3.53515086	-27.95462082
2.4	240	-0.066	-0.987	0.177	0.4583664	-0.2291832	-0.0572958	98.70347466	-3.52942128	-27.95462082
2.41	241	-0.066	-0.989	0.177	0.4583664	-0.2291832	-0.0572958	98.70920424	-3.52942128	-27.9603504
2.42	242	-0.066	-0.989	0.177	0.6302538	-0.286479	0	98.7206634	-3.52942128	-27.9603504
2.43	243	-0.068	-0.99	0.177	0.6302538	-0.3437748	0	98.72639298	-3.52942128	-27.96607998
2.44	244	-0.068	-0.992	0.177	0.6875496	-0.4010706	0	98.73212256	-3.52942128	-27.97180956
2.45	245	-0.068	-0.99	0.177	0.8021412	-0.3437748	0	98.7493113	-3.53515086	-27.97180956
2.46	246	-0.068	-0.991	0.178	0.859437	-0.2291832	-0.0572958	98.76077046	-3.52942128	-27.97753914
2.47	247	-0.067	-0.991	0.178	1.0313244	-0.2291832	0	98.77222962	-3.52942128	-27.97753914
2.48	248	-0.067	-0.992	0.177	1.0313244	-0.3437748	-0.0572958	98.7779592	-3.52942128	-27.98326872
2.49	249	-0.067	-0.991	0.178	1.0313244	-0.3437748	0	98.78941836	-3.52942128	-27.98326872
2.5	250	-0.068	-0.991	0.178	0.8021412	-0.286479	0.0572958	98.8066071	-3.53515086	-27.9889983
2.51	251	-0.068	-0.99	0.178	0.8021412	-0.2291832	0	98.81233668	-3.53515086	-27.9889983
2.52	252	-0.068	-0.99	0.178	0.9167328	-0.2291832	0	98.82379584	-3.52942128	-27.99472788
2.53	253	-0.068	-0.989	0.178	1.0313244	-0.3437748	0	98.835255	-3.52942128	-27.99472788
2.54	254	-0.067	-0.989	0.178	1.145916	-0.3437748	0	98.84671416	-3.52942128	-28.00045746
2.55	255	-0.068	-0.989	0.18	1.2032118	-0.4010706	0	98.8639029	-3.52942128	-28.00618704
2.56	256	-0.069	-0.988	0.18	1.145916	-0.3437748	0	98.88109164	-3.52942128	-28.00618704
2.57	257	-0.069	-0.988	0.181	1.3178034	-0.4583664	0	98.8925508	-3.52942128	-28.01191662
2.58	258	-0.069	-0.988	0.181	1.6042824	-0.4583664	0	98.90973954	-3.52942128	-28.0176462
2.59	259	-0.069	-0.988	0.182	1.6042824	-0.4583664	0	98.92692828	-3.52942128	-28.02337578
2.6	260	-0.068	-0.988	0.184	1.718874	-0.4010706	0.0572958	98.9498466	-3.52942128	-28.02910536
2.61	261	-0.068	-0.988	0.184	1.8334656	-0.4583664	0	98.97276492	-3.52942128	-28.02910536
2.62	262	-0.069	-0.989	0.184	1.9480572	-0.4583664	0	98.98995366	-3.52942128	-28.03483494
2.63	263	-0.071	-0.99	0.186	2.005353	-0.3437748	0.0572958	99.01287198	-3.52942128	-28.04056452
2.64	264	-0.07	-0.989	0.184	2.0626488	-0.1718874	0	99.0357903	-3.52942128	-28.04056452
2.65	265	-0.07	-0.989	0.186	2.2345362	-0.2291832	0	99.0644382	-3.52942128	-28.0462941
2.66	266	-0.068	-0.987	0.188	2.3491278	-0.1145916	0	99.08735652	-3.52942128	-28.0462941
2.67	267	-0.069	-0.987	0.188	2.5210152	-0.1718874	0.0572958	99.11600442	-3.52942128	-28.0462941
2.68	268	-0.068	-0.989	0.189	2.578311	-0.0572958	0.0572958	99.13892274	-3.52942128	-28.0462941
2.69	269	-0.067	-0.99	0.192	2.7501984	0	0.1145916	99.16757064	-3.52942128	-28.0462941
2.7	270	-0.066	-0.991	0.191	2.6356068	-0.1145916	0.0572958	99.20194812	-3.52942128	-28.05202368
2.71	271	-0.067	-0.991	0.191	2.4637194	-0.4010706	0	99.23059602	-3.52942128	-28.05202368
2.72	272	-0.067	-0.99	0.193	2.4064236	-0.6875496	0	99.25351434	-3.52942128	-28.06348284
2.73	273	-0.066	-0.987	0.192	2.6356068	-0.7448454	0	99.28216224	-3.52942128	-28.06921242
2.74	274	-0.066	-0.984	0.193	2.7501984	-0.8021412	0.0572958	99.31081014	-3.52942128	-28.074942
2.75	275	-0.068	-0.982	0.197	2.9793816	-0.7448454	0.1145916	99.3509172	-3.52942128	-28.08640116
2.76	276	-0.068	-0.981	0.194	3.0939732	-0.7448454	0	99.3795651	-3.5236917	-28.09213074
2.77	277	-0.068	-0.982	0.195	3.0939732	-0.7448454	0	99.41394258	-3.5236917	-28.09786032
2.78	278	-0.07	-0.983	0.197	3.3804522	-0.7448454	0	99.44832006	-3.5236917	-28.1035899
2.79	279	-0.068	-0.984	0.198	3.5523396	-0.7448454	-0.0572958	99.48842712	-3.51796212	-28.10931948
2.8	280	-0.067	-0.984	0.196	3.724227	-0.7448454	-0.0572958	99.52853418	-3.51796212	-28.12077864
2.81	281	-0.068	-0.985	0.196	3.9534102	-0.859437	-0.0572958	99.56864124	-3.51796212	-28.12650822
2.82	282	-0.069	-0.984	0.199	4.0680018	-0.7448454	-0.1145916	99.61447788	-3.51223254	-28.1322378
2.83	283	-0.068	-0.984	0.198	4.2398892	-0.8021412	-0.1145916	99.65458494	-3.50650296	-28.13796738
2.84	284	-0.07	-0.984	0.197	4.3544808	-0.859437	-0.1145916	99.70042158	-3.50650296	-28.14942654
2.85	285	-0.069	-0.984	0.2	4.583664	-0.7448454	-0.0572958	99.75771738	-3.50650296	-28.15515612
2.86	286	-0.069	-0.985	0.202	4.7555514	-0.7448454	0	99.80355402	-3.50077338	-28.1608857
2.87	287	-0.068	-0.985	0.202	4.870143	-0.859437	0	99.85512024	-3.50077338	-28.17234486
2.88	288	-0.068	-0.984	0.202	5.0420304	-1.0313244	0	99.90668646	-3.4950438	-28.17807444
2.89	289	-0.069	-0.983	0.205	5.2139178	-1.0886202	0.0572958	99.95825268	-3.4950438	-28.1895336
2.9	290	-0.07	-0.982	0.206	5.3858052	-0.9167328	-0.0572958	100.0212781	-3.4950438	-28.20099276
2.91	291	-0.068	-0.982	0.207	5.5576926	-0.7448454	-0.0572958	100.0785739	-3.48931422	-28.20672234
2.92	292	-0.069	-0.982	0.208	5.8441716	-0.5156622	-0.1145916	100.1358697	-3.48931422	-28.21245192
2.93	293	-0.068	-0.985	0.207	5.9587632	-0.572958	-0.1145916	100.198895	-3.48358464	-28.21245192
2.94	294	-0.069	-0.985	0.21	6.016059	-0.6302538	-0.1145916	100.2619204	-3.48358464	-28.2181815
2.95	295	-0.068	-0.985	0.212	6.016059	-0.7448454	-0.0572958	100.3249458	-3.48358464	-28.22391108
2.96	296	-0.067	-0.983	0.213	6.016059	-0.8021412	0	100.3879712	-3.47785506	-28.23537024
2.97	297	-0.066	-0.983	0.214	6.1879464	-0.859437	0	100.4509966	-3.47785506	-28.24109982
2.98	298	-0.066	-0.982	0.214	6.4171296	-0.859437	0	100.5197515	-3.47212548	-28.2468294
2.99	299	-0.065	-0.98	0.216	6.5317212	-0.9740286	0	100.5827769	-3.47212548	-28.25828856
3	300	-0.066	-0.979	0.218	6.7609044	-1.0313244	0	100.6572614	-3.47212548	-28.26974772
3.01	301	-0.066	-0.977	0.218	7.0473834	-1.0886202	0	100.731746	-3.4663959	-28.2754773
3.02	302	-0.065	-0.976	0.219	7.161975	-1.2032118	-0.0572958	100.8062305	-3.46066632	-28.28693646
3.03	303	-0.065	-0.976	0.22	7.3338624	-1.2032118	-0.0572958	100.8807151	-3.46066632	-28.29839562
3.04	304	-0.066	-0.976	0.224	7.6776372	-1.3750992	-0.0572958	100.9609292	-3.45493674	-28.30985478
3.05	305	-0.067	-0.977	0.223	7.9068204	-1.5469866	-0.0572958	101.0468729	-3.44920716	-28.32704352
3.06	306	-0.067	-0.975	0.227	8.1360036	-1.6042824	-0.0572958	101.1328166	-3.44347758	-28.33850268
3.07	307	-0.067	-0.974	0.228	8.5370742	-1.6042824	-0.0572958	101.2187603	-3.44347758	-28.35569142
3.08	308	-0.067	-0.973	0.227	8.8235532	-1.6042824	-0.0572958	101.3104336	-3.437748	-28.37288016
3.09	309	-0.068	-0.973	0.229	9.0527364	-1.6042824	-0.0572958	101.4021068	-3.43201842	-28.38433932
3.1	310	-0.067	-0.973	0.232	9.5111028	-1.6042824	0	101.5052393	-3.42628884	-28.40152806
3.11	311	-0.068	-0.972	0.234	9.6829902	-1.6042824	0.0572958	101.6026421	-3.42055926	-28.41298722
3.12	312	-0.068	-0.972	0.236	9.740286	-1.7761698	0.0572958	101.7057746	-3.42055926	-28.43017596
3.13	313	-0.065	-0.973	0.236	9.9121734	-1.8907614	0.0572958	101.808907	-3.41482968	-28.4473647
3.14	314	-0.064	-0.976	0.236	10.1413566	-2.005353	0	101.9120395	-3.4091001	-28.46455344
3.15	315	-0.063	-0.978	0.237	10.1413566	-2.1199446	0	102.0151719	-3.40337052	-28.48747176
3.16	316	-0.061	-0.978	0.239	10.3705398	-2.1772404	0	102.1240339	-3.39764094	-28.5046605
3.17	317	-0.062	-0.978	0.243	10.4851314	-2.3491278	0.0572958	102.2328959	-3.39191136	-28.52757882
3.18	318	-0.064	-0.977	0.241	10.5424272	-2.6356068	0.1145916	102.341758	-3.38618178	-28.55049714
3.19	319	-0.066	-0.975	0.244	10.8289062	-2.578311	0.1718874	102.4563496	-3.3804522	-28.57341546
3.2	320	-0.066	-0.974	0.249	11.2299768	-2.5210152	0.1145916	102.5709412	-3.37472262	-28.59633378
3.21	321	-0.068	-0.972	0.251	11.45916	-2.4637194	0.0572958	102.6912623	-3.36899304	-28.6192521
3.22	322	-0.069	-0.968	0.251	11.5737516	-2.4064236	0	102.8115835	-3.36326346	-28.64217042
3.23	323	-0.071	-0.966	0.251	11.8602306	-2.5210152	-0.1718874	102.9319047	-3.35753388	-28.66508874
3.24	324	-0.069	-0.965	0.255	12.2613012	-2.4064236	-0.286479	103.0579555	-3.34607472	-28.68800706
3.25	325	-0.069	-0.965	0.26	12.4331886	-2.3491278	-0.3437748	103.1897358	-3.33461556	-28.7051958
3.26	326	-0.068	-0.963	0.259	12.4904844	-2.4064236	-0.4583664	103.3157866	-3.3231564	-28.72811412
3.27	327	-0.066	-0.965	0.258	12.7769634	-2.4064236	-0.4583664	103.4475669	-3.31169724	-28.75103244
3.28	328	-0.065	-0.97	0.263	13.2926256	-2.3491278	-0.2291832	103.5850768	-3.30596766	-28.76822118
3.29	329	-0.066	-0.972	0.263	13.4072172	-2.291832	0	103.7225867	-3.2945085	-28.7911395
3.3	330	-0.067	-0.972	0.266	13.5791046	-2.1199446	0.1145916	103.8658262	-3.2945085	-28.80832824
3.31	331	-0.067	-0.967	0.273	13.750992	-1.9480572	0.0572958	104.0033362	-3.28877892	-28.82551698
3.32	332	-0.066	-0.965	0.275	13.8655836	-1.7761698	0.0572958	104.1465757	-3.28304934	-28.84270572
3.33	333	-0.065	-0.964	0.274	13.8082878	-1.7761698	-0.1145916	104.2898152	-3.27731976	-28.85989446
3.34	334	-0.065	-0.963	0.276	14.1520626	-2.005353	-0.2291832	104.4330547	-3.2658606	-28.87135362
3.35	335	-0.063	-0.961	0.282	14.5531332	-2.1199446	-0.1718874	104.5877533	-3.26013102	-28.89427194
3.36	336	-0.065	-0.962	0.288	14.9542038	-2.1772404	-0.3437748	104.7367224	-3.24867186	-28.91146068
3.37	337	-0.065	-0.962	0.288	15.2979786	-2.1199446	-0.4010706	104.8971506	-3.2372127	-28.92864942
3.38	338	-0.065	-0.962	0.292	15.6417534	-2.1199446	-0.5156622	105.0575789	-3.22575354	-28.94583816
3.39	339	-0.066	-0.962	0.296	15.8136408	-2.2345362	-0.6302538	105.2180071	-3.21429438	-28.9630269
3.4	340	-0.066	-0.959	0.3	15.8136408	-2.4637194	-0.572958	105.3841649	-3.20283522	-28.98021564
3.41	341	-0.066	-0.954	0.307	15.8136408	-2.6929026	-0.572958	105.5445932	-3.18564648	-29.00313396
3.42	342	-0.065	-0.951	0.309	16.1001198	-2.9220858	-0.6302538	105.710751	-3.16845774	-29.02605228
3.43	343	-0.065	-0.947	0.311	16.2147114	-3.0366774	-0.6302538	105.8769088	-3.15699858	-29.05470018
3.44	344	-0.065	-0.947	0.315	16.5584862	-3.0366774	-0.572958	106.0487962	-3.13980984	-29.0776185
3.45	345	-0.065	-0.948	0.321	17.1314442	-2.9220858	-0.5156622	106.2264132	-3.1226211	-29.10053682
3.46	346	-0.064	-0.947	0.325	17.475219	-2.9793816	-0.4583664	106.4040302	-3.11116194	-29.12918472
3.47	347	-0.065	-0.946	0.327	17.8189938	-2.9793816	-0.5156622	106.5873767	-3.0939732	-29.15210304
3.48	348	-0.067	-0.943	0.33	18.2773602	-3.2085648	-0.5156622	106.7764529	-3.08251404	-29.17502136
3.49	349	-0.066	-0.941	0.334	18.7930224	-3.151269	-0.572958	106.9712586	-3.0653253	-29.20366926
3.5	350	-0.067	-0.939	0.339	19.3659804	-3.0366774	-0.6875496	107.1717939	-3.04813656	-29.22658758
3.51	351	-0.068	-0.939	0.342	19.7097552	-3.0939732	-0.8021412	107.3723292	-3.03094782	-29.2495059
3.52	352	-0.069	-0.938	0.343	19.9389384	-2.86479	-0.7448454	107.5785941	-3.01375908	-29.27242422
3.53	353	-0.071	-0.937	0.346	20.340009	-2.8074942	-0.6302538	107.784859	-2.99657034	-29.29534254
3.54	354	-0.071	-0.935	0.349	20.8556712	-2.6356068	-0.4583664	107.9968534	-2.9793816	-29.31826086
3.55	355	-0.07	-0.933	0.355	21.2567418	-2.3491278	-0.4583664	108.220307	-2.96792244	-29.3354496
3.56	356	-0.068	-0.929	0.358	21.6005166	-2.005353	-0.572958	108.4437607	-2.95646328	-29.34690876
3.57	357	-0.065	-0.925	0.358	22.1161788	-1.8334656	-0.6302538	108.6672143	-2.94500412	-29.3640975
3.58	358	-0.063	-0.923	0.361	22.5745452	-1.7761698	-0.8021412	108.8963975	-2.92781538	-29.36982708
3.59	359	-0.062	-0.922	0.367	23.4339822	-1.718874	-0.9167328	109.1370398	-2.91062664	-29.38128624
3.6	360	-0.063	-0.921	0.372	23.9496444	-1.3750992	-0.9167328	109.3834118	-2.89916748	-29.38701582
3.61	361	-0.063	-0.922	0.373	24.5798982	-1.145916	-0.859437	109.6355133	-2.88197874	-29.3927454
3.62	362	-0.063	-0.924	0.379	25.0382646	-0.859437	-0.859437	109.8876148	-2.87051958	-29.3927454
3.63	363	-0.063	-0.926	0.382	25.3247436	-0.6875496	-0.8021412	110.1454459	-2.85906042	-29.3927454
3.64	364	-0.062	-0.924	0.385	25.78311	-0.572958	-0.9167328	110.4090066	-2.84760126	-29.3927454
3.65	365	-0.063	-0.92	0.388	26.2987722	-0.1145916	-1.145916	110.6782969	-2.8361421	-29.38701582
3.66	366	-0.064	-0.917	0.391	26.929026	0.4010706	-1.2605076	110.9475871	-2.82468294	-29.37555666
3.67	367	-0.067	-0.914	0.396	27.2728008	0.9740286	-1.6615782	111.222607	-2.81322378	-29.35836792
3.68	368	-0.068	-0.908	0.399	27.6165756	1.6042824	-2.005353	111.5033564	-2.80176462	-29.32972002
3.69	369	-0.068	-0.905	0.402	28.074942	2.1199446	-2.1772404	111.7841058	-2.79030546	-29.30107212
3.7	370	-0.067	-0.903	0.407	28.8197874	2.4064236	-2.2345362	112.082044	-2.7788463	-29.26669464
3.71	371	-0.065	-0.899	0.412	29.3927454	2.578311	-2.1199446	112.3742525	-2.76738714	-29.22658758
3.72	372	-0.063	-0.897	0.415	30.080295	2.6356068	-1.9480572	112.6779203	-2.76165756	-29.1922101
3.73	373	-0.059	-0.895	0.418	30.7678446	2.4637194	-1.6615782	112.9930472	-2.7501984	-29.15783262
3.74	374	-0.056	-0.892	0.423	31.4553942	1.8907614	-1.3750992	113.3081741	-2.74446882	-29.1349143
3.75	375	-0.054	-0.889	0.425	31.6845774	1.4896908	-1.145916	113.6290306	-2.74446882	-29.11199598
3.76	376	-0.051	-0.882	0.428	32.2002396	1.2032118	-1.0313244	113.9556166	-2.73873924	-29.08907766
3.77	377	-0.049	-0.876	0.43	33.1742682	0.859437	-1.145916	114.2936618	-2.72728008	-29.07188892
3.78	378	-0.047	-0.873	0.434	33.9764094	0.7448454	-1.2605076	114.6374366	-2.7215505	-29.05470018
3.79	379	-0.047	-0.871	0.437	34.6066632	0.4010706	-1.4896908	114.986941	-2.71009134	-29.04324102
3.8	380	-0.049	-0.868	0.442	35.2942128	-0.1145916	-1.6042824	115.3479046	-2.6929026	-29.03178186
3.81	381	-0.05	-0.867	0.445	36.096354	-0.5156622	-1.6615782	115.7145977	-2.67571386	-29.0203227
3.82	382	-0.053	-0.864	0.449	36.5547204	-0.859437	-1.7761698	116.0812908	-2.65279554	-29.0203227
3.83	383	-0.056	-0.862	0.453	37.2995658	-0.9740286	-2.0626488	116.4651727	-2.62987722	-29.00886354
3.84	384	-0.057	-0.86	0.456	38.3308902	-0.7448454	-2.291832	116.8490545	-2.60122932	-29.00313396
3.85	385	-0.061	-0.86	0.46	39.4768062	-0.572958	-2.5210152	117.2501251	-2.578311	-28.9916748
3.86	386	-0.061	-0.861	0.461	40.10706	-0.6302538	-2.4064236	117.6569253	-2.55539268	-28.98021564
3.87	387	-0.063	-0.86	0.465	40.7373138	-0.7448454	-2.291832	118.0694551	-2.52674478	-28.96875648
3.88	388	-0.064	-0.857	0.466	41.252976	-1.0886202	-2.291832	118.493444	-2.50382646	-28.9630269
3.89	389	-0.061	-0.851	0.47	41.9978214	-1.432395	-2.3491278	118.9174329	-2.47517856	-28.95729732
3.9	390	-0.058	-0.845	0.47	42.97185	-1.6042824	-2.86479	119.352881	-2.44080108	-28.95156774
3.91	391	-0.059	-0.838	0.472	44.0604702	-1.432395	-3.3804522	119.7997882	-2.40069402	-28.94010858
3.92	392	-0.061	-0.834	0.476	45.7793442	-1.2032118	-3.9534102	120.2638842	-2.36058696	-28.92291984
3.93	393	-0.067	-0.833	0.482	47.6128098	-0.5156622	-4.4690724	120.7451689	-2.3204799	-28.90000152
3.94	394	-0.074	-0.834	0.482	48.7587258	-0.2291832	-4.9274388	121.2379128	-2.27464326	-28.87135362
3.95	395	-0.076	-0.829	0.481	49.6754586	0.2291832	-5.3285094	121.7363863	-2.2345362	-28.83124656
3.96	396	-0.077	-0.822	0.475	50.8213746	0.9167328	-5.9014674	122.2520485	-2.18869956	-28.78540992
3.97	397	-0.071	-0.813	0.466	52.2537696	1.145916	-6.6463128	122.7791698	-2.13713334	-28.7338437
3.98	398	-0.059	-0.803	0.462	54.144531	0.9740286	-7.5630456	123.3292095	-2.07983754	-28.6765479
3.99	399	-0.043	-0.792	0.466	56.436363	0.3437748	-8.5370742	123.8964379	-2.01108258	-28.6192521
4	400	-0.023	-0.787	0.477	59.3584488	-0.5156622	-8.9954406	124.4980438	-1.93659804	-28.5619563
4.01	401	-0.017	-0.785	0.491	63.0826758	-1.3178034	-8.8235532	125.1340272	-1.85638392	-28.51611966
4.02	402	-0.028	-0.785	0.51	65.7182826	-1.8334656	-7.6776372	125.7986585	-1.78189938	-28.4760126
4.03	403	-0.044	-0.782	0.522	67.4944524	-1.9480572	-6.302538	126.4862081	-1.718874	-28.4473647
4.04	404	-0.052	-0.782	0.52	68.9268474	-1.6615782	-5.0993262	127.1852168	-1.66730778	-28.4187168
4.05	405	-0.056	-0.789	0.519	71.5051584	-1.4896908	-4.2398892	127.9071439	-1.62720072	-28.39579848
4.06	406	-0.044	-0.801	0.528	74.198061	-1.3178034	-3.4950438	128.6577189	-1.59282324	-28.37288016
4.07	407	-0.033	-0.803	0.524	75.2293854	-0.8021412	-2.8074942	129.419753	-1.56417534	-28.34996184
4.08	408	-0.032	-0.805	0.523	77.0055552	-0.572958	-2.0626488	130.1989759	-1.5469866	-28.32704352
4.09	409	-0.038	-0.788	0.522	78.0941754	0.1145916	-2.1772404	130.9953875	-1.52979786	-28.3041252
4.1	410	-0.04	-0.763	0.52	79.4119788	1.0313244	-2.7501984	131.7917992	-1.5183387	-28.26401814
4.11	411	-0.036	-0.741	0.515	81.1881486	1.8334656	-3.3231564	132.6168587	-1.50687954	-28.2181815
4.12	412	-0.035	-0.731	0.509	82.9070226	2.4637194	-3.2658606	133.4533774	-1.50687954	-28.16661528
4.13	413	-0.037	-0.718	0.513	85.0269672	2.8074942	-2.7501984	134.3185439	-1.50687954	-28.11504906
4.14	414	-0.035	-0.704	0.519	86.3447706	3.437748	-2.1772404	135.1894401	-1.5183387	-28.06348284
4.15	415	-0.031	-0.69	0.521	86.8604328	4.7555514	-1.6615782	136.0603363	-1.54125702	-28.00618704
4.16	416	-0.033	-0.695	0.499	86.230179	6.1306506	-0.8021412	136.936962	-1.58709366	-27.94889124
4.17	417	-0.04	-0.732	0.477	85.7718126	7.8495246	-1.4896908	137.8021286	-1.63865988	-27.8744067
4.18	418	-0.048	-0.759	0.485	86.230179	9.167328	-4.1252976	138.6730247	-1.67876694	-27.77700384
4.19	419	-0.056	-0.737	0.49	86.4020664	10.5424272	-6.589017	139.5439209	-1.718874	-27.6452235
4.2	420	-0.078	-0.708	0.474	86.0009958	11.5164558	-7.734933	140.4033579	-1.76471064	-27.50771358
4.21	421	-0.074	-0.761	0.45	83.651868	10.1413566	-7.7922288	141.2456062	-1.79908812	-27.37020366
4.22	422	-0.067	-0.791	0.444	79.5838662	6.9900876	-9.3965112	142.0477474	-1.79908812	-27.2441529
4.23	423	-0.062	-0.782	0.411	75.4012728	6.4744254	-11.0580894	142.8097815	-1.78762896	-27.11237256
4.24	424	-0.039	-0.73	0.355	72.8229618	9.167328	-11.745639	143.5431677	-1.79908812	-26.95194432
4.25	425	-0.018	-0.666	0.391	77.9795838	12.8342592	-10.7716104	144.3109315	-1.84492476	-26.7857865
4.26	426	-0.015	-0.634	0.351	76.0888224	15.9282324	-9.8548776	145.0786952	-1.9194093	-26.60816952
4.27	427	-0.018	-0.564	0.31	74.3126526	19.480572	-8.9954406	145.8235406	-2.0340009	-26.41909338
4.28	428	0	-0.526	0.282	77.922288	24.5226024	-7.734933	146.6027635	-2.20015872	-26.2128285
4.29	429	-0.01	-0.511	0.278	85.084263	27.501984	-7.0473834	147.4564709	-2.40069402	-26.00083404
4.3	430	-0.032	-0.48	0.291	92.532717	27.3873924	-7.3911582	148.3732037	-2.60122932	-25.78883958
4.31	431	-0.062	-0.396	0.31	100.0957626	27.1009134	-6.7036086	149.3758802	-2.8074942	-25.58830428
4.32	432	-0.112	-0.27	0.365	110.1798234	27.0436176	-3.9534102	150.4816891	-3.02521824	-25.4106873
4.33	433	-0.126	-0.219	0.411	118.4877144	27.501984	-0.5156622	151.6734418	-3.27159018	-25.2674478
4.34	434	-0.118	-0.255	0.425	123.472449	28.1895336	1.8907614	152.911031	-3.54088044	-25.14712662
4.35	435	-0.095	-0.297	0.419	125.9361684	28.5333084	3.437748	154.1772682	-3.82162986	-25.0382646
4.36	436	-0.073	-0.332	0.4	128.91555	28.4760126	4.3544808	155.4778829	-4.10810886	-24.9523209
4.37	437	-0.049	-0.377	0.363	132.353298	28.074942	5.3858052	156.812875	-4.39458786	-24.87783636
4.38	438	-0.015	-0.442	0.316	136.3067082	26.642547	6.7036086	158.1879742	-4.67533728	-24.83199972
4.39	439	0.019	-0.519	0.259	140.7184848	24.2361234	8.021412	159.6089101	-4.94462754	-24.8090814
4.4	440	0.061	-0.567	0.208	144.7864866	21.1421502	9.3965112	161.0642234	-5.17954032	-24.81481098
4.41	441	0.09	-0.549	0.191	147.9950514	16.042824	10.4278356	162.5711029	-5.38007562	-24.84918846
4.42	442	0.099	-0.5	0.113	149.1409674	13.9801752	11.1153852	164.083712	-5.5576926	-24.90075468
4.43	443	0.088	-0.42	-0.001	150.5733624	14.610429	12.318597	165.6192395	-5.74103916	-24.96950964
4.44	444	0.058	-0.319	-0.093	154.2975894	14.2093584	14.610429	167.194874	-5.9301153	-25.0669125
4.45	445	0.016	-0.212	-0.057	154.8705474	6.7036086	16.042824	168.7705085	-6.03897732	-25.19296326
4.46	446	-0.007	-0.089	-0.099	150.8025456	3.4950438	15.2979786	170.3117655	-6.11919144	-25.3247436
4.47	447	-0.001	0.032	-0.204	146.677248	6.5317212	11.5737516	171.8129155	-6.2165943	-25.41641688
4.48	448	-0.007	0.073	-0.272	143.3540916	7.161975	5.2712136	173.2682288	-6.30826758	-25.45079436
4.49	449	0.112	1.669	0.398	604.3560984	-145.4740362	61.879464	179.4848231	-4.9847346	-26.08677774
4.5	450	0.236	0.965	-2.001	-96.829902	159.1104366	12.7196676	178.4993353	-6.54890994	-26.24720598
4.51	451	-0.429	-0.071	1.198	40.8519054	-0.7448454	4.297185	178.9175947	-6.54890994	-26.28731304
4.52	452	-0.328	-2.404	3.354	282.754773	-52.4829528	-4.583664	-178.2071267	-6.06189564	-26.20136934
4.53	453	-0.125	0.072	3.999	152.406828	-49.5035712	12.4904844	-176.6429514	-5.5863405	-26.28158346
4.54	454	-0.536	0.536	3.999	127.8842256	-35.0077338	18.5638392	-175.3308776	-5.2425657	-26.41909338
4.55	455	-0.542	1.575	3.999	124.6756608	-24.4653066	13.4072172	-174.0531812	-5.00765292	-26.51649624
4.56	456	-0.538	1.752	3.999	113.2737966	-0.9740286	13.8082878	-172.8900765	-4.99046418	-26.64827658
4.57	457	-0.309	0.864	3.813	75.6877518	10.599723	12.6623718	-172.1108536	-5.08786704	-26.7857865
4.58	458	-0.12	0.484	2.949	38.1590028	5.2712136	19.3086846	-171.7040534	-5.11651494	-26.98059222
4.59	459	-0.217	-0.075	2.353	-34.2628884	7.734933	64.5150708	-171.996262	-5.0993262	-27.63376434
4.6	460	0.04	0.224	1.452	-119.9774052	-2.291832	76.3180056	-173.1364484	-4.9560867	-28.3900689
4.61	461	0.01	0.519	1.005	-123.9308154	3.9534102	58.5563076	-174.3453898	-4.91597964	-28.98594522
4.62	462	-0.19	0.521	1.119	-145.0156698	3.9534102	43.1437374	-175.7777848	-4.8987909	-29.42712288
4.63	463	-0.184	0.299	1.229	-134.5878342	2.2345362	23.8350528	-177.1242361	-4.88733174	-29.6792244
4.64	464	-0.03	0.584	0.968	-174.8094858	-1.9480572	17.6471064	-178.8774876	-4.8414951	-29.86257096
4.65	465	-0.299	0.142	0.956	-141.7498092	-5.9587632	-0.0572958	179.6738992	-4.77274014	-29.87403012
4.66	466	-0.348	0.387	0.895	-123.3578574	0.1718874	-2.9793816	178.4191212	-4.76128098	-29.8511118
4.67	467	-0.391	0.894	0.669	-108.9766116	6.7609044	-3.151269	177.3075827	-4.8128472	-29.82819348
4.68	468	-0.138	0.787	0.534	-94.7672532	11.9175264	-1.7761698	176.3450132	-4.92170922	-29.81673432
4.69	469	-0.145	0.587	0.599	-82.8497268	17.9335854	12.605076	175.5142241	-5.0993262	-29.94278508
4.7	470	-0.103	0.68	0.517	-78.0368796	22.8037284	21.8296998	174.7579196	-5.33996856	-30.15477954
4.71	471	0.302	0.224	0.476	-66.5204238	24.6944898	24.5798982	174.1047475	-5.60352924	-30.38969232
4.72	472	0.319	0.001	0.531	-65.4890994	22.7464326	16.7876694	173.4515753	-5.83844202	-30.54439098
4.73	473	-0.039	0.341	0.471	-54.717489	17.5898106	8.8235532	172.9015357	-6.016059	-30.6246051
4.74	474	-0.005	0.183	0.552	-43.2010332	11.5737516	0	172.460358	-6.12492102	-30.61314594
4.75	475	0.024	0.154	0.626	-33.9191136	8.7662574	-0.9740286	172.1337719	-6.19940556	-30.60168678
4.76	476	-0.054	0.216	0.696	-29.0489706	5.443101	-0.6875496	171.8358338	-6.25097178	-30.59022762
4.77	477	-0.066	0.093	0.803	-28.4760126	1.0886202	-1.5469866	171.5436252	-6.25670136	-30.57303888
4.78	478	-0.205	-0.026	0.936	-29.220858	-0.3437748	-3.0939732	171.245687	-6.2452422	-30.55012056
4.79	479	-0.241	-0.087	0.992	-27.6738714	0.1145916	-3.6096354	170.959208	-6.23951262	-30.51574308
4.8	480	-0.274	-0.117	1.062	-22.058883	-1.8334656	-3.6669312	170.7529432	-6.22805346	-30.48709518
4.81	481	-0.099	-0.108	1.063	-17.0168526	-3.3804522	-2.9793816	170.5753262	-6.1879464	-30.46417686
4.82	482	-0.114	-0.077	1.075	-12.1467096	-5.0993262	-2.4064236	170.4492754	-6.13638018	-30.44698812
4.83	483	-0.175	-0.08	1.115	-7.5630456	-6.9900876	-2.1772404	170.3747909	-6.06189564	-30.43552896
4.84	484	-0.114	-0.232	1.147	-3.9534102	-8.7089616	-1.4896908	170.3346838	-5.97595194	-30.42979938
4.85	485	-0.097	-0.225	1.136	0.1718874	-9.3392154	-0.6875496	170.3346838	-5.8728195	-30.43552896
4.86	486	-0.051	-0.172	1.115	1.7761698	-9.0527364	-0.6875496	170.3576021	-5.78114622	-30.44125854
4.87	487	-0.08	-0.158	1.084	1.432395	-7.3911582	-0.9167328	170.3690613	-5.70666168	-30.44125854
4.88	488	-0.111	-0.116	1.038	-0.286479	-4.6409598	-0.9167328	170.3690613	-5.66082504	-30.44125854
4.89	489	-0.117	-0.09	1.029	-3.5523396	-2.4064236	-1.145916	170.3289542	-5.63217714	-30.43552896
4.9	490	-0.129	-0.089	1.005	-5.9587632	0	-1.2605076	170.3060359	-5.6436363	-30.4240698
4.91	491	-0.131	-0.105	0.987	-7.5057498	0	-1.145916	170.2315514	-5.6436363	-30.41261064
4.92	492	-0.15	-0.1	0.98	-6.9900876	-1.7761698	-0.9167328	170.1570668	-5.62071798	-30.40688106
4.93	493	-0.115	-0.109	0.982	-6.1306506	-3.437748	-0.8021412	170.0940415	-5.5863405	-30.40688106
4.94	494	-0.082	-0.157	0.973	-5.0420304	-5.2139178	-1.432395	170.0424752	-5.5290447	-30.40115148
4.95	495	-0.102	-0.113	0.972	-2.2345362	-7.6203414	-1.5469866	170.0424752	-5.45456016	-30.3954219
4.96	496	-0.07	-0.097	0.972	-0.286479	-9.167328	-1.3750992	170.0424752	-5.36288688	-30.3954219
4.97	497	-0.094	-0.098	0.969	-0.1145916	-9.7975818	-1.3750992	170.0424752	-5.26548402	-30.3954219
4.98	498	-0.114	-0.147	0.96	0.6875496	-9.3965112	-1.5469866	170.0482048	-5.16808116	-30.3954219
4.99	499	-0.11	-0.101	0.959	2.005353	-8.3651868	-1.5469866	170.0711231	-5.08213746	-30.38969232
5	500	-0.102	-0.098	0.975	1.0886202	-7.3338624	-1.0886202	170.1169598	-5.01911208	-30.3954219
5.01	501	-0.092	-0.113	0.98	-0.9740286	-6.7609044	-0.7448454	170.1112302	-4.95035712	-30.3954219
5.02	502	-0.09	-0.134	0.97	-2.1199446	-6.1879464	-0.4583664	170.0883119	-4.88733174	-30.40115148
5.03	503	-0.089	-0.116	0.967	-1.718874	-5.6722842	-0.0572958	170.0711231	-4.83003594	-30.40688106
5.04	504	-0.091	-0.109	0.979	-1.4896908	-4.8128472	-0.0572958	170.059664	-4.7841993	-30.41261064
5.05	505	-0.098	-0.111	0.993	-1.718874	-3.5523396	0	170.0940415	-4.76128098	-30.4240698
5.06	506	-0.087	-0.104	0.999	-2.1199446	-2.578311	0.0572958	170.0768527	-4.73836266	-30.42979938
5.07	507	-0.086	-0.1	1.001	-2.4064236	-1.432395	0.1145916	170.0482048	-4.72117392	-30.43552896
5.08	508	-0.085	-0.105	1.007	-2.291832	-0.2291832	0.0572958	170.0252865	-4.72117392	-30.43552896
5.09	509	-0.081	-0.107	1.01	-2.1772404	0.7448454	0.1718874	170.0023682	-4.7269035	-30.43552896
5.1	510	-0.081	-0.109	1.011	-2.291832	1.2605076	0.1145916	170.0539344	-4.73836266	-30.44125854
5.11	511	-0.084	-0.108	1.01	-2.578311	1.5469866	0	170.0310161	-4.74982182	-30.44125854
5.12	512	-0.088	-0.105	1.011	-3.0939732	1.6042824	0	169.9966386	-4.76701056	-30.44125854
5.13	513	-0.089	-0.104	1.011	-3.7815228	1.432395	0	169.9565315	-4.7841993	-30.44125854
5.14	514	-0.09	-0.104	1.011	-4.3544808	1.2605076	-0.0572958	169.9106949	-4.79565846	-30.43552896
5.15	515	-0.091	-0.105	1.013	-4.7555514	1.0313244	-0.1718874	169.9221541	-4.80711762	-30.43552896
5.16	516	-0.09	-0.105	1.013	-4.870143	0.859437	-0.1718874	169.8705878	-4.8128472	-30.43552896
5.17	517	-0.089	-0.103	1.012	-5.0420304	0.8021412	-0.1718874	169.8190216	-4.82430636	-30.43552896
5.18	518	-0.089	-0.103	1.014	-4.6982556	0.8021412	-0.1718874	169.7674554	-4.83003594	-30.42979938
5.19	519	-0.089	-0.103	1.018	-4.1252976	0.6302538	-0.1718874	169.7273483	-4.83576552	-30.42979938
5.2	520	-0.09	-0.106	1.022	-3.4950438	0.8021412	-0.1145916	169.7674554	-4.8414951	-30.43552896
5.21	521	-0.087	-0.106	1.026	-2.9220858	1.0313244	-0.1145916	169.7388075	-4.85295426	-30.42979938
5.22	522	-0.09	-0.105	1.027	-2.4064236	1.2605076	-0.0572958	169.7158892	-4.86441342	-30.42979938
5.23	523	-0.095	-0.103	1.027	-2.0626488	1.3178034	0	169.6929709	-4.87587258	-30.4240698
5.24	524	-0.101	-0.105	1.023	-1.7761698	1.6615782	0	169.6757821	-4.89306132	-30.4240698
5.25	525	-0.104	-0.107	1.019	-1.432395	1.8907614	0.0572958	169.7559962	-4.93316838	-30.42979938
5.26	526	-0.1	-0.104	1.014	-1.432395	2.291832	0.1145916	169.7445371	-4.9560867	-30.42979938
5.27	527	-0.098	-0.103	1.008	-1.4896908	2.6356068	0.1145916	169.7273483	-4.97900502	-30.42979938
5.28	528	-0.097	-0.102	1.005	-1.3178034	2.6929026	0.0572958	169.7158892	-5.00765292	-30.4240698
5.29	529	-0.097	-0.103	1.002	-1.2032118	2.6356068	0.0572958	169.6987004	-5.03630082	-30.4240698
5.3	530	-0.099	-0.104	1	-1.0886202	2.578311	0	169.7846441	-5.0706783	-30.42979938
5.31	531	-0.099	-0.104	0.999	-1.0313244	2.4637194	0	169.773185	-5.0993262	-30.4240698
5.32	532	-0.1	-0.104	0.996	-0.9740286	2.5210152	0	169.7617258	-5.12224452	-30.41834022
5.33	533	-0.101	-0.105	0.992	-0.9740286	2.1772404	0	169.7502667	-5.14516284	-30.41834022
5.34	534	-0.101	-0.105	0.993	-0.6302538	1.5469866	-0.0572958	169.7445371	-5.156622	-30.41261064
5.35	535	-0.1	-0.107	1.001	-0.3437748	1.145916	-0.1718874	169.9737203	-5.20245864	-30.43552896
5.36	536	-0.101	-0.107	1.003	-0.2291832	0.6302538	-0.1718874	169.9737203	-5.20818822	-30.42979938
5.37	537	-0.101	-0.107	1.009	-0.4010706	0.1145916	-0.2291832	169.9679907	-5.20818822	-30.42979938
5.38	538	-0.1	-0.109	1.014	-0.5156622	-0.286479	-0.286479	169.9622611	-5.20818822	-30.42979938
5.39	539	-0.099	-0.109	1.013	-0.6875496	-0.7448454	-0.286479	169.9565315	-5.19672906	-30.4240698
5.4	540	-0.098	-0.109	1.013	-0.859437	-1.2032118	-0.3437748	170.0539344	-5.19099948	-30.43552896
5.41	541	-0.097	-0.11	1.011	-0.9740286	-1.3750992	-0.4010706	170.0482048	-5.17954032	-30.42979938
5.42	542	-0.096	-0.11	1.008	-0.9167328	-1.3178034	-0.4010706	170.0367457	-5.16235158	-30.42979938
5.43	543	-0.095	-0.108	1.008	-0.859437	-1.145916	-0.4010706	170.0252865	-5.15089242	-30.42979938
5.44	544	-0.096	-0.108	1.007	-0.859437	-1.0886202	-0.3437748	170.0195569	-5.13943326	-30.4240698
5.45	545	-0.095	-0.108	1.004	-0.859437	-0.8021412	-0.286479	170.1513373	-5.13943326	-30.43552896
5.46	546	-0.095	-0.108	1.003	-1.0313244	-0.7448454	-0.286479	170.1398781	-5.1279741	-30.43552896
5.47	547	-0.096	-0.106	1.003	-1.145916	-0.6302538	-0.286479	170.1284189	-5.12224452	-30.43552896
5.48	548	-0.095	-0.108	1.001	-1.2605076	-0.5156622	-0.1718874	170.1112302	-5.11651494	-30.42979938
5.49	549	-0.094	-0.108	1.003	-1.2605076	-0.3437748	-0.1718874	170.099771	-5.11651494	-30.42979938
5.5	550	-0.095	-0.107	1.002	-1.3750992	-0.1718874	-0.1145916	170.2601993	-5.12224452	-30.44698812
5.51	551	-0.094	-0.107	1	-1.3750992	0	-0.1145916	170.2487401	-5.12224452	-30.44698812
5.52	552	-0.092	-0.106	1.001	-1.3178034	0.2291832	-0.0572958	170.2315514	-5.12224452	-30.44698812
5.53	553	-0.094	-0.106	1.003	-0.9740286	0.286479	-0.0572958	170.2258218	-5.1279741	-30.44125854
5.54	554	-0.094	-0.105	1.007	-0.8021412	0.4010706	-0.1145916	170.2143626	-5.13370368	-30.44125854
5.55	555	-0.095	-0.105	1.008	-0.4583664	0.4583664	-0.0572958	170.4836529	-5.16235158	-30.46417686
5.56	556	-0.095	-0.105	1.011	-0.286479	0.5156622	-0.0572958	170.4836529	-5.16808116	-30.46417686
5.57	557	-0.096	-0.105	1.013	-0.4010706	0.6875496	-0.0572958	170.4779233	-5.17381074	-30.46417686
5.58	558	-0.095	-0.106	1.013	-0.4583664	0.6302538	0	170.4721937	-5.17954032	-30.46417686
5.59	559	-0.095	-0.107	1.013	-0.8021412	0.7448454	0	170.4607346	-5.19099948	-30.46417686
5.6	560	-0.097	-0.105	1.012	-0.9740286	0.859437	0	170.5810558	-5.20245864	-30.46990644
5.61	561	-0.097	-0.105	1.012	-1.0886202	0.8021412	0	170.5695966	-5.2139178	-30.46990644
5.62	562	-0.097	-0.105	1.011	-1.2032118	0.9740286	-0.0572958	170.5581374	-5.21964738	-30.46990644
5.63	563	-0.097	-0.104	1.011	-1.2032118	1.0886202	-0.0572958	170.5466783	-5.23110654	-30.46417686
5.64	564	-0.098	-0.105	1.012	-1.0886202	1.2032118	-0.0572958	170.5352191	-5.2425657	-30.46417686
5.65	565	-0.098	-0.105	1.01	-1.0886202	1.3750992	0	170.6097037	-5.26548402	-30.46990644
5.66	566	-0.098	-0.104	1.009	-1.0313244	1.5469866	0	170.6039741	-5.28267276	-30.46990644
5.67	567	-0.099	-0.104	1.008	-0.9167328	1.4896908	0	170.5925149	-5.29413192	-30.46990644
5.68	568	-0.099	-0.104	1.007	-0.9740286	1.3750992	0	170.5810558	-5.31132066	-30.46417686
5.69	569	-0.1	-0.104	1.008	-1.0886202	1.0886202	0	170.5695966	-5.31705024	-30.46417686
5.7	570	-0.099	-0.104	1.008	-1.145916	0.859437	-0.0572958	170.672729	-5.33423898	-30.47563602
5.71	571	-0.1	-0.104	1.008	-1.3178034	0.8021412	-0.0572958	170.6612699	-5.34569814	-30.46990644
5.72	572	-0.1	-0.105	1.008	-1.3750992	0.6302538	-0.0572958	170.6440811	-5.35142772	-30.46990644
5.73	573	-0.1	-0.104	1.009	-1.4896908	0.572958	-0.1718874	170.6268924	-5.3571573	-30.46990644
5.74	574	-0.1	-0.104	1.009	-1.4896908	0.5156622	-0.1145916	170.6154332	-5.36288688	-30.46417686
5.75	575	-0.101	-0.104	1.01	-1.5469866	0.5156622	-0.1145916	170.7013769	-5.37434604	-30.47563602
5.76	576	-0.101	-0.105	1.008	-1.7761698	0.4010706	-0.1718874	170.6841882	-5.38007562	-30.46990644
5.77	577	-0.1	-0.105	1.006	-1.7761698	0.0572958	-0.1718874	170.6669995	-5.38007562	-30.46990644
5.78	578	-0.1	-0.105	1.006	-1.8334656	-0.0572958	-0.1718874	170.6498107	-5.38007562	-30.46990644
5.79	579	-0.1	-0.104	1.005	-1.8907614	-0.2291832	-0.1718874	170.6268924	-5.37434604	-30.46990644
5.8	580	-0.099	-0.105	1.004	-1.8907614	-0.4010706	-0.1145916	170.7013769	-5.37434604	-30.47563602
5.81	581	-0.1	-0.105	1.003	-1.9480572	-0.572958	-0.1718874	170.6784586	-5.36861646	-30.47563602
5.82	582	-0.099	-0.105	1.005	-1.7761698	-0.7448454	-0.2291832	170.6612699	-5.36288688	-30.47563602
5.83	583	-0.1	-0.106	1.009	-1.6042824	-0.6875496	-0.1718874	170.6440811	-5.35142772	-30.46990644
5.84	584	-0.099	-0.105	1.009	-1.6042824	-0.572958	-0.1145916	170.6268924	-5.34569814	-30.46990644
5.85	585	-0.099	-0.105	1.01	-1.4896908	-0.6875496	-0.1145916	170.7071065	-5.34569814	-30.4813656
5.86	586	-0.1	-0.106	1.009	-1.5469866	-0.8021412	-0.1145916	170.6899178	-5.33996856	-30.4813656
5.87	587	-0.099	-0.106	1.009	-1.5469866	-1.0886202	-0.1718874	170.6784586	-5.3285094	-30.4813656
5.88	588	-0.098	-0.106	1.01	-1.432395	-1.2032118	-0.1145916	170.6612699	-5.31705024	-30.4813656
5.89	589	-0.097	-0.106	1.009	-1.3750992	-1.3178034	-0.2291832	170.6498107	-5.2998615	-30.4813656
5.9	590	-0.096	-0.105	1.007	-1.3178034	-1.2605076	-0.2291832	170.7128361	-5.28840234	-30.48709518
5.91	591	-0.097	-0.106	1.006	-1.2605076	-1.2032118	-0.1145916	170.7013769	-5.27694318	-30.48709518
5.92	592	-0.097	-0.105	1.004	-1.2032118	-1.3750992	-0.1718874	170.6899178	-5.26548402	-30.48709518
5.93	593	-0.096	-0.106	1.005	-1.2032118	-1.3750992	-0.1718874	170.672729	-5.24829528	-30.48709518
5.94	594	-0.096	-0.105	1.007	-1.2032118	-1.3750992	-0.1718874	170.6612699	-5.23683612	-30.48709518
5.95	595	-0.095	-0.105	1.008	-1.2032118	-1.3178034	-0.1718874	170.7300248	-5.22537696	-30.49282476
5.96	596	-0.095	-0.105	1.009	-1.3178034	-1.2605076	-0.1718874	170.7128361	-5.2139178	-30.49282476
5.97	597	-0.096	-0.104	1.01	-1.3178034	-1.2032118	-0.0572958	170.7013769	-5.19672906	-30.49282476
5.98	598	-0.095	-0.107	1.009	-1.6042824	-1.2032118	-0.1718874	170.6841882	-5.1852699	-30.49282476
5.99	599	-0.095	-0.106	1.009	-1.6615782	-1.0313244	-0.0572958	170.6669995	-5.17381074	-30.49855434
6	600	-0.096	-0.107	1.011	-1.7761698	-1.0313244	-0.1145916	170.7242953	-5.16808116	-30.50428392
6.01	601	-0.095	-0.107	1.012	-1.8907614	-1.0313244	-0.1145916	170.7013769	-5.156622	-30.50428392
6.02	602	-0.095	-0.107	1.011	-1.9480572	-1.0313244	-0.1145916	170.6841882	-5.15089242	-30.50428392
6.03	603	-0.093	-0.106	1.011	-1.9480572	-0.859437	-0.1145916	170.6612699	-5.13943326	-30.50428392
6.04	604	-0.093	-0.107	1.011	-1.7761698	-0.572958	-0.0572958	170.6440811	-5.13370368	-30.50428392
6.05	605	-0.094	-0.106	1.01	-1.718874	-0.286479	-0.0572958	170.741484	-5.13370368	-30.51574308
6.06	606	-0.094	-0.106	1.011	-1.718874	0	-0.0572958	170.7242953	-5.13370368	-30.51574308
6.07	607	-0.095	-0.106	1.008	-1.6042824	0.1145916	-0.0572958	170.7071065	-5.13370368	-30.5100135
6.08	608	-0.095	-0.106	1.007	-1.6042824	0.2291832	-0.0572958	170.6899178	-5.13943326	-30.5100135
6.09	609	-0.095	-0.106	1.007	-1.5469866	0.2291832	-0.1145916	170.672729	-5.13943326	-30.5100135
6.1	610	-0.095	-0.105	1.007	-1.4896908	0.0572958	-0.0572958	170.7930502	-5.14516284	-30.52147266
6.11	611	-0.094	-0.105	1.007	-1.6042824	0.0572958	-0.0572958	170.7758615	-5.14516284	-30.52147266
6.12	612	-0.093	-0.106	1.007	-1.718874	0.1718874	-0.0572958	170.7586727	-5.15089242	-30.52147266
6.13	613	-0.093	-0.107	1.007	-1.6615782	0.2291832	-0.0572958	170.741484	-5.15089242	-30.52147266
6.14	614	-0.095	-0.106	1.007	-1.6615782	0.2291832	-0.1145916	170.7242953	-5.15089242	-30.51574308
6.15	615	-0.095	-0.106	1.006	-1.6615782	0.2291832	-0.1718874	170.8216981	-5.16235158	-30.52720224
6.16	616	-0.095	-0.107	1.007	-1.5469866	0.0572958	-0.1145916	170.8045094	-5.16235158	-30.52720224
6.17	617	-0.095	-0.107	1.007	-1.6615782	0	-0.1718874	170.7873206	-5.16235158	-30.52147266
6.18	618	-0.095	-0.107	1.008	-1.6615782	-0.1145916	-0.1718874	170.7701319	-5.156622	-30.52147266
6.19	619	-0.095	-0.107	1.009	-1.6042824	-0.2291832	-0.1145916	170.7529432	-5.156622	-30.52147266
6.2	620	-0.094	-0.106	1.007	-1.5469866	-0.4010706	-0.2291832	170.8388869	-5.156622	-30.52720224
6.21	621	-0.094	-0.107	1.005	-1.6042824	-0.4583664	-0.2291832	170.8216981	-5.15089242	-30.52720224
6.22	622	-0.094	-0.107	1.005	-1.6042824	-0.4583664	-0.1718874	170.8045094	-5.14516284	-30.52720224
6.23	623	-0.094	-0.107	1.006	-1.4896908	-0.572958	-0.2291832	170.7873206	-5.13943326	-30.52147266
6.24	624	-0.095	-0.107	1.008	-1.5469866	-0.5156622	-0.2291832	170.7701319	-5.13370368	-30.52147266
6.25	625	-0.093	-0.108	1.008	-1.5469866	-0.4010706	-0.1718874	170.850346	-5.1279741	-30.52720224
6.26	626	-0.094	-0.108	1.009	-1.5469866	-0.3437748	-0.1718874	170.8331573	-5.12224452	-30.52720224
6.27	627	-0.094	-0.107	1.01	-1.4896908	-0.1145916	-0.1718874	170.8159685	-5.12224452	-30.52720224
6.28	628	-0.094	-0.108	1.011	-1.4896908	0	-0.1145916	170.8045094	-5.12224452	-30.52720224
6.29	629	-0.095	-0.108	1.012	-1.4896908	0.1718874	-0.0572958	170.7873206	-5.12224452	-30.52147266
6.3	630	-0.094	-0.107	1.011	-1.4896908	0.286479	-0.0572958	170.8789939	-5.1279741	-30.53293182
6.31	631	-0.094	-0.107	1.01	-1.432395	0.2291832	-0.0572958	170.8618052	-5.1279741	-30.53293182
6.32	632	-0.094	-0.108	1.01	-1.432395	0.286479	-0.1145916	170.850346	-5.13370368	-30.52720224
6.33	633	-0.094	-0.107	1.008	-1.4896908	0.1718874	-0.0572958	170.8331573	-5.13370368	-30.52720224
6.34	634	-0.094	-0.108	1.007	-1.4896908	0.0572958	-0.0572958	170.8159685	-5.13370368	-30.52720224
6.35	635	-0.094	-0.108	1.007	-1.6042824	0	-0.1145916	170.919101	-5.13943326	-30.5386614
6.36	636	-0.094	-0.107	1.007	-1.6042824	0	-0.0572958	170.9019122	-5.13943326	-30.5386614
6.37	637	-0.093	-0.107	1.007	-1.5469866	0	-0.0572958	170.8904531	-5.13943326	-30.5386614
6.38	638	-0.093	-0.107	1.008	-1.5469866	-0.0572958	-0.1145916	170.8732643	-5.13943326	-30.53293182
6.39	639	-0.094	-0.108	1.007	-1.4896908	0	-0.0572958	170.8560756	-5.13943326	-30.53293182
6.4	640	-0.093	-0.107	1.007	-1.4896908	0	-0.0572958	170.9706672	-5.14516284	-30.54439098
6.41	641	-0.094	-0.107	1.008	-0.286479	-0.0572958	0	170.9706672	-5.14516284	-30.54439098
6.42	642	-0.094	-0.108	1.008	0.0572958	-0.0572958	0	170.9706672	-5.13943326	-30.54439098
6.43	643	-0.094	-0.108	1.009	0	-0.0572958	0	170.9706672	-5.13943326	-30.54439098
6.44	644	-0.093	-0.108	1.01	0.1718874	0	0	170.9706672	-5.13943326	-30.55012056
6.45	645	-0.093	-0.108	1.011	0.1145916	0.0572958	0	171.3889265	-5.16235158	-30.58449804
6.46	646	-0.094	-0.108	1.009	0.1718874	0.2291832	0	171.3889265	-5.16235158	-30.58449804
6.47	647	-0.094	-0.107	1.008	0.0572958	0.1145916	0.0572958	171.3889265	-5.16235158	-30.58449804
6.48	648	-0.093	-0.107	1.008	0	0.1145916	0.0572958	171.3889265	-5.16808116	-30.59022762
6.49	649	-0.094	-0.107	1.007	0	0	0	171.3889265	-5.16808116	-30.59022762
6.5	650	-0.093	-0.108	1.006	0.0572958	-0.1145916	0	171.8702113	-5.16808116	-30.63606426
6.51	651	-0.093	-0.107	1.007	0.0572958	-0.1145916	0	171.8702113	-5.16235158	-30.63606426
6.52	652	-0.093	-0.108	1.008	0.1145916	-0.0572958	0	171.8702113	-5.16235158	-30.63606426
6.53	653	-0.093	-0.108	1.008	0.2291832	0	0	171.8702113	-5.16235158	-30.63033468
6.54	654	-0.094	-0.107	1.009	0.286479	0.1718874	0	171.8759408	-5.16808116	-30.63033468
6.55	655	-0.095	-0.108	1.008	0.286479	0.2291832	0	172.0191803	-5.17954032	-30.64752342
6.56	656	-0.095	-0.107	1.008	0.3437748	0.2291832	0	172.0249099	-5.17954032	-30.64752342
6.57	657	-0.094	-0.106	1.006	0.4010706	0.1145916	0	172.0306395	-5.1852699	-30.64752342
6.58	658	-0.093	-0.107	1.008	0.4010706	-0.0572958	0	172.0306395	-5.17954032	-30.64179384
6.59	659	-0.093	-0.107	1.009	0.4010706	-0.1145916	-0.0572958	172.0363691	-5.17954032	-30.64179384
6.6	660	-0.093	-0.108	1.007	0.4010706	0	0	172.1853382	-5.17954032	-30.65898258
6.61	661	-0.094	-0.108	1.008	0.286479	0	-0.0572958	172.1910677	-5.17954032	-30.65898258
6.62	662	-0.093	-0.107	1.009	0.1145916	-0.1145916	0	172.1910677	-5.17954032	-30.65898258
6.63	663	-0.094	-0.109	1.008	0	-0.3437748	-0.0572958	172.1910677	-5.17954032	-30.653253
6.64	664	-0.093	-0.108	1.009	-0.1145916	-0.4583664	-0.1145916	172.1853382	-5.17381074	-30.653253
6.65	665	-0.093	-0.109	1.012	-0.0572958	-0.4010706	-0.1145916	172.2999298	-5.16808116	-30.66471216
6.66	666	-0.093	-0.107	1.01	0	-0.2291832	-0.0572958	172.2999298	-5.16808116	-30.66471216
6.67	667	-0.093	-0.108	1.009	0.1145916	0	-0.0572958	172.2999298	-5.16808116	-30.66471216
6.68	668	-0.093	-0.107	1.008	0.1145916	0.1145916	-0.0572958	172.2999298	-5.16808116	-30.66471216
6.69	669	-0.092	-0.106	1.008	0.286479	0.2291832	0	172.3056593	-5.16808116	-30.66471216
6.7	670	-0.093	-0.107	1.007	0.4010706	0.2291832	0	172.3858735	-5.17381074	-30.67044174
6.71	671	-0.093	-0.106	1.006	0.3437748	0.2291832	0	172.391603	-5.17954032	-30.67044174
6.72	672	-0.093	-0.107	1.007	0.286479	0.1718874	0	172.391603	-5.17954032	-30.67044174
6.73	673	-0.093	-0.107	1.008	0.286479	0.286479	0	172.3973326	-5.17954032	-30.67044174
6.74	674	-0.093	-0.107	1.009	0.4010706	0.4583664	0	172.4030622	-5.1852699	-30.66471216
6.75	675	-0.093	-0.107	1.008	0.5156622	0.4010706	0.0572958	172.4718172	-5.19099948	-30.67617132
6.76	676	-0.093	-0.107	1.009	0.4010706	0.4583664	0	172.4775467	-5.19672906	-30.67044174
6.77	677	-0.093	-0.107	1.01	0.4010706	0.5156622	0	172.4775467	-5.20245864	-30.67044174
6.78	678	-0.094	-0.107	1.009	0.4010706	0.4583664	0.0572958	172.4832763	-5.20818822	-30.67044174
6.79	679	-0.093	-0.107	1.008	0.3437748	0.4583664	0	172.4890059	-5.20818822	-30.67044174
6.8	680	-0.093	-0.107	1.009	0.4010706	0.3437748	0	172.5520313	-5.21964738	-30.67617132
6.81	681	-0.094	-0.108	1.007	0.4010706	0.4010706	0	172.5577609	-5.21964738	-30.67617132
6.82	682	-0.094	-0.106	1.007	0.2291832	0.286479	0	172.5634904	-5.22537696	-30.67617132
6.83	683	-0.094	-0.105	1.006	0.286479	0.2291832	0.0572958	172.5634904	-5.22537696	-30.6819009
6.84	684	-0.095	-0.107	1.008	0.4010706	0.286479	0.0572958	172.56922	-5.23110654	-30.6819009
6.85	685	-0.094	-0.106	1.008	0.3437748	0.3437748	0.0572958	172.6322454	-5.23683612	-30.68763048
6.86	686	-0.094	-0.108	1.008	0.2291832	0.4010706	0.0572958	172.6322454	-5.23683612	-30.68763048
6.87	687	-0.095	-0.106	1.008	0.1718874	0.4583664	0	172.637975	-5.2425657	-30.68763048
6.88	688	-0.095	-0.106	1.007	0.1145916	0.286479	0	172.637975	-5.24829528	-30.68763048
6.89	689	-0.094	-0.107	1.007	0	0	0	172.637975	-5.24829528	-30.68763048
6.9	690	-0.093	-0.106	1.006	-0.0572958	-0.1718874	0	172.7525666	-5.23110654	-30.69908964
6.91	691	-0.093	-0.106	1.005	-0.0572958	-0.286479	0.0572958	172.746837	-5.23110654	-30.69908964
6.92	692	-0.093	-0.106	1.006	-0.1145916	-0.3437748	0	172.746837	-5.22537696	-30.69908964
6.93	693	-0.094	-0.105	1.007	-0.1718874	-0.572958	0	172.746837	-5.21964738	-30.69908964
6.94	694	-0.094	-0.106	1.007	-0.1718874	-0.7448454	0	172.746837	-5.2139178	-30.69908964
6.95	695	-0.094	-0.106	1.008	-0.2291832	-0.859437	0	172.7697553	-5.20245864	-30.70481922
6.96	696	-0.093	-0.106	1.008	-0.2291832	-0.9740286	0	172.7697553	-5.19672906	-30.70481922
6.97	697	-0.094	-0.106	1.011	-0.1145916	-0.859437	-0.0572958	172.7697553	-5.1852699	-30.70481922
6.98	698	-0.093	-0.106	1.009	-0.2291832	-0.6302538	0	172.7640257	-5.17954032	-30.70481922
6.99	699	-0.093	-0.105	1.01	-0.1718874	-0.4583664	-0.0572958	172.7640257	-5.17381074	-30.70481922
7	700	-0.093	-0.104	1.01	-0.1145916	-0.3437748	0	172.8499694	-5.17954032	-30.71627838
7.01	701	-0.094	-0.105	1.009	0.0572958	-0.1718874	0	172.8499694	-5.17381074	-30.71627838
7.02	702	-0.093	-0.105	1.01	0	-0.0572958	0	172.8499694	-5.17381074	-30.71627838
7.03	703	-0.092	-0.105	1.01	0.0572958	0.0572958	0	172.8499694	-5.17381074	-30.71627838
7.04	704	-0.092	-0.105	1.009	0.0572958	0.1718874	0	172.8499694	-5.17381074	-30.71627838
7.05	705	-0.093	-0.105	1.009	0.1145916	0.286479	0	172.9072652	-5.17954032	-30.71627838
7.06	706	-0.093	-0.105	1.008	0.1718874	0.2291832	0	172.9129948	-5.1852699	-30.71627838
7.07	707	-0.093	-0.105	1.01	0.1718874	0.3437748	0	172.9129948	-5.1852699	-30.71627838
7.08	708	-0.094	-0.105	1.009	0.0572958	0.286479	0	172.9129948	-5.19099948	-30.71627838
7.09	709	-0.093	-0.105	1.008	0.1145916	0.2291832	0	172.9187244	-5.19099948	-30.71627838
7.1	710	-0.093	-0.104	1.009	0.0572958	0.1718874	0	172.9989385	-5.19099948	-30.72200796
7.11	711	-0.093	-0.106	1.009	0.1718874	0.1718874	0	172.9989385	-5.19099948	-30.72200796
7.12	712	-0.093	-0.106	1.008	0.1718874	0.1145916	0	172.9989385	-5.19672906	-30.72200796
7.13	713	-0.094	-0.104	1.008	0.0572958	0.286479	0	173.0046681	-5.19672906	-30.72200796
7.14	714	-0.094	-0.105	1.008	0	0.286479	0	173.0046681	-5.20245864	-30.72200796
7.15	715	-0.093	-0.104	1.008	0.0572958	0.1718874	0	173.0505047	-5.20245864	-30.72773754
7.16	716	-0.093	-0.105	1.008	0	0.3437748	0	173.0505047	-5.20245864	-30.72773754
7.17	717	-0.094	-0.104	1.007	0	0.3437748	0	173.0505047	-5.20818822	-30.72773754
7.18	718	-0.094	-0.105	1.007	0	0.3437748	0	173.0505047	-5.2139178	-30.72773754
7.19	719	-0.095	-0.105	1.01	0.0572958	0.286479	0.0572958	173.0505047	-5.2139178	-30.72773754
7.2	720	-0.095	-0.104	1.009	-0.1145916	0.2291832	0.0572958	173.0906118	-5.21964738	-30.73346712
7.21	721	-0.094	-0.105	1.009	-0.1718874	0.0572958	0.0572958	173.0848822	-5.21964738	-30.73346712
7.22	722	-0.094	-0.105	1.009	-0.286479	0	0	173.0848822	-5.21964738	-30.73346712
7.23	723	-0.094	-0.106	1.01	-0.4010706	-0.0572958	0	173.0791526	-5.21964738	-30.73346712
7.24	724	-0.094	-0.105	1.012	-0.6302538	-0.2291832	0.0572958	173.0734231	-5.21964738	-30.73346712
7.25	725	-0.094	-0.106	1.011	-0.859437	-0.5156622	0	173.0791526	-5.2139178	-30.7391967
7.26	726	-0.093	-0.107	1.01	-0.859437	-0.572958	0	173.0676935	-5.20818822	-30.7391967
7.27	727	-0.093	-0.105	1.009	-0.859437	-0.4583664	0	173.0562343	-5.20245864	-30.7391967
7.28	728	-0.094	-0.105	1.007	-0.8021412	-0.2291832	0.0572958	173.0505047	-5.20245864	-30.7391967
7.29	729	-0.093	-0.105	1.005	-0.7448454	-0.0572958	0	173.0447752	-5.20245864	-30.7391967
7.3	730	-0.093	-0.104	1.005	-0.6875496	-0.1718874	0.0572958	173.0562343	-5.20245864	-30.74492628
7.31	731	-0.093	-0.104	1.005	-0.6875496	-0.2291832	0	173.0505047	-5.19672906	-30.74492628
7.32	732	-0.094	-0.104	1.006	-0.6875496	-0.286479	0	173.0447752	-5.19672906	-30.74492628
7.33	733	-0.093	-0.104	1.007	-0.4583664	-0.3437748	0	173.0390456	-5.19099948	-30.74492628
7.34	734	-0.094	-0.105	1.007	-0.286479	-0.286479	0	173.033316	-5.19099948	-30.74492628
7.35	735	-0.093	-0.105	1.008	-0.2291832	-0.0572958	-0.0572958	173.0791526	-5.1852699	-30.75065586
7.36	736	-0.095	-0.105	1.009	-0.0572958	0.0572958	0	173.0791526	-5.1852699	-30.75065586
7.37	737	-0.094	-0.106	1.01	0	-0.0572958	0	173.0791526	-5.1852699	-30.75065586
7.38	738	-0.094	-0.106	1.01	0	-0.0572958	0	173.0791526	-5.1852699	-30.75065586
7.39	739	-0.094	-0.105	1.011	0.1145916	-0.1145916	0	173.0848822	-5.17954032	-30.75065586
7.4	740	-0.093	-0.105	1.012	0.1718874	-0.1145916	0	173.1249893	-5.17954032	-30.75065586
7.41	741	-0.093	-0.105	1.012	0.1145916	0	0	173.1249893	-5.17954032	-30.75065586
7.42	742	-0.093	-0.106	1.009	0	0.1145916	0	173.1249893	-5.17954032	-30.75065586
7.43	743	-0.093	-0.105	1.008	0.1145916	0.1718874	0	173.1307189	-5.1852699	-30.75065586
7.44	744	-0.094	-0.105	1.008	0.1718874	0.2291832	0	173.1307189	-5.1852699	-30.75065586
7.45	745	-0.094	-0.105	1.007	0.1145916	0.0572958	0	173.1822851	-5.19672906	-30.75638544
7.46	746	-0.093	-0.104	1.007	0.1718874	0	-0.0572958	173.1822851	-5.19672906	-30.75638544
7.47	747	-0.092	-0.105	1.006	0.1145916	0.1145916	0	173.1880147	-5.19672906	-30.75065586
7.48	748	-0.093	-0.105	1.006	0.2291832	0.1145916	0	173.1880147	-5.19672906	-30.75065586
7.49	749	-0.093	-0.106	1.007	0.1718874	0.1145916	-0.0572958	173.1880147	-5.19672906	-30.75065586
7.5	750	-0.094	-0.106	1.008	0.0572958	0.1145916	-0.0572958	173.2338513	-5.20245864	-30.75638544
7.51	751	-0.094	-0.106	1.007	0	0.0572958	-0.0572958	173.2338513	-5.20818822	-30.75638544
7.52	752	-0.093	-0.106	1.007	-0.1145916	0	0	173.2338513	-5.20818822	-30.75638544
7.53	753	-0.092	-0.106	1.007	-0.1718874	0	0	173.2338513	-5.20818822	-30.75638544
7.54	754	-0.093	-0.105	1.007	0.0572958	0.0572958	0	173.2338513	-5.20818822	-30.75638544
7.55	755	-0.093	-0.106	1.008	0.1145916	0.0572958	0	173.2682288	-5.20818822	-30.75638544
7.56	756	-0.093	-0.106	1.009	0.0572958	0.2291832	0	173.2682288	-5.20818822	-30.75638544
7.57	757	-0.094	-0.105	1.009	0.1145916	0.2291832	0.0572958	173.2682288	-5.2139178	-30.75638544
7.58	758	-0.094	-0.105	1.009	0.0572958	0.1718874	0	173.2682288	-5.2139178	-30.75638544
7.59	759	-0.094	-0.105	1.01	-0.0572958	0.1718874	0	173.2682288	-5.2139178	-30.75638544
7.6	760	-0.093	-0.106	1.009	-0.1145916	0.1718874	0	173.2911471	-5.2139178	-30.76211502
7.61	761	-0.093	-0.105	1.008	-0.1145916	0.1145916	0	173.2911471	-5.2139178	-30.76211502
7.62	762	-0.093	-0.105	1.008	0	0.0572958	0	173.2911471	-5.21964738	-30.76211502
7.63	763	-0.093	-0.106	1.006	0.0572958	0	0	173.2911471	-5.21964738	-30.76211502
7.64	764	-0.094	-0.106	1.008	0	0.0572958	0	173.2911471	-5.21964738	-30.76211502
7.65	765	-0.093	-0.105	1.009	0	0	0.0572958	173.3369837	-5.22537696	-30.7678446
7.66	766	-0.094	-0.105	1.009	0	0	0	173.3369837	-5.22537696	-30.7678446
7.67	767	-0.095	-0.105	1.007	0	0.1145916	0	173.3369837	-5.22537696	-30.7678446
7.68	768	-0.095	-0.104	1.007	0	0.1145916	0	173.3369837	-5.22537696	-30.7678446
7.69	769	-0.094	-0.106	1.007	0.0572958	0.1145916	0	173.3427133	-5.22537696	-30.7678446
7.7	770	-0.093	-0.106	1.008	0.1145916	0.0572958	0.0572958	173.3541725	-5.23110654	-30.7678446
7.71	771	-0.094	-0.105	1.008	0.1145916	0	0	173.3541725	-5.23110654	-30.7678446
7.72	772	-0.094	-0.104	1.01	0.0572958	0.1145916	0	173.3599021	-5.23110654	-30.7678446
7.73	773	-0.094	-0.106	1.009	0.1145916	0.1145916	0	173.3599021	-5.23110654	-30.7678446
7.74	774	-0.093	-0.106	1.008	0.0572958	0.0572958	0	173.3599021	-5.23110654	-30.7678446
7.75	775	-0.093	-0.105	1.008	0	0	-0.0572958	173.3942795	-5.22537696	-30.7678446
7.76	776	-0.093	-0.105	1.008	0.0572958	0.0572958	-0.0572958	173.3942795	-5.22537696	-30.7678446
7.77	777	-0.094	-0.105	1.008	0.1145916	0	0	173.3942795	-5.22537696	-30.7678446
7.78	778	-0.095	-0.105	1.008	0.0572958	0.1145916	0	173.4000091	-5.22537696	-30.7678446
7.79	779	-0.093	-0.105	1.007	0.1718874	0.1718874	0	173.4000091	-5.22537696	-30.7678446
7.8	780	-0.093	-0.106	1.007	0.1718874	0.2291832	0	173.4114683	-5.22537696	-30.7678446
7.81	781	-0.094	-0.105	1.009	0.2291832	0.1718874	0	173.4171979	-5.23110654	-30.7678446
7.82	782	-0.093	-0.105	1.009	0.2291832	0.1718874	0	173.4171979	-5.23110654	-30.7678446
7.83	783	-0.093	-0.106	1.007	0.1145916	0.286479	0	173.4171979	-5.23683612	-30.7678446
7.84	784	-0.093	-0.106	1.009	0.0572958	0.286479	0	173.4229274	-5.23683612	-30.7678446
7.85	785	-0.094	-0.105	1.011	-0.1145916	0.1718874	0	173.428657	-5.23683612	-30.7678446
7.86	786	-0.095	-0.106	1.012	-0.286479	0	0	173.428657	-5.23683612	-30.7678446
7.87	787	-0.094	-0.106	1.012	-0.4010706	0	0	173.4229274	-5.23683612	-30.7678446
7.88	788	-0.094	-0.107	1.012	-0.4583664	-0.1145916	0	173.4171979	-5.23683612	-30.7678446
7.89	789	-0.094	-0.106	1.009	-0.4583664	0	0	173.4114683	-5.23683612	-30.7678446
7.9	790	-0.095	-0.105	1.007	-0.286479	0.0572958	0	173.4229274	-5.24829528	-30.7678446
7.91	791	-0.095	-0.105	1.005	-0.1718874	0.1145916	0.0572958	173.4229274	-5.24829528	-30.7678446
7.92	792	-0.095	-0.105	1.005	-0.1145916	0.0572958	0	173.4229274	-5.25402486	-30.7678446
7.93	793	-0.094	-0.105	1.006	-0.0572958	-0.0572958	0	173.4171979	-5.24829528	-30.7678446
7.94	794	-0.094	-0.104	1.005	-0.1145916	-0.1145916	0	173.4171979	-5.24829528	-30.7678446
7.95	795	-0.094	-0.105	1.005	-0.0572958	-0.1718874	0	173.428657	-5.2425657	-30.7678446
7.96	796	-0.096	-0.104	1.005	0	-0.1718874	0	173.428657	-5.2425657	-30.7678446
7.97	797	-0.095	-0.105	1.007	0	-0.2291832	0	173.428657	-5.23683612	-30.7678446
7.98	798	-0.095	-0.105	1.008	0.1145916	-0.1145916	0	173.4343866	-5.23683612	-30.7678446
7.99	799	-0.095	-0.106	1.009	0.1145916	0	0	173.4343866	-5.23683612	-30.77357418
8	800	-0.094	-0.106	1.011	0.2291832	-0.0572958	0	173.4458458	-5.23110654	-30.77357418
8.01	801	-0.095	-0.106	1.01	0.286479	0	0	173.4458458	-5.23110654	-30.77357418
8.02	802	-0.095	-0.105	1.01	0.1718874	0	0	173.4515753	-5.23110654	-30.77357418
8.03	803	-0.095	-0.105	1.01	0.286479	-0.0572958	0	173.4515753	-5.23110654	-30.77357418
8.04	804	-0.095	-0.105	1.009	0.1718874	0	0	173.4573049	-5.23110654	-30.77357418
8.05	805	-0.095	-0.106	1.009	0.2291832	0	0	173.4573049	-5.23683612	-30.77357418
