TimeStamp(s)	FrameCounter	AccX	AccY	AccZ	GyrX	GyrY	GyrZ	EulerX	EulerY	EulerZ
0.01	1	-0.009	-0.998	-0.104	-1.6615782	0.4583664	0.4583664	82.40281956	-0.36669312	-20.08790748
0.02	2	-0.007	-0.998	-0.107	-2.005353	1.2032118	0.6875496	82.38563082	-0.3724227	-20.07071874
0.03	3	-0.003	-1	-0.105	-1.8907614	1.2605076	0.6302538	82.3627125	-0.37815228	-20.05925958
0.04	4	-0.004	-1	-0.103	-1.8907614	1.0313244	0.5156622	82.34552376	-0.38388186	-20.04780042
0.05	5	-0.004	-1	-0.105	-1.7761698	0.859437	0.4583664	82.3340646	-0.37815228	-20.04207084
0.06	6	-0.005	-1	-0.106	-1.8334656	0.6875496	0.4010706	82.31114628	-0.38388186	-20.03634126
0.07	7	-0.006	-1	-0.105	-1.7761698	0.5156622	0.4010706	82.29395754	-0.38388186	-20.03061168
0.08	8	-0.004	-1.004	-0.104	-1.8907614	0.286479	0.5156622	82.2767688	-0.38961144	-20.0248821
0.09	9	-0.002	-1.008	-0.1	-2.291832	-0.3437748	0.5156622	82.25385048	-0.39534102	-20.03061168
0.1	10	0	-1.007	-0.1	-2.8074942	-1.0313244	0.4583664	82.23093216	-0.38961144	-20.04207084
0.11	11	0.001	-1.003	-0.102	-2.8074942	-1.432395	0.3437748	82.20228426	-0.39534102	-20.05925958
0.12	12	0.001	-0.999	-0.103	-2.6929026	-1.718874	0.2291832	82.17936594	-0.4010706	-20.07644832
0.13	13	0.001	-0.997	-0.105	-2.7501984	-1.8907614	0.1718874	82.15071804	-0.40680018	-20.09363706
0.14	14	0	-0.997	-0.106	-2.8074942	-1.7761698	0.1718874	82.12207014	-0.41252976	-20.1108258
0.15	15	0.001	-0.998	-0.104	-2.9793816	-1.9480572	0.286479	82.09915182	-0.40680018	-20.13374412
0.16	16	0.002	-1	-0.105	-3.2658606	-2.0626488	0.5156622	82.06477434	-0.41252976	-20.15666244
0.17	17	0.005	-0.999	-0.106	-3.6096354	-2.2345362	0.7448454	82.03039686	-0.42398892	-20.17385118
0.18	18	0.005	-0.997	-0.108	-4.0680018	-2.578311	0.9167328	81.98456022	-0.43544808	-20.20249908
0.19	19	0.003	-0.997	-0.112	-3.724227	-3.0939732	0.8021412	81.95018274	-0.44690724	-20.23114698
0.2	20	0.002	-0.997	-0.115	-2.9220858	-3.5523396	0.5156622	81.92153484	-0.45263682	-20.27125404
0.21	21	0.002	-0.994	-0.112	-2.4064236	-3.724227	-0.0572958	81.89861652	-0.45263682	-20.30563152
0.22	22	0.001	-0.993	-0.112	-2.4637194	-3.8961144	-0.6302538	81.8756982	-0.45263682	-20.34573858
0.23	23	0.003	-0.995	-0.11	-3.0366774	-4.010706	-1.0313244	81.84132072	-0.44690724	-20.38584564
0.24	24	0.008	-0.999	-0.11	-4.010706	-4.1252976	-1.2605076	81.80121366	-0.44117766	-20.43168228
0.25	25	0.021	-0.998	-0.114	-4.583664	-4.0680018	-1.3178034	81.7611066	-0.41825934	-20.47751892
0.26	26	0.031	-0.997	-0.117	-4.3544808	-4.297185	-1.432395	81.71526996	-0.40680018	-20.52335556
0.27	27	0.032	-0.997	-0.116	-4.0680018	-4.6982556	-1.3750992	81.6751629	-0.4010706	-20.5691922
0.28	28	0.032	-0.999	-0.112	-3.8388186	-5.0993262	-1.3750992	81.63505584	-0.38961144	-20.626488
0.29	29	0.029	-1	-0.11	-3.9534102	-5.2712136	-1.6042824	81.59494878	-0.38388186	-20.67805422
0.3	30	0.031	-1.003	-0.108	-4.0680018	-5.6149884	-1.8334656	81.5605713	-0.35523396	-20.7410796
0.31	31	0.035	-1.006	-0.105	-4.4690724	-5.7868758	-2.1199446	81.52046424	-0.3437748	-20.80410498
0.32	32	0.041	-1.01	-0.106	-5.5576926	-6.0733548	-2.4637194	81.46316844	-0.32658606	-20.86713036
0.33	33	0.047	-1.008	-0.109	-6.7036086	-6.1879464	-3.0366774	81.39441348	-0.30366774	-20.93588532
0.34	34	0.051	-1.004	-0.122	-7.734933	-6.4744254	-3.6096354	81.31992894	-0.27501984	-21.00464028
0.35	35	0.053	-0.998	-0.129	-7.9068204	-6.9327918	-3.8961144	81.23971482	-0.23491278	-21.0848544
0.36	36	0.052	-0.995	-0.13	-7.3911582	-7.2765666	-4.1252976	81.16523028	-0.2005353	-21.15933894
0.37	37	0.052	-0.991	-0.129	-6.875496	-7.6776372	-4.1252976	81.09647532	-0.1718874	-21.24528264
0.38	38	0.05	-0.989	-0.129	-6.4171296	-8.021412	-4.297185	81.03344994	-0.13750992	-21.33122634
0.39	39	0.043	-0.986	-0.128	-5.9014674	-8.021412	-4.4690724	80.97042456	-0.10313244	-21.41717004
0.4	40	0.038	-0.983	-0.127	-5.2139178	-7.734933	-4.6409598	80.91885834	-0.06302538	-21.50311374
0.41	41	0.03	-0.979	-0.13	-4.8128472	-7.2192708	-4.870143	80.8730217	-0.02291832	-21.58332786
0.42	42	0.023	-0.976	-0.135	-4.6409598	-5.8441716	-5.0420304	80.82718506	0.01145916	-21.64635324
0.43	43	0.018	-0.972	-0.141	-4.2398892	-4.6409598	-5.156622	80.78134842	0.0572958	-21.70364904
0.44	44	0.012	-0.969	-0.147	-3.6096354	-3.6096354	-5.3285094	80.74697094	0.10886202	-21.74948568
0.45	45	0.01	-0.968	-0.147	-3.0939732	-2.5210152	-5.3858052	80.71259346	0.16042824	-21.78386316
0.46	46	0.013	-0.97	-0.154	-2.4064236	-1.3178034	-5.3285094	80.68394556	0.21199446	-21.80678148
0.47	47	0.018	-0.969	-0.156	-0.7448454	0	-5.156622	80.67821598	0.26356068	-21.81251106
0.48	48	0.022	-0.967	-0.157	1.6042824	1.432395	-4.8128472	80.69540472	0.30939732	-21.80678148
0.49	49	0.017	-0.959	-0.152	4.8128472	2.8074942	-4.4117766	80.74124136	0.36096354	-21.78386316
0.5	50	0.007	-0.959	-0.137	8.880849	4.2398892	-4.1252976	80.83291464	0.40680018	-21.74948568
0.51	51	0.002	-0.962	-0.124	10.886202	5.2139178	-4.4117766	80.94177666	0.4583664	-21.70364904
0.52	52	0	-0.968	-0.111	11.3445684	5.9014674	-5.0420304	81.05636826	0.5156622	-21.65208282
0.53	53	-0.002	-0.969	-0.105	10.7143146	6.2452422	-5.8441716	81.16523028	0.58441716	-21.6005166
0.54	54	0	-0.967	-0.108	9.9694692	6.6463128	-6.4744254	81.26836272	0.6589017	-21.5432208
0.55	55	0.001	-0.969	-0.109	8.9954406	6.7609044	-6.875496	81.360036	0.73338624	-21.485925
0.56	56	0.004	-0.982	-0.101	7.8495246	6.302538	-6.9327918	81.44025012	0.80787078	-21.4286292
0.57	57	0.008	-0.997	-0.104	6.9327918	5.6149884	-6.9900876	81.51473466	0.8880849	-21.38279256
0.58	58	0.015	-1.015	-0.098	5.6722842	3.9534102	-6.3598338	81.57203046	0.95111028	-21.35414466
0.59	59	0.021	-1.033	-0.091	4.1252976	3.0366774	-5.3285094	81.61213752	1.00840608	-21.33122634
0.6	60	0.029	-1.048	-0.088	2.578311	2.1772404	-4.4117766	81.65797416	1.06570188	-21.31976718
0.61	61	0.03	-1.054	-0.092	0.7448454	1.2032118	-3.437748	81.66370374	1.10007936	-21.30830802
0.62	62	0.033	-1.051	-0.096	-0.859437	0.2291832	-2.291832	81.65224458	1.12299768	-21.30830802
0.63	63	0.037	-1.053	-0.1	-2.1199446	-1.145916	-0.859437	81.63505584	1.12872726	-21.32549676
0.64	64	0.04	-1.061	-0.104	-2.9220858	-2.9793816	0.4010706	81.60067836	1.12299768	-21.35414466
0.65	65	0.034	-1.061	-0.107	-3.437748	-4.9847346	2.0626488	81.57203046	1.10007936	-21.3999813
0.66	66	0.019	-1.057	-0.104	-4.010706	-8.4797784	4.010706	81.5319234	1.04851314	-21.48019542
0.67	67	0.009	-1.047	-0.097	-4.4117766	-10.9434978	5.3858052	81.48608676	0.97975818	-21.57759828
0.68	68	-0.003	-1.035	-0.096	-4.6982556	-13.6936962	6.302538	81.44025012	0.90527364	-21.70364904
0.69	69	-0.019	-1.01	-0.1	-5.0993262	-16.2720072	6.589017	81.3886839	0.81932994	-21.8583477
0.7	70	-0.036	-0.992	-0.093	-4.7555514	-18.5638392	6.2452422	81.34284726	0.72765666	-22.0302351
0.71	71	-0.055	-0.984	-0.075	-4.9847346	-20.5118964	5.3858052	81.29701062	0.64744254	-22.21931124
0.72	72	-0.066	-0.982	-0.06	-6.589017	-21.8869956	4.1252976	81.22825566	0.57868758	-22.4313057
0.73	73	-0.066	-0.984	-0.049	-8.5370742	-22.9756158	2.578311	81.14231196	0.52139178	-22.65475932
0.74	74	-0.061	-0.996	-0.041	-11.6310474	-24.4653066	1.0886202	81.02772036	0.48128472	-22.89540168
0.75	75	-0.046	-1.005	-0.045	-14.1520626	-25.6112226	0.286479	80.89021044	0.43544808	-23.14177362
0.76	76	-0.033	-1.006	-0.05	-15.0687954	-26.8144344	-0.0572958	80.74124136	0.4010706	-23.41106388
0.77	77	-0.031	-1.009	-0.047	-14.037471	-27.788463	0.0572958	80.59800186	0.36096354	-23.68035414
0.78	78	-0.039	-1.022	-0.035	-12.5477802	-28.4760126	0.9740286	80.4719511	0.3151269	-23.96110356
0.79	79	-0.048	-1.041	-0.024	-11.4018642	-28.8197874	2.6356068	80.36308908	0.24637194	-24.24185298
0.8	80	-0.053	-1.049	-0.022	-10.3705398	-28.9916748	4.7555514	80.2714158	0.14896908	-24.51687282
0.81	81	-0.054	-1.049	-0.026	-9.453807	-29.3354496	7.1046792	80.17974252	0.04010706	-24.79189266
0.82	82	-0.052	-1.048	-0.026	-9.0527364	-29.7365202	9.5683986	80.08806924	-0.09167328	-25.0669125
0.83	83	-0.05	-1.046	-0.029	-8.8235532	-29.9657034	11.172681	80.00785512	-0.24637194	-25.34193234
0.84	84	-0.046	-1.046	-0.03	-8.4797784	-30.1375908	12.318597	79.927641	-0.41252976	-25.61695218
0.85	85	-0.052	-1.044	-0.038	-8.1360036	-29.9657034	13.0061466	79.85888604	-0.59014674	-25.88624244
0.86	86	-0.063	-1.039	-0.039	-7.9641162	-29.6792244	13.2926256	79.7844015	-0.76203414	-26.1555327
0.87	87	-0.076	-1.033	-0.037	-7.9641162	-29.793816	13.1207382	79.71564654	-0.93392154	-26.42482296
0.88	88	-0.083	-1.026	-0.032	-8.307891	-29.5646328	12.8342592	79.63543242	-1.10580894	-26.69411322
0.89	89	-0.095	-1.025	-0.034	-10.0840608	-28.934379	12.4904844	79.54375914	-1.27196676	-26.9576739
0.9	90	-0.103	-1.023	-0.041	-12.605076	-27.2728008	11.9748222	79.43489712	-1.44385416	-27.19831626
0.91	91	-0.11	-1.02	-0.047	-14.1520626	-25.8404058	11.2299768	79.30311678	-1.59282324	-27.43322904
0.92	92	-0.119	-1.014	-0.054	-15.183387	-24.350715	10.599723	79.15987728	-1.73606274	-27.65095308
0.93	93	-0.133	-1.016	-0.054	-15.6417534	-22.8610242	9.9694692	79.0109082	-1.87357266	-27.85721796
0.94	94	-0.144	-1.023	-0.051	-16.3865988	-21.0848544	9.5111028	78.85047996	-1.99962342	-28.0462941
0.95	95	-0.15	-1.03	-0.053	-17.2460358	-18.9649098	8.9954406	78.6957813	-2.13713334	-28.21245192
0.96	96	-0.153	-1.035	-0.052	-16.6730778	-16.902261	8.8235532	78.53535306	-2.25172494	-28.36715058
0.97	97	-0.157	-1.036	-0.037	-15.4125702	-14.8396122	8.59437	78.38638398	-2.36058696	-28.49320134
0.98	98	-0.161	-1.04	-0.026	-14.5531332	-11.9748222	8.021412	78.24314448	-2.4637194	-28.59633378
0.99	99	-0.169	-1.045	-0.003	-14.8396122	-8.59437	7.448454	78.09990498	-2.5496631	-28.66508874
1	100	-0.183	-1.046	0.001	-17.8762896	-3.4950438	6.7609044	77.94520632	-2.64706596	-28.68227748
1.01	101	-0.202	-1.034	-0.011	-21.1421502	1.6615782	6.0733548	77.72748228	-2.71009134	-28.65362958
1.02	102	-0.216	-1.018	-0.028	-21.2567418	6.4744254	5.2139178	77.50975824	-2.7501984	-28.58487462
1.03	103	-0.222	-1.006	-0.015	-19.1367972	11.6883432	4.1825934	77.30922294	-2.76738714	-28.46455344
1.04	104	-0.211	-0.99	0.002	-17.5325148	17.3033316	2.9793816	77.1201468	-2.76738714	-28.28693646
1.05	105	-0.182	-0.965	0.009	-14.7823164	22.5172494	1.4896908	76.98263688	-2.75592798	-28.06348284
1.06	106	-0.152	-0.95	0.014	-10.026765	28.5333084	0	76.8623157	-2.69863218	-27.788463
1.07	107	-0.133	-0.941	0.038	-5.6722842	32.4867186	-1.145916	76.78210158	-2.62414764	-27.47906568
1.08	108	-0.12	-0.93	0.052	-2.0626488	36.4974246	-2.0626488	76.74199452	-2.53247436	-27.1295613
1.09	109	-0.122	-0.922	0.051	1.6615782	40.5081306	-2.8074942	76.73626494	-2.42361234	-26.73994986
1.1	110	-0.13	-0.913	0.06	5.9014674	44.9199072	-3.6096354	76.79356074	-2.30902074	-26.31023136
1.11	111	-0.137	-0.904	0.076	10.599723	49.6181628	-4.1825934	76.87950444	-2.16578124	-25.8404058
1.12	112	-0.136	-0.925	0.088	13.9228794	53.0559108	-4.6982556	76.99409604	-2.01681216	-25.33620276
1.13	113	-0.104	-1.102	-0.092	7.9641162	52.998615	-3.3804522	77.05139184	-1.87930224	-24.82627014
1.14	114	0.087	-1.466	-0.396	-3.0939732	42.7999626	8.6516658	76.99982562	-1.87930224	-24.39082206
1.15	115	0.229	-1.344	-0.301	18.6784308	30.8824362	23.2620948	77.17171302	-2.0340009	-24.04131768
1.16	116	0.088	-1.248	-0.149	24.6944898	26.8717302	30.653253	77.4066258	-2.27464326	-23.71473162
1.17	117	-0.08	-1.205	-0.179	19.767051	25.6685184	34.5493674	77.59570194	-2.56112226	-23.38814556
1.18	118	-0.172	-1.093	-0.223	13.5218088	29.6219286	28.4187168	77.71029354	-2.7788463	-23.03864118
1.19	119	-0.223	-0.962	-0.233	6.7036086	35.3515086	16.1001198	77.75613018	-2.87051958	-22.6604889
1.2	120	-0.207	-0.933	-0.264	4.6409598	42.398892	6.0733548	77.76758934	-2.87051958	-22.2307704
1.21	121	-0.204	-1	-0.268	4.9847346	48.8733174	0	77.79050766	-2.7788463	-21.75521526
1.22	122	-0.214	-0.965	-0.267	3.9534102	54.8320806	-5.3285094	77.79623724	-2.62414764	-21.23382348
1.23	123	-0.196	-0.905	-0.266	5.5576926	58.0979412	-9.1100322	77.82488514	-2.42934192	-20.6837838
1.24	124	-0.15	-0.867	-0.245	6.9900876	56.8374336	-9.2246238	77.8649922	-2.24026578	-20.15093286
1.25	125	-0.097	-0.825	-0.226	6.589017	55.0612638	-6.7036086	77.89936968	-2.07410796	-19.6238115
1.26	126	-0.04	-0.775	-0.256	3.5523396	53.3423898	-2.6356068	77.91082884	-1.95378678	-19.11387888
1.27	127	0.015	-0.776	-0.271	2.1199446	49.3889796	2.2345362	77.91082884	-1.88503182	-18.62686458
1.28	128	0.068	-0.833	-0.261	0.9167328	44.0031744	6.302538	77.89936968	-1.86784308	-18.18568692
1.29	129	0.114	-0.918	-0.248	1.0313244	38.6173692	9.167328	77.8936401	-1.8907614	-17.7903459
1.3	130	0.118	-0.951	-0.232	2.4064236	34.2628884	10.1986524	77.8936401	-1.90795014	-17.44084152
1.31	131	0.091	-0.956	-0.223	4.2398892	32.3148312	8.6516658	77.922288	-1.93086846	-17.10852588
1.32	132	0.068	-0.954	-0.197	6.4744254	31.3408026	5.0993262	77.97385422	-1.92513888	-16.79339898
1.33	133	0.058	-0.961	-0.184	6.875496	30.4240698	0.5156622	78.03115002	-1.87357266	-16.49546082
1.34	134	0.055	-0.976	-0.171	8.021412	29.507337	-4.3544808	78.09990498	-1.78189938	-16.2147114
1.35	135	0.058	-0.999	-0.162	8.8235532	29.5646328	-8.7089616	78.1801191	-1.6329303	-15.94542114
1.36	136	0.059	-1.017	-0.157	10.0840608	29.8511118	-12.4331886	78.27179238	-1.45531332	-15.68186046
1.37	137	0.059	-1.022	-0.149	11.2872726	29.4500412	-14.7823164	78.37492482	-1.2605076	-15.41829978
1.38	138	0.06	-1.015	-0.156	11.45916	28.1895336	-15.9282324	78.48378684	-1.05424272	-15.17765742
1.39	139	0.064	-1	-0.165	11.1153852	26.356068	-15.3552744	78.58691928	-0.859437	-14.94847422
1.4	140	0.068	-0.988	-0.167	10.9434978	24.2361234	-14.0947668	78.6957813	-0.67036086	-14.74220934
1.41	141	0.075	-0.98	-0.169	9.9121734	22.2307704	-12.8342592	78.78745458	-0.50993262	-14.54740362
1.42	142	0.087	-0.97	-0.171	9.0527364	19.8816426	-11.5737516	78.87912786	-0.36096354	-14.37551622
1.43	143	0.096	-0.961	-0.172	8.59437	17.3606274	-10.599723	78.95934198	-0.2291832	-14.22654714
1.44	144	0.101	-0.947	-0.166	8.307891	14.7823164	-9.9121734	79.04528568	-0.10313244	-14.0947668
1.45	145	0.106	-0.935	-0.156	8.3651868	11.9175264	-9.3965112	79.13122938	0.02291832	-14.00309352
1.46	146	0.116	-0.926	-0.144	7.6776372	8.1932994	-8.880849	79.20571392	0.12605076	-13.94006814
1.47	147	0.119	-0.926	-0.133	7.2192708	4.9274388	-8.7662574	79.28019846	0.21772404	-13.90569066
1.48	148	0.112	-0.925	-0.127	6.4171296	2.005353	-8.4224826	79.34322384	0.30366774	-13.89996108
1.49	149	0.098	-0.928	-0.118	5.2139178	-0.9167328	-7.5630456	79.39479006	0.37815228	-13.9228794
1.5	150	0.096	-0.925	-0.111	3.8388186	-3.5523396	-6.5317212	79.44635628	0.46982556	-13.97444562
1.51	151	0.093	-0.928	-0.108	2.9220858	-5.9014674	-5.7868758	79.48073376	0.5156622	-14.04320058
1.52	152	0.085	-0.938	-0.108	2.0626488	-8.021412	-4.9847346	79.4979225	0.55576926	-14.13487386
1.53	153	0.079	-0.938	-0.098	1.4896908	-9.9694692	-3.4950438	79.51511124	0.572958	-14.2380063
1.54	154	0.083	-0.943	-0.092	1.0886202	-12.4904844	-1.3750992	79.5265704	0.56722842	-14.36405706
1.55	155	0.087	-0.946	-0.073	1.3178034	-15.2406828	0.286479	79.56667746	0.56722842	-14.51302614
1.56	156	0.087	-0.952	-0.056	1.6615782	-17.5325148	1.8334656	79.5838662	0.52139178	-14.68491354
1.57	157	0.083	-0.958	-0.049	1.3178034	-19.1367972	3.2085648	79.60105494	0.46409598	-14.86253052
1.58	158	0.075	-0.966	-0.044	1.3750992	-19.9962342	4.2398892	79.6125141	0.38961144	-15.05160666
1.59	159	0.066	-0.97	-0.044	1.432395	-20.3973048	5.0420304	79.62970284	0.30939732	-15.24641238
1.6	160	0.058	-0.964	-0.047	1.8907614	-20.4546006	6.1306506	79.6698099	0.2291832	-15.43548852
1.61	161	0.048	-0.962	-0.033	2.86479	-21.3713334	7.3911582	79.70418738	0.12605076	-15.63029424
1.62	162	0.038	-0.961	-0.01	3.7815228	-23.3766864	9.2819196	79.74429444	0	-15.8422887
1.63	163	0.033	-0.966	0.009	4.010706	-25.7258142	10.886202	79.79013108	-0.13750992	-16.07720148
1.64	164	0.036	-0.976	0.021	3.8961144	-27.7311672	12.3758928	79.83596772	-0.29793816	-16.32357342
1.65	165	0.051	-0.989	0.03	4.0680018	-29.1062664	13.2926256	79.90472268	-0.46409598	-16.59286368
1.66	166	0.063	-1.012	0.037	4.583664	-29.9657034	13.178034	79.9562889	-0.63598338	-16.86215394
1.67	167	0.06	-1.044	0.05	5.0993262	-31.1116194	11.9748222	80.01931428	-0.79641162	-17.14290336
1.68	168	0.056	-1.073	0.061	5.9014674	-31.9710564	10.313244	80.08806924	-0.9453807	-17.44084152
1.69	169	0.062	-1.1	0.061	5.5003968	-32.4867186	8.4224826	80.15109462	-1.07143146	-17.74450926
1.7	170	0.07	-1.115	0.05	4.2398892	-32.7731976	6.9900876	80.22557916	-1.1745639	-18.05390658
1.71	171	0.076	-1.121	0.043	3.6669312	-33.4607472	5.6149884	80.27714538	-1.27769634	-18.36903348
1.72	172	0.08	-1.121	0.039	4.6409598	-34.6066632	4.4690724	80.33444118	-1.36936962	-18.70134912
1.73	173	0.077	-1.113	0.043	7.3911582	-36.8984952	3.5523396	80.42611446	-1.45531332	-19.05658308
1.74	174	0.069	-1.096	0.077	11.9748222	-40.1643558	2.86479	80.56362438	-1.53552744	-19.44619452
1.75	175	0.069	-1.08	0.121	17.2460358	-43.8885828	2.291832	80.77561884	-1.6042824	-19.87018344
1.76	176	0.08	-1.062	0.172	21.9442914	-50.3057124	1.7761698	81.02199078	-1.68449652	-20.36292732
1.77	177	0.116	-1.039	0.229	26.069589	-54.9466722	0.9740286	81.30846978	-1.76471064	-20.89577826
1.78	178	0.152	-1.029	0.268	29.2781538	-59.301153	-0.1718874	81.62932626	-1.82773602	-21.47446584
1.79	179	0.168	-1.113	0.12	26.1841806	-61.9367598	-2.3491278	81.92726442	-1.87357266	-22.0875309
1.8	180	0.028	-1.337	0.031	16.8449652	-62.6816052	-14.6677248	82.12779972	-1.79908812	-22.7177847
1.81	181	-0.253	-1.41	-0.094	30.5959572	-45.6647526	-28.1895336	82.46011536	-1.56417534	-23.204799
1.82	182	-0.291	-1.257	-0.098	24.0069402	-33.0596766	-30.1375908	82.71794646	-1.30061466	-23.56576254
1.83	183	-0.17	-1.282	-0.148	32.2002396	-22.0015872	-37.4714532	83.0502621	-0.9453807	-23.82359364
1.84	184	-0.048	-1.229	-0.3	24.7517856	-19.8816426	-43.1437374	83.3080932	-0.53858052	-24.064236
1.85	185	0.005	-1.146	-0.401	15.9282324	-19.0795014	-45.263682	83.45706228	-0.10313244	-24.30487836
1.86	186	-0.1	-1.08	-0.532	4.0680018	-21.3140376	-45.6647526	83.50289892	0.32085648	-24.56270946
1.87	187	-0.185	-0.958	-0.643	-1.3750992	-24.064236	-43.1437374	83.48571018	0.72765666	-24.84918846
1.88	188	-0.103	-0.858	-0.609	3.6096354	-28.361421	-39.4195104	83.52008766	1.09434978	-25.17004494
1.89	189	0.032	-0.788	-0.498	5.2139178	-26.9863218	-34.4920716	83.57165388	1.40947668	-25.47371268
1.9	190	0.14	-0.789	-0.409	2.1772404	-20.05353	-29.507337	83.54873556	1.70741484	-25.70862546
1.91	191	0.221	-0.846	-0.38	0.1718874	-16.3865988	-25.2674478	83.54873556	1.94232762	-25.8977016
1.92	192	0.267	-0.951	-0.342	-2.005353	-18.4492476	-19.767051	83.52008766	2.1199446	-26.10396648
1.93	193	0.239	-1.032	-0.301	-2.3491278	-22.2880662	-11.8029348	83.49143976	2.21734746	-26.33314968
1.94	194	0.156	-1.041	-0.267	-0.5156622	-24.8663772	-4.1252976	83.4799806	2.24026578	-26.5852512
1.95	195	0.044	-1.02	-0.221	2.9793816	-23.5485738	0.6302538	83.48571018	2.2058883	-26.8144344
1.96	196	-0.086	-1.018	-0.185	5.6149884	-19.0222056	4.7555514	83.5372764	2.14286292	-26.99778096
1.97	197	-0.198	-1.023	-0.172	7.1046792	-12.8342592	9.8548776	83.60603136	2.0340009	-27.11237256
1.98	198	-0.269	-1.013	-0.164	10.7143146	-6.875496	15.8709366	83.71489338	1.87357266	-27.16393878
1.99	199	-0.276	-0.992	-0.137	15.1260912	-1.8334656	22.058883	83.86959204	1.65584862	-27.1582092
2	200	-0.243	-0.987	-0.114	17.475219	2.0626488	26.7571386	84.04720902	1.36364004	-27.1009134
2.01	201	-0.199	-0.991	-0.094	18.334656	4.6982556	30.5386614	84.23628516	1.06570188	-27.02069928
2.02	202	-0.163	-0.985	-0.07	18.6784308	6.9327918	32.8877892	84.4253613	0.7448454	-26.91756684
2.03	203	-0.135	-0.977	-0.051	16.7876694	9.2819196	33.7472262	84.5972487	0.42398892	-26.79724566
2.04	204	-0.107	-0.965	-0.037	13.0634424	11.5164558	33.0596766	84.72902904	0.10313244	-26.64827658
2.05	205	-0.068	-0.94	-0.04	8.3651868	14.2093584	31.0543236	84.81497274	-0.19480572	-26.48211876
2.06	206	-0.027	-0.907	-0.048	4.3544808	16.6730778	27.9603504	84.8550798	-0.4583664	-26.29304262
2.07	207	0.003	-0.886	-0.057	0.5156622	19.2513888	24.1788276	84.8550798	-0.6875496	-26.08104816
2.08	208	0.012	-0.885	-0.076	-2.9220858	20.8556712	20.2827132	84.82070232	-0.87662574	-25.85759454
2.09	209	-0.008	-0.902	-0.092	-5.9014674	21.6005166	16.9595568	84.75767694	-1.0313244	-25.62841134
2.1	210	-0.044	-0.917	-0.113	-7.8495246	21.485925	14.7823164	84.66027408	-1.16883432	-25.40495772
2.11	211	-0.077	-0.92	-0.123	-7.161975	19.8243468	13.9228794	84.58005996	-1.29488508	-25.19296326
2.12	212	-0.095	-0.916	-0.108	-4.870143	17.7044022	13.8655836	84.52276416	-1.42093584	-25.0096167
2.13	213	-0.098	-0.921	-0.071	-2.0626488	15.4125702	14.037471	84.49411626	-1.55271618	-24.84345888
2.14	214	-0.091	-0.936	-0.042	-1.2605076	13.1207382	14.0947668	84.47692752	-1.67876694	-24.70021938
2.15	215	-0.071	-0.955	-0.023	-1.6042824	11.0007936	13.8082878	84.47119794	-1.81627686	-24.57416862
2.16	216	-0.045	-0.972	-0.015	-3.0939732	9.5111028	12.9488508	84.43109088	-1.94232762	-24.47103618
2.17	217	-0.022	-0.979	-0.023	-4.6982556	8.3651868	11.4018642	84.37952466	-2.04546006	-24.3793629
2.18	218	-0.011	-0.98	-0.028	-5.8441716	6.6463128	9.2819196	84.31649928	-2.13713334	-24.30487836
2.19	219	-0.01	-0.985	-0.029	-6.9327918	5.2139178	6.9900876	84.24201474	-2.20015872	-24.24758256
2.2	220	-0.015	-0.987	-0.036	-8.2505952	3.2658606	4.7555514	84.17325978	-2.24026578	-24.21320508
2.21	221	-0.027	-0.988	-0.045	-9.6829902	0.572958	2.86479	84.07585692	-2.26891368	-24.2074755
2.22	222	-0.042	-0.989	-0.04	-10.8289062	-2.0626488	1.8334656	83.9669949	-2.28610242	-24.22466424
2.23	223	-0.052	-0.987	-0.039	-11.4018642	-4.5263682	1.6042824	83.8524033	-2.30902074	-24.27050088
2.24	224	-0.062	-0.979	-0.034	-11.6310474	-6.4171296	2.005353	83.7378117	-2.33766864	-24.33352626
2.25	225	-0.077	-0.967	-0.019	-10.9434978	-7.6776372	2.9793816	83.651868	-2.38350528	-24.40228122
2.26	226	-0.093	-0.965	-0.002	-10.4851314	-8.1932994	3.4950438	83.54873556	-2.42934192	-24.48249534
2.27	227	-0.109	-0.969	0.006	-10.886202	-7.6776372	3.2658606	83.43987354	-2.46944898	-24.55697988
2.28	228	-0.126	-0.981	0.023	-11.1153852	-6.016059	2.4064236	83.33101152	-2.49809688	-24.61427568
2.29	229	-0.141	-0.99	0.045	-11.2299768	-2.9793816	1.2032118	83.21641992	-2.51528562	-24.64292358
2.3	230	-0.157	-1.006	0.059	-11.6883432	0.572958	0.0572958	83.1648537	-2.56685184	-24.63146442
2.31	231	-0.172	-1.028	0.069	-13.8082878	5.0420304	-1.0886202	83.0216142	-2.5496631	-24.58562778
2.32	232	-0.181	-1.046	0.086	-15.469866	10.1413566	-2.0626488	82.85545638	-2.5210152	-24.48822492
2.33	233	-0.18	-1.069	0.1	-17.1314442	15.8136408	-2.7501984	82.67210982	-2.48090814	-24.33925584
2.34	234	-0.171	-1.088	0.105	-18.907614	22.2880662	-3.2085648	82.47157452	-2.42934192	-24.1215318
2.35	235	-0.161	-1.119	0.087	-20.5118964	26.8144344	-3.0939732	82.26530964	-2.38350528	-23.8637007
2.36	236	-0.145	-1.139	0.061	-20.3973048	30.653253	-2.1199446	82.04185602	-2.32620948	-23.56576254
2.37	237	-0.134	-1.137	0.074	-16.5584862	33.1742682	-1.0313244	81.85850946	-2.28037284	-23.24490606
2.38	238	-0.125	-1.13	0.106	-14.4385416	35.523396	-0.286479	81.69235164	-2.24026578	-22.89540168
2.39	239	-0.121	-1.109	0.127	-13.0634424	38.674665	-0.0572958	81.53765298	-2.19442914	-22.5172494
2.4	240	-0.122	-1.081	0.151	-8.1932994	41.7686382	0.4010706	81.46889802	-2.16005166	-22.10471964
2.41	241	-0.116	-1.074	0.189	1.145916	46.123119	1.0886202	81.45743886	-2.11421502	-21.65208282
2.42	242	-0.119	-1.044	0.225	9.9121734	52.0245864	1.145916	81.5319234	-2.0626488	-21.13642062
2.43	243	-0.112	-1.033	0.254	17.475219	55.1185596	2.1199446	81.68089248	-2.01681216	-20.59211052
2.44	244	-0.095	-1.051	0.265	22.058883	56.2071798	4.0680018	81.8756982	-1.99389384	-20.03061168
2.45	245	-0.096	-1.09	0.248	20.6837838	52.7694318	6.3598338	82.08769266	-1.99962342	-19.50349032
2.46	246	-0.097	-1.131	0.11	15.3552744	49.0452048	9.453807	82.219473	-2.03973048	-19.00501686
2.47	247	-0.085	-1.16	-0.081	12.1467096	47.6701056	14.32395	82.31687586	-2.12567418	-18.51800256
2.48	248	-0.044	-1.171	-0.221	14.2666542	45.7793442	19.7097552	82.43719704	-2.27464326	-18.03671784
2.49	249	0.006	-1.134	-0.331	15.6417534	38.4454818	24.5226024	82.57470696	-2.47517856	-17.62418808
2.5	250	0.03	-1.098	-0.369	16.3865988	29.4500412	29.1062664	82.7064873	-2.7215505	-17.29760202
2.51	251	0.03	-1.079	-0.465	10.3705398	23.8923486	33.3461556	82.79816058	-3.03094782	-17.02258218
2.52	252	0.04	-1.031	-0.53	5.5003968	18.9649098	36.0390582	82.83826764	-3.36326346	-16.7876694
2.53	253	0.068	-0.953	-0.571	1.8907614	14.6677248	34.091001	82.84399722	-3.68411994	-16.60432284
2.54	254	0.056	-0.861	-0.597	0.4583664	13.2353298	30.4813656	82.83826764	-3.97632852	-16.43243544
2.55	255	-0.003	-0.822	-0.548	3.437748	12.605076	26.6998428	82.792431	-4.22270046	-16.2720072
2.56	256	-0.114	-0.835	-0.453	5.3858052	12.7196676	21.4286292	82.83253806	-4.42323576	-16.11730854
2.57	257	-0.224	-0.9	-0.378	4.6982556	15.8136408	14.32395	82.86691554	-4.54928652	-15.94542114
2.58	258	-0.274	-0.964	-0.347	2.86479	20.05353	8.59437	82.8783747	-4.6123119	-15.73915626
2.59	259	-0.288	-1.047	-0.308	3.2085648	20.3973048	4.7555514	82.88983386	-4.6409598	-15.5271618
2.6	260	-0.245	-1.126	-0.25	3.2085648	18.5638392	2.4064236	82.88983386	-4.66387812	-15.33808566
2.61	261	-0.138	-1.137	-0.237	2.2345362	16.5011904	1.5469866	82.89556344	-4.66387812	-15.17192784
2.62	262	-0.027	-1.099	-0.242	3.0939732	15.756345	1.8334656	82.91275218	-4.66387812	-15.0114996
2.63	263	0.043	-1.078	-0.227	5.3285094	16.6730778	2.1199446	82.95285924	-4.6696077	-14.84534178
2.64	264	0.068	-1.083	-0.197	7.161975	19.194093	1.6615782	83.00442546	-4.6696077	-14.65053606
2.65	265	0.072	-1.086	-0.17	9.0527364	22.631841	-0.1718874	83.06745084	-4.61804148	-14.43281202
2.66	266	0.069	-1.084	-0.158	9.6829902	26.4133638	-3.3231564	83.14193538	-4.56074568	-14.17498092
2.67	267	0.05	-1.079	-0.154	9.7975818	27.6738714	-6.4744254	83.21641992	-4.4690724	-13.90569066
2.68	268	0.031	-1.066	-0.142	10.026765	27.1582092	-9.3965112	83.29663404	-4.3544808	-13.64785956
2.69	269	0.022	-1.047	-0.135	8.7662574	25.3247436	-11.6310474	83.365389	-4.2112413	-13.41294678
2.7	270	0.02	-1.025	-0.128	6.1879464	21.7151082	-12.7769634	83.40549606	-4.05081306	-13.21241148
2.71	271	0.032	-1.003	-0.129	2.7501984	17.2460358	-12.6623718	83.41695522	-3.90757356	-13.05771282
2.72	272	0.048	-0.985	-0.134	-0.7448454	12.6623718	-11.745639	83.39976648	-3.7815228	-12.94312122
2.73	273	0.088	-0.97	-0.142	-4.0680018	8.021412	-10.7716104	83.35392984	-3.6669312	-12.87436626
2.74	274	0.085	-0.951	-0.151	-6.3598338	2.6356068	-10.313244	83.28517488	-3.56379876	-12.8629071
2.75	275	0.11	-0.914	-0.14	-7.9068204	-1.718874	-10.599723	83.1935016	-3.41482968	-12.90301416
2.76	276	0.104	-0.911	-0.14	-9.2819196	-5.3285094	-12.1467096	83.1075579	-3.30023808	-12.97176912
2.77	277	0.121	-0.897	-0.121	-11.9748222	-9.6256944	-13.2926256	82.9929663	-3.1799169	-13.08063114
2.78	278	0.127	-0.901	-0.104	-14.9542038	-13.750992	-14.9542038	82.8497268	-3.04240698	-13.2353298
2.79	279	0.134	-0.914	-0.114	-20.2254174	-17.9908812	-16.5584862	82.65492108	-2.89916748	-13.4358651
2.8	280	0.142	-0.911	-0.148	-24.8663772	-21.8869956	-17.475219	82.40854914	-2.73300966	-13.68223704
2.81	281	0.149	-0.891	-0.223	-27.6738714	-25.0382646	-17.2460358	82.14498846	-2.58977016	-13.9515273
2.82	282	0.149	-0.863	-0.266	-24.2361234	-28.361421	-15.8709366	81.91580526	-2.46944898	-14.25519504
2.83	283	0.136	-0.842	-0.239	-16.042824	-30.5386614	-15.1260912	81.76683618	-2.35485738	-14.57605152
2.84	284	0.106	-0.822	-0.187	-7.7922288	-31.226211	-14.4958374	81.70954038	-2.25172494	-14.90836716
2.85	285	0.071	-0.811	-0.144	-4.0680018	-32.085648	-14.037471	81.68089248	-2.13713334	-15.24641238
2.86	286	0.036	-0.809	-0.093	-2.6929026	-33.231564	-13.5218088	81.66943332	-2.03973048	-15.59018718
2.87	287	0.016	-0.812	-0.05	-2.5210152	-33.231564	-13.178034	81.65797416	-1.95378678	-15.93396198
2.88	288	0.014	-0.83	-0.02	-3.3231564	-32.4294228	-12.2613012	81.64078542	-1.86784308	-16.2720072
2.89	289	0.016	-0.859	0.017	-3.151269	-31.6272816	-11.6883432	81.62359668	-1.79335854	-16.59859326
2.9	290	0.017	-0.897	0.05	-2.3491278	-30.9970278	-12.2613012	81.63505584	-1.70168526	-16.92517932
2.91	291	0.007	-0.939	0.078	-0.6875496	-30.4813656	-13.4072172	81.646515	-1.6042824	-17.2460358
2.92	292	-0.011	-0.968	0.087	-0.572958	-28.5906042	-14.32395	81.65224458	-1.49542038	-17.54397396
2.93	293	-0.015	-0.983	0.09	-1.6042824	-26.5852512	-14.8396122	81.64078542	-1.38082878	-17.82472338
2.94	294	0	-1.007	0.095	-3.2085648	-25.3820394	-14.7250206	81.6178671	-1.26623718	-18.09974322
2.95	295	0.02	-1.029	0.09	-6.7609044	-25.0955604	-14.1520626	81.5892192	-1.145916	-18.36903348
2.96	296	0.03	-1.04	0.084	-9.740286	-24.9809688	-12.7769634	81.49754592	-1.05424272	-18.63259416
2.97	297	0.031	-1.049	0.077	-12.4904844	-25.2674478	-11.3445684	81.37722474	-0.9740286	-18.89615484
2.98	298	0.035	-1.051	0.059	-16.5011904	-24.5226024	-8.8235532	81.2167965	-0.9167328	-19.15398594
2.99	299	0.032	-1.054	0.038	-19.7097552	-23.4339822	-6.2452422	81.02772036	-0.8880849	-19.3946283
3	300	0.018	-1.062	0.013	-23.777757	-22.058883	-3.8961144	80.80999632	-0.87662574	-19.6238115
3.01	301	-0.009	-1.08	-0.014	-28.4187168	-20.1681216	-2.5210152	80.52351732	-0.87662574	-19.8243468
3.02	302	-0.045	-1.098	-0.045	-33.4607472	-16.5584862	-1.8907614	80.19120168	-0.8880849	-19.9962342
3.03	303	-0.075	-1.093	-0.066	-37.7006364	-10.8289062	-1.6615782	79.8130494	-0.8880849	-20.1108258
3.04	304	-0.082	-1.052	-0.088	-40.10706	-3.9534102	-0.9740286	79.40624922	-0.8880849	-20.15093286
3.05	305	-0.059	-1.001	-0.111	-41.6540466	2.0626488	0	78.98798988	-0.89381448	-20.13374412
3.06	306	0	-0.95	-0.109	-42.2270046	6.016059	2.6356068	78.55827138	-0.9167328	-20.07644832
3.07	307	0.052	-0.919	-0.109	-42.2270046	5.2712136	5.8441716	78.12855288	-0.96829902	-20.01915252
3.08	308	0.096	-0.907	-0.128	-44.0031744	2.0626488	9.6829902	77.68164564	-1.0599723	-19.97904546
3.09	309	0.112	-0.889	-0.145	-47.3263308	-2.4064236	13.6936962	77.20036092	-1.2032118	-19.97904546
3.1	310	0.122	-0.89	-0.174	-49.6754586	-8.307891	16.2147114	76.70188746	-1.36936962	-20.03061168
3.11	311	0.108	-0.895	-0.211	-51.56622	-12.5477802	17.0168526	76.18049568	-1.56417534	-20.11655538
3.12	312	0.068	-0.904	-0.241	-50.4775998	-14.3812458	15.2406828	75.67056306	-1.7475219	-20.2254174
3.13	313	0.003	-0.907	-0.244	-48.3003594	-16.5584862	11.5164558	75.18927834	-1.90222056	-20.36292732
3.14	314	-0.041	-0.907	-0.215	-48.9306132	-16.042824	6.2452422	74.70226404	-2.005353	-20.50616682
3.15	315	-0.062	-0.903	-0.215	-50.9359662	-12.318597	2.578311	74.19233142	-2.06837838	-20.62075842
3.16	316	-0.075	-0.907	-0.218	-52.5402486	-9.8548776	-0.286479	73.65948048	-2.09702628	-20.71816128
3.17	317	-0.077	-0.919	-0.216	-54.43101	-8.59437	-2.2345362	73.11517038	-2.10275586	-20.81556414
3.18	318	-0.077	-0.94	-0.206	-58.3844202	-7.734933	-2.4064236	72.52502364	-2.10275586	-20.90150784
3.19	319	-0.083	-0.966	-0.215	-65.9474658	-6.7609044	-0.7448454	71.86039236	-2.12567418	-20.9702628
3.2	320	-0.088	-1.002	-0.238	-74.5418358	-6.3598338	2.1772404	71.10981738	-2.1772404	-21.03328818
3.21	321	-0.097	-1.041	-0.254	-82.3340646	-5.9014674	4.8128472	70.27902828	-2.24599536	-21.07912482
3.22	322	-0.097	-1.072	-0.306	-90.4700682	-6.016059	6.9900876	69.36229548	-2.34339822	-21.11923188
3.23	323	-0.088	-1.098	-0.36	-96.0850566	-8.59437	8.307891	68.38826688	-2.45798982	-21.17652768
3.24	324	-0.086	-1.105	-0.388	-99.4655088	-11.1153852	9.3965112	67.38559038	-2.59549974	-21.25101222
3.25	325	-0.092	-1.123	-0.392	-101.2989744	-11.9175264	9.740286	66.36572514	-2.74446882	-21.33122634
3.26	326	-0.101	-1.152	-0.39	-103.418919	-9.3965112	9.3965112	65.317212	-2.87624916	-21.38852214
3.27	327	-0.099	-1.161	-0.26	-104.3929476	-5.7868758	8.7662574	64.26296928	-2.99084076	-21.41144046
3.28	328	-0.098	-1.146	-0.244	-110.0652318	-2.4637194	7.5630456	63.14570118	-3.08251404	-21.40571088
3.29	329	-0.083	-1.107	-0.212	-114.7634874	1.9480572	6.7036086	61.97686686	-3.14553942	-21.36560382
3.3	330	-0.067	-1.092	-0.137	-119.748222	9.167328	5.6149884	60.77365506	-3.16845774	-21.26820096
3.31	331	-0.056	-1.043	-0.185	-126.1080558	11.45916	5.9587632	59.48449956	-3.18564648	-21.1421502
3.32	332	-0.032	-0.984	-0.209	-131.3219736	11.2872726	7.3911582	58.14377784	-3.2085648	-21.01609944
3.33	333	0.009	-0.896	-0.252	-131.9522274	10.1986524	9.1100322	56.79732654	-3.25440144	-20.8843191
3.34	334	0.044	-0.819	-0.257	-129.2593248	10.599723	9.453807	55.47379356	-3.28877892	-20.75253876
3.35	335	0.066	-0.731	-0.242	-125.4205062	12.5477802	7.9641162	54.20755638	-3.2945085	-20.60929926
3.36	336	0.087	-0.634	-0.16	-119.6336304	12.4331886	5.6149884	52.98142626	-3.28877892	-20.4832485
3.37	337	0.108	-0.517	-0.123	-113.2737966	10.599723	4.9274388	51.8240511	-3.28304934	-20.3686569
3.38	338	0.137	-0.44	-0.005	-104.9659056	8.7662574	8.59437	50.75261964	-3.31169724	-20.2540653
3.39	339	0.148	-0.359	0.06	-99.1790298	3.724227	14.610429	49.73848398	-3.4091001	-20.13374412
3.4	340	0.152	-0.292	0.127	-93.7359288	-4.583664	21.0848544	48.79883286	-3.60390582	-20.03634126
3.41	341	0.148	-0.245	0.185	-90.240885	-13.5218088	26.8717302	47.87637048	-3.90184398	-19.9675863
3.42	342	0.138	-0.214	0.2	-88.1209404	-21.3713334	31.6272816	46.982556	-4.28572584	-19.91602008
3.43	343	0.116	-0.19	0.198	-85.7145168	-27.9030546	34.3201842	46.11738942	-4.7269035	-19.89310176
3.44	344	0.068	-0.175	0.217	-83.4799806	-35.2942128	35.2942128	45.27514116	-5.23110654	-19.90456092
3.45	345	0.043	-0.166	0.244	-81.8756982	-41.6540466	34.3201842	44.47299996	-5.76395748	-19.9675863
3.46	346	0.028	-0.147	0.256	-81.8756982	-45.9512316	30.3094782	43.6593996	-6.302538	-20.07644832
3.47	347	0.042	-0.144	0.238	-81.8184024	-47.269035	26.2987722	42.85152882	-6.82392978	-20.21968782
3.48	348	0.073	-0.147	0.187	-83.4799806	-46.6387812	24.064236	42.03219888	-7.32813282	-20.3686569
3.49	349	0.071	-0.119	0.11	-87.2042076	-44.5761324	20.05353	41.17276188	-7.79795838	-20.52335556
3.5	350	0.041	-0.076	0.073	-88.6366026	-39.7059894	14.0947668	40.31332488	-8.18756982	-20.68951338
3.51	351	0.016	-0.082	0.062	-87.949053	-33.0023808	9.8548776	39.44242872	-8.5084263	-20.83275288
3.52	352	-0.007	-0.105	-0.012	-89.667927	-28.4187168	8.7662574	38.55434382	-8.78917572	-20.94734448
3.53	353	-0.07	-0.092	-0.075	-91.67328	-24.1788276	8.307891	37.6433406	-9.03554766	-21.03901776
3.54	354	-0.151	-0.063	-0.124	-90.240885	-17.8189938	8.9381448	36.73806696	-9.24181254	-21.07912482
3.55	355	-0.206	-0.076	-0.132	-85.1415588	-14.037471	11.5737516	35.87290038	-9.44234784	-21.06766566
3.56	356	-0.206	-0.089	-0.083	-81.7611066	-13.2353298	15.6990492	35.0363817	-9.64861272	-21.02182902
3.57	357	-0.183	-0.061	-0.058	-80.7297822	-12.3758928	19.1367972	34.2055926	-9.87206634	-20.93588532
3.58	358	-0.16	-0.02	-0.018	-78.3806544	-13.0634424	22.7464326	33.39199224	-10.1127087	-20.82129372
3.59	359	-0.127	-0.009	0.007	-78.5525418	-14.5531332	28.2468294	32.56693272	-10.39345812	-20.66659506
3.6	360	-0.095	-0.002	-0.018	-78.781725	-15.8709366	34.2628884	31.73041404	-10.73150334	-20.46033018
3.61	361	-0.047	0.007	-0.059	-75.630456	-16.5011904	37.528749	30.91681368	-11.06954856	-20.2254174
3.62	362	0.014	0.038	-0.059	-68.468481	-11.6883432	36.2109456	30.17769786	-11.36175714	-19.97331588
3.63	363	0.045	0.097	-0.06	-58.4990118	-4.6982556	30.0229992	29.5359849	-11.56229244	-19.73267352
3.64	364	0.031	0.178	-0.059	-47.3836266	2.291832	22.1161788	29.01459312	-11.65396572	-19.52067906
3.65	365	-0.04	0.233	0.124	-36.8984952	8.59437	15.0114996	28.59633378	-11.67115446	-19.34306208
3.66	366	-0.08	0.208	0.317	-38.2162986	11.2299768	10.599723	28.17234486	-11.6310474	-19.18836342
3.67	367	-0.075	0.189	0.323	-39.7059894	10.8289062	10.4851314	27.74262636	-11.59094034	-19.03939434
3.68	368	-0.01	0.153	0.485	-36.669312	11.8029348	11.8602306	27.33582618	-11.55083328	-18.87323652
3.69	369	0.188	0.091	0.515	-35.9244666	15.5844576	14.896908	26.92329642	-11.4878079	-18.66697164
3.7	370	0.342	-0.054	0.557	-44.3469492	32.2575354	22.345362	26.42482296	-11.29300218	-18.31746726
3.71	371	0.107	-0.496	0.118	-100.0384668	61.3638018	29.4500412	25.29036612	-10.89766116	-17.761698
3.72	372	-0.685	-0.975	-2.652	-256.3414092	145.3021488	28.2468294	22.51151982	-9.75174516	-16.86215394
3.73	373	-3.348	-2.262	-3.996	-365.547204	210.9631356	10.4278356	18.63259416	-7.91254998	-15.95115072
3.74	374	-3.552	-1.916	-3.996	-419.0614812	195.2640864	12.7196676	14.26092462	-6.16502808	-15.2120349
3.75	375	1.046	0.055	-3.996	-313.6372092	124.7902524	26.2414764	11.00652318	-5.0706783	-14.63334732
3.76	376	1.817	1.784	-3.996	-305.5585014	51.279741	32.945085	7.86098376	-4.66387812	-14.19216966
3.77	377	2.748	1.331	-3.996	-203.4573858	46.696077	113.7894588	5.7009321	-4.36021038	-12.98322828
3.78	378	0.591	2.246	-3.996	-78.2660628	30.5386614	91.2722094	4.83003594	-4.15967508	-12.03784758
3.79	379	-0.376	2.048	-3.482	-55.863405	41.8832298	11.45916	4.24561878	-3.76433406	-11.87741934
3.8	380	-1.137	1.756	-2.714	-71.61975	53.2277982	-42.4561878	3.53515086	-3.22002396	-12.23838288
3.81	381	-1.385	1.56	-2.085	-53.0559108	59.9887026	-61.0773228	3.01375908	-2.59549974	-12.79415214
3.82	382	-0.952	1.055	-1.717	-67.5517482	51.3370368	-63.9994086	2.34339822	-2.06837838	-13.38429888
3.83	383	-0.721	0.23	-1.51	-52.0818822	45.263682	-74.2553568	1.8334656	-1.59855282	-14.08903722
3.84	384	-0.504	-0.869	-1.397	-38.9038482	59.587632	-81.3027402	1.44385416	-0.99121734	-14.86253052
3.85	385	-0.039	-1.281	-1.143	-52.139178	50.4775998	-47.1544434	0.92819196	-0.48128472	-15.30370818
3.86	386	0.288	-0.701	-0.843	-32.4867186	36.4974246	-4.6409598	0.59587632	-0.12605076	-15.33235608
3.87	387	0.41	0.201	-0.642	-13.3499214	40.966497	16.6730778	0.45263682	0.26929026	-15.14900952
3.88	388	0.473	0.711	-0.472	-15.9855282	42.6280752	12.7769634	0.286479	0.6875496	-15.00577002
3.89	389	0.43	0.876	-0.385	-35.6379876	43.9458786	1.2032118	-0.07448454	1.1172681	-14.97712212
3.9	390	0.35	0.762	-0.335	-51.7954032	44.5188366	-9.740286	-0.6589017	1.5756345	-15.06306582
3.91	391	0.24	0.479	-0.37	-68.0101146	45.263682	-16.5584862	-1.35791046	2.01108258	-15.21776448
3.92	392	0.132	0.221	-0.435	-76.8336678	44.690724	-18.6784308	-2.1485925	2.44080108	-15.40111104
3.93	393	0.07	-0.053	-0.436	-77.8076964	44.2896534	-15.8709366	-2.95646328	2.86479	-15.56153928
3.94	394	0.097	-0.184	-0.504	-72.7083702	44.0604702	-12.9488508	-3.70703826	3.28304934	-15.69331962
3.95	395	0.202	-0.132	-0.549	-63.311859	44.5188366	-10.8289062	-4.3544808	3.724227	-15.81937038
3.96	396	0.287	0.037	-0.639	-53.9726436	44.0604702	-9.6256944	-4.91597964	4.14248634	-15.93396198
3.97	397	0.287	0.205	-0.71	-46.0085274	39.247623	-9.167328	-5.39726436	4.52063862	-16.042824
3.98	398	0.256	0.328	-0.636	-38.2162986	32.7159018	-8.880849	-5.79833496	4.83003594	-16.15168602
3.99	399	0.242	0.437	-0.675	-38.1590028	26.1268848	-8.307891	-6.19940556	5.07640788	-16.24908888
4	400	0.246	0.551	-0.749	-39.7059894	19.7097552	-6.302538	-6.68069028	5.27694318	-16.33503258
4.01	401	0.243	0.6	-0.788	-40.2216516	13.464513	-2.4637194	-7.09322004	5.40299394	-16.36368048
4.02	402	0.234	0.578	-0.865	-39.9924684	6.875496	0.859437	-7.50002022	5.4717489	-16.3579509
4.03	403	0.233	0.496	-0.94	-36.5547204	3.2658606	3.3804522	-7.86671334	5.50612638	-16.329303
4.04	404	0.238	0.402	-0.916	-32.7731976	0.6302538	4.9847346	-8.1932994	5.51185596	-16.2720072
4.05	405	0.229	0.341	-0.928	-30.3094782	-0.4583664	6.1879464	-8.5370742	5.54050386	-16.2147114
4.06	406	0.213	0.3	-0.957	-24.6944898	-0.1145916	7.3911582	-8.78344614	5.54623344	-16.14022686
4.07	407	0.194	0.277	-0.97	-17.1314442	0.7448454	9.2819196	-8.94960396	5.56915176	-16.04855358
4.08	408	0.171	0.298	-1.016	-9.2246238	1.0886202	11.5737516	-9.02981808	5.59207008	-15.93396198
4.09	409	0.157	0.342	-1.02	1.3178034	1.0886202	13.8082878	-9.00117018	5.62644756	-15.80218164
4.1	410	0.141	0.363	-0.982	11.5737516	0.5156622	14.8396122	-8.92668564	5.66082504	-15.65894214
4.11	411	0.127	0.374	-0.984	16.5584862	-0.4583664	15.183387	-8.74333908	5.68374336	-15.51570264
4.12	412	0.127	0.375	-0.984	21.7151082	-1.8334656	15.183387	-8.5084263	5.68947294	-15.36100398
4.13	413	0.127	0.357	-0.937	25.78311	-3.0939732	15.0114996	-8.23340646	5.67801378	-15.2120349
4.14	414	0.122	0.328	-0.906	27.1009134	-4.6982556	14.7823164	-7.94119788	5.65509546	-15.06306582
4.15	415	0.118	0.294	-0.936	28.4187168	-6.1306506	14.8396122	-7.66617804	5.62071798	-14.91409674
4.16	416	0.132	0.259	-0.918	30.8251404	-6.2452422	15.9855282	-7.3338624	5.5863405	-14.7536685
4.17	417	0.131	0.226	-0.923	31.2835068	-10.599723	17.18874	-7.00154676	5.5003968	-14.57605152
4.18	418	0.134	0.214	-0.98	31.4553942	-15.8709366	17.761698	-6.65777196	5.36861646	-14.38697538
4.19	419	0.122	0.182	-1.01	31.226211	-18.9649098	17.9908812	-6.31972674	5.20818822	-14.19789924
4.2	420	0.115	0.151	-1.051	28.6479	-21.9442914	17.0741484	-6.016059	5.00765292	-14.01455268
4.21	421	0.086	0.104	-1.113	21.3140376	-23.7204612	15.2979786	-5.78114622	4.79565846	-13.84266528
4.22	422	0.13	0.039	-1.226	8.8235532	-21.8869956	13.9801752	-5.67801378	4.58939358	-13.6936962
4.23	423	0.208	0.024	-1.363	4.297185	-26.4706596	13.464513	-5.6149884	4.34302164	-13.53899754
4.24	424	0.21	0.06	-1.219	16.7303736	-27.8457588	12.032118	-5.43164184	4.07946096	-13.40148762
4.25	425	0.101	0.075	-1.107	28.8197874	-26.4706596	8.3651868	-5.13370368	3.82735944	-13.30408476
4.26	426	0.046	0.108	-0.989	35.809875	-17.0741484	4.010706	-4.76128098	3.6669312	-13.25824812
4.27	427	0.071	0.129	-0.954	38.101707	-9.740286	-0.6875496	-4.37166954	3.57525792	-13.2639777
4.28	428	0.102	0.118	-0.96	39.1330314	-10.1986524	-5.6149884	-3.97632852	3.47212548	-13.3212735
4.29	429	0.12	0.062	-0.94	40.7373138	-11.6883432	-9.6829902	-3.56952834	3.35753388	-13.41294678
4.3	430	0.104	-0.001	-0.909	36.7266078	-10.5424272	-11.5737516	-3.19137606	3.25440144	-13.52753838
4.31	431	0.074	-0.039	-0.934	24.2934192	-7.6776372	-9.740286	-2.9507337	3.17418732	-13.62494124
4.32	432	0.062	-0.016	-0.955	10.6570188	-2.1199446	-6.7036086	-2.84187168	3.151269	-13.6936962
4.33	433	0.042	0.019	-0.915	-4.6409598	9.7975818	-3.437748	-2.8934379	3.24867186	-13.72807368
4.34	434	0.032	0.054	-0.882	-13.2353298	22.4599536	-0.6875496	-3.03094782	3.4663959	-13.73953284
4.35	435	-0.04	0.105	-0.857	-16.329303	15.1260912	1.3750992	-3.22575354	3.5809875	-13.72807368
4.36	436	-0.111	0.146	-0.867	-16.4438946	2.8074942	4.4117766	-3.39191136	3.6096354	-13.68223704
4.37	437	-0.117	0.127	-0.846	-14.3812458	-6.4171296	9.167328	-3.52942128	3.5523396	-13.58483418
4.38	438	-0.078	0.084	-0.829	-15.9855282	-14.6677248	14.32395	-3.67839036	3.41482968	-13.4358651
4.39	439	-0.018	0.025	-0.826	-17.3606274	-19.9389384	17.18874	-3.84454818	3.22575354	-13.25824812
4.4	440	0.051	-0.051	-0.852	-20.2827132	-20.05353	14.2666542	-4.01643558	3.0366774	-13.10354946
4.41	441	0.078	-0.16	-0.899	-24.2361234	-16.902261	2.8074942	-4.25707794	2.87051958	-13.06917198
4.42	442	0.075	-0.257	-0.967	-27.3873924	-12.7196676	-9.453807	-4.53782736	2.73300966	-13.15511568
4.43	443	0.063	-0.31	-1.006	-25.8404058	-8.7662574	-17.0168526	-4.80711762	2.62987722	-13.31554392
4.44	444	0.036	-0.306	-1.033	-21.3713334	-6.016059	-18.7357266	-5.03057124	2.5496631	-13.4931609
4.45	445	0.006	-0.272	-1.058	-14.7250206	-4.870143	-16.042824	-5.11651494	2.47517856	-13.64785956
4.46	446	-0.008	-0.216	-1.06	-9.8548776	-4.5263682	-10.4851314	-5.21964738	2.42361234	-13.74526242
4.47	447	-0.008	-0.149	-1.059	-5.9587632	-5.5576926	-4.4117766	-5.28267276	2.36058696	-13.78536948
4.48	448	-0.007	-0.077	-1.057	-2.9793816	-7.3338624	-0.572958	-5.31132066	2.28610242	-13.79109906
4.49	449	0.002	-0.031	-1.043	-1.2605076	-9.3965112	0.4010706	-5.32277982	2.19442914	-13.7796399
4.5	450	0.026	0.004	-1.026	-1.5469866	-10.7143146	-1.0886202	-5.30559108	2.08556712	-13.7796399
4.51	451	0.058	0.031	-1.017	-1.7761698	-11.1153852	-4.1252976	-5.32277982	1.97097552	-13.81401738
4.52	452	0.072	0.048	-1.006	-1.6042824	-10.9434978	-8.0787078	-5.33996856	1.85638392	-13.88850192
4.53	453	0.077	0.069	-1.008	-2.6356068	-11.0580894	-11.745639	-5.36861646	1.73606274	-13.99736394
4.54	454	0.057	0.096	-1.021	-3.3231564	-12.0894138	-13.750992	-5.40872352	1.6042824	-14.1234147
4.55	455	0.033	0.124	-1.029	-3.8388186	-11.2299768	-13.1207382	-5.46601932	1.47823164	-14.24946546
4.56	456	0.023	0.165	-1.045	-3.724227	-12.1467096	-10.026765	-5.5003968	1.3464513	-14.33540916
4.57	457	0.019	0.192	-1.029	-1.718874	-12.9488508	-6.589017	-5.52331512	1.21467096	-14.39270496
4.58	458	0.039	0.205	-1.001	-0.0572958	-10.6570188	-4.9847346	-5.52331512	1.10580894	-14.4385416
4.59	459	0.067	0.215	-0.98	1.9480572	-6.8182002	-5.443101	-5.5003968	1.0313244	-14.48437824
4.6	460	0.078	0.22	-0.967	4.0680018	-2.6929026	-7.1046792	-5.55196302	1.03705398	-14.55886278
4.61	461	0.079	0.223	-0.957	5.5003968	1.2605076	-9.5683986	-5.49466722	1.03705398	-14.65626564
4.62	462	0.073	0.218	-0.954	7.1046792	4.7555514	-11.6883432	-5.42591226	1.07716104	-14.77658682
4.63	463	0.07	0.196	-0.95	8.4224826	7.2765666	-12.4331886	-5.34569814	1.14018642	-14.90263758
4.64	464	0.063	0.168	-0.951	8.1360036	8.021412	-11.8602306	-5.26548402	1.20894138	-15.02868834
4.65	465	0.055	0.146	-0.958	7.2765666	8.880849	-10.8289062	-5.21964738	1.29488508	-15.14327994
4.66	466	0.056	0.134	-0.965	7.2192708	9.1100322	-8.5370742	-5.15089242	1.38082878	-15.23495322
4.67	467	0.048	0.142	-0.969	6.8182002	8.4797784	-5.6149884	-5.08213746	1.4610429	-15.2979786
4.68	468	0.037	0.163	-0.97	6.3598338	6.4171296	-2.005353	-5.01911208	1.52406828	-15.32089692
4.69	469	0.027	0.184	-0.967	5.7868758	2.6929026	1.6042824	-4.96181628	1.55271618	-15.30943776
4.7	470	0.019	0.196	-0.966	4.9847346	-1.8334656	4.583664	-4.99619376	1.52406828	-15.25787154
4.71	471	0.017	0.194	-0.962	3.9534102	-5.443101	6.589017	-4.9560867	1.47823164	-15.18911658
4.72	472	0.023	0.178	-0.959	2.4064236	-7.9068204	7.3338624	-4.9274388	1.4037471	-15.11463204
4.73	473	0.026	0.157	-0.959	1.0886202	-9.2246238	6.2452422	-4.91025006	1.3178034	-15.04587708
4.74	474	0.028	0.122	-0.965	0.3437748	-8.9954406	3.5523396	-4.90452048	1.2318597	-15.00577002
4.75	475	0.021	0.09	-0.98	-0.0572958	-7.6776372	0.9167328	-4.92170922	1.145916	-14.99431086
4.76	476	0.015	0.067	-0.997	-0.0572958	-6.5317212	-1.3178034	-4.92170922	1.08289062	-15.00004044
4.77	477	0.016	0.053	-1.011	0.3437748	-5.6149884	-2.9220858	-4.92170922	1.01986524	-15.02868834
4.78	478	0.019	0.048	-1.017	1.3178034	-4.8128472	-3.8961144	-4.90452048	0.9740286	-15.06306582
4.79	479	0.021	0.042	-1.018	2.578311	-4.3544808	-4.4690724	-4.88160216	0.92246238	-15.10317288
4.8	480	0.026	0.039	-1.016	3.4950438	-3.9534102	-4.4690724	-4.82430636	0.8880849	-15.14900952
4.81	481	0.033	0.038	-1.01	4.0680018	-3.6669312	-4.1252976	-4.7841993	0.84797784	-15.18911658
4.82	482	0.041	0.037	-1.006	3.9534102	-3.5523396	-3.4950438	-4.74409224	0.80787078	-15.22349406
4.83	483	0.046	0.032	-1.007	3.8388186	-3.9534102	-2.9793816	-4.70398518	0.76776372	-15.25214196
4.84	484	0.051	0.024	-1.011	3.6669312	-4.8128472	-2.5210152	-4.6696077	0.72192708	-15.27506028
4.85	485	0.051	0.018	-1.01	3.437748	-5.9014674	-2.0626488	-4.60085274	0.68182002	-15.29224902
4.86	486	0.049	0.02	-1.008	3.3231564	-7.2765666	-1.718874	-4.56647526	0.60733548	-15.30943776
4.87	487	0.042	0.03	-1.004	3.0366774	-8.4224826	-1.2032118	-4.53782736	0.52712136	-15.31516734
4.88	488	0.03	0.046	-0.999	2.9220858	-9.167328	-0.6875496	-4.50344988	0.43544808	-15.32089692
4.89	489	0.019	0.059	-0.994	2.9793816	-9.1100322	-0.1718874	-4.47480198	0.3437748	-15.31516734
4.9	490	0.006	0.072	-0.985	2.8074942	-8.2505952	0.1718874	-4.45761324	0.25210152	-15.30943776
4.91	491	-0.002	0.081	-0.977	1.8907614	-6.9900876	0.5156622	-4.43469492	0.18334656	-15.2979786
4.92	492	-0.008	0.088	-0.971	1.0886202	-5.5576926	0.7448454	-4.42323576	0.13178034	-15.29224902
4.93	493	-0.015	0.092	-0.968	0.4583664	-4.010706	0.9167328	-4.41750618	0.09167328	-15.28078986
4.94	494	-0.021	0.096	-0.968	0	-2.7501984	0.6302538	-4.41750618	0.06302538	-15.2693307
4.95	495	-0.027	0.096	-0.967	-0.1145916	-1.4896908	0.3437748	-4.60658232	-0.13178034	-15.2406828
4.96	496	-0.029	0.096	-0.966	0	-0.4010706	0.1145916	-4.60658232	-0.13178034	-15.2406828
4.97	497	-0.027	0.095	-0.964	0.0572958	0.4583664	0	-4.60658232	-0.13178034	-15.23495322
4.98	498	-0.022	0.093	-0.962	0.1718874	1.2032118	-0.1145916	-4.60658232	-0.1145916	-15.2406828
4.99	499	-0.017	0.09	-0.963	0.2291832	1.432395	-0.286479	-4.60658232	-0.10313244	-15.2406828
5	500	-0.01	0.089	-0.967	0.286479	1.145916	-0.286479	-4.73836266	-0.16615782	-15.23495322
5.01	501	-0.005	0.089	-0.974	0.1145916	0.6875496	-0.286479	-4.73836266	-0.16042824	-15.2406828
5.02	502	0	0.09	-0.981	0.2291832	0.1718874	-0.1718874	-4.73836266	-0.15469866	-15.2406828
5.03	503	0.001	0.09	-0.989	0.286479	-0.3437748	0.0572958	-4.73263308	-0.16042824	-15.2406828
5.04	504	0.003	0.089	-0.998	0.3437748	-0.9740286	0.4010706	-4.7269035	-0.1718874	-15.23495322
5.05	505	0.003	0.085	-1.003	0.3437748	-1.432395	0.8021412	-4.77846972	-0.18907614	-15.22349406
5.06	506	0.001	0.083	-1.006	0.2291832	-1.5469866	1.145916	-4.77274014	-0.2005353	-15.2120349
5.07	507	0	0.081	-1.008	0.1145916	-1.432395	1.432395	-4.77274014	-0.21772404	-15.20057574
5.08	508	0	0.081	-1.01	0.2291832	-1.0313244	1.4896908	-4.77274014	-0.22345362	-15.183387
5.09	509	0.001	0.083	-1.008	0.3437748	-0.286479	1.432395	-4.76701056	-0.2291832	-15.16619826
5.1	510	0.005	0.083	-1.002	0.1718874	0.5156622	1.2605076	-4.83576552	-0.21199446	-15.1547391
5.11	511	0.01	0.082	-0.993	-0.286479	1.0886202	0.9740286	-4.83576552	-0.2005353	-15.14327994
5.12	512	0.012	0.084	-0.985	-0.5156622	1.3178034	0.6302538	-4.8414951	-0.18907614	-15.13755036
5.13	513	0.013	0.085	-0.984	-0.4583664	1.6042824	0.286479	-4.84722468	-0.1718874	-15.13755036
5.14	514	0.016	0.083	-0.984	-0.572958	1.8907614	0.1145916	-4.85295426	-0.15469866	-15.13755036
5.15	515	0.018	0.084	-0.985	-0.859437	2.1199446	0	-4.91025006	-0.09740286	-15.14327994
5.16	516	0.021	0.084	-0.983	-0.6875496	2.4064236	0	-4.92170922	-0.07448454	-15.14327994
5.17	517	0.023	0.082	-0.98	-0.3437748	2.3491278	0.1718874	-4.9274388	-0.05156622	-15.14327994
5.18	518	0.024	0.081	-0.978	-0.1718874	2.291832	0.286479	-4.9274388	-0.0286479	-15.13755036
5.19	519	0.026	0.08	-0.979	-0.0572958	2.3491278	0.5156622	-4.9274388	-0.00572958	-15.13755036
5.2	520	0.026	0.08	-0.981	0	2.1772404	0.7448454	-4.96754586	0.0572958	-15.13755036
5.21	521	0.026	0.077	-0.982	0	1.8907614	0.9167328	-4.96754586	0.07448454	-15.1260912
5.22	522	0.026	0.075	-0.983	0	1.6042824	1.0886202	-4.96754586	0.09167328	-15.11463204
5.23	523	0.026	0.074	-0.984	0	1.2032118	1.0886202	-4.96754586	0.10313244	-15.10317288
5.24	524	0.025	0.072	-0.986	0	0.8021412	1.0313244	-4.96181628	0.1145916	-15.0974433
5.25	525	0.026	0.071	-0.987	0	0.572958	0.9167328	-4.99619376	0.21199446	-15.0974433
5.26	526	0.028	0.071	-0.99	0.0572958	0.2291832	0.7448454	-4.99046418	0.21199446	-15.09171372
5.27	527	0.025	0.073	-0.992	0	0	0.4583664	-4.99046418	0.21199446	-15.08598414
5.28	528	0.025	0.075	-0.994	0.0572958	-0.2291832	0.286479	-4.99046418	0.21199446	-15.08025456
5.29	529	0.025	0.078	-0.996	0.1145916	-0.5156622	0.1145916	-4.99046418	0.20626488	-15.08025456
5.3	530	0.026	0.079	-0.997	0.3437748	-0.6875496	0.1145916	-5.05348956	0.26929026	-15.08598414
5.31	531	0.028	0.082	-0.998	0.572958	-0.9167328	0	-5.0420304	0.2578311	-15.08598414
5.32	532	0.028	0.083	-0.997	0.7448454	-0.859437	-0.0572958	-5.03630082	0.25210152	-15.08598414
5.33	533	0.026	0.083	-0.996	0.9167328	-0.9740286	-0.0572958	-5.02484166	0.24064236	-15.08598414
5.34	534	0.026	0.082	-0.992	0.9740286	-0.9167328	-0.1718874	-5.01911208	0.2291832	-15.08598414
5.35	535	0.024	0.084	-0.989	0.8021412	-0.9740286	-0.3437748	-5.06494872	0.26356068	-15.0974433
5.36	536	0.022	0.086	-0.986	0.8021412	-1.0886202	-0.3437748	-5.05348956	0.25210152	-15.0974433
5.37	537	0.021	0.085	-0.983	0.6302538	-0.9740286	-0.4010706	-5.04775998	0.24064236	-15.10317288
5.38	538	0.02	0.086	-0.984	0.5156622	-1.0313244	-0.3437748	-5.0420304	0.2291832	-15.10317288
5.39	539	0.018	0.085	-0.981	0.5156622	-1.145916	-0.2291832	-5.03630082	0.21772404	-15.10890246
5.4	540	0.017	0.085	-0.981	0.4583664	-1.2032118	-0.1718874	-5.08786704	0.21772404	-15.10890246
5.41	541	0.015	0.084	-0.981	0.286479	-1.2032118	-0.1718874	-5.08213746	0.20626488	-15.10890246
5.42	542	0.013	0.082	-0.981	0.2291832	-1.2032118	-0.1145916	-5.08213746	0.19480572	-15.10890246
5.43	543	0.013	0.083	-0.983	0.1718874	-1.2605076	-0.1145916	-5.07640788	0.18334656	-15.11463204
5.44	544	0.013	0.082	-0.984	0.0572958	-1.2032118	-0.1145916	-5.07640788	0.16615782	-15.11463204
5.45	545	0.012	0.082	-0.985	-0.0572958	-1.0313244	-0.1718874	-5.14516284	0.1718874	-15.11463204
5.46	546	0.012	0.082	-0.986	-0.1145916	-1.0886202	-0.2291832	-5.14516284	0.16042824	-15.11463204
5.47	547	0.011	0.079	-0.988	-0.0572958	-0.9740286	-0.2291832	-5.15089242	0.14896908	-15.12036162
5.48	548	0.013	0.077	-0.99	0	-1.0313244	-0.1718874	-5.14516284	0.13750992	-15.12036162
5.49	549	0.012	0.076	-0.99	0	-1.0886202	-0.2291832	-5.14516284	0.12605076	-15.12036162
5.5	550	0.012	0.076	-0.991	0.1718874	-1.2605076	-0.1718874	-5.16808116	0.12032118	-15.12036162
5.51	551	0.012	0.078	-0.99	0.286479	-1.2605076	-0.1145916	-5.16808116	0.10886202	-15.1260912
5.52	552	0.01	0.079	-0.99	0.4010706	-1.145916	-0.1145916	-5.16235158	0.09740286	-15.1260912
5.53	553	0.008	0.08	-0.989	0.4583664	-1.0886202	-0.0572958	-5.156622	0.0859437	-15.1260912
5.54	554	0.008	0.08	-0.988	0.4583664	-0.9740286	0	-5.15089242	0.07448454	-15.1260912
5.55	555	0.007	0.08	-0.986	0.4010706	-0.6875496	0	-5.20245864	0.0572958	-15.12036162
5.56	556	0.007	0.079	-0.986	0.286479	-0.5156622	0.0572958	-5.19672906	0.05156622	-15.12036162
5.57	557	0.006	0.079	-0.985	0.286479	-0.2291832	0.0572958	-5.19672906	0.04583664	-15.12036162
5.58	558	0.007	0.078	-0.985	0.1718874	-0.2291832	0	-5.19099948	0.04583664	-15.12036162
5.59	559	0.008	0.079	-0.983	0.1145916	-0.1718874	0.0572958	-5.19099948	0.04583664	-15.12036162
5.6	560	0.008	0.08	-0.983	0.1145916	0	0.1145916	-5.31705024	0.0572958	-15.12036162
5.61	561	0.009	0.081	-0.985	0.2291832	0.0572958	0.1718874	-5.31705024	0.0572958	-15.11463204
5.62	562	0.009	0.082	-0.986	0.286479	0.1718874	0.1718874	-5.31132066	0.06302538	-15.11463204
5.63	563	0.009	0.08	-0.989	0.4010706	0.1718874	0.2291832	-5.31132066	0.06302538	-15.10890246
5.64	564	0.01	0.079	-0.988	0.4010706	0.286479	0.2291832	-5.30559108	0.06875496	-15.10890246
5.65	565	0.011	0.077	-0.988	0.2291832	0.286479	0.286479	-5.32277982	0.0859437	-15.10890246
5.66	566	0.011	0.077	-0.987	0.0572958	0.286479	0.2291832	-5.32277982	0.09167328	-15.10317288
5.67	567	0.01	0.076	-0.986	0.0572958	0.2291832	0.1145916	-5.32277982	0.09167328	-15.10317288
5.68	568	0.013	0.077	-0.989	0.1145916	0.286479	0.2291832	-5.31705024	0.09740286	-15.10317288
5.69	569	0.014	0.077	-0.987	-0.0572958	0.4583664	0.3437748	-5.31705024	0.09740286	-15.0974433
5.7	570	0.016	0.075	-0.981	-0.6875496	0.4010706	0.286479	-5.33996856	0.12032118	-15.0974433
5.71	571	0.017	0.075	-0.98	-0.9167328	0.0572958	0.3437748	-5.35142772	0.12605076	-15.09171372
5.72	572	0.016	0.077	-0.981	-0.6875496	-0.1145916	0.286479	-5.3571573	0.12032118	-15.09171372
5.73	573	0.016	0.078	-0.985	-0.6875496	-0.0572958	0.286479	-5.36861646	0.12032118	-15.08598414
5.74	574	0.017	0.082	-0.989	-0.6875496	0	0.286479	-5.37434604	0.12032118	-15.08598414
5.75	575	0.019	0.084	-0.992	-0.5156622	0.0572958	0.2291832	-5.443101	0.1718874	-15.08598414
5.76	576	0.018	0.084	-0.99	-0.1145916	0.1145916	0.1718874	-5.44883058	0.17761698	-15.08598414
5.77	577	0.018	0.084	-0.988	0	0	0	-5.44883058	0.17761698	-15.08598414
5.78	578	0.018	0.084	-0.989	0.1145916	0	0.0572958	-5.443101	0.17761698	-15.08025456
5.79	579	0.018	0.085	-0.99	0.286479	-0.1145916	0	-5.443101	0.1718874	-15.08025456
5.8	580	0.017	0.085	-0.99	0.286479	-0.1145916	0	-5.5576926	0.21772404	-15.08598414
5.81	581	0.017	0.086	-0.992	0.286479	-0.1145916	0	-5.5576926	0.21772404	-15.08598414
5.82	582	0.015	0.085	-0.991	0.1718874	-0.0572958	0	-5.55196302	0.21772404	-15.08598414
5.83	583	0.015	0.085	-0.989	0.286479	0	0	-5.55196302	0.21772404	-15.08598414
5.84	584	0.017	0.083	-0.989	0.286479	0	0	-5.54623344	0.21772404	-15.08598414
5.85	585	0.017	0.082	-0.988	0.2291832	-0.1145916	-0.0572958	-5.60925882	0.26929026	-15.09171372
5.86	586	0.017	0.08	-0.987	0.1145916	-0.1145916	0	-5.60925882	0.26356068	-15.09171372
5.87	587	0.017	0.08	-0.988	0.0572958	-0.2291832	-0.0572958	-5.60925882	0.26356068	-15.09171372
5.88	588	0.017	0.08	-0.988	0	-0.3437748	0	-5.60925882	0.2578311	-15.09171372
5.89	589	0.017	0.08	-0.989	0	-0.3437748	0.0572958	-5.60925882	0.2578311	-15.09171372
5.9	590	0.017	0.079	-0.99	0.0572958	-0.4010706	0.1145916	-5.6149884	0.286479	-15.09171372
5.91	591	0.018	0.079	-0.99	0.1718874	-0.3437748	0.0572958	-5.60925882	0.28074942	-15.09171372
5.92	592	0.016	0.078	-0.991	0.4583664	-0.4010706	0.1145916	-5.60352924	0.28074942	-15.09171372
5.93	593	0.015	0.077	-0.991	0.572958	-0.286479	0.0572958	-5.59779966	0.27501984	-15.08598414
5.94	594	0.013	0.077	-0.988	0.4583664	-0.3437748	0	-5.59779966	0.26929026	-15.08598414
5.95	595	0.013	0.078	-0.986	0.4583664	-0.4583664	0	-5.59779966	0.26929026	-15.08598414
5.96	596	0.013	0.079	-0.984	0.4010706	-0.4010706	0	-5.59207008	0.26356068	-15.08598414
5.97	597	0.013	0.079	-0.984	0.4010706	-0.3437748	0	-5.5863405	0.2578311	-15.08598414
5.98	598	0.013	0.079	-0.985	0.2291832	-0.3437748	0	-5.5863405	0.2578311	-15.08598414
5.99	599	0.012	0.079	-0.985	0.0572958	-0.286479	-0.0572958	-5.5863405	0.25210152	-15.09171372
6	600	0.012	0.079	-0.985	0.1145916	-0.2291832	-0.1145916	-5.59779966	0.24064236	-15.09171372
6.01	601	0.011	0.08	-0.985	0.2291832	-0.1718874	-0.1718874	-5.59779966	0.23491278	-15.09171372
6.02	602	0.012	0.081	-0.987	0.3437748	-0.1145916	-0.1718874	-5.59207008	0.23491278	-15.09171372
6.03	603	0.013	0.081	-0.987	0.4010706	-0.1145916	-0.1145916	-5.5863405	0.23491278	-15.09171372
6.04	604	0.013	0.081	-0.988	0.286479	0	-0.0572958	-5.5863405	0.23491278	-15.0974433
6.05	605	0.013	0.08	-0.989	0.3437748	0	0	-5.6149884	0.24637194	-15.0974433
6.06	606	0.012	0.079	-0.989	0.3437748	0	0	-5.60925882	0.24637194	-15.0974433
6.07	607	0.013	0.08	-0.988	0.286479	0	0	-5.60925882	0.24637194	-15.0974433
6.08	608	0.013	0.08	-0.988	0.286479	0.0572958	0	-5.60352924	0.24637194	-15.0974433
6.09	609	0.013	0.081	-0.987	0.3437748	0	0	-5.60352924	0.24637194	-15.0974433
6.1	610	0.014	0.08	-0.988	0.286479	0.0572958	0	-5.6149884	0.26356068	-15.0974433
6.11	611	0.012	0.082	-0.987	0.3437748	0	0	-5.6149884	0.2578311	-15.0974433
6.12	612	0.012	0.082	-0.987	0.2291832	0	0	-5.60925882	0.26356068	-15.0974433
6.13	613	0.013	0.082	-0.986	0.2291832	0	0	-5.60925882	0.26356068	-15.0974433
6.14	614	0.014	0.081	-0.985	0	0.2291832	0.1145916	-5.60925882	0.26356068	-15.0974433
6.15	615	0.013	0.08	-0.986	0	0.3437748	0.1718874	-5.62071798	0.26356068	-15.0974433
6.16	616	0.013	0.079	-0.987	-0.286479	0.9167328	0.2291832	-5.62071798	0.26929026	-15.09171372
6.17	617	0.012	0.078	-0.989	-0.5156622	1.6615782	0.1718874	-5.62644756	0.286479	-15.09171372
6.18	618	0.011	0.077	-0.989	-0.8021412	2.578311	0.1145916	-5.63790672	0.3151269	-15.09171372
6.19	619	0.013	0.076	-0.989	-0.9740286	3.0939732	0.0572958	-5.64936588	0.3437748	-15.09171372
6.2	620	0.015	0.078	-0.986	-0.8021412	3.2658606	0.1145916	-5.65509546	0.37815228	-15.0974433
6.21	621	0.018	0.078	-0.985	-0.6875496	2.9793816	0.0572958	-5.66082504	0.40680018	-15.0974433
6.22	622	0.018	0.078	-0.986	-0.6302538	2.6929026	0	-5.6722842	0.43544808	-15.0974433
6.23	623	0.019	0.079	-0.987	-0.4583664	2.4064236	0	-5.67801378	0.4583664	-15.0974433
6.24	624	0.018	0.08	-0.986	-0.4583664	2.005353	0	-5.67801378	0.48128472	-15.10317288
6.25	625	0.016	0.082	-0.984	-0.4010706	1.6615782	0	-5.69520252	0.49274388	-15.10317288
6.26	626	0.015	0.083	-0.986	-0.4010706	1.3178034	0	-5.7009321	0.50993262	-15.10317288
6.27	627	0.015	0.083	-0.987	-0.5156622	1.3178034	0	-5.70666168	0.52139178	-15.10317288
6.28	628	0.017	0.082	-0.988	-0.4010706	1.0886202	0	-5.71239126	0.53285094	-15.10317288
6.29	629	0.018	0.083	-0.991	-0.2291832	0.9167328	0	-5.71239126	0.53858052	-15.10317288
6.3	630	0.021	0.081	-0.991	-0.1145916	0.859437	0.0572958	-5.72385042	0.56722842	-15.10317288
6.31	631	0.023	0.079	-0.987	-0.286479	0.572958	0.1718874	-5.72385042	0.572958	-15.10317288
6.32	632	0.024	0.074	-0.982	-0.859437	0.2291832	0.1718874	-5.73530958	0.572958	-15.10317288
6.33	633	0.023	0.074	-0.98	-1.0886202	-0.3437748	0.1718874	-5.74676874	0.56722842	-15.0974433
6.34	634	0.019	0.075	-0.982	-0.9167328	-0.6875496	0.1145916	-5.7582279	0.56149884	-15.0974433
6.35	635	0.02	0.077	-0.985	-1.0313244	-0.6302538	0.1145916	-5.76395748	0.55576926	-15.0974433
6.36	636	0.021	0.081	-0.988	-0.9167328	-0.572958	0.0572958	-5.76968706	0.55003968	-15.09171372
6.37	637	0.021	0.082	-0.988	-0.6302538	-0.4583664	0	-5.77541664	0.5443101	-15.09171372
6.38	638	0.021	0.079	-0.988	-0.286479	-0.572958	0	-5.78114622	0.53858052	-15.09171372
6.39	639	0.021	0.08	-0.987	-0.1718874	-0.6302538	0	-5.78114622	0.53285094	-15.09171372
6.4	640	0.021	0.08	-0.986	-0.1145916	-0.6875496	-0.0572958	-5.78114622	0.53858052	-15.09171372
6.41	641	0.021	0.083	-0.987	0	-0.9167328	0	-5.78114622	0.53285094	-15.09171372
6.42	642	0.019	0.086	-0.988	0	-0.8021412	0	-5.78114622	0.52139178	-15.09171372
6.43	643	0.018	0.088	-0.988	-0.1718874	-0.6875496	0	-5.78114622	0.5156622	-15.09171372
6.44	644	0.017	0.087	-0.988	-0.2291832	-0.6302538	0	-5.7868758	0.50993262	-15.09171372
6.45	645	0.018	0.088	-0.986	-0.286479	-0.5156622	-0.1145916	-5.8155237	0.50993262	-15.09171372
6.46	646	0.017	0.086	-0.987	-0.3437748	-0.4583664	-0.1718874	-5.82125328	0.50420304	-15.0974433
6.47	647	0.016	0.084	-0.986	-0.3437748	-0.4010706	-0.1718874	-5.82125328	0.49847346	-15.0974433
6.48	648	0.016	0.086	-0.987	-0.286479	-0.4583664	-0.1718874	-5.82698286	0.49847346	-15.0974433
6.49	649	0.016	0.084	-0.988	-0.3437748	-0.4583664	-0.1145916	-5.83271244	0.49274388	-15.0974433
6.5	650	0.015	0.082	-0.989	-0.286479	-0.4583664	-0.0572958	-5.83844202	0.48128472	-15.0974433
6.51	651	0.017	0.079	-0.992	-0.2291832	-0.5156622	0	-5.83844202	0.47555514	-15.0974433
6.52	652	0.017	0.077	-0.991	-0.4010706	-0.5156622	0.0572958	-5.8441716	0.46982556	-15.0974433
6.53	653	0.021	0.077	-0.993	-0.5156622	-0.7448454	0.1145916	-5.84990118	0.46409598	-15.0974433
6.54	654	0.021	0.076	-0.996	-0.5156622	-1.0313244	0.1145916	-5.85563076	0.45263682	-15.09171372
6.55	655	0.019	0.076	-0.997	-0.3437748	-1.2032118	0.1718874	-5.84990118	0.44690724	-15.09171372
6.56	656	0.016	0.077	-0.996	-0.286479	-1.4896908	0.1718874	-5.85563076	0.4297185	-15.08598414
6.57	657	0.013	0.077	-0.993	-0.1718874	-1.3178034	0.286479	-5.85563076	0.41825934	-15.08598414
6.58	658	0.012	0.08	-0.989	-0.1145916	-1.2032118	0.2291832	-5.85563076	0.40680018	-15.08025456
6.59	659	0.012	0.081	-0.988	-0.1145916	-1.0886202	0.1718874	-5.85563076	0.39534102	-15.08025456
6.6	660	0.012	0.082	-0.988	-0.1718874	-1.0886202	0.0572958	-5.86708992	0.37815228	-15.07452498
6.61	661	0.012	0.085	-0.989	-0.0572958	-0.9167328	0	-5.86708992	0.36669312	-15.07452498
6.62	662	0.012	0.086	-0.989	0.2291832	-0.7448454	0	-5.86136034	0.36096354	-15.07452498
6.63	663	0.013	0.086	-0.989	0.4583664	-0.572958	-0.0572958	-5.85563076	0.35523396	-15.07452498
6.64	664	0.014	0.085	-0.988	0.572958	-0.3437748	0	-5.84990118	0.34950438	-15.07452498
6.65	665	0.016	0.085	-0.987	0.9167328	-0.3437748	0.0572958	-5.84990118	0.34950438	-15.07452498
6.66	666	0.017	0.084	-0.986	1.0886202	-0.3437748	0.0572958	-5.83844202	0.34950438	-15.07452498
6.67	667	0.017	0.084	-0.987	1.0886202	-0.4010706	0.1145916	-5.82698286	0.3437748	-15.0687954
6.68	668	0.015	0.082	-0.988	1.0313244	-0.286479	0.1718874	-5.8155237	0.33804522	-15.0687954
6.69	669	0.014	0.082	-0.988	1.0313244	-0.1145916	0.1718874	-5.80406454	0.33804522	-15.0687954
6.7	670	0.013	0.081	-0.988	1.0886202	-0.1718874	0.1145916	-5.79260538	0.33804522	-15.06306582
6.71	671	0.014	0.082	-0.989	1.2032118	0	0.2291832	-5.78114622	0.33804522	-15.06306582
6.72	672	0.014	0.08	-0.99	1.2032118	0	0.0572958	-5.76968706	0.33804522	-15.06306582
6.73	673	0.014	0.082	-0.989	1.0886202	0	0.1145916	-5.7582279	0.33804522	-15.06306582
6.74	674	0.01	0.079	-0.992	1.2605076	0	0.2291832	-5.74103916	0.33804522	-15.05733624
6.75	675	0.009	0.078	-0.99	1.6042824	0.0572958	0.1718874	-5.72385042	0.33231564	-15.05733624
6.76	676	0.011	0.077	-0.99	1.3750992	0.2291832	0.1718874	-5.71239126	0.33231564	-15.05160666
6.77	677	0.011	0.078	-0.989	1.2032118	0.572958	0.2291832	-5.7009321	0.33804522	-15.05160666
6.78	678	0.013	0.077	-0.986	0.9740286	0.6875496	0.2291832	-5.68947294	0.34950438	-15.05160666
6.79	679	0.014	0.077	-0.988	0.8021412	0.7448454	0.2291832	-5.68374336	0.35523396	-15.04587708
6.8	680	0.013	0.078	-0.986	0.6302538	0.6302538	0.2291832	-5.6722842	0.36096354	-15.04587708
6.81	681	0.014	0.077	-0.986	0.6875496	0.572958	0.1718874	-5.66655462	0.36669312	-15.04587708
6.82	682	0.014	0.078	-0.987	0.8021412	0.4010706	0.0572958	-5.66082504	0.3724227	-15.04587708
6.83	683	0.015	0.078	-0.986	0.8021412	0.4583664	0.0572958	-5.64936588	0.3724227	-15.04587708
6.84	684	0.016	0.076	-0.986	0.859437	0.4583664	0.0572958	-5.6436363	0.37815228	-15.04587708
6.85	685	0.015	0.075	-0.988	0.9167328	0.4010706	0	-5.62644756	0.38388186	-15.04587708
6.86	686	0.015	0.075	-0.988	0.9740286	0.4583664	0.0572958	-5.6149884	0.38961144	-15.0401475
6.87	687	0.014	0.075	-0.989	1.0313244	0.5156622	0.0572958	-5.60925882	0.39534102	-15.0401475
6.88	688	0.013	0.076	-0.989	1.0886202	0.4583664	0	-5.59779966	0.4010706	-15.0401475
6.89	689	0.012	0.074	-0.988	0.9740286	0.6875496	0.1145916	-5.5863405	0.40680018	-15.0401475
6.9	690	0.013	0.073	-0.988	0.7448454	0.572958	0.1145916	-5.56915176	0.40680018	-15.0401475
6.91	691	0.014	0.074	-0.986	0.6875496	0.572958	0.1145916	-5.56342218	0.41252976	-15.0401475
6.92	692	0.014	0.076	-0.988	0.9740286	0.4010706	0.1145916	-5.55196302	0.41825934	-15.0401475
6.93	693	0.016	0.076	-0.99	1.145916	0.4583664	0.1718874	-5.54050386	0.42398892	-15.03441792
6.94	694	0.018	0.074	-0.987	1.2032118	0.6875496	0.286479	-5.5290447	0.4297185	-15.03441792
6.95	695	0.019	0.069	-0.982	0.9167328	0.6875496	0.286479	-5.50612638	0.44690724	-15.03441792
6.96	696	0.018	0.065	-0.978	0.572958	0.3437748	0.286479	-5.5003968	0.45263682	-15.02868834
6.97	697	0.019	0.064	-0.978	0.572958	0	0.1718874	-5.49466722	0.45263682	-15.02868834
6.98	698	0.019	0.065	-0.983	0.5156622	0	0.2291832	-5.48893764	0.45263682	-15.02295876
6.99	699	0.02	0.071	-0.989	0.4010706	0	0.286479	-5.48320806	0.45263682	-15.02295876
7	700	0.02	0.076	-0.992	0.6302538	0	0.2291832	-5.48320806	0.46409598	-15.02295876
7.01	701	0.019	0.077	-0.991	0.859437	0	0.1718874	-5.47747848	0.46409598	-15.01722918
7.02	702	0.018	0.079	-0.992	1.2032118	-0.2291832	0.1718874	-5.46028974	0.46409598	-15.01722918
7.03	703	0.016	0.079	-0.991	1.0886202	-0.1145916	0.0572958	-5.44883058	0.46409598	-15.01722918
7.04	704	0.015	0.08	-0.991	0.4583664	-0.286479	-0.0572958	-5.44883058	0.4583664	-15.01722918
7.05	705	0.015	0.08	-0.991	0.5156622	-0.2291832	-0.1145916	-5.46028974	0.4583664	-15.01722918
7.06	706	0.015	0.08	-0.991	0.5156622	-0.1718874	-0.1718874	-5.45456016	0.45263682	-15.02295876
7.07	707	0.015	0.078	-0.99	0.4583664	-0.1718874	-0.2291832	-5.44883058	0.45263682	-15.02295876
7.08	708	0.016	0.076	-0.988	0.4010706	-0.2291832	-0.286479	-5.443101	0.44690724	-15.02295876
7.09	709	0.016	0.075	-0.988	0.286479	-0.1718874	-0.286479	-5.43737142	0.44690724	-15.02868834
7.1	710	0.015	0.072	-0.988	0.2291832	-0.1145916	-0.1718874	-5.43164184	0.44117766	-15.02868834
7.11	711	0.016	0.071	-0.987	0.0572958	-0.1145916	-0.2291832	-5.42591226	0.44117766	-15.03441792
7.12	712	0.016	0.069	-0.987	-0.0572958	-0.1145916	-0.1718874	-5.43164184	0.44117766	-15.03441792
7.13	713	0.016	0.068	-0.987	-0.0572958	-0.1718874	-0.1145916	-5.43164184	0.43544808	-15.03441792
7.14	714	0.017	0.069	-0.987	-0.0572958	-0.2291832	0	-5.43164184	0.43544808	-15.03441792
7.15	715	0.016	0.069	-0.988	-0.0572958	-0.3437748	0	-5.40872352	0.4297185	-15.03441792
7.16	716	0.016	0.069	-0.989	-0.0572958	-0.4010706	0.0572958	-5.40872352	0.4297185	-15.03441792
7.17	717	0.015	0.068	-0.99	0	-0.3437748	0.1145916	-5.40872352	0.42398892	-15.03441792
7.18	718	0.015	0.065	-0.99	0.1145916	-0.1718874	0.1145916	-5.40872352	0.42398892	-15.02868834
7.19	719	0.013	0.066	-0.988	0.0572958	-0.1718874	0.1145916	-5.40872352	0.41825934	-15.02868834
7.2	720	0.011	0.066	-0.986	0	-0.1718874	0.0572958	-5.34569814	0.38388186	-15.02868834
7.21	721	0.011	0.063	-0.984	0	-0.1718874	0.0572958	-5.34569814	0.37815228	-15.02295876
7.22	722	0.013	0.064	-0.983	-0.1718874	-0.0572958	0	-5.35142772	0.37815228	-15.02295876
7.23	723	0.014	0.065	-0.984	-0.4010706	0.0572958	0.0572958	-5.35142772	0.37815228	-15.02295876
7.24	724	0.016	0.065	-0.986	-0.5156622	0.2291832	0.0572958	-5.3571573	0.38388186	-15.02295876
7.25	725	0.017	0.066	-0.989	-0.3437748	0.2291832	0.0572958	-5.33996856	0.39534102	-15.02295876
7.26	726	0.018	0.066	-0.991	-0.1718874	0.2291832	0.1145916	-5.33996856	0.4010706	-15.02295876
7.27	727	0.018	0.065	-0.991	-0.0572958	0.1145916	0.1718874	-5.34569814	0.4010706	-15.02295876
