TimeStamp(s)	FrameCounter	AccX	AccY	AccZ	GyrX	GyrY	GyrZ	EulerX	EulerY	EulerZ
0.01	1	-0.005	-1.01	-0.01	0.8021412	-0.4583664	0.2291832	87.10680474	-1.2032118	13.09781988
0.02	2	-0.013	-1.007	-0.01	1.432395	-0.3437748	-0.0572958	87.12399348	-1.2032118	13.09781988
0.03	3	-0.013	-1.006	-0.01	1.3750992	-0.286479	-0.0572958	87.13545264	-1.2032118	13.0920903
0.04	4	-0.015	-1.007	-0.011	1.6042824	-0.286479	0	87.15264138	-1.2032118	13.08636072
0.05	5	-0.016	-1.006	-0.011	1.6042824	-0.3437748	0.1145916	87.22139634	-1.15737516	13.06917198
0.06	6	-0.016	-1.007	-0.011	1.6042824	-0.4583664	0.2291832	87.23858508	-1.16310474	13.0634424
0.07	7	-0.018	-1.006	-0.01	1.6042824	-0.5156622	0.2291832	87.25577382	-1.16310474	13.05771282
0.08	8	-0.018	-1.007	-0.013	1.5469866	-0.4583664	0.2291832	87.27296256	-1.16883432	13.05771282
0.09	9	-0.017	-1.008	-0.013	1.6042824	-0.6302538	0.286479	87.2901513	-1.16883432	13.05198324
0.1	10	-0.017	-1.008	-0.011	1.4896908	-0.7448454	0.2291832	87.3474471	-1.14018642	13.02906492
0.11	11	-0.016	-1.007	-0.011	1.3750992	-0.8021412	0.2291832	87.36463584	-1.14018642	13.02333534
0.12	12	-0.015	-1.008	-0.012	1.432395	-0.9167328	0.2291832	87.376095	-1.145916	13.01187618
0.13	13	-0.014	-1.007	-0.011	1.432395	-1.0313244	0.286479	87.39328374	-1.145916	13.00041702
0.14	14	-0.014	-1.007	-0.01	1.3750992	-1.145916	0.286479	87.41047248	-1.15164558	12.98895786
0.15	15	-0.013	-1.007	-0.008	1.3178034	-1.2605076	0.2291832	87.4620387	-1.1172681	12.96603954
0.16	16	-0.014	-1.009	-0.008	1.2605076	-1.4896908	0.3437748	87.47349786	-1.1172681	12.95458038
0.17	17	-0.014	-1.009	-0.008	1.0886202	-1.5469866	0.3437748	87.48495702	-1.12299768	12.93739164
0.18	18	-0.014	-1.008	-0.006	0.9167328	-1.6042824	0.2291832	87.49641618	-1.12299768	12.9202029
0.19	19	-0.016	-1.009	-0.004	0.859437	-1.6042824	0.2291832	87.50787534	-1.12872726	12.90301416
0.2	20	-0.016	-1.01	-0.004	0.7448454	-1.4896908	0.1718874	87.56517114	-1.10007936	12.88009584
0.21	21	-0.016	-1.011	-0.003	0.572958	-1.432395	0.1718874	87.57090072	-1.10007936	12.8629071
0.22	22	-0.016	-1.01	-0.001	0.3437748	-1.3178034	0.1718874	87.5766303	-1.10580894	12.85144794
0.23	23	-0.017	-1.01	-0.002	0	-1.3178034	0.1718874	87.5766303	-1.10580894	12.83998878
0.24	24	-0.016	-1.01	-0.003	-0.0572958	-1.2032118	0.1145916	87.5766303	-1.10580894	12.82852962
0.25	25	-0.016	-1.009	-0.001	-0.2291832	-1.2605076	0.1145916	87.64538526	-1.0599723	12.79415214
0.26	26	-0.016	-1.01	-0.002	-0.3437748	-1.2605076	0.1145916	87.63965568	-1.0599723	12.78269298
0.27	27	-0.017	-1.009	-0.004	-0.572958	-1.3178034	0.0572958	87.6339261	-1.06570188	12.77123382
0.28	28	-0.017	-1.008	-0.004	-0.572958	-1.2605076	0.0572958	87.62819652	-1.06570188	12.75977466
0.29	29	-0.017	-1.009	-0.004	-0.6302538	-1.0886202	0.1145916	87.62246694	-1.06570188	12.7483155
0.3	30	-0.016	-1.008	-0.004	-0.7448454	-1.0313244	0.2291832	87.662574	-1.03705398	12.72539718
0.31	31	-0.016	-1.008	-0.005	-0.8021412	-0.9740286	0.286479	87.65684442	-1.04278356	12.71393802
0.32	32	-0.017	-1.007	-0.01	-0.8021412	-0.9740286	0.3437748	87.64538526	-1.04278356	12.70247886
0.33	33	-0.016	-1.006	-0.009	-0.6875496	-0.7448454	0.3437748	87.63965568	-1.04851314	12.69674928
0.34	34	-0.015	-1.005	-0.008	-0.6302538	-0.7448454	0.4583664	87.6339261	-1.05424272	12.6910197
0.35	35	-0.016	-1.006	-0.008	-0.6302538	-0.6875496	0.3437748	87.66830358	-1.0313244	12.67383096
0.36	36	-0.017	-1.006	-0.008	-0.5156622	-0.6302538	0.286479	87.662574	-1.03705398	12.66810138
0.37	37	-0.02	-1.007	-0.007	-0.4583664	-0.5156622	0.2291832	87.65684442	-1.03705398	12.6623718
0.38	38	-0.02	-1.007	-0.005	-0.5156622	-0.6302538	0.2291832	87.65111484	-1.04278356	12.65664222
0.39	39	-0.017	-1.008	-0.004	-0.6302538	-0.8021412	0.1718874	87.64538526	-1.04278356	12.64518306
0.4	40	-0.016	-1.012	-0.003	-0.859437	-0.859437	0.2291832	87.68549232	-1.01413566	12.62799432
0.41	41	-0.016	-1.012	-0.004	-1.0313244	-0.7448454	0.2291832	87.67403316	-1.01986524	12.62226474
0.42	42	-0.016	-1.011	-0.004	-1.145916	-0.6875496	0.286479	87.662574	-1.01986524	12.61080558
0.43	43	-0.014	-1.012	-0.005	-1.2605076	-0.6302538	0.2291832	87.65111484	-1.02559482	12.605076
0.44	44	-0.015	-1.01	-0.005	-1.3178034	-0.9740286	0.1718874	87.6339261	-1.02559482	12.59361684
0.45	45	-0.013	-1.008	-0.005	-1.3178034	-1.0886202	0.1718874	87.65684442	-1.0026765	12.5764281
0.46	46	-0.011	-1.006	-0.005	-1.3750992	-1.145916	0.2291832	87.63965568	-1.0026765	12.56496894
0.47	47	-0.014	-1.006	-0.007	-1.5469866	-0.9740286	0.3437748	87.62819652	-1.00840608	12.55350978
0.48	48	-0.016	-1.006	-0.009	-1.4896908	-0.859437	0.4583664	87.61100778	-1.01413566	12.5477802
0.49	49	-0.018	-1.007	-0.01	-1.6042824	-0.7448454	0.4010706	87.59381904	-1.01413566	12.53632104
0.5	50	-0.019	-1.007	-0.01	-1.4896908	-0.6302538	0.286479	87.59954862	-1.00840608	12.52486188
0.51	51	-0.018	-1.009	-0.012	-1.6042824	-0.5156622	0.1718874	87.58235988	-1.01413566	12.52486188
0.52	52	-0.016	-1.007	-0.012	-1.3750992	-0.6302538	0	87.56517114	-1.01413566	12.51340272
0.53	53	-0.015	-1.006	-0.013	-1.3178034	-0.859437	0	87.55371198	-1.01413566	12.50767314
0.54	54	-0.015	-1.005	-0.014	-1.2605076	-0.859437	-0.0572958	87.54225282	-1.01413566	12.49621398
0.55	55	-0.015	-1.006	-0.014	-1.0886202	-0.7448454	-0.1718874	87.54225282	-0.99121734	12.48475482
0.56	56	-0.014	-1.007	-0.013	-1.0886202	-0.572958	-0.1718874	87.53079366	-0.98548776	12.47902524
0.57	57	-0.015	-1.008	-0.012	-0.9167328	-0.572958	-0.1718874	87.5193345	-0.98548776	12.47329566
0.58	58	-0.017	-1.009	-0.011	-0.9167328	-0.5156622	-0.1718874	87.51360492	-0.98548776	12.46756608
0.59	59	-0.018	-1.008	-0.013	-0.859437	-0.286479	-0.1145916	87.50214576	-0.97975818	12.4618365
0.6	60	-0.018	-1.007	-0.013	-0.859437	-0.286479	-0.1145916	87.5193345	-0.95683986	12.45610692
0.61	61	-0.017	-1.005	-0.012	-0.9167328	-0.4010706	-0.1145916	87.51360492	-0.95683986	12.45037734
0.62	62	-0.019	-1.006	-0.011	-1.0313244	-0.1718874	-0.1718874	87.50214576	-0.95683986	12.44464776
0.63	63	-0.019	-1.007	-0.011	-1.0313244	-0.0572958	-0.1718874	87.4906866	-0.95683986	12.44464776
0.64	64	-0.019	-1.007	-0.013	-1.2032118	0.1718874	-0.1718874	87.47922744	-0.95111028	12.44464776
0.65	65	-0.019	-1.008	-0.011	-0.8021412	0.3437748	-0.1145916	87.5193345	-0.93392154	12.44464776
0.66	66	-0.018	-1.009	-0.011	0	0.9740286	-0.2291832	87.5193345	-0.93392154	12.45037734
0.67	67	-0.016	-1.008	-0.011	0.1718874	0.6875496	-0.286479	87.5193345	-0.92819196	12.4618365
0.68	68	-0.014	-1.008	-0.01	0.1145916	0.572958	-0.286479	87.5193345	-0.92819196	12.46756608
0.69	69	-0.014	-1.008	-0.009	0.0572958	0.4583664	-0.286479	87.5193345	-0.92246238	12.46756608
0.7	70	-0.014	-1.009	-0.009	0	0.3437748	-0.286479	87.59381904	-0.87662574	12.4618365
0.71	71	-0.016	-1.007	-0.01	0	0.3437748	-0.3437748	87.59381904	-0.87662574	12.4618365
0.72	72	-0.019	-1.009	-0.011	0	0.3437748	-0.3437748	87.59381904	-0.87089616	12.46756608
0.73	73	-0.02	-1.007	-0.013	-0.0572958	0.286479	-0.286479	87.59381904	-0.86516658	12.46756608
0.74	74	-0.021	-1.007	-0.013	0	0.286479	-0.1718874	87.59381904	-0.86516658	12.47329566
0.75	75	-0.019	-1.008	-0.014	0.0572958	0.2291832	-0.1718874	87.6339261	-0.859437	12.46756608
0.76	76	-0.02	-1.007	-0.014	0.2291832	0.0572958	0	87.63965568	-0.859437	12.46756608
0.77	77	-0.018	-1.006	-0.015	0.2291832	0.0572958	0	87.63965568	-0.859437	12.47329566
0.78	78	-0.018	-1.006	-0.015	0.2291832	0.1718874	0	87.64538526	-0.859437	12.47329566
0.79	79	-0.019	-1.007	-0.016	0.2291832	0.2291832	0.0572958	87.64538526	-0.859437	12.47329566
0.8	80	-0.02	-1.006	-0.016	0.286479	0.2291832	0.1145916	87.65684442	-0.86516658	12.47902524
0.81	81	-0.02	-1.005	-0.016	0.3437748	0.2291832	0.1145916	87.662574	-0.86516658	12.47902524
0.82	82	-0.019	-1.006	-0.017	0.4583664	0.286479	0.1718874	87.662574	-0.86516658	12.48475482
0.83	83	-0.02	-1.005	-0.018	0.572958	0.3437748	0.1718874	87.66830358	-0.87089616	12.48475482
0.84	84	-0.02	-1.006	-0.015	0.5156622	0.5156622	0.1718874	87.67403316	-0.87089616	12.4904844
0.85	85	-0.019	-1.007	-0.014	0.6302538	0.5156622	0.1718874	87.6912219	-0.86516658	12.49621398
0.86	86	-0.019	-1.007	-0.015	0.4583664	0.3437748	0.2291832	87.69695148	-0.87089616	12.50194356
0.87	87	-0.019	-1.009	-0.014	0.4010706	0.3437748	0.1718874	87.70268106	-0.87089616	12.50194356
0.88	88	-0.018	-1.008	-0.015	0.4010706	0.3437748	0.286479	87.70841064	-0.87089616	12.50767314
0.89	89	-0.018	-1.009	-0.015	0.4010706	0.4010706	0.286479	87.70841064	-0.87662574	12.51340272
0.9	90	-0.017	-1.009	-0.014	0.4010706	0.3437748	0.286479	87.73132896	-0.87089616	12.51340272
0.91	91	-0.019	-1.008	-0.017	0.286479	0.286479	0.3437748	87.73132896	-0.87089616	12.51340272
0.92	92	-0.019	-1.007	-0.017	0.4010706	0.2291832	0.4010706	87.73705854	-0.87662574	12.5191323
0.93	93	-0.019	-1.007	-0.016	0.286479	0.0572958	0.3437748	87.74278812	-0.88235532	12.5191323
0.94	94	-0.019	-1.008	-0.017	0.286479	0.1145916	0.4010706	87.74278812	-0.88235532	12.5191323
0.95	95	-0.018	-1.007	-0.018	0.286479	0.1718874	0.3437748	87.73132896	-0.87662574	12.52486188
0.96	96	-0.016	-1.008	-0.018	0.286479	0.0572958	0.2291832	87.73705854	-0.87662574	12.52486188
0.97	97	-0.017	-1.007	-0.02	0.1145916	0	0.0572958	87.73705854	-0.88235532	12.52486188
0.98	98	-0.018	-1.006	-0.022	0.1718874	-0.1718874	0.0572958	87.73705854	-0.88235532	12.52486188
0.99	99	-0.017	-1.005	-0.023	0.286479	-0.1718874	0.1145916	87.74278812	-0.88235532	12.5191323
1	100	-0.018	-1.005	-0.023	0.4583664	-0.1718874	0.1718874	87.7198698	-0.87662574	12.5191323
1.01	101	-0.017	-1.006	-0.022	0.4010706	-0.2291832	0.2291832	87.72559938	-0.88235532	12.5191323
1.02	102	-0.017	-1.007	-0.022	0.4583664	-0.2291832	0.0572958	87.73132896	-0.88235532	12.51340272
1.03	103	-0.019	-1.006	-0.022	0.5156622	-0.286479	0.1145916	87.73705854	-0.88235532	12.51340272
1.04	104	-0.019	-1.006	-0.025	0.5156622	-0.2291832	0.0572958	87.74278812	-0.88235532	12.50767314
1.05	105	-0.02	-1.006	-0.022	0.6302538	-0.2291832	0.0572958	87.72559938	-0.8880849	12.50767314
1.06	106	-0.02	-1.008	-0.021	0.572958	-0.286479	0.1145916	87.73132896	-0.8880849	12.50767314
1.07	107	-0.019	-1.008	-0.021	0.3437748	-0.1718874	0.0572958	87.73705854	-0.8880849	12.50767314
1.08	108	-0.018	-1.009	-0.02	0.3437748	0	0.0572958	87.74278812	-0.8880849	12.50767314
1.09	109	-0.019	-1.011	-0.02	0.2291832	0	0	87.74278812	-0.8880849	12.50767314
1.1	110	-0.018	-1.012	-0.019	0.1145916	-0.3437748	-0.0572958	87.74278812	-0.87662574	12.50194356
1.11	111	-0.018	-1.01	-0.018	0.1145916	-0.6302538	-0.1718874	87.74278812	-0.87662574	12.49621398
1.12	112	-0.018	-1.007	-0.018	0.2291832	-0.6875496	-0.2291832	87.7485177	-0.87662574	12.48475482
1.13	113	-0.018	-1.005	-0.019	0.1145916	-0.6875496	-0.3437748	87.7485177	-0.87089616	12.47902524
1.14	114	-0.017	-1.005	-0.021	0.0572958	-0.4583664	-0.286479	87.7485177	-0.86516658	12.47329566
1.15	115	-0.019	-1.007	-0.019	0	-0.2291832	-0.1145916	87.70268106	-0.87089616	12.47902524
1.16	116	-0.02	-1.007	-0.02	-0.1145916	-0.2291832	0	87.70268106	-0.87089616	12.47329566
1.17	117	-0.019	-1.007	-0.021	-0.1718874	-0.1718874	0.1145916	87.69695148	-0.87662574	12.47329566
1.18	118	-0.02	-1.007	-0.021	-0.2291832	-0.286479	0.0572958	87.69695148	-0.87662574	12.46756608
1.19	119	-0.017	-1.007	-0.021	-0.286479	-0.2291832	0	87.6912219	-0.87662574	12.46756608
1.2	120	-0.018	-1.007	-0.022	-0.2291832	-0.2291832	-0.0572958	87.65684442	-0.87662574	12.46756608
1.21	121	-0.019	-1.007	-0.022	-0.1718874	-0.1718874	-0.1145916	87.65684442	-0.87662574	12.46756608
1.22	122	-0.02	-1.008	-0.02	-0.1718874	-0.286479	-0.1145916	87.65111484	-0.87662574	12.4618365
1.23	123	-0.02	-1.008	-0.02	-0.286479	-0.1718874	-0.1145916	87.65111484	-0.87089616	12.4618365
1.24	124	-0.02	-1.007	-0.021	-0.2291832	-0.1145916	-0.1718874	87.64538526	-0.87089616	12.45610692
1.25	125	-0.02	-1.007	-0.021	-0.1718874	0.1145916	-0.1145916	87.62819652	-0.88235532	12.4618365
1.26	126	-0.019	-1.006	-0.021	0	0.1145916	-0.0572958	87.62819652	-0.88235532	12.46756608
1.27	127	-0.017	-1.003	-0.02	0.0572958	0.1145916	0	87.62819652	-0.88235532	12.46756608
1.28	128	-0.018	-1.004	-0.018	0.2291832	0.0572958	-0.0572958	87.62819652	-0.88235532	12.46756608
1.29	129	-0.018	-1.007	-0.018	0.0572958	0.1145916	-0.0572958	87.62819652	-0.87662574	12.46756608
1.3	130	-0.018	-1.007	-0.018	0.0572958	0.4010706	-0.0572958	87.6339261	-0.87089616	12.47329566
1.31	131	-0.019	-1.007	-0.018	0.1145916	0.5156622	0	87.6339261	-0.87089616	12.47902524
1.32	132	-0.019	-1.007	-0.019	0.2291832	0.4010706	0	87.6339261	-0.87089616	12.48475482
1.33	133	-0.019	-1.008	-0.019	0.286479	0.2291832	0	87.63965568	-0.87089616	12.48475482
1.34	134	-0.018	-1.009	-0.018	0.4010706	0	-0.0572958	87.64538526	-0.87089616	12.48475482
1.35	135	-0.017	-1.008	-0.018	0.286479	0	-0.0572958	87.63965568	-0.86516658	12.48475482
1.36	136	-0.017	-1.007	-0.02	0.286479	0.1145916	-0.1718874	87.63965568	-0.859437	12.48475482
1.37	137	-0.018	-1.008	-0.019	0.2291832	0.1145916	-0.1145916	87.64538526	-0.859437	12.4904844
1.38	138	-0.018	-1.007	-0.019	0.2291832	0.286479	-0.1145916	87.64538526	-0.859437	12.4904844
1.39	139	-0.017	-1.007	-0.02	0.286479	0.3437748	-0.1718874	87.65111484	-0.85370742	12.49621398
1.4	140	-0.018	-1.007	-0.021	0.2291832	0.4010706	-0.1718874	87.63965568	-0.85370742	12.50194356
1.41	141	-0.019	-1.007	-0.021	0.2291832	0.4010706	-0.1145916	87.64538526	-0.85370742	12.50194356
1.42	142	-0.019	-1.008	-0.021	0.4010706	0.4010706	-0.1145916	87.65111484	-0.85370742	12.50767314
1.43	143	-0.019	-1.008	-0.018	0.286479	0.3437748	0	87.65111484	-0.85370742	12.51340272
1.44	144	-0.019	-1.009	-0.019	0.286479	0.3437748	0	87.65684442	-0.85370742	12.5191323
1.45	145	-0.018	-1.006	-0.019	0.4010706	0.5156622	0	87.662574	-0.84224826	12.5191323
1.46	146	-0.017	-1.005	-0.019	0.4583664	0.572958	0	87.66830358	-0.84224826	12.52486188
1.47	147	-0.017	-1.006	-0.018	0.3437748	0.4010706	0	87.66830358	-0.84224826	12.53059146
1.48	148	-0.018	-1.007	-0.019	0.286479	0.2291832	0	87.67403316	-0.84224826	12.53632104
1.49	149	-0.018	-1.008	-0.018	0.4583664	0.2291832	0	87.67976274	-0.84224826	12.53632104
1.5	150	-0.02	-1.009	-0.017	0.286479	0.1145916	-0.1145916	87.67976274	-0.84224826	12.53632104
1.51	151	-0.02	-1.009	-0.018	0.1145916	0.1145916	-0.2291832	87.67976274	-0.84224826	12.54205062
1.52	152	-0.021	-1.009	-0.021	0.0572958	0	-0.3437748	87.67976274	-0.83651868	12.54205062
1.53	153	-0.02	-1.009	-0.018	0	0	-0.286479	87.67976274	-0.83651868	12.54205062
1.54	154	-0.02	-1.009	-0.018	-0.1145916	0.0572958	-0.3437748	87.67976274	-0.8307891	12.54205062
1.55	155	-0.019	-1.008	-0.02	-0.286479	0.2291832	-0.3437748	87.67403316	-0.8307891	12.54205062
1.56	156	-0.02	-1.009	-0.019	-0.4010706	0.4583664	-0.286479	87.67403316	-0.82505952	12.5477802
1.57	157	-0.02	-1.01	-0.019	-0.5156622	0.6875496	-0.1718874	87.66830358	-0.82505952	12.55350978
1.58	158	-0.019	-1.009	-0.019	-0.6875496	0.8021412	-0.0572958	87.65684442	-0.81932994	12.56496894
1.59	159	-0.02	-1.008	-0.019	-0.8021412	0.859437	0	87.65111484	-0.81932994	12.57069852
1.6	160	-0.018	-1.009	-0.021	-0.8021412	0.859437	0	87.63965568	-0.81932994	12.58215768
1.61	161	-0.017	-1.007	-0.022	-0.8021412	0.859437	0	87.62819652	-0.81932994	12.58788726
1.62	162	-0.018	-1.005	-0.025	-0.5156622	0.859437	0	87.62246694	-0.81932994	12.59934642
1.63	163	-0.021	-1.003	-0.029	-0.3437748	1.2032118	-0.0572958	87.62246694	-0.81932994	12.61080558
1.64	164	-0.022	-1	-0.032	0	1.3750992	-0.0572958	87.61673736	-0.81932994	12.62226474
1.65	165	-0.022	-0.998	-0.037	0.286479	1.7761698	0.0572958	87.59954862	-0.82505952	12.64518306
1.66	166	-0.021	-0.999	-0.042	0.572958	2.1199446	0.1718874	87.6052782	-0.82505952	12.66810138
1.67	167	-0.02	-0.999	-0.044	0.8021412	2.4064236	0.3437748	87.61100778	-0.8307891	12.6910197
1.68	168	-0.02	-1.001	-0.048	0.7448454	2.578311	0.4583664	87.61673736	-0.83651868	12.71393802
1.69	169	-0.023	-1.001	-0.054	0.8021412	3.0366774	0.4010706	87.62819652	-0.83651868	12.7483155
1.7	170	-0.025	-1.001	-0.059	1.0313244	4.010706	0.4010706	87.61100778	-0.84797784	12.78842256
1.71	171	-0.028	-1.001	-0.064	0.9167328	4.870143	0.3437748	87.61673736	-0.84797784	12.83998878
1.72	172	-0.028	-1.003	-0.066	0.6875496	5.9014674	0.2291832	87.62246694	-0.85370742	12.89728458
1.73	173	-0.03	-1.006	-0.071	0.3437748	6.9900876	0.2291832	87.62819652	-0.85370742	12.96603954
1.74	174	-0.033	-1.011	-0.076	-0.286479	8.1932994	0.1145916	87.62246694	-0.85370742	13.04625366
1.75	175	-0.036	-1.013	-0.083	-0.859437	9.6829902	0	87.58808946	-0.859437	13.14365652
1.76	176	-0.037	-1.012	-0.088	-1.0886202	11.0580894	0	87.5766303	-0.859437	13.25251854
1.77	177	-0.031	-1.01	-0.094	-1.145916	12.2613012	0	87.55944156	-0.85370742	13.3785693
1.78	178	-0.021	-1.011	-0.093	-1.3178034	13.3499214	0.286479	87.54225282	-0.859437	13.51034964
1.79	179	-0.012	-1.013	-0.093	-1.8334656	13.6936962	0.4010706	87.5193345	-0.859437	13.64212998
1.8	180	-0.007	-1.017	-0.093	-2.6929026	13.8655836	0.5156622	87.47349786	-0.859437	13.7796399
1.81	181	-0.004	-1.018	-0.094	-3.6096354	13.8655836	0.572958	87.4333908	-0.86516658	13.91714982
1.82	182	-0.003	-1.019	-0.099	-4.7555514	13.8655836	0.572958	87.38182458	-0.87089616	14.05465974
1.83	183	-0.006	-1.018	-0.107	-6.3598338	14.037471	0.7448454	87.31306962	-0.87662574	14.19789924
1.84	184	-0.011	-1.017	-0.112	-7.9641162	14.4385416	0.9167328	87.22712592	-0.88235532	14.33540916
1.85	185	-0.019	-1.019	-0.122	-9.6256944	14.7250206	1.2032118	87.11253432	-0.89381448	14.48437824
1.86	186	-0.023	-1.02	-0.133	-11.2299768	15.0687954	1.432395	86.99221314	-0.90527364	14.63334732
1.87	187	-0.026	-1.026	-0.141	-12.4331886	15.3552744	1.6042824	86.86616238	-0.9167328	14.7823164
1.88	188	-0.024	-1.029	-0.144	-13.178034	16.042824	1.8334656	86.72292288	-0.93392154	14.94274464
1.89	189	-0.022	-1.028	-0.157	-14.2666542	16.2720072	1.9480572	86.5739538	-0.95111028	15.10317288
1.9	190	-0.021	-1.021	-0.171	-15.183387	16.6730778	1.8334656	86.4020664	-0.96256944	15.2693307
1.91	191	-0.02	-1.016	-0.18	-16.5011904	16.6730778	1.7761698	86.230179	-0.9740286	15.43548852
1.92	192	-0.021	-1.015	-0.193	-17.8189938	16.7303736	2.005353	86.04110286	-0.99121734	15.59591676
1.93	193	-0.019	-1.015	-0.2	-18.5638392	17.1314442	2.8074942	85.85202672	-1.01413566	15.76780416
1.94	194	-0.019	-1.017	-0.191	-18.3919518	17.0741484	3.8388186	85.657221	-1.04851314	15.93396198
1.95	195	-0.014	-1.019	-0.173	-19.6524594	17.3033316	5.0420304	85.44522654	-1.0886202	16.11157896
1.96	196	-0.017	-1.018	-0.182	-22.8610242	18.1627686	6.1879464	85.20458418	-1.145916	16.29492552
1.97	197	-0.02	-1.013	-0.182	-25.8404058	19.1367972	6.9327918	84.93529392	-1.2032118	16.48400166
1.98	198	-0.024	-1.006	-0.179	-28.4187168	19.480572	7.448454	84.64308534	-1.26623718	16.67880738
1.99	199	-0.033	-0.993	-0.179	-30.939732	20.05353	7.5057498	84.32222886	-1.32926256	16.87934268
2	200	-0.04	-0.976	-0.174	-32.8877892	21.2567418	7.448454	83.97272448	-1.39228794	17.09706672
2.01	201	-0.043	-0.964	-0.168	-35.4088044	22.345362	6.8182002	83.60603136	-1.44958374	17.32052034
2.02	202	-0.039	-0.954	-0.163	-40.5081306	23.204799	5.72958	83.18204244	-1.4896908	17.54970354
2.03	203	-0.027	-0.949	-0.161	-44.404245	23.3766864	5.0993262	82.72367604	-1.5183387	17.78461632
2.04	204	-0.016	-0.942	-0.168	-49.3889796	22.631841	4.3544808	82.21374342	-1.5469866	18.00806994
2.05	205	0.004	-0.939	-0.158	-52.7694318	21.4286292	3.9534102	81.66943332	-1.56417534	18.2200644
2.06	206	0.013	-0.949	-0.15	-57.009321	20.2827132	4.0680018	81.07928658	-1.58709366	18.41487012
2.07	207	0.018	-0.955	-0.169	-62.3378304	19.2513888	4.1252976	80.4433032	-1.6042824	18.60394626
2.08	208	0.015	-0.959	-0.17	-65.7755784	17.6471064	4.583664	79.76721276	-1.6329303	18.78156324
2.09	209	-0.013	-0.964	-0.185	-68.6403684	16.2147114	4.9847346	79.06247442	-1.6615782	18.94199148
2.1	210	-0.042	-0.951	-0.202	-71.7343416	15.756345	5.2139178	78.32908818	-1.69595568	19.09669014
2.11	211	-0.055	-0.936	-0.186	-72.0208206	15.8136408	5.5003968	77.58997236	-1.73033316	19.25711838
2.12	212	-0.059	-0.928	-0.187	-73.1094408	16.1574156	5.72958	76.83939738	-1.75898106	19.41754662
2.13	213	-0.047	-0.909	-0.183	-75.1147938	15.8136408	5.72958	76.07163366	-1.79335854	19.57797486
2.14	214	-0.024	-0.894	-0.187	-75.8023434	14.6677248	5.5003968	75.29241078	-1.82200644	19.72694394
2.15	215	0.005	-0.89	-0.192	-76.4325972	12.6623718	4.583664	74.5131879	-1.84492476	19.8529947
2.16	216	0.029	-0.888	-0.195	-77.2347384	10.1986524	3.2658606	73.72250586	-1.85638392	19.95612714
2.17	217	0.046	-0.881	-0.194	-77.4639216	8.0787078	1.7761698	72.9375534	-1.8621135	20.03061168
2.18	218	0.056	-0.88	-0.192	-76.1461182	5.0420304	0.4583664	72.15833052	-1.8621135	20.07071874
2.19	219	0.056	-0.895	-0.188	-75.9742308	1.8907614	-0.1718874	71.3905668	-1.8621135	20.0821779
2.2	220	0.051	-0.905	-0.202	-76.3180056	-0.6875496	-0.572958	70.6170735	-1.8621135	20.07071874
2.21	221	0.029	-0.92	-0.214	-75.343977	-2.578311	-0.1718874	69.85503936	-1.87930224	20.03634126
2.22	222	0.006	-0.946	-0.226	-73.911582	-4.2398892	0.3437748	69.11019396	-1.90222056	19.99050462
2.23	223	-0.008	-0.962	-0.214	-72.8229618	-5.9014674	0.4583664	68.37107814	-1.93659804	19.93320882
2.24	224	-0.022	-0.961	-0.217	-72.3645954	-7.6203414	0.6875496	67.6376919	-1.9767051	19.85872428
2.25	225	-0.037	-0.931	-0.262	-72.4218912	-9.5111028	1.145916	66.91576482	-2.0340009	19.77278058
2.26	226	-0.044	-0.91	-0.267	-69.2706222	-12.7769634	1.3178034	66.21675606	-2.10275586	19.6524594
2.27	227	-0.043	-0.896	-0.285	-67.0933818	-14.1520626	0.572958	65.54066562	-2.16578124	19.52067906
2.28	228	-0.04	-0.888	-0.303	-65.030733	-14.6677248	-1.0313244	64.8874935	-2.22307704	19.37743956
2.29	229	-0.037	-0.897	-0.31	-63.1972674	-12.8342592	-3.151269	64.2572397	-2.25172494	19.24565922
2.3	230	-0.035	-0.92	-0.314	-62.6243094	-10.4278356	-4.9274388	63.63271548	-2.25745452	19.12533804
2.31	231	-0.029	-0.929	-0.321	-62.1086472	-9.2246238	-5.7868758	63.00246168	-2.25172494	19.01074644
2.32	232	-0.036	-0.93	-0.345	-61.2492102	-8.7662574	-5.6722842	62.38939662	-2.25172494	18.90188442
2.33	233	-0.053	-0.935	-0.357	-60.2751816	-8.6516658	-4.297185	61.78206114	-2.25745452	18.80448156
2.34	234	-0.071	-0.936	-0.36	-58.8427866	-7.5630456	-2.7501984	61.18618482	-2.27464326	18.71853786
2.35	235	-0.079	-0.914	-0.381	-58.2125328	-6.9327918	-2.005353	60.60749724	-2.29756158	18.64405332
2.36	236	-0.082	-0.889	-0.386	-57.2958	-5.6722842	-1.718874	60.02880966	-2.31475032	18.58102794
2.37	237	-0.076	-0.861	-0.376	-55.4050386	-4.1825934	-1.8907614	59.46731082	-2.32620948	18.5351913
2.38	238	-0.068	-0.852	-0.42	-54.7747848	-2.578311	-2.291832	58.91154156	-2.32620948	18.49508424
2.39	239	-0.059	-0.849	-0.446	-52.998615	-0.6302538	-2.9793816	58.37869062	-2.30902074	18.47216592
2.4	240	-0.052	-0.875	-0.443	-50.7640788	0.5156622	-3.151269	57.868758	-2.291832	18.45497718
2.41	241	-0.052	-0.892	-0.473	-50.4775998	1.0886202	-2.3491278	57.3530958	-2.26891368	18.4492476
2.42	242	-0.061	-0.912	-0.476	-48.414951	2.291832	-0.6302538	56.86035192	-2.25745452	18.46070676
2.43	243	-0.073	-0.914	-0.48	-47.7846972	2.6356068	0	56.37333762	-2.25172494	18.48362508
2.44	244	-0.088	-0.896	-0.444	-46.8679644	3.437748	0	55.89778248	-2.24026578	18.51227298
2.45	245	-0.093	-0.859	-0.447	-47.2117392	4.0680018	-0.4010706	55.42222734	-2.22307704	18.54092088
2.46	246	-0.084	-0.816	-0.449	-47.3836266	4.583664	-1.145916	54.94094262	-2.19442914	18.56956878
2.47	247	-0.07	-0.792	-0.438	-46.6387812	5.2139178	-2.6929026	54.46538748	-2.1485925	18.5924871
2.48	248	-0.058	-0.777	-0.454	-47.2117392	7.161975	-4.870143	53.98410276	-2.07983754	18.621135
2.49	249	-0.052	-0.771	-0.456	-46.982556	10.7143146	-6.9327918	53.50281804	-1.96524594	18.66697164
2.5	250	-0.067	-0.771	-0.497	-47.3836266	16.042824	-8.5370742	53.01580374	-1.81627686	18.74145618
2.51	251	-0.085	-0.774	-0.51	-46.6387812	19.8243468	-8.9381448	52.5402486	-1.63865988	18.8503182
2.52	252	-0.119	-0.763	-0.516	-46.2950064	22.5745452	-8.9381448	52.06469346	-1.44385416	18.97063938
2.53	253	-0.16	-0.754	-0.548	-47.0398518	24.4080108	-8.4797784	51.57767916	-1.23758928	19.11387888
2.54	254	-0.192	-0.747	-0.556	-46.696077	25.496631	-7.5630456	51.09639444	-1.0313244	19.26284796
2.55	255	-0.2	-0.736	-0.549	-46.1804148	25.5539268	-6.589017	50.6208393	-0.84224826	19.4232762
2.56	256	-0.189	-0.71	-0.57	-46.123119	24.8663772	-5.2139178	50.14528416	-0.6589017	19.58370444
2.57	257	-0.164	-0.665	-0.555	-44.1750618	23.777757	-3.0939732	49.69264734	-0.49274388	19.74413268
2.58	258	-0.111	-0.609	-0.515	-38.8465524	21.199446	-0.7448454	49.29730632	-0.36096354	19.90456092
2.59	259	-0.038	-0.573	-0.538	-36.4401288	21.485925	-0.286479	48.92488362	-0.2291832	20.06498916
2.6	260	0	-0.598	-0.547	-35.0077338	23.2620948	0	48.56392008	-0.0859437	20.23687656
2.61	261	-0.005	-0.65	-0.587	-33.9191136	25.9549974	1.0313244	48.2144157	0.0572958	20.44314144
2.62	262	-0.032	-0.694	-0.607	-31.799169	29.507337	2.005353	47.88782964	0.2291832	20.67805422
2.63	263	-0.069	-0.715	-0.559	-28.4187168	32.7159018	3.3804522	47.59562106	0.41252976	20.9416149
2.64	264	-0.137	-0.708	-0.596	-27.2728008	35.3515086	5.5576926	47.31487164	0.59587632	21.24528264
2.65	265	-0.187	-0.694	-0.689	-27.4446882	32.2002396	9.0527364	47.03412222	0.72192708	21.5432208
2.66	266	-0.175	-0.739	-0.691	-23.7204612	26.1268848	12.1467096	46.79347986	0.8021412	21.82397022
2.67	267	-0.117	-0.791	-0.543	-22.4026578	23.5485738	13.0634424	46.56429666	0.859437	22.08180132
2.68	268	-0.034	-0.791	-0.641	-26.356068	19.8243468	12.5477802	46.30073598	0.89381448	22.3167141
2.69	269	0.048	-0.815	-0.687	-24.7517856	17.5325148	11.2872726	46.04863446	0.92819196	22.52297898
2.7	270	0.11	-0.88	-0.616	-21.772404	16.6730778	10.7143146	45.84236958	0.96829902	22.71205512
2.71	271	0.133	-0.874	-0.651	-21.6578124	14.0947668	10.3705398	45.61891596	0.98548776	22.8896721
2.72	272	0.123	-0.872	-0.708	-21.2567418	13.5791046	10.2559482	45.4069215	1.0026765	23.05582992
2.73	273	0.093	-0.922	-0.752	-19.5378678	14.3812458	10.026765	45.21211578	1.02559482	23.2334469
2.74	274	0.059	-0.945	-0.766	-18.7930224	14.5531332	10.7716104	45.01731006	1.04278356	23.41106388
2.75	275	0.031	-0.94	-0.798	-18.907614	14.32395	11.5164558	44.8339635	1.0599723	23.59441044
2.76	276	-0.003	-0.931	-0.79	-19.5951636	12.3758928	12.3758928	44.6334282	1.05424272	23.77202742
2.77	277	-0.067	-0.937	-0.661	-21.0848544	10.6570188	13.0634424	44.42143374	1.0313244	23.93818524
2.78	278	-0.113	-0.916	-0.722	-24.5226024	11.9175264	12.9488508	44.1750618	1.01986524	24.11580222
2.79	279	-0.086	-0.936	-0.773	-24.1215318	12.2040054	12.4331886	43.93441944	1.01413566	24.28768962
2.8	280	-0.048	-0.987	-0.787	-23.0902074	13.4072172	11.9175264	43.70523624	1.01986524	24.47103618
2.81	281	-0.001	-1	-0.784	-23.3766864	13.9228794	11.6310474	43.47032346	1.03705398	24.64865316
2.82	282	0.036	-0.984	-0.807	-23.3193906	14.9542038	11.9748222	43.23541068	1.05424272	24.8377293
2.83	283	0.061	-0.98	-0.813	-22.0015872	16.2147114	12.6623718	43.01195706	1.08289062	25.04399418
2.84	284	0.058	-0.978	-0.799	-21.5432208	17.6471064	12.8342592	42.79423302	1.1172681	25.26171822
2.85	285	0.049	-0.967	-0.785	-22.1161788	18.5638392	12.6623718	42.58223856	1.15737516	25.47944226
2.86	286	0.038	-0.953	-0.782	-22.6891368	18.334656	12.6623718	42.35305536	1.19748222	25.6971663
2.87	287	0.017	-0.936	-0.784	-23.3193906	17.475219	12.8342592	42.11814258	1.23758928	25.91489034
2.88	288	-0.002	-0.927	-0.774	-23.4339822	17.4179232	13.4072172	41.8832298	1.26623718	26.13261438
2.89	289	-0.025	-0.913	-0.758	-24.064236	17.3606274	13.9801752	41.64258744	1.29488508	26.35033842
2.9	290	-0.031	-0.899	-0.747	-24.8663772	17.761698	14.7250206	41.3962155	1.32353298	26.57952162
2.91	291	-0.028	-0.884	-0.748	-25.496631	18.7930224	15.3552744	41.14411398	1.35218088	26.82016398
2.92	292	-0.026	-0.871	-0.741	-25.7258142	20.1681216	16.5011904	40.88628288	1.38655836	27.07799508
2.93	293	-0.029	-0.853	-0.736	-25.8404058	21.7151082	17.761698	40.62845178	1.42666542	27.3587445
2.94	294	-0.037	-0.835	-0.733	-26.1268848	23.204799	19.1367972	40.3648911	1.47250206	27.65668266
2.95	295	-0.052	-0.814	-0.735	-26.356068	24.6944898	20.3973048	40.11278958	1.51260912	27.97180956
2.96	296	-0.066	-0.8	-0.732	-26.2987722	26.5279554	21.485925	39.8492289	1.56990492	28.30985478
2.97	297	-0.073	-0.785	-0.712	-26.069589	28.7051958	22.4599536	39.5913978	1.6329303	28.67081832
2.98	298	-0.071	-0.776	-0.713	-26.2414764	31.1116194	23.6058696	39.3335667	1.71314442	29.05470018
2.99	299	-0.069	-0.763	-0.708	-26.2414764	32.7731976	24.6944898	39.0757356	1.79908812	29.45577078
3	300	-0.069	-0.758	-0.695	-26.1268848	34.7212548	25.7258142	38.82363408	1.8907614	29.87403012
3.01	301	-0.062	-0.747	-0.686	-26.1841806	36.7839036	26.5852512	38.57153256	1.99962342	30.31520778
3.02	302	-0.059	-0.732	-0.685	-26.4706596	38.5600734	27.2728008	38.31370146	2.1199446	30.77357418
3.03	303	-0.055	-0.718	-0.678	-26.2987722	40.10706	27.9603504	38.06159994	2.24599536	31.24339974
3.04	304	-0.047	-0.708	-0.675	-26.4133638	41.6540466	28.361421	37.80376884	2.38923486	31.73041404
3.05	305	-0.042	-0.696	-0.67	-26.4706596	42.9145542	28.8197874	37.5573969	2.53247436	32.22315792
3.06	306	-0.033	-0.69	-0.667	-26.642547	44.1750618	29.2781538	37.30529538	2.68717302	32.73309054
3.07	307	-0.022	-0.688	-0.667	-26.8717302	44.8626114	29.793816	37.05319386	2.85333084	33.24302316
3.08	308	-0.015	-0.688	-0.659	-26.6998428	45.7220484	30.3094782	36.80109234	3.01948866	33.76441494
3.09	309	-0.012	-0.686	-0.662	-27.0436176	46.696077	30.7105488	36.54899082	3.19710564	34.29726588
3.1	310	-0.013	-0.682	-0.658	-26.929026	48.0138804	30.939732	36.30834846	3.3804522	34.8358464
3.11	311	-0.012	-0.676	-0.658	-27.1582092	49.3316838	30.8824362	36.06197652	3.5809875	35.38588608
3.12	312	-0.01	-0.674	-0.657	-27.2728008	50.4775998	30.653253	35.809875	3.79298196	35.93592576
3.13	313	-0.005	-0.671	-0.66	-27.5592798	51.6808116	30.5386614	35.56350306	4.02216516	36.49169502
3.14	314	-0.001	-0.669	-0.65	-27.5592798	53.1705024	30.5386614	35.31713112	4.25707794	37.05892344
3.15	315	0.003	-0.666	-0.656	-28.0176462	54.43101	30.2521824	35.07648876	4.50917946	37.62615186
3.16	316	0.01	-0.667	-0.665	-28.361421	55.4623344	30.0229992	34.83011682	4.77274014	38.19910986
3.17	317	0.021	-0.672	-0.663	-28.7624916	56.4936588	29.5646328	34.5780153	5.05348956	38.77206786
3.18	318	0.023	-0.674	-0.664	-29.3927454	57.582279	28.9916748	34.32591378	5.34569814	39.35075544
3.19	319	0.026	-0.672	-0.666	-30.1948866	58.5563076	28.4760126	34.06808268	5.64936588	39.92371344
3.2	320	0.025	-0.67	-0.667	-30.8251404	59.3584488	28.1895336	33.81025158	5.96449278	40.50240102
3.21	321	0.025	-0.668	-0.661	-31.4553942	60.2751816	27.8457588	33.5466909	6.29107884	41.07535902
3.22	322	0.029	-0.664	-0.663	-32.658606	61.4210976	27.5592798	33.27167106	6.63485364	41.65977618
3.23	323	0.036	-0.665	-0.666	-33.4034514	62.1086472	27.1582092	32.99092164	6.98435802	42.23846376
3.24	324	0.04	-0.665	-0.674	-34.7785506	62.452422	26.8717302	32.70444264	7.34532156	42.81715134
3.25	325	0.046	-0.662	-0.677	-35.9244666	62.8534926	26.6998428	32.41223406	7.7062851	43.39583892
3.26	326	0.06	-0.665	-0.688	-36.955791	63.5410422	26.4706596	32.10856632	8.08443738	43.96879692
3.27	327	0.062	-0.669	-0.712	-38.3308902	64.3431834	26.1268848	31.79343942	8.46831924	44.5474845
3.28	328	0.066	-0.679	-0.718	-39.247623	65.6609868	25.5539268	31.47831252	8.87511942	45.12617208
3.29	329	0.065	-0.688	-0.709	-39.9924684	67.8382272	24.8663772	31.15172646	9.29910834	45.71058924
3.3	330	0.057	-0.678	-0.693	-41.4248634	70.5884256	24.2934192	30.83086998	9.75747474	46.30073598
3.31	331	0.051	-0.659	-0.693	-43.0291458	72.7083702	24.0069402	30.48709518	10.23302988	46.90234188
3.32	332	0.052	-0.65	-0.687	-44.2323576	75.4585686	23.777757	30.1375908	10.7429625	47.50967736
3.33	333	0.058	-0.642	-0.681	-45.6074568	78.0941754	23.3766864	29.78235684	11.27581344	48.128472
3.34	334	0.062	-0.631	-0.675	-47.1544434	80.6151906	23.4339822	29.4213933	11.83731228	48.75299622
3.35	335	0.068	-0.618	-0.666	-48.414951	82.3340646	23.5485738	29.06042976	12.41027028	49.39470918
3.36	336	0.077	-0.604	-0.651	-49.5035712	83.7091638	23.8350528	28.68800706	13.00041702	50.03642214
3.37	337	0.09	-0.589	-0.64	-50.3630082	84.6831924	24.0069402	28.31558436	13.60202292	50.68386468
3.38	338	0.107	-0.578	-0.636	-51.1078536	85.657221	24.1788276	27.94316166	14.22081756	51.3370368
3.39	339	0.124	-0.574	-0.619	-50.8213746	86.4020664	24.2934192	27.57646854	14.84534178	51.99020892
3.4	340	0.13	-0.569	-0.605	-50.8786704	86.6885454	24.350715	27.22696416	15.469866	52.64338104
3.41	341	0.131	-0.554	-0.594	-50.993262	86.7458412	24.2934192	26.87745978	16.10584938	53.29655316
3.42	342	0.134	-0.54	-0.583	-50.706783	87.662574	23.7204612	26.53368498	16.75329192	53.9439957
3.43	343	0.136	-0.525	-0.567	-50.2484166	89.3241522	22.8037284	26.20136934	17.42938236	54.59143824
3.44	344	0.13	-0.506	-0.55	-49.7900502	90.813843	22.058883	25.88051286	18.11693196	55.23888078
3.45	345	0.117	-0.496	-0.541	-49.4462754	91.4440968	21.9442914	25.5825747	18.81594072	55.88632332
3.46	346	0.111	-0.489	-0.532	-49.2170922	91.6159842	22.1161788	25.28463654	19.52067906	56.53376586
3.47	347	0.114	-0.485	-0.52	-49.1025006	91.2149136	22.631841	24.99242796	20.2254174	57.1812084
3.48	348	0.115	-0.481	-0.513	-49.1025006	90.813843	23.0329116	24.71167854	20.92442616	57.82865094
3.49	349	0.12	-0.477	-0.497	-49.1025006	91.2722094	23.0902074	24.4366587	21.6291645	58.48182306
3.5	350	0.121	-0.473	-0.485	-49.4462754	92.1889422	22.91832	24.1788276	22.345362	59.14072476
3.51	351	0.12	-0.467	-0.485	-49.9046418	93.6213372	22.8037284	23.91526692	23.07874824	59.79962646
3.52	352	0.114	-0.466	-0.48	-50.133825	95.7985776	22.631841	23.65743582	23.84078238	60.46425774
3.53	353	0.093	-0.463	-0.468	-50.706783	98.6060718	22.345362	23.4053343	24.62573484	61.14607776
3.54	354	0.077	-0.459	-0.456	-51.56622	102.1011156	22.1734746	23.16469194	25.44506478	61.83935694
3.55	355	0.064	-0.456	-0.444	-52.3110654	105.0804972	22.1734746	22.93550874	26.28731304	62.54982486
3.56	356	0.051	-0.458	-0.43	-53.1705024	108.2317662	22.5172494	22.71205512	27.16966836	63.27748152
3.57	357	0.054	-0.455	-0.422	-54.2591226	111.5549226	22.7464326	22.49433108	28.08067158	64.0280565
3.58	358	0.066	-0.449	-0.403	-54.8320806	115.2218538	22.631841	22.2880662	29.02605228	64.79009064
3.59	359	0.072	-0.45	-0.38	-55.290447	119.2325598	22.5745452	22.09899006	30.01154004	65.5750431
3.6	360	0.062	-0.447	-0.354	-55.8061092	123.2432658	22.631841	21.93856182	31.03140528	66.39437304
3.61	361	0.04	-0.438	-0.319	-56.3217714	127.6550424	22.5172494	21.78386316	32.09710716	67.23089172
3.62	362	0.024	-0.411	-0.289	-57.5249832	133.3273266	21.8296998	21.64635324	33.22010484	68.09032872
3.63	363	0.013	-0.384	-0.263	-58.2698286	137.6818074	21.0848544	21.52603206	34.38320958	68.97268404
3.64	364	-0.002	-0.37	-0.229	-58.3271244	142.8384294	19.9962342	21.43435878	35.60361012	69.8722281
3.65	365	-0.013	-0.359	-0.199	-58.7854908	149.0263758	18.621135	21.37706298	36.87557688	70.81187922
3.66	366	-0.017	-0.339	-0.175	-59.8168152	155.1570264	16.615782	21.33122634	38.2162986	71.75725992
3.67	367	-0.036	-0.328	-0.14	-60.2751816	161.7460434	14.7823164	21.3140376	39.63150486	72.7370181
3.68	368	-0.057	-0.319	-0.102	-60.7908438	168.5642436	12.9488508	21.32549676	41.1097365	73.75115376
3.69	369	-0.067	-0.308	-0.074	-61.2492102	174.75219	10.7716104	21.37706298	42.65099352	74.79393732
3.7	370	-0.082	-0.288	-0.039	-61.0773228	182.0860524	8.7089616	21.49165458	44.2610055	75.88255752
3.71	371	-0.089	-0.264	-0.022	-60.2751816	187.643745	6.9900876	21.65208282	45.93404286	77.01128478
3.72	372	-0.095	-0.239	0.003	-58.2125328	191.7690426	4.6409598	21.88126602	47.64718728	78.17438952
3.73	373	-0.09	-0.218	0.049	-55.4623344	194.9203116	1.8907614	22.19066334	49.40043876	79.37187174
3.74	374	-0.063	-0.176	0.063	-52.8267276	198.4726512	-0.9167328	22.58027478	51.18806772	80.60373144
3.75	375	-0.039	-0.113	0.06	-49.2170922	201.2801454	-3.9534102	23.07874824	53.01007416	81.89861652
3.76	376	-0.024	-0.057	0.063	-43.3156248	203.0563152	-7.1046792	23.68608372	54.84926934	83.22787908
3.77	377	0.029	-0.014	0	-37.8725238	202.4260614	-10.9434978	24.40228122	56.6941941	84.59151912
3.78	378	0.069	0.005	-0.048	-31.5699858	194.1754662	-15.0687954	25.1815041	58.4703639	85.93224084
3.79	379	0.12	0.012	-0.034	-23.3766864	188.6750694	-18.621135	26.08104816	60.20642664	87.27869214
3.8	380	0.195	0.016	0.021	-16.1574156	187.8729282	-21.485925	27.1295613	61.94821896	88.69962798
3.81	381	0.249	0.046	0.046	-9.2819196	191.1960846	-22.2307704	28.43590554	63.69574086	90.2981808
3.82	382	0.224	0.07	0.02	0.572958	199.1602008	-22.2307704	30.1375908	65.49482898	92.20613094
3.83	383	0.087	0.057	-0.018	14.5531332	215.718687	-20.7983754	32.50963692	67.39704954	94.66412076
3.84	384	-0.178	0.091	-0.014	30.1948866	238.064049	-16.7876694	35.91300744	69.40240254	98.02738422
3.85	385	-0.469	0.124	0.136	49.0452048	260.6385942	-14.32395	40.72012506	71.4765105	102.6396961
3.86	386	-0.344	0.14	0.315	63.9421128	298.6830054	-11.5737516	47.81907468	73.625103	109.4407076
3.87	387	0.302	0.154	0.369	67.609044	341.769447	-8.59437	58.34431314	75.66483348	119.6851966
3.88	388	0.82	0.468	0.804	71.7343416	384.8558886	-17.1314442	73.41883812	77.30349336	134.4847018
3.89	389	2.095	0.834	0.893	74.8283148	429.3747252	-75.9742308	93.54685266	78.44367978	154.3491556
3.9	390	3.996	1.063	-0.8	102.5021862	368.0109234	-118.3731228	113.3998474	78.64421508	173.6005444
3.91	391	3.996	1.906	-0.995	124.9621398	18.048177	-215.7759828	120.9514338	80.4719511	-179.9947557
3.92	392	3.996	0.285	3.999	48.414951	416.7123534	-214.1144046	145.8808364	79.06247442	-155.1341081
3.93	393	3.996	0.609	2.567	15.2406828	404.3937564	-170.2831176	160.6516936	76.1747661	-140.1168789
3.94	394	3.996	1.636	1.157	-12.032118	322.1169876	-197.6132142	170.1799852	73.55634804	-130.0729252
3.95	395	3.972	1.5	2.617	171.3717378	259.549974	-164.3243544	177.685735	71.14419486	-123.9823816
3.96	396	3.234	0.906	2.294	61.4783934	260.5240026	-146.1615858	-177.9492956	68.56015428	-119.965946
3.97	397	2.896	0.438	0.909	28.5333084	156.3029424	-97.5174516	-175.6345453	66.95587188	-117.7543282
3.98	398	2.57	0.04	1.671	3.0939732	106.4555964	-60.9054354	-174.5115476	65.85579252	-116.5453868
3.99	399	2.324	0.149	1.311	17.2460358	87.949053	-50.3630082	-173.5088711	64.93905972	-115.6229244
4	400	1.872	0.357	1.121	25.0955604	43.0291458	-33.8618178	-172.6723525	64.46923416	-114.9754819
4.01	401	0.902	0.349	1.169	18.6784308	38.2162986	-26.0122932	-172.0764761	64.06243398	-114.522845
4.02	402	0.963	0.253	0.713	17.3033316	34.2628884	-19.0222056	-171.6410281	63.69574086	-114.2249069
4.03	403	0.232	0.152	0.64	28.7051958	43.1437374	-13.464513	-171.2342279	63.2545632	-114.0931265
4.04	404	0.359	0.171	0.636	24.5226024	56.722842	-9.5111028	-171.0107743	62.6816052	-114.1045857
4.05	405	-0.082	0.174	0.702	26.8144344	71.046792	-13.3499214	-170.7472136	61.94248938	-114.1045857
4.06	406	0.047	0.095	0.629	20.5118964	86.1155874	-11.1153852	-170.6440811	61.08305238	-114.2134477
4.07	407	0.344	0.093	0.542	9.7975818	89.2095606	-10.3705398	-170.672729	60.20069706	-114.3452281
4.08	408	0.415	0.167	0.576	5.5003968	86.2874748	-11.8029348	-170.7013769	59.34126006	-114.4311718
4.09	409	0.446	0.192	0.572	8.9381448	86.3447706	-12.2040054	-170.6899178	58.48182306	-114.5113859
4.1	410	0.473	0.156	0.59	10.5424272	90.9284346	-10.4851314	-170.6899178	57.56509026	-114.6259775
4.11	411	0.497	0.222	0.652	15.6990492	93.965112	-8.6516658	-170.6841882	56.6368983	-114.7921353
4.12	412	0.533	0.259	0.695	18.8503182	97.5747474	-7.2192708	-170.6669995	55.67432886	-114.986941
4.13	413	0.594	0.266	0.717	19.3659804	97.0017894	-7.7922288	-170.632622	54.717489	-115.1702876
4.14	414	0.604	0.286	0.707	20.912967	94.3088868	-8.021412	-170.5695966	53.78356746	-115.3364454
4.15	415	0.661	0.257	0.705	20.8556712	91.959759	-6.2452422	-170.5065712	52.87256424	-115.5140624
4.16	416	0.708	0.29	0.68	18.1627686	88.6938984	-6.7036086	-170.4664642	51.9959385	-115.6802202
4.17	417	0.74	0.24	0.643	14.1520626	82.2767688	-4.9274388	-170.4664642	51.18806772	-115.8521076
4.18	418	0.791	0.166	0.677	8.6516658	69.4998054	-1.718874	-170.5294895	50.51197728	-116.0354542
4.19	419	0.769	0.146	0.693	4.4117766	62.738901	-0.4010706	-170.632622	49.89891222	-116.2130711
4.2	420	0.79	0.163	0.688	1.5469866	54.9466722	0.7448454	-170.741484	49.36606128	-116.3734994
4.21	421	0.784	0.162	0.708	-2.7501984	46.6387812	3.3231564	-170.9133714	48.91915404	-116.5568459
4.22	422	0.803	0.13	0.721	-6.589017	38.5027776	4.3544808	-171.1196363	48.55246092	-116.7287333
4.23	423	0.807	0.138	0.765	-8.7089616	31.3408026	5.0420304	-171.3316307	48.25452276	-116.8891616
4.24	424	0.825	0.117	0.82	-12.3758928	25.210152	6.016059	-171.5722731	48.01960998	-117.0438602
4.25	425	0.848	0.133	0.844	-13.750992	18.5638392	7.3338624	-171.8301042	47.84772258	-117.1985589
4.26	426	0.847	0.134	0.863	-15.1260912	11.0007936	8.7662574	-172.105124	47.7560493	-117.3589871
4.27	427	0.859	0.126	0.871	-16.4438946	6.7036086	10.5424272	-172.3973326	47.70448308	-117.5308745
4.28	428	0.848	0.118	0.878	-17.761698	1.5469866	12.2613012	-172.7181891	47.71021266	-117.7142211
4.29	429	0.843	0.11	0.873	-18.334656	-3.0939732	14.0947668	-173.0505047	47.76177888	-117.9147564
4.3	430	0.829	0.103	0.861	-18.9649098	-9.2246238	17.1314442	-173.4171979	47.86491132	-118.1496692
4.31	431	0.818	0.078	0.851	-18.9649098	-16.3865988	21.1421502	-173.8125389	48.05398746	-118.4304186
4.32	432	0.813	0.095	0.847	-17.9335854	-23.6058696	26.642547	-174.2537165	48.31754814	-118.779923
4.33	433	0.813	0.084	0.84	-15.756345	-30.939732	34.3201842	-174.75219	48.65559336	-119.2382894
4.34	434	0.811	0.087	0.831	-12.2613012	-40.10706	41.825934	-175.2907705	49.09104144	-119.7997882
4.35	435	0.818	0.065	0.822	-11.9175264	-46.5814854	44.404245	-175.8637285	49.57805574	-120.4013941
4.36	436	0.81	0.065	0.812	-10.886202	-53.2277982	45.9512316	-176.4481457	50.133825	-121.0316479
4.37	437	0.826	0.078	0.807	-7.9641162	-59.2438572	49.2170922	-177.0554812	50.75261964	-121.7249271
4.38	438	0.835	0.098	0.786	0.6875496	-69.041439	57.3530958	-177.6800054	51.45735798	-122.5499866
4.39	439	0.821	0.096	0.799	13.2926256	-79.1254998	61.5356892	-178.2472338	52.25949918	-123.4552603
4.4	440	0.83	0.057	0.775	11.745639	-85.370742	54.43101	-178.7571664	53.1132066	-124.2688606
4.41	441	0.838	0.082	0.754	18.907614	-92.7619002	46.9252602	-179.1238595	54.03566898	-124.9793285
4.42	442	0.871	0.08	0.748	18.9649098	-99.3509172	37.0130868	-179.3759611	55.02115674	-125.5408274
4.43	443	0.883	0.239	0.724	40.2789474	-103.4762148	31.1116194	-179.3415836	56.04675156	-126.0163825
4.44	444	0.926	-0.057	0.73	38.0444112	-108.289062	31.8564648	-179.3530427	57.11245344	-126.5033968
4.45	445	0.951	0.129	0.706	35.4088044	-110.294415	27.501984	-179.3186653	58.20107364	-126.9159266
4.46	446	1.005	0.233	0.68	69.900876	-120.7222506	24.6944898	-178.9061355	59.39282628	-127.2826197
4.47	447	0.982	-0.092	0.777	71.333271	-124.045407	27.9030546	-178.5279832	60.61322682	-127.700879
4.48	448	1.011	-0.033	0.795	57.2385042	-123.0713784	26.8717302	-178.2816113	61.83362736	-128.1076792
4.49	449	0.951	0.018	0.79	45.7220484	-124.2745902	25.0955604	-178.1326422	63.05975748	-128.4801019
4.5	450	0.905	0.044	0.702	33.5753388	-125.477802	21.7151082	-178.0524281	64.29734676	-128.7894992
4.51	451	0.969	0.036	0.578	27.6165756	-115.3364454	20.1681216	-178.0295098	65.43753318	-129.093167
4.52	452	0.984	0.063	0.524	26.8144344	-110.1225276	18.621135	-178.0008619	66.53188296	-129.3739164
4.53	453	0.964	0.075	0.575	33.804522	-108.1744704	15.5844576	-177.8404336	67.59758484	-129.5916404
4.54	454	0.907	0.039	0.571	39.6486936	-101.6427492	15.5844576	-177.6341687	68.60599092	-129.8150941
4.55	455	0.893	0.018	0.478	38.6173692	-90.0117018	15.9282324	-177.4737405	69.48834624	-130.0729252
4.56	456	0.894	0.026	0.312	30.5386614	-79.2400914	17.5898106	-177.4680109	70.2732987	-130.4109704
4.57	457	0.918	-0.018	0.204	23.6058696	-77.2347384	19.1367972	-177.5997913	71.04106242	-130.8177706
4.58	458	0.964	0.004	0.197	16.7303736	-79.068204	18.5065434	-177.8060561	71.83174446	-131.2245707
4.59	459	0.972	-0.035	0.173	12.4904844	-82.9070226	18.2773602	-178.0696168	72.6510744	-131.6485597
4.6	460	0.991	-0.044	0.128	6.302538	-90.3554766	17.4179232	-178.3962029	73.56207762	-132.066819
4.61	461	0.989	-0.012	0.119	0.0572958	-96.829902	14.3812458	-178.7056002	74.51891748	-132.4048642
4.62	462	0.975	-0.047	0.114	-0.286479	-99.2936214	11.8602306	-178.9634313	75.50440524	-132.6798841
4.63	463	0.967	-0.072	0.111	-1.9480572	-97.8039306	9.1100322	-179.158237	76.47270426	-132.8804194
4.64	464	0.904	-0.075	0.133	-1.718874	-92.7046044	4.9847346	-179.2155328	77.38943706	-132.926256
4.65	465	0.866	-0.101	0.095	-1.3178034	-85.8864042	2.1772404	-179.1926145	78.24887406	-132.9033377
4.66	466	0.722	-0.108	0.059	-3.151269	-80.0995284	0.1145916	-179.0551046	79.0395561	-132.7371799
4.67	467	0.683	-0.072	0.08	-2.2345362	-74.0834694	-1.4896908	-178.8030031	79.77294234	-132.4736192
4.68	468	0.657	-0.101	0.075	-1.145916	-67.2652692	-0.6302538	-178.5795494	80.43757362	-132.2387064
4.69	469	0.629	-0.102	0.072	-1.3750992	-62.1086472	0	-178.3790141	81.05063868	-132.0324415
4.7	470	0.673	-0.084	0.073	-0.6302538	-56.3217714	-0.286479	-178.189938	81.61213752	-131.8376358
4.71	471	0.733	-0.084	0.074	0.6875496	-51.6235158	-1.3750992	-177.8518928	82.11634056	-131.5167793
4.72	472	0.814	-0.072	0.074	1.6042824	-45.9512316	-3.5523396	-177.330501	82.56897738	-131.0068467
4.73	473	0.807	-0.068	0.09	2.7501984	-40.7946096	-5.0420304	-176.6429514	82.97004798	-130.3536746
4.74	474	0.875	-0.038	0.109	2.0626488	-32.5440144	-6.0733548	-175.8694581	83.28517488	-129.5916404
4.75	475	0.916	-0.031	0.081	0.2291832	-26.9863218	-6.5317212	-175.0845056	83.55446514	-128.8124176
4.76	476	0.933	-0.01	0.075	-0.8021412	-23.8923486	-6.2452422	-174.2709053	83.78364834	-127.9930876
4.77	477	0.929	0.002	0.076	-1.2032118	-20.912967	-5.0993262	-173.5489782	83.98418364	-127.2539718
4.78	478	0.934	0.023	0.071	-3.437748	-17.5325148	-3.8388186	-172.9760202	84.15034146	-126.6466363
4.79	479	0.936	0.043	0.068	-5.72958	-14.5531332	-2.578311	-172.5634904	84.29358096	-126.1710812
4.8	480	0.949	0.055	0.05	-7.448454	-11.745639	-1.6042824	-172.0420987	84.4253613	-125.5752049
4.81	481	0.969	0.064	0.033	-9.1100322	-9.0527364	-0.1145916	-171.9733437	84.511305	-125.4147766
4.82	482	0.977	0.071	0.017	-10.5424272	-7.0473834	1.145916	-172.0879353	84.58578954	-125.4205062
4.83	483	0.973	0.071	0.005	-10.886202	-6.6463128	2.7501984	-172.3744143	84.6545445	-125.5981232
4.84	484	0.965	0.064	0.012	-9.740286	-6.016059	4.870143	-172.8958061	84.72329946	-126.0278417
4.85	485	0.959	0.052	0.021	-8.9381448	-5.3858052	7.0473834	-173.4458458	84.80924316	-126.4862081
4.86	486	0.952	0.045	0.023	-8.880849	-5.443101	8.7662574	-174.4198744	84.87226854	-127.374293
4.87	487	0.948	0.035	0.035	-7.9641162	-6.9327918	9.740286	-175.502765	84.95248266	-128.3826991
4.88	488	0.944	0.026	0.052	-6.4744254	-8.2505952	9.9694692	-176.6085739	85.03842636	-129.4312122
4.89	489	0.962	0.012	0.09	-5.72958	-6.0733548	9.1100322	-177.6685462	85.10718132	-130.4338887
4.9	490	0.982	0.019	0.122	-5.6149884	-2.1199446	7.5057498	-178.3904733	85.1129109	-131.09852
4.91	491	0.984	0.021	0.135	-4.297185	0.859437	6.2452422	-179.1696962	85.10718132	-131.8433654
4.92	492	1.001	0.025	0.147	-3.0939732	3.3804522	5.443101	-179.8515162	85.07280384	-132.4908079
4.93	493	1.009	0.024	0.164	-2.1772404	4.297185	5.0993262	179.5192006	85.03269678	-133.0981434
4.94	494	1.011	0.013	0.164	-1.7761698	3.4950438	5.443101	178.871758	84.9983193	-133.7283972
4.95	495	1.031	0	0.158	-1.8334656	1.8334656	5.6722842	178.3503662	84.92956434	-134.2326002
4.96	496	1.025	0	0.157	-1.718874	1.0313244	5.2139178	177.7487603	84.91810518	-134.8170174
4.97	497	1.037	-0.003	0.151	-2.3491278	1.6042824	5.0420304	177.1586136	84.90091644	-135.3842458
4.98	498	1.049	-0.005	0.141	-3.151269	1.8334656	4.870143	176.5856556	84.8837277	-135.9285559
4.99	499	1.048	0.004	0.132	-3.8961144	1.4896908	4.6409598	176.0298863	84.86080938	-136.4442181
5	500	1.047	0.004	0.132	-3.4950438	0.8021412	4.9274388	175.6173566	84.83216148	-136.8281
5.01	501	1.045	-0.005	0.138	-3.2085648	0.572958	5.6722842	174.9584549	84.82070232	-137.4526242
5.02	502	1.036	-0.008	0.143	-3.3804522	0.8021412	6.016059	174.2709053	84.80924316	-138.1115259
5.03	503	1.033	-0.015	0.138	-2.9220858	1.2032118	6.2452422	173.5661669	84.79205442	-138.7876163
5.04	504	1.025	-0.015	0.138	-2.4064236	1.7761698	5.9014674	172.9187244	84.7691361	-139.4121406
5.05	505	1.023	-0.025	0.137	-1.4896908	2.5210152	5.3858052	172.3457664	84.7118403	-139.9736394
5.06	506	1.02	-0.031	0.136	-1.0886202	2.4637194	4.5263682	171.8759408	84.6831924	-140.4320058
5.07	507	1.013	-0.031	0.137	-0.5156622	2.1199446	3.437748	171.5264365	84.6545445	-140.7757806
5.08	508	1.013	-0.032	0.139	0.0572958	1.8334656	2.1772404	171.3201716	84.63162618	-140.9820455
5.09	509	1.016	-0.03	0.133	0.6302538	2.005353	0.7448454	171.2743349	84.61443744	-141.0336117
5.1	510	1.018	-0.027	0.128	0.9167328	1.9480572	-0.6302538	171.4576815	84.56287122	-140.8674539
5.11	511	1.018	-0.024	0.129	1.2032118	1.6042824	-1.718874	171.6754055	84.55141206	-140.661189
5.12	512	1.019	-0.02	0.132	1.2032118	1.432395	-2.6929026	171.9848029	84.5399529	-140.3632508
5.13	513	1.017	-0.018	0.128	1.0313244	0.9740286	-3.3804522	172.3572256	84.53422332	-139.9965577
5.14	514	1.012	-0.015	0.119	0.6875496	0.1145916	-3.9534102	172.7754849	84.53422332	-139.584028
5.15	515	1.005	-0.008	0.116	0.572958	-0.6302538	-4.1252976	173.4171979	84.5399529	-138.9480446
5.16	516	1.002	-0.007	0.112	0.4010706	-0.859437	-4.2398892	173.8583755	84.55141206	-138.5068669
5.17	517	0.995	-0.004	0.11	0.4010706	-1.2605076	-4.3544808	174.3110123	84.5686008	-138.0599597
5.18	518	0.989	-0.001	0.109	0.7448454	-1.5469866	-4.297185	174.7579196	84.59151912	-137.618782
5.19	519	0.986	0.003	0.109	0.9740286	-1.3750992	-4.1252976	175.1933677	84.60870786	-137.1890635
5.2	520	0.986	0.005	0.111	1.145916	-1.432395	-3.8388186	175.9095652	84.62016702	-136.4785956
5.21	521	0.988	0.007	0.111	1.2605076	-1.3178034	-3.4950438	176.293447	84.63162618	-136.1119025
5.22	522	0.992	0.01	0.113	0.9167328	-1.2605076	-2.9793816	176.6143035	84.64881492	-135.7967756
5.23	523	0.994	0.012	0.112	0.572958	-1.432395	-2.4064236	176.8721346	84.66600366	-135.5446741
5.24	524	0.998	0.013	0.109	0	-1.432395	-1.7761698	177.0669403	84.67746282	-135.3555979
5.25	525	1.001	0.013	0.099	-0.286479	-1.718874	-1.3178034	177.903459	84.71756988	-134.5076201
5.26	526	1	0.011	0.097	-0.2291832	-2.2345362	-0.859437	177.9951323	84.7404882	-134.4159468
5.27	527	1.003	0.01	0.101	0	-2.2345362	-0.4010706	178.0409689	84.76340652	-134.3701102
5.28	528	1.006	0.008	0.11	0.0572958	-2.1772404	-0.1145916	178.0581577	84.78632484	-134.358651
5.29	529	1.006	0.007	0.115	-0.1145916	-2.4064236	0.2291832	178.0295098	84.80924316	-134.3872989
5.3	530	1.011	0.009	0.121	-0.2291832	-2.6356068	0.6875496	178.4534987	84.80351358	-133.9575804
5.31	531	1.015	0.011	0.121	-0.7448454	-2.86479	1.0886202	178.3217183	84.83216148	-134.0779016
5.32	532	1.01	0.01	0.124	-1.0886202	-3.3231564	1.7761698	178.1097239	84.86653896	-134.2841665
5.33	533	1.006	0.008	0.124	-1.2605076	-3.4950438	2.4637194	177.8175153	84.90091644	-134.5649159
5.34	534	1.004	0.005	0.115	-1.3178034	-3.3804522	2.86479	177.4737405	84.93529392	-134.8915019
5.35	535	1.003	0.002	0.11	-0.9740286	-3.5523396	3.0366774	177.3133123	84.95821224	-135.0462006
5.36	536	1.003	-0.003	0.111	-0.4010706	-3.437748	3.2085648	176.9408896	84.99258972	-135.4186233
5.37	537	1.002	-0.004	0.113	-0.0572958	-3.0939732	3.0939732	176.5741964	85.02123762	-135.7853164
5.38	538	1.007	-0.009	0.115	0.286479	-2.5210152	2.578311	176.2705287	85.04415594	-136.0947137
5.39	539	1.007	-0.005	0.112	0.4583664	-2.291832	2.1199446	176.0241568	85.06707426	-136.3468153
5.4	540	1.006	-0.005	0.115	0.9167328	-2.005353	1.7761698	176.0413455	85.06134468	-136.3410857
5.41	541	1.007	-0.007	0.112	0.859437	-1.718874	1.5469866	175.8637285	85.07853342	-136.5244322
5.42	542	1.007	-0.008	0.105	0.6875496	-1.8907614	1.145916	175.7319482	85.09572216	-136.6676717
5.43	543	1.001	-0.009	0.099	0.4010706	-2.1199446	0.8021412	175.6288157	85.11864048	-136.7765338
5.44	544	0.998	-0.01	0.098	0.3437748	-2.1772404	0.5156622	175.5543312	85.13582922	-136.8567479
5.45	545	0.998	-0.01	0.096	0.3437748	-1.5469866	0.0572958	175.8923764	85.16447712	-136.5187027
5.46	546	0.993	-0.009	0.09	0.0572958	-1.432395	-0.4583664	175.9439426	85.18166586	-136.472866
5.47	547	0.99	-0.006	0.089	0.0572958	-1.0313244	-0.7448454	176.0298863	85.19312502	-136.3869223
5.48	548	0.99	-0.006	0.095	0.1718874	-0.4583664	-0.9740286	176.1502075	85.1988546	-136.2666011
5.49	549	0.992	-0.009	0.096	0.1718874	0	-1.0886202	176.2877174	85.1988546	-136.1348208
5.5	550	0.992	-0.008	0.094	0	0.4010706	-1.2605076	176.8606754	85.1988546	-135.5561332
5.51	551	0.99	-0.007	0.095	0	0.4583664	-1.3178034	177.0211037	85.19312502	-135.395705
5.52	552	0.991	-0.004	0.096	-0.286479	0.8021412	-1.5469866	177.2101798	85.18739544	-135.2066288
5.53	553	0.991	-0.003	0.096	-0.5156622	1.0886202	-1.7761698	177.4164447	85.17593628	-134.9889048
5.54	554	0.987	-0.001	0.096	-0.6302538	1.5469866	-1.7761698	177.6227096	85.16447712	-134.7769103
5.55	555	0.987	0	0.096	-0.6302538	1.9480572	-1.5469866	178.1154535	85.1415588	-134.2727073
5.56	556	0.989	0.002	0.099	-0.3437748	2.2345362	-1.4896908	178.2930704	85.11864048	-134.0950903
5.57	557	0.995	0.004	0.096	-0.286479	2.4637194	-1.3178034	178.4477691	85.09572216	-133.9346621
5.58	558	1.001	0.004	0.095	-0.286479	2.4637194	-1.145916	178.5795494	85.07280384	-133.7971522
5.59	559	1.005	0.003	0.093	-0.286479	2.3491278	-0.9167328	178.6884115	85.04988552	-133.6882901
5.6	560	1.003	0.004	0.095	-0.1718874	2.2345362	-0.6302538	179.2900174	85.0269672	-133.0809547
5.61	561	1	0.005	0.1	0	2.3491278	-0.2291832	179.3186653	85.00404888	-133.0580363
5.62	562	0.997	0.006	0.104	0.1718874	2.4637194	0.0572958	179.3072061	84.97540098	-133.0694955
5.63	563	1.001	0.005	0.106	0.5156622	2.7501984	0.3437748	179.267099	84.94675308	-133.1096026
5.64	564	1.003	0.004	0.11	0.859437	2.86479	0.5156622	179.2155328	84.91810518	-133.1726279
5.65	565	1.003	0.002	0.112	0.9740286	2.8074942	0.572958	179.4217977	84.87799812	-132.9778222
5.66	566	1.004	0.003	0.112	0.9167328	2.6356068	0.6875496	179.3473132	84.84935022	-133.0637659
5.67	567	1.003	0.002	0.111	0.9167328	2.4637194	0.7448454	179.267099	84.8264319	-133.1497096
5.68	568	1.003	0.001	0.115	1.0313244	2.3491278	0.859437	179.1754258	84.80351358	-133.2528421
5.69	569	1.006	0	0.116	1.0886202	2.4064236	0.9167328	179.0780229	84.78059526	-133.3617041
5.7	570	1.005	0.001	0.118	1.0313244	2.3491278	1.0886202	179.2155328	84.73475862	-133.2413829
5.71	571	1.007	0	0.119	1.0886202	2.4064236	1.145916	179.0952116	84.7118403	-133.3674337
5.72	572	1.008	-0.002	0.119	1.0886202	2.3491278	1.2032118	178.9748905	84.6831924	-133.499214
5.73	573	1.006	-0.001	0.118	0.9167328	2.3491278	1.145916	178.8545693	84.66027408	-133.6309943
5.74	574	1.005	0	0.117	0.8021412	2.2345362	0.9740286	178.7571664	84.63735576	-133.7341268
5.75	575	1.005	-0.003	0.115	0.7448454	2.2345362	0.9167328	178.8832172	84.60297828	-133.6195352
5.76	576	1.003	-0.004	0.115	0.7448454	1.8907614	0.859437	178.7972735	84.58005996	-133.7112085
5.77	577	1.003	-0.004	0.117	0.6875496	1.6042824	0.7448454	178.7285185	84.56287122	-133.7914226
5.78	578	1.003	-0.003	0.117	0.572958	1.432395	0.6302538	178.6654931	84.55141206	-133.8601775
5.79	579	1.003	-0.004	0.116	0.5156622	1.432395	0.5156622	178.6081973	84.53422332	-133.9174733
5.8	580	1.003	-0.006	0.117	0.5156622	1.432395	0.286479	178.8488397	84.48838668	-133.6882901
5.81	581	1.003	-0.006	0.12	0.572958	1.5469866	0.0572958	178.8431101	84.47692752	-133.6940197
5.82	582	1.001	-0.005	0.12	0.4583664	1.3750992	-0.1145916	178.8602989	84.45973878	-133.6825606
5.83	583	1.001	-0.004	0.121	0.4010706	1.3178034	-0.286479	178.8946763	84.44827962	-133.6539127
5.84	584	0.998	-0.004	0.12	0.286479	1.3750992	-0.4583664	178.9462426	84.43109088	-133.608076
5.85	585	0.997	-0.002	0.119	0.2291832	1.2605076	-0.6302538	179.3645019	84.3967134	-133.1955463
5.86	586	0.994	-0.001	0.119	0.1145916	1.0313244	-0.8021412	179.444716	84.38525424	-133.1153321
5.87	587	0.996	-0.001	0.119	0.1718874	0.9740286	-0.859437	179.5363893	84.37379508	-133.0236589
5.88	588	0.999	-0.001	0.117	0.0572958	1.4896908	-1.0886202	179.6452513	84.35660634	-132.9147968
5.89	589	0.998	-0.001	0.114	0.0572958	1.8334656	-1.0886202	179.7598429	84.3394176	-132.8002052
5.9	590	0.995	-0.001	0.111	0.1145916	2.005353	-1.0313244	-179.9260007	84.31649928	-132.4908079
5.91	591	0.996	0	0.111	0.4010706	2.4637194	-1.0886202	-179.8228683	84.29358096	-132.3876755
5.92	592	1.001	0	0.113	0.6302538	3.151269	-0.9740286	-179.7254654	84.25920348	-132.3017318
5.93	593	1	0.002	0.113	0.572958	3.0366774	-0.859437	-179.6452513	84.23055558	-132.2215177
5.94	594	0.999	0.005	0.111	0.286479	2.86479	-0.5156622	-179.5936851	84.20190768	-132.1814106
5.95	595	0.998	0.005	0.112	0	2.4637194	-0.2291832	-179.1926145	84.17898936	-131.7746104
5.96	596	0.997	0.001	0.113	-0.1145916	2.291832	0	-179.1983441	84.15607104	-131.78034
5.97	597	0.996	0	0.11	-0.286479	1.7761698	0	-179.2098032	84.1388823	-131.7917992
5.98	598	0.998	0	0.116	-0.2291832	1.3750992	-0.0572958	-179.2098032	84.12742314	-131.7860696
5.99	599	1.002	0	0.121	-0.1145916	1.4896908	-0.1145916	-179.2040737	84.1102344	-131.7746104
6	600	1.005	0.001	0.125	-0.1145916	1.6615782	-0.1718874	-178.8087326	84.06439776	-131.3792694
6.01	601	1.005	0.002	0.127	0.0572958	1.6615782	-0.0572958	-178.8087326	84.04720902	-131.3792694
6.02	602	1.005	0.001	0.128	0.286479	1.9480572	0	-178.8144622	84.03002028	-131.3907286
6.03	603	1.006	0	0.129	0.4583664	2.005353	0.0572958	-178.8259214	84.00710196	-131.4079173
6.04	604	1.005	0	0.129	0.572958	1.8907614	0.0572958	-178.8373805	83.98991322	-131.4193765
6.05	605	1.003	0.001	0.128	0.572958	1.7761698	0.0572958	-178.6024678	83.94980616	-131.1959228
6.06	606	1.003	0.002	0.126	0.6302538	1.8334656	0.0572958	-178.6139269	83.92688784	-131.2131116
6.07	607	1.001	0.003	0.124	0.8021412	2.005353	0.1145916	-178.6253861	83.9096991	-131.2303003
6.08	608	1.001	0.004	0.122	0.6875496	1.9480572	0.1718874	-178.6425748	83.89251036	-131.2589482
6.09	609	1.003	0.004	0.126	0.8021412	1.4896908	0.286479	-178.6712227	83.87532162	-131.2933257
6.1	610	1.006	0	0.129	0.6302538	1.3178034	0.4010706	-178.4993353	83.83521456	-131.1328975
6.11	611	1.007	-0.001	0.125	0.4583664	1.2032118	0.4583664	-178.545172	83.8237554	-131.1844637
6.12	612	1.006	-0.003	0.127	0.4583664	1.2032118	0.4583664	-178.5910086	83.81229624	-131.2303003
6.13	613	1.005	-0.003	0.13	0.4583664	0.9167328	0.3437748	-178.6253861	83.80656666	-131.2704074
6.14	614	1.004	-0.002	0.13	0.286479	0.6875496	0.2291832	-178.6483044	83.7951075	-131.2990553
6.15	615	1	-0.002	0.128	0.0572958	0.6875496	0.1145916	-178.2185859	83.76073002	-130.8636072
6.16	616	0.998	0	0.124	-0.1718874	0.8021412	0	-178.2185859	83.75500044	-130.8693368
6.17	617	0.998	-0.002	0.122	0	1.0313244	-0.2291832	-178.2013972	83.74354128	-130.852148
6.18	618	0.997	0	0.122	0.0572958	0.859437	-0.2291832	-178.1842084	83.73208212	-130.8292297
6.19	619	0.997	0	0.124	0.1145916	0.6302538	-0.2291832	-178.1612901	83.72635254	-130.812041
6.2	620	0.999	0.002	0.124	0.1718874	0.5156622	-0.1718874	-177.5711434	83.69770464	-130.2276238
6.21	621	1.002	0.002	0.125	0.286479	0.4583664	-0.1145916	-177.5596842	83.69197506	-130.2161647
6.22	622	1.003	0.003	0.126	0.2291832	0	0	-177.5596842	83.69197506	-130.2161647
6.23	623	1.003	0.002	0.127	0.1718874	-0.1145916	0.0572958	-177.5654138	83.69197506	-130.2276238
6.24	624	1.004	0.002	0.127	0.0572958	-0.4010706	0.1718874	-177.5768729	83.69770464	-130.239083
6.25	625	1.005	0.002	0.128	0.1145916	-0.7448454	0.286479	-177.2445573	83.67478632	-129.9067673
6.26	626	1.006	0.002	0.13	0.1718874	-0.9740286	0.4583664	-177.2789348	83.68624548	-129.9468744
6.27	627	1.004	0.003	0.131	0.0572958	-1.2032118	0.572958	-177.3247714	83.69770464	-129.992711
6.28	628	1.004	0.002	0.13	0.0572958	-1.2032118	0.6875496	-177.3763376	83.7091638	-130.0500068
6.29	629	1.004	0.001	0.13	0.0572958	-0.9740286	0.8021412	-177.4450926	83.72062296	-130.1187618
6.3	630	1.003	0	0.129	0.1145916	-0.8021412	0.7448454	-177.3362306	83.7091638	-130.0098998
6.31	631	1.002	0	0.13	0.286479	-0.7448454	0.859437	-177.4049855	83.71489338	-130.0843843
6.32	632	1.003	-0.001	0.127	0.286479	-0.6875496	0.7448454	-177.4622813	83.72062296	-130.1416801
6.33	633	1.002	-0.002	0.125	0.4583664	-0.4583664	0.7448454	-177.5253067	83.72635254	-130.2104351
6.34	634	1.002	-0.002	0.124	0.4583664	-0.572958	0.6302538	-177.5768729	83.73208212	-130.2677309
6.35	635	1	-0.001	0.124	0.5156622	-0.6875496	0.5156622	-177.4909292	83.73208212	-130.1932463
6.36	636	0.999	-0.001	0.122	0.3437748	-0.572958	0.5156622	-177.5310363	83.7378117	-130.2333534
6.37	637	1	-0.002	0.119	0.2291832	-0.4583664	0.4010706	-177.5654138	83.74354128	-130.2734605
6.38	638	0.997	-0.002	0.117	0.1145916	-0.6302538	0.4010706	-177.5997913	83.74927086	-130.3078379
6.39	639	0.997	-0.001	0.117	0.0572958	-0.6302538	0.4010706	-177.6341687	83.75500044	-130.3422154
6.4	640	0.997	-0.002	0.119	0	-0.6875496	0.3437748	-177.4336334	83.7664596	-130.1416801
6.41	641	0.995	0	0.12	-0.2291832	-0.5156622	0.3437748	-177.4680109	83.77218918	-130.1760576
6.42	642	0.998	0	0.12	-0.2291832	-0.3437748	0.3437748	-177.5023884	83.77218918	-130.2047055
6.43	643	0.999	0	0.121	-0.286479	-0.286479	0.4583664	-177.548225	83.77791876	-130.2505421
6.44	644	0.996	-0.001	0.122	-0.4010706	-0.4583664	0.5156622	-177.5997913	83.78364834	-130.2963788
6.45	645	0.996	-0.001	0.121	-0.3437748	-0.286479	0.5156622	-177.4737405	83.78364834	-130.170328
6.46	646	0.998	-0.002	0.122	-0.286479	-0.2291832	0.5156622	-177.5253067	83.78364834	-130.2161647
6.47	647	0.996	0	0.121	-0.1718874	-0.1145916	0.4010706	-177.5654138	83.78364834	-130.2562717
6.48	648	0.997	0	0.124	0	-0.1145916	0.4010706	-177.5997913	83.78937792	-130.2963788
6.49	649	1.001	-0.001	0.124	0.1145916	0.2291832	0.3437748	-177.6398983	83.78364834	-130.3307563
6.5	650	1.003	0	0.124	0.2291832	0.2291832	0.3437748	-177.4049855	83.7664596	-130.1015731
6.51	651	1.002	-0.001	0.124	0.3437748	0.2291832	0.3437748	-177.439363	83.76073002	-130.1359505
6.52	652	1.005	0	0.126	0.4583664	0.3437748	0.286479	-177.4622813	83.76073002	-130.1645984
6.53	653	1.005	0	0.124	0.4583664	0.4010706	0.286479	-177.4851997	83.75500044	-130.1932463
6.54	654	1.004	0	0.124	0.572958	0.2291832	0.4010706	-177.5195771	83.75500044	-130.239083
6.55	655	1.003	0	0.123	0.6875496	0.2291832	0.572958	-177.2961235	83.74354128	-130.0213589
6.56	656	1.003	-0.002	0.124	0.7448454	0.3437748	0.572958	-177.3476897	83.7378117	-130.0786547
6.57	657	1.003	-0.001	0.124	0.6875496	0.2291832	0.572958	-177.3935264	83.7378117	-130.1359505
6.58	658	1.001	-0.002	0.123	0.6875496	0.1718874	0.5156622	-177.4336334	83.7378117	-130.1817872
6.59	659	1.001	-0.003	0.122	0.6875496	0.1718874	0.4010706	-177.4680109	83.73208212	-130.2218942
6.6	660	0.999	-0.004	0.122	0.6875496	0.2291832	0.4010706	-177.4450926	83.73208212	-130.2104351
6.61	661	0.998	-0.003	0.123	0.7448454	0.2291832	0.286479	-177.4680109	83.72635254	-130.239083
6.62	662	0.997	-0.004	0.121	0.8021412	0.286479	0.286479	-177.4909292	83.72635254	-130.2677309
6.63	663	0.997	-0.003	0.124	0.7448454	0.286479	0.1718874	-177.5023884	83.72062296	-130.2849196
6.64	664	0.999	-0.003	0.122	0.8021412	0.4583664	0	-177.4966588	83.71489338	-130.2963788
6.65	665	0.999	-0.003	0.121	0.8021412	0.4583664	0	-177.4049855	83.71489338	-130.2104351
6.66	666	1	-0.003	0.122	0.6302538	0.4583664	-0.0572958	-177.3935264	83.7091638	-130.2047055
6.67	667	1	-0.002	0.123	0.6875496	0.5156622	-0.0572958	-177.3877968	83.70343422	-130.2047055
6.68	668	0.998	-0.003	0.122	0.8021412	0.4583664	0	-177.3820672	83.69770464	-130.2047055
6.69	669	0.999	-0.002	0.121	0.7448454	0.572958	-0.0572958	-177.3648785	83.69197506	-130.1989759
6.7	670	1	-0.001	0.122	0.7448454	0.5156622	-0.0572958	-177.2044502	83.6805159	-130.0442773
6.71	671	0.998	-0.001	0.123	0.4010706	0.2291832	-0.4583664	-177.1586136	83.67478632	-130.0041702
6.72	672	0.998	-0.002	0.121	0.572958	0.4010706	-0.572958	-177.1013178	83.67478632	-129.952604
6.73	673	0.998	0	0.123	0.6302538	0.4583664	-0.572958	-177.044022	83.66905674	-129.9010378
6.74	674	0.999	0	0.127	0.4010706	0.3437748	-0.5156622	-176.9924558	83.66332716	-129.8552011
6.75	675	1	-0.001	0.126	0.3437748	0.4583664	-0.4010706	-176.7804613	83.651868	-129.6489362
6.76	676	1.001	-0.002	0.124	0.2291832	0.572958	-0.286479	-176.757543	83.64613842	-129.6260179
6.77	677	1.004	-0.003	0.125	0.2291832	0.6302538	-0.3437748	-176.7231655	83.64040884	-129.5916404
6.78	678	1.004	-0.003	0.127	0.0572958	0.3437748	-0.4010706	-176.688788	83.63467926	-129.557263
6.79	679	1.004	0	0.128	0	0.1145916	-0.3437748	-176.6544106	83.63467926	-129.5228855
6.8	680	1.004	-0.001	0.125	-0.1718874	0.2291832	-0.4010706	-176.4825232	83.61749052	-129.3509981
6.81	681	1.001	0	0.125	-0.286479	0.2291832	-0.4583664	-176.4424161	83.61749052	-129.3051614
6.82	682	0.998	0	0.125	-0.1145916	0.2291832	-0.3437748	-176.4137682	83.61176094	-129.2765135
6.83	683	1	0	0.126	-0.2291832	0.1145916	-0.2291832	-176.3908499	83.61176094	-129.2535952
6.84	684	1	0	0.126	-0.1718874	-0.1145916	-0.1145916	-176.3851203	83.61176094	-129.2421361
6.85	685	1.001	0	0.126	-0.0572958	-0.286479	0	-175.9095652	83.60030178	-128.7665809
6.86	686	1.002	0	0.126	0	-0.3437748	0	-175.9038356	83.60603136	-128.7665809
6.87	687	1.002	0	0.127	0.0572958	-0.1718874	0	-175.9038356	83.60603136	-128.7665809
6.88	688	1.002	0	0.127	0.0572958	-0.0572958	0.0572958	-175.9095652	83.60603136	-128.7723105
6.89	689	1.002	0	0.125	0	-0.1718874	0.1145916	-175.9210243	83.60603136	-128.7837697
6.9	690	1.001	-0.001	0.125	0.0572958	-0.2291832	0.2291832	-175.7949736	83.58884262	-128.6577189
6.91	691	1.001	0	0.124	0	-0.2291832	0.286479	-175.8236215	83.5945722	-128.6863668
6.92	692	1	0	0.125	-0.1145916	-0.2291832	0.286479	-175.8522694	83.5945722	-128.7150147
6.93	693	1.002	0	0.126	-0.1718874	-0.286479	0.286479	-175.8751877	83.60030178	-128.737933
6.94	694	1.003	0	0.125	-0.286479	-0.3437748	0.4010706	-175.9152947	83.60603136	-128.7723105
6.95	695	1.002	-0.001	0.126	-0.5156622	-0.572958	0.5156622	-175.9382131	83.60030178	-128.7894992
6.96	696	1.006	0	0.127	-0.6875496	-0.7448454	0.572958	-175.9897793	83.60603136	-128.8353359
6.97	697	1.005	0	0.127	-1.0886202	-1.0886202	0.7448454	-176.0642638	83.61749052	-128.8926317
6.98	698	1.004	-0.001	0.126	-1.0886202	-1.432395	0.859437	-176.1387484	83.63467926	-128.9613866
6.99	699	1.003	-0.002	0.129	-1.145916	-1.5469866	0.9167328	-176.2246921	83.651868	-129.0358712
7	700	1.003	-0.002	0.13	-1.145916	-1.5469866	0.859437	-176.2762583	83.65759758	-129.0759782
7.01	701	1.001	0	0.126	-1.2032118	-1.432395	0.8021412	-176.3507428	83.67478632	-129.1390036
7.02	702	1.001	-0.001	0.124	-1.0886202	-1.432395	0.8021412	-176.4252274	83.68624548	-129.202029
7.03	703	0.999	-0.002	0.124	-1.0313244	-1.8334656	0.859437	-176.4997119	83.7091638	-129.2650544
7.04	704	1	-0.003	0.125	-0.859437	-2.1199446	0.8021412	-176.5627373	83.73208212	-129.3223502
7.05	705	1.003	-0.003	0.127	-0.859437	-2.1199446	0.8021412	-176.5913852	83.74354128	-129.3452685
7.06	706	1.005	-0.003	0.129	-0.7448454	-2.1199446	0.6875496	-176.648681	83.7664596	-129.3911051
7.07	707	1.004	-0.003	0.13	-0.8021412	-2.2345362	0.6875496	-176.7059768	83.78937792	-129.4426714
7.08	708	1.004	-0.003	0.129	-0.859437	-2.3491278	0.6302538	-176.757543	83.81229624	-129.4827784
7.09	709	1.003	-0.003	0.126	-0.8021412	-2.5210152	0.6302538	-176.8033796	83.84094414	-129.5228855
7.1	710	1.002	-0.005	0.124	-0.6875496	-2.6356068	0.5156622	-176.8320275	83.85813288	-129.5458038
7.11	711	1.002	-0.005	0.123	-0.572958	-2.578311	0.4010706	-176.8606754	83.88678078	-129.5687221
7.12	712	1.002	-0.006	0.12	-0.4583664	-2.4637194	0.2291832	-176.866405	83.9096991	-129.5687221
7.13	713	1	-0.004	0.12	-0.3437748	-2.3491278	0	-176.8549459	83.93261742	-129.557263
7.14	714	0.999	-0.004	0.119	-0.2291832	-1.9480572	-0.0572958	-176.8377571	83.94980616	-129.5343446
7.15	715	0.997	-0.005	0.117	-0.2291832	-1.6615782	-0.1718874	-176.8091092	83.97272448	-129.5056967
7.16	716	0.996	-0.005	0.113	-0.2291832	-1.5469866	-0.2291832	-176.7747317	83.98418364	-129.4655897
7.17	717	0.995	-0.004	0.113	-0.1145916	-1.3178034	-0.3437748	-176.7288951	84.00137238	-129.419753
7.18	718	0.997	-0.004	0.112	-0.0572958	-1.0886202	-0.4583664	-176.6715993	84.01283154	-129.3624572
7.19	719	0.998	-0.002	0.11	-0.1718874	-1.0886202	-0.4583664	-176.6200331	84.01856112	-129.3051614
7.2	720	0.997	-0.002	0.112	-0.1145916	-1.145916	-0.3437748	-176.4653344	84.04147944	-129.1504628
7.21	721	0.995	-0.002	0.112	-0.2291832	-0.9740286	-0.2291832	-176.4309569	84.0529386	-129.1160853
7.22	722	0.995	-0.002	0.112	-0.286479	-0.6875496	-0.286479	-176.402309	84.05866818	-129.0817078
7.23	723	0.994	-0.004	0.112	-0.1718874	-0.5156622	-0.2291832	-176.3736611	84.06439776	-129.0473303
7.24	724	0.994	-0.002	0.112	-0.1145916	-0.286479	-0.286479	-176.3450132	84.06439776	-129.0186824
7.25	725	0.994	-0.002	0.112	0	0.1145916	-0.286479	-176.2361512	84.0815865	-128.91555
7.26	726	0.995	-0.001	0.112	-0.0572958	0.286479	-0.2291832	-176.2189625	84.07585692	-128.8926317
7.27	727	0.996	0	0.112	-0.1145916	0.1718874	-0.2291832	-176.2017737	84.07585692	-128.8754429
7.28	728	0.999	0	0.112	-0.2291832	0.1145916	-0.0572958	-176.1960442	84.07585692	-128.8639838
7.29	729	0.999	0	0.115	-0.2291832	0.286479	0	-176.2075033	84.07012734	-128.8754429
7.3	730	1	0	0.116	-0.1718874	0.286479	0.1145916	-176.0184272	84.05866818	-128.6806372
7.31	731	1	-0.001	0.118	-0.0572958	0.5156622	0.1145916	-176.0413455	84.0529386	-128.7035555
7.32	732	1.002	0	0.119	-0.0572958	0.7448454	0.2291832	-176.0699934	84.04147944	-128.737933
7.33	733	1.001	-0.001	0.121	-0.0572958	0.7448454	0.286479	-176.1101005	84.03574986	-128.7723105
7.34	734	1.001	0	0.121	-0.0572958	0.7448454	0.3437748	-176.1502075	84.03002028	-128.8124176
7.35	735	1.001	-0.001	0.119	-0.0572958	0.6302538	0.4583664	-176.0528047	84.01283154	-128.7207443
