TimeStamp(s)	FrameCounter	AccX	AccY	AccZ	GyrX	GyrY	GyrZ	EulerX	EulerY	EulerZ
0.01	1	-0.019	-1.014	0.024	-4.6409598	4.1825934	1.3750992	92.14310556	-0.30366774	-18.95918022
0.02	2	-0.02	-1.012	0.019	-4.6409598	3.724227	1.7761698	92.09726892	-0.32658606	-18.92480274
0.03	3	-0.019	-1.012	0.016	-4.6982556	3.2658606	2.1199446	92.0457027	-0.34950438	-18.89615484
0.04	4	-0.023	-1.012	0.013	-4.9274388	2.6929026	2.4637194	91.99413648	-0.37815228	-18.86750694
0.05	5	-0.028	-1.009	0.015	-5.2139178	1.9480572	2.578311	91.92538152	-0.41252976	-18.8503182
0.06	6	-0.031	-1.008	0.014	-4.870143	1.718874	2.5210152	91.8738153	-0.43544808	-18.83885904
0.07	7	-0.038	-1.008	0.015	-4.2398892	1.2032118	2.4064236	91.82797866	-0.46409598	-18.82739988
0.08	8	-0.04	-1.008	0.013	-3.5523396	0.6875496	2.291832	91.79360118	-0.4870143	-18.8216703
0.09	9	-0.039	-1.012	0.015	-3.151269	0.4583664	2.0626488	91.7592237	-0.50993262	-18.81594072
0.1	10	-0.04	-1.015	0.018	-3.3804522	0.2291832	1.9480572	91.69619832	-0.5443101	-18.81594072
0.11	11	-0.039	-1.018	0.018	-3.437748	0.1718874	1.9480572	91.66182084	-0.56722842	-18.81594072
0.12	12	-0.035	-1.016	0.01	-3.4950438	0.286479	2.1772404	91.62744336	-0.59014674	-18.81594072
0.13	13	-0.031	-1.013	0.006	-3.724227	-0.2291832	2.4064236	91.5873363	-0.61306506	-18.81594072
0.14	14	-0.03	-1.01	0.008	-3.8388186	-0.9167328	2.86479	91.55295882	-0.64171296	-18.82739988
0.15	15	-0.027	-1.009	0.009	-3.8961144	-1.3750992	3.2658606	91.48993344	-0.67609044	-18.84458862
0.16	16	-0.028	-1.009	0.008	-4.010706	-2.1772404	3.6096354	91.44982638	-0.7161975	-18.86750694
0.17	17	-0.03	-1.011	0.002	-4.1252976	-3.2658606	3.8961144	91.40971932	-0.75057498	-18.90188442
0.18	18	-0.035	-1.007	0	-4.010706	-4.5263682	3.8961144	91.36961226	-0.79068204	-18.94772106
0.19	19	-0.038	-1.009	0.005	-3.8388186	-5.6149884	3.7815228	91.3295052	-0.82505952	-19.00501686
0.2	20	-0.04	-1.011	0.004	-4.1825934	-6.8182002	3.8388186	91.27793898	-0.86516658	-19.07377182
0.21	21	-0.041	-1.014	0.006	-4.8128472	-7.3911582	3.9534102	91.23210234	-0.89954406	-19.14825636
0.22	22	-0.04	-1.016	0.007	-5.72958	-7.6776372	4.1825934	91.17480654	-0.93965112	-19.22847048
0.23	23	-0.042	-1.015	0.008	-6.4171296	-7.8495246	4.3544808	91.11178116	-0.97975818	-19.3086846
0.24	24	-0.049	-1.009	0.006	-6.9327918	-8.307891	4.1825934	91.0430262	-1.01986524	-19.38889872
0.25	25	-0.053	-0.999	0.003	-6.9327918	-9.1100322	3.7815228	90.96281208	-1.0599723	-19.48630158
0.26	26	-0.052	-0.994	0.006	-6.4171296	-10.2559482	3.3231564	90.90551628	-1.0886202	-19.58943402
0.27	27	-0.048	-0.99	0.01	-6.2452422	-11.1153852	3.151269	90.8424909	-1.1172681	-19.69829604
0.28	28	-0.044	-0.994	0.012	-6.3598338	-12.605076	3.0366774	90.7851951	-1.14018642	-19.8243468
0.29	29	-0.039	-0.997	0.009	-6.6463128	-13.1207382	3.0939732	90.72216972	-1.16883432	-19.95612714
0.3	30	-0.037	-1.001	0	-6.875496	-13.6364004	3.3231564	90.64768518	-1.19748222	-20.09363706
0.31	31	-0.04	-1.003	-0.003	-7.2192708	-14.0947668	3.437748	90.57893022	-1.22613012	-20.23114698
0.32	32	-0.048	-1.001	-0.003	-7.0473834	-14.2093584	3.5523396	90.51017526	-1.2605076	-20.37438648
0.33	33	-0.056	-1.002	0	-6.6463128	-13.8655836	3.437748	90.44714988	-1.2891555	-20.5118964
0.34	34	-0.06	-1	0	-6.7609044	-13.3499214	3.5523396	90.3841245	-1.3178034	-20.64367674
0.35	35	-0.063	-0.996	0.002	-6.7036086	-12.7769634	3.437748	90.31536954	-1.35791046	-20.77545708
0.36	36	-0.063	-0.995	0.007	-6.7036086	-12.2040054	3.3231564	90.25234416	-1.38655836	-20.89577826
0.37	37	-0.063	-0.998	0.016	-6.589017	-11.8029348	3.0939732	90.18931878	-1.41520626	-21.01609944
0.38	38	-0.062	-1.007	0.025	-6.8182002	-12.032118	2.9220858	90.1262934	-1.44385416	-21.13642062
0.39	39	-0.062	-1.016	0.023	-7.5630456	-12.3758928	2.9220858	90.05180886	-1.46677248	-21.2567418
0.4	40	-0.061	-1.018	0.008	-7.7922288	-12.7196676	3.0366774	89.97159474	-1.50114996	-21.38279256
0.41	41	-0.06	-1.02	-0.002	-7.3911582	-13.750992	3.3804522	89.90283978	-1.52979786	-21.52030248
0.42	42	-0.062	-1.021	-0.003	-6.7609044	-14.7250206	3.9534102	89.8398144	-1.56990492	-21.66927156
0.43	43	-0.062	-1.021	0	-6.7036086	-15.183387	4.1825934	89.77678902	-1.6042824	-21.81824064
0.44	44	-0.064	-1.017	0.014	-6.9327918	-15.6990492	4.1252976	89.71376364	-1.64438946	-21.9729393
0.45	45	-0.072	-1.009	0.027	-7.0473834	-15.756345	4.1252976	89.65073826	-1.6902261	-22.13336754
0.46	46	-0.083	-1.006	0.035	-7.161975	-15.756345	4.0680018	89.58771288	-1.73033316	-22.2880662
0.47	47	-0.092	-1.007	0.032	-7.2765666	-15.6417534	4.010706	89.51895792	-1.76471064	-22.44276486
0.48	48	-0.098	-1.011	0.031	-7.2765666	-15.6417534	4.297185	89.45020296	-1.8048177	-22.59746352
0.49	49	-0.096	-1.016	0.035	-7.7922288	-15.8136408	4.583664	89.381448	-1.85065434	-22.75789176
0.5	50	-0.092	-1.021	0.032	-9.3392154	-16.2147114	4.5263682	89.2955043	-1.90222056	-22.91832
0.51	51	-0.086	-1.02	0.013	-10.4278356	-17.0741484	4.4117766	89.19810144	-1.94232762	-23.0902074
0.52	52	-0.076	-1.022	-0.005	-10.5424272	-19.5951636	4.4690724	89.10069858	-1.98816426	-23.28501312
0.53	53	-0.064	-1.017	-0.007	-10.026765	-21.199446	4.8128472	89.0090253	-2.0340009	-23.491278
0.54	54	-0.06	-1.007	0.003	-9.6829902	-21.8869956	5.0420304	88.91735202	-2.07983754	-23.70900204
0.55	55	-0.065	-0.997	0.02	-8.880849	-22.345362	5.443101	88.84286748	-2.13713334	-23.93245566
0.56	56	-0.077	-0.996	0.034	-8.4797784	-22.2307704	6.0733548	88.76838294	-2.19442914	-24.1501797
0.57	57	-0.093	-1	0.029	-8.307891	-21.7151082	6.6463128	88.6938984	-2.2631841	-24.36790374
0.58	58	-0.106	-1.005	0.021	-7.6776372	-21.485925	7.3911582	88.63087302	-2.33766864	-24.5798982
0.59	59	-0.115	-1.012	0.027	-6.589017	-21.3713334	8.021412	88.57357722	-2.41788276	-24.78616308
0.6	60	-0.119	-1.01	0.029	-6.302538	-21.1421502	8.6516658	88.52774058	-2.50955604	-24.99815754
0.61	61	-0.12	-0.997	0.032	-6.1306506	-20.7410796	8.7089616	88.47617436	-2.59549974	-25.19869284
0.62	62	-0.12	-0.987	0.034	-5.443101	-20.7410796	8.6516658	88.43033772	-2.68144344	-25.40495772
0.63	63	-0.119	-0.98	0.04	-5.0993262	-20.8556712	8.4797784	88.39023066	-2.76738714	-25.6112226
0.64	64	-0.118	-0.978	0.041	-5.0993262	-20.3973048	8.2505952	88.35585318	-2.85333084	-25.8117579
0.65	65	-0.122	-0.977	0.046	-5.0420304	-19.5951636	7.7922288	88.3214757	-2.93927454	-26.00656362
0.66	66	-0.127	-0.977	0.05	-5.0993262	-18.334656	7.448454	88.28136864	-3.01375908	-26.1841806
0.67	67	-0.128	-0.976	0.044	-5.0420304	-17.761698	7.0473834	88.24126158	-3.08824362	-26.356068
0.68	68	-0.128	-0.972	0.038	-4.8128472	-17.18874	6.3598338	88.2068841	-3.151269	-26.5279554
0.69	69	-0.126	-0.968	0.035	-4.7555514	-16.4438946	5.72958	88.16677704	-3.2085648	-26.68838364
0.7	70	-0.126	-0.965	0.043	-4.7555514	-15.756345	4.9847346	88.14385872	-3.27159018	-26.8430823
0.71	71	-0.127	-0.963	0.041	-4.6409598	-14.8396122	4.2398892	88.10375166	-3.31742682	-26.99205138
0.72	72	-0.124	-0.959	0.043	-4.5263682	-14.1520626	3.5523396	88.06937418	-3.3518043	-27.1295613
0.73	73	-0.117	-0.955	0.04	-4.583664	-13.5791046	2.578311	88.02926712	-3.3804522	-27.26707122
0.74	74	-0.113	-0.951	0.043	-4.870143	-13.2353298	1.718874	87.98916006	-3.39764094	-27.39885156
0.75	75	-0.113	-0.949	0.038	-4.8128472	-13.0061466	0.859437	87.96051216	-3.42055926	-27.5306319
0.76	76	-0.109	-0.952	0.026	-4.4690724	-13.2926256	-0.0572958	87.92613468	-3.42055926	-27.66241224
0.77	77	-0.115	-0.957	0.034	-3.9534102	-14.1520626	-0.572958	87.89748678	-3.41482968	-27.79992216
0.78	78	-0.123	-0.961	0.046	-3.2658606	-14.4385416	-0.7448454	87.87456846	-3.4091001	-27.94316166
0.79	79	-0.131	-0.962	0.045	-3.151269	-14.0947668	-0.9740286	87.85165014	-3.39764094	-28.08640116
0.8	80	-0.14	-0.963	0.042	-2.6356068	-13.6936962	-1.3178034	87.85165014	-3.4091001	-28.22391108
0.81	81	-0.151	-0.962	0.053	-1.718874	-12.7769634	-1.6042824	87.84019098	-3.39191136	-28.34996184
0.82	82	-0.159	-0.965	0.058	-0.8021412	-11.4018642	-1.9480572	87.84019098	-3.37472262	-28.46455344
0.83	83	-0.165	-0.968	0.065	-0.3437748	-9.9694692	-2.4637194	87.84592056	-3.3518043	-28.56768588
0.84	84	-0.166	-0.97	0.068	-0.0572958	-8.4224826	-2.9220858	87.85165014	-3.3231564	-28.6479
0.85	85	-0.169	-0.974	0.073	0	-6.9327918	-3.724227	87.89748678	-3.33461556	-28.72238454
0.86	86	-0.167	-0.981	0.079	0.3437748	-5.0993262	-4.2398892	87.90321636	-3.28877892	-28.77395076
0.87	87	-0.165	-0.992	0.087	0.8021412	-3.2085648	-4.7555514	87.91467552	-3.24294228	-28.80832824
0.88	88	-0.16	-0.999	0.086	1.0313244	-1.6042824	-5.156622	87.92613468	-3.19137606	-28.82551698
0.89	89	-0.161	-1.007	0.088	1.145916	-0.286479	-5.6722842	87.93759384	-3.13408026	-28.83124656
0.9	90	-0.168	-1.016	0.094	1.145916	0.572958	-6.0733548	88.01207838	-3.13408026	-28.82551698
0.91	91	-0.175	-1.026	0.101	0.4583664	1.6042824	-6.9327918	88.01780796	-3.05959572	-28.81405782
0.92	92	-0.179	-1.036	0.101	-0.286479	3.2658606	-8.0787078	88.01207838	-2.9793816	-28.78540992
0.93	93	-0.179	-1.044	0.099	-0.1718874	4.2398892	-9.1100322	88.0063488	-2.88770832	-28.74530286
0.94	94	-0.184	-1.052	0.11	0.1145916	4.8128472	-9.9694692	88.0063488	-2.79030546	-28.69946622
0.95	95	-0.193	-1.057	0.122	0.0572958	5.5576926	-10.9434978	88.0349967	-2.71009134	-28.6479
0.96	96	-0.204	-1.061	0.119	-0.5156622	5.9014674	-11.6883432	88.02353754	-2.59549974	-28.59633378
0.97	97	-0.209	-1.066	0.098	-0.9167328	5.3858052	-11.9175264	88.01207838	-2.47517856	-28.54476756
0.98	98	-0.207	-1.076	0.07	0.0572958	5.0420304	-11.172681	88.01207838	-2.36631654	-28.49893092
0.99	99	-0.202	-1.083	0.065	3.151269	4.8128472	-9.3392154	88.04072628	-2.26891368	-28.45309428
1	100	-0.205	-1.086	0.121	8.6516658	7.5630456	-7.2192708	88.1495883	-2.21734746	-28.37860974
1.01	101	-0.216	-1.068	0.153	12.6623718	12.0894138	-5.7868758	88.26990948	-2.16005166	-28.25828856
1.02	102	-0.219	-1.043	0.155	17.4179232	14.7250206	-5.0420304	88.44179688	-2.10848544	-28.11504906
1.03	103	-0.206	-1.035	0.184	23.0329116	16.2147114	-5.156622	88.6652505	-2.05691922	-27.94889124
1.04	104	-0.188	-1.054	0.218	26.1268848	18.9649098	-5.9587632	88.9230816	-1.99389384	-27.7598151
1.05	105	-0.157	-1.124	0.208	23.8350528	23.1475032	-6.6463128	89.16372396	-1.93086846	-27.5306319
1.06	106	-0.074	-1.26	0.082	15.4125702	28.5333084	-4.4117766	89.30696346	-1.8907614	-27.2441529
1.07	107	0.007	-1.357	-0.065	15.9855282	24.8663772	4.297185	89.46166212	-1.93659804	-26.99778096
1.08	108	-0.035	-1.302	0.034	29.793816	6.1306506	13.6364004	89.75960028	-2.07410796	-26.93475558
1.09	109	-0.117	-1.194	0.177	30.5959572	-0.9740286	14.6677248	90.0689976	-2.21734746	-26.94048516
1.1	110	-0.175	-1.084	0.16	24.5798982	2.86479	11.3445684	90.33255828	-2.34339822	-26.91183726
1.11	111	-0.2	-1	0.081	20.6837838	9.6256944	6.9900876	90.53309358	-2.41215318	-26.8144344
1.12	112	-0.202	-0.94	0.023	18.621135	15.6417534	3.0366774	90.71644014	-2.44653066	-26.65400616
1.13	113	-0.181	-0.904	0.003	16.8449652	17.7044022	-0.6302538	90.87686838	-2.44653066	-26.47638918
1.14	114	-0.141	-0.874	-0.018	14.6677248	17.761698	-3.9534102	91.0143783	-2.41788276	-26.2987722
1.15	115	-0.081	-0.84	-0.046	12.7769634	17.7044022	-6.3598338	91.12324032	-2.36058696	-26.12115522
1.16	116	-0.018	-0.803	-0.069	9.167328	19.7097552	-6.7036086	91.20918402	-2.30329116	-25.9263495
1.17	117	0.046	-0.773	-0.088	5.3285094	23.491278	-5.72958	91.24929108	-2.25745452	-25.69143672
1.18	118	0.113	-0.758	-0.127	0	28.1895336	-4.4690724	91.23210234	-2.22880662	-25.4106873
1.19	119	0.155	-0.763	-0.177	-5.7868758	30.939732	-2.86479	91.1576178	-2.21161788	-25.10128998
1.2	120	0.13	-0.816	-0.219	-9.8548776	28.6479	0.4010706	91.00864872	-2.21734746	-24.82054056
1.21	121	0.065	-0.886	-0.245	-11.745639	23.204799	5.443101	90.87686838	-2.28610242	-24.59708694
1.22	122	0.015	-0.972	-0.235	-8.7662574	17.3606274	10.4278356	90.77946552	-2.39496444	-24.42519954
1.23	123	-0.007	-1.076	-0.199	-4.583664	10.886202	13.3499214	90.7278993	-2.53247436	-24.3220671
1.24	124	-0.017	-1.139	-0.152	1.432395	3.4950438	11.6883432	90.73935846	-2.65279554	-24.28768962
1.25	125	-0.028	-1.16	-0.12	5.7868758	-0.6302538	6.1879464	90.76800636	-2.71009134	-24.2934192
1.26	126	-0.032	-1.141	-0.096	8.7089616	-5.3285094	-0.572958	90.85967964	-2.69863218	-24.34498542
1.27	127	-0.028	-1.092	-0.063	11.8029348	-10.9434978	-6.302538	90.9857304	-2.62987722	-24.45384744
1.28	128	-0.029	-1.042	-0.022	13.464513	-15.469866	-9.5683986	91.13469948	-2.52674478	-24.60281652
1.29	129	-0.04	-1.015	0.013	13.3499214	-16.8449652	-10.6570188	91.27793898	-2.41215318	-24.76324476
1.3	130	-0.056	-1.02	0.037	11.45916	-15.8136408	-10.9434978	91.40398974	-2.29756158	-24.91794342
1.31	131	-0.065	-1.036	0.052	8.59437	-14.0947668	-11.2872726	91.49566302	-2.1772404	-25.04972376
1.32	132	-0.074	-1.043	0.06	5.156622	-10.8289062	-12.032118	91.5586884	-2.05118964	-25.1528562
1.33	133	-0.073	-1.029	0.063	2.9793816	-7.448454	-13.2353298	91.5873363	-1.91367972	-25.22161116
1.34	134	-0.057	-1.007	0.059	1.145916	-4.7555514	-14.9542038	91.60452504	-1.76471064	-25.2674478
1.35	135	-0.036	-0.985	0.055	-0.2291832	-3.8961144	-16.7303736	91.60452504	-1.59282324	-25.30182528
1.36	136	-0.012	-0.966	0.051	-1.2605076	-4.3544808	-18.2773602	91.59306588	-1.40947668	-25.33620276
1.37	137	0.01	-0.943	0.043	-1.6042824	-5.9014674	-19.1367972	91.57587714	-1.21467096	-25.39349856
1.38	138	0.028	-0.924	0.038	-1.3750992	-8.1360036	-19.480572	91.56441798	-1.01986524	-25.4679831
1.39	139	0.03	-0.908	0.034	-1.0313244	-10.5424272	-19.3086846	91.5586884	-0.81932994	-25.56538596
1.4	140	0.016	-0.901	0.032	-1.2032118	-12.7196676	-18.7357266	91.54722924	-0.62452422	-25.68570714
1.41	141	0	-0.893	0.032	-1.5469866	-13.6936962	-17.5898106	91.5300405	-0.44117766	-25.81748748
1.42	142	-0.013	-0.886	0.035	-1.145916	-14.037471	-15.9855282	91.52431092	-0.27501984	-25.94926782
1.43	143	-0.018	-0.883	0.044	-0.6302538	-14.0947668	-14.4958374	91.51858134	-0.12605076	-26.08677774
1.44	144	-0.018	-0.888	0.057	-0.4583664	-14.4958374	-12.9488508	91.51285176	0.00572958	-26.22428766
1.45	145	-0.015	-0.894	0.07	-0.2291832	-15.183387	-11.45916	91.51858134	0.12605076	-26.37325674
1.46	146	-0.013	-0.903	0.085	0.1145916	-16.4438946	-9.9121734	91.52431092	0.23491278	-26.53368498
1.47	147	-0.009	-0.914	0.102	0.4583664	-17.7044022	-8.1360036	91.5300405	0.32658606	-26.70557238
1.48	148	-0.014	-0.924	0.123	0.9740286	-18.9649098	-6.4171296	91.54149966	0.4010706	-26.88891894
1.49	149	-0.017	-0.932	0.14	1.0886202	-19.0795014	-4.583664	91.55295882	0.4583664	-27.07799508
1.5	150	-0.014	-0.941	0.156	0.859437	-18.5065434	-2.9220858	91.59306588	0.49274388	-27.25561206
1.51	151	-0.011	-0.95	0.165	0.2291832	-17.3606274	-1.3750992	91.59306588	0.5156622	-27.42749946
1.52	152	-0.004	-0.96	0.161	-0.5156622	-15.469866	0	91.59306588	0.52712136	-27.58219812
1.53	153	0.005	-0.969	0.146	-1.7761698	-13.5218088	0.9740286	91.57014756	0.52139178	-27.71397846
1.54	154	0.012	-0.975	0.126	-2.6356068	-11.8029348	1.6615782	91.54722924	0.50993262	-27.83429964
1.55	155	0.014	-0.975	0.11	-2.8074942	-10.599723	2.1772404	91.54149966	0.49847346	-27.93743208
1.56	156	0.01	-0.965	0.097	-1.6042824	-9.6256944	2.9793816	91.52431092	0.47555514	-28.03483494
1.57	157	0.003	-0.95	0.096	-0.1145916	-9.8548776	3.724227	91.52431092	0.44117766	-28.1322378
1.58	158	-0.003	-0.935	0.107	1.4896908	-11.0007936	4.4117766	91.54149966	0.40680018	-28.24109982
1.59	159	0.001	-0.924	0.124	3.151269	-12.7769634	5.156622	91.57587714	0.36096354	-28.37288016
1.6	160	0.006	-0.927	0.137	4.7555514	-14.8396122	5.5576926	91.6446321	0.32085648	-28.51611966
1.61	161	0.017	-0.941	0.138	6.0733548	-16.8449652	5.2712136	91.70765748	0.27501984	-28.68227748
1.62	162	0.03	-0.978	0.141	6.7609044	-18.334656	4.2398892	91.78214202	0.24637194	-28.86562404
1.63	163	0.04	-1.034	0.147	6.302538	-19.5951636	2.4064236	91.8451674	0.2291832	-29.06042976
1.64	164	0.037	-1.093	0.153	5.9014674	-20.6837838	-0.6875496	91.90819278	0.25210152	-29.26669464
1.65	165	0.027	-1.145	0.158	4.6982556	-21.3713334	-3.3804522	91.97121816	0.30366774	-29.47295952
1.66	166	0.012	-1.183	0.171	2.6356068	-21.2567418	-5.5576926	91.99986606	0.3724227	-29.6792244
1.67	167	-0.014	-1.204	0.198	0.2291832	-20.2827132	-6.8182002	91.99986606	0.45263682	-29.8797597
1.68	168	-0.048	-1.202	0.229	-1.3750992	-19.1367972	-6.1879464	91.9884069	0.52712136	-30.06310626
1.69	169	-0.057	-1.178	0.255	-1.145916	-17.18874	-3.724227	91.97694774	0.572958	-30.23499366
1.7	170	-0.025	-1.153	0.257	1.3178034	-15.3552744	0.2291832	92.0170548	0.57868758	-30.38396274
1.71	171	0.014	-1.245	0.133	-0.5156622	-23.3766864	2.5210152	92.01132522	0.572958	-30.61887552
1.72	172	-0.06	-1.469	0.043	-11.0007936	-39.1903272	-6.302538	91.9024632	0.6589017	-31.00275738
1.73	173	-0.079	-1.542	0.123	9.3392154	-6.302538	-18.3919518	91.99413648	0.84224826	-31.0543236
1.74	174	-0.038	-1.592	0.113	0.7448454	13.464513	-24.2934192	92.00559564	1.07716104	-30.91681368
1.75	175	0.018	-1.449	0.193	-1.6042824	0.572958	-23.2620948	91.99413648	1.30634424	-30.89962494
1.76	176	0.038	-1.356	0.172	1.145916	-15.6417534	-17.1314442	91.99986606	1.48396122	-31.04859402
1.77	177	0.087	-1.292	0.053	-3.724227	-22.345362	-8.9381448	91.959759	1.58709366	-31.26631806
1.78	178	0.043	-1.356	-0.098	-12.891555	-23.491278	-5.6722842	91.82797866	1.65584862	-31.49550126
1.79	179	-0.03	-1.364	-0.177	-19.0795014	-13.0634424	-6.4744254	91.62744336	1.73033316	-31.6272816
1.8	180	-0.005	-1.252	-0.194	-15.183387	0.0572958	-5.5576926	91.4440968	1.78189938	-31.6272816
1.81	181	0.057	-1.106	-0.213	-9.0527364	-6.7609044	-2.2345362	91.35242352	1.8048177	-31.69603656
1.82	182	0.116	-0.966	-0.26	-6.8182002	-21.8869956	1.7761698	91.27793898	1.79908812	-31.9137606
1.83	183	0.138	-0.82	-0.323	-7.2192708	-37.1276784	4.297185	91.19772486	1.77044022	-32.28045372
1.84	184	0.117	-0.688	-0.321	-9.3965112	-51.2224452	3.724227	91.09459242	1.75898106	-32.79038634
1.85	185	0.088	-0.594	-0.253	-12.4331886	-57.868758	0.3437748	90.93989376	1.78189938	-33.36334434
1.86	186	0.086	-0.558	-0.235	-15.469866	-58.6708992	-4.6982556	90.76800636	1.85065434	-33.9477615
1.87	187	0.089	-0.592	-0.242	-17.475219	-58.7854908	-10.1986524	90.57893022	1.9767051	-34.52644908
1.88	188	0.058	-0.689	-0.222	-18.2200644	-58.0979412	-13.3499214	90.3841245	2.12567418	-35.10513666
1.89	189	0.007	-0.801	-0.19	-17.9908812	-55.576926	-14.32395	90.1835892	2.28610242	-35.65517634
1.9	190	-0.049	-0.905	-0.156	-16.3865988	-52.139178	-13.3499214	89.98878348	2.42361234	-36.17083854
1.91	191	-0.103	-0.995	-0.128	-14.1520626	-47.7846972	-11.172681	89.83408482	2.5496631	-36.64639368
1.92	192	-0.133	-1.06	-0.107	-13.1207382	-41.3675676	-8.7662574	89.68511574	2.64133638	-37.05892344
1.93	193	-0.141	-1.076	-0.089	-12.6623718	-33.231564	-6.7036086	89.54760582	2.71582092	-37.39123908
1.94	194	-0.125	-1.047	-0.063	-11.8602306	-25.0382646	-4.870143	89.41582548	2.76738714	-37.63761102
1.95	195	-0.103	-1.004	-0.042	-10.313244	-17.7044022	-2.5210152	89.28977472	2.76165756	-37.82095758
1.96	196	-0.095	-0.987	-0.026	-8.7089616	-10.6570188	-0.4010706	89.19810144	2.76738714	-37.92409002
1.97	197	-0.101	-0.995	-0.025	-7.2765666	-5.8441716	1.718874	89.1236169	2.7501984	-37.98138582
1.98	198	-0.11	-1.003	-0.033	-6.4744254	-1.2605076	4.297185	89.05486194	2.70436176	-37.99857456
1.99	199	-0.105	-1.001	-0.032	-5.3285094	2.1199446	7.3338624	89.00329572	2.62987722	-37.97565624
2	200	-0.103	-0.992	-0.017	-3.6096354	4.9847346	10.4278356	88.95745908	2.48090814	-37.92409002
2.01	201	-0.094	-0.974	0	-1.7761698	7.2192708	13.178034	88.94599992	2.3491278	-37.85533506
2.02	202	-0.067	-0.959	0.001	-0.0572958	8.3651868	15.4125702	88.94599992	2.20015872	-37.76939136
2.03	203	-0.036	-0.943	-0.008	1.5469866	8.0787078	16.902261	88.96318866	2.02827132	-37.68344766
2.04	204	-0.008	-0.925	-0.021	3.151269	6.302538	17.3033316	88.99756614	1.85638392	-37.62042228
2.05	205	0.003	-0.911	-0.019	4.0680018	3.5523396	17.0168526	89.0376732	1.68449652	-37.58031522
2.06	206	0.007	-0.895	-0.01	4.5263682	0.859437	16.7876694	89.08350984	1.5183387	-37.56885606
2.07	207	-0.002	-0.887	0.002	4.6409598	-1.718874	16.042824	89.12934648	1.35791046	-37.5860448
2.08	208	-0.024	-0.879	0.015	4.4117766	-3.6669312	15.2406828	89.17518312	1.20894138	-37.62042228
2.09	209	-0.052	-0.872	0.026	3.4950438	-3.6669312	14.2666542	89.2095606	1.06570188	-37.65479976
2.1	210	-0.073	-0.863	0.022	2.7501984	-3.0366774	13.4072172	89.2382085	0.91100322	-37.68344766
2.11	211	-0.087	-0.859	0.016	2.2345362	-2.4637194	12.0894138	89.26112682	0.79068204	-37.70636598
2.12	212	-0.093	-0.866	0.014	1.6615782	-1.5469866	10.7716104	89.27831556	0.6875496	-37.71782514
2.13	213	-0.097	-0.87	0.024	1.2032118	-1.2032118	9.5683986	89.2955043	0.59014674	-37.7292843
2.14	214	-0.1	-0.874	0.04	1.0886202	-0.5156622	8.1360036	89.30696346	0.50993262	-37.73501388
2.15	215	-0.095	-0.88	0.052	1.3750992	0.286479	6.7036086	89.33561136	0.4010706	-37.7292843
2.16	216	-0.084	-0.888	0.053	2.2345362	0.286479	5.443101	89.35852968	0.34950438	-37.7292843
2.17	217	-0.064	-0.891	0.056	3.2658606	-0.2291832	4.0680018	89.39290716	0.30939732	-37.7292843
2.18	218	-0.043	-0.886	0.068	4.297185	-1.2605076	2.4637194	89.4387438	0.286479	-37.74074346
2.19	219	-0.031	-0.874	0.087	5.3285094	-2.8074942	-0.286479	89.49031002	0.286479	-37.76939136
2.2	220	-0.033	-0.874	0.089	6.1306506	-4.0680018	-2.86479	89.57625372	0.30939732	-37.80949842
2.21	221	-0.05	-0.88	0.078	6.9327918	-5.7868758	-4.6982556	89.64500868	0.35523396	-37.86679422
2.22	222	-0.076	-0.889	0.082	8.4797784	-7.1046792	-5.72958	89.73095238	0.41825934	-37.93554918
2.23	223	-0.096	-0.906	0.093	8.3651868	-6.1879464	-6.302538	89.81689608	0.48128472	-37.99284498
2.24	224	-0.097	-0.928	0.079	7.2765666	-4.010706	-6.7036086	89.89138062	0.55003968	-38.03295204
2.25	225	-0.09	-0.956	0.062	6.875496	-2.1772404	-6.8182002	89.97732432	0.58441716	-38.05587036
2.26	226	-0.085	-0.99	0.068	7.1046792	0	-6.875496	90.05180886	0.65317212	-38.05587036
2.27	227	-0.093	-1.025	0.08	7.448454	3.0939732	-6.2452422	90.1262934	0.71046792	-38.02149288
2.28	228	-0.115	-1.058	0.084	7.2192708	6.1306506	-4.6409598	90.20077794	0.75630456	-37.9584675
2.29	229	-0.142	-1.085	0.086	7.6776372	7.2192708	-2.3491278	90.27526248	0.77922288	-37.88971254
2.3	230	-0.152	-1.109	0.105	9.0527364	8.307891	0	90.3841245	0.7448454	-37.80376884
2.31	231	-0.141	-1.117	0.149	10.5424272	11.2872726	1.0886202	90.49298652	0.73338624	-37.69490682
2.32	232	-0.12	-1.098	0.192	12.605076	15.9855282	0.1145916	90.62476686	0.72765666	-37.53447858
2.33	233	-0.118	-1.069	0.231	15.5844576	20.8556712	-2.0626488	90.77946552	0.73911582	-37.32248412
2.34	234	-0.154	-1.046	0.272	20.4546006	24.8663772	-4.0680018	90.9857304	0.76776372	-37.07611218
2.35	235	-0.218	-1.034	0.319	27.5592798	30.366774	-5.2139178	91.28939814	0.79068204	-36.77244444
2.36	236	-0.281	-1.028	0.362	32.8304934	39.4768062	-5.9014674	91.62744336	0.8307891	-36.37710342
2.37	237	-0.314	-1.046	0.412	32.6013102	50.8213746	-6.5317212	91.95402942	0.87089616	-35.8671708
2.38	238	-0.085	-1.299	0.217	9.740286	75.916935	-6.4171296	92.05716186	0.8880849	-35.11659582
2.39	239	0.052	-1.474	-0.118	-3.3231564	83.1362058	2.2345362	92.02278438	0.81360036	-34.29726588
2.4	240	0.187	-1.747	-0.331	13.6364004	58.2125328	26.069589	92.1602943	0.52139178	-33.73003746
2.41	241	0.207	-1.825	-0.171	28.3041252	28.7051958	42.398892	92.4467733	0.08021412	-33.4607472
2.42	242	0.175	-1.637	-0.039	22.7464326	19.5378678	47.8992888	92.6759565	-0.4010706	-33.2888598
2.43	243	0.123	-1.357	-0.052	16.1001198	30.8251404	42.685371	92.83065516	-0.84797784	-33.0023808
2.44	244	0.023	-1.191	-0.187	0.4583664	44.3469492	34.8931422	92.82492558	-1.22613012	-32.58412146
2.45	245	-0.042	-1.068	-0.289	-9.8548776	46.5241896	29.3354496	92.6759565	-1.55844576	-32.1429438
2.46	246	-0.11	-0.983	-0.282	-11.3445684	52.1964738	21.7151082	92.53844658	-1.81054728	-31.63874076
2.47	247	-0.116	-0.916	-0.245	-14.7250206	67.322565	13.8655836	92.3608296	-1.99962342	-30.97983906
2.48	248	-0.101	-0.829	-0.284	-20.7983754	82.2767688	9.453807	92.10872808	-2.1485925	-30.17769786
2.49	249	-0.126	-0.748	-0.33	-24.4080108	84.1102344	8.3651868	91.8165195	-2.28610242	-29.35263834
2.5	250	-0.184	-0.704	-0.272	-19.8243468	76.776372	10.4278356	91.55295882	-2.44653066	-28.59633378
2.51	251	-0.202	-0.743	-0.224	-12.7769634	67.609044	14.4385416	91.386801	-2.62414764	-27.93743208
2.52	252	-0.155	-0.83	-0.175	-8.2505952	59.0719698	17.475219	91.26647982	-2.83041252	-27.3587445
2.53	253	-0.071	-0.92	-0.137	-5.8441716	54.4883058	16.1574156	91.17480654	-3.01948866	-26.82589356
2.54	254	0.015	-1.015	-0.119	-4.583664	51.3943326	11.2299768	91.09459242	-3.151269	-26.31596094
2.55	255	0.098	-1.07	-0.102	-4.7555514	47.6701056	4.1825934	90.99718956	-3.19710564	-25.84613538
2.56	256	0.164	-1.066	-0.089	-4.7555514	40.8519054	-2.4637194	90.91697544	-3.19137606	-25.44506478
2.57	257	0.203	-1.019	-0.076	-4.1252976	29.8511118	-6.875496	90.85395006	-3.13408026	-25.14712662
2.58	258	0.203	-0.963	-0.059	-2.3491278	18.9649098	-9.453807	90.81957258	-3.04813656	-24.95805048
2.59	259	0.174	-0.934	-0.047	-1.718874	10.886202	-10.4851314	90.79092468	-2.9507337	-24.84918846
2.6	260	0.133	-0.922	-0.035	-2.7501984	4.6982556	-10.8289062	90.73935846	-2.79030546	-24.79762224
2.61	261	0.087	-0.929	-0.031	-3.9534102	2.005353	-10.6570188	90.6992514	-2.68144344	-24.77470392
2.62	262	0.045	-0.945	-0.031	-5.72958	0.6302538	-11.0580894	90.63622602	-2.57258142	-24.76897434
2.63	263	0.024	-0.951	-0.032	-6.8182002	0.4010706	-12.0894138	90.56747106	-2.45798982	-24.76324476
2.64	264	0.019	-0.962	-0.026	-6.302538	0.3437748	-13.6364004	90.50444568	-2.3204799	-24.75751518
2.65	265	0.022	-0.967	-0.024	-5.72958	0	-15.183387	90.42423156	-2.15432208	-24.75751518
2.66	266	0.011	-0.969	-0.026	-4.5263682	-1.6042824	-15.9855282	90.37839492	-1.99389384	-24.77470392
2.67	267	0.006	-0.963	-0.021	-4.3544808	-3.6669312	-16.1574156	90.33828786	-1.8334656	-24.8090814
2.68	268	-0.003	-0.946	-0.01	-3.437748	-5.7868758	-15.5844576	90.30391038	-1.67303736	-24.8663772
2.69	269	-0.013	-0.931	0.008	-2.5210152	-5.9014674	-14.8396122	90.28099206	-1.52406828	-24.923673
2.7	270	-0.028	-0.923	0.013	-2.2345362	-5.7868758	-14.5531332	90.25807374	-1.38082878	-24.9809688
2.71	271	-0.031	-0.921	0.011	-2.7501984	-4.870143	-14.4385416	90.22942584	-1.2318597	-25.02680544
2.72	272	-0.031	-0.925	0.009	-3.2085648	-2.8074942	-13.9801752	90.19504836	-1.09434978	-25.05545334
2.73	273	-0.031	-0.932	0.004	-3.6669312	-0.0572958	-13.0634424	90.16067088	-0.96256944	-25.05545334
2.74	274	-0.026	-0.945	0.004	-5.0993262	2.2345362	-12.0894138	90.10910466	-0.84797784	-25.03253502
2.75	275	-0.014	-0.957	0	-7.0473834	4.4117766	-11.0007936	90.02316096	-0.73911582	-24.99242796
2.76	276	-0.007	-0.968	-0.008	-9.3965112	6.0733548	-9.8548776	89.9257581	-0.64171296	-24.92940258
2.77	277	-0.003	-0.977	-0.012	-11.5164558	6.0733548	-8.8235532	89.8111665	-0.55576926	-24.87210678
2.78	278	0.001	-0.981	-0.015	-13.6364004	5.5576926	-7.7922288	89.667927	-0.48128472	-24.81481098
2.79	279	0.013	-0.979	-0.018	-15.5271618	4.583664	-6.875496	89.50749876	-0.41252976	-24.77470392
2.8	280	0.018	-0.974	-0.023	-16.6730778	3.8961144	-6.4171296	89.32988178	-0.3437748	-24.74032644
2.81	281	0.015	-0.97	-0.018	-17.1314442	3.9534102	-6.0733548	89.1522648	-0.286479	-24.70021938
2.82	282	0.009	-0.967	-0.006	-17.4179232	4.0680018	-5.72958	88.97464782	-0.2291832	-24.6658419
2.83	283	0.007	-0.968	0.006	-18.4492476	4.0680018	-5.0993262	88.79130126	-0.18334656	-24.62573484
2.84	284	0.014	-0.971	0.018	-20.3973048	4.1825934	-4.3544808	88.5793068	-0.1432395	-24.58562778
2.85	285	0.027	-0.972	0.019	-22.5172494	4.2398892	-3.0939732	88.35585318	-0.10313244	-24.5512503
2.86	286	0.042	-0.973	0.012	-24.6944898	4.3544808	-1.6615782	88.10375166	-0.09167328	-24.51114324
2.87	287	0.052	-0.973	0.002	-26.8717302	4.583664	-0.286479	87.82873182	-0.0859437	-24.4653066
2.88	288	0.053	-0.973	-0.01	-28.4187168	4.9274388	0.9167328	87.54225282	-0.09740286	-24.41946996
2.89	289	0.052	-0.973	-0.018	-29.5646328	4.870143	1.8334656	87.23858508	-0.12032118	-24.37363332
2.9	290	0.052	-0.967	-0.016	-30.7678446	4.0680018	2.4637194	86.92918776	-0.13178034	-24.33352626
2.91	291	0.049	-0.957	-0.022	-31.6272816	1.5469866	2.86479	86.60833128	-0.16615782	-24.3220671
2.92	292	0.052	-0.943	-0.019	-31.226211	-2.6356068	3.0939732	86.29320438	-0.2005353	-24.350715
2.93	293	0.058	-0.938	0.008	-29.2781538	-7.0473834	3.3231564	85.99526622	-0.24064236	-24.41946996
2.94	294	0.065	-0.944	-0.001	-26.356068	-12.2040054	3.151269	85.73170554	-0.27501984	-24.53979114
2.95	295	0.066	-0.974	-0.029	-24.1215318	-19.9962342	2.3491278	85.49106318	-0.30366774	-24.74032644
2.96	296	0.062	-1.033	-0.08	-25.1528562	-28.5333084	0.9740286	85.24469124	-0.32658606	-25.02680544
2.97	297	0.029	-1.128	-0.158	-30.366774	-36.2682414	-2.1199446	84.9410235	-0.33231564	-25.38776898
2.98	298	-0.051	-1.272	-0.24	-36.4974246	-38.3308902	-9.5683986	84.58005996	-0.26356068	-25.77738042
2.99	299	-0.155	-1.446	-0.284	-43.1437374	-33.9191136	-21.772404	84.14461188	-0.07448454	-26.13834396
3	300	-0.271	-1.628	-0.319	-50.993262	-27.3873924	-34.2628884	83.62894968	0.2291832	-26.44774128
3.01	301	-0.337	-1.748	-0.339	-61.020027	-17.761698	-42.1697088	83.01015504	0.62452422	-26.67692448
3.02	302	-0.325	-1.716	-0.344	-74.1407652	0.572958	-44.690724	82.25385048	1.0599723	-26.73422028
3.03	303	-0.21	-1.487	-0.392	-82.3913604	20.9702628	-40.6227222	81.4173318	1.47250206	-26.59671036
3.04	304	-0.022	-1.229	-0.392	-82.3913604	31.3408026	-31.6845774	80.58081312	1.81627686	-26.34460884
3.05	305	0.146	-1.038	-0.362	-75.1720896	37.4141574	-20.1681216	79.8130494	2.06837838	-26.01802278
3.06	306	0.277	-0.88	-0.297	-67.2079734	36.0390582	-8.2505952	79.13695896	2.20015872	-25.68570714
3.07	307	0.333	-0.788	-0.182	-64.8588456	30.366774	0.1145916	78.48951642	2.24026578	-25.39922814
3.08	308	0.338	-0.753	-0.1	-64.9161414	23.5485738	1.8907614	77.8363443	2.25745452	-25.17004494
3.09	309	0.282	-0.712	-0.173	-62.9107884	11.1153852	-2.0626488	77.20036092	2.291832	-25.07264208
3.1	310	0.204	-0.733	-0.23	-60.5616606	-5.6722842	-8.6516658	76.5758367	2.36631654	-25.1528562
3.11	311	0.151	-0.733	-0.22	-58.3271244	-19.5378678	-14.6677248	75.9742308	2.4637194	-25.3820394
3.12	312	0.124	-0.741	-0.205	-56.8374336	-28.8770832	-19.2513888	75.38408406	2.578311	-25.71435504
3.13	313	0.102	-0.735	-0.219	-56.149884	-32.6013102	-22.2307704	74.80539648	2.71582092	-26.08677774
3.14	314	0.06	-0.78	-0.234	-52.2537696	-32.945085	-23.0902074	74.26108638	2.85333084	-26.4706596
3.15	315	0.009	-0.828	-0.269	-52.5402486	-30.366774	-21.485925	73.70531712	2.97365202	-26.82589356
3.16	316	-0.056	-0.887	-0.299	-52.5402486	-26.5279554	-19.194093	73.16100702	3.08251404	-27.13529088
3.17	317	-0.118	-0.956	-0.338	-52.9413192	-20.912967	-17.3033316	72.61096734	3.18564648	-27.39312198
3.18	318	-0.157	-1.013	-0.375	-53.2277982	-12.891555	-16.3865988	72.06092766	3.30023808	-27.57073896
3.19	319	-0.166	-1.037	-0.385	-52.6548402	-3.8961144	-16.6730778	71.52234714	3.437748	-27.66241224
3.2	320	-0.145	-1.035	-0.384	-52.1964738	4.9847346	-17.3606274	70.98376662	3.59244666	-27.6738714
3.21	321	-0.102	-0.993	-0.391	-51.1078536	12.6623718	-17.5898106	70.46810442	3.79298196	-27.6165756
3.22	322	-0.047	-0.949	-0.401	-49.274388	18.6784308	-17.2460358	69.96963096	4.00497642	-27.501984
3.23	323	0.012	-0.929	-0.41	-47.3836266	22.5172494	-16.1574156	69.4998054	4.22270046	-27.34728534
3.24	324	0.077	-0.93	-0.429	-44.5761324	23.3193906	-14.32395	69.05289816	4.42323576	-27.1868571
3.25	325	0.13	-0.939	-0.468	-38.8465524	19.5378678	-11.172681	68.65755714	4.59512316	-27.0436176
3.26	326	0.16	-0.951	-0.463	-39.3622146	11.9748222	-8.7662574	68.26221612	4.71544434	-26.96913306
3.27	327	0.2	-0.932	-0.451	-37.1276784	3.7815228	-6.8182002	67.88406384	4.7841993	-26.96340348
3.28	328	0.231	-0.9	-0.471	-36.8984952	-4.1252976	-6.0733548	67.50591156	4.82430636	-27.02642886
3.29	329	0.219	-0.849	-0.503	-35.4088044	-11.2299768	-6.8182002	67.13921844	4.8414951	-27.1582092
3.3	330	0.178	-0.823	-0.504	-32.4294228	-18.621135	-8.307891	66.77252532	4.85295426	-27.37020366
3.31	331	0.109	-0.854	-0.511	-28.9916748	-25.7258142	-9.3392154	66.45739842	4.8414951	-27.6452235
3.32	332	0.04	-0.907	-0.487	-25.8404058	-32.1429438	-8.9954406	66.17091942	4.80138804	-27.97753914
3.33	333	-0.006	-0.949	-0.441	-24.4080108	-35.6379876	-7.2765666	65.89589958	4.7269035	-28.3327731
3.34	334	0.011	-0.948	-0.464	-25.9549974	-35.7525792	-5.0420304	65.60942058	4.63523022	-28.68227748
3.35	335	0.019	-0.907	-0.497	-26.356068	-35.3515086	-3.7815228	65.30575284	4.5263682	-29.02605228
3.36	336	-0.002	-0.856	-0.493	-25.4393352	-34.8358464	-3.6096354	65.02500342	4.41750618	-29.3640975
3.37	337	-0.04	-0.837	-0.49	-23.0902074	-33.1742682	-4.4117766	64.7729019	4.3258329	-29.68495398
3.38	338	-0.076	-0.834	-0.492	-21.3713334	-30.7105488	-5.5003968	64.53798912	4.24561878	-29.98862172
3.39	339	-0.094	-0.83	-0.471	-18.2773602	-26.8717302	-6.2452422	64.33745382	4.19405256	-30.25791198
3.4	340	-0.076	-0.811	-0.498	-14.2093584	-23.777757	-5.5003968	64.14837768	4.11956802	-30.50428392
3.41	341	-0.029	-0.808	-0.529	-9.453807	-22.2307704	-3.724227	64.03951566	4.06227222	-30.72200796
3.42	342	0.024	-0.821	-0.532	-5.6149884	-21.7151082	-1.3750992	63.9707607	3.9820581	-30.92254326
3.43	343	0.073	-0.845	-0.523	-2.4637194	-21.4286292	0.9167328	63.93638322	3.88465524	-31.1116194
3.44	344	0.093	-0.849	-0.492	-1.7761698	-21.2567418	1.6615782	63.90773532	3.7815228	-31.30069554
3.45	345	0.097	-0.836	-0.459	-1.9480572	-20.6837838	0.3437748	63.85043952	3.70703826	-31.4840421
3.46	346	0.087	-0.823	-0.461	-1.3178034	-20.5691922	-1.7761698	63.8275212	3.6382833	-31.67884782
3.47	347	0.068	-0.812	-0.453	0.7448454	-21.3140376	-4.4117766	63.8275212	3.59244666	-31.89084228
3.48	348	0.05	-0.795	-0.448	2.291832	-21.0275586	-6.589017	63.83898036	3.56379876	-32.10856632
3.49	349	0.048	-0.776	-0.458	3.3231564	-19.2513888	-8.1932994	63.86189868	3.55806918	-32.32056078
3.5	350	0.071	-0.76	-0.479	5.9014674	-17.9335854	-9.167328	63.884817	3.57525792	-32.52109608
3.51	351	0.111	-0.746	-0.477	8.4224826	-18.1054728	-9.3392154	63.95930154	3.5809875	-32.72736096
3.52	352	0.137	-0.72	-0.464	9.0527364	-18.7930224	-9.7975818	64.03951566	3.59244666	-32.93935542
3.53	353	0.136	-0.689	-0.461	9.453807	-20.05353	-11.5737516	64.12545936	3.61536498	-33.16853862
3.54	354	0.121	-0.67	-0.454	10.4851314	-21.3713334	-13.3499214	64.21713264	3.64974246	-33.42064014
3.55	355	0.112	-0.66	-0.463	13.2353298	-23.3766864	-14.7250206	64.3145355	3.6955791	-33.69565998
3.56	356	0.103	-0.655	-0.472	15.5844576	-25.5539268	-15.5271618	64.457775	3.73568616	-33.99359814
3.57	357	0.089	-0.653	-0.462	17.5898106	-26.7571386	-15.5844576	64.61820324	3.77006364	-34.29726588
3.58	358	0.082	-0.642	-0.453	19.4232762	-26.6998428	-15.0114996	64.8015498	3.80444112	-34.6066632
3.59	359	0.087	-0.622	-0.453	22.345362	-27.3300966	-13.6936962	65.01354426	3.82162986	-34.91033094
3.6	360	0.086	-0.588	-0.441	26.069589	-29.2781538	-12.1467096	65.24272746	3.82162986	-35.22545784
3.61	361	0.079	-0.555	-0.438	29.6792244	-31.0543236	-11.0580894	65.52347688	3.80444112	-35.5520439
3.62	362	0.075	-0.528	-0.458	33.5753388	-32.8877892	-9.6829902	65.85006294	3.77579322	-35.89008912
3.63	363	0.099	-0.505	-0.454	40.0497642	-33.804522	-9.0527364	66.23967438	3.73568616	-36.23386392
3.64	364	0.165	-0.5	-0.475	43.7739912	-33.7472262	-10.0840608	66.6636633	3.70703826	-36.5833683
3.65	365	0.298	-0.526	-0.54	46.6387812	-35.1223254	-11.0007936	67.08765222	3.71276784	-36.94433184
3.66	366	0.553	-0.647	-0.769	48.128472	-40.7946096	-9.1100322	67.55747778	3.65547204	-37.3568616
3.67	367	1.008	-0.937	-1.144	48.8733174	-59.4730404	-1.0886202	68.02730334	3.4663959	-37.90690128
3.68	368	1.385	-1.52	-0.822	60.1032942	-90.240885	23.7204612	68.60599092	2.94500412	-38.65747626
3.69	369	1.196	-1.653	-0.204	48.987909	-111.153852	44.0031744	69.08154606	2.1772404	-39.534102
3.7	370	0.677	-1.236	-0.261	25.3247436	-134.358651	28.5333084	69.32218842	1.4896908	-40.68574758
3.71	371	0.361	-1.155	-0.391	25.0955604	-155.0424348	7.448454	69.56856036	0.92246238	-42.10668342
3.72	372	0.155	-1.164	-0.343	28.1322378	-153.3808566	-4.5263682	69.85503936	0.48128472	-43.55626716
3.73	373	-0.038	-1.213	-0.332	27.6165756	-143.9270496	-14.2093584	70.14724794	0.1718874	-44.95428468
3.74	374	-0.128	-1.176	-0.379	22.4026578	-134.5878342	-19.9962342	70.39361988	-0.04583664	-46.28354724
3.75	375	-0.144	-1.078	-0.4	19.0222056	-129.7176912	-20.7410796	70.60561434	-0.25210152	-47.56697316
3.76	376	-0.145	-0.98	-0.385	17.8189938	-130.9781988	-19.3659804	70.81187922	-0.4583664	-48.86185824
3.77	377	-0.104	-0.899	-0.343	15.183387	-131.493861	-17.8189938	70.99522578	-0.68182002	-50.15674332
3.78	378	-0.011	-0.849	-0.319	11.2299768	-126.7383096	-17.8762896	71.14419486	-0.8880849	-51.41152134
3.79	379	0.131	-0.842	-0.304	4.870143	-117.3990942	-20.2827132	71.23013856	-1.03705398	-52.58608524
3.8	380	0.259	-0.862	-0.304	2.86479	-114.2478252	-22.91832	71.29316394	-1.13445684	-53.73773082
3.81	381	0.344	-0.88	-0.301	1.9480572	-117.3990942	-26.2414764	71.35045974	-1.2318597	-54.92948346
3.82	382	0.377	-0.893	-0.309	-0.4583664	-125.5350978	-29.8511118	71.3905668	-1.31207382	-56.2071798
3.83	383	0.386	-0.881	-0.318	-2.86479	-136.7650746	-32.2002396	71.41348512	-1.4037471	-57.60519732
3.84	384	0.387	-0.883	-0.322	-6.0733548	-149.255559	-34.4920716	71.40775554	-1.51260912	-59.12353602
3.85	385	0.378	-0.881	-0.347	-5.9587632	-160.2563526	-36.8411994	71.41348512	-1.61001198	-60.75646632
3.86	386	0.359	-0.878	-0.319	-4.9274388	-167.4756234	-37.9298196	71.43640344	-1.73606274	-62.45815158
3.87	387	0.318	-0.861	-0.24	-0.5156622	-171.3717378	-37.1276784	71.5051584	-1.87930224	-64.1999439
3.88	388	0.26	-0.863	-0.179	1.2032118	-175.3824438	-35.9817624	71.60256126	-2.04546006	-65.97038412
3.89	389	0.219	-0.87	-0.158	0.3437748	-180.768249	-35.5806918	71.69996412	-2.22307704	-67.79239056
3.9	390	0.186	-0.878	-0.171	0.4010706	-186.497829	-35.4088044	71.80882614	-2.41215318	-69.6716928
3.91	391	0.166	-0.893	-0.143	0.8021412	-194.2900578	-35.5806918	71.92914732	-2.61841806	-71.61975
3.92	392	0.141	-0.909	-0.162	1.432395	-200.821779	-35.6379876	72.06092766	-2.84187168	-73.63656216
3.93	393	0.108	-0.913	-0.199	1.3178034	-205.0043724	-35.523396	72.20989674	-3.07678446	-75.69348138
3.94	394	0.089	-0.901	-0.173	1.8334656	-209.0150784	-35.0650296	72.37032498	-3.31742682	-77.78477808
3.95	395	0.097	-0.893	-0.151	0.7448454	-216.7500114	-33.9191136	72.54221238	-3.5809875	-79.95055932
3.96	396	0.126	-0.869	-0.147	-1.145916	-223.7973948	-33.1169724	72.70264062	-3.8674665	-82.17936594
3.97	397	0.168	-0.846	-0.145	-2.1772404	-230.5010034	-33.0023808	72.87452802	-4.16540466	-84.47692752
3.98	398	0.208	-0.845	-0.139	-4.870143	-236.7462456	-33.8618178	73.03495626	-4.4690724	-86.83751448
3.99	399	0.213	-0.818	-0.134	-6.6463128	-241.4445012	-35.2942128	73.18965492	-4.76128098	-89.24966766
4	400	0.193	-0.781	-0.119	-3.437748	-250.669125	-35.7525792	73.40737896	-5.05921914	-91.75349412
4.01	401	0.16	-0.748	-0.021	-6.2452422	-256.398705	-35.809875	73.60791426	-5.37434604	-94.31461638
4.02	402	0.109	-0.681	0.046	-8.4224826	-254.4506478	-35.6379876	73.80271998	-5.6722842	-96.8585499
4.03	403	0.027	-0.647	0.053	-9.3392154	-250.7264208	-35.6379876	73.9975257	-5.95303362	-99.36810594
4.04	404	-0.034	-0.637	0.03	-10.026765	-249.1221384	-35.4661002	74.19233142	-6.22232388	-101.8604732
4.05	405	-0.085	-0.662	-0.012	-8.7089616	-250.7264208	-34.7212548	74.41578504	-6.49734372	-104.3757589
4.06	406	-0.153	-0.761	-0.238	-9.9121734	-255.1381974	-34.663959	74.64496824	-6.77236356	-106.9311515
4.07	407	-0.151	-0.905	-0.133	-13.1207382	-236.6889498	-39.6486936	74.8283148	-6.94425096	-109.326116
4.08	408	-0.221	-1.026	-0.142	-13.9801752	-215.6040954	-45.7220484	74.98301346	-7.00727634	-111.5377339
4.09	409	-0.284	-1.101	-0.048	-14.32395	-208.0983456	-46.2377106	75.12625296	-7.03592424	-113.6691376
4.1	410	-0.305	-0.975	-0.009	-18.048177	-211.0204314	-38.388186	75.24084456	-7.15624542	-115.8177301
4.11	411	-0.234	-0.86	-0.058	-14.1520626	-222.7087746	-29.0489706	75.40700238	-7.37396946	-118.0522663
4.12	412	-0.14	-0.864	-0.077	-12.5477802	-224.7141276	-27.3873924	75.60753768	-7.60888224	-120.3039913
4.13	413	-0.088	-0.882	-0.074	-13.8655836	-219.8439846	-30.0229992	75.79088424	-7.79795838	-122.5213387
4.14	414	-0.06	-0.914	-0.054	-15.5844576	-213.0830802	-34.6066632	75.95704206	-7.92400914	-124.6813904
4.15	415	-0.063	-0.935	-0.048	-16.5584862	-208.0410498	-38.8465524	76.1174703	-7.9927641	-126.8070646
4.16	416	-0.103	-0.955	-0.049	-17.1314442	-203.8011606	-41.3675676	76.2607098	-8.021412	-128.8926317
4.17	417	-0.166	-0.969	-0.06	-18.5638392	-195.951636	-43.0864416	76.3753014	-8.00995284	-130.9094438
4.18	418	-0.242	-0.916	-0.13	-15.8709366	-182.773602	-43.9458786	76.50135216	-7.9641162	-132.7944757
4.19	419	-0.304	-0.886	-0.051	-12.032118	-169.7101596	-41.252976	76.64459166	-7.9068204	-134.5534567
4.2	420	-0.37	-0.854	0.013	-16.4438946	-155.9591676	-38.5600734	76.72480578	-7.86098376	-136.1691983
4.21	421	-0.408	-0.837	0.017	-21.2567418	-136.8796662	-37.9871154	76.72480578	-7.77504006	-137.5901341
4.22	422	-0.402	-0.86	0.012	-24.350715	-116.596953	-38.4454818	76.65605082	-7.63753014	-138.8219938
4.23	423	-0.32	-0.906	-0.026	-29.5646328	-96.6007188	-35.7525792	76.50135216	-7.48856106	-139.8475886
4.24	424	-0.161	-0.922	-0.134	-34.3201842	-82.5632478	-31.4553942	76.27789854	-7.35678072	-140.729944
4.25	425	-0.017	-0.899	-0.207	-40.0497642	-76.203414	-24.9809688	75.97996038	-7.27083702	-141.5378147
4.26	426	0.101	-0.839	-0.324	-46.2950064	-78.495246	-17.475219	75.62472642	-7.2765666	-142.3456855
4.27	427	0.088	-0.792	-0.369	-54.0299394	-84.8550798	-12.1467096	75.19500792	-7.35678072	-143.2051225
4.28	428	0.027	-0.735	-0.318	-62.165943	-82.9070226	-12.4904844	74.6850753	-7.43126526	-144.0473708
4.29	429	-0.079	-0.667	-0.214	-69.6716928	-78.4379502	-15.0114996	74.08919898	-7.48283148	-144.8552416
4.3	430	-0.198	-0.609	-0.12	-76.3180056	-74.7137232	-18.1627686	73.43029728	-7.51720896	-145.6344644
4.31	431	-0.291	-0.56	-0.048	-78.3233586	-68.5257768	-22.1161788	72.74274768	-7.49429064	-146.3621211
4.32	432	-0.295	-0.499	-0.094	-73.8542862	-54.5456016	-28.3041252	72.0781164	-7.37969904	-146.9751862
4.33	433	-0.235	-0.42	-0.235	-61.9367598	-54.0872352	-32.1429438	71.5338063	-7.23645954	-147.5997104
4.34	434	-0.094	-0.481	-0.263	-57.9260538	-58.7854908	-32.2575354	71.03533284	-7.11040878	-148.2643417
4.35	435	0.001	-0.486	-0.295	-60.2751816	-61.5356892	-33.1742682	70.50821148	-6.98435802	-148.9633504
4.36	436	0.071	-0.485	-0.325	-60.1032942	-67.2079734	-33.4607472	69.99827886	-6.88695516	-149.7139254
4.37	437	0.11	-0.441	-0.294	-58.8427866	-75.8023434	-33.6899304	69.51126456	-6.8182002	-150.5504441
4.38	438	0.124	-0.389	-0.207	-57.1812084	-83.1362058	-34.663959	69.04716858	-6.77236356	-151.4614473
4.39	439	0.12	-0.281	-0.085	-54.717489	-90.5846598	-36.8411994	68.61745008	-6.73798608	-152.4469351
4.4	440	0.084	-0.205	0	-48.6441342	-100.0384668	-37.6433406	68.2679457	-6.72652692	-153.5240961
4.41	441	0.003	-0.138	-0.005	-41.4821592	-102.6167778	-37.815228	67.99292586	-6.7322565	-154.6241755
4.42	442	-0.136	-0.084	0.04	-34.8931422	-98.4341844	-38.1590028	67.77520182	-6.72652692	-155.6898773
4.43	443	-0.223	-0.028	0.053	-22.8610242	-96.543423	-40.1643558	67.67779896	-6.69787902	-156.7383905
4.44	444	-0.26	-0.002	0.004	-12.9488508	-92.3035338	-47.1544434	67.67779896	-6.589017	-157.781174
4.45	445	-0.255	0.018	0.02	-3.8961144	-84.6258966	-55.1758554	67.76374266	-6.39421128	-158.778121
4.46	446	-0.247	0	0.071	6.1306506	-77.5212174	-60.9054354	67.94135964	-6.1020027	-159.7235017
4.47	447	-0.23	0.029	0.095	18.907614	-66.749607	-64.457775	68.22783864	-5.73530958	-160.5829387
4.48	448	-0.187	0.06	0.105	33.7472262	-52.2537696	-65.1453246	68.64609798	-5.30559108	-161.3048657
4.49	449	-0.165	0.103	0.097	51.6808116	-42.398892	-63.7702254	69.23051514	-4.84722468	-161.92939
4.5	450	-0.149	0.132	0.064	70.6457214	-37.528749	-62.0513514	69.99827886	-4.39458786	-162.4908888
4.51	451	-0.113	0.166	0.068	91.100322	-34.1482968	-60.16059	70.96657788	-3.9247623	-163.0008214
4.52	452	-0.05	0.19	0.09	111.5549226	-32.7731976	-57.868758	72.12968262	-3.46066632	-163.4878357
4.53	453	0.021	0.174	0.123	130.8636072	-33.1742682	-55.9207008	73.48759308	-3.00229992	-163.9519317
4.54	454	0.064	0.14	0.172	148.9117842	-34.8931422	-53.858052	75.0288501	-2.55539268	-164.4217573
4.55	455	0.113	0.069	0.23	165.584862	-36.8411994	-50.3630082	76.7477241	-2.12567418	-164.8858532
4.56	456	0.124	0.013	0.327	180.8828406	-39.534102	-45.263682	78.60410802	-1.74179232	-165.3442196
4.57	457	0.11	-0.023	0.469	195.7224528	-39.3622146	-40.9092012	80.60373144	-1.38082878	-165.7853973
4.58	458	0.102	-0.06	0.608	204.0303438	-39.7059894	-37.1276784	82.68929856	-1.04278356	-166.2036566
4.59	459	0.128	-0.205	0.536	207.5826834	-40.2789474	-32.945085	84.80924316	-0.73338624	-166.6161864
4.6	460	0.11	-0.529	0.163	208.843191	-25.9549974	-31.3408026	86.93491734	-0.41252976	-166.8740175
4.61	461	0.023	-1.139	0.296	222.307704	-4.1252976	-37.24227	89.19237186	-0.02291832	-166.8969358
4.62	462	-0.471	-2.519	0.647	251.7577452	30.939732	-46.0658232	91.74203496	0.43544808	-166.5588906
4.63	463	-0.792	-3.952	0.727	274.2176988	49.0452048	-45.6074568	94.52661084	0.87089616	-166.0203101
4.64	464	-0.151	-3.999	0.575	267.571386	58.7854908	-11.6310474	97.24243176	0.92819196	-165.3957859
4.65	465	0.026	-3.999	1.13	290.3178186	49.9046418	22.8037284	100.1931655	0.63598338	-164.9145011
4.66	466	-0.116	-3.999	1.917	324.9244818	22.058883	57.9833496	103.487674	0.04010706	-164.7769912
4.67	467	0.309	-3.863	2.451	314.0382798	-16.1574156	58.0406454	106.67905	-0.44690724	-165.0405519
4.68	468	0.811	-2.916	2.637	308.1368124	-15.5271618	34.5493674	109.8131303	-0.71046792	-165.2525464
4.69	469	0.688	-2.118	2.474	300.9748374	-11.4018642	18.2200644	112.8669964	-0.82505952	-165.3785971
4.7	470	0.414	-2.006	2.237	286.3644084	-15.2406828	10.4851314	115.7776231	-0.84797784	-165.5218366
4.71	471	0.008	-2.084	1.907	253.247436	-8.6516658	8.9381448	118.3502045	-0.87662574	-165.6020507
4.72	472	-0.379	-2.112	1.243	214.4581794	-5.3858052	9.0527364	120.5331745	-0.92819196	-165.6593465
4.73	473	-0.454	-1.907	0.729	183.0027852	7.734933	8.8235532	122.3838288	-1.04278356	-165.6192395
4.74	474	-0.239	-0.965	0.372	160.5428316	34.7212548	7.2192708	124.0052999	-1.30061466	-165.3556788
4.75	475	-0.084	-0.264	0.064	161.1157896	69.041439	8.1360036	125.6153119	-1.7761698	-164.8285574
4.76	476	0.129	0.225	0.067	160.8866064	84.4540092	14.8396122	127.2138647	-2.41215318	-164.2326811
4.77	477	0.263	0.644	0.107	171.4290336	71.8489332	17.0741484	128.9212796	-2.99657034	-163.7685851
4.78	478	0.248	0.463	0.11	201.394737	39.3049188	20.3973048	130.9495509	-3.4091001	-163.579509
4.79	479	-0.022	0.392	0.479	296.7349482	13.9228794	31.3408026	133.9690396	-3.74141574	-163.648264
4.8	480	0	-0.358	0.49	361.8802728	8.1932994	39.9351726	137.6588891	-4.08519054	-163.8316105
4.81	481	-0.161	-0.274	0.976	417.5144946	6.7036086	42.2843004	141.9102374	-4.42323576	-164.0550641
4.82	482	0.075	0.041	1.085	412.9881264	5.5576926	38.674665	146.1214787	-4.71544434	-164.2785178
4.83	483	-0.215	0.017	1.649	330.023808	42.2270046	5.2712136	149.4446351	-5.12224452	-164.0722529
4.84	484	-0.152	-0.074	0.862	147.6512766	56.3790672	2.1772404	150.9114076	-5.63217714	-163.8086922
4.85	485	-0.108	-0.178	0.53	66.3485364	54.3737142	12.1467096	151.5588502	-6.16502808	-163.6597231
4.86	486	-0.117	-0.144	0.933	59.587632	14.3812458	20.5118964	152.1719152	-6.3884817	-163.7685851
4.87	487	-0.23	-0.249	1.349	66.1193532	9.3392154	22.8037284	152.8594648	-6.58328742	-163.9232838
4.88	488	-0.326	-0.071	1.326	81.4173318	22.2307704	23.3766864	153.6959835	-6.88695516	-164.0264162
4.89	489	-0.198	-0.096	1.307	114.8207832	25.78311	28.8197874	154.876277	-7.25364828	-164.1639262
4.9	490	-0.218	-0.304	1.459	145.7032194	24.2934192	35.0077338	156.3831565	-7.62607098	-164.3759206
4.91	491	-0.402	-0.162	1.64	166.444299	29.1635622	36.2109456	158.0963009	-8.0500599	-164.5879151
4.92	492	-0.263	-0.2	1.7	169.3663848	25.6112226	33.2888598	159.8438228	-8.41675302	-164.79418
4.93	493	-0.414	-0.284	1.804	163.3503258	26.2987722	31.6272816	161.5283194	-8.78344614	-164.9947153
4.94	494	-0.519	-0.148	1.879	157.6207458	33.804522	30.0229992	163.1497905	-9.20743506	-165.1723322
4.95	495	-0.403	-0.215	2.015	144.9010782	32.0283522	26.929026	164.6452109	-9.60277608	-165.3327605
4.96	496	-0.472	-0.149	2.034	134.4732426	29.1635622	23.3193906	166.0317692	-9.95228046	-165.4817296
4.97	497	-0.396	-0.301	2.003	123.6443364	33.231564	20.912967	167.303736	-10.33043274	-165.6077803
4.98	498	-0.236	-0.274	1.746	105.99723	35.1796212	17.5325148	168.3923562	-10.72004418	-165.7051832
4.99	499	-0.29	-0.21	1.577	96.4288314	32.658606	12.891555	169.377844	-11.07527814	-165.7682086
5	500	-0.271	-0.187	1.433	93.2202666	37.1849742	6.7036086	170.3232247	-11.45916	-165.7682086
5.01	501	-0.17	-0.16	1.257	97.40286	34.950438	7.6776372	171.3087124	-11.82012354	-165.7911269
5.02	502	-0.278	-0.075	1.122	102.7886652	28.8197874	10.886202	172.3629551	-12.12952086	-165.8541523
5.03	503	-0.256	-0.067	1.025	105.0232014	24.9809688	9.6829902	173.4401162	-12.39881112	-165.9171776
5.04	504	-0.257	0.01	0.973	101.0124954	10.9434978	8.5370742	174.4771702	-12.52486188	-165.9859326
5.05	505	-0.167	0.013	0.924	104.1064686	-1.145916	4.297185	175.5600608	-12.53632104	-166.0260397
5.06	506	-0.094	-0.267	0.857	77.7504006	-14.1520626	-15.0687954	176.3163653	-12.39308154	-165.871341
5.07	507	-0.125	-0.106	0.822	46.1804148	-20.5691922	-25.496631	176.7346247	-12.18108708	-165.6192395
5.08	508	-0.078	-0.118	0.766	28.1322378	-3.0366774	-25.78311	176.9638079	-12.14098002	-165.3556788
5.09	509	-0.183	0.01	0.72	25.210152	6.5317212	-20.2827132	177.1758023	-12.19827582	-165.1436843
5.1	510	-0.165	-0.047	0.67	11.1153852	3.5523396	-15.0114996	177.2789348	-12.24411246	-164.9947153
5.11	511	-0.352	0.276	0.528	16.4438946	11.9175264	-6.6463128	177.4279039	-12.35870406	-164.9259603
5.12	512	-0.239	0.049	0.581	13.9801752	13.2926256	-4.4690724	177.5596842	-12.4904844	-164.8743941
5.13	513	-0.148	-0.037	0.564	-4.6982556	3.7815228	-0.9167328	177.508118	-12.53059146	-164.8629349
5.14	514	-0.159	-0.006	0.601	-17.6471064	-10.1413566	0.6875496	177.330501	-12.42745902	-164.8743941
5.15	515	-0.131	-0.026	0.62	-23.0902074	-26.9863218	-0.3437748	177.1013178	-12.15816876	-164.8801237
5.16	516	-0.151	0.082	0.729	-25.8404058	-35.4088044	-0.9167328	176.8434867	-11.8029348	-164.8801237
5.17	517	-0.345	0.146	0.992	-21.0848544	-31.1116194	-1.9480572	176.6314922	-11.49353748	-164.8743941
5.18	518	-0.341	0.091	1.161	-16.2720072	-19.3086846	-3.0939732	176.4653344	-11.29873176	-164.8514758
5.19	519	-0.31	0.123	1.192	-16.3865988	-4.0680018	-3.4950438	176.293447	-11.25289512	-164.8170983
5.2	520	-0.292	0.084	1.2	-15.8136408	8.4224826	-3.724227	176.1444779	-11.33883882	-164.7827208
5.21	521	-0.284	0.078	1.23	-15.4125702	16.329303	-3.5523396	175.9783201	-11.49926706	-164.7368842
5.22	522	-0.266	0.048	1.226	-17.4179232	21.0848544	-3.5523396	175.789244	-11.69980236	-164.6967771
5.23	523	-0.244	0.037	1.156	-22.0015872	24.923673	-3.6669312	175.5543312	-11.94044472	-164.6452109
5.24	524	-0.229	0.015	1.119	-24.1788276	26.1841806	-3.0939732	175.2965001	-12.19827582	-164.6051038
5.25	525	-0.218	0.002	1.069	-23.9496444	26.1268848	-2.7501984	175.0558577	-12.44464776	-164.5649968
5.26	526	-0.211	-0.005	1.028	-23.3766864	26.069589	-2.7501984	174.8037562	-12.70247886	-164.5248897
5.27	527	-0.204	-0.017	0.991	-22.8610242	25.210152	-2.86479	174.5573843	-12.94312122	-164.4847826
5.28	528	-0.22	-0.009	0.939	-21.5432208	21.9442914	-2.6356068	174.3282011	-13.15511568	-164.438946
5.29	529	-0.199	-0.033	0.919	-19.6524594	18.6784308	-2.0626488	174.1162066	-13.33846224	-164.4102981
5.3	530	-0.223	-0.047	0.939	-16.7303736	14.610429	-1.8907614	173.9557784	-13.47597216	-164.3816502
5.31	531	-0.233	-0.041	0.962	-12.9488508	10.026765	-1.5469866	173.8182685	-13.57337502	-164.3587319
5.32	532	-0.235	-0.055	0.947	-11.9175264	6.9327918	-1.718874	173.6922177	-13.6364004	-164.3415431
5.33	533	-0.225	-0.047	0.917	-10.7716104	5.443101	-1.9480572	173.5776261	-13.68796662	-164.3128952
5.34	534	-0.239	-0.066	0.921	-10.4851314	4.2398892	-1.9480572	173.4630345	-13.72807368	-164.2899769
5.35	535	-0.232	-0.065	0.917	-10.1413566	1.2605076	-1.8334656	173.38855	-13.750992	-164.2842473
5.36	536	-0.23	-0.06	0.906	-9.5683986	-1.3750992	-1.6042824	173.2911471	-13.73380326	-164.2670586
5.37	537	-0.237	-0.068	0.906	-9.0527364	-2.6929026	-1.145916	173.1937442	-13.70515536	-164.261329
5.38	538	-0.247	-0.063	0.93	-8.1932994	-5.0420304	-0.5156622	173.1135301	-13.65358914	-164.261329
5.39	539	-0.254	-0.072	0.935	-6.9900876	-8.307891	0	173.0447752	-13.56764544	-164.2670586
5.4	540	-0.251	-0.066	0.949	-6.016059	-11.0007936	0.6302538	172.9989385	-13.47597216	-164.2899769
5.41	541	-0.25	-0.068	0.971	-4.583664	-13.9228794	1.432395	172.964561	-13.33846224	-164.3186248
5.42	542	-0.26	-0.071	1.002	-4.0680018	-17.761698	2.1199446	172.9359131	-13.16657484	-164.3587319
5.43	543	-0.246	-0.06	1.005	-3.3804522	-20.5118964	2.7501984	172.9129948	-12.96603954	-164.4102981
5.44	544	-0.244	-0.061	0.976	-3.3804522	-20.8556712	2.8074942	172.8900765	-12.76550424	-164.4561347
5.45	545	-0.231	-0.041	0.976	-3.724227	-19.9962342	3.0366774	172.8958061	-12.5764281	-164.5134305
5.46	546	-0.259	-0.075	0.984	-4.4690724	-20.9702628	3.151269	172.8614286	-12.37016322	-164.5649968
5.47	547	-0.233	-0.09	1.004	-2.8074942	-16.7876694	2.1199446	172.8442399	-12.20973498	-164.6051038
5.48	548	-0.217	-0.055	0.967	-1.6615782	-11.0007936	2.1772404	172.8327807	-12.10087296	-164.6394813
5.49	549	-0.221	-0.07	0.902	-4.010706	-10.6570188	1.7761698	172.8041328	-11.99774052	-164.6681292
5.5	550	-0.233	-0.072	0.921	-6.589017	-13.2926256	1.4896908	172.7640257	-11.88314892	-164.7025067
5.51	551	-0.217	-0.064	0.929	-6.4171296	-12.8342592	1.2605076	172.7067299	-11.75709816	-164.7311546
5.52	552	-0.202	-0.06	0.919	-6.7036086	-13.1207382	1.145916	172.6437046	-11.6310474	-164.7540729
5.53	553	-0.206	-0.066	0.948	-6.302538	-16.3865988	1.4896908	172.5864088	-11.47061916	-164.7884504
5.54	554	-0.221	-0.074	0.981	-4.870143	-20.05353	2.005353	172.5520313	-11.27581344	-164.8285574
5.55	555	-0.214	-0.061	1.013	-2.578311	-23.5485738	2.4637194	172.5634904	-11.05235982	-164.8858532
5.56	556	-0.218	-0.058	1.038	-0.859437	-26.2414764	2.8074942	172.56922	-10.79452872	-164.9374195
5.57	557	-0.212	-0.061	1.055	0.572958	-28.4760126	3.0366774	172.5864088	-10.51950888	-165.0004448
5.58	558	-0.201	-0.06	1.06	1.3750992	-28.9916748	2.9793816	172.6150567	-10.23875946	-165.0577406
5.59	559	-0.201	-0.056	1.063	1.8334656	-26.8717302	2.6356068	172.6494341	-9.97519878	-165.1093069
5.6	560	-0.177	-0.054	1.063	2.005353	-24.8663772	2.1772404	172.7067299	-9.740286	-165.1608731
5.61	561	-0.182	-0.054	1.037	1.2605076	-22.2880662	1.8907614	172.7296483	-9.52256196	-165.2067097
5.62	562	-0.156	-0.068	1.026	0.286479	-19.8816426	1.2605076	172.7411074	-9.32775624	-165.2353576
5.63	563	-0.117	-0.016	1.024	-1.2032118	-17.9335854	1.7761698	172.7353778	-9.15586884	-165.2754647
5.64	564	-0.249	-0.069	0.994	-2.2345362	-13.9228794	0.859437	172.7181891	-9.01835892	-165.298383
5.65	565	-0.174	-0.117	0.977	-1.718874	-7.6203414	-0.3437748	172.7353778	-8.89803774	-165.3041126
5.66	566	-0.145	-0.051	0.984	-0.4583664	-3.6669312	-0.6875496	172.7296483	-8.86366026	-165.3041126
5.67	567	-0.164	-0.039	0.988	-0.2291832	0.2291832	-0.8021412	172.7239187	-8.86366026	-165.2926534
5.68	568	-0.145	-0.058	0.995	-0.1718874	1.3750992	-0.6875496	172.7181891	-8.87511942	-165.2869238
5.69	569	-0.156	-0.054	0.991	-0.2291832	2.1772404	-0.6875496	172.7181891	-8.89803774	-165.2754647
5.7	570	-0.156	-0.058	0.991	-0.572958	3.3804522	-0.7448454	172.8270511	-8.93241522	-165.2869238
5.71	571	-0.159	-0.06	1.001	-1.0886202	4.1825934	-0.859437	172.8098624	-8.97252228	-165.2697351
5.72	572	-0.162	-0.064	1.006	-1.0886202	4.6409598	-0.859437	172.7984032	-9.01835892	-165.2582759
5.73	573	-0.166	-0.062	1.01	-0.6302538	4.5263682	-0.7448454	172.7869441	-9.06419556	-165.2468168
5.74	574	-0.168	-0.061	1.014	0	4.1825934	-0.572958	172.7869441	-9.10430262	-165.2353576
5.75	575	-0.174	-0.064	1.018	0.3437748	3.6669312	-0.4583664	172.9072652	-9.167328	-165.2525464
5.76	576	-0.176	-0.065	1.018	0.9167328	2.9220858	-0.3437748	172.9129948	-9.1959759	-165.2410872
5.77	577	-0.178	-0.065	1.015	1.4896908	2.005353	-0.2291832	172.9301836	-9.21316464	-165.2410872
5.78	578	-0.18	-0.064	1.014	1.8907614	1.145916	0	172.9473723	-9.2246238	-165.2353576
5.79	579	-0.175	-0.065	1.006	2.1199446	0.0572958	0.1145916	172.9702906	-9.23035338	-165.2410872
5.8	580	-0.173	-0.064	1	2.3491278	-0.572958	0.286479	173.1307189	-9.2532717	-165.2697351
5.81	581	-0.173	-0.061	1.003	2.4064236	-1.0886202	0.4010706	173.1593668	-9.24181254	-165.2754647
5.82	582	-0.173	-0.061	1.003	2.291832	-1.2032118	0.5156622	173.1822851	-9.23035338	-165.2811943
5.83	583	-0.178	-0.06	0.999	2.1199446	-0.9740286	0.5156622	173.2052034	-9.2246238	-165.2869238
5.84	584	-0.173	-0.057	1.003	1.6615782	-0.8021412	0.6302538	173.2223921	-9.21316464	-165.2926534
5.85	585	-0.167	-0.059	0.999	1.0886202	-0.572958	0.4583664	173.4573049	-9.25900128	-165.3384901
5.86	586	-0.178	-0.06	0.997	0.6302538	-0.4010706	0.286479	173.4687641	-9.2532717	-165.3442196
5.87	587	-0.186	-0.065	0.99	0.572958	0.8021412	0.1718874	173.4744937	-9.26473086	-165.3442196
5.88	588	-0.18	-0.063	0.989	0.2291832	2.2345362	-0.0572958	173.4744937	-9.2819196	-165.3442196
5.89	589	-0.172	-0.061	0.991	0	3.0366774	-0.1718874	173.4744937	-9.31629708	-165.3384901
5.9	590	-0.169	-0.059	0.987	-0.1145916	3.0366774	-0.3437748	173.5890853	-9.36213372	-165.3556788
5.91	591	-0.17	-0.062	0.984	-0.1718874	2.6929026	-0.286479	173.5890853	-9.39078162	-165.3499492
5.92	592	-0.171	-0.06	0.985	-0.286479	2.4064236	-0.2291832	173.5833557	-9.41369994	-165.3442196
5.93	593	-0.174	-0.06	0.991	-0.2291832	1.9480572	-0.1718874	173.5776261	-9.43088868	-165.3384901
5.94	594	-0.176	-0.06	0.998	-0.1145916	1.2605076	-0.0572958	173.5776261	-9.44807742	-165.3384901
5.95	595	-0.177	-0.06	1.002	0.1145916	0.4010706	0	174.2307982	-9.59131692	-165.4645408
5.96	596	-0.176	-0.06	1.001	0.3437748	-0.3437748	0.2291832	174.2365278	-9.58558734	-165.4645408
5.97	597	-0.177	-0.058	1.003	0.4010706	-1.2032118	0.1718874	174.2422574	-9.57412818	-165.4702704
5.98	598	-0.178	-0.061	1.004	0.4010706	-2.005353	0.1718874	174.247987	-9.55693944	-165.476
5.99	599	-0.179	-0.06	1.003	0.286479	-2.6356068	0.2291832	174.2537165	-9.52829154	-165.476
6	600	-0.177	-0.06	1.005	0.4010706	-3.2658606	0.3437748	174.3224715	-9.5111028	-165.4989183
6.01	601	-0.176	-0.058	1.005	0.4583664	-3.8388186	0.4583664	174.3282011	-9.47672532	-165.5046479
6.02	602	-0.176	-0.059	1.001	0.286479	-4.297185	0.4583664	174.3339307	-9.43088868	-165.5103775
6.03	603	-0.173	-0.06	0.996	0.1718874	-4.4690724	0.4583664	174.3396602	-9.39078162	-165.5218366
6.04	604	-0.171	-0.06	0.993	0.1145916	-4.4117766	0.5156622	174.3396602	-9.34494498	-165.5275662
6.05	605	-0.17	-0.059	0.994	0	-4.4117766	0.4583664	174.396956	-9.31629708	-165.5447549
6.06	606	-0.171	-0.06	0.997	0	-4.3544808	0.5156622	174.396956	-9.27046044	-165.5562141
6.07	607	-0.169	-0.059	1	0	-4.297185	0.572958	174.396956	-9.23035338	-165.5676733
6.08	608	-0.167	-0.06	1.002	-0.1145916	-4.010706	0.4583664	174.4026856	-9.19024632	-165.5734028
6.09	609	-0.167	-0.06	0.999	-0.1145916	-3.6096354	0.4583664	174.4026856	-9.15586884	-165.5791324
6.1	610	-0.166	-0.058	1.002	0	-3.151269	0.3437748	174.4771702	-9.13295052	-165.6020507
6.11	611	-0.165	-0.059	1.005	0	-2.4064236	0.3437748	174.4828997	-9.1100322	-165.6077803
6.12	612	-0.165	-0.06	1.005	0	-2.005353	0.286479	174.4828997	-9.09284346	-165.6077803
6.13	613	-0.164	-0.059	1.005	0.0572958	-1.7761698	0.286479	174.4828997	-9.07565472	-165.6135099
6.14	614	-0.164	-0.059	1.006	0.1718874	-1.432395	0.286479	174.4886293	-9.05846598	-165.6192395
6.15	615	-0.165	-0.06	1.007	0.286479	-1.2605076	0.2291832	174.6261392	-9.06419556	-165.6478874
6.16	616	-0.164	-0.06	1.005	0.286479	-0.9167328	0.1145916	174.6261392	-9.0527364	-165.6478874
6.17	617	-0.164	-0.06	1.006	0.4583664	-0.7448454	0.1718874	174.6318688	-9.04700682	-165.653617
6.18	618	-0.164	-0.061	1.006	0.572958	-0.6875496	0.2291832	174.6375984	-9.04127724	-165.653617
6.19	619	-0.164	-0.06	1.003	0.6302538	-0.572958	0.1718874	174.6490576	-9.03554766	-165.6593465
6.2	620	-0.164	-0.061	1.001	0.6302538	-0.572958	0.1718874	174.7693787	-9.0527364	-165.6822649
6.21	621	-0.165	-0.059	1.003	0.6302538	-0.6302538	0.1145916	174.7751083	-9.04700682	-165.6822649
6.22	622	-0.164	-0.06	1.004	0.6302538	-0.5156622	0.1145916	174.7865675	-9.04127724	-165.6822649
6.23	623	-0.165	-0.059	1.003	0.7448454	-0.6875496	0.0572958	174.7922971	-9.03554766	-165.6822649
6.24	624	-0.165	-0.059	1.003	0.6302538	-0.7448454	0.1718874	174.7980266	-9.02981808	-165.6879944
6.25	625	-0.166	-0.058	1.002	0.6875496	-0.6875496	0.1145916	174.9011591	-9.04700682	-165.7051832
6.26	626	-0.164	-0.058	1.003	0.7448454	-0.572958	0.2291832	174.9126182	-9.04127724	-165.7109128
6.27	627	-0.164	-0.059	1.001	0.9167328	-0.3437748	0.2291832	174.9240774	-9.03554766	-165.7109128
6.28	628	-0.164	-0.059	1.001	1.0886202	-0.1718874	0.2291832	174.9355366	-9.03554766	-165.7166423
6.29	629	-0.166	-0.06	1.006	0.8021412	-0.1145916	0.1718874	174.9412661	-9.03554766	-165.7166423
6.3	630	-0.167	-0.058	1.011	0.286479	-0.1718874	0.1145916	175.1418014	-9.09284346	-165.7567494
6.31	631	-0.167	-0.058	1.011	0.0572958	-0.286479	0.0572958	175.147531	-9.08711388	-165.7567494
6.32	632	-0.167	-0.058	1.007	0.1145916	-0.3437748	0.0572958	175.147531	-9.08711388	-165.7567494
6.33	633	-0.165	-0.059	1	0.4010706	-0.2291832	0.0572958	175.1532606	-9.0813843	-165.7567494
6.34	634	-0.164	-0.06	0.996	0.5156622	-0.2291832	0.2291832	175.1589902	-9.0813843	-165.762479
6.35	635	-0.163	-0.059	0.996	0.3437748	-0.286479	0.1145916	175.2793114	-9.10430262	-165.7853973
6.36	636	-0.164	-0.057	0.995	0.4583664	-0.5156622	0.1718874	175.2850409	-9.09857304	-165.7853973
6.37	637	-0.163	-0.057	0.996	0.5156622	-0.6302538	0.1145916	175.2907705	-9.09284346	-165.7853973
6.38	638	-0.163	-0.057	0.997	0.4583664	-0.7448454	0.1718874	175.2965001	-9.08711388	-165.7911269
6.39	639	-0.163	-0.058	0.996	0.5156622	-0.9167328	0.1718874	175.3022297	-9.07565472	-165.7911269
6.4	640	-0.162	-0.058	0.998	0.5156622	-1.0886202	0.1145916	175.3595255	-9.0813843	-165.802586
6.41	641	-0.163	-0.057	1.003	0.4010706	-1.0886202	0.1718874	175.3652551	-9.06992514	-165.802586
6.42	642	-0.162	-0.057	1.004	0.3437748	-1.0313244	0.0572958	175.3709846	-9.05846598	-165.8083156
6.43	643	-0.163	-0.058	1.005	0.3437748	-0.9740286	0.1145916	175.3709846	-9.04700682	-165.8083156
6.44	644	-0.162	-0.056	1.005	0.3437748	-0.9740286	0.0572958	175.3767142	-9.03554766	-165.8083156
6.45	645	-0.164	-0.058	1.005	0.3437748	-0.9167328	0.1145916	175.4397396	-9.04127724	-165.8197748
6.46	646	-0.162	-0.057	1.007	0.4583664	-0.9740286	0.1718874	175.4454692	-9.03554766	-165.8255044
6.47	647	-0.163	-0.056	1.006	0.572958	-0.9740286	0.1718874	175.4511988	-9.0240885	-165.8255044
6.48	648	-0.163	-0.057	1.006	0.572958	-1.0313244	0.1718874	175.4569283	-9.01262934	-165.8312339
6.49	649	-0.162	-0.057	1.003	0.4583664	-0.9167328	0.1718874	175.4626579	-9.00117018	-165.8312339
6.5	650	-0.161	-0.057	1.001	0.286479	-0.859437	0.1718874	175.5314129	-9.00117018	-165.8426931
6.51	651	-0.161	-0.057	1.002	0.2291832	-0.7448454	0.1145916	175.5371425	-8.9954406	-165.8484227
6.52	652	-0.161	-0.057	1.001	0.2291832	-0.6875496	0.0572958	175.5371425	-8.98398144	-165.8484227
6.53	653	-0.16	-0.057	1.001	0.286479	-0.6875496	0.1718874	175.542872	-8.97825186	-165.8484227
6.54	654	-0.16	-0.057	1	0	-0.1145916	0.0572958	175.542872	-8.97825186	-165.8541523
6.55	655	-0.16	-0.058	1.002	-0.1145916	0	0	175.829351	-9.0240885	-165.9057185
6.56	656	-0.161	-0.058	1.004	-0.1145916	0	0	175.8236215	-9.0240885	-165.9057185
6.57	657	-0.16	-0.057	1.005	-0.1718874	0.0572958	0	175.8236215	-9.0240885	-165.9057185
6.58	658	-0.16	-0.057	1.005	-0.1145916	0.0572958	0	175.8236215	-9.0240885	-165.9057185
6.59	659	-0.161	-0.057	1.005	0	0.1145916	0	175.8236215	-9.02981808	-165.9057185
6.6	660	-0.161	-0.058	1.006	0	0.0572958	0	175.9324835	-9.04127724	-165.9229072
6.61	661	-0.161	-0.057	1.006	-0.1145916	0.1145916	0	175.9324835	-9.04127724	-165.9229072
6.62	662	-0.16	-0.057	1.005	-0.1718874	0.2291832	0	175.9267539	-9.04127724	-165.9229072
6.63	663	-0.16	-0.057	1.003	-0.1145916	0.286479	0	175.9267539	-9.04700682	-165.9229072
6.64	664	-0.16	-0.057	1.002	-0.0572958	0.4010706	0	175.9267539	-9.0527364	-165.9229072
6.65	665	-0.16	-0.057	1.001	0	0.4583664	-0.0572958	175.9725905	-9.06419556	-165.9286368
6.66	666	-0.16	-0.056	1.001	0	0.3437748	0	175.9725905	-9.06419556	-165.9286368
6.67	667	-0.16	-0.056	1.002	-0.0572958	0.3437748	0	175.966861	-9.06992514	-165.9286368
6.68	668	-0.159	-0.057	1.002	-0.1145916	0.286479	0	175.966861	-9.07565472	-165.9286368
6.69	669	-0.16	-0.055	1.005	-0.1145916	0.2291832	-0.1145916	175.966861	-9.07565472	-165.9286368
6.7	670	-0.16	-0.057	1.004	-0.1718874	0.286479	-0.0572958	176.006968	-9.07565472	-165.9343664
6.71	671	-0.16	-0.057	1.004	-0.1718874	0.3437748	0	176.0012384	-9.07565472	-165.9343664
6.72	672	-0.161	-0.056	1.004	-0.1145916	0.3437748	-0.0572958	176.0012384	-9.0813843	-165.9343664
6.73	673	-0.16	-0.056	1.004	-0.1145916	0.3437748	-0.1145916	176.0012384	-9.08711388	-165.9286368
6.74	674	-0.16	-0.056	1.005	-0.1145916	0.3437748	-0.1145916	175.9955089	-9.08711388	-165.9286368
6.75	675	-0.16	-0.056	1.005	-0.0572958	0.1145916	-0.0572958	176.0470751	-9.07565472	-165.9343664
6.76	676	-0.16	-0.055	1.004	-0.0572958	0.1718874	0	176.0470751	-9.0813843	-165.9343664
6.77	677	-0.16	-0.056	1.004	-0.0572958	0.1145916	-0.0572958	176.0413455	-9.0813843	-165.9343664
6.78	678	-0.16	-0.055	1.005	-0.0572958	0.1718874	-0.0572958	176.0413455	-9.0813843	-165.9343664
6.79	679	-0.158	-0.055	1	-0.0572958	0.1145916	-0.0572958	176.0413455	-9.0813843	-165.9343664
6.8	680	-0.16	-0.055	1.002	-0.0572958	0.0572958	0	176.1272892	-9.07565472	-165.9515551
6.81	681	-0.159	-0.056	1.003	-0.1145916	0.0572958	-0.0572958	176.1272892	-9.07565472	-165.9458255
6.82	682	-0.158	-0.056	1.002	-0.286479	0.1145916	-0.0572958	176.1272892	-9.0813843	-165.9458255
6.83	683	-0.159	-0.056	1.003	-0.5156622	-0.0572958	-0.0572958	176.1215596	-9.07565472	-165.9458255
6.84	684	-0.159	-0.055	1.003	-0.5156622	-0.1145916	-0.1145916	176.11583	-9.07565472	-165.9458255
6.85	685	-0.158	-0.056	1.003	-0.286479	-0.1145916	0	176.1387484	-9.04700682	-165.9515551
6.86	686	-0.16	-0.055	1.002	0	0	0	176.1387484	-9.04700682	-165.9515551
6.87	687	-0.155	-0.058	1.002	0.1718874	-0.0572958	0	176.1387484	-9.04127724	-165.9515551
6.88	688	-0.158	-0.057	1.006	0.2291832	-0.1145916	0.0572958	176.1444779	-9.04127724	-165.9515551
6.89	689	-0.159	-0.056	1.011	0	-0.1718874	0.0572958	176.1444779	-9.04127724	-165.9515551
6.9	690	-0.158	-0.055	1.012	-0.286479	-0.1718874	0	176.1559371	-9.0240885	-165.9572847
6.91	691	-0.159	-0.056	1.009	-0.3437748	-0.1145916	-0.0572958	176.1502075	-9.01835892	-165.9515551
6.92	692	-0.158	-0.056	1.004	-0.1145916	0	0	176.1502075	-9.01835892	-165.9515551
6.93	693	-0.158	-0.056	1.001	-0.1145916	0.0572958	-0.0572958	176.1502075	-9.0240885	-165.9515551
6.94	694	-0.158	-0.055	1.001	-0.1718874	0.0572958	0	176.1444779	-9.0240885	-165.9515551
6.95	695	-0.158	-0.055	1.002	-0.1145916	0	0	176.1731258	-9.01262934	-165.9572847
6.96	696	-0.158	-0.054	1.004	-0.1145916	0	-0.0572958	176.1731258	-9.01262934	-165.9572847
6.97	697	-0.157	-0.055	1.002	-0.0572958	0.0572958	0	176.1731258	-9.01262934	-165.9572847
6.98	698	-0.157	-0.055	1.003	-0.1145916	0.0572958	-0.0572958	176.1673963	-9.01835892	-165.9572847
6.99	699	-0.157	-0.055	1.002	-0.1145916	0.0572958	0	176.1673963	-9.01835892	-165.9572847
7	700	-0.157	-0.055	1.004	-0.1145916	0.1145916	-0.0572958	176.2017737	-8.9954406	-165.9630143
7.01	701	-0.157	-0.055	1.003	-0.0572958	0.1145916	-0.0572958	176.2017737	-8.9954406	-165.9630143
7.02	702	-0.156	-0.056	1.005	-0.0572958	0.1145916	-0.0572958	176.2017737	-9.00117018	-165.9572847
7.03	703	-0.157	-0.057	1.005	0	0.1718874	0	176.2017737	-9.00117018	-165.9572847
7.04	704	-0.157	-0.056	1.005	-0.0572958	0.1718874	0	176.2017737	-9.00117018	-165.9572847
7.05	705	-0.157	-0.058	1.004	-0.0572958	0.1718874	0	176.1960442	-8.98971102	-165.9572847
7.06	706	-0.157	-0.056	1.004	-0.0572958	0.1718874	0	176.1960442	-8.98971102	-165.9572847
7.07	707	-0.157	-0.056	1.005	-0.0572958	0.2291832	-0.0572958	176.1960442	-8.9954406	-165.9572847
7.08	708	-0.158	-0.056	1.007	-0.1145916	0.1718874	0	176.1903146	-8.9954406	-165.9572847
7.09	709	-0.157	-0.056	1.006	-0.2291832	0.2291832	-0.1145916	176.1903146	-9.00117018	-165.9515551
7.1	710	-0.157	-0.056	1.004	-0.286479	0.2291832	-0.1145916	176.1960442	-8.9954406	-165.9515551
7.11	711	-0.158	-0.057	1.005	-0.1718874	0.286479	-0.0572958	176.1903146	-8.9954406	-165.9515551
7.12	712	-0.156	-0.055	1.003	-0.1145916	0.3437748	-0.0572958	176.1903146	-9.00117018	-165.9515551
7.13	713	-0.156	-0.056	1.001	0	0.3437748	0	176.1903146	-9.00689976	-165.9515551
7.14	714	-0.157	-0.057	1.003	0	0.2291832	0	176.1903146	-9.00689976	-165.9515551
7.15	715	-0.157	-0.055	1.004	-0.1718874	0.1718874	0	176.2017737	-8.98971102	-165.9515551
7.16	716	-0.157	-0.056	1.006	-0.0572958	0.0572958	0	176.2017737	-8.98971102	-165.9572847
7.17	717	-0.157	-0.057	1.005	0	0.1145916	0.0572958	176.2017737	-8.98971102	-165.9572847
7.18	718	-0.156	-0.057	1.003	0	0.0572958	0	176.2017737	-8.9954406	-165.9572847
7.19	719	-0.156	-0.056	1.003	0	0.1718874	0	176.2017737	-8.9954406	-165.9572847
7.2	720	-0.157	-0.056	1.005	0	0.1145916	0	176.2132329	-8.97825186	-165.9572847
7.21	721	-0.156	-0.057	1.006	0	0.2291832	0	176.2132329	-8.98398144	-165.9572847
7.22	722	-0.157	-0.056	1.005	0	0.2291832	0	176.2132329	-8.98398144	-165.9572847
7.23	723	-0.157	-0.056	1.006	0	0.286479	0	176.2132329	-8.98971102	-165.9572847
7.24	724	-0.157	-0.055	1.005	0	0.4010706	0	176.2132329	-8.9954406	-165.9572847
7.25	725	-0.157	-0.056	1.003	0	0.4010706	0	176.2189625	-8.98971102	-165.9572847
7.26	726	-0.157	-0.056	1.005	0	0.1718874	0	176.2189625	-8.98971102	-165.9572847
7.27	727	-0.157	-0.056	1.005	0.0572958	0.2291832	0	176.2189625	-8.9954406	-165.9572847
7.28	728	-0.157	-0.057	1.005	0.0572958	0.3437748	-0.0572958	176.2189625	-8.9954406	-165.9572847
7.29	729	-0.157	-0.057	1.006	0	0.286479	0	176.2189625	-9.00117018	-165.9572847
7.3	730	-0.157	-0.056	1.006	0	0.2291832	0	176.2304216	-8.98398144	-165.9572847
7.31	731	-0.157	-0.056	1.006	-0.0572958	0.1718874	0	176.2304216	-8.98971102	-165.9572847
7.32	732	-0.158	-0.056	1.005	0	0.1718874	0	176.2304216	-8.98971102	-165.9572847
7.33	733	-0.156	-0.056	1.003	0	0.1145916	0	176.2304216	-8.98971102	-165.9572847
7.34	734	-0.156	-0.057	1.002	0.0572958	0.1718874	-0.0572958	176.2304216	-8.9954406	-165.9572847
7.35	735	-0.157	-0.057	1.002	0.1145916	0.2291832	0	176.2361512	-8.98398144	-165.9572847
7.36	736	-0.156	-0.056	1.004	0.0572958	0.1145916	0	176.2361512	-8.98971102	-165.9572847
7.37	737	-0.157	-0.055	1.004	0.1145916	0	-0.0572958	176.2361512	-8.98971102	-165.9572847
7.38	738	-0.151	-0.06	1.003	0	0.1718874	0	176.2361512	-8.98971102	-165.9572847
7.39	739	-0.161	-0.053	1.001	0.0572958	0.1718874	0	176.2361512	-8.98971102	-165.9572847
7.4	740	-0.155	-0.057	1.004	0.0572958	0.3437748	0	176.2418808	-8.9667927	-165.9572847
7.41	741	-0.154	-0.059	1.003	0	0.286479	0	176.2418808	-8.97252228	-165.9572847
7.42	742	-0.158	-0.056	1.004	0	0.2291832	0	176.2418808	-8.97252228	-165.9572847
7.43	743	-0.159	-0.055	1.005	0	0.2291832	0	176.2418808	-8.97825186	-165.9572847
7.44	744	-0.156	-0.057	1.006	-0.0572958	0.4010706	-0.0572958	176.2418808	-8.97825186	-165.9572847
7.45	745	-0.156	-0.057	1.004	-0.1718874	0.2291832	-0.0572958	176.2418808	-8.97252228	-165.9572847
7.46	746	-0.157	-0.056	1.005	-0.1718874	0	0	176.2418808	-8.97252228	-165.9572847
7.47	747	-0.155	-0.057	1.003	-0.0572958	0.1718874	0	176.2361512	-8.97825186	-165.9572847
7.48	748	-0.155	-0.056	1.001	0.1718874	0.2291832	0	176.2418808	-8.97825186	-165.9572847
7.49	749	-0.156	-0.057	1	0.4010706	0.286479	0.0572958	176.2476104	-8.98398144	-165.9572847
7.5	750	-0.156	-0.057	1.005	0.3437748	0.2291832	0	176.25334	-8.97252228	-165.9572847
7.51	751	-0.157	-0.057	1.007	0.0572958	0.0572958	0	176.25334	-8.97252228	-165.9572847
7.52	752	-0.158	-0.056	1.009	0	-0.0572958	0	176.25334	-8.97252228	-165.9572847
7.53	753	-0.158	-0.057	1.01	0.0572958	-0.1718874	0	176.25334	-8.97252228	-165.9572847
7.54	754	-0.156	-0.057	1.005	0.1145916	0.1145916	0	176.2590695	-8.97252228	-165.9572847
7.55	755	-0.155	-0.056	1.002	0.1718874	0.2291832	0	176.2647991	-8.9667927	-165.9572847
7.56	756	-0.157	-0.057	1.001	0	0.1718874	-0.0572958	176.2647991	-8.9667927	-165.9572847
7.57	757	-0.156	-0.057	1.003	0	0.1718874	0	176.2647991	-8.9667927	-165.9572847
7.58	758	-0.156	-0.056	1.003	0	0.0572958	0	176.2647991	-8.9667927	-165.9572847
7.59	759	-0.158	-0.056	1.001	0	0.0572958	0	176.2647991	-8.9667927	-165.9572847
7.6	760	-0.156	-0.056	1.003	-0.0572958	0	0	176.2762583	-8.94387438	-165.9572847
7.61	761	-0.156	-0.056	1.001	-0.0572958	-0.0572958	0	176.2762583	-8.94387438	-165.9572847
7.62	762	-0.157	-0.056	1.003	0	-0.1145916	0	176.2762583	-8.94387438	-165.9572847
7.63	763	-0.157	-0.056	1.004	-0.0572958	-0.1718874	0	176.2762583	-8.9381448	-165.9572847
7.64	764	-0.157	-0.056	1.005	0	-0.1718874	0	176.2762583	-8.9381448	-165.9572847
7.65	765	-0.157	-0.057	1.007	0	-0.1718874	0	176.2762583	-8.93241522	-165.9572847
7.66	766	-0.157	-0.055	1.006	0	-0.2291832	0	176.2762583	-8.92668564	-165.9572847
7.67	767	-0.156	-0.057	1.005	0.0572958	-0.2291832	0	176.2762583	-8.92668564	-165.9572847
7.68	768	-0.156	-0.057	1.004	0.1145916	-0.1718874	0	176.2762583	-8.92095606	-165.9572847
7.69	769	-0.156	-0.056	1.003	0	-0.0572958	0	176.2762583	-8.92095606	-165.9572847
7.7	770	-0.156	-0.057	1.003	0.1718874	-0.2291832	0	176.2819879	-8.90376732	-165.9572847
7.71	771	-0.157	-0.057	1.004	0.1145916	-0.2291832	0.0572958	176.2819879	-8.90376732	-165.9572847
7.72	772	-0.156	-0.057	1.003	0	-0.1718874	0	176.2819879	-8.89803774	-165.9572847
7.73	773	-0.157	-0.057	1.005	-0.0572958	-0.1718874	0	176.2819879	-8.89803774	-165.9572847
7.74	774	-0.156	-0.056	1.004	-0.1145916	0	0	176.2819879	-8.89803774	-165.9572847
7.75	775	-0.156	-0.056	1.002	0	0	0	176.2819879	-8.89230816	-165.9572847
7.76	776	-0.156	-0.057	1.001	0.0572958	-0.1145916	0	176.2819879	-8.89230816	-165.9572847
7.77	777	-0.156	-0.057	1.003	0	0.0572958	0.0572958	176.2819879	-8.89230816	-165.9630143
7.78	778	-0.157	-0.057	1.006	0	-0.0572958	0.0572958	176.2819879	-8.89230816	-165.9630143
7.79	779	-0.157	-0.056	1.006	0	0	0.0572958	176.2819879	-8.89230816	-165.9630143
7.8	780	-0.157	-0.056	1.004	0.0572958	0	0.0572958	176.293447	-8.880849	-165.9630143
7.81	781	-0.156	-0.057	1.005	0.0572958	0	0.0572958	176.293447	-8.880849	-165.9630143
7.82	782	-0.157	-0.057	1.005	0	0	0.0572958	176.293447	-8.880849	-165.9630143
7.83	783	-0.157	-0.056	1.005	0	0	0	176.293447	-8.880849	-165.9630143
7.84	784	-0.157	-0.057	1.005	0	0	0	176.293447	-8.880849	-165.9630143
7.85	785	-0.156	-0.057	1.004	0.0572958	0	0.0572958	176.293447	-8.880849	-165.9687439
7.86	786	-0.157	-0.058	1.004	0.0572958	-0.0572958	0	176.293447	-8.880849	-165.9687439
7.87	787	-0.156	-0.056	1.004	0	-0.0572958	0	176.293447	-8.880849	-165.9687439
7.88	788	-0.157	-0.056	1.003	0	0	0	176.293447	-8.880849	-165.9687439
7.89	789	-0.156	-0.056	1.004	-0.0572958	0	0	176.293447	-8.880849	-165.9687439
7.9	790	-0.157	-0.055	1.003	0	0	0	176.3049062	-8.89230816	-165.9687439
