TimeStamp(s)	FrameCounter	AccX	AccY	AccZ	GyrX	GyrY	GyrZ	EulerX	EulerY	EulerZ
0.01	1	-0.018	-1.01	0.038	0.1145916	0.9740286	-0.2291832	92.60720154	-0.50993262	-46.04863446
0.02	2	-0.02	-1.011	0.033	-0.1145916	1.145916	-0.1718874	92.60720154	-0.50993262	-46.0371753
0.03	3	-0.024	-1.009	0.029	-0.4010706	1.7761698	-0.2291832	92.60147196	-0.50993262	-46.01998656
0.04	4	-0.026	-1.006	0.031	-0.4010706	2.6929026	-0.1145916	92.59574238	-0.50993262	-45.99133866
0.05	5	-0.026	-1.004	0.032	-0.1718874	3.4950438	-0.0572958	92.5613649	-0.52139178	-45.95696118
0.06	6	-0.024	-1.006	0.035	-0.1145916	3.3231564	0	92.5613649	-0.52712136	-45.9225837
0.07	7	-0.024	-1.008	0.041	-0.3437748	2.9793816	-0.0572958	92.55563532	-0.52712136	-45.8939358
0.08	8	-0.021	-1.01	0.044	-0.6302538	2.7501984	-0.1145916	92.54990574	-0.52712136	-45.8652879
0.09	9	-0.017	-1.011	0.045	-0.4583664	2.86479	-0.1718874	92.54417616	-0.52712136	-45.83664
0.1	10	-0.016	-1.013	0.04	-0.2291832	2.9793816	-0.3437748	92.51552826	-0.52712136	-45.8079921
0.11	11	-0.012	-1.014	0.037	-0.4583664	3.2658606	-0.4583664	92.50979868	-0.52139178	-45.77361462
0.12	12	-0.012	-1.011	0.037	-1.0313244	3.3804522	-0.6302538	92.49833952	-0.52139178	-45.74496672
0.13	13	-0.011	-1.006	0.038	-1.4896908	3.2085648	-0.6302538	92.48115078	-0.5156622	-45.71058924
0.14	14	-0.012	-1.002	0.041	-1.6042824	3.0366774	-0.4583664	92.46396204	-0.5156622	-45.68194134
0.15	15	-0.012	-1.001	0.04	-1.432395	3.151269	-0.4010706	92.42958456	-0.50993262	-45.64756386
0.16	16	-0.011	-1.006	0.038	-1.0886202	3.151269	-0.4583664	92.4181254	-0.50993262	-45.61891596
0.17	17	-0.012	-1.005	0.033	-1.2605076	2.7501984	-0.4583664	92.40666624	-0.50420304	-45.59026806
0.18	18	-0.011	-1.003	0.031	-1.6042824	2.5210152	-0.4010706	92.3894775	-0.50420304	-45.56162016
0.19	19	-0.008	-1.003	0.034	-1.8334656	2.2345362	-0.5156622	92.36655918	-0.49847346	-45.53870184
0.2	20	-0.008	-1.006	0.037	-1.9480572	1.3750992	-0.8021412	92.32645212	-0.49274388	-45.52724268
0.21	21	-0.013	-1.006	0.035	-2.4064236	1.3178034	-1.0313244	92.3035338	-0.48128472	-45.51578352
0.22	22	-0.019	-1.007	0.031	-2.8074942	1.7761698	-1.145916	92.26915632	-0.46982556	-45.49859478
0.23	23	-0.023	-1.008	0.028	-3.151269	2.7501984	-1.145916	92.24050842	-0.46409598	-45.46994688
0.24	24	-0.024	-1.007	0.026	-3.3804522	3.4950438	-1.0313244	92.20613094	-0.45263682	-45.4355694
0.25	25	-0.024	-1.005	0.023	-3.724227	4.010706	-0.7448454	92.14883514	-0.45263682	-45.39546234
0.26	26	-0.022	-1.004	0.025	-4.010706	4.4690724	-0.4583664	92.10872808	-0.45263682	-45.3496257
0.27	27	-0.016	-1.006	0.027	-4.1825934	4.5263682	-0.5156622	92.06289144	-0.44690724	-45.30378906
0.28	28	-0.011	-1.008	0.026	-4.4690724	4.4690724	-0.7448454	92.0170548	-0.44690724	-45.25795242
0.29	29	-0.012	-1.007	0.024	-4.9847346	4.4690724	-0.859437	91.96548858	-0.44117766	-45.21784536
0.3	30	-0.011	-1.004	0.022	-5.2712136	4.870143	-0.859437	91.9024632	-0.4297185	-45.16627914
0.31	31	-0.007	-1.003	0.022	-5.72958	5.443101	-0.9740286	91.83943782	-0.42398892	-45.11471292
0.32	32	0	-1.002	0.023	-6.3598338	5.5003968	-0.8021412	91.77641244	-0.42398892	-45.05741712
0.33	33	0.007	-1.003	0.022	-6.8182002	4.9274388	-0.6302538	91.70765748	-0.41825934	-45.01158048
0.34	34	0.015	-1.003	0.025	-6.875496	4.583664	-0.3437748	91.63317294	-0.41825934	-44.96574384
0.35	35	0.019	-0.999	0.027	-6.7609044	3.8388186	0	91.5586884	-0.40680018	-44.93136636
0.36	36	0.016	-0.999	0.029	-6.5317212	2.4637194	0.5156622	91.48993344	-0.41825934	-44.90844804
0.37	37	0.01	-0.998	0.03	-6.3598338	0.9167328	1.0313244	91.42690806	-0.4297185	-44.89698888
0.38	38	0.001	-0.995	0.032	-6.1306506	-0.1145916	1.2032118	91.36388268	-0.44117766	-44.90271846
0.39	39	-0.001	-0.997	0.036	-6.016059	-0.9740286	1.0313244	91.3008573	-0.45263682	-44.90844804
0.4	40	0	-0.999	0.039	-5.9587632	-1.145916	0.8021412	91.23783192	-0.45263682	-44.92563678
0.41	41	0	-1.001	0.04	-6.016059	-1.4896908	0.572958	91.18053612	-0.4583664	-44.93709594
0.42	42	-0.002	-1.003	0.037	-6.016059	-2.1772404	0.3437748	91.11751074	-0.46409598	-44.96001426
0.43	43	-0.003	-1.005	0.037	-6.1879464	-2.6929026	0.286479	91.05448536	-0.46409598	-44.98866216
0.44	44	-0.004	-1.007	0.035	-6.302538	-3.3804522	0.4010706	90.99145998	-0.46982556	-45.02303964
0.45	45	-0.002	-1.01	0.034	-6.7609044	-3.9534102	0.4583664	90.92270502	-0.46982556	-45.0631467
0.46	46	0.002	-1.016	0.028	-7.2192708	-4.2398892	0.4583664	90.84822048	-0.46982556	-45.10898334
0.47	47	0.011	-1.017	0.021	-7.6776372	-4.870143	0.6302538	90.77373594	-0.47555514	-45.15481998
0.48	48	0.018	-1.023	0.012	-8.021412	-6.016059	0.9167328	90.69352182	-0.4870143	-45.21784536
0.49	49	0.017	-1.027	0.003	-8.2505952	-7.5630456	1.4896908	90.60757812	-0.49847346	-45.2923299
0.5	50	0.012	-1.03	0.003	-8.6516658	-9.1100322	2.0626488	90.52163442	-0.50993262	-45.38400318
0.51	51	0.007	-1.024	0.002	-8.6516658	-9.9121734	2.4064236	90.43569072	-0.53285094	-45.48713562
0.52	52	-0.005	-1.012	-0.001	-8.1932994	-10.5424272	2.4637194	90.34974702	-0.55576926	-45.59026806
0.53	53	-0.028	-1	0	-7.3911582	-11.8602306	2.0626488	90.28099206	-0.572958	-45.71058924
0.54	54	-0.053	-0.995	0.014	-6.1879464	-12.605076	1.3750992	90.21796668	-0.57868758	-45.83664
0.55	55	-0.06	-1.007	0.02	-4.1825934	-12.2040054	1.432395	90.17785962	-0.6016059	-45.95696118
0.56	56	-0.061	-1.026	0.015	-3.724227	-10.5424272	2.3491278	90.14348214	-0.62452422	-46.06009362
0.57	57	-0.061	-1.023	0.009	-3.8961144	-8.7662574	3.2085648	90.10337508	-0.65317212	-46.14603732
0.58	58	-0.054	-1.012	0.003	-4.297185	-7.2192708	3.5523396	90.06326802	-0.6875496	-46.22052186
0.59	59	-0.052	-1.007	0.002	-5.443101	-6.3598338	3.5523396	90.0117018	-0.72192708	-46.28354724
0.6	60	-0.054	-1.01	0.009	-7.1046792	-5.0993262	3.724227	89.93721726	-0.76776372	-46.33511346
0.61	61	-0.055	-1.017	0.014	-8.4797784	-4.297185	4.297185	89.85127356	-0.80787078	-46.3809501
0.62	62	-0.045	-1.02	0.005	-9.453807	-4.1825934	5.3285094	89.7538707	-0.86516658	-46.42105716
0.63	63	-0.038	-1.014	-0.016	-11.0580894	-6.1306506	5.8441716	89.64500868	-0.92246238	-46.48408254
0.64	64	-0.043	-1.01	-0.021	-12.1467096	-8.9954406	5.72958	89.5246875	-0.9740286	-46.57575582
0.65	65	-0.054	-1.014	-0.009	-12.8342592	-10.7716104	5.6149884	89.39290716	-1.03705398	-46.68461784
0.66	66	-0.069	-1.021	0.007	-13.9801752	-11.0007936	5.5003968	89.25539724	-1.0886202	-46.79347986
0.67	67	-0.082	-1.027	0.009	-14.8396122	-10.8289062	5.443101	89.10642816	-1.145916	-46.90234188
0.68	68	-0.086	-1.025	0.004	-14.32395	-11.3445684	5.6149884	88.96891824	-1.2032118	-47.0112039
0.69	69	-0.089	-1.02	0.013	-13.0634424	-12.0894138	6.1879464	88.8371379	-1.26623718	-47.13152508
0.7	70	-0.091	-1.013	0.028	-12.318597	-12.318597	6.7609044	88.7225463	-1.34072172	-47.25757584
0.71	71	-0.091	-1.008	0.027	-12.3758928	-12.2613012	7.3911582	88.60222512	-1.41520626	-47.37789702
0.72	72	-0.094	-1.011	0.03	-12.6623718	-12.891555	7.9068204	88.47617436	-1.49542038	-47.50394778
0.73	73	-0.103	-1.02	0.038	-13.4072172	-13.5791046	8.3651868	88.34439402	-1.5756345	-47.6414577
0.74	74	-0.111	-1.033	0.036	-14.4385416	-14.32395	8.8235532	88.2068841	-1.66730778	-47.77896762
0.75	75	-0.113	-1.045	0.021	-15.469866	-15.3552744	9.3392154	88.05791502	-1.77044022	-47.9279367
0.76	76	-0.104	-1.05	0.024	-16.042824	-15.469866	9.7975818	87.90321636	-1.86784308	-48.08263536
0.77	77	-0.089	-1.039	0.018	-15.5844576	-14.6677248	10.1413566	87.7485177	-1.97097552	-48.22587486
0.78	78	-0.074	-1.011	0.004	-15.2406828	-15.183387	10.5424272	87.6052782	-2.07983754	-48.37484394
0.79	79	-0.074	-0.992	0.005	-13.9228794	-17.8762896	11.0580894	87.46776828	-2.19442914	-48.54673134
0.8	80	-0.088	-0.984	0.016	-12.891555	-20.2254174	11.5737516	87.35317668	-2.3204799	-48.74726664
0.81	81	-0.108	-0.973	0.024	-12.3758928	-21.485925	11.6883432	87.23858508	-2.44080108	-48.95353152
0.82	82	-0.128	-0.961	0.018	-11.6883432	-21.772404	11.45916	87.13545264	-2.56112226	-49.16552598
0.83	83	-0.14	-0.955	0.014	-11.3445684	-21.4286292	10.9434978	87.0323202	-2.67571386	-49.37179086
0.84	84	-0.143	-0.95	0.017	-11.0007936	-20.2254174	10.1986524	86.92918776	-2.7788463	-49.57232616
0.85	85	-0.147	-0.951	0.025	-10.7143146	-18.621135	9.453807	86.84324406	-2.8934379	-49.74994314
0.86	86	-0.147	-0.946	0.03	-10.599723	-16.7876694	8.7089616	86.7458412	-2.98511118	-49.91610096
0.87	87	-0.144	-0.943	0.023	-10.2559482	-15.8136408	7.6776372	86.65416792	-3.0653253	-50.06507004
0.88	88	-0.137	-0.942	0.026	-9.6829902	-15.2406828	7.0473834	86.56249464	-3.13980984	-50.21403912
0.89	89	-0.128	-0.938	0.036	-8.7662574	-13.9801752	6.4171296	86.48228052	-3.2085648	-50.35154904
0.9	90	-0.117	-0.937	0.043	-8.1932994	-12.891555	5.72958	86.41925514	-3.28304934	-50.4775998
0.91	91	-0.114	-0.934	0.049	-8.307891	-12.318597	4.8128472	86.3447706	-3.33461556	-50.59792098
0.92	92	-0.111	-0.929	0.05	-8.307891	-11.8602306	3.6669312	86.27028606	-3.37472262	-50.71251258
0.93	93	-0.111	-0.929	0.042	-7.9641162	-11.9748222	2.578311	86.19580152	-3.4091001	-50.83283376
0.94	94	-0.118	-0.93	0.041	-7.9641162	-12.6623718	1.4896908	86.12704656	-3.42628884	-50.95888452
0.95	95	-0.129	-0.931	0.045	-7.9641162	-13.3499214	0.1718874	86.06975076	-3.44920716	-51.09066486
0.96	96	-0.138	-0.937	0.053	-8.021412	-13.1207382	-1.0886202	86.0009958	-3.44347758	-51.2224452
0.97	97	-0.142	-0.946	0.05	-7.9068204	-12.8342592	-2.1199446	85.92651126	-3.43201842	-51.34849596
0.98	98	-0.143	-0.949	0.053	-7.734933	-12.605076	-3.437748	85.8577563	-3.40337052	-51.4802763
0.99	99	-0.142	-0.953	0.062	-6.9900876	-11.745639	-4.5263682	85.79473092	-3.36326346	-51.60059748
1	100	-0.142	-0.96	0.064	-7.6776372	-10.5424272	-5.443101	85.74889428	-3.32888598	-51.7094595
1.01	101	-0.146	-0.966	0.067	-8.307891	-9.3392154	-6.2452422	85.66868016	-3.27159018	-51.80686236
1.02	102	-0.149	-0.98	0.07	-8.59437	-8.0787078	-6.8182002	85.58846604	-3.2085648	-51.89280606
1.03	103	-0.159	-0.993	0.066	-8.880849	-6.7609044	-7.2192708	85.50252234	-3.13980984	-51.9672906
1.04	104	-0.172	-1.001	0.068	-8.6516658	-5.7868758	-7.6203414	85.41657864	-3.07105488	-52.03031598
1.05	105	-0.18	-1.012	0.075	-7.6776372	-3.9534102	-8.021412	85.37647158	-3.01948866	-52.07615262
1.06	106	-0.177	-1.023	0.069	-7.1046792	-2.005353	-8.307891	85.30198704	-2.93927454	-52.10480052
1.07	107	-0.168	-1.029	0.057	-6.875496	-0.8021412	-8.4224826	85.23323208	-2.85906042	-52.11625968
1.08	108	-0.159	-1.038	0.054	-6.1879464	0.2291832	-8.1932994	85.1702067	-2.7788463	-52.12198926
1.09	109	-0.153	-1.041	0.069	-4.9847346	0.859437	-7.6203414	85.11864048	-2.70436176	-52.12198926
1.1	110	-0.161	-1.044	0.104	-4.1825934	2.86479	-7.2192708	85.11864048	-2.65852512	-52.09907094
1.11	111	-0.182	-1.049	0.134	-2.9793816	7.3911582	-7.0473834	85.084263	-2.58404058	-52.03031598
1.12	112	-0.199	-1.066	0.155	-1.0886202	11.8602306	-6.8182002	85.06707426	-2.50955604	-51.92145396
1.13	113	-0.203	-1.089	0.144	0.0572958	14.7823164	-6.4171296	85.06134468	-2.4350715	-51.77821446
1.14	114	-0.193	-1.103	0.143	1.718874	16.7303736	-6.2452422	85.06707426	-2.36631654	-51.61778622
1.15	115	-0.165	-1.113	0.141	3.8961144	17.8762896	-6.1306506	85.12437006	-2.30329116	-51.44589882
1.16	116	-0.145	-1.104	0.139	5.8441716	18.3919518	-6.875496	85.1702067	-2.22880662	-51.26828184
1.17	117	-0.121	-1.091	0.151	9.1100322	18.9649098	-7.8495246	85.2561504	-2.13713334	-51.08493528
1.18	118	-0.108	-1.078	0.166	12.891555	19.3659804	-8.307891	85.37647158	-2.04546006	-50.90158872
1.19	119	-0.107	-1.055	0.203	18.7357266	19.5378678	-8.3651868	85.55981814	-1.9480572	-50.71251258
1.2	120	-0.119	-1.033	0.249	24.2934192	21.3713334	-8.1360036	85.81764924	-1.8621135	-50.5062477
1.21	121	-0.15	-1.012	0.28	28.8770832	24.8090814	-8.3651868	86.10412824	-1.76471064	-50.25987576
1.22	122	-0.192	-0.994	0.289	32.4867186	29.4500412	-9.5683986	86.41925514	-1.65584862	-49.97339676
1.23	123	-0.211	-1.059	0.229	33.6326346	36.1536498	-11.172681	86.7458412	-1.52979786	-49.6181628
1.24	124	-0.053	-1.447	-0.06	16.3865988	51.279741	-8.7662574	86.8890807	-1.42666542	-49.11395976
1.25	125	0.07	-1.599	-0.326	11.6883432	63.5410422	1.2032118	86.98075398	-1.42093584	-48.48370596
1.26	126	0.096	-1.362	-0.289	29.6219286	46.8679644	12.032118	87.26723298	-1.52979786	-48.00815082
1.27	127	-0.041	-1.193	0.08	40.7946096	43.6021038	13.4072172	87.662574	-1.65011904	-47.56697316
1.28	128	-0.118	-1.078	0.021	32.945085	47.6701056	9.5683986	87.9777009	-1.74179232	-47.09141802
1.29	129	-0.132	-1.023	-0.066	25.3247436	47.4982182	4.1825934	88.21261368	-1.7761698	-46.61586288
1.3	130	-0.088	-1.056	-0.22	21.485925	49.6754586	0.286479	88.39023066	-1.78189938	-46.123119
1.31	131	-0.057	-1.041	-0.31	16.3865988	54.5456016	-1.8334656	88.53347016	-1.75898106	-45.5788089
1.32	132	0.002	-0.97	-0.255	12.032118	61.2492102	-3.2085648	88.63087302	-1.73033316	-44.97147342
1.33	133	0.066	-0.91	-0.231	8.2505952	67.895523	-4.297185	88.68243924	-1.6902261	-44.30111256
1.34	134	0.052	-0.841	-0.234	5.2139178	64.5150708	-3.5523396	88.71108714	-1.65584862	-43.66512918
1.35	135	-0.065	-0.769	-0.248	4.010706	56.0925882	0.0572958	88.71108714	-1.66730778	-43.10363034
1.36	136	-0.139	-0.745	-0.238	4.4117766	53.4569814	3.9534102	88.73400546	-1.70741484	-42.57650898
1.37	137	-0.127	-0.782	-0.205	5.3285094	51.0505578	6.875496	88.76265336	-1.7761698	-42.06657636
1.38	138	-0.041	-0.867	-0.171	5.2139178	47.8992888	7.3911582	88.79703084	-1.85638392	-41.59102122
1.39	139	0.075	-0.967	-0.161	4.6409598	43.7166954	5.6722842	88.82567874	-1.91367972	-41.16130272
1.4	140	0.174	-1.041	-0.15	4.297185	37.24227	2.4064236	88.83140832	-1.91367972	-40.78888002
1.41	141	0.206	-1.048	-0.124	4.6409598	28.8197874	-1.7761698	88.8657858	-1.89649098	-40.50240102
1.42	142	0.156	-1.009	-0.112	6.302538	20.1681216	-6.016059	88.9230816	-1.83919518	-40.30186572
1.43	143	0.062	-0.97	-0.098	9.167328	12.2613012	-8.1360036	89.0090253	-1.75898106	-40.18154454
1.44	144	0	-0.966	-0.08	9.6829902	8.6516658	-8.3651868	89.10642816	-1.67303736	-40.09560084
1.45	145	-0.034	-0.977	-0.061	9.0527364	6.5317212	-8.1932994	89.1809127	-1.59855282	-40.03257546
1.46	146	-0.044	-0.984	-0.04	7.9068204	5.2712136	-8.5370742	89.26112682	-1.51260912	-39.98100924
1.47	147	-0.037	-0.983	-0.023	7.2765666	4.1825934	-9.5683986	89.32988178	-1.41520626	-39.9351726
1.48	148	-0.024	-0.978	-0.007	6.875496	3.2658606	-11.0580894	89.39863674	-1.30634424	-39.9065247
1.49	149	-0.011	-0.962	-0.002	6.4171296	2.6356068	-12.7196676	89.4673917	-1.18029348	-39.8778768
1.5	150	-0.012	-0.939	0	6.4171296	2.6356068	-13.8082878	89.5246875	-1.03705398	-39.85495848
1.51	151	-0.012	-0.92	0.006	6.302538	2.6929026	-13.8082878	89.58771288	-0.89954406	-39.82631058
1.52	152	-0.008	-0.906	0.013	6.2452422	2.6929026	-13.4072172	89.65073826	-0.76776372	-39.79766268
1.53	153	-0.007	-0.902	0.018	6.0733548	3.0366774	-13.178034	89.71376364	-0.63598338	-39.76901478
1.54	154	-0.006	-0.902	0.022	5.6149884	2.578311	-13.2926256	89.77105944	-0.50420304	-39.74036688
1.55	155	-0.005	-0.9	0.027	5.156622	0.859437	-13.5218088	89.82262566	-0.3724227	-39.7346373
1.56	156	-0.006	-0.895	0.028	4.9274388	-1.0886202	-13.464513	89.87419188	-0.23491278	-39.74036688
1.57	157	-0.014	-0.883	0.031	5.443101	-2.8074942	-12.9488508	89.93148768	-0.10313244	-39.76901478
1.58	158	-0.021	-0.871	0.044	6.2452422	-4.2398892	-12.032118	89.99451306	0.01145916	-39.80912184
1.59	159	-0.019	-0.861	0.07	7.5630456	-6.016059	-10.9434978	90.07472718	0.12032118	-39.87214722
1.6	160	-0.02	-0.866	0.098	8.6516658	-7.9068204	-9.7975818	90.17785962	0.21772404	-39.94663176
1.61	161	-0.02	-0.88	0.113	8.4797784	-8.4797784	-8.7662574	90.26380332	0.30939732	-40.02684588
1.62	162	-0.018	-0.893	0.127	7.6203414	-7.6776372	-7.448454	90.33828786	0.38961144	-40.10133042
1.63	163	-0.02	-0.905	0.129	6.6463128	-6.302538	-6.016059	90.40704282	0.44690724	-40.1643558
1.64	164	-0.029	-0.915	0.131	6.0733548	-3.151269	-4.583664	90.4700682	0.49847346	-40.1930037
1.65	165	-0.035	-0.927	0.12	5.5003968	0.3437748	-3.3231564	90.56174148	0.5156622	-40.18727412
1.66	166	-0.029	-0.937	0.105	4.4690724	4.870143	-2.005353	90.60757812	0.53285094	-40.14143748
1.67	167	-0.012	-0.944	0.089	2.4637194	8.4797784	-0.6875496	90.63622602	0.53858052	-40.05549378
1.68	168	0.013	-0.951	0.073	0.8021412	9.9694692	0.2291832	90.6419556	0.53285094	-39.95809092
1.69	169	0.041	-0.955	0.058	0	10.1986524	0.7448454	90.6419556	0.52139178	-39.85495848
1.7	170	0.061	-0.958	0.05	-0.1718874	8.1932994	0.9167328	90.64768518	0.53858052	-39.77474436
1.71	171	0.063	-0.955	0.046	0	4.1252976	1.3750992	90.64768518	0.52712136	-39.7346373
1.72	172	0.065	-0.952	0.049	0.8021412	-0.6875496	1.8907614	90.65341476	0.50420304	-39.74036688
1.73	173	0.077	-0.956	0.072	2.005353	-5.6149884	2.4637194	90.67633308	0.48128472	-39.79766268
1.74	174	0.107	-0.982	0.103	3.8388186	-12.318597	2.9220858	90.71644014	0.4583664	-39.92371344
1.75	175	0.138	-1.026	0.132	6.1879464	-21.772404	2.4637194	90.79665426	0.46409598	-40.1357079
1.76	176	0.158	-1.079	0.151	8.2505952	-30.5386614	1.2032118	90.88259796	0.46409598	-40.43937564
1.77	177	0.154	-1.139	0.17	10.6570188	-38.1590028	-0.6302538	90.99145998	0.49274388	-40.81179834
1.78	178	0.128	-1.201	0.185	12.5477802	-42.398892	-2.4064236	91.12324032	0.53285094	-41.23005768
1.79	179	0.079	-1.238	0.216	13.6936962	-42.6280752	-3.3804522	91.26075024	0.59014674	-41.64831702
1.8	180	0.032	-1.248	0.259	13.9801752	-40.5081306	-3.2658606	91.4154489	0.64744254	-42.04938762
1.81	181	0.001	-1.233	0.296	13.4072172	-37.528749	-1.718874	91.55295882	0.68182002	-42.41608074
1.82	182	-0.014	-1.237	0.257	9.5683986	-38.5600734	1.2032118	91.65036168	0.69327918	-42.79423302
1.83	183	-0.129	-1.457	-0.001	-8.021412	-56.0925882	1.0886202	91.57014756	0.71046792	-43.35000228
1.84	184	-0.194	-1.665	0.009	-11.8602306	-53.0559108	-10.8289062	91.44982638	0.84797784	-43.87139406
1.85	185	-0.21	-1.75	0.073	3.8961144	-12.6623718	-24.923673	91.48420386	1.10007936	-43.99171524
1.86	186	-0.118	-1.636	-0.013	-2.2345362	16.6730778	-31.226211	91.46701512	1.4037471	-43.81982784
1.87	187	-0.009	-1.498	0.032	5.7868758	11.6310474	-30.9970278	91.52431092	1.70168526	-43.69377708
1.88	188	0.054	-1.413	-0.028	8.7662574	-1.9480572	-24.8663772	91.6159842	1.95378678	-43.70523624
1.89	189	0.119	-1.342	-0.182	3.151269	-9.9694692	-14.037471	91.6446321	2.09702628	-43.79690952
1.9	190	0.172	-1.253	-0.265	-0.6875496	-18.2773602	-1.2032118	91.61025462	2.13140376	-43.98025608
1.91	191	0.206	-1.129	-0.294	-2.5210152	-33.4034514	7.2192708	91.57587714	2.07410796	-44.31257172
1.92	192	0.202	-0.979	-0.294	-1.6615782	-46.7533728	11.2872726	91.54722924	1.98816426	-44.7766677
1.93	193	0.178	-0.807	-0.279	1.2032118	-56.8947294	12.318597	91.54722924	1.89649098	-45.34389612
1.94	194	0.15	-0.673	-0.246	-0.0572958	-65.030733	10.1986524	91.53577008	1.8334656	-45.99133866
1.95	195	0.142	-0.572	-0.235	-4.5263682	-69.2706222	5.6722842	91.46128554	1.81627686	-46.67315868
1.96	196	0.159	-0.536	-0.224	-8.7089616	-70.0154676	-0.2291832	91.3581531	1.85638392	-47.36643786
1.97	197	0.168	-0.571	-0.206	-12.4331886	-68.6403684	-5.8441716	91.22064318	1.9480572	-48.04825788
1.98	198	0.124	-0.666	-0.202	-15.3552744	-67.9528188	-9.9694692	91.04875578	2.07983754	-48.71861874
1.99	199	0.055	-0.794	-0.18	-17.7044022	-67.7809314	-10.7143146	90.85395006	2.21161788	-49.3889796
2	200	-0.017	-0.895	-0.154	-18.048177	-66.6350154	-8.8235532	90.6419556	2.3204799	-50.0478813
2.01	201	-0.084	-0.98	-0.123	-16.5584862	-64.1140002	-5.443101	90.45287946	2.40069402	-50.68386468
2.02	202	-0.141	-1.03	-0.091	-14.6677248	-60.5616606	-2.2345362	90.28672164	2.44080108	-51.28547058
2.03	203	-0.17	-1.028	-0.075	-12.891555	-55.5196302	0.1718874	90.13775256	2.45798982	-51.83551026
2.04	204	-0.165	-0.996	-0.059	-10.7143146	-48.8733174	1.6615782	90.01743138	2.45226024	-52.31679498
2.05	205	-0.146	-0.967	-0.034	-8.4797784	-41.9978214	2.6356068	89.91429894	2.41215318	-52.73505432
2.06	206	-0.138	-0.96	-0.009	-7.5057498	-35.3515086	3.6669312	89.82835524	2.38923486	-53.0845587
2.07	207	-0.133	-0.957	-0.012	-6.4171296	-28.361421	5.5003968	89.7538707	2.33766864	-53.36530812
2.08	208	-0.134	-0.96	-0.018	-5.2712136	-24.0069402	7.5057498	89.6965749	2.26891368	-53.60595048
2.09	209	-0.125	-0.973	-0.017	-3.3804522	-20.4546006	10.0840608	89.65646784	2.17151082	-53.80648578
2.1	210	-0.094	-0.991	-0.008	-1.3178034	-17.3606274	13.178034	89.63354952	2.02254174	-53.97837318
2.11	211	-0.078	-0.985	-0.008	0.4583664	-15.2979786	16.329303	89.63354952	1.8621135	-54.12734226
2.12	212	-0.059	-0.965	0.002	1.432395	-15.183387	18.6784308	89.64500868	1.67876694	-54.27631134
2.13	213	-0.045	-0.933	0.007	2.7501984	-16.5584862	20.05353	89.67365658	1.48396122	-54.44246916
2.14	214	-0.043	-0.914	0.017	4.3544808	-19.1367972	20.4546006	89.71376364	1.2891555	-54.6315453
2.15	215	-0.048	-0.906	0.022	5.0993262	-21.7151082	19.8243468	89.76532986	1.0886202	-54.84353976
2.16	216	-0.073	-0.906	0.025	5.3858052	-23.3766864	18.6784308	89.82262566	0.90527364	-55.07272296
2.17	217	-0.113	-0.906	0.033	5.2139178	-24.1788276	16.6730778	89.87419188	0.7448454	-55.31336532
2.18	218	-0.151	-0.909	0.037	4.5263682	-23.1475032	14.1520626	89.92002852	0.61306506	-55.54254852
2.19	219	-0.18	-0.916	0.033	3.8388186	-19.8243468	11.5737516	89.96013558	0.50420304	-55.73735424
2.2	220	-0.194	-0.918	0.037	2.3491278	-15.183387	8.9954406	89.99451306	0.36669312	-55.88632332
2.21	221	-0.202	-0.917	0.043	0.6302538	-9.453807	6.6463128	90.00024264	0.30366774	-55.9779966
2.22	222	-0.197	-0.91	0.038	-0.9167328	-2.8074942	4.6409598	89.98878348	0.2578311	-56.0066445
2.23	223	-0.179	-0.909	0.029	-1.7761698	2.7501984	2.6356068	89.97159474	0.2291832	-55.9779966
2.24	224	-0.161	-0.904	0.035	-1.3750992	5.156622	1.432395	89.96013558	0.21772404	-55.92643038
2.25	225	-0.134	-0.895	0.059	0.4583664	7.161975	0.1145916	89.97732432	0.16615782	-55.85194584
2.26	226	-0.106	-0.882	0.08	2.9793816	9.5111028	-1.6615782	90.0117018	0.17761698	-55.76027256
2.27	227	-0.077	-0.876	0.093	4.7555514	11.1153852	-4.010706	90.05753844	0.21772404	-55.65141054
2.28	228	-0.058	-0.877	0.106	5.8441716	11.5164558	-6.302538	90.11483424	0.27501984	-55.53108936
2.29	229	-0.05	-0.886	0.12	7.3338624	10.313244	-7.9641162	90.18931878	0.35523396	-55.42795692
2.3	230	-0.052	-0.9	0.113	8.1360036	8.2505952	-9.1100322	90.28672164	0.4297185	-55.3477428
2.31	231	-0.048	-0.921	0.082	8.880849	5.6149884	-9.8548776	90.37839492	0.52712136	-55.290447
2.32	232	-0.047	-0.95	0.078	9.5111028	4.1252976	-10.2559482	90.47579778	0.6302538	-55.24461036
2.33	233	-0.055	-0.99	0.08	9.5683986	3.9534102	-9.9694692	90.57320064	0.72765666	-55.2045033
2.34	234	-0.068	-1.03	0.065	9.167328	4.4117766	-8.9954406	90.66487392	0.81360036	-55.15866666
2.35	235	-0.082	-1.065	0.056	8.9954406	5.8441716	-7.6203414	90.7565472	0.87089616	-55.09564128
2.36	236	-0.095	-1.087	0.041	9.5683986	6.1306506	-5.5576926	90.85967964	0.92246238	-55.0326159
2.37	237	-0.11	-1.089	0.082	11.5164558	4.9274388	-3.6096354	90.97427124	0.95683986	-54.98104968
2.38	238	-0.116	-1.049	0.156	13.464513	7.7922288	-3.724227	91.11178116	0.99121734	-54.90083556
2.39	239	-0.122	-0.983	0.222	15.0687954	14.5531332	-6.7036086	91.26647982	1.05424272	-54.75759606
2.4	240	-0.14	-0.956	0.265	16.329303	23.491278	-10.4851314	91.45555596	1.12872726	-54.5169537
2.41	241	-0.107	-1.075	0.226	11.2872726	38.5027776	-13.0634424	91.57587714	1.23758928	-54.13307184
2.42	242	0.115	-1.455	-0.152	-9.9121734	67.7809314	-11.0580894	91.47847428	1.31207382	-53.46271098
2.43	243	0.18	-1.761	-0.268	-9.2246238	72.9375534	7.5630456	91.39253058	1.19748222	-52.7407839
2.44	244	0.159	-1.856	-0.216	6.4171296	55.2331512	28.074942	91.46128554	0.8880849	-52.20220338
2.45	245	0.105	-1.766	-0.071	6.1306506	51.0505578	38.5027776	91.52431092	0.48128472	-51.7094595
2.46	246	0.098	-1.516	-0.074	0.286479	52.0818822	38.7892566	91.52431092	0.06875496	-51.21098604
2.47	247	0.027	-1.2	-0.137	-2.291832	47.269035	31.1116194	91.48993344	-0.2578311	-50.75261964
2.48	248	-0.066	-0.977	-0.129	-4.6409598	45.263682	19.3659804	91.43263764	-0.47555514	-50.31144198
2.49	249	-0.095	-0.869	-0.109	-8.1360036	50.4775998	8.6516658	91.34096436	-0.59014674	-49.81296852
2.5	250	-0.1	-0.842	-0.138	-15.8709366	54.6028974	0.4583664	91.15188822	-0.6302538	-49.274388
2.51	251	-0.132	-0.832	-0.21	-24.7517856	55.1185596	-3.5523396	90.88259796	-0.62452422	-48.73580748
2.52	252	-0.199	-0.815	-0.239	-29.6792244	52.0818822	-3.151269	90.57320064	-0.61306506	-48.22014528
2.53	253	-0.24	-0.822	-0.215	-31.2835068	47.841993	-0.1718874	90.240885	-0.6302538	-47.75031972
2.54	254	-0.2	-0.846	-0.18	-28.6479	44.7480198	2.5210152	89.93721726	-0.67036086	-47.31487164
2.55	255	-0.105	-0.879	-0.157	-25.210152	44.0031744	2.1772404	89.65646784	-0.71046792	-46.87942356
2.56	256	-0.007	-0.913	-0.141	-22.8610242	43.3729206	-0.859437	89.41582548	-0.71046792	-46.45543464
2.57	257	0.081	-0.94	-0.115	-22.1734746	39.247623	-5.443101	89.1809127	-0.66463128	-46.07155278
2.58	258	0.15	-0.953	-0.101	-21.9442914	31.7418732	-9.8548776	88.94599992	-0.572958	-45.75642588
2.59	259	0.198	-0.958	-0.095	-22.2307704	22.2880662	-12.891555	88.71681672	-0.44690724	-45.54443142
2.6	260	0.216	-0.948	-0.097	-22.9756158	14.4385416	-14.1520626	88.47044478	-0.28074942	-45.4069215
2.61	261	0.227	-0.929	-0.089	-23.8923486	8.1932994	-13.5218088	88.22407284	-0.14896908	-45.33243696
2.62	262	0.225	-0.919	-0.085	-25.1528562	1.0886202	-11.8602306	87.96624174	-0.03437748	-45.32670738
2.63	263	0.208	-0.907	-0.085	-26.1268848	-5.0420304	-10.6570188	87.70268106	0.06875496	-45.38400318
2.64	264	0.183	-0.903	-0.08	-25.8404058	-9.5111028	-10.7143146	87.43912038	0.1718874	-45.48713562
2.65	265	0.133	-0.898	-0.064	-24.637194	-14.0947668	-11.45916	87.18701886	0.29220858	-45.63037512
2.66	266	0.08	-0.893	-0.041	-23.1475032	-18.9649098	-12.6623718	86.95210608	0.41252976	-45.83091042
2.67	267	0.03	-0.888	-0.024	-21.7151082	-22.8037284	-13.9801752	86.73438204	0.5443101	-46.0658232
2.68	268	-0.013	-0.884	0.002	-20.340009	-23.8350528	-15.756345	86.52811716	0.6875496	-46.31219514
2.69	269	-0.055	-0.896	0.039	-18.7930224	-24.5798982	-17.761698	86.33904102	0.85370742	-46.56429666
2.7	270	-0.09	-0.907	0.043	-18.9649098	-20.626488	-19.767051	86.14996488	1.0313244	-46.7820207
2.71	271	-0.111	-0.928	0.032	-18.2200644	-12.2040054	-20.912967	85.96661832	1.2318597	-46.91953062
2.72	272	-0.119	-0.943	0.005	-18.5638392	-0.1718874	-20.9702628	85.77754218	1.43812458	-46.94244894
2.73	273	-0.121	-0.937	0	-18.1627686	14.4958374	-19.767051	85.59419562	1.63865988	-46.8106686
2.74	274	-0.115	-0.923	0.003	-18.6784308	27.1009134	-16.7303736	85.40511948	1.81627686	-46.55856708
2.75	275	-0.087	-0.897	0.03	-20.2254174	35.523396	-12.8342592	85.21604334	1.95378678	-46.22052186
2.76	276	-0.063	-0.879	0.04	-22.2880662	39.0757356	-8.6516658	84.9983193	2.05691922	-45.84236958
2.77	277	-0.022	-0.882	0.002	-23.6631654	42.398892	-5.6149884	84.7691361	2.13713334	-45.42983982
2.78	278	0.013	-0.905	-0.013	-23.6058696	43.258329	-4.1825934	84.5399529	2.2058883	-45.01158048
2.79	279	0.034	-0.944	-0.052	-24.1215318	41.0810886	-4.6982556	84.30504012	2.27464326	-44.61050988
2.8	280	0.049	-0.971	-0.09	-24.064236	41.0810886	-6.0733548	84.06439776	2.36631654	-44.21516886
2.81	281	0.053	-0.981	-0.101	-23.1475032	42.8572584	-7.0473834	83.84094414	2.46944898	-43.8026391
2.82	282	0.054	-0.98	-0.071	-22.6891368	43.7166954	-7.0473834	83.6232201	2.57258142	-43.37865018
2.83	283	0.046	-0.977	-0.028	-22.058883	42.6280752	-6.1879464	83.41122564	2.6642547	-42.97185
2.84	284	0.051	-0.984	-0.008	-21.5432208	41.7686382	-4.3544808	83.21069034	2.74446882	-42.56504982
2.85	285	0.062	-1.02	0.028	-23.2620948	38.7892566	-2.005353	82.99869588	2.79603504	-42.18689754
2.86	286	0.076	-1.031	0.1	-25.6685184	34.7212548	0.5156622	82.75232394	2.82468294	-41.84312274
2.87	287	0.11	-1.029	0.146	-24.1788276	33.1742682	2.7501984	82.51741116	2.82468294	-41.51653668
2.88	288	0.135	-1.019	0.147	-18.1627686	30.4813656	4.6982556	82.34552376	2.81322378	-41.21286894
2.89	289	0.127	-1.034	0.167	-9.7975818	24.9809688	6.302538	82.25385048	2.77311672	-40.96076742
2.9	290	0.135	-1.044	0.207	-3.3231564	24.4653066	8.8235532	82.28249838	2.72728008	-40.70293632
2.91	291	0.132	-1.042	0.162	0.286479	20.2827132	12.318597	82.29395754	2.62987722	-40.49094186
2.92	292	0.112	-1.05	0.176	2.6929026	9.5683986	15.6417534	82.32260544	2.48663772	-40.37635026
2.93	293	0.093	-1.06	0.254	6.8182002	-5.6722842	19.5378678	82.3913604	2.28610242	-40.40499816
2.94	294	0.088	-1.113	0.254	11.9748222	-34.37748	25.6685184	82.505952	1.99962342	-40.7086659
2.95	295	0.144	-1.157	0.214	11.745639	-48.3576552	29.220858	82.63773234	1.67303736	-41.14984356
2.96	296	0.177	-1.299	-0.273	4.8128472	-67.2079734	26.0122932	82.6778394	1.35218088	-41.77436778
2.97	297	0.001	-1.545	-0.203	15.0687954	-52.5402486	0.6875496	82.82680848	1.29488508	-42.29002998
2.98	298	-0.166	-1.419	-0.21	3.4950438	9.9694692	-21.4286292	82.86118596	1.51260912	-42.21554544
2.99	299	-0.235	-1.14	-0.132	9.6829902	-2.7501984	-16.2147114	82.95858882	1.67303736	-42.26138208
3	300	-0.165	-0.97	0.053	10.2559482	-9.0527364	-7.6203414	83.0502621	1.70741484	-42.35878494
3.01	301	-0.132	-0.814	-0.152	14.6677248	-4.4690724	3.5523396	83.19923118	1.66730778	-42.398892
3.02	302	-0.111	-0.726	-0.044	17.8189938	2.3491278	11.9175264	83.38257774	1.55271618	-42.35878494
3.03	303	-0.045	-0.636	-0.022	17.0741484	-0.286479	13.3499214	83.55446514	1.42093584	-42.34732578
3.04	304	0.055	-0.602	-0.006	15.6990492	-2.291832	10.313244	83.71489338	1.3178034	-42.35305536
3.05	305	0.196	-0.597	-0.021	16.042824	0.0572958	5.443101	83.88678078	1.29488508	-42.34732578
3.06	306	0.292	-0.606	0.009	14.6677248	0.4010706	1.145916	84.03574986	1.28342592	-42.3415962
3.07	307	0.311	-0.633	-0.055	13.8655836	-5.8441716	-1.432395	84.17325978	1.29488508	-42.398892
3.08	308	0.233	-0.691	-0.125	13.6936962	-14.610429	-1.0313244	84.3107697	1.29488508	-42.5421315
3.09	309	0.071	-0.776	-0.153	14.8396122	-20.626488	1.6615782	84.45973878	1.26623718	-42.7426668
3.1	310	-0.069	-0.854	-0.17	14.0947668	-21.0275586	5.5003968	84.58578954	1.1745639	-42.9432021
3.11	311	-0.18	-0.884	-0.186	14.3812458	-18.8503182	8.307891	84.72902904	1.08289062	-43.12081908
3.12	312	-0.265	-0.878	-0.16	17.0168526	-18.7930224	11.172681	84.90091644	0.96256944	-43.29270648
3.13	313	-0.26	-0.82	-0.114	18.5638392	-13.2353298	13.1207382	85.08999258	0.82505952	-43.41302766
3.14	314	-0.194	-0.73	-0.082	20.1681216	-4.4117766	14.610429	85.29625746	0.68182002	-43.44167556
3.15	315	-0.11	-0.633	-0.077	21.4286292	1.0886202	15.9282324	85.50825192	0.5156622	-43.41875724
3.16	316	-0.051	-0.518	-0.055	22.2880662	5.9587632	18.3919518	85.73743512	0.33804522	-43.33854312
3.17	317	-0.015	-0.363	-0.007	23.1475032	10.5424272	22.5172494	85.9723479	0.12605076	-43.21822194
3.18	318	0.008	-0.209	-0.003	25.2674478	16.9595568	28.4760126	86.22444942	-0.1432395	-43.0291458
3.19	319	0.048	-0.066	-0.053	27.9030546	19.1367972	31.0543236	86.50519884	-0.44117766	-42.81715134
3.2	320	0.084	0.05	-0.029	30.1375908	16.6730778	29.3354496	86.80886658	-0.7161975	-42.63380478
3.21	321	0.136	0.092	0.007	29.2781538	16.329303	23.0902074	87.10107516	-0.93965112	-42.4561878
3.22	322	0.198	0.06	-0.038	21.4286292	19.8243468	13.5791046	87.31306962	-1.06570188	-42.24992292
3.23	323	0.236	-0.025	-0.151	9.9121734	24.1788276	3.7815228	87.4047429	-1.10007936	-42.00928056
3.24	324	0.257	-0.146	-0.307	-2.86479	22.2880662	-2.86479	87.37036542	-1.06570188	-41.79155652
3.25	325	0.269	-0.243	-0.419	-15.5271618	16.4438946	-5.9014674	87.16983012	-0.98548776	-41.63112828
3.26	326	0.282	-0.283	-0.512	-30.0229992	5.6149884	-6.9900876	86.8604328	-0.9167328	-41.57956206
3.27	327	0.257	-0.26	-0.533	-42.7426668	-4.010706	-7.161975	86.4307143	-0.84797784	-41.63112828
3.28	328	0.193	-0.17	-0.517	-55.6342218	-10.8289062	-6.7036086	85.86348588	-0.79068204	-41.74571988
3.29	329	0.095	-0.127	-0.524	-68.182002	-14.7823164	-7.2765666	85.17593628	-0.73338624	-41.90614812
3.3	330	-0.03	-0.128	-0.524	-78.5525418	-17.1314442	-10.7716104	84.35660634	-0.64744254	-42.08949468
3.31	331	-0.131	-0.23	-0.462	-91.2722094	-20.912967	-18.5638392	83.43414396	-0.4870143	-42.33013704
3.32	332	-0.265	-0.274	-0.391	-110.9819646	-27.1582092	-24.2361234	82.31114628	-0.286479	-42.63380478
3.33	333	-0.381	-0.299	-0.276	-123.1286742	-35.2942128	-26.1268848	81.06782742	-0.08021412	-43.0291458
3.34	334	-0.373	-0.218	-0.226	-132.926256	-43.258329	-28.0176462	79.7271057	0.1145916	-43.5161601
3.35	335	-0.335	-0.128	-0.202	-121.8681666	-42.5707794	-31.7418732	78.48378684	0.33231564	-43.99744482
3.36	336	-0.296	-0.201	-0.181	-114.5343042	-33.5753388	-37.1849742	77.3206821	0.61879464	-44.41570416
3.37	337	-0.059	-0.435	0.059	-136.650483	-5.2712136	-41.1956802	75.92839416	0.99694692	-44.57040282
3.38	338	0.284	-0.843	-0.003	-145.0729656	12.5477802	-40.393539	74.4558921	1.39801752	-44.56467324
3.39	339	0.509	-1.742	-0.328	-153.3235608	-10.7716104	-36.669312	72.89744634	1.70168526	-44.78239728
3.4	340	0.368	-3.365	-0.803	-180.4244742	-0.3437748	-38.6173692	71.05825116	2.04546006	-44.9199072
3.41	341	-0.346	-3.999	-0.465	-198.0142848	24.9809688	-36.382833	69.04716858	2.44080108	-44.82250434
3.42	342	-0.471	-3.168	-0.741	-230.4437076	34.7212548	-29.2781538	66.71522952	2.8074942	-44.62769862
3.43	343	-0.152	-2.994	-1.209	-231.4177362	57.0666168	-32.4294228	64.37756088	3.28877892	-44.25527592
3.44	344	-0.004	-3.695	-1.732	-250.096167	69.4425096	-43.3729206	61.85654568	3.93622146	-43.84274616
3.45	345	-0.192	-3.999	-1.766	-286.0206336	108.1171746	-73.9688778	58.98029652	5.0420304	-43.28124732
3.46	346	-0.416	-3.65	-1.277	-325.9558062	177.2159094	-81.5892192	55.75454298	6.589017	-42.2270046
3.47	347	0	-2.216	-0.906	-319.137606	137.6245116	-41.252976	52.60900356	7.64325972	-41.34464928
3.48	348	0.276	-1.519	-0.77	-277.88463	64.1140002	-8.9954406	49.84161642	8.06151906	-40.89774204
3.49	349	0.28	-1.212	-0.307	-256.398705	48.128472	14.7250206	47.2976829	8.2219473	-40.43937564
3.5	350	0.383	-0.939	0.042	-259.6645656	32.372127	18.907614	44.72510148	8.27351352	-40.07268252
3.51	351	0.379	-0.665	0.073	-242.9914878	11.5164558	10.3705398	42.2843004	8.24486562	-39.92371344
3.52	352	0.387	-0.529	0.257	-239.6683314	6.9900876	8.021412	39.86068806	8.21048814	-39.820581
3.53	353	0.06	-0.543	0.365	-244.1374038	7.9641162	-1.0313244	37.39123908	8.24486562	-39.78047394
3.54	354	-0.305	-0.368	0.436	-245.3406156	25.5539268	-8.9954406	34.91033094	8.46258966	-39.69453024
3.55	355	-0.593	-0.216	0.425	-251.2993788	33.1169724	-15.6417534	32.372127	8.76052782	-39.63150486
3.56	356	-0.797	-0.004	0.357	-245.8562778	38.0444112	-19.1367972	29.8797597	9.14440968	-39.58566822
3.57	357	-0.71	0.044	0.402	-230.902074	45.6074568	-19.9962342	27.53636148	9.5970465	-39.52837242
3.58	358	-0.355	0.044	0.286	-213.3695592	56.9520252	-20.2827132	25.3820394	10.15281576	-39.43669914
3.59	359	-0.072	0.014	0.186	-199.0456092	63.1972674	-25.0955604	23.35949766	10.79452872	-39.38513292
3.6	360	0.14	-0.024	0.123	-188.789661	65.2026204	-32.4867186	21.43435878	11.4878079	-39.4195104
3.61	361	0.348	-0.116	0.202	-182.0860524	52.3110654	-40.10706	19.54359738	12.08368422	-39.5913978
3.62	362	0.492	-0.065	0.223	-175.2105564	39.4768062	-46.5814854	17.69294304	12.5764281	-39.89506554
3.63	363	0.81	0.17	0.171	-176.9294304	25.1528562	-51.6235158	15.80218164	12.93739164	-40.3075953
3.64	364	1.31	0.561	-0.151	-181.9714608	-5.72958	-51.3943326	13.8369357	12.98895786	-40.8232575
3.65	365	1.552	0.896	-0.752	-170.8560756	-37.4141574	-42.112413	11.99201094	12.71393802	-41.32746054
3.66	366	1.329	0.956	-1.033	-131.3792694	-79.4692746	-20.8556712	10.58826384	11.96909262	-41.70561282
3.67	367	0.866	0.901	-1.176	-91.5586884	-109.5495696	-2.6929026	9.6256944	10.90339074	-41.94625518
3.68	368	0.482	0.865	-1.264	-44.3469492	-132.9835518	3.2085648	9.15013926	9.60277608	-42.1697088
3.69	369	0.19	1.201	-1.313	-30.9970278	-147.4793892	3.437748	8.8235532	8.15892192	-42.398892
3.7	370	0.063	1.344	-1.374	5.3858052	-147.0783186	-2.6356068	8.84647152	6.7322565	-42.69683016
3.71	371	-0.064	1.113	-1.206	8.1932994	-123.6443364	-19.8243468	8.90376732	5.56342218	-43.1150895
3.72	372	-0.487	0.884	-1.08	-10.7716104	-107.429625	-35.7525792	8.76052782	4.57220484	-43.6593996
3.73	373	-0.991	0.557	-1.279	6.3598338	-89.954406	-44.6334282	8.7949053	3.76433406	-44.25527592
3.74	374	-1.165	0.116	-1.323	17.6471064	-34.7785506	-43.0864416	8.94387438	3.4950438	-44.7480198
3.75	375	-0.818	-0.054	-1.22	10.599723	1.432395	-28.9916748	9.02981808	3.5236917	-45.02876922
3.76	376	-0.382	0.082	-1.282	24.7517856	25.4393352	-4.0680018	9.27619002	3.7815228	-45.02303964
3.77	377	-0.12	0.172	-1.335	48.987909	37.24227	17.9335854	9.78612264	4.11956802	-44.7766677
3.78	378	-0.007	0.252	-1.263	65.4890994	41.8832298	28.7624916	10.47367224	4.48053156	-44.41570416
3.79	379	0.06	0.265	-1.201	74.9429064	46.8679644	29.1635622	11.2586247	4.88733174	-44.0318223
3.8	380	0.123	0.213	-1.072	67.895523	55.0612638	25.1528562	11.95190388	5.38007562	-43.67085876
3.81	381	0.182	0.109	-0.723	31.1689152	56.0925882	18.3919518	12.2899491	5.88427866	-43.35573186
3.82	382	0.235	0.238	-0.54	-28.5333084	62.5097178	13.1207382	12.02065884	6.45150708	-43.08071202
3.83	383	0.31	0.431	-0.496	-32.3148312	72.8229618	9.2819196	11.7169911	7.12759752	-42.81715134
3.84	384	0.531	0.483	-0.544	-26.8717302	74.6564274	5.5003968	11.45916	7.83233586	-42.59369772
3.85	385	0.27	0.371	-0.543	-24.4653066	81.1881486	3.5523396	11.2013289	8.61728832	-42.38170326
3.86	386	0.298	0.281	-1.146	-26.8717302	90.4700682	0	10.94922738	9.4824549	-42.18116796
3.87	387	0.221	0.036	-1.83	-55.3477428	99.9238752	-0.572958	10.41064686	10.44502434	-41.9691735
3.88	388	0.131	0.214	-3.276	-77.7504006	101.0124954	-11.3445684	9.61996482	11.4305121	-41.87177064
3.89	389	0.688	0.077	-3.931	-56.436363	48.4722468	-22.91832	9.01835892	11.93471514	-42.00355098
3.9	390	0.93	0.353	-3.631	-89.1522648	29.4500412	-9.9694692	8.09589654	12.22119414	-42.04365804
3.91	391	0.769	0.626	-2.658	-87.949053	11.5164558	-19.4232762	7.16770458	12.35297448	-42.21554544
3.92	392	0.484	0.863	-2.411	-91.6159842	11.745639	-35.236917	6.16502808	12.49621398	-42.54786108
3.93	393	0.188	1.087	-2.379	-74.771019	8.307891	-43.258329	5.31132066	12.61080558	-42.97185
3.94	394	0.201	0.744	-1.983	-65.3745078	4.0680018	-45.4355694	4.54928652	12.68529012	-43.42448682
3.95	395	0.464	0.405	-1.419	-56.149884	7.8495246	-33.4607472	3.89038482	12.78842256	-43.75107288
3.96	396	0.66	0.427	-1.21	-47.1544434	16.1001198	-19.1367972	3.36899304	12.95458038	-43.92868986
3.97	397	0.827	0.52	-0.973	-41.539455	15.469866	-20.626488	2.89916748	13.10927904	-44.12349558
3.98	398	0.872	0.382	-0.796	-33.231564	5.7868758	-21.8296998	2.51528562	13.178034	-44.34121962
3.99	399	0.798	0.257	-0.639	-27.8457588	-4.7555514	-14.4385416	2.19442914	13.13219736	-44.4901887
4	400	0.698	0.271	-0.568	-24.6944898	-8.5370742	-5.2139178	1.8621135	13.15511568	-44.56467324
4.01	401	0.588	0.333	-0.533	-22.8037284	-8.1932994	2.6356068	1.6329303	13.07490156	-44.53602534
4.02	402	0.485	0.394	-0.588	-20.1108258	-9.5111028	7.5057498	1.44958374	12.97176912	-44.46727038
4.03	403	0.4	0.405	-0.62	-12.9488508	-13.2353298	10.8289062	1.34072172	12.83998878	-44.35840836
4.04	404	0.368	0.353	-0.682	-5.7868758	-17.2460358	13.2353298	1.31207382	12.6623718	-44.2323576
4.05	405	0.317	0.268	-0.816	-0.1145916	-22.2307704	13.6936962	1.29488508	12.45610692	-44.117766
4.06	406	0.222	0.16	-0.799	4.3544808	-32.085648	13.750992	1.36936962	12.13525044	-43.99171524
4.07	407	0.118	0.072	-0.812	6.589017	-37.2995658	13.9801752	1.46677248	11.76855732	-43.87139406
4.08	408	0.067	0.058	-0.822	11.45916	-39.4195104	14.1520626	1.61574156	11.3732163	-43.75107288
4.09	409	-0.023	0.069	-0.845	14.32395	-41.9978214	12.4904844	1.78189938	10.95495696	-43.64794044
4.1	410	-0.044	0.106	-0.936	16.5011904	-42.112413	9.0527364	1.9480572	10.5137793	-43.58491506
4.11	411	-0.045	0.126	-1.017	20.340009	-39.6486936	6.4744254	2.16578124	10.11843828	-43.55053758
4.12	412	-0.012	0.123	-1.115	24.4080108	-37.8725238	4.7555514	2.42361234	9.74601558	-43.52761926
4.13	413	0.008	0.092	-1.151	25.8404058	-39.1903272	2.4064236	2.6929026	9.36213372	-43.53334884
4.14	414	0.035	0.079	-1.22	26.9863218	-38.674665	-0.9167328	2.96219286	8.98398144	-43.5734559
4.15	415	0.04	0.032	-1.232	27.3300966	-38.9038482	-4.6982556	3.22575354	8.59437	-43.6593996
4.16	416	0.025	-0.061	-1.14	19.194093	-30.080295	-8.0787078	3.4091001	8.307891	-43.76253204
4.17	417	0.005	-0.136	-1.071	10.7716104	-12.891555	-10.5424272	3.50650296	8.18756982	-43.88285322
4.18	418	-0.005	-0.214	-1.026	6.7036086	-0.9167328	-11.9175264	3.5523396	8.18756982	-44.0031744
4.19	419	0.025	-0.244	-0.991	2.291832	7.7922288	-12.4331886	3.55806918	8.27351352	-44.12349558
4.2	420	0.071	-0.214	-0.954	-1.8907614	12.2040054	-10.5424272	3.56379876	8.37091638	-44.20943928
4.21	421	0.108	-0.163	-0.992	-4.0680018	9.3392154	-6.4744254	3.51223254	8.46831924	-44.26673508
4.22	422	0.112	-0.105	-0.998	-4.3544808	-0.859437	-3.6096354	3.46066632	8.46258966	-44.30684214
4.23	423	0.082	-0.066	-0.949	-4.6982556	-7.734933	-2.4637194	3.4091001	8.38810512	-44.33549004
4.24	424	0.047	-0.039	-0.918	-3.151269	-10.3705398	-1.6042824	3.37472262	8.28497268	-44.35840836
4.25	425	0.018	-0.02	-0.912	-1.6615782	-8.59437	-0.859437	3.31742682	8.12454444	-44.38132668
4.26	426	0.009	-0.001	-0.944	-2.1199446	-7.7922288	0.572958	3.2945085	8.04433032	-44.38132668
4.27	427	0.026	0	-0.979	-2.2345362	-9.7975818	2.4064236	3.27731976	7.94692746	-44.36413794
4.28	428	0.058	-0.021	-0.992	-2.5210152	-11.6310474	4.1252976	3.25440144	7.82660628	-44.33549004
4.29	429	0.112	-0.052	-0.976	-2.5210152	-10.2559482	4.870143	3.2372127	7.72347384	-44.2896534
4.3	430	0.14	-0.053	-0.944	-3.7815228	-10.1413566	4.1252976	3.19137606	7.6203414	-44.2610055
4.31	431	0.116	-0.038	-0.875	-2.3491278	-13.2353298	2.578311	3.17418732	7.48856106	-44.24381676
4.32	432	0.105	-0.024	-0.811	-0.6302538	-10.7143146	0.6302538	3.16845774	7.37969904	-44.24954634
4.33	433	0.114	0.005	-0.781	-0.4583664	-3.8388186	-1.5469866	3.16272816	7.34532156	-44.26673508
4.34	434	0.145	0.003	-0.842	-0.2291832	4.870143	-4.010706	3.151269	7.3911582	-44.30111256
4.35	435	0.191	-0.038	-0.931	-0.572958	7.734933	-5.72958	3.12835068	7.51720896	-44.35840836
4.36	436	0.216	-0.079	-0.968	-1.718874	8.0787078	-6.589017	3.09970278	7.59742308	-44.41570416
4.37	437	0.233	-0.109	-1.016	-4.583664	10.4851314	-6.6463128	3.04240698	7.7062851	-44.47299996
4.38	438	0.232	-0.112	-1.086	-8.1360036	10.3705398	-5.5003968	2.95646328	7.80941754	-44.5188366
4.39	439	0.212	-0.095	-1.116	-10.5424272	7.3338624	-4.0680018	2.84187168	7.88390208	-44.55321408
4.4	440	0.183	-0.045	-1.092	-11.9175264	4.6409598	-3.6096354	2.69863218	7.9354683	-44.58759156
4.41	441	0.141	0.007	-1.045	-12.1467096	4.7555514	-4.2398892	2.56685184	7.98130494	-44.62769862
4.42	442	0.115	0.042	-1.022	-11.1153852	7.2192708	-4.5263682	2.45226024	8.0500599	-44.66780568
4.43	443	0.112	0.067	-1.015	-9.7975818	7.9068204	-4.0680018	2.34339822	8.13027402	-44.70218316
4.44	444	0.118	0.08	-0.986	-8.6516658	6.4171296	-2.9793816	2.25172494	8.1932994	-44.72510148
4.45	445	0.127	0.09	-0.954	-7.5630456	4.6409598	-1.5469866	2.06837838	8.22767688	-44.75374938
4.46	446	0.122	0.096	-0.929	-6.1306506	3.151269	-0.572958	1.99962342	8.26205436	-44.75374938
4.47	447	0.113	0.098	-0.926	-4.1825934	2.7501984	-0.1718874	1.95951636	8.28497268	-44.75374938
4.48	448	0.112	0.097	-0.939	-1.432395	2.5210152	-0.1145916	1.94232762	8.31362058	-44.75374938
4.49	449	0.118	0.095	-0.947	0.6875496	1.432395	-0.1145916	1.9480572	8.32507974	-44.75374938
4.5	450	0.129	0.091	-0.948	1.6615782	-0.7448454	-0.1718874	1.71314442	8.29643184	-44.79385644
4.51	451	0.146	0.085	-0.952	2.0626488	-3.2658606	-0.3437748	1.73033316	8.26778394	-44.79958602
4.52	452	0.163	0.08	-0.97	2.6929026	-5.7868758	-0.6302538	1.75898106	8.21048814	-44.81104518
4.53	453	0.18	0.07	-0.997	3.6669312	-8.307891	-0.8021412	1.79335854	8.13027402	-44.82250434
4.54	454	0.183	0.055	-1.026	4.0680018	-11.45916	-0.859437	1.8334656	8.01568242	-44.83969308
4.55	455	0.175	0.041	-1.046	3.6096354	-13.9801752	-0.859437	1.83919518	7.88390208	-44.8626114
4.56	456	0.164	0.029	-1.056	2.86479	-16.1574156	-0.8021412	1.86784308	7.72347384	-44.87980014
4.57	457	0.149	0.025	-1.052	2.005353	-17.475219	-0.6875496	1.8907614	7.55158644	-44.89698888
4.58	458	0.131	0.025	-1.026	0.859437	-17.2460358	-0.8021412	1.89649098	7.37969904	-44.91417762
4.59	459	0.115	0.028	-1	-0.4583664	-16.1001198	-0.9740286	1.8907614	7.22500038	-44.93709594
4.6	460	0.106	0.033	-0.974	-1.432395	-14.5531332	-1.0313244	1.8334656	7.06457214	-44.96001426
4.61	461	0.102	0.037	-0.943	-1.2605076	-11.8029348	-1.0313244	1.81627686	6.94998054	-44.977203
4.62	462	0.103	0.036	-0.925	-0.7448454	-7.9641162	-1.432395	1.81054728	6.86976642	-44.99439174
4.63	463	0.098	0.033	-0.922	0	-5.5576926	-1.6615782	1.8048177	6.8182002	-45.01731006
4.64	464	0.094	0.032	-0.919	0.859437	-2.86479	-1.8907614	1.81054728	6.7895523	-45.0344988
4.65	465	0.099	0.044	-0.922	1.432395	-0.1718874	-2.1772404	1.6902261	6.77236356	-45.07460586
4.66	466	0.088	0.034	-0.931	2.4637194	2.005353	-1.6615782	1.71314442	6.79528188	-45.0917946
4.67	467	0.084	0.034	-0.943	2.5210152	3.8961144	-1.8334656	1.73606274	6.82965936	-45.10898334
4.68	468	0.087	0.034	-0.96	2.6929026	4.9274388	-2.005353	1.75898106	6.88122558	-45.12617208
4.69	469	0.091	0.027	-0.985	2.6356068	5.5003968	-1.7761698	1.78762896	6.93852138	-45.13763124
4.7	470	0.092	0.024	-1.007	2.86479	5.0993262	-1.4896908	1.7475219	6.95571012	-45.16054956
4.71	471	0.094	0.02	-1.022	3.0366774	4.0680018	-1.0886202	1.7761698	6.99581718	-45.16627914
4.72	472	0.093	0.015	-1.029	2.86479	2.9220858	-0.572958	1.8048177	7.02446508	-45.17200872
4.73	473	0.095	0.01	-1.03	2.4637194	1.7761698	-0.0572958	1.82773602	7.04165382	-45.17200872
4.74	474	0.097	0.006	-1.027	1.8907614	0.6302538	0.286479	1.84492476	7.0473834	-45.16627914
4.75	475	0.102	0.005	-1.022	1.0886202	-1.0886202	0.286479	1.71314442	6.96716928	-45.18346788
4.76	476	0.105	0.003	-1.009	0.3437748	-3.0366774	0.1718874	1.718874	6.9327918	-45.18346788
4.77	477	0.109	0.003	-0.997	0	-4.3544808	0.2291832	1.718874	6.89268474	-45.1777383
4.78	478	0.109	0.005	-0.988	-0.4010706	-5.0420304	0.2291832	1.71314442	6.84111852	-45.18346788
4.79	479	0.11	0.01	-0.983	-0.3437748	-5.3285094	0.3437748	1.70741484	6.7895523	-45.1777383
4.8	480	0.108	0.017	-0.975	0	-5.3858052	0.572958	1.61574156	6.71506776	-45.18919746
4.81	481	0.104	0.02	-0.967	0	-5.3285094	0.859437	1.61574156	6.66350154	-45.18346788
4.82	482	0.099	0.025	-0.961	0	-4.5263682	0.859437	1.61574156	6.6176649	-45.17200872
4.83	483	0.097	0.031	-0.963	0.5156622	-3.2085648	1.0313244	1.62720072	6.58328742	-45.16627914
4.84	484	0.093	0.037	-0.965	1.2605076	-1.8907614	0.9740286	1.63865988	6.56609868	-45.15481998
4.85	485	0.096	0.044	-0.966	1.7761698	-0.286479	1.0313244	1.44958374	6.51453246	-45.16627914
4.86	486	0.1	0.048	-0.97	2.2345362	1.5469866	0.9740286	1.47823164	6.5317212	-45.15481998
4.87	487	0.109	0.051	-0.976	2.6929026	2.5210152	0.8021412	1.50114996	6.55463952	-45.1490904
4.88	488	0.117	0.051	-0.982	2.9793816	3.2085648	0.6875496	1.53552744	6.589017	-45.13763124
4.89	489	0.129	0.046	-0.986	3.0366774	3.7815228	0.572958	1.56417534	6.62339448	-45.13190166
4.9	490	0.14	0.039	-0.989	2.7501984	4.2398892	0.3437748	1.50114996	6.68641986	-45.13763124
4.91	491	0.143	0.033	-0.993	2.4064236	3.8388186	0.1718874	1.52406828	6.72652692	-45.13190166
4.92	492	0.145	0.028	-0.993	2.2345362	2.6929026	-0.0572958	1.5469866	6.74944524	-45.13190166
4.93	493	0.148	0.025	-0.993	2.005353	1.6042824	-0.3437748	1.56990492	6.76663398	-45.13190166
4.94	494	0.15	0.021	-0.993	2.0626488	0.1718874	-0.6875496	1.58709366	6.77236356	-45.14336082
4.95	495	0.15	0.02	-0.997	2.1199446	-0.859437	-0.9740286	1.49542038	6.80101146	-45.16627914
4.96	496	0.149	0.021	-0.999	2.0626488	-1.8907614	-1.2032118	1.51260912	6.78382272	-45.1777383
4.97	497	0.144	0.02	-0.994	1.718874	-2.6929026	-1.3750992	1.52979786	6.75517482	-45.19492704
4.98	498	0.14	0.02	-0.992	1.2032118	-3.2658606	-1.3750992	1.54125702	6.72652692	-45.21211578
4.99	499	0.135	0.02	-0.986	0.8021412	-3.5523396	-1.2032118	1.5469866	6.69214944	-45.22357494
5	500	0.128	0.02	-0.98	0.6302538	-3.5523396	-0.9167328	1.44385416	6.65777196	-45.24649326
5.01	501	0.122	0.022	-0.979	0.572958	-3.7815228	-0.5156622	1.44958374	6.6176649	-45.25222284
5.02	502	0.118	0.021	-0.979	0.572958	-4.1252976	-0.286479	1.45531332	6.57755784	-45.25795242
5.03	503	0.114	0.022	-0.98	0.4583664	-4.4117766	-0.1718874	1.4610429	6.53745078	-45.263682
5.04	504	0.11	0.023	-0.98	0.286479	-4.1825934	-0.1718874	1.46677248	6.49734372	-45.26941158
5.05	505	0.106	0.022	-0.983	0.5156622	-3.4950438	-0.1145916	1.34072172	6.42858876	-45.28660032
5.06	506	0.102	0.022	-0.989	0.9167328	-2.6929026	-0.2291832	1.35218088	6.40567044	-45.28660032
5.07	507	0.102	0.019	-0.984	0.9167328	-2.3491278	-0.4583664	1.36364004	6.38275212	-45.2923299
5.08	508	0.104	0.017	-0.979	0.6875496	-2.1772404	-0.6302538	1.36936962	6.3598338	-45.30378906
5.09	509	0.107	0.018	-0.98	0.6302538	-2.5210152	-0.7448454	1.3750992	6.33691548	-45.30951864
5.1	510	0.111	0.021	-0.981	0.6302538	-2.7501984	-0.7448454	1.2605076	6.29680842	-45.33243696
5.11	511	0.11	0.022	-0.981	0.6875496	-2.6356068	-0.8021412	1.26623718	6.2738901	-45.34389612
5.12	512	0.108	0.021	-0.988	0.9167328	-2.4064236	-0.6875496	1.27769634	6.25097178	-45.3496257
5.13	513	0.103	0.021	-0.99	0.9740286	-2.291832	-0.6875496	1.28342592	6.22805346	-45.36108486
5.14	514	0.099	0.022	-0.992	1.0886202	-2.005353	-0.8021412	1.29488508	6.21086472	-45.36681444
5.15	515	0.096	0.024	-0.992	1.3178034	-1.8334656	-0.7448454	1.1745639	6.14783934	-45.38973276
5.16	516	0.094	0.026	-0.99	1.4896908	-1.7761698	-0.7448454	1.19175264	6.1306506	-45.40119192
5.17	517	0.093	0.026	-0.987	1.432395	-1.432395	-0.6875496	1.2032118	6.11919144	-45.4069215
5.18	518	0.093	0.024	-0.986	1.3178034	-1.2605076	-0.6302538	1.21467096	6.10773228	-45.41265108
5.19	519	0.094	0.023	-0.984	1.0886202	-1.0313244	-0.572958	1.22613012	6.09627312	-45.41838066
5.2	520	0.095	0.024	-0.986	1.145916	-0.9740286	-0.286479	1.03705398	6.03324774	-45.44702856
5.21	521	0.096	0.024	-0.987	1.145916	-0.9167328	-0.1145916	1.04851314	6.02751816	-45.44702856
5.22	522	0.096	0.023	-0.986	1.0886202	-0.6302538	0.1145916	1.0599723	6.02178858	-45.44702856
5.23	523	0.097	0.023	-0.988	1.0313244	-0.1145916	0.3437748	1.07143146	6.02178858	-45.44129898
5.24	524	0.099	0.024	-0.989	0.9740286	0.286479	0.3437748	1.08289062	6.02178858	-45.4355694
5.25	525	0.101	0.024	-0.987	1.0886202	0.4010706	0.4010706	0.86516658	5.9874111	-45.45275814
5.26	526	0.103	0.022	-0.985	1.0313244	0.1718874	0.4583664	0.87662574	5.99314068	-45.44702856
5.27	527	0.106	0.02	-0.984	0.9740286	0.0572958	0.4010706	0.8880849	5.99314068	-45.44702856
5.28	528	0.109	0.02	-0.987	0.859437	0.3437748	0.3437748	0.89954406	5.99314068	-45.44129898
5.29	529	0.11	0.022	-0.99	0.9740286	0.6302538	0.3437748	0.90527364	6.00459984	-45.4355694
5.3	530	0.114	0.02	-0.99	1.2032118	0.7448454	0.286479	0.75057498	6.016059	-45.45275814
5.31	531	0.117	0.02	-0.988	1.2032118	0.6302538	0.4010706	0.76776372	6.02178858	-45.44702856
5.32	532	0.119	0.018	-0.987	1.2605076	0.4583664	0.4583664	0.77922288	6.02751816	-45.44129898
5.33	533	0.118	0.016	-0.987	1.3750992	-0.1718874	0.4010706	0.79068204	6.02751816	-45.4355694
5.34	534	0.117	0.015	-0.985	1.4896908	-0.6302538	0.4010706	0.80787078	6.02178858	-45.4355694
5.35	535	0.118	0.016	-0.985	1.6042824	-0.6302538	0.286479	0.67609044	6.02751816	-45.44702856
5.36	536	0.117	0.019	-0.987	1.7761698	-0.6302538	0.1718874	0.69327918	6.02178858	-45.44129898
5.37	537	0.116	0.02	-0.987	1.8334656	-0.7448454	0.1718874	0.71046792	6.016059	-45.44129898
5.38	538	0.117	0.02	-0.985	1.7761698	-0.6302538	0.2291832	0.72765666	6.01032942	-45.44129898
5.39	539	0.119	0.022	-0.986	1.6042824	-0.572958	0.3437748	0.7448454	6.00459984	-45.4355694
5.4	540	0.119	0.022	-0.988	1.6042824	-0.572958	0.286479	0.61306506	6.01032942	-45.44702856
5.41	541	0.116	0.021	-0.987	1.4896908	-0.572958	0.2291832	0.6302538	6.00459984	-45.44702856
5.42	542	0.115	0.019	-0.987	1.4896908	-0.5156622	0.0572958	0.64744254	5.99887026	-45.44702856
5.43	543	0.115	0.02	-0.987	1.432395	-0.6875496	-0.1145916	0.6589017	5.99314068	-45.44702856
5.44	544	0.114	0.018	-0.988	1.432395	-0.7448454	-0.286479	0.67609044	5.9874111	-45.44702856
5.45	545	0.113	0.016	-0.988	1.3750992	-0.7448454	-0.3437748	0.55003968	5.98168152	-45.4642173
5.46	546	0.111	0.016	-0.985	1.0313244	-0.7448454	-0.286479	0.56149884	5.97595194	-45.46994688
5.47	547	0.11	0.015	-0.985	0.859437	-0.7448454	-0.286479	0.572958	5.97022236	-45.47567646
5.48	548	0.11	0.016	-0.985	0.9740286	-0.8021412	-0.286479	0.57868758	5.9587632	-45.47567646
5.49	549	0.114	0.019	-0.987	1.0886202	-1.0313244	-0.1718874	0.59014674	5.94730404	-45.48140604
5.5	550	0.115	0.023	-0.988	1.0313244	-1.0886202	-0.1718874	0.44690724	5.94730404	-45.49859478
5.51	551	0.114	0.023	-0.99	0.9740286	-0.9740286	-0.1718874	0.4583664	5.93584488	-45.49859478
5.52	552	0.113	0.021	-0.991	0.859437	-0.9740286	-0.1718874	0.46982556	5.92438572	-45.50432436
5.53	553	0.111	0.018	-0.987	0.859437	-1.2605076	-0.1718874	0.47555514	5.91292656	-45.50432436
5.54	554	0.108	0.015	-0.987	0.9740286	-1.432395	-0.1145916	0.4870143	5.9014674	-45.50432436
5.55	555	0.107	0.014	-0.989	0.9740286	-1.3178034	0	0.36669312	5.87854908	-45.5215131
5.56	556	0.108	0.016	-0.988	1.0886202	-1.145916	0	0.37815228	5.86708992	-45.5215131
5.57	557	0.108	0.018	-0.989	0.9740286	-1.0886202	-0.0572958	0.38961144	5.85563076	-45.5215131
5.58	558	0.109	0.02	-0.989	0.9740286	-1.0886202	-0.0572958	0.39534102	5.8441716	-45.5215131
5.59	559	0.109	0.019	-0.989	1.0313244	-0.9740286	-0.1145916	0.40680018	5.83271244	-45.52724268
5.6	560	0.11	0.016	-0.989	0.9167328	-0.8021412	-0.0572958	0.2578311	5.82698286	-45.53870184
5.61	561	0.109	0.014	-0.988	0.7448454	-0.7448454	0	0.26356068	5.82125328	-45.53870184
5.62	562	0.107	0.014	-0.987	0.859437	-0.9740286	0	0.27501984	5.80979412	-45.54443142
5.63	563	0.104	0.014	-0.986	0.8021412	-1.0313244	0	0.286479	5.79833496	-45.54443142
5.64	564	0.103	0.016	-0.987	0.8021412	-0.9740286	0	0.29220858	5.7868758	-45.54443142
5.65	565	0.105	0.018	-0.989	1.0313244	-1.0313244	0	0.15469866	5.76968706	-45.55589058
5.66	566	0.107	0.02	-0.988	0.859437	-1.0886202	-0.0572958	0.16615782	5.7582279	-45.55589058
5.67	567	0.109	0.017	-0.987	0.7448454	-1.0313244	0	0.1718874	5.74676874	-45.55589058
5.68	568	0.109	0.015	-0.986	0.5156622	-0.6875496	0	0.17761698	5.74103916	-45.56162016
5.69	569	0.108	0.016	-0.986	0.6302538	-0.572958	-0.0572958	0.18334656	5.73530958	-45.56162016
5.7	570	0.11	0.013	-0.98	0.7448454	-0.6302538	-0.1718874	0.0572958	5.74103916	-45.57307932
5.71	571	0.109	0.009	-0.974	0.572958	-0.7448454	-0.1145916	0.06302538	5.73530958	-45.57307932
5.72	572	0.111	0.007	-0.975	0.286479	-0.859437	0	0.06875496	5.72385042	-45.57307932
5.73	573	0.115	0.009	-0.978	-0.2291832	-0.4010706	0.3437748	0.06302538	5.71812084	-45.57307932
5.74	574	0.117	0.013	-0.983	-0.1145916	-0.4010706	0.4583664	0.06302538	5.71812084	-45.56734974
5.75	575	0.117	0.017	-0.991	-0.1145916	-0.286479	0.572958	-0.18334656	5.77541664	-45.58453848
5.76	576	0.115	0.017	-0.995	-0.1145916	-0.286479	0.5156622	-0.18334656	5.76968706	-45.5788089
5.77	577	0.113	0.018	-0.995	-0.0572958	-0.286479	0.4583664	-0.18334656	5.76395748	-45.57307932
5.78	578	0.11	0.017	-0.993	0.1145916	-0.5156622	0.5156622	-0.18334656	5.76395748	-45.56734974
5.79	579	0.107	0.019	-0.99	0.1145916	-0.572958	0.4583664	-0.17761698	5.7582279	-45.56162016
5.8	580	0.105	0.02	-0.987	0.2291832	-0.5156622	0.286479	-0.38388186	5.72958	-45.5788089
5.81	581	0.103	0.02	-0.984	0.1145916	-0.2291832	0.1718874	-0.37815228	5.72958	-45.5788089
5.82	582	0.104	0.019	-0.982	-0.0572958	-0.1718874	0	-0.37815228	5.72958	-45.5788089
5.83	583	0.104	0.017	-0.98	-0.0572958	-0.0572958	-0.1718874	-0.37815228	5.72385042	-45.5788089
5.84	584	0.105	0.018	-0.981	-0.0572958	0	-0.1145916	-0.38388186	5.72958	-45.58453848
5.85	585	0.107	0.019	-0.984	0.1718874	0	-0.1145916	-0.65317212	5.72385042	-45.6074568
5.86	586	0.106	0.019	-0.983	0.2291832	-0.1145916	-0.1145916	-0.65317212	5.72385042	-45.6074568
5.87	587	0.104	0.019	-0.983	0.2291832	-0.1145916	-0.1145916	-0.64744254	5.71812084	-45.61318638
5.88	588	0.103	0.016	-0.984	0.4583664	0	-0.0572958	-0.64744254	5.72385042	-45.61318638
5.89	589	0.105	0.015	-0.987	0.572958	0.1145916	0	-0.64171296	5.72385042	-45.61318638
5.9	590	0.107	0.016	-0.988	0.7448454	0.0572958	0.1145916	-0.76776372	5.72385042	-45.62464554
5.91	591	0.108	0.013	-0.988	0.6875496	0.0572958	0.1145916	-0.76203414	5.72385042	-45.62464554
5.92	592	0.107	0.01	-0.987	0.4010706	0.2291832	0.1145916	-0.75630456	5.72958	-45.61891596
5.93	593	0.107	0.01	-0.988	0	0.286479	0	-0.75630456	5.72958	-45.61891596
5.94	594	0.107	0.011	-0.988	0	0	-0.0572958	-0.75630456	5.72958	-45.61891596
5.95	595	0.105	0.01	-0.985	0	-0.2291832	0	-0.9453807	5.69520252	-45.64183428
5.96	596	0.106	0.009	-0.982	0	-0.3437748	0	-0.9453807	5.69520252	-45.64183428
5.97	597	0.105	0.01	-0.983	0	-0.2291832	0	-0.9453807	5.68947294	-45.64183428
5.98	598	0.106	0.01	-0.984	0.0572958	-0.1718874	0	-0.9453807	5.68947294	-45.64183428
5.99	599	0.109	0.01	-0.985	-0.0572958	0.1718874	0	-0.9453807	5.68947294	-45.64183428
6	600	0.11	0.011	-0.986	-0.1718874	0.286479	0.0572958	-1.08289062	5.72385042	-45.64756386
6.01	601	0.109	0.011	-0.986	-0.286479	0.1145916	0	-1.0886202	5.72385042	-45.64756386
6.02	602	0.108	0.013	-0.987	-0.286479	-0.1145916	0	-1.0886202	5.72385042	-45.64756386
6.03	603	0.105	0.013	-0.988	-0.1145916	-0.0572958	-0.1145916	-1.0886202	5.72385042	-45.64756386
6.04	604	0.104	0.014	-0.988	-0.0572958	0.1145916	-0.1145916	-1.09434978	5.72385042	-45.65329344
6.05	605	0.103	0.015	-0.987	0	0.1718874	-0.1145916	-1.33499214	5.6722842	-45.67621176
6.06	606	0.102	0.015	-0.986	0	0.1718874	-0.1145916	-1.33499214	5.6722842	-45.68194134
6.07	607	0.103	0.016	-0.986	-0.0572958	0.1718874	-0.1145916	-1.33499214	5.6722842	-45.68194134
6.08	608	0.104	0.015	-0.983	-0.0572958	0.0572958	-0.1145916	-1.33499214	5.6722842	-45.68194134
6.09	609	0.103	0.014	-0.984	-0.1145916	0.1145916	-0.0572958	-1.34072172	5.67801378	-45.68194134
6.1	610	0.103	0.011	-0.984	-0.1718874	0.4010706	0	-1.38655836	5.66655462	-45.68767092
6.11	611	0.104	0.011	-0.984	-0.1718874	0.4583664	0	-1.38655836	5.6722842	-45.68767092
6.12	612	0.106	0.012	-0.987	-0.2291832	0.4010706	0.0572958	-1.38655836	5.6722842	-45.68767092
6.13	613	0.107	0.013	-0.988	-0.2291832	0.4010706	0.0572958	-1.39228794	5.67801378	-45.68767092
6.14	614	0.107	0.014	-0.987	-0.1718874	0.0572958	0.1145916	-1.39228794	5.67801378	-45.68194134
6.15	615	0.106	0.014	-0.987	-0.3437748	0	0.0572958	-1.45531332	5.66655462	-45.68767092
6.16	616	0.105	0.013	-0.988	-0.4583664	-0.1145916	0	-1.4610429	5.66655462	-45.68767092
6.17	617	0.106	0.011	-0.988	-0.4010706	-0.2291832	-0.0572958	-1.46677248	5.66655462	-45.68767092
6.18	618	0.106	0.01	-0.986	-0.3437748	-0.1145916	0	-1.46677248	5.66082504	-45.68767092
6.19	619	0.107	0.009	-0.986	-0.4583664	-0.2291832	0	-1.47250206	5.66082504	-45.68767092
6.2	620	0.106	0.009	-0.985	-0.6302538	-0.2291832	0	-1.50114996	5.65509546	-45.6934005
6.21	621	0.106	0.009	-0.984	-0.859437	-0.0572958	0	-1.50687954	5.65509546	-45.6934005
6.22	622	0.105	0.009	-0.983	-0.859437	-0.1718874	-0.0572958	-1.5183387	5.65509546	-45.6934005
6.23	623	0.105	0.012	-0.981	-0.9740286	-0.2291832	-0.0572958	-1.52979786	5.64936588	-45.6934005
6.24	624	0.104	0.012	-0.983	-0.6302538	-0.286479	-0.0572958	-1.53552744	5.64936588	-45.6934005
6.25	625	0.102	0.014	-0.986	-0.5156622	-0.3437748	-0.1145916	-1.56990492	5.63217714	-45.69913008
6.26	626	0.102	0.013	-0.986	-0.5156622	0	-0.1145916	-1.5756345	5.63217714	-45.69913008
6.27	627	0.103	0.011	-0.99	-0.3437748	0.5156622	-0.0572958	-1.58136408	5.63790672	-45.69913008
6.28	628	0.104	0.01	-0.991	-0.286479	0.4583664	0	-1.58709366	5.6436363	-45.69913008
6.29	629	0.103	0.009	-0.987	-0.4583664	0.0572958	0.1718874	-1.58709366	5.6436363	-45.69913008
6.3	630	0.101	0.01	-0.984	-0.8021412	0.1145916	0.1718874	-1.61001198	5.63217714	-45.69913008
6.31	631	0.1	0.013	-0.983	-0.9167328	0.2291832	0.0572958	-1.62147114	5.63217714	-45.69913008
6.32	632	0.1	0.015	-0.984	-0.9740286	0.1145916	0	-1.62720072	5.63217714	-45.69913008
6.33	633	0.102	0.016	-0.984	-0.9167328	0	-0.0572958	-1.63865988	5.63217714	-45.69913008
6.34	634	0.102	0.016	-0.981	-0.6302538	0.1718874	-0.0572958	-1.64438946	5.63790672	-45.69913008
6.35	635	0.102	0.016	-0.979	-0.6875496	0.3437748	0.1145916	-1.67876694	5.60352924	-45.69913008
6.36	636	0.102	0.012	-0.982	-0.3437748	0.3437748	0.0572958	-1.67876694	5.60925882	-45.69913008
6.37	637	0.103	0.007	-0.974	-0.5156622	0.4583664	0.0572958	-1.68449652	5.6149884	-45.69913008
6.38	638	0.103	0.004	-0.972	-0.9167328	0.4583664	0.1145916	-1.69595568	5.62071798	-45.69913008
6.39	639	0.104	0.008	-0.98	-0.859437	0.286479	0.1145916	-1.70168526	5.62071798	-45.6934005
6.4	640	0.105	0.015	-0.986	-0.2291832	0.1145916	0.1145916	-1.8048177	5.62644756	-45.70485966
6.41	641	0.106	0.02	-0.991	0.1145916	0.286479	0	-1.8048177	5.63217714	-45.70485966
6.42	642	0.103	0.018	-0.994	0.3437748	0.3437748	-0.0572958	-1.79908812	5.63217714	-45.70485966
6.43	643	0.1	0.015	-0.995	0.2291832	0.3437748	-0.1718874	-1.79908812	5.63790672	-45.70485966
6.44	644	0.097	0.013	-0.993	0.0572958	0.286479	-0.286479	-1.79908812	5.63790672	-45.71058924
6.45	645	0.098	0.012	-0.988	0.0572958	0.1145916	-0.286479	-1.82200644	5.59207008	-45.71631882
6.46	646	0.098	0.014	-0.981	0.1718874	0.1718874	-0.1718874	-1.81627686	5.59779966	-45.71631882
6.47	647	0.099	0.018	-0.976	0.1145916	0.2291832	-0.1145916	-1.81627686	5.59779966	-45.7220484
6.48	648	0.101	0.018	-0.975	0.1718874	0.3437748	-0.1145916	-1.81627686	5.60352924	-45.7220484
6.49	649	0.103	0.019	-0.978	0.286479	0.4583664	-0.1145916	-1.81054728	5.60925882	-45.7220484
6.5	650	0.106	0.019	-0.979	0.4010706	0.572958	-0.1145916	-1.8334656	5.6149884	-45.72777798
6.51	651	0.107	0.018	-0.981	0.572958	0.6875496	-0.0572958	-1.82773602	5.62071798	-45.72777798
6.52	652	0.108	0.016	-0.983	0.6302538	0.572958	0	-1.82200644	5.62644756	-45.72777798
6.53	653	0.107	0.014	-0.983	0.6875496	0.4583664	-0.0572958	-1.81054728	5.63217714	-45.72777798
6.54	654	0.107	0.013	-0.983	0.8021412	0.286479	-0.1145916	-1.8048177	5.63790672	-45.72777798
6.55	655	0.107	0.012	-0.985	0.9167328	0	-0.1145916	-1.79908812	5.63790672	-45.73350756
6.56	656	0.105	0.013	-0.983	1.0886202	-0.1718874	-0.1145916	-1.78762896	5.63790672	-45.73350756
6.57	657	0.108	0.012	-0.983	1.0886202	-0.1718874	-0.1145916	-1.78189938	5.63217714	-45.73350756
6.58	658	0.109	0.011	-0.985	0.9740286	0	-0.1718874	-1.77044022	5.63217714	-45.73923714
6.59	659	0.109	0.01	-0.988	1.0313244	-0.1145916	-0.1145916	-1.75898106	5.63217714	-45.73923714
6.6	660	0.108	0.01	-0.987	1.0886202	-0.5156622	-0.0572958	-1.75325148	5.62644756	-45.73923714
6.61	661	0.106	0.011	-0.984	1.2032118	-0.8021412	-0.0572958	-1.73606274	5.62071798	-45.73923714
6.62	662	0.104	0.008	-0.983	1.3178034	-0.859437	-0.1718874	-1.72460358	5.60925882	-45.74496672
6.63	663	0.102	0.009	-0.984	1.432395	-0.9167328	-0.1718874	-1.70741484	5.60352924	-45.74496672
6.64	664	0.101	0.011	-0.986	1.718874	-1.0313244	-0.1718874	-1.6902261	5.59207008	-45.74496672
6.65	665	0.102	0.013	-0.986	1.9480572	-1.0313244	-0.2291832	-1.67876694	5.58061092	-45.7506963
6.66	666	0.103	0.012	-0.987	2.1199446	-1.0313244	-0.1718874	-1.65584862	5.56915176	-45.7506963
6.67	667	0.102	0.01	-0.988	1.9480572	-0.9740286	-0.2291832	-1.63865988	5.5576926	-45.75642588
6.68	668	0.102	0.009	-0.988	1.8334656	-1.0313244	-0.2291832	-1.61574156	5.55196302	-45.75642588
6.69	669	0.1	0.009	-0.988	1.5469866	-0.7448454	-0.1145916	-1.59855282	5.54050386	-45.75642588
6.7	670	0.099	0.009	-0.988	1.432395	-0.572958	-0.1145916	-1.59282324	5.5290447	-45.76215546
6.71	671	0.099	0.01	-0.988	1.2605076	-0.5156622	-0.1145916	-1.58136408	5.52331512	-45.76215546
6.72	672	0.098	0.011	-0.988	1.2032118	-0.5156622	-0.1145916	-1.56990492	5.51758554	-45.76215546
6.73	673	0.098	0.013	-0.988	1.145916	-0.4010706	-0.1145916	-1.55271618	5.51758554	-45.76788504
6.74	674	0.098	0.011	-0.987	0.9740286	-0.4010706	-0.0572958	-1.5469866	5.51185596	-45.76788504
6.75	675	0.097	0.01	-0.986	0.8021412	-0.2291832	-0.0572958	-1.5469866	5.48893764	-45.76788504
6.76	676	0.096	0.009	-0.986	0.7448454	-0.1145916	0	-1.54125702	5.48320806	-45.77361462
6.77	677	0.096	0.011	-0.986	0.6875496	-0.1145916	-0.0572958	-1.53552744	5.48320806	-45.77361462
6.78	678	0.098	0.013	-0.986	0.8021412	-0.2291832	-0.1718874	-1.52406828	5.48320806	-45.77361462
6.79	679	0.097	0.013	-0.987	0.9167328	-0.2291832	-0.1718874	-1.51260912	5.47747848	-45.77361462
6.8	680	0.097	0.012	-0.988	1.0313244	-0.0572958	-0.286479	-1.5183387	5.46601932	-45.7793442
6.81	681	0.098	0.01	-0.987	1.0313244	0.0572958	-0.3437748	-1.50687954	5.46601932	-45.78507378
6.82	682	0.098	0.007	-0.986	0.9740286	0.1145916	-0.286479	-1.49542038	5.46601932	-45.78507378
