TimeStamp(s)	FrameCounter	AccX	AccY	AccZ	GyrX	GyrY	GyrZ	EulerX	EulerY	EulerZ
0.01	1	-0.017	-1.007	0.041	-0.3437748	0.5156622	0.2291832	90.96281208	-0.53858052	-22.46568318
0.02	2	-0.02	-1.007	0.045	0.0572958	-0.859437	0.8021412	90.96281208	-0.5443101	-22.47714234
0.03	3	-0.021	-1.008	0.043	0.1145916	-1.0313244	0.9167328	90.96854166	-0.55576926	-22.4886015
0.04	4	-0.022	-1.007	0.047	0.5156622	-1.4896908	0.9167328	90.97427124	-0.56149884	-22.50006066
0.05	5	-0.02	-1.007	0.053	0.5156622	-1.718874	0.7448454	90.99718956	-0.57868758	-22.5172494
0.06	6	-0.019	-1.011	0.058	0.2291832	-1.718874	0.6302538	90.99718956	-0.58441716	-22.53443814
0.07	7	-0.017	-1.011	0.053	-0.1145916	-1.4896908	0.6302538	90.99718956	-0.59014674	-22.55162688
0.08	8	-0.018	-1.011	0.048	-0.2291832	-1.4896908	0.6302538	90.99718956	-0.59587632	-22.56308604
0.09	9	-0.019	-1.008	0.046	-0.286479	-1.3750992	0.8021412	90.99145998	-0.6016059	-22.58027478
0.1	10	-0.021	-1.006	0.043	-0.6302538	-1.145916	0.6875496	90.99145998	-0.61879464	-22.58600436
0.11	11	-0.022	-1.005	0.04	-0.8021412	-0.8021412	0.6875496	90.9857304	-0.62452422	-22.59746352
0.12	12	-0.024	-1.005	0.037	-0.9167328	-0.4583664	0.6875496	90.97427124	-0.6302538	-22.6031931
0.13	13	-0.021	-1.005	0.035	-0.9167328	-0.2291832	0.7448454	90.96281208	-0.63598338	-22.6031931
0.14	14	-0.019	-1.006	0.037	-0.859437	-0.1718874	0.6875496	90.9570825	-0.64744254	-22.60892268
0.15	15	-0.018	-1.008	0.041	-0.9167328	-0.1718874	0.7448454	90.95135292	-0.65317212	-22.60892268
0.16	16	-0.017	-1.01	0.042	-1.0886202	-0.1718874	0.859437	90.93989376	-0.66463128	-22.60892268
0.17	17	-0.017	-1.012	0.044	-1.6042824	-0.4583664	0.9167328	90.92270502	-0.67609044	-22.61465226
0.18	18	-0.018	-1.013	0.047	-1.8907614	-0.4010706	0.9167328	90.8997867	-0.68182002	-22.62038184
0.19	19	-0.019	-1.011	0.05	-2.1199446	-0.1145916	0.859437	90.88259796	-0.69327918	-22.62038184
0.2	20	-0.02	-1.009	0.049	-2.4637194	0.286479	0.859437	90.86540922	-0.70473834	-22.62038184
0.21	21	-0.024	-1.01	0.048	-2.8074942	0.9167328	0.9167328	90.83676132	-0.7161975	-22.60892268
0.22	22	-0.027	-1.011	0.048	-3.151269	1.432395	0.859437	90.80238384	-0.72765666	-22.59746352
0.23	23	-0.03	-1.011	0.049	-3.5523396	2.0626488	0.7448454	90.76800636	-0.73338624	-22.5745452
0.24	24	-0.033	-1.012	0.051	-4.1825934	3.0366774	0.572958	90.72216972	-0.7448454	-22.5458973
0.25	25	-0.036	-1.013	0.049	-4.8128472	4.1252976	0.4010706	90.67633308	-0.75630456	-22.50579024
0.26	26	-0.038	-1.014	0.046	-5.8441716	5.6722842	0	90.61903728	-0.75630456	-22.44849444
0.27	27	-0.039	-1.015	0.046	-6.6463128	7.161975	-0.1718874	90.55028232	-0.76203414	-22.37973948
0.28	28	-0.037	-1.02	0.046	-7.448454	8.880849	-0.3437748	90.4700682	-0.76203414	-22.29379578
0.29	29	-0.035	-1.02	0.045	-8.5370742	11.2299768	-0.572958	90.37839492	-0.75630456	-22.17920418
0.3	30	-0.027	-1.018	0.035	-9.6829902	14.0947668	-0.7448454	90.27526248	-0.75630456	-22.04169426
0.31	31	-0.015	-1.014	0.022	-10.2559482	15.8709366	-0.6302538	90.16640046	-0.75630456	-21.8869956
0.32	32	-0.011	-1.012	0.015	-9.7975818	15.8709366	-0.1145916	90.06326802	-0.76203414	-21.73229694
0.33	33	-0.012	-1.013	0.015	-9.740286	15.1260912	0.5156622	89.96013558	-0.7734933	-21.58332786
0.34	34	-0.011	-1.015	0.019	-9.8548776	14.0947668	1.145916	89.85700314	-0.78495246	-21.44581794
0.35	35	-0.01	-1.014	0.024	-9.8548776	14.037471	1.3178034	89.7538707	-0.8021412	-21.30830802
0.36	36	-0.007	-1.012	0.026	-10.1413566	14.32395	1.3750992	89.65073826	-0.81932994	-21.16506852
0.37	37	-0.008	-1.011	0.023	-10.599723	14.32395	1.2605076	89.53614666	-0.83651868	-21.0275586
0.38	38	-0.009	-1.012	0.018	-10.2559482	14.6677248	0.9167328	89.42728464	-0.85370742	-20.87858952
0.39	39	-0.013	-1.012	0.013	-10.2559482	15.183387	0.859437	89.31842262	-0.86516658	-20.72962044
0.4	40	-0.02	-1.009	0.015	-9.8548776	15.4125702	1.0313244	89.21529018	-0.87662574	-20.58065136
0.41	41	-0.023	-1.004	0.017	-9.6256944	15.5844576	1.0886202	89.11215774	-0.89381448	-20.4259527
0.42	42	-0.02	-1.002	0.015	-9.8548776	15.8709366	1.2032118	89.0090253	-0.90527364	-20.27125404
0.43	43	-0.015	-1.003	0.013	-9.740286	15.9855282	1.2605076	88.90589286	-0.92246238	-20.1108258
0.44	44	-0.008	-1.003	0.011	-9.5683986	16.2720072	1.145916	88.80276042	-0.93392154	-19.95612714
0.45	45	-0.003	-0.998	0.005	-9.3392154	16.2147114	1.3178034	88.70535756	-0.9453807	-19.7956989
0.46	46	-0.001	-0.996	0.007	-8.7089616	15.5844576	1.6042824	88.6079547	-0.96256944	-19.64100024
0.47	47	0.001	-0.991	0.01	-8.307891	14.7823164	2.1199446	88.522011	-0.98548776	-19.49203116
0.48	48	0.004	-0.987	0.017	-7.9068204	13.5791046	2.578311	88.4360673	-1.01413566	-19.36025082
0.49	49	0.008	-0.992	0.018	-7.9068204	12.032118	2.9793816	88.3501236	-1.04278356	-19.23992964
0.5	50	0.008	-1.001	0.021	-7.9641162	9.167328	3.437748	88.27563906	-1.07143146	-19.15398594
0.51	51	0.003	-1.003	0.024	-7.8495246	6.7036086	3.6096354	88.18969536	-1.11153852	-19.08523098
0.52	52	-0.003	-1.001	0.019	-7.5630456	5.0420304	3.5523396	88.11521082	-1.145916	-19.03366476
0.53	53	-0.008	-0.994	0.017	-6.7036086	3.5523396	3.437748	88.04645586	-1.18029348	-18.99928728
0.54	54	-0.016	-0.99	0.021	-5.2712136	2.3491278	3.437748	87.98916006	-1.21467096	-18.97636896
0.55	55	-0.024	-0.99	0.034	-3.9534102	0.859437	3.2658606	87.9777009	-1.24904844	-18.9649098
0.56	56	-0.033	-0.989	0.055	-3.3231564	-0.2291832	3.0366774	87.94332342	-1.27769634	-18.9649098
0.57	57	-0.038	-0.988	0.065	-3.3231564	-1.0313244	2.578311	87.90894594	-1.30634424	-18.97636896
0.58	58	-0.048	-0.99	0.069	-4.010706	-1.718874	1.8907614	87.86883888	-1.32353298	-18.9935577
0.59	59	-0.055	-0.992	0.056	-5.156622	-1.8907614	1.145916	87.81727266	-1.33499214	-19.01647602
0.6	60	-0.061	-0.998	0.039	-5.9587632	-2.578311	0.572958	87.7771656	-1.35791046	-19.03939434
0.61	61	-0.067	-1.002	0.029	-6.589017	-3.8388186	0.286479	87.71414022	-1.36364004	-19.0795014
0.62	62	-0.07	-1.011	0.02	-7.3911582	-5.156622	0	87.63965568	-1.36364004	-19.13106762
0.63	63	-0.075	-1.013	0.024	-8.3651868	-6.1306506	-0.4010706	87.55371198	-1.35791046	-19.18836342
0.64	64	-0.073	-1.02	0.025	-9.5111028	-7.448454	-0.859437	87.4620387	-1.35218088	-19.26857754
0.65	65	-0.064	-1.032	0.029	-10.6570188	-9.6256944	-1.0886202	87.36463584	-1.35218088	-19.36025082
0.66	66	-0.049	-1.049	0.029	-10.4278356	-11.172681	-0.4583664	87.26723298	-1.3464513	-19.47484242
0.67	67	-0.025	-1.064	0.029	-9.6829902	-12.032118	1.2032118	87.16983012	-1.36364004	-19.5951636
0.68	68	0	-1.073	0.029	-10.7143146	-12.318597	3.2658606	87.06669768	-1.39801752	-19.71548478
0.69	69	0.018	-1.075	0.031	-11.9175264	-12.9488508	5.156622	86.95210608	-1.45531332	-19.84153554
0.7	70	0.023	-1.069	0.047	-13.0634424	-14.32395	6.589017	86.8317849	-1.5183387	-19.98477504
0.71	71	0.016	-1.059	0.058	-14.8396122	-15.469866	7.2192708	86.6885454	-1.59855282	-20.13374412
0.72	72	0.003	-1.051	0.044	-16.5011904	-16.1574156	7.734933	86.52811716	-1.67876694	-20.29417236
0.73	73	-0.016	-1.048	0.031	-15.9282324	-17.3606274	9.0527364	86.3734185	-1.7761698	-20.46033018
0.74	74	-0.038	-1.045	0.037	-14.610429	-17.761698	10.599723	86.230179	-1.8907614	-20.63221758
0.75	75	-0.055	-1.024	0.049	-13.0061466	-16.329303	11.5737516	86.1155874	-2.01681216	-20.78691624
0.76	76	-0.067	-1	0.049	-11.6883432	-14.4958374	11.8602306	86.00672538	-2.14286292	-20.92442616
0.77	77	-0.075	-0.974	0.056	-10.7716104	-13.178034	11.6310474	85.90359294	-2.2631841	-21.04474734
0.78	78	-0.085	-0.958	0.076	-9.6256944	-12.0894138	11.4018642	85.81191966	-2.38350528	-21.15933894
0.79	79	-0.094	-0.957	0.088	-9.2819196	-10.1413566	11.2299768	85.72024638	-2.49809688	-21.25101222
0.8	80	-0.096	-0.967	0.062	-10.1413566	-8.021412	11.0007936	85.64003226	-2.61841806	-21.32549676
0.81	81	-0.094	-0.983	0.037	-10.3705398	-7.2192708	11.0007936	85.53689982	-2.73300966	-21.38852214
0.82	82	-0.094	-0.992	0.036	-9.5683986	-7.3338624	11.45916	85.44522654	-2.85333084	-21.4572771
0.83	83	-0.097	-0.987	0.032	-9.2246238	-7.2192708	11.6310474	85.35355326	-2.97365202	-21.52030248
0.84	84	-0.101	-0.978	0.024	-9.1100322	-7.6203414	11.2299768	85.26760956	-3.08824362	-21.58905744
0.85	85	-0.104	-0.968	0.027	-9.3965112	-7.6776372	10.4278356	85.18739544	-3.20283522	-21.6578124
0.86	86	-0.105	-0.959	0.028	-9.7975818	-6.7036086	9.2246238	85.09572216	-3.30023808	-21.7151082
0.87	87	-0.104	-0.955	0.027	-10.4278356	-5.6722842	7.9068204	84.99258972	-3.38618178	-21.76667442
0.88	88	-0.1	-0.956	0.042	-10.9434978	-5.156622	6.875496	84.8837277	-3.45493674	-21.81251106
0.89	89	-0.093	-0.96	0.045	-11.3445684	-5.156622	5.72958	84.77486568	-3.51796212	-21.8583477
0.9	90	-0.085	-0.963	0.025	-11.9748222	-4.9847346	4.6982556	84.67173324	-3.57525792	-21.90991392
0.91	91	-0.082	-0.967	0.015	-11.45916	-5.6149884	4.010706	84.55714164	-3.61536498	-21.96148014
0.92	92	-0.084	-0.963	0.03	-11.172681	-5.8441716	3.437748	84.44827962	-3.65547204	-22.01877594
0.93	93	-0.09	-0.953	0.037	-11.1153852	-5.5003968	2.8074942	84.3394176	-3.68984952	-22.07034216
0.94	94	-0.096	-0.945	0.041	-10.4851314	-5.2712136	2.1772404	84.23628516	-3.71849742	-22.12190838
0.95	95	-0.101	-0.944	0.044	-9.6256944	-4.9274388	1.6615782	84.17325978	-3.74714532	-22.16774502
0.96	96	-0.108	-0.946	0.052	-8.9954406	-4.297185	0.9167328	84.08731608	-3.76433406	-22.21358166
0.97	97	-0.119	-0.955	0.064	-8.4797784	-3.3804522	0	84.00137238	-3.76433406	-22.24795914
0.98	98	-0.125	-0.963	0.073	-8.3651868	-2.005353	-0.7448454	83.92115826	-3.75860448	-22.27087746
0.99	99	-0.126	-0.97	0.074	-8.3651868	-0.9167328	-1.5469866	83.83521456	-3.74714532	-22.28233662
1	100	-0.116	-0.975	0.072	-7.5057498	-0.1145916	-2.3491278	83.8237554	-3.74141574	-22.2880662
1.01	101	-0.111	-0.981	0.076	-7.448454	0	-3.2658606	83.74927086	-3.71276784	-22.2880662
1.02	102	-0.11	-0.986	0.091	-7.448454	0.4583664	-4.2398892	83.67478632	-3.6669312	-22.29379578
1.03	103	-0.112	-0.99	0.096	-7.3911582	1.3750992	-5.0993262	83.5945722	-3.62109456	-22.28233662
1.04	104	-0.117	-1	0.09	-7.5057498	2.86479	-5.9014674	83.52008766	-3.55806918	-22.2594183
1.05	105	-0.121	-1.009	0.097	-6.9327918	4.297185	-6.302538	83.49716934	-3.50650296	-22.2307704
1.06	106	-0.122	-1.015	0.12	-5.5576926	5.8441716	-6.4171296	83.43414396	-3.437748	-22.17920418
1.07	107	-0.119	-1.022	0.129	-5.0420304	7.2192708	-6.6463128	83.37684816	-3.36899304	-22.1161788
1.08	108	-0.124	-1.03	0.135	-4.3544808	7.8495246	-6.9327918	83.33101152	-3.2945085	-22.04742384
1.09	109	-0.132	-1.041	0.132	-3.2658606	8.7089616	-7.2765666	83.29090446	-3.21429438	-21.96720972
1.1	110	-0.14	-1.055	0.12	-2.291832	9.7975818	-7.6203414	83.30236362	-3.14553942	-21.88126602
1.11	111	-0.146	-1.064	0.104	-1.432395	10.7143146	-7.9641162	83.2794453	-3.05959572	-21.78386316
1.12	112	-0.147	-1.069	0.097	-0.1145916	11.8602306	-8.2505952	83.27371572	-2.96792244	-21.67500114
1.13	113	-0.15	-1.068	0.089	1.9480572	13.178034	-8.6516658	83.28517488	-2.87051958	-21.55467996
1.14	114	-0.149	-1.058	0.118	5.6722842	14.1520626	-9.0527364	83.33101152	-2.76738714	-21.42289962
1.15	115	-0.136	-1.048	0.152	8.0787078	15.9855282	-9.7975818	83.43414396	-2.6642547	-21.27393054
1.16	116	-0.129	-1.039	0.167	10.3705398	17.8762896	-10.599723	83.53154682	-2.54393352	-21.10777272
1.17	117	-0.139	-1.028	0.19	13.9228794	18.621135	-10.6570188	83.66332716	-2.42361234	-20.93588532
1.18	118	-0.154	-1.024	0.212	17.0741484	20.1681216	-10.4278356	83.8237554	-2.29756158	-20.74680918
1.19	119	-0.175	-1.011	0.243	20.1108258	22.91832	-10.4278356	84.01856112	-2.1772404	-20.52908514
1.2	120	-0.182	-1.028	0.272	22.91832	29.793816	-10.7143146	84.2534739	-2.05691922	-20.24260614
1.21	121	-0.028	-1.377	0.131	11.172681	46.7533728	-8.9954406	84.34514718	-1.93086846	-19.78996932
1.22	122	0.177	-1.844	-0.29	-13.3499214	64.5723666	3.5523396	84.17898936	-1.9194093	-19.14825636
1.23	123	0.165	-1.462	-0.402	-0.8021412	39.6486936	15.9282324	84.15607104	-2.05118964	-18.74145618
1.24	124	-0.022	-1.156	-0.148	24.5226024	20.5691922	13.6364004	84.39098382	-2.16578124	-18.52373214
1.25	125	-0.2	-1.111	0.074	29.793816	22.8610242	5.7868758	84.69465156	-2.22307704	-18.28881936
1.26	126	-0.228	-1.072	0.007	21.6005166	28.6479	-1.2032118	84.89518686	-2.18869956	-18.00234036
1.27	127	-0.156	-1.062	-0.131	9.5683986	34.6066632	-6.4744254	84.97540098	-2.10275586	-17.66429514
1.28	128	-0.075	-1.039	-0.252	1.9480572	40.8519054	-6.9327918	84.97540098	-2.01108258	-17.26895412
1.29	129	0.002	-0.919	-0.26	-0.6875496	48.2430636	-4.010706	84.94675308	-1.94232762	-16.79339898
1.3	130	0.056	-0.806	-0.254	-3.0939732	52.712136	-1.6042824	84.87226854	-1.88503182	-16.2720072
1.31	131	0.011	-0.742	-0.282	-5.5576926	46.409598	1.2605076	84.797784	-1.87357266	-15.8136408
1.32	132	-0.102	-0.719	-0.28	-4.4117766	37.9298196	5.9014674	84.73475862	-1.90795014	-15.43548852
1.33	133	-0.21	-0.757	-0.261	-1.6615782	32.8877892	10.4278356	84.70038114	-1.98816426	-15.10317288
1.34	134	-0.241	-0.857	-0.241	0.1718874	31.2835068	12.4904844	84.68892198	-2.0912967	-14.7823164
1.35	135	-0.206	-0.977	-0.224	0.3437748	29.0489706	11.5737516	84.66027408	-2.2058883	-14.47864866
1.36	136	-0.125	-1.067	-0.188	1.0886202	27.4446882	8.4224826	84.66027408	-2.26891368	-14.20362882
1.37	137	-0.034	-1.079	-0.155	2.6929026	27.8457588	2.578311	84.67173324	-2.28037284	-13.9228794
1.38	138	0.033	-1.048	-0.126	4.5263682	26.2414764	-2.5210152	84.70038114	-2.2345362	-13.6650483
1.39	139	0.07	-1.006	-0.097	7.2192708	22.6891368	-5.9587632	84.76340652	-2.16005166	-13.44732426
1.4	140	0.078	-0.978	-0.078	9.5111028	19.3086846	-7.9068204	84.84935022	-2.05118964	-13.2639777
1.41	141	0.064	-0.976	-0.065	9.5683986	16.2147114	-8.5370742	84.9410235	-1.95951636	-13.10927904
1.42	142	0.049	-0.978	-0.06	7.9641162	13.464513	-8.59437	85.01550804	-1.8621135	-12.98322828
1.43	143	0.033	-0.968	-0.042	6.0733548	12.032118	-8.59437	85.07280384	-1.77044022	-12.86863668
1.44	144	0.018	-0.962	-0.037	4.297185	11.0007936	-8.7662574	85.1129109	-1.67876694	-12.77123382
1.45	145	0.011	-0.963	-0.04	1.8334656	10.0840608	-9.2819196	85.13009964	-1.56990492	-12.67956054
1.46	146	0.003	-0.961	-0.056	-0.3437748	9.3965112	-10.2559482	85.12437006	-1.4610429	-12.59361684
1.47	147	-0.013	-0.954	-0.058	-1.718874	9.6829902	-11.6883432	85.10145174	-1.34072172	-12.50767314
1.48	148	-0.035	-0.95	-0.054	-3.2085648	10.1413566	-13.5218088	85.06707426	-1.2032118	-12.41599986
1.49	149	-0.054	-0.944	-0.058	-4.870143	11.6883432	-15.3552744	85.00977846	-1.04278356	-12.318597
1.5	150	-0.057	-0.94	-0.07	-5.5003968	14.610429	-16.7303736	84.94675308	-0.87662574	-12.18681666
1.51	151	-0.046	-0.933	-0.073	-5.72958	17.475219	-17.6471064	84.8837277	-0.6875496	-12.02638842
1.52	152	-0.026	-0.935	-0.059	-5.5576926	18.7930224	-17.7044022	84.8264319	-0.50420304	-11.8602306
1.53	153	0.001	-0.942	-0.046	-5.72958	17.9908812	-17.1314442	84.76340652	-0.32085648	-11.69980236
1.54	154	0.04	-0.947	-0.043	-6.7036086	15.5271618	-16.042824	84.68892198	-0.15469866	-11.55656286
1.55	155	0.064	-0.944	-0.043	-6.4744254	12.4904844	-15.183387	84.6258966	0.01145916	-11.45343042
1.56	156	0.071	-0.944	-0.043	-6.7036086	8.9381448	-14.610429	84.55714164	0.16042824	-11.37894588
1.57	157	0.068	-0.934	-0.032	-6.302538	5.6149884	-14.0947668	84.48838668	0.30366774	-11.33310924
1.58	158	0.062	-0.922	-0.015	-5.72958	4.0680018	-13.5218088	84.43109088	0.44117766	-11.30446134
1.59	159	0.042	-0.92	0	-5.0993262	3.3804522	-13.3499214	84.37952466	0.572958	-11.2872726
1.6	160	0.023	-0.924	0.017	-4.870143	3.6096354	-13.0634424	84.35087676	0.70473834	-11.26435428
1.61	161	0.009	-0.927	0.035	-5.0420304	5.5003968	-12.2613012	84.29931054	0.8307891	-11.22424722
1.62	162	-0.003	-0.936	0.052	-5.72958	7.2192708	-10.6570188	84.23628516	0.93965112	-11.16122184
1.63	163	-0.006	-0.943	0.058	-6.4171296	7.161975	-8.7662574	84.17325978	1.0313244	-11.09819646
1.64	164	-0.006	-0.948	0.058	-6.7036086	6.875496	-6.9900876	84.10450482	1.10580894	-11.04090066
1.65	165	-0.001	-0.955	0.059	-6.9327918	7.0473834	-5.2712136	84.07012734	1.16310474	-10.97787528
1.66	166	0.008	-0.96	0.049	-7.5630456	7.5630456	-3.8388186	83.9956428	1.2032118	-10.90912032
1.67	167	0.031	-0.976	0.028	-8.2505952	8.7089616	-2.7501984	83.9096991	1.23758928	-10.82317662
1.68	168	0.057	-0.987	0.009	-8.9381448	9.8548776	-2.0626488	83.8237554	1.26623718	-10.73150334
1.69	169	0.069	-0.989	0.002	-8.7662574	9.0527364	-1.8334656	83.73208212	1.2891555	-10.64555964
1.7	170	0.075	-0.984	0.005	-8.4224826	5.6722842	-1.6615782	83.6805159	1.33499214	-10.59399342
1.71	171	0.08	-0.979	0.007	-7.3911582	2.3491278	-1.6615782	83.60603136	1.35218088	-10.5710751
1.72	172	0.083	-0.982	0.012	-5.9014674	-0.2291832	-1.8907614	83.54873556	1.36936962	-10.57680468
1.73	173	0.082	-0.998	0.022	-4.6409598	-2.578311	-2.291832	83.49716934	1.39228794	-10.60545258
1.74	174	0.08	-1.015	0.039	-3.5523396	-6.0733548	-2.3491278	83.46279186	1.40947668	-10.66847796
1.75	175	0.079	-1.029	0.068	-1.718874	-10.7143146	-2.005353	83.49716934	1.43812458	-10.78306956
1.76	176	0.079	-1.052	0.11	0.4010706	-15.756345	-1.3750992	83.50289892	1.43812458	-10.93776822
1.77	177	0.085	-1.072	0.14	3.151269	-21.772404	-0.4010706	83.53154682	1.42666542	-11.15549226
1.78	178	0.102	-1.088	0.167	7.448454	-27.9030546	1.145916	83.60603136	1.39228794	-11.42478252
1.79	179	0.107	-1.104	0.187	12.032118	-32.2575354	2.8074942	83.72062296	1.34072172	-11.73990942
1.8	180	0.104	-1.128	0.183	15.6417534	-35.4088044	4.0680018	83.89823994	1.27769634	-12.08368422
1.81	181	0.086	-1.155	0.179	18.334656	-37.6433406	4.583664	84.0815865	1.2032118	-12.45037734
1.82	182	0.058	-1.192	0.171	21.7151082	-39.3049188	3.9534102	84.29931054	1.14018642	-12.82852962
1.83	183	0.029	-1.25	0.136	26.0122932	-40.2789474	2.4064236	84.56287122	1.0886202	-13.22387064
1.84	184	0.004	-1.336	0.071	27.4446882	-43.1437374	1.5469866	84.83789106	1.04851314	-13.64212998
1.85	185	-0.007	-1.402	0.024	28.8770832	-49.7900502	1.432395	85.13009964	1.00840608	-14.12914428
1.86	186	-0.025	-1.477	0.037	22.058883	-53.285094	1.5469866	85.35355326	0.96256944	-14.65626564
1.87	187	-0.077	-1.526	-0.046	8.4224826	-47.1544434	1.5469866	85.43949696	0.92246238	-15.12036162
1.88	188	-0.146	-1.539	-0.228	-0.286479	-39.1330314	1.7761698	85.43376738	0.8880849	-15.50424348
1.89	189	-0.196	-1.492	-0.329	-3.724227	-30.939732	2.1199446	85.39366032	0.84797784	-15.80791122
1.9	190	-0.222	-1.373	-0.406	-3.724227	-18.5065434	2.005353	85.3420941	0.80787078	-15.9855282
1.91	191	-0.216	-1.185	-0.402	-1.5469866	-9.9121734	3.724227	85.32490536	0.76776372	-16.08293106
1.92	192	-0.153	-0.985	-0.375	0.7448454	-11.4018642	8.307891	85.33636452	0.67609044	-16.19179308
1.93	193	-0.058	-0.875	-0.342	2.6929026	-22.1734746	12.7196676	85.36501242	0.53858052	-16.39805796
1.94	194	0.043	-0.835	-0.325	3.3231564	-31.5699858	14.3812458	85.3993899	0.38388186	-16.7017257
1.95	195	0.147	-0.851	-0.304	3.5523396	-36.096354	12.6623718	85.41084906	0.2578311	-17.0455005
1.96	196	0.256	-0.905	-0.273	1.718874	-37.0130868	8.880849	85.43376738	0.15469866	-17.40646404
1.97	197	0.316	-0.96	-0.246	0.2291832	-37.4141574	4.870143	85.43949696	0.0859437	-17.77315716
1.98	198	0.275	-0.996	-0.217	-2.1199446	-38.7319608	2.0626488	85.42230822	0.04583664	-18.15130944
1.99	199	0.162	-1.009	-0.201	-3.3804522	-38.674665	1.0886202	85.39366032	0.01145916	-18.5351913
2	200	0.006	-1.005	-0.187	-2.6356068	-38.101707	2.3491278	85.35928284	-0.03437748	-18.907614
2.01	201	-0.103	-0.979	-0.177	-2.4637194	-36.6120162	4.297185	85.33636452	-0.09740286	-19.26857754
2.02	202	-0.155	-0.924	-0.167	-2.8074942	-34.8358464	5.8441716	85.3134462	-0.1718874	-19.60662276
2.03	203	-0.151	-0.879	-0.144	-2.291832	-32.1429438	6.9900876	85.29625746	-0.2578311	-19.91602008
2.04	204	-0.134	-0.859	-0.135	-1.432395	-29.220858	8.2505952	85.2847983	-0.35523396	-20.20249908
2.05	205	-0.123	-0.851	-0.143	-0.9167328	-28.0176462	9.5111028	85.26760956	-0.48128472	-20.46605976
2.06	206	-0.1	-0.843	-0.137	-0.286479	-28.1895336	10.7716104	85.27333914	-0.6016059	-20.7410796
2.07	207	-0.086	-0.83	-0.124	0.8021412	-28.1895336	11.9175264	85.29052788	-0.73911582	-21.00464028
2.08	208	-0.065	-0.815	-0.104	1.3750992	-28.1895336	12.1467096	85.3134462	-0.87089616	-21.27393054
2.09	209	-0.052	-0.807	-0.101	1.3178034	-27.1582092	11.5737516	85.33063494	-1.0026765	-21.53749122
2.1	210	-0.048	-0.806	-0.096	1.432395	-26.356068	10.6570188	85.34782368	-1.12299768	-21.78386316
2.11	211	-0.06	-0.81	-0.084	2.0626488	-25.210152	9.9121734	85.38220116	-1.23758928	-22.0302351
2.12	212	-0.093	-0.818	-0.065	2.3491278	-23.3766864	9.453807	85.41084906	-1.34072172	-22.25368872
2.13	213	-0.112	-0.821	-0.044	2.4064236	-20.340009	8.7089616	85.44522654	-1.43812458	-22.44276486
2.14	214	-0.121	-0.832	-0.045	2.1772404	-16.615782	7.9068204	85.47387444	-1.52406828	-22.6031931
2.15	215	-0.13	-0.838	-0.046	2.1199446	-12.891555	6.9900876	85.50252234	-1.62147114	-22.72351428
2.16	216	-0.104	-0.839	-0.036	1.3178034	-9.453807	6.0733548	85.51971108	-1.68449652	-22.81518756
2.17	217	-0.086	-0.822	-0.03	0.572958	-5.2139178	5.9014674	85.52544066	-1.7475219	-22.8610242
2.18	218	-0.07	-0.818	-0.018	0.8021412	-2.9220858	5.3858052	85.53689982	-1.8048177	-22.88394252
2.19	219	-0.054	-0.828	-0.002	1.4896908	-2.4064236	4.6982556	85.55408856	-1.85065434	-22.90686084
2.2	220	-0.05	-0.854	0.01	1.718874	-1.8334656	3.0939732	85.59419562	-1.8907614	-22.91832
2.21	221	-0.056	-0.886	0.015	1.0313244	-1.4896908	0.859437	85.60565478	-1.90222056	-22.93550874
2.22	222	-0.063	-0.912	0.026	0.6875496	-1.3750992	-1.3178034	85.61711394	-1.8907614	-22.95269748
2.23	223	-0.069	-0.929	0.042	0.859437	-1.0886202	-2.9220858	85.62284352	-1.8621135	-22.96415664
2.24	224	-0.069	-0.935	0.061	1.7761698	-1.0886202	-3.6096354	85.64576184	-1.82200644	-22.9756158
2.25	225	-0.063	-0.933	0.085	3.3804522	-1.5469866	-4.1252976	85.74889428	-1.79908812	-22.99280454
2.26	226	-0.051	-0.933	0.107	4.7555514	-1.718874	-4.4117766	85.8004605	-1.75325148	-23.01572286
2.27	227	-0.027	-0.937	0.109	6.2452422	-1.6615782	-4.7555514	85.86348588	-1.70741484	-23.0329116
2.28	228	-0.019	-0.955	0.094	8.0787078	-3.0366774	-4.8128472	85.9437	-1.6615782	-23.06728908
2.29	229	-0.01	-0.96	0.088	9.3392154	-6.302538	-4.9847346	86.04110286	-1.61001198	-23.13031446
2.3	230	-0.012	-0.949	0.108	10.2559482	-9.5111028	-5.3858052	86.18434236	-1.55844576	-23.22771732
2.31	231	-0.03	-0.936	0.131	11.8029348	-12.318597	-5.5003968	86.31039312	-1.50687954	-23.35376808
2.32	232	-0.056	-0.922	0.145	14.0947668	-14.896908	-5.2139178	86.4593622	-1.4610429	-23.50273716
2.33	233	-0.087	-0.922	0.158	16.9595568	-16.4438946	-4.583664	86.63697918	-1.42093584	-23.66889498
2.34	234	-0.111	-0.928	0.187	19.4232762	-15.5844576	-4.1825934	86.84324406	-1.38082878	-23.82359364
2.35	235	-0.12	-0.943	0.213	20.4546006	-12.2040054	-4.4690724	87.09534558	-1.35218088	-23.93818524
2.36	236	-0.113	-0.965	0.215	21.2567418	-7.3338624	-5.3285094	87.31306962	-1.30061466	-24.01266978
2.37	237	-0.095	-0.987	0.229	22.5172494	-2.1772404	-6.6463128	87.54225282	-1.2318597	-24.0355881
2.38	238	-0.088	-1.004	0.253	24.1788276	2.9793816	-8.9381448	87.78862476	-1.14018642	-24.0069402
2.39	239	-0.099	-1.039	0.262	25.0382646	8.8235532	-11.6310474	88.0349967	-1.01986524	-23.9209965
2.4	240	-0.119	-1.102	0.209	24.4080108	15.2406828	-13.178034	88.29855738	-0.89381448	-23.77202742
2.41	241	-0.134	-1.179	0.165	25.7258142	21.8869956	-11.9175264	88.5506589	-0.7734933	-23.55430338
2.42	242	-0.147	-1.254	0.116	26.5852512	30.4813656	-9.6829902	88.81421958	-0.67609044	-23.25063564
2.43	243	-0.152	-1.33	0.051	24.2934192	43.3729206	-9.2246238	89.04913236	-0.59014674	-22.82091714
2.44	244	-0.157	-1.381	-0.035	16.2720072	59.014674	-10.599723	89.20383102	-0.4870143	-22.23649998
2.45	245	-0.138	-1.378	-0.092	10.1986524	71.2186794	-11.172681	89.28404514	-0.38961144	-21.53176164
2.46	246	-0.111	-1.385	-0.173	7.5630456	72.9375534	-7.9068204	89.34707052	-0.32085648	-20.80983456
2.47	247	-0.079	-1.386	-0.277	2.4064236	72.1354122	-1.4896908	89.35852968	-0.32085648	-20.09936664
2.48	248	-0.027	-1.332	-0.323	-1.7761698	71.906229	7.2192708	89.32988178	-0.4010706	-19.38316914
2.49	249	0.022	-1.251	-0.31	-6.1879464	69.4998054	14.0947668	89.24966766	-0.55576926	-18.69561954
2.5	250	0.058	-1.154	-0.29	-11.2299768	65.1453246	15.8709366	89.10642816	-0.7161975	-18.05390658
2.51	251	0.076	-1.075	-0.336	-18.1054728	64.8588456	13.2353298	88.90589286	-0.859437	-17.41219362
2.52	252	0.072	-1.007	-0.406	-24.923673	65.2599162	8.880849	88.63087302	-0.95111028	-16.76475108
2.53	253	0.033	-0.962	-0.42	-27.1582092	58.6136034	5.5576926	88.33866444	-1.00840608	-16.19179308
2.54	254	-0.019	-0.974	-0.365	-24.4080108	47.555514	3.724227	88.07510376	-1.04851314	-15.72196752
2.55	255	-0.051	-1.018	-0.305	-21.0275586	35.8671708	2.1772404	87.82300224	-1.07143146	-15.36673356
2.56	256	-0.054	-1.06	-0.272	-18.7357266	25.3820394	-0.4010706	87.62246694	-1.06570188	-15.11463204
2.57	257	-0.035	-1.062	-0.248	-17.1314442	14.4958374	-4.3544808	87.44484996	-1.01986524	-14.97712212
2.58	258	-0.015	-1.037	-0.206	-14.3812458	3.2658606	-8.9381448	87.30161046	-0.93392154	-14.94847422
2.59	259	0.002	-1.019	-0.147	-11.8029348	-6.9327918	-12.6623718	87.18128928	-0.80787078	-15.02868834
2.6	260	0.039	-1.015	-0.094	-11.0007936	-14.8396122	-15.6417534	87.06669768	-0.64744254	-15.183387
2.61	261	0.085	-1.011	-0.054	-11.5164558	-20.7983754	-18.1054728	86.95210608	-0.47555514	-15.40111104
2.62	262	0.122	-0.998	-0.018	-12.0894138	-25.2674478	-19.8243468	86.83751448	-0.286479	-15.65894214
2.63	263	0.13	-0.979	0.005	-12.5477802	-26.4706596	-21.199446	86.71146372	-0.0859437	-15.93396198
2.64	264	0.124	-0.956	0.002	-11.5737516	-24.1788276	-22.345362	86.59687212	0.12032118	-16.1860635
2.65	265	0.096	-0.935	0.02	-9.9694692	-19.9962342	-23.491278	86.50519884	0.36096354	-16.39805796
2.66	266	0.055	-0.923	0.045	-7.5630456	-14.32395	-23.777757	86.4307143	0.59014674	-16.5584862
2.67	267	0.012	-0.928	0.055	-5.6722842	-10.5424272	-23.4339822	86.3734185	0.81932994	-16.67880738
2.68	268	-0.027	-0.93	0.05	-5.156622	-6.9327918	-22.2880662	86.3161227	1.03705398	-16.7590215
2.69	269	-0.045	-0.93	0.028	-4.4690724	-3.437748	-20.7410796	86.27028606	1.24331886	-16.80485814
2.7	270	-0.053	-0.946	0.006	-4.870143	-0.2291832	-19.5951636	86.230179	1.41520626	-16.82204688
2.71	271	-0.025	-0.965	0	-6.1306506	0.859437	-18.2773602	86.16715362	1.59855282	-16.82204688
2.72	272	0.018	-0.98	-0.017	-7.8495246	-0.286479	-16.4438946	86.0869395	1.75898106	-16.83923562
2.73	273	0.053	-0.989	-0.045	-8.880849	-0.9740286	-14.7250206	85.99526622	1.90795014	-16.85642436
2.74	274	0.065	-0.999	-0.054	-8.7089616	0.286479	-13.9801752	85.90932252	2.04546006	-16.86788352
2.75	275	0.064	-1.004	-0.058	-8.9381448	1.432395	-14.2666542	85.81764924	2.19442914	-16.86215394
2.76	276	0.068	-0.99	-0.045	-9.2246238	2.1772404	-14.3812458	85.72024638	2.33766864	-16.85069478
2.77	277	0.049	-0.977	-0.035	-9.453807	2.1772404	-14.037471	85.62284352	2.47517856	-16.83923562
2.78	278	0.037	-0.974	-0.041	-9.9694692	3.6096354	-13.6936962	85.52544066	2.61268848	-16.8163173
2.79	279	0.033	-0.98	-0.032	-9.2246238	6.302538	-13.178034	85.43376738	2.74446882	-16.76475108
2.8	280	0.035	-0.987	-0.005	-9.2819196	7.734933	-12.2613012	85.35355326	2.87051958	-16.69599612
2.81	281	0.044	-0.989	0.003	-10.4278356	6.4171296	-10.0840608	85.25042082	2.97365202	-16.6444299
2.82	282	0.047	-0.98	0.006	-10.599723	4.297185	-7.5057498	85.1415588	3.04813656	-16.61005242
2.83	283	0.028	-0.976	0.015	-9.453807	2.578311	-5.3285094	85.04415594	3.09970278	-16.5871341
2.84	284	0.008	-0.975	0.036	-8.1932994	2.4637194	-3.5523396	84.96394182	3.13980984	-16.56421578
2.85	285	-0.011	-0.975	0.054	-6.9900876	2.8074942	-2.005353	84.96394182	3.1226211	-16.53556788
2.86	286	-0.032	-0.977	0.061	-6.302538	3.4950438	-1.0313244	84.90091644	3.13408026	-16.5011904
2.87	287	-0.04	-0.982	0.055	-5.6149884	7.0473834	-0.286479	84.84362064	3.13980984	-16.43243544
2.88	288	-0.033	-0.983	0.048	-4.7555514	11.745639	0.5156622	84.797784	3.13980984	-16.31784384
2.89	289	-0.01	-0.979	0.055	-3.5523396	17.2460358	1.4896908	84.7691361	3.13408026	-16.14595644
2.9	290	0.03	-0.966	0.071	-1.9480572	19.194093	2.578311	84.797784	3.1226211	-15.95115072
2.91	291	0.075	-0.948	0.071	0.2291832	17.3033316	4.0680018	84.80351358	3.0939732	-15.77353374
2.92	292	0.095	-0.939	0.072	2.2345362	12.3758928	6.1306506	84.83216148	3.0366774	-15.64748298
2.93	293	0.102	-0.93	0.079	3.5523396	6.1879464	8.2505952	84.87226854	2.96219286	-15.57872802
2.94	294	0.103	-0.93	0.098	6.1879464	-1.7761698	9.9694692	84.93529392	2.86479	-15.59018718
2.95	295	0.092	-0.958	0.113	8.2505952	-11.5737516	11.0007936	85.04988552	2.75592798	-15.69331962
2.96	296	0.059	-1.009	0.082	8.6516658	-19.9389384	11.172681	85.13009964	2.6356068	-15.87666618
2.97	297	0.014	-1.026	0.027	9.5683986	-28.361421	11.0007936	85.22177292	2.50955604	-16.15168602
2.98	298	-0.012	-1.001	0.041	13.9801752	-34.7785506	10.7716104	85.35355326	2.38350528	-16.48400166
2.99	299	0	-0.94	0.037	17.8762896	-36.8411994	11.0007936	85.52544066	2.25745452	-16.83923562
3	300	0.035	-0.854	0.02	19.8816426	-38.4454818	11.1153852	85.72597596	2.13713334	-17.20592874
3.01	301	0.069	-0.779	-0.008	18.7930224	-40.9092012	13.0634424	85.90932252	1.98816426	-17.60126976
3.02	302	0.066	-0.735	-0.052	14.3812458	-48.5868384	16.7303736	86.04683244	1.8048177	-18.07109532
3.03	303	0.036	-0.721	-0.062	10.1986524	-53.4569814	20.1108258	86.1442353	1.58136408	-18.58102794
3.04	304	-0.009	-0.749	-0.022	8.9381448	-52.4829528	22.0015872	86.22444942	1.3464513	-19.08523098
3.05	305	-0.053	-0.79	-0.039	6.4171296	-45.7793442	21.4286292	86.2874748	1.11153852	-19.52640864
3.06	306	-0.103	-0.816	-0.055	4.297185	-41.3102718	17.18874	86.33331144	0.92246238	-19.92174966
3.07	307	-0.127	-0.827	-0.061	1.3750992	-37.7579322	11.9175264	86.3447706	0.79068204	-20.28844278
3.08	308	-0.1	-0.82	-0.113	0.2291832	-32.8304934	8.2505952	86.35050018	0.69900876	-20.60929926
3.09	309	-0.057	-0.797	-0.151	0.9167328	-29.6219286	7.448454	86.35622976	0.61306506	-20.89577826
3.1	310	-0.017	-0.76	-0.129	2.6929026	-27.8457588	8.2505952	86.37914808	0.52139178	-21.16506852
3.11	311	0.013	-0.709	-0.085	4.2398892	-28.1322378	8.9381448	86.41925514	0.42398892	-21.44008836
3.12	312	0.04	-0.655	-0.045	4.7555514	-29.8511118	8.7662574	86.47082136	0.32658606	-21.72656736
3.13	313	0.045	-0.614	-0.009	6.1879464	-31.226211	7.8495246	86.53957632	0.24064236	-22.0302351
3.14	314	0.028	-0.617	0.049	8.9954406	-30.0229992	7.6203414	86.6312496	0.15469866	-22.32244368
3.15	315	0.01	-0.64	0.073	11.9748222	-27.5592798	8.021412	86.76875952	0.06875496	-22.59173394
3.16	316	-0.019	-0.674	0.058	13.464513	-26.4133638	8.4797784	86.90626944	-0.01718874	-22.84383546
3.17	317	-0.06	-0.71	0.059	13.5791046	-24.1788276	8.4797784	87.04950894	-0.10886202	-23.07874824
3.18	318	-0.09	-0.74	0.051	14.32395	-19.3086846	8.307891	87.19847802	-0.19480572	-23.2620948
3.19	319	-0.099	-0.758	0.041	13.9801752	-15.183387	8.880849	87.34171752	-0.28074942	-23.41106388
3.2	320	-0.097	-0.771	0.009	14.610429	-12.8342592	10.8289062	87.49641618	-0.4010706	-23.53138506
3.21	321	-0.095	-0.767	-0.001	17.9908812	-9.9694692	14.32395	87.67976274	-0.5443101	-23.62305834
3.22	322	-0.11	-0.751	0.008	21.7151082	-7.6776372	17.9335854	87.90321636	-0.72192708	-23.68608372
3.23	323	-0.131	-0.729	0.029	26.642547	-5.156622	21.772404	88.1782362	-0.93965112	-23.72619078
3.24	324	-0.128	-0.711	0.067	31.9137606	-3.3231564	25.5539268	88.49909268	-1.18602306	-23.75483868
3.25	325	-0.114	-0.703	0.103	34.5493674	-2.578311	28.8770832	88.86005622	-1.47823164	-23.76629784
3.26	326	-0.111	-0.695	0.094	33.4607472	0.5156622	30.4240698	89.20383102	-1.78189938	-23.75483868
3.27	327	-0.123	-0.67	0.037	31.799169	4.5263682	30.8251404	89.5246875	-2.08556712	-23.70327246
3.28	328	-0.136	-0.643	-0.029	30.4240698	8.6516658	29.9657034	89.82835524	-2.38350528	-23.61159918
3.29	329	-0.161	-0.627	-0.119	23.5485738	11.5737516	26.8717302	90.06326802	-2.64706596	-23.49700758
3.3	330	-0.178	-0.608	-0.219	13.5791046	9.5111028	22.6891368	90.16640046	-2.8934379	-23.39960472
3.31	331	-0.217	-0.606	-0.271	2.4064236	5.0420304	17.6471064	90.18931878	-3.07105488	-23.3480385
3.32	332	-0.208	-0.595	-0.255	-9.167328	4.5263682	12.318597	90.09191592	-3.19137606	-23.30793144
3.33	333	-0.183	-0.573	-0.235	-23.2620948	10.4278356	7.448454	89.85127356	-3.27159018	-23.204799
3.34	334	-0.143	-0.543	-0.253	-39.9351726	17.18874	5.2139178	89.43301422	-3.33461556	-23.03864118
3.35	335	-0.069	-0.506	-0.25	-59.4157446	18.907614	4.0680018	88.79703084	-3.3804522	-22.85529462
3.36	336	-0.006	-0.492	-0.228	-76.489893	14.1520626	2.8074942	88.01207838	-3.41482968	-22.72351428
3.37	337	-0.046	-0.5	-0.208	-100.2103542	10.7143146	2.1772404	86.99221314	-3.44347758	-22.62611142
3.38	338	-0.161	-0.484	-0.202	-117.1126152	13.0061466	1.2605076	85.79473092	-3.46066632	-22.51151982
3.39	339	-0.253	-0.446	-0.188	-131.2646778	19.480572	-0.1145916	84.44827962	-3.46066632	-22.33390284
3.4	340	-0.289	-0.414	-0.154	-144.0416412	25.6112226	-1.4896908	82.9643184	-3.44920716	-22.09326048
3.41	341	-0.296	-0.407	-0.118	-155.9018718	27.501984	-2.4637194	81.360036	-3.41482968	-21.84688854
3.42	342	-0.26	-0.449	-0.122	-165.8140452	28.4187168	-4.010706	79.65835074	-3.3518043	-21.58905744
3.43	343	-0.191	-0.582	-0.271	-180.1379952	27.1009134	-6.8182002	77.81342598	-3.25440144	-21.35414466
3.44	344	-0.125	-0.893	-0.505	-201.1655538	28.6479	-9.5111028	75.75650676	-3.12835068	-21.11923188
3.45	345	-0.126	-1.223	-0.613	-240.1266978	30.5959572	-12.9488508	73.29851694	-2.95646328	-20.87858952
3.46	346	-0.176	-1.664	-0.559	-172.5176538	11.5737516	-20.5691922	71.54526546	-2.7501984	-20.84421204
3.47	347	-0.221	-2.679	0.201	-136.3067082	-1.145916	-18.6784308	70.16443668	-2.59549974	-20.92442616
3.48	348	-0.169	-2.505	0.185	-217.3229694	28.9916748	-14.4958374	67.94708922	-2.38923486	-20.72389086
3.49	349	-0.182	-2.369	-0.68	-225.9746352	32.8304934	-6.0733548	65.63806848	-2.24026578	-20.46033018
3.5	350	-0.107	-2.55	-1.094	-227.4070302	13.5218088	6.1306506	63.32331816	-2.26891368	-20.32854984
3.51	351	-0.076	-2.362	-0.878	-234.7981884	6.4171296	9.2246238	60.9340833	-2.35485738	-20.24260614
3.52	352	-0.012	-2.168	-1.083	-247.7470392	2.005353	5.72958	58.41879768	-2.42361234	-20.21395824
3.53	353	0.095	-2.082	-1.041	-255.3100848	-7.7922288	7.9068204	55.82902752	-2.56685184	-20.24833572
3.54	354	0.168	-2.009	-0.901	-265.7379204	-4.297185	9.3392154	53.13612492	-2.69863218	-20.24260614
3.55	355	0.236	-1.948	-0.859	-271.0664298	0.0572958	9.2819196	50.38592652	-2.8074942	-20.1967695
3.56	356	0.238	-1.901	-0.772	-272.2696416	-3.0939732	12.2040054	47.61853938	-2.95646328	-20.15093286
3.57	357	0.14	-1.764	-0.649	-274.9625442	-7.3338624	13.0061466	44.82823392	-3.13408026	-20.12228496
3.58	358	0.037	-1.547	-0.602	-275.306319	-6.2452422	10.4278356	42.03219888	-3.28877892	-20.09363706
3.59	359	-0.069	-1.304	-0.555	-270.6080634	-4.1252976	9.5683986	39.28773006	-3.42055926	-20.05353
3.6	360	-0.126	-1.101	-0.423	-265.566033	-3.0939732	5.5576926	36.60628662	-3.51796212	-20.03061168
3.61	361	-0.126	-0.985	-0.373	-258.8624244	0.1145916	-2.7501984	33.9764094	-3.53515086	-20.05353
3.62	362	-0.007	-0.897	-0.302	-256.2841134	-3.7815228	-6.9900876	31.38090966	-3.56379876	-20.13374412
3.63	363	0.066	-0.824	-0.164	-254.2214646	-9.6829902	-10.7143146	28.81405782	-3.62682414	-20.27125404
3.64	364	0.164	-0.711	-0.125	-250.669125	-11.9175264	-12.6623718	26.28158346	-3.70703826	-20.43741186
3.65	365	0.297	-0.695	-0.058	-248.090814	-8.8235532	-20.1108258	23.79494574	-3.724227	-20.6551359
3.66	366	0.412	-0.559	-0.004	-243.220671	-0.7448454	-22.631841	21.3426855	-3.67839036	-20.8556712
3.67	367	0.44	-0.396	0.079	-232.907427	-7.3911582	-19.3086846	18.98782812	-3.71276784	-21.0562065
3.68	368	0.36	-0.209	0.061	-222.4795914	-13.6936962	-12.6623718	16.74183276	-3.82735944	-21.21090516
3.69	369	0.105	-0.067	0.156	-203.7438648	-20.2827132	-6.7609044	14.68491354	-4.02789474	-21.32549676
3.7	370	-0.051	-0.026	0.201	-190.795014	-23.2620948	-3.8961144	12.76550424	-4.27426668	-21.41717004
3.71	371	-0.147	-0.013	0.169	-183.7476306	-23.2620948	0.1718874	10.90912032	-4.52063862	-21.4572771
3.72	372	-0.209	-0.019	0.185	-173.7208656	-22.0015872	4.4117766	9.14440968	-4.76128098	-21.44581794
3.73	373	-0.278	-0.059	0.178	-163.6368048	-23.204799	6.0733548	7.48856106	-5.01911208	-21.41717004
3.74	374	-0.223	-0.044	0.16	-148.6253052	-24.0069402	3.6669312	5.98168152	-5.27694318	-21.40571088
3.75	375	-0.219	0.027	0.103	-141.6925134	-24.5226024	5.7868758	4.53782736	-5.5576926	-21.36560382
3.76	376	-0.509	0.246	0.022	-132.4678896	-30.5959572	11.5737516	3.18564648	-5.88427866	-21.26820096
3.77	377	-1.029	0.514	0.034	-120.7222506	-25.5539268	15.9855282	1.9480572	-6.15356892	-21.11923188
3.78	378	-1.39	0.694	-0.008	-107.143146	0.9167328	6.8182002	0.85370742	-6.1592985	-21.03901776
3.79	379	-1.536	0.896	-0.194	-84.797784	44.2896534	-16.2147114	0	-5.72958	-21.18225726
3.8	380	-1.128	1.194	-0.55	-49.274388	75.057498	-41.1383844	-0.48128472	-5.00192334	-21.56613912
3.81	381	-0.452	1.319	-0.863	-13.2353298	91.386801	-54.6601932	-0.58441716	-4.10810886	-22.09326048
3.82	382	0.205	1.453	-0.941	0.1145916	112.1278806	-38.5027776	-0.57868758	-3.00229992	-22.4599536
3.83	383	0.416	1.517	-1.032	9.5683986	115.737516	-6.589017	-0.49274388	-1.85638392	-22.50579024
3.84	384	0.423	1.379	-1.252	26.6998428	101.5854534	15.8136408	-0.24064236	-0.84797784	-22.32817326
3.85	385	0.749	1.03	-1.394	54.2591226	70.3592424	31.226211	0.286479	-0.1432395	-22.00731678
3.86	386	0.882	0.669	-1.382	71.7916374	39.0184398	38.3308902	1.01413566	0.24064236	-21.61197576
3.87	387	0.741	0.35	-1.195	93.965112	17.18874	46.2950064	1.96524594	0.40680018	-21.15360936
3.88	388	0.476	0.181	-1.004	124.618365	15.4125702	47.3263308	3.2372127	0.55576926	-20.6837838
3.89	389	0.205	0.11	-0.893	137.9682864	31.6272816	41.4248634	4.63523022	0.85370742	-20.24833572
3.9	390	0.025	0.143	-0.809	131.3219736	49.9619376	35.1796212	5.9587632	1.32353298	-19.8529947
3.91	391	-0.174	0.211	-0.742	118.7741934	48.0138804	34.4347758	7.17343416	1.76471064	-19.4519241
3.92	392	-0.366	0.323	-0.694	100.2103542	33.0596766	39.820581	8.19902898	2.04546006	-19.01647602
3.93	393	-0.409	0.416	-0.671	86.1728832	34.091001	53.3423898	9.09284346	2.30902074	-18.43778844
3.94	394	-0.387	0.478	-0.819	89.7252228	38.8465524	63.598338	10.026765	2.58977016	-17.74450926
3.95	395	-0.311	0.441	-0.829	91.4440968	48.1857678	61.9940556	10.96068654	2.93927454	-17.0455005
3.96	396	-0.296	0.298	-0.723	70.3019466	69.9581718	47.4409224	11.69980236	3.52942128	-16.42670586
3.97	397	-0.298	0.056	-0.806	24.350715	86.9750244	27.5592798	11.96909262	4.31437374	-15.96260988
3.98	398	-0.107	-0.187	-1.362	-25.6685184	94.4807742	7.9641162	11.72272068	5.20245864	-15.66467172
3.99	399	0.192	-0.458	-2.251	-80.8443738	88.80849	-12.6623718	10.89766116	6.0733548	-15.5844576
4	400	0.548	-0.497	-3.117	-159.6260988	74.0834694	-21.0848544	9.25900128	6.80674104	-15.63029424
4.01	401	1.559	0.169	-3.302	-172.4030622	37.0703826	-14.896908	7.49429064	7.16770458	-15.70477878
4.02	402	1.227	0.799	-3.42	-165.584862	18.7357266	-6.5317212	5.80979412	7.33959198	-15.73342668
4.03	403	1.235	1.579	-3.996	-154.125702	28.5333084	-7.3911582	4.2398892	7.60315266	-15.76207458
4.04	404	1.068	1.133	-3.691	-129.5458038	29.1635622	-27.3300966	2.88770832	7.89536124	-16.00271694
4.05	405	0.659	0.543	-2.334	-148.5107136	43.3156248	-27.5592798	1.33499214	8.31935016	-16.23762972
4.06	406	0.285	0.241	-1.409	-130.1187618	37.1849742	-14.5531332	0	8.67458412	-16.3579509
4.07	407	0.183	0.04	-1.366	-108.5182452	19.480572	-4.297185	-1.11153852	8.8522011	-16.39232838
4.08	408	0.051	0.001	-1.287	-90.9284346	14.7250206	-0.0572958	-2.0340009	8.98971102	-16.38086922
4.09	409	-0.024	0.111	-1.112	-83.4226848	12.5477802	0.4010706	-2.88197874	9.10430262	-16.37513964
4.1	410	0.067	0.353	-1.005	-73.7969904	22.2880662	-1.718874	-3.6669312	9.3105675	-16.39805796
4.11	411	0.243	0.483	-0.862	-58.3844202	25.4393352	-0.3437748	-4.26280752	9.55693944	-16.40378754
4.12	412	0.355	0.569	-0.796	-48.5868384	25.7258142	-0.8021412	-4.76701056	9.80331138	-16.42097628
4.13	413	0.346	0.579	-0.703	-42.7426668	29.3927454	-1.2605076	-5.20818822	10.08979038	-16.44962418
4.14	414	0.307	0.546	-0.69	-36.382833	31.3980984	0.4583664	-5.58061092	10.39345812	-16.46108334
4.15	415	0.298	0.504	-0.706	-26.1841806	31.799169	5.2139178	-5.9014674	10.73150334	-16.43816502
4.16	416	0.259	0.416	-0.719	-16.615782	29.793816	10.1413566	-6.06189564	11.0294415	-16.3579509
4.17	417	0.186	0.314	-0.735	-5.72958	26.4706596	14.7823164	-6.09627312	11.31019092	-16.23190014
4.18	418	0.083	0.221	-0.724	-0.3437748	20.9702628	17.3606274	-6.0733548	11.53364454	-16.0714719
4.19	419	0.069	0.191	-0.739	2.7501984	18.2773602	18.3919518	-6.01032942	11.73417984	-15.8995845
4.2	420	0.064	0.173	-0.804	6.9327918	18.7357266	18.5065434	-5.92438572	11.9175264	-15.7276971
4.21	421	0.048	0.187	-0.867	10.886202	22.91832	17.1314442	-5.7868758	12.15816876	-15.57299844
4.22	422	0.083	0.216	-0.923	14.896908	29.6219286	15.183387	-5.60925882	12.46756608	-15.44694768
4.23	423	0.149	0.228	-0.978	16.8449652	34.5493674	13.3499214	-5.42018268	12.82280004	-15.33235608
4.24	424	0.213	0.238	-1.025	16.2720072	31.799169	12.032118	-5.23683612	13.1493861	-15.23495322
4.25	425	0.258	0.252	-1.055	15.0687954	27.215505	11.5164558	-5.08213746	13.43013552	-15.14327994
4.26	426	0.287	0.291	-1.086	14.4385416	26.4133638	10.1986524	-4.92170922	13.69942578	-15.05733624
4.27	427	0.346	0.322	-1.104	13.6936962	24.923673	7.448454	-4.77274014	13.95725688	-14.99431086
4.28	428	0.401	0.312	-1.102	10.7143146	21.3713334	3.6669312	-4.65814854	14.16925134	-14.97139254
4.29	429	0.435	0.26	-1.134	5.3858052	11.0007936	1.432395	-4.60085274	14.28384294	-14.95993338
4.3	430	0.413	0.19	-1.107	0.6875496	3.0366774	-0.1145916	-4.63523022	14.3525979	-14.97712212
4.31	431	0.368	0.125	-1.019	-4.1825934	0.9740286	-1.9480572	-4.68106686	14.35832748	-14.99431086
4.32	432	0.292	0.079	-0.969	-9.5111028	-2.9793816	-4.6982556	-4.78992888	14.32395	-15.0401475
4.33	433	0.22	0.039	-0.99	-15.756345	-4.297185	-9.167328	-4.97327544	14.27238378	-15.13182078
4.34	434	0.205	-0.008	-1.017	-22.4026578	7.3911582	-12.7196676	-5.23110654	14.33540916	-15.26360112
4.35	435	0.213	-0.028	-1.012	-28.7051958	21.6578124	-13.3499214	-5.55196302	14.5244853	-15.4125702
4.36	436	0.205	-0.003	-0.99	-31.5699858	31.9710564	-9.5111028	-5.90719698	14.82815304	-15.5271618
4.37	437	0.189	0.05	-0.975	-31.8564648	35.9817624	-0.9167328	-6.2452422	15.17765742	-15.56153928
4.38	438	0.169	0.131	-0.974	-31.226211	35.236917	9.2819196	-6.54890994	15.53289138	-15.4985139
4.39	439	0.154	0.221	-0.961	-28.8770832	30.366774	17.475219	-6.80674104	15.84801828	-15.34381524
4.4	440	0.177	0.278	-0.917	-23.7204612	24.1215318	19.9962342	-7.02446508	16.09439022	-15.16619826
4.41	441	0.181	0.282	-0.867	-16.329303	15.3552744	16.5011904	-7.15051584	16.26627762	-15.00577002
4.42	442	0.129	0.263	-0.814	-10.8289062	7.3338624	10.4851314	-7.23645954	16.34649174	-14.90836716
4.43	443	0.128	0.233	-0.802	-6.7609044	3.0939732	5.6722842	-7.28802576	16.3865988	-14.85107136
4.44	444	0.146	0.211	-0.834	-2.9793816	2.578311	3.4950438	-7.31094408	16.4152467	-14.81669388
4.45	445	0.161	0.187	-0.87	0.1145916	3.6669312	3.7815228	-7.3625103	16.37513964	-14.79377556
4.46	446	0.18	0.167	-0.901	2.4637194	4.0680018	5.8441716	-7.32240324	16.42097628	-14.73647976
4.47	447	0.202	0.143	-0.916	3.6669312	3.6669312	8.9381448	-7.25937786	16.4725425	-14.65053606
4.48	448	0.21	0.132	-0.929	3.3804522	4.6409598	11.8029348	-7.1906229	16.5298383	-14.53021488
4.49	449	0.224	0.126	-0.951	2.1772404	10.0840608	12.4331886	-7.13905668	16.6444299	-14.41562328
4.5	450	0.236	0.125	-0.954	0.6875496	17.0168526	11.3445684	-7.11040878	16.81058772	-14.31249084
4.51	451	0.247	0.111	-0.945	-0.859437	24.1215318	8.6516658	-7.1046792	17.06268924	-14.24946546
4.52	452	0.258	0.085	-0.974	-2.5210152	29.793816	5.5576926	-7.12759752	17.3606274	-14.22081756
4.53	453	0.288	0.054	-0.991	-4.297185	33.2888598	2.2345362	-7.17916374	17.69294304	-14.23227672
4.54	454	0.348	0.02	-0.991	-5.9587632	35.5806918	-1.2032118	-7.25937786	18.03671784	-14.27811336
4.55	455	0.418	0	-0.979	-8.4224826	35.4661002	-3.8961144	-7.35678072	18.39768138	-14.3525979
4.56	456	0.476	0.011	-0.977	-11.6883432	29.5646328	-4.3544808	-7.50002022	18.68416038	-14.42708244
4.57	457	0.449	0.049	-0.96	-15.0114996	15.9282324	-1.7761698	-7.66617804	18.83312946	-14.46145992
4.58	458	0.399	0.1	-0.906	-16.329303	6.5317212	1.2605076	-7.83233586	18.90188442	-14.45573034
4.59	459	0.327	0.127	-0.854	-16.3865988	-0.2291832	3.4950438	-7.98703452	18.90188442	-14.41562328
4.6	460	0.257	0.127	-0.817	-15.8709366	-2.578311	2.9220858	-8.14173318	18.86177736	-14.3812458
4.61	461	0.206	0.106	-0.815	-17.2460358	1.8907614	0	-8.31935016	18.8789661	-14.3812458
4.62	462	0.189	0.097	-0.866	-17.8189938	8.4224826	-3.724227	-8.51415588	18.95345064	-14.43281202
4.63	463	0.178	0.094	-0.917	-17.475219	14.896908	-7.161975	-8.72615034	19.08523098	-14.5244853
4.64	464	0.163	0.099	-0.939	-17.3606274	21.772404	-10.4851314	-8.94960396	19.28576628	-14.65626564
4.65	465	0.16	0.1	-0.926	-15.6417534	28.8197874	-11.6883432	-9.16159842	19.52067906	-14.81669388
4.66	466	0.198	0.104	-0.904	-13.8655836	32.2002396	-10.313244	-9.35640414	19.81861722	-14.96566296
4.67	467	0.259	0.123	-0.894	-12.1467096	34.1482968	-7.1046792	-9.52829154	20.1394737	-15.08598414
4.68	468	0.344	0.145	-0.881	-9.5111028	33.6899304	-3.3231564	-9.66007188	20.46605976	-15.17192784
4.69	469	0.422	0.172	-0.883	-7.6776372	31.226211	0.3437748	-9.75747474	20.7697275	-15.2120349
4.7	470	0.475	0.197	-0.897	-6.4744254	28.3041252	3.7815228	-9.84341844	21.07339524	-15.22349406
4.71	471	0.492	0.22	-0.918	-5.8441716	23.0902074	5.8441716	-9.89498466	21.3140376	-15.19484616
4.72	472	0.485	0.251	-0.951	-4.8128472	15.8709366	6.8182002	-9.92936214	21.48019542	-15.14900952
4.73	473	0.461	0.263	-0.945	-2.9220858	9.9121734	6.7036086	-9.9408213	21.58905744	-15.09171372
4.74	474	0.437	0.273	-0.952	-2.1199446	6.9900876	6.3598338	-9.9408213	21.66354198	-15.03441792
4.75	475	0.421	0.27	-0.974	-0.859437	4.583664	6.302538	-9.99238752	21.72083778	-14.99431086
4.76	476	0.409	0.262	-0.973	-0.5156622	3.0366774	6.4171296	-9.9694692	21.76094484	-14.93128548
4.77	477	0.404	0.255	-0.959	-0.8021412	1.5469866	6.589017	-9.95801004	21.78959274	-14.8682601
4.78	478	0.396	0.251	-0.943	-0.7448454	-0.6875496	6.7609044	-9.93509172	21.79532232	-14.79377556
4.79	479	0.382	0.25	-0.919	0	-4.010706	6.7609044	-9.90644382	21.76667442	-14.71929102
4.8	480	0.363	0.249	-0.896	0.286479	-6.1306506	6.1879464	-9.95801004	21.69791946	-14.6677248
4.81	481	0.331	0.25	-0.891	0.2291832	-7.448454	5.72958	-9.92363256	21.63489408	-14.59896984
4.82	482	0.301	0.252	-0.889	0.3437748	-6.7036086	5.3858052	-9.89498466	21.57759828	-14.53021488
4.83	483	0.282	0.255	-0.876	0	-4.583664	4.9274388	-9.87206634	21.5432208	-14.47291908
4.84	484	0.275	0.255	-0.872	-0.1718874	-2.5210152	4.3544808	-9.8548776	21.52603206	-14.42135286
4.85	485	0.277	0.25	-0.875	1.0313244	-0.8021412	3.9534102	-9.99238752	21.40571088	-14.42708244
4.86	486	0.288	0.238	-0.877	2.7501984	0.6875496	3.6669312	-9.95228046	21.42289962	-14.38697538
4.87	487	0.302	0.222	-0.88	4.4690724	1.3750992	3.2658606	-9.89498466	21.44008836	-14.35832748
4.88	488	0.317	0.202	-0.888	6.016059	0.859437	3.3231564	-9.82050012	21.4572771	-14.32395
4.89	489	0.326	0.19	-0.902	7.2192708	-0.7448454	3.437748	-9.73455642	21.4572771	-14.28384294
4.9	490	0.33	0.182	-0.909	7.9068204	-1.145916	3.2085648	-9.67726062	21.41717004	-14.26092462
4.91	491	0.338	0.176	-0.902	8.307891	-0.6302538	2.6929026	-9.57985776	21.41717004	-14.23227672
4.92	492	0.341	0.162	-0.901	8.2505952	0.2291832	2.005353	-9.48818448	21.42289962	-14.21508798
4.93	493	0.347	0.155	-0.909	7.6203414	0.4583664	1.5469866	-9.40797036	21.43435878	-14.19789924
4.94	494	0.348	0.151	-0.918	7.3911582	0.1718874	1.432395	-9.32202666	21.44008836	-14.1807105
4.95	495	0.354	0.143	-0.93	7.3911582	0	1.2605076	-9.2532717	21.41144046	-14.17498092
4.96	496	0.356	0.132	-0.948	6.9900876	0.1145916	1.0886202	-9.17878716	21.41717004	-14.16352176
4.97	497	0.36	0.119	-0.968	5.8441716	1.0313244	0.7448454	-9.11576178	21.4286292	-14.15779218
4.98	498	0.365	0.112	-0.982	4.3544808	2.005353	0.286479	-9.07565472	21.45154752	-14.15779218
4.99	499	0.371	0.109	-0.975	3.3804522	2.4064236	0	-9.04127724	21.47446584	-14.15779218
5	500	0.379	0.109	-0.957	2.0626488	2.5210152	-0.0572958	-8.98398144	21.49165458	-14.1520626
5.01	501	0.402	0.118	-0.962	0.9740286	3.0939732	-0.286479	-8.97825186	21.52030248	-14.15779218
5.02	502	0.407	0.141	-0.969	1.145916	1.0886202	-0.1718874	-8.9667927	21.53176164	-14.16352176
5.03	503	0.403	0.159	-0.927	1.0313244	-0.6302538	-0.4583664	-8.95533354	21.52603206	-14.16352176
5.04	504	0.401	0.179	-0.872	0.572958	0.859437	-1.9480572	-8.96106312	21.53176164	-14.18644008
5.05	505	0.406	0.183	-0.847	0.8021412	5.156622	-4.010706	-9.0240885	21.61197576	-14.26092462
5.06	506	0.406	0.187	-0.859	2.3491278	6.4171296	-5.0420304	-9.0240885	21.66927156	-14.31822042
5.07	507	0.394	0.186	-0.846	3.3804522	4.583664	-5.0993262	-9.01262934	21.70364904	-14.3812458
5.08	508	0.384	0.175	-0.841	4.1252976	2.6356068	-4.010706	-8.98971102	21.72656736	-14.42708244
5.09	509	0.384	0.151	-0.863	4.297185	1.3750992	-2.1772404	-8.95533354	21.73802652	-14.45573034
5.1	510	0.392	0.128	-0.892	4.1825934	-0.5156622	0.0572958	-8.91522648	21.75521526	-14.45573034
5.11	511	0.398	0.119	-0.905	3.7815228	-3.0939732	1.7761698	-8.86366026	21.73229694	-14.43281202
5.12	512	0.383	0.129	-0.905	3.0366774	-5.2712136	2.6929026	-8.8235532	21.68073072	-14.39843454
5.13	513	0.352	0.147	-0.914	2.2345362	-6.5317212	2.8074942	-8.78344614	21.62343492	-14.35832748
5.14	514	0.317	0.164	-0.927	2.1199446	-5.9014674	2.4637194	-8.74906866	21.56613912	-14.32395
5.15	515	0.289	0.177	-0.93	2.291832	-3.5523396	2.005353	-8.7949053	21.40571088	-14.31822042
5.16	516	0.279	0.186	-0.935	2.3491278	0.4583664	1.6615782	-8.7662574	21.41144046	-14.30103168
5.17	517	0.283	0.192	-0.947	2.578311	3.8961144	1.432395	-8.7376095	21.45154752	-14.28957252
5.18	518	0.298	0.197	-0.957	2.578311	5.5003968	1.432395	-8.7089616	21.50884332	-14.28384294
5.19	519	0.322	0.202	-0.959	2.6356068	5.5003968	1.2605076	-8.6803137	21.56613912	-14.27811336
5.2	520	0.354	0.205	-0.959	2.578311	4.1252976	1.0313244	-8.74333908	21.5718687	-14.30103168
5.21	521	0.375	0.203	-0.962	2.578311	0.7448454	0.7448454	-8.71469118	21.57759828	-14.2953021
5.22	522	0.386	0.202	-0.965	2.4064236	-2.4064236	0.6302538	-8.68604328	21.55467996	-14.28384294
5.23	523	0.387	0.197	-0.968	1.9480572	-5.2712136	0.1718874	-8.65739538	21.50311374	-14.27811336
5.24	524	0.377	0.194	-0.966	1.2032118	-7.7922288	-0.572958	-8.64593622	21.4286292	-14.27238378
5.25	525	0.359	0.195	-0.956	0.5156622	-9.740286	-1.4896908	-8.68604328	21.30830802	-14.28957252
5.26	526	0.342	0.198	-0.937	0.3437748	-9.7975818	-2.9220858	-8.68604328	21.20517558	-14.30676126
5.27	527	0.333	0.201	-0.914	0.572958	-8.021412	-4.4117766	-8.69177286	21.11923188	-14.34686832
5.28	528	0.332	0.202	-0.887	1.4896908	-5.72958	-5.9014674	-8.69750244	21.0562065	-14.39843454
5.29	529	0.34	0.195	-0.874	2.6929026	-3.6096354	-6.7609044	-8.69177286	21.01036986	-14.4671895
5.3	530	0.353	0.188	-0.873	3.6096354	-3.3231564	-6.875496	-8.72615034	20.9702628	-14.5531332
5.31	531	0.365	0.18	-0.877	4.2398892	-4.1252976	-6.302538	-8.70323202	20.91869658	-14.610429
5.32	532	0.372	0.169	-0.883	4.5263682	-5.443101	-5.443101	-8.67458412	20.8556712	-14.66199522
5.33	533	0.374	0.155	-0.892	4.8128472	-6.8182002	-4.3544808	-8.64020664	20.78691624	-14.70210228
5.34	534	0.367	0.143	-0.905	5.2712136	-8.1360036	-3.2085648	-8.59437	20.70097254	-14.7250206
5.35	535	0.351	0.134	-0.908	5.5576926	-8.880849	-2.2345362	-8.54853336	20.60356968	-14.74220934
5.36	536	0.325	0.131	-0.906	5.5576926	-8.59437	-1.718874	-8.49123756	20.51762598	-14.74793892
5.37	537	0.306	0.134	-0.907	5.6722842	-7.1046792	-1.3178034	-8.43394176	20.44887102	-14.7536685
5.38	538	0.298	0.139	-0.915	6.016059	-6.016059	-1.432395	-8.37664596	20.38584564	-14.76512766
5.39	539	0.297	0.142	-0.927	6.5317212	-4.8128472	-1.5469866	-8.31362058	20.33427942	-14.77085724
5.4	540	0.299	0.141	-0.935	7.0473834	-3.8388186	-1.6042824	-8.26205436	20.2540653	-14.78804598
5.41	541	0.303	0.135	-0.942	7.0473834	-3.151269	-1.4896908	-8.1932994	20.2254174	-14.80523472
5.42	542	0.315	0.129	-0.948	6.016059	-2.578311	-1.2032118	-8.1360036	20.1967695	-14.8109643
5.43	543	0.326	0.133	-0.953	4.6409598	-2.578311	-0.6875496	-8.09016696	20.1681216	-14.81669388
5.44	544	0.34	0.141	-0.956	3.2658606	-3.0939732	-0.5156622	-8.06151906	20.1394737	-14.82242346
5.45	545	0.349	0.151	-0.956	2.291832	-4.297185	-0.5156622	-8.0787078	20.0821779	-14.83388262
5.46	546	0.346	0.155	-0.95	2.1199446	-5.5576926	-0.6875496	-8.05578948	20.0248821	-14.83388262
5.47	547	0.338	0.156	-0.94	1.7761698	-6.302538	-1.0886202	-8.03860074	19.96185672	-14.8396122
5.48	548	0.328	0.154	-0.932	1.6042824	-6.4171296	-1.6615782	-8.021412	19.89883134	-14.85107136
5.49	549	0.319	0.151	-0.923	1.5469866	-5.9014674	-2.1772404	-8.01568242	19.83580596	-14.8682601
5.5	550	0.314	0.153	-0.918	1.5469866	-5.0420304	-2.4637194	-8.0500599	19.75559184	-14.896908
5.51	551	0.314	0.156	-0.912	2.005353	-4.5263682	-2.578311	-8.03287116	19.70402562	-14.91982632
5.52	552	0.317	0.159	-0.905	2.4637194	-3.8961144	-2.578311	-8.01568242	19.66391856	-14.94274464
5.53	553	0.326	0.161	-0.903	2.6929026	-2.86479	-2.2345362	-7.9927641	19.62954108	-14.96566296
5.54	554	0.327	0.165	-0.907	2.7501984	-2.5210152	-1.9480572	-7.97557536	19.60662276	-14.9828517
5.55	555	0.321	0.167	-0.908	2.86479	-2.4064236	-1.6615782	-8.021412	19.55505654	-15.02295876
5.56	556	0.315	0.165	-0.909	2.8074942	-2.5210152	-1.432395	-7.99849368	19.52640864	-15.03441792
5.57	557	0.31	0.165	-0.914	2.7501984	-2.578311	-1.2605076	-7.97557536	19.50349032	-15.04587708
5.58	558	0.307	0.159	-0.925	2.86479	-3.0366774	-0.8021412	-7.94692746	19.46911284	-15.05160666
5.59	559	0.304	0.153	-0.938	2.6356068	-3.151269	-0.4010706	-7.91827956	19.44046494	-15.05160666
5.6	560	0.303	0.151	-0.943	2.1199446	-3.0939732	-0.1718874	-7.9641162	19.3373325	-15.06306582
5.61	561	0.305	0.149	-0.945	1.718874	-3.0939732	0.1145916	-7.94119788	19.3086846	-15.05733624
5.62	562	0.306	0.147	-0.941	1.3750992	-3.3231564	0.286479	-7.92400914	19.27430712	-15.05160666
5.63	563	0.305	0.144	-0.935	0.9167328	-3.724227	0.286479	-7.91254998	19.23992964	-15.04587708
5.64	564	0.304	0.144	-0.933	0.9740286	-4.010706	0.1145916	-7.90109082	19.19982258	-15.0401475
5.65	565	0.305	0.146	-0.934	1.2605076	-4.4117766	0	-7.94119788	19.1081493	-15.04587708
5.66	566	0.304	0.146	-0.936	1.432395	-4.870143	-0.2291832	-7.92400914	19.06231266	-15.04587708
5.67	567	0.303	0.142	-0.937	1.6042824	-4.6409598	-0.4010706	-7.9068204	19.01647602	-15.04587708
5.68	568	0.306	0.141	-0.938	1.3750992	-3.8961144	-0.4583664	-7.88963166	18.97636896	-15.04587708
5.69	569	0.31	0.143	-0.938	0.9740286	-3.0939732	-0.4583664	-7.8781725	18.94199148	-15.04587708
5.7	570	0.316	0.147	-0.931	0.8021412	-2.7501984	-0.6875496	-7.95265704	18.88469568	-15.07452498
5.71	571	0.319	0.15	-0.926	0.859437	-2.5210152	-0.859437	-7.94692746	18.86177736	-15.08025456
5.72	572	0.319	0.153	-0.926	1.2032118	-2.578311	-0.9740286	-7.9354683	18.83312946	-15.08598414
5.73	573	0.315	0.152	-0.927	1.6615782	-2.8074942	-0.9167328	-7.91827956	18.80448156	-15.09171372
5.74	574	0.312	0.15	-0.932	2.0626488	-2.578311	-0.7448454	-7.90109082	18.77583366	-15.0974433
5.75	575	0.311	0.147	-0.935	2.1772404	-2.291832	-0.5156622	-7.94119788	18.71280828	-15.12036162
5.76	576	0.309	0.145	-0.935	1.8907614	-2.291832	-0.3437748	-7.92400914	18.68988996	-15.12036162
5.77	577	0.307	0.145	-0.935	1.8334656	-2.3491278	-0.1145916	-7.9068204	18.66697164	-15.12036162
5.78	578	0.306	0.148	-0.931	1.3750992	-2.005353	-0.1145916	-7.88963166	18.6497829	-15.12036162
5.79	579	0.306	0.151	-0.929	1.0313244	-1.8907614	-0.1718874	-7.8781725	18.62686458	-15.12036162
5.8	580	0.311	0.155	-0.927	1.145916	-1.9480572	-0.1718874	-7.9927641	18.56956878	-15.1547391
5.81	581	0.312	0.158	-0.932	1.145916	-2.0626488	-0.2291832	-7.98130494	18.55238004	-15.1547391
5.82	582	0.308	0.156	-0.934	1.2032118	-2.291832	-0.4010706	-7.9641162	18.52373214	-15.1547391
5.83	583	0.303	0.149	-0.934	0.9167328	-2.291832	-0.572958	-7.95838662	18.50081382	-15.16046868
5.84	584	0.303	0.145	-0.936	0.572958	-1.8334656	-0.7448454	-7.95265704	18.48362508	-15.16619826
5.85	585	0.301	0.145	-0.942	0.6302538	-2.005353	-0.7448454	-8.02714158	18.39768138	-15.19484616
5.86	586	0.299	0.148	-0.94	1.0313244	-2.3491278	-0.7448454	-8.01568242	18.37476306	-15.20057574
5.87	587	0.298	0.147	-0.935	1.2605076	-2.1772404	-0.6875496	-8.00422326	18.35184474	-15.20057574
5.88	588	0.295	0.145	-0.931	1.2605076	-1.8334656	-0.6875496	-7.9927641	18.334656	-15.20630532
5.89	589	0.295	0.143	-0.928	0.859437	-1.4896908	-0.7448454	-7.98703452	18.31746726	-15.2120349
5.9	590	0.296	0.142	-0.927	0.572958	-0.859437	-0.6875496	-8.11308528	18.2200644	-15.25214196
5.91	591	0.299	0.145	-0.93	0.6302538	-0.4010706	-0.6302538	-8.1073557	18.21433482	-15.26360112
5.92	592	0.299	0.146	-0.936	0.7448454	-0.3437748	-0.5156622	-8.10162612	18.20860524	-15.26360112
5.93	593	0.296	0.144	-0.938	0.9167328	-0.6875496	-0.4010706	-8.09016696	18.20287566	-15.2693307
5.94	594	0.294	0.14	-0.938	0.9740286	-0.6875496	-0.1145916	-8.08443738	18.19714608	-15.2693307
5.95	595	0.293	0.139	-0.936	0.8021412	-0.4010706	0	-8.28497268	17.98515162	-15.32089692
5.96	596	0.292	0.141	-0.935	0.5156622	-0.1145916	0.1145916	-8.2792431	17.98515162	-15.32089692
5.97	597	0.295	0.146	-0.936	0.3437748	0	0.1145916	-8.27351352	17.98515162	-15.31516734
5.98	598	0.298	0.149	-0.934	0.3437748	0.1145916	0.1145916	-8.26778394	17.98515162	-15.31516734
5.99	599	0.302	0.151	-0.934	0.4010706	0.1145916	0.2291832	-8.26778394	17.9908812	-15.31516734
6	600	0.302	0.149	-0.935	0.4583664	0.0572958	0.286479	-8.48550798	17.88774876	-15.36673356
6.01	601	0.303	0.149	-0.936	0.7448454	-0.1718874	0.4010706	-8.47404882	17.88774876	-15.36673356
6.02	602	0.302	0.147	-0.935	0.8021412	-0.3437748	0.5156622	-8.46831924	17.88774876	-15.36100398
6.03	603	0.298	0.145	-0.937	0.859437	-0.5156622	0.5156622	-8.45686008	17.88201918	-15.3552744
6.04	604	0.294	0.145	-0.933	0.859437	-0.6875496	0.5156622	-8.44540092	17.8762896	-15.34381524
6.05	605	0.292	0.144	-0.932	0.6875496	-0.3437748	0.3437748	-8.5657221	17.761698	-15.37246314
6.06	606	0.292	0.146	-0.934	0.5156622	0	0.286479	-8.55999252	17.761698	-15.37246314
6.07	607	0.295	0.147	-0.934	0.6875496	0.1718874	0.286479	-8.55426294	17.76742758	-15.36673356
6.08	608	0.302	0.148	-0.936	0.7448454	0.4010706	0.286479	-8.54280378	17.77315716	-15.36673356
6.09	609	0.302	0.149	-0.941	0.9167328	0.2291832	0.3437748	-8.53134462	17.77315716	-15.36100398
6.1	610	0.296	0.147	-0.933	0.6302538	0	0.1145916	-8.77198698	17.60126976	-15.42402936
6.11	611	0.293	0.148	-0.93	0.286479	0.4010706	-0.1718874	-8.77198698	17.60699934	-15.42402936
6.12	612	0.295	0.147	-0.932	0	0.4583664	-0.286479	-8.77198698	17.60699934	-15.42975894
6.13	613	0.294	0.149	-0.933	0	0.1718874	-0.4583664	-8.77198698	17.61272892	-15.43548852
6.14	614	0.293	0.146	-0.932	0.286479	0.0572958	-0.4583664	-8.77198698	17.61272892	-15.4412181
6.15	615	0.295	0.144	-0.931	0.5156622	0.286479	-0.5156622	-8.8522011	17.5611627	-15.46413642
6.16	616	0.299	0.143	-0.93	0.7448454	0.3437748	-0.5156622	-8.84647152	17.5611627	-15.47559558
6.17	617	0.297	0.138	-0.921	0.4010706	0.1145916	-0.4010706	-8.84647152	17.56689228	-15.47559558
6.18	618	0.295	0.133	-0.92	0	0.1718874	-0.4010706	-8.84647152	17.56689228	-15.48132516
6.19	619	0.297	0.137	-0.929	0.286479	0.286479	-0.286479	-8.84647152	17.56689228	-15.48705474
6.2	620	0.299	0.142	-0.932	0.6302538	0.3437748	-0.1718874	-8.93241522	17.52678522	-15.50997306
6.21	621	0.301	0.147	-0.934	0.6875496	0.4583664	-0.286479	-8.92668564	17.5325148	-15.51570264
6.22	622	0.3	0.147	-0.936	0.6302538	0.5156622	-0.286479	-8.92095606	17.53824438	-15.52143222
6.23	623	0.297	0.145	-0.933	0.3437748	0.7448454	-0.286479	-8.91522648	17.54397396	-15.52143222
6.24	624	0.292	0.143	-0.93	0.1145916	0.6302538	-0.1145916	-8.91522648	17.54970354	-15.5271618
6.25	625	0.29	0.144	-0.927	0.3437748	0.572958	-0.0572958	-9.00689976	17.46948942	-15.55008012
6.26	626	0.292	0.148	-0.931	0.6875496	0.8021412	0	-9.00117018	17.48094858	-15.55008012
6.27	627	0.294	0.152	-0.937	1.0313244	0.859437	-0.1145916	-8.98971102	17.48667816	-15.5558097
6.28	628	0.298	0.149	-0.938	0.9167328	0.7448454	-0.286479	-8.97825186	17.49240774	-15.56153928
6.29	629	0.3	0.146	-0.937	0.7448454	0.8021412	-0.4010706	-8.97252228	17.5038669	-15.56153928
6.3	630	0.299	0.145	-0.938	0.572958	0.9167328	-0.3437748	-9.0240885	17.46948942	-15.5844576
6.31	631	0.297	0.144	-0.936	0.1718874	0.6302538	-0.286479	-9.0240885	17.475219	-15.59018718
6.32	632	0.295	0.145	-0.936	0.1718874	0.8021412	-0.1718874	-9.0240885	17.48667816	-15.59018718
6.33	633	0.295	0.145	-0.939	0.1718874	0.9167328	-0.2291832	-9.0240885	17.49240774	-15.59591676
6.34	634	0.297	0.143	-0.937	0.2291832	0.9740286	-0.2291832	-9.01835892	17.5038669	-15.60164634
6.35	635	0.296	0.143	-0.936	0.0572958	0.6875496	-0.2291832	-9.1100322	17.43511194	-15.62456466
6.36	636	0.296	0.143	-0.936	0.0572958	0.3437748	-0.2291832	-9.1100322	17.43511194	-15.62456466
6.37	637	0.295	0.143	-0.934	0	0.2291832	-0.3437748	-9.1100322	17.44084152	-15.63029424
6.38	638	0.296	0.144	-0.932	-0.1718874	0.6875496	-0.4010706	-9.11576178	17.4465711	-15.63602382
6.39	639	0.299	0.147	-0.935	-0.4583664	1.0313244	-0.5156622	-9.12149136	17.45230068	-15.6417534
6.4	640	0.303	0.149	-0.938	-0.4010706	0.9740286	-0.4010706	-9.19024632	17.44084152	-15.66467172
6.41	641	0.304	0.149	-0.937	-0.1145916	0.9167328	-0.286479	-9.1959759	17.45230068	-15.6704013
6.42	642	0.303	0.147	-0.935	0	0.8021412	-0.286479	-9.1959759	17.45803026	-15.67613088
6.43	643	0.302	0.145	-0.934	0.1145916	0.9740286	-0.2291832	-9.1959759	17.46948942	-15.67613088
6.44	644	0.301	0.145	-0.935	0.2291832	1.145916	-0.2291832	-9.1959759	17.48094858	-15.68186046
6.45	645	0.303	0.144	-0.934	0.4010706	1.0886202	-0.286479	-9.23035338	17.475219	-15.6990492
6.46	646	0.306	0.145	-0.936	0.4583664	0.6302538	0	-9.2246238	17.48094858	-15.6990492
6.47	647	0.305	0.147	-0.939	0.6302538	0.4583664	0	-9.21889422	17.48667816	-15.6990492
6.48	648	0.302	0.144	-0.94	0.572958	0.2291832	0	-9.21316464	17.48667816	-15.6990492
6.49	649	0.299	0.141	-0.939	0.6302538	0	0.0572958	-9.20743506	17.48667816	-15.6990492
6.5	650	0.298	0.14	-0.938	0.572958	-0.1145916	0.1718874	-9.2532717	17.41219362	-15.71050836
6.51	651	0.299	0.14	-0.937	0.4583664	-0.0572958	0.2291832	-9.24754212	17.41219362	-15.70477878
6.52	652	0.3	0.142	-0.938	0.286479	-0.1145916	0.2291832	-9.24181254	17.41219362	-15.70477878
6.53	653	0.3	0.143	-0.936	0.286479	-0.3437748	0.1718874	-9.24181254	17.40646404	-15.6990492
6.54	654	0.3	0.142	-0.937	0.286479	-0.4583664	0.1718874	-9.23608296	17.40073446	-15.6990492
6.55	655	0.299	0.143	-0.936	0.286479	-0.4583664	0.1145916	-9.29910834	17.35489782	-15.71050836
6.56	656	0.298	0.145	-0.937	0.1718874	-0.6875496	0	-9.29910834	17.34916824	-15.71050836
6.57	657	0.296	0.146	-0.935	-0.1145916	-0.859437	-0.1718874	-9.29910834	17.33770908	-15.71050836
6.58	658	0.296	0.146	-0.933	-0.1145916	-0.6302538	-0.1718874	-9.30483792	17.3319795	-15.71623794
6.59	659	0.298	0.145	-0.934	-0.1145916	-0.2291832	-0.1718874	-9.30483792	17.32624992	-15.71623794
6.6	660	0.298	0.146	-0.934	-0.1145916	-0.0572958	-0.0572958	-9.53402112	17.17155126	-15.77353374
6.61	661	0.297	0.146	-0.934	-0.286479	0.1145916	0	-9.5397507	17.17155126	-15.77353374
6.62	662	0.298	0.144	-0.935	-0.1718874	-0.0572958	0.0572958	-9.5397507	17.17155126	-15.77353374
6.63	663	0.298	0.143	-0.937	0	-0.3437748	0.0572958	-9.5397507	17.16582168	-15.76780416
6.64	664	0.299	0.143	-0.937	0.2291832	-0.286479	0.286479	-9.5397507	17.1600921	-15.76780416
6.65	665	0.298	0.144	-0.943	0.1145916	-0.3437748	0.286479	-9.57412818	17.10852588	-15.77353374
6.66	666	0.296	0.145	-0.94	0.0572958	-0.5156622	0.1145916	-9.57412818	17.1027963	-15.76780416
6.67	667	0.296	0.145	-0.936	-0.286479	-0.1718874	0	-9.57985776	17.1027963	-15.76780416
6.68	668	0.298	0.144	-0.934	-0.572958	0.1145916	0	-9.58558734	17.1027963	-15.76780416
6.69	669	0.3	0.144	-0.937	-0.572958	0	0	-9.59131692	17.1027963	-15.76780416
6.7	670	0.303	0.145	-0.935	-0.572958	-0.0572958	0	-9.63142398	17.1027963	-15.77926332
6.71	671	0.303	0.145	-0.933	-0.5156622	0.1718874	-0.0572958	-9.63715356	17.1027963	-15.77926332
6.72	672	0.302	0.142	-0.931	-0.4010706	0.7448454	-0.2291832	-9.64288314	17.11425546	-15.7849929
6.73	673	0.301	0.138	-0.923	-0.859437	0.859437	-0.2291832	-9.6543423	17.11998504	-15.7849929
6.74	674	0.3	0.136	-0.92	-1.145916	1.145916	-0.1145916	-9.66580146	17.1314442	-15.79072248
6.75	675	0.3	0.137	-0.921	-1.0886202	1.3178034	-0.2291832	-9.6829902	17.14863294	-15.79645206
6.76	676	0.301	0.14	-0.925	-0.9740286	1.432395	-0.286479	-9.69444936	17.1600921	-15.80218164
6.77	677	0.3	0.143	-0.931	-0.6302538	1.3750992	-0.5156622	-9.70590852	17.17155126	-15.80791122
6.78	678	0.3	0.145	-0.942	-0.286479	1.2032118	-0.5156622	-9.7116381	17.18301042	-15.8136408
6.79	679	0.299	0.14	-0.946	0	0.6875496	-0.4010706	-9.7116381	17.18874	-15.81937038
6.8	680	0.301	0.138	-0.946	0.0572958	0.2291832	-0.1145916	-9.66580146	17.13717378	-15.80791122
6.81	681	0.302	0.139	-0.944	0	0.1145916	0.0572958	-9.66580146	17.13717378	-15.80791122
6.82	682	0.302	0.144	-0.942	-0.1718874	0.1145916	0.1145916	-9.67153104	17.13717378	-15.80791122
6.83	683	0.302	0.15	-0.941	-0.1145916	0	-0.0572958	-9.67153104	17.13717378	-15.80791122
6.84	684	0.304	0.149	-0.94	-0.1145916	0	-0.286479	-9.67153104	17.13717378	-15.8136408
6.85	685	0.305	0.146	-0.937	-0.286479	0.0572958	-0.4583664	-9.70017894	17.13717378	-15.82509996
6.86	686	0.305	0.144	-0.935	-0.5156622	0.1718874	-0.3437748	-9.70590852	17.13717378	-15.82509996
6.87	687	0.303	0.144	-0.934	-0.6302538	0.5156622	-0.2291832	-9.7116381	17.14290336	-15.83082954
6.88	688	0.303	0.146	-0.932	-0.4583664	0.3437748	-0.2291832	-9.71736768	17.14863294	-15.83082954
6.89	689	0.304	0.149	-0.936	-0.3437748	0.2291832	-0.2291832	-9.72309726	17.14863294	-15.83655912
6.9	690	0.306	0.15	-0.936	-0.0572958	0.2291832	-0.1718874	-9.8262297	17.1600921	-15.86520702
6.91	691	0.303	0.148	-0.937	0	0.1145916	-0.0572958	-9.8262297	17.1600921	-15.86520702
6.92	692	0.304	0.145	-0.936	-0.0572958	0.1145916	0	-9.83195928	17.1600921	-15.86520702
6.93	693	0.304	0.143	-0.933	-0.0572958	-0.0572958	0.1145916	-9.83195928	17.1600921	-15.86520702
6.94	694	0.301	0.143	-0.932	-0.2291832	-0.0572958	0.1145916	-9.83195928	17.1600921	-15.86520702
6.95	695	0.3	0.142	-0.931	-0.4583664	0.1145916	0.1145916	-9.84341844	17.15436252	-15.86520702
6.96	696	0.303	0.145	-0.932	-0.8021412	0.2291832	0	-9.8548776	17.1600921	-15.86520702
6.97	697	0.307	0.146	-0.937	-0.8021412	0.1718874	0	-9.86060718	17.1600921	-15.86520702
6.98	698	0.308	0.148	-0.938	-0.8021412	0	0.0572958	-9.87206634	17.1600921	-15.86520702
6.99	699	0.306	0.146	-0.936	-0.6875496	-0.1145916	0.0572958	-9.87779592	17.1600921	-15.85947744
7	700	0.304	0.145	-0.937	-0.4583664	-0.0572958	0.0572958	-9.88925508	17.15436252	-15.85947744
7.01	701	0.301	0.14	-0.938	-0.1718874	-0.2291832	0.1145916	-9.88925508	17.14863294	-15.85947744
7.02	702	0.299	0.138	-0.935	-0.1718874	-0.2291832	0	-9.88925508	17.14863294	-15.85947744
7.03	703	0.3	0.139	-0.935	-0.286479	0	0	-9.89498466	17.14863294	-15.85947744
7.04	704	0.302	0.143	-0.935	-0.286479	0.286479	0.1145916	-9.89498466	17.14863294	-15.85947744
7.05	705	0.306	0.144	-0.937	-0.1718874	0.4010706	0.0572958	-9.9121734	17.17155126	-15.85947744
7.06	706	0.308	0.146	-0.936	-0.286479	0.3437748	0	-9.9121734	17.17728084	-15.86520702
7.07	707	0.307	0.144	-0.937	-0.286479	0.286479	0	-9.91790298	17.17728084	-15.86520702
7.08	708	0.306	0.143	-0.937	-0.2291832	0.0572958	0	-9.91790298	17.17728084	-15.86520702
7.09	709	0.306	0.142	-0.933	-0.286479	0	0	-9.92363256	17.17728084	-15.86520702
7.1	710	0.304	0.143	-0.932	-0.3437748	-0.0572958	0	-9.92936214	17.17728084	-15.86520702
7.11	711	0.301	0.144	-0.932	-0.3437748	-0.3437748	0	-9.93509172	17.17155126	-15.86520702
7.12	712	0.299	0.146	-0.933	-0.2291832	-0.286479	0	-9.93509172	17.17155126	-15.86520702
7.13	713	0.301	0.145	-0.933	-0.0572958	-0.0572958	-0.0572958	-9.9408213	17.16582168	-15.86520702
7.14	714	0.304	0.146	-0.935	0	0.0572958	0	-9.9408213	17.16582168	-15.86520702
7.15	715	0.307	0.146	-0.937	-0.1145916	0.1145916	0	-9.95228046	17.17728084	-15.86520702
7.16	716	0.308	0.147	-0.936	-0.1145916	-0.1145916	0	-9.95228046	17.17155126	-15.86520702
7.17	717	0.307	0.144	-0.936	0	-0.286479	0.0572958	-9.95228046	17.17155126	-15.86520702
7.18	718	0.307	0.143	-0.934	0.0572958	-0.4583664	0.1145916	-9.95228046	17.16582168	-15.86520702
7.19	719	0.306	0.142	-0.934	0.0572958	-0.286479	0.1145916	-9.94655088	17.16582168	-15.85947744
7.2	720	0.305	0.145	-0.934	0	-0.3437748	0.1718874	-9.95801004	17.16582168	-15.85947744
7.21	721	0.306	0.144	-0.933	0	-0.4583664	0.1145916	-9.95801004	17.1600921	-15.85947744
7.22	722	0.305	0.146	-0.936	0	-0.572958	0.0572958	-9.95801004	17.15436252	-15.85947744
7.23	723	0.304	0.146	-0.937	0.1718874	-0.7448454	0.1145916	-9.95228046	17.14863294	-15.85374786
7.24	724	0.305	0.143	-0.936	0.286479	-0.5156622	0.1145916	-9.95228046	17.14290336	-15.85374786
7.25	725	0.305	0.142	-0.935	0.0572958	-0.3437748	0.1718874	-9.9408213	17.14290336	-15.84801828
7.26	726	0.305	0.142	-0.938	0	-0.4010706	0.1145916	-9.9408213	17.13717378	-15.84801828
7.27	727	0.305	0.145	-0.936	-0.0572958	-0.5156622	0	-9.9408213	17.1314442	-15.8422887
7.28	728	0.305	0.145	-0.935	-0.1718874	-0.286479	0	-9.94655088	17.1314442	-15.8422887
7.29	729	0.303	0.144	-0.936	-0.1718874	-0.3437748	0	-9.94655088	17.12571462	-15.8422887
7.3	730	0.3	0.143	-0.936	-0.1718874	-0.5156622	0	-9.94655088	17.1027963	-15.8422887
7.31	731	0.3	0.144	-0.934	-0.2291832	-0.4583664	-0.1718874	-9.95228046	17.1027963	-15.8422887
7.32	732	0.302	0.144	-0.937	-0.3437748	-0.1145916	-0.286479	-9.95228046	17.09706672	-15.84801828
7.33	733	0.304	0.143	-0.933	-0.3437748	-0.0572958	-0.1718874	-9.95801004	17.09706672	-15.84801828
7.34	734	0.304	0.141	-0.926	-0.5156622	-0.1718874	-0.1145916	-9.96373962	17.09706672	-15.84801828
7.35	735	0.303	0.139	-0.926	-0.4583664	-0.0572958	0	-9.95801004	17.10852588	-15.84801828
7.36	736	0.305	0.141	-0.928	-0.2291832	-0.0572958	0	-9.95801004	17.10852588	-15.84801828
7.37	737	0.306	0.144	-0.929	0	0	-0.0572958	-9.95801004	17.10852588	-15.84801828
7.38	738	0.305	0.145	-0.933	0	0.1718874	0	-9.95801004	17.10852588	-15.84801828
7.39	739	0.306	0.145	-0.938	0	0.1718874	0.1145916	-9.95801004	17.11425546	-15.84801828
7.4	740	0.309	0.145	-0.94	-0.0572958	0	0.1718874	-9.9408213	17.15436252	-15.8422887
7.41	741	0.31	0.143	-0.943	-0.1145916	-0.1145916	0.2291832	-9.9408213	17.15436252	-15.83655912
7.42	742	0.306	0.144	-0.942	-0.1145916	-0.572958	0.1718874	-9.9408213	17.14863294	-15.83655912
7.43	743	0.302	0.149	-0.94	-0.1718874	-0.7448454	0	-9.9408213	17.14290336	-15.83082954
7.44	744	0.302	0.15	-0.94	0	-0.7448454	0	-9.9408213	17.13717378	-15.83082954
7.45	745	0.303	0.148	-0.94	0.0572958	-0.572958	-0.1145916	-9.95228046	17.11998504	-15.83655912
7.46	746	0.303	0.146	-0.938	0	-0.286479	-0.0572958	-9.95228046	17.11425546	-15.83655912
7.47	747	0.303	0.146	-0.939	0	-0.1145916	0	-9.95228046	17.11425546	-15.83655912
7.48	748	0.304	0.147	-0.937	-0.0572958	0.1718874	0	-9.95801004	17.11425546	-15.83655912
7.49	749	0.303	0.148	-0.937	-0.1145916	0.2291832	0	-9.95801004	17.11998504	-15.83655912
7.5	750	0.304	0.149	-0.939	0	0.2291832	0	-9.98092836	17.11425546	-15.8422887
7.51	751	0.307	0.147	-0.94	0.1145916	0	-0.0572958	-9.98092836	17.11425546	-15.84801828
7.52	752	0.308	0.145	-0.939	0.2291832	-0.4583664	0	-9.98092836	17.11425546	-15.8422887
7.53	753	0.31	0.142	-0.937	0.2291832	-0.6302538	0.2291832	-9.97519878	17.1027963	-15.8422887
7.54	754	0.307	0.141	-0.934	0.0572958	-0.7448454	0.286479	-9.97519878	17.09706672	-15.83655912
