TimeStamp(s)	FrameCounter	AccX	AccY	AccZ	GyrX	GyrY	GyrZ	EulerX	EulerY	EulerZ
0.01	1	-0.009	-1.006	0.017	0.0572958	-1.8334656	-0.1145916	90.82530216	-0.72192708	-40.27321782
0.02	2	-0.002	-1.005	0.018	-0.286479	-0.9740286	-0.5156622	90.81957258	-0.7161975	-40.28467698
0.03	3	0	-1.003	0.018	0	-1.2032118	-0.3437748	90.81957258	-0.71046792	-40.29613614
0.04	4	0.001	-1.002	0.019	0.1145916	-1.3750992	-0.1718874	90.81957258	-0.71046792	-40.31332488
0.05	5	0.001	-1.005	0.019	0.0572958	-1.5469866	-0.1145916	90.7851951	-0.65317212	-40.30186572
0.06	6	0	-1.008	0.019	-0.0572958	-1.7761698	-0.1145916	90.7851951	-0.65317212	-40.31905446
0.07	7	-0.003	-1.01	0.017	-0.3437748	-1.6615782	-0.1145916	90.7851951	-0.65317212	-40.3362432
0.08	8	-0.004	-1.009	0.016	-0.4010706	-1.5469866	-0.1718874	90.77946552	-0.64744254	-40.35343194
0.09	9	-0.009	-1.008	0.012	-0.3437748	-1.3178034	-0.1145916	90.77373594	-0.64744254	-40.3648911
0.1	10	-0.009	-1.006	0.009	-0.2291832	-0.8021412	-0.2291832	90.6706035	-0.60733548	-40.35916152
0.11	11	-0.006	-1.005	0.007	0	-0.5156622	-0.1718874	90.6706035	-0.60733548	-40.3648911
0.12	12	-0.003	-1.006	0.008	0	-0.572958	-0.0572958	90.6706035	-0.60733548	-40.37062068
0.13	13	0	-1.005	0.014	-0.0572958	-0.859437	-0.0572958	90.66487392	-0.60733548	-40.37635026
0.14	14	0.001	-1.006	0.018	0	-1.5469866	0	90.66487392	-0.60733548	-40.393539
0.15	15	0.001	-1.006	0.019	-0.1718874	-1.6615782	0.0572958	90.63049644	-0.56149884	-40.38780942
0.16	16	-0.001	-1.008	0.017	-0.3437748	-1.3178034	-0.0572958	90.63049644	-0.56149884	-40.40499816
0.17	17	-0.005	-1.009	0.016	-0.286479	-0.9740286	-0.1718874	90.62476686	-0.55576926	-40.41645732
0.18	18	-0.007	-1.007	0.015	-0.1718874	-0.6875496	-0.1718874	90.62476686	-0.55576926	-40.4221869
0.19	19	-0.007	-1.007	0.014	0	-0.4583664	-0.2291832	90.62476686	-0.55003968	-40.42791648
0.2	20	-0.006	-1.007	0.015	0.1145916	-0.4583664	-0.1718874	90.53882316	-0.4870143	-40.40499816
0.21	21	-0.003	-1.006	0.012	0.0572958	-0.5156622	-0.1145916	90.53882316	-0.4870143	-40.41072774
0.22	22	-0.003	-1.007	0.01	0.0572958	-0.6875496	-0.0572958	90.54455274	-0.4870143	-40.41645732
0.23	23	-0.004	-1.009	0.005	0	-1.0886202	0	90.54455274	-0.4870143	-40.42791648
0.24	24	-0.005	-1.008	0.005	0.0572958	-1.2605076	0	90.54455274	-0.4870143	-40.43937564
0.25	25	-0.003	-1.005	0.006	0.4583664	-1.3178034	0.0572958	90.4987161	-0.4583664	-40.43937564
0.26	26	-0.001	-1.006	0.007	0.5156622	-1.3750992	0.1145916	90.50444568	-0.4583664	-40.45656438
0.27	27	-0.001	-1.008	0.01	0.6302538	-1.2605076	0.1145916	90.51017526	-0.4583664	-40.46802354
0.28	28	0	-1.009	0.012	0.4583664	-1.2605076	0.0572958	90.51590484	-0.46409598	-40.4794827
0.29	29	0	-1.011	0.009	0.1718874	-1.432395	0	90.52163442	-0.4583664	-40.49667144
0.3	30	-0.003	-1.012	0.007	0.0572958	-1.5469866	-0.0572958	90.47579778	-0.44117766	-40.50240102
0.31	31	-0.005	-1.01	0.008	0.2291832	-1.432395	-0.0572958	90.48152736	-0.43544808	-40.51386018
0.32	32	-0.007	-1.01	0.005	0.3437748	-1.2605076	-0.0572958	90.48152736	-0.43544808	-40.53104892
0.33	33	-0.009	-1.011	0.002	0.3437748	-1.2032118	-0.0572958	90.48725694	-0.43544808	-40.54250808
0.34	34	-0.008	-1.011	0.003	0.1718874	-1.2032118	0	90.48725694	-0.43544808	-40.55396724
0.35	35	-0.006	-1.01	0.003	0	-0.9740286	0	90.40704282	-0.4010706	-40.54823766
0.36	36	-0.004	-1.007	0.003	-0.1718874	-1.0313244	0.0572958	90.40704282	-0.4010706	-40.55969682
0.37	37	-0.003	-1.006	0	-0.286479	-0.9167328	0.0572958	90.40131324	-0.4010706	-40.57115598
0.38	38	-0.005	-1.009	0	-0.4583664	-0.7448454	-0.0572958	90.39558366	-0.4010706	-40.57688556
0.39	39	-0.005	-1.01	-0.001	-0.5156622	-0.4583664	-0.2291832	90.38985408	-0.4010706	-40.58261514
0.4	40	-0.005	-1.011	-0.002	-0.5156622	-0.2291832	-0.286479	90.240885	-0.36096354	-40.57115598
0.41	41	-0.005	-1.009	-0.006	-0.6875496	-0.286479	-0.3437748	90.22942584	-0.36096354	-40.57688556
0.42	42	-0.004	-1.006	-0.005	-0.572958	-0.1145916	-0.2291832	90.22369626	-0.35523396	-40.57688556
0.43	43	-0.002	-1.005	-0.003	-0.3437748	0.8021412	-0.1145916	90.22369626	-0.35523396	-40.5654264
0.44	44	0.001	-1.005	-0.004	-0.1718874	0.6875496	0	90.21796668	-0.35523396	-40.55969682
0.45	45	0	-1.005	-0.004	-0.286479	0.6875496	0	90.1262934	-0.32085648	-40.5367785
0.46	46	0	-1.007	-0.007	-0.3437748	0.8021412	0.0572958	90.12056382	-0.32085648	-40.53104892
0.47	47	0	-1.01	-0.008	-0.286479	0.8021412	0	90.12056382	-0.32085648	-40.51958976
0.48	48	0.001	-1.009	-0.01	-0.0572958	0.8021412	-0.0572958	90.12056382	-0.32085648	-40.51386018
0.49	49	0.002	-1.009	-0.006	0	0.8021412	-0.1145916	90.12056382	-0.32085648	-40.5081306
0.5	50	0.003	-1.009	-0.001	-0.1718874	0.8021412	-0.0572958	90.03462012	-0.2578311	-40.47375312
0.51	51	0.003	-1.009	0	-0.3437748	0.6302538	0	90.03462012	-0.2578311	-40.46802354
0.52	52	0.006	-1.008	-0.002	-0.4010706	0.8021412	0	90.02889054	-0.2578311	-40.46229396
0.53	53	0.007	-1.009	-0.004	-0.572958	0.8021412	0.0572958	90.02316096	-0.2578311	-40.4508348
0.54	54	0.007	-1.009	-0.006	-0.6875496	0.6302538	0.0572958	90.0117018	-0.26356068	-40.44510522
0.55	55	0.004	-1.009	-0.006	-0.8021412	0.4010706	0.1718874	89.93721726	-0.2291832	-40.42791648
0.56	56	0.002	-1.008	-0.006	-0.6875496	0.286479	0.1145916	89.93148768	-0.2291832	-40.4221869
0.57	57	0.001	-1.008	-0.007	-0.7448454	0.1145916	0	89.9257581	-0.2291832	-40.4221869
0.58	58	0.001	-1.007	-0.005	-0.9167328	0.0572958	-0.1718874	89.91429894	-0.2291832	-40.4221869
0.59	59	0.002	-1.007	-0.008	-0.9167328	0.1718874	-0.286479	89.90283978	-0.22345362	-40.4221869
0.6	60	0.002	-1.008	-0.01	-0.7448454	0.4010706	-0.4010706	89.82262566	-0.18907614	-40.40499816
0.61	61	0.002	-1.009	-0.009	-0.6875496	0.859437	-0.4010706	89.81689608	-0.18334656	-40.393539
0.62	62	0.005	-1.007	-0.007	-0.6302538	1.145916	-0.1145916	89.8111665	-0.18334656	-40.38207984
0.63	63	0.006	-1.006	-0.006	-0.6875496	1.2605076	0.0572958	89.79970734	-0.18334656	-40.37062068
0.64	64	0.007	-1.009	-0.006	-0.8021412	1.0886202	0.1145916	89.79397776	-0.18334656	-40.35916152
0.65	65	0.009	-1.013	-0.007	-1.145916	1.0313244	0.2291832	89.74241154	-0.16042824	-40.3362432
0.66	66	0.009	-1.012	-0.009	-1.432395	0.7448454	0.1718874	89.7252228	-0.16042824	-40.33051362
0.67	67	0.009	-1.012	-0.009	-1.6042824	0.5156622	0.1145916	89.70803406	-0.16042824	-40.32478404
0.68	68	0.008	-1.012	-0.01	-1.7761698	0	0	89.69084532	-0.16042824	-40.32478404
0.69	69	0.006	-1.014	-0.015	-2.1199446	-0.2291832	-0.1145916	89.667927	-0.16042824	-40.33051362
0.7	70	0.005	-1.014	-0.018	-2.5210152	0.0572958	-0.1718874	89.60490162	-0.1432395	-40.31905446
0.71	71	0.004	-1.015	-0.021	-2.6356068	0.5156622	-0.2291832	89.57625372	-0.13750992	-40.31905446
0.72	72	0.003	-1.017	-0.021	-2.6929026	0.4010706	-0.2291832	89.54760582	-0.13750992	-40.31332488
0.73	73	0.004	-1.017	-0.021	-2.9793816	0.1718874	-0.2291832	89.51895792	-0.13750992	-40.31332488
0.74	74	0.004	-1.016	-0.02	-3.8388186	0.2291832	-0.286479	89.47885086	-0.13178034	-40.3075953
0.75	75	0.006	-1.014	-0.022	-4.6982556	0.6875496	-0.5156622	89.4100959	-0.12032118	-40.29613614
0.76	76	0.007	-1.012	-0.028	-4.870143	1.3178034	-0.5156622	89.35852968	-0.1145916	-40.28467698
0.77	77	0.01	-1.011	-0.035	-4.9274388	1.6615782	-0.4583664	89.30696346	-0.10886202	-40.26748824
0.78	78	0.013	-1.009	-0.038	-4.9847346	1.718874	-0.286479	89.25539724	-0.10886202	-40.25602908
0.79	79	0.016	-1.007	-0.042	-4.9847346	1.2605076	-0.0572958	89.20383102	-0.10886202	-40.23884034
0.8	80	0.016	-1.005	-0.043	-5.156622	0.6302538	0	89.1236169	-0.09167328	-40.22738118
0.81	81	0.014	-1.002	-0.04	-5.3285094	0.1145916	0	89.0663211	-0.09167328	-40.22738118
0.82	82	0.012	-1.002	-0.043	-5.2139178	-0.1145916	0	89.01475488	-0.09167328	-40.23311076
0.83	83	0.01	-1.005	-0.042	-5.156622	-0.286479	-0.2291832	88.96318866	-0.0859437	-40.23311076
0.84	84	0.01	-1.009	-0.039	-5.3858052	-0.4583664	-0.4010706	88.90589286	-0.0859437	-40.23884034
0.85	85	0.009	-1.011	-0.038	-5.5003968	-0.8021412	-0.5156622	88.83140832	-0.06875496	-40.24456992
0.86	86	0.009	-1.012	-0.039	-5.6722842	-1.0886202	-0.6302538	88.77411252	-0.06302538	-40.25602908
0.87	87	0.01	-1.014	-0.045	-6.016059	-1.2605076	-0.6302538	88.71108714	-0.0572958	-40.27321782
0.88	88	0.011	-1.013	-0.047	-6.5317212	-1.3750992	-0.7448454	88.64233218	-0.05156622	-40.28467698
0.89	89	0.011	-1.012	-0.049	-6.8182002	-1.2605076	-0.7448454	88.57357722	-0.04583664	-40.30186572
0.9	90	0.011	-1.006	-0.053	-6.875496	-1.0886202	-0.8021412	88.48190394	-0.0286479	-40.3075953
0.91	91	0.011	-0.998	-0.059	-6.016059	-0.7448454	-0.7448454	88.41887856	-0.01718874	-40.31905446
0.92	92	0.009	-0.994	-0.055	-5.0420304	-0.6875496	-0.859437	88.36731234	-0.01145916	-40.32478404
0.93	93	0.006	-0.999	-0.05	-4.4690724	-0.8021412	-0.8021412	88.3214757	-0.00572958	-40.3362432
0.94	94	0.006	-1.009	-0.048	-4.5263682	-0.9740286	-0.9167328	88.27563906	0	-40.34197278
0.95	95	0.009	-1.018	-0.053	-4.6982556	-1.0886202	-0.859437	88.20115452	0.01718874	-40.35343194
0.96	96	0.012	-1.024	-0.065	-4.9274388	-1.0886202	-0.8021412	88.1495883	0.02291832	-40.3648911
0.97	97	0.015	-1.02	-0.074	-5.5003968	-1.5469866	-0.4583664	88.0922925	0.0286479	-40.38207984
0.98	98	0.016	-1.013	-0.075	-6.1306506	-2.1199446	-0.2291832	88.0349967	0.03437748	-40.40499816
0.99	99	0.019	-1.008	-0.075	-6.9327918	-2.1772404	-0.1718874	87.96051216	0.03437748	-40.42791648
1	100	0.019	-0.998	-0.075	-7.3338624	-2.578311	-0.1145916	87.8631093	0.04583664	-40.4508348
1.01	101	0.016	-0.994	-0.071	-7.9641162	-3.0366774	-0.286479	87.78289518	0.04583664	-40.4794827
1.02	102	0.014	-0.992	-0.063	-8.1932994	-2.86479	-0.4583664	87.70268106	0.05156622	-40.5081306
1.03	103	0.012	-0.996	-0.059	-8.307891	-3.2658606	-0.6302538	87.61673736	0.0572958	-40.54250808
1.04	104	0.007	-0.994	-0.06	-8.8235532	-4.0680018	-1.0313244	87.52506408	0.06302538	-40.58834472
1.05	105	0.005	-0.994	-0.062	-9.2246238	-4.297185	-1.2605076	87.42193164	0.08021412	-40.62845178
1.06	106	0.005	-0.992	-0.064	-9.740286	-3.8388186	-1.5469866	87.32452878	0.09167328	-40.66855884
1.07	107	0.008	-0.988	-0.068	-9.7975818	-3.151269	-1.8334656	87.22712592	0.10886202	-40.70293632
1.08	108	0.012	-0.987	-0.066	-9.6829902	-2.7501984	-2.005353	87.12399348	0.12605076	-40.73158422
1.09	109	0.014	-0.986	-0.063	-9.3965112	-2.86479	-2.0626488	87.0323202	0.14896908	-40.76023212
1.1	110	0.012	-0.989	-0.063	-9.2819196	-3.6669312	-2.0626488	86.92918776	0.1718874	-40.80033918
1.11	111	0.007	-0.999	-0.061	-9.7975818	-4.1825934	-1.8907614	86.82605532	0.18907614	-40.84617582
1.12	112	0.002	-1.01	-0.057	-10.6570188	-4.0680018	-1.7761698	86.72292288	0.2005353	-40.88628288
1.13	113	0.001	-1.021	-0.057	-11.5737516	-3.437748	-1.6615782	86.6026017	0.21772404	-40.92066036
1.14	114	0.003	-1.027	-0.059	-13.2353298	-2.4637194	-1.5469866	86.47082136	0.2291832	-40.94930826
1.15	115	0.005	-1.032	-0.067	-15.183387	-2.005353	-1.3178034	86.31039312	0.24637194	-40.97222658
1.16	116	0.01	-1.033	-0.079	-16.615782	-1.4896908	-0.8021412	86.13850572	0.25210152	-40.98941532
1.17	117	0.014	-1.027	-0.099	-17.5898106	-1.3750992	0	85.96088874	0.24637194	-41.00660406
1.18	118	0.015	-1.015	-0.114	-18.621135	-1.6615782	0.9167328	85.7718126	0.23491278	-41.0237928
1.19	119	0.01	-0.991	-0.111	-18.621135	-2.4064236	1.6615782	85.58273646	0.21772404	-41.04671112
1.2	120	0.004	-0.976	-0.102	-17.7044022	-3.437748	2.1772404	85.39366032	0.19480572	-41.0810886
1.21	121	0	-0.975	-0.094	-18.1054728	-4.297185	2.291832	85.21031376	0.16615782	-41.12692524
1.22	122	0.005	-0.975	-0.09	-18.621135	-4.5263682	2.291832	85.02123762	0.13750992	-41.17276188
1.23	123	0.008	-0.984	-0.092	-19.8816426	-5.156622	2.2345362	84.82070232	0.10886202	-41.2243281
1.24	124	0.01	-0.993	-0.095	-21.7151082	-5.7868758	2.1772404	84.60297828	0.08021412	-41.2816239
1.25	125	0.008	-1.001	-0.1	-23.777757	-6.1879464	2.0626488	84.35660634	0.0572958	-41.3389197
1.26	126	0.007	-1.007	-0.11	-25.7258142	-6.9900876	2.005353	84.09877524	0.0286479	-41.41340424
1.27	127	0.003	-1.004	-0.129	-27.9030546	-8.0787078	1.8907614	83.81229624	0	-41.49361836
1.28	128	0.003	-0.989	-0.152	-29.6792244	-9.2819196	1.7761698	83.51435808	-0.02291832	-41.58529164
1.29	129	-0.001	-0.967	-0.178	-31.0543236	-10.7716104	1.6042824	83.19923118	-0.04583664	-41.69415366
1.3	130	-0.007	-0.943	-0.175	-31.51269	-12.3758928	1.2605076	82.87264512	-0.07448454	-41.81447484
1.31	131	-0.012	-0.917	-0.168	-31.5699858	-13.6364004	0.6875496	82.55751822	-0.09740286	-41.95198476
1.32	132	-0.009	-0.906	-0.156	-31.9710564	-14.896908	-0.1145916	82.23666174	-0.1145916	-42.10095384
1.33	133	-0.009	-0.906	-0.148	-32.8877892	-15.6990492	-1.2605076	81.9043461	-0.12605076	-42.26138208
1.34	134	-0.01	-0.921	-0.145	-33.9191136	-15.6417534	-2.578311	81.5605713	-0.12032118	-42.42181032
1.35	135	-0.017	-0.945	-0.144	-35.6379876	-15.5844576	-3.724227	81.19960776	-0.10886202	-42.58796814
1.36	136	-0.022	-0.961	-0.149	-38.5027776	-14.4385416	-4.8128472	80.80999632	-0.08021412	-42.73693722
1.37	137	-0.024	-0.968	-0.177	-41.7113424	-12.891555	-5.7868758	80.39173698	-0.04583664	-42.88017672
1.38	138	-0.025	-0.964	-0.193	-44.5761324	-10.9434978	-5.8441716	79.93910016	-0.01145916	-43.0004979
1.39	139	-0.029	-0.942	-0.188	-46.0658232	-9.167328	-5.0420304	79.4692746	0.01718874	-43.10363034
1.4	140	-0.035	-0.91	-0.199	-46.8679644	-7.7922288	-3.4950438	78.99371946	0.0286479	-43.19530362
1.41	141	-0.042	-0.874	-0.206	-46.8679644	-8.4797784	-2.0626488	78.51816432	0.03437748	-43.2869769
1.42	142	-0.04	-0.852	-0.183	-45.3782736	-10.2559482	-1.432395	78.05979792	0.02291832	-43.39010934
1.43	143	-0.018	-0.855	-0.18	-45.7220484	-8.307891	-2.1199446	77.59570194	0.02291832	-43.48178262
1.44	144	0.001	-0.878	-0.193	-46.8106686	-5.8441716	-3.437748	77.1201468	0.04010706	-43.55053758
1.45	145	0.019	-0.92	-0.203	-48.0138804	-4.4690724	-4.6982556	76.6331325	0.07448454	-43.60783338
1.46	146	0.025	-0.945	-0.202	-49.5035712	-3.5523396	-4.870143	76.12892946	0.10886202	-43.6593996
1.47	147	0.029	-0.956	-0.21	-51.1651494	-1.718874	-4.297185	75.61326726	0.1432395	-43.69377708
1.48	148	0.028	-0.945	-0.24	-53.4569814	-0.286479	-3.0939732	75.06895716	0.16615782	-43.70523624
1.49	149	0.022	-0.912	-0.231	-53.9153478	0.572958	-1.5469866	74.51891748	0.17761698	-43.71096582
1.5	150	0.014	-0.87	-0.227	-53.0559108	-0.6875496	0.6302538	73.98033696	0.16615782	-43.7166954
1.51	151	0.015	-0.836	-0.268	-53.4569814	-3.7815228	2.6929026	73.43602686	0.12605076	-43.75107288
1.52	152	0.01	-0.816	-0.273	-52.8267276	-7.9641162	4.3544808	72.90317592	0.0572958	-43.81982784
1.53	153	0.008	-0.817	-0.27	-51.56622	-9.9694692	4.9274388	72.38178414	-0.01718874	-43.90577154
1.54	154	0	-0.824	-0.278	-50.6494872	-10.7716104	4.3544808	71.86612194	-0.09740286	-43.99744482
1.55	155	-0.007	-0.827	-0.275	-49.0452048	-11.6310474	3.4950438	71.36764848	-0.16615782	-44.10057726
1.56	156	0.004	-0.835	-0.275	-48.0138804	-10.0840608	2.86479	70.88636376	-0.2291832	-44.19225054
1.57	157	0.024	-0.831	-0.251	-47.269035	-8.4797784	3.437748	70.40507904	-0.29220858	-44.26673508
1.58	158	0.04	-0.815	-0.246	-47.269035	-9.2246238	5.5576926	69.9295239	-0.37815228	-44.33549004
1.59	159	0.033	-0.785	-0.273	-47.4409224	-13.4072172	8.7662574	69.44823918	-0.50993262	-44.43862248
1.6	160	0.021	-0.758	-0.268	-47.269035	-17.1314442	11.745639	68.97268404	-0.68182002	-44.55894366
1.61	161	0.001	-0.727	-0.28	-46.5814854	-21.8869956	14.1520626	68.50285848	-0.8880849	-44.7193719
1.62	162	-0.006	-0.712	-0.291	-45.83664	-23.8350528	14.2093584	68.04449208	-1.10580894	-44.8912593
1.63	163	-0.022	-0.707	-0.277	-44.6334282	-23.9496444	12.7769634	67.59758484	-1.31207382	-45.06887628
1.64	164	-0.034	-0.718	-0.291	-43.1437374	-21.6578124	10.2559482	67.16786634	-1.4896908	-45.22930452
1.65	165	-0.042	-0.745	-0.323	-42.0551172	-18.2200644	7.8495246	66.74387742	-1.6329303	-45.37254402
1.66	166	-0.045	-0.784	-0.335	-40.8519054	-15.1260912	6.5317212	66.33707724	-1.75325148	-45.48713562
1.67	167	-0.029	-0.794	-0.337	-39.6486936	-7.8495246	6.3598338	65.93600664	-1.85065434	-45.53870184
1.68	168	-0.049	-0.786	-0.386	-36.3255372	-8.2505952	8.9381448	65.56931352	-1.96524594	-45.5788089
1.69	169	-0.072	-0.802	-0.402	-34.5493674	-12.3758928	11.4018642	65.22553872	-2.1199446	-45.64756386
1.7	170	-0.064	-0.828	-0.421	-34.4347758	-10.886202	11.8602306	64.87603434	-2.27464326	-45.69913008
1.71	171	-0.055	-0.839	-0.451	-33.5753388	-7.6776372	11.4018642	64.53798912	-2.41215318	-45.72777798
1.72	172	-0.041	-0.844	-0.49	-31.5699858	-6.589017	10.8289062	64.21713264	-2.54393352	-45.73923714
1.73	173	-0.029	-0.848	-0.494	-28.8197874	-8.1932994	11.0007936	63.92492406	-2.67571386	-45.76788504
1.74	174	-0.014	-0.838	-0.473	-27.0436176	-9.740286	11.172681	63.6556338	-2.81895336	-45.8079921
1.75	175	-0.007	-0.819	-0.466	-26.2987722	-10.7716104	10.886202	63.38634354	-2.96219286	-45.85955832
1.76	176	0.002	-0.812	-0.483	-25.210152	-11.3445684	10.1986524	63.13424202	-3.10543236	-45.91685412
1.77	177	-0.003	-0.823	-0.494	-23.9496444	-10.4851314	9.6829902	62.89359966	-3.2372127	-45.96842034
1.78	178	-0.016	-0.832	-0.496	-22.8610242	-8.8235532	9.5683986	62.66441646	-3.36326346	-46.00279782
1.79	179	-0.033	-0.832	-0.489	-21.8869956	-7.448454	9.6256944	62.44669242	-3.48358464	-46.03144572
1.8	180	-0.056	-0.802	-0.472	-18.3919518	-7.1046792	9.6829902	62.24615712	-3.60390582	-46.04863446
1.81	181	-0.088	-0.781	-0.507	-14.7823164	-5.0993262	9.6829902	62.09718804	-3.71276784	-46.04863446
1.82	182	-0.111	-0.774	-0.516	-12.3758928	-1.8907614	9.740286	61.97113728	-3.80444112	-46.01998656
1.83	183	-0.122	-0.78	-0.541	-9.5111028	-0.2291832	9.8548776	61.87373442	-3.8961144	-45.9798795
1.84	184	-0.109	-0.798	-0.57	-7.0473834	1.2605076	9.8548776	61.7935203	-3.97632852	-45.9225837
1.85	185	-0.092	-0.804	-0.558	-5.3858052	3.0939732	9.167328	61.70184702	-4.05081306	-45.84809916
1.86	186	-0.061	-0.787	-0.531	-2.86479	5.0420304	8.880849	61.66173996	-4.10237928	-45.76215546
1.87	187	-0.038	-0.773	-0.56	-0.1718874	7.0473834	8.8235532	61.6502808	-4.1539455	-45.65902302
1.88	188	-0.038	-0.772	-0.575	1.3178034	7.6203414	8.7662574	61.65601038	-4.19405256	-45.550161
1.89	189	-0.048	-0.77	-0.566	3.437748	7.8495246	8.7662574	61.68465828	-4.23415962	-45.4355694
1.9	190	-0.053	-0.777	-0.593	5.443101	9.2819196	8.4797784	61.69038786	-4.26280752	-45.30951864
1.91	191	-0.057	-0.75	-0.571	7.734933	10.6570188	7.2765666	61.75914282	-4.27999626	-45.18346788
1.92	192	-0.048	-0.716	-0.54	15.6990492	10.8289062	5.72958	61.9081119	-4.27999626	-45.05741712
1.93	193	-0.023	-0.709	-0.616	20.9702628	13.5791046	4.4117766	62.1086472	-4.25707794	-44.91417762
1.94	194	-0.014	-0.705	-0.604	27.2728008	14.4958374	4.1252976	62.37220788	-4.22270046	-44.76520854
1.95	195	-0.016	-0.72	-0.614	37.24227	13.3499214	5.2712136	62.7102531	-4.20551172	-44.61623946
1.96	196	-0.03	-0.734	-0.701	44.8626114	13.9801752	5.2712136	63.15143076	-4.18832298	-44.4615408
1.97	197	-0.061	-0.732	-0.617	55.2331512	15.5271618	4.2398892	63.70147044	-4.1539455	-44.30111256
1.98	198	-0.056	-0.748	-0.523	63.7129296	17.0741484	3.6096354	64.33172424	-4.10810886	-44.12349558
1.99	199	-0.024	-0.767	-0.519	69.7289886	16.1574156	4.1252976	65.02500342	-4.07373138	-43.95733776
2	200	-0.006	-0.786	-0.531	76.5471888	9.9121734	6.2452422	65.78130798	-4.07946096	-43.831287
2.01	201	-0.02	-0.742	-0.406	86.0582916	1.2032118	7.161975	66.65220414	-4.1252976	-43.78545036
2.02	202	0.005	-0.695	-0.365	97.1736768	2.005353	4.5263682	67.6376919	-4.14821592	-43.73961372
2.03	203	0.065	-0.711	-0.407	104.9659056	1.7761698	-0.0572958	68.6976642	-4.13102718	-43.7166954
2.04	204	0.094	-0.786	-0.24	109.0339074	-2.5210152	-3.5523396	69.80920272	-4.09092012	-43.7453433
2.05	205	0.098	-0.886	-0.21	112.3570638	-6.302538	-5.3858052	70.95511872	-4.0393539	-43.81409826
2.06	206	0.086	-1.007	-0.327	112.299768	-7.8495246	-6.7036086	72.10103472	-3.98778768	-43.90004196
2.07	207	0.027	-1.062	-0.298	112.2424722	-10.9434978	-7.5630456	73.2526803	-3.93049188	-44.01463356
2.08	208	-0.046	-1.068	-0.327	111.2111478	-11.2872726	-8.1360036	74.39286672	-3.8674665	-44.13495474
2.09	209	-0.099	-1.052	-0.388	109.721457	-10.0840608	-8.7662574	75.51013482	-3.79871154	-44.24381676
2.1	210	-0.119	-1.015	-0.395	108.9193158	-9.453807	-9.453807	76.62167334	-3.71849742	-44.35267878
2.11	211	-0.128	-0.967	-0.401	107.6588082	-9.9121734	-10.9434978	77.7217527	-3.61536498	-44.4615408
2.12	212	-0.132	-0.928	-0.429	106.9139628	-8.7089616	-12.9488508	78.8103729	-3.4950438	-44.55894366
2.13	213	-0.123	-0.884	-0.428	105.99723	-7.0473834	-14.2093584	79.89326352	-3.35753388	-44.64488736
2.14	214	-0.096	-0.838	-0.397	103.8772854	-6.5317212	-14.4385416	80.95323582	-3.21429438	-44.72510148
2.15	215	-0.047	-0.775	-0.402	100.840608	-5.7868758	-13.8655836	81.96737148	-3.07105488	-44.78812686
2.16	216	0.005	-0.709	-0.402	96.7726062	-6.1879464	-13.4072172	82.95285924	-2.93927454	-44.85688182
2.17	217	0.037	-0.654	-0.401	93.105675	-9.453807	-13.5791046	83.90396952	-2.80176462	-44.95428468
2.18	218	0.048	-0.631	-0.397	90.0689976	-11.9748222	-14.32395	84.8264319	-2.6642547	-45.08033544
2.19	219	0.045	-0.621	-0.376	87.4906866	-13.178034	-15.756345	85.72024638	-2.50382646	-45.21211578
2.2	220	0.028	-0.609	-0.349	83.9956428	-13.9228794	-17.3033316	86.56249464	-2.33193906	-45.3496257
2.21	221	0.006	-0.576	-0.323	80.0422326	-14.32395	-18.5065434	87.38182458	-2.14286292	-45.4928652
2.22	222	-0.001	-0.545	-0.29	76.6044846	-13.8655836	-19.3659804	88.16677704	-1.94232762	-45.63037512
2.23	223	0.017	-0.52	-0.248	73.2240324	-13.8082878	-20.5118964	88.91735202	-1.73606274	-45.76215546
2.24	224	0.048	-0.517	-0.255	68.75496	-15.3552744	-21.485925	89.62209036	-1.51260912	-45.90539496
2.25	225	0.071	-0.543	-0.288	63.4264506	-18.9649098	-22.058883	90.25807374	-1.27769634	-46.08301194
2.26	226	0.091	-0.554	-0.276	60.3324774	-23.3193906	-22.6891368	90.87686838	-1.03705398	-46.30646556
2.27	227	0.119	-0.572	-0.145	54.0299394	-29.6219286	-23.6058696	91.43263764	-0.78495246	-46.58721498
2.28	228	0.138	-0.569	-0.028	47.269035	-38.7892566	-25.0382646	91.92538152	-0.50993262	-46.95963768
2.29	229	0.106	-0.545	0.11	40.1643558	-44.2896534	-26.642547	92.33791128	-0.21772404	-47.37789702
2.3	230	0.078	-0.485	0.286	37.4141574	-43.0291458	-27.1009134	92.73898188	0.0859437	-47.7846972
2.31	231	0.086	-0.444	0.216	43.2010332	-43.3729206	-25.7258142	93.18015954	0.37815228	-48.19722696
2.32	232	0.117	-0.431	0.095	42.398892	-52.2537696	-24.6944898	93.60987804	0.67036086	-48.68997084
2.33	233	0.197	-0.481	0.092	40.966497	-61.6502808	-26.9863218	94.02813738	0.99694692	-49.274388
2.34	234	0.256	-0.567	0.066	36.1536498	-74.1407652	-30.1948866	94.38910092	1.3750992	-49.97339676
2.35	235	0.299	-0.58	-0.041	34.663959	-84.7404882	-30.9970278	94.72141656	1.78762896	-50.77553796
2.36	236	0.26	-0.628	-0.083	37.1849742	-92.1316464	-32.2002396	95.0823801	2.21161788	-51.64643412
2.37	237	0.177	-0.595	-0.095	37.5860448	-99.0644382	-33.4607472	95.43761406	2.65852512	-52.58608524
2.38	238	0.076	-0.522	-0.063	45.550161	-103.2470316	-34.3201842	95.86160298	3.13408026	-53.56011384
2.39	239	-0.049	-0.44	0.012	54.2018268	-96.3142398	-37.1276784	96.3715356	3.63255372	-54.4596579
2.4	240	-0.093	-0.347	0.018	59.4730404	-71.5051584	-42.8572584	96.93876402	4.1539455	-55.10137086
2.41	241	-0.137	-0.216	-0.021	63.4264506	-51.3943326	-46.5814854	97.55755866	4.69252602	-55.53681894
2.42	242	-0.224	-0.135	-0.084	72.5364828	-39.9351726	-47.0971476	98.26802658	5.22537696	-55.85767542
2.43	243	-0.324	-0.13	-0.112	82.6778394	-29.0489706	-44.5188366	99.0930861	5.71812084	-56.0639403
2.44	244	-0.361	-0.14	-0.134	93.7359288	-21.8869956	-41.6540466	100.0327372	6.17648724	-56.19572064
2.45	245	-0.29	-0.185	-0.111	105.0804972	-14.8396122	-41.1956802	101.0869799	6.60047616	-56.25301644
2.46	246	-0.125	-0.259	-0.036	113.2165008	-9.5683986	-42.2843004	102.2386255	7.04165382	-56.24155728
2.47	247	0.051	-0.304	0.081	119.748222	-7.6776372	-44.1750618	103.4590261	7.49429064	-56.20145022
2.48	248	0.151	-0.279	0.113	123.9881112	-7.5057498	-46.0658232	104.7252632	7.9641162	-56.14415442
2.49	249	0.196	-0.143	0.04	123.4151532	-0.9740286	-51.6808116	105.99723	8.46831924	-55.99518534
2.5	250	0.113	-0.127	0.161	137.6245116	1.718874	-55.4050386	107.429625	8.9954406	-55.80037962
2.51	251	-0.024	-0.185	0.388	159.0531408	7.7922288	-57.7541664	109.0912032	9.51683238	-55.5196302
2.52	252	0.025	-0.61	0.708	188.3885904	22.8610242	-53.285094	111.0679083	9.93509172	-55.09564128
2.53	253	0.198	-1.462	1.117	217.6094484	37.9298196	-31.6845774	113.3597403	10.0840608	-54.59716782
2.54	254	0.406	-1.988	1.565	242.5331214	43.3156248	-22.4026578	115.9036738	10.10124954	-54.07577604
2.55	255	0.493	-2.21	1.778	267.284907	54.2018268	-41.7686382	118.7340863	10.21584114	-53.3710377
2.56	256	0.59	-2.809	2.449	291.349143	82.4486562	-57.5249832	121.862437	10.2845961	-52.32825414
2.57	257	0.826	-3.957	3.153	301.2040206	86.9750244	-7.448454	125.0480835	9.8548776	-51.53184252
2.58	258	0.433	-3.258	3.445	317.4760278	59.8168152	22.8610242	128.3254033	9.29910834	-51.15369024
2.59	259	1.284	-2.082	3.413	666.5220414	48.128472	-55.863405	135.218088	9.38505204	-50.32863072
2.6	260	0.867	-0.548	3.068	532.85094	-6.2452422	-52.2537696	140.6955665	9.76320432	-49.89891222
2.61	261	0.587	-0.558	2.743	339.5922066	-17.475219	-38.7319608	144.1848807	10.12416786	-49.6468107
2.62	262	0.491	-0.725	2.013	235.4284422	3.6669312	-23.0329116	146.6199522	10.21011156	-49.40616834
2.63	263	0.172	-0.357	1.172	245.6270946	31.0543236	-13.9801752	149.1638857	10.00957626	-49.09104144
2.64	264	0.029	-0.286	0.733	199.102905	41.0810886	-13.2353298	151.2322641	9.70017894	-48.7587258
2.65	265	-0.025	-0.151	0.521	166.5015948	39.534102	-15.0687954	152.9740564	9.40224078	-48.42641016
2.66	266	0.031	-0.07	0.77	172.2884706	30.366774	-15.6417534	154.767415	9.18451674	-48.13993116
2.67	267	0.271	-0.112	1.103	170.455005	27.5592798	-16.5011904	156.5378552	8.98971102	-47.85918174
2.68	268	0.04	-0.107	1.091	170.5123008	32.7731976	-16.1001198	158.3082954	8.73187992	-47.57270274
2.69	269	0.225	-0.085	1.226	184.0341096	37.0703826	-20.340009	160.2162455	8.44540092	-47.23465752
2.7	270	0.319	-0.311	1.618	190.1074644	39.1903272	-21.5432208	162.1929506	8.12454444	-46.89088272
2.71	271	0.385	-0.281	1.737	169.7101596	38.101707	-19.480572	163.9519317	7.80368796	-46.58721498
2.72	272	0.306	-0.344	1.748	135.8483418	31.6845774	-11.9748222	165.3556788	7.51720896	-46.3809501
2.73	273	0.295	-0.327	1.688	114.3624168	28.1895336	-7.6776372	166.5302427	7.25364828	-46.23198102
2.74	274	0.177	-0.337	1.504	100.1530584	30.0229992	-5.2139178	167.5558375	6.96716928	-46.11165984
2.75	275	0.151	-0.213	1.457	91.100322	32.3148312	-7.1046792	168.4954886	6.65777196	-45.97414992
2.76	276	0.137	-0.316	1.5	84.7404882	32.6013102	-7.1046792	169.3663848	6.34264506	-45.84236958
2.77	277	0.12	-0.388	1.529	76.2607098	30.4240698	-4.4117766	170.1456077	6.0447069	-45.74496672
2.78	278	0.046	-0.326	1.486	70.9322004	30.1375908	-3.0366774	170.8675348	5.74676874	-45.6647526
2.79	279	0.268	-0.249	1.433	63.7702254	31.226211	-7.9068204	171.5264365	5.44883058	-45.54443142
2.8	280	0.125	-0.253	1.494	51.9672906	30.8251404	-9.0527364	172.0592874	5.15089242	-45.41265108
2.81	281	0.072	-0.284	1.356	37.7579322	34.8358464	-6.8182002	172.4431693	4.8128472	-45.30378906
2.82	282	0.111	-0.205	1.155	30.939732	41.539455	-4.583664	172.7640257	4.40604702	-45.21784536
2.83	283	0.136	-0.245	1.081	40.3362432	41.9405256	-3.6096354	173.1708259	3.99351726	-45.13763124
2.84	284	0.046	-0.241	1.031	55.6915176	41.0237928	-2.0626488	173.7323248	3.58671708	-45.07460586
2.85	285	0.054	-0.294	1.011	76.3180056	39.5913978	-3.2658606	174.5000885	3.18564648	-45.0058509
2.86	286	0.016	-0.245	0.98	105.4815678	36.096354	-7.9641162	175.5715199	2.82468294	-44.89698888
2.87	287	0.015	-0.195	0.991	114.5343042	35.0650296	-8.021412	176.7288951	2.46944898	-44.79385644
2.88	288	-0.022	-0.473	1.089	68.2392978	38.101707	-21.4286292	177.4279039	2.09702628	-44.56467324
2.89	289	0.059	-0.532	0.888	23.5485738	51.56622	-11.8029348	177.6628166	1.58709366	-44.43862248
2.9	290	0.015	0.125	0.607	24.0069402	38.0444112	2.6929026	177.8919998	1.20894138	-44.4615408
2.91	291	0	-0.192	0.808	26.5852512	20.5118964	5.8441716	178.1612901	1.0026765	-44.51310702
2.92	292	0.039	-0.016	0.755	-7.1046792	23.5485738	9.167328	178.0868056	0.76776372	-44.6047803
2.93	293	0.028	0.41	0.606	13.3499214	18.3919518	-0.9167328	178.2185859	0.58441716	-44.59332114
2.94	294	-0.032	0.108	0.685	-12.891555	10.2559482	-8.3651868	178.0868056	0.4870143	-44.51310702
2.95	295	-0.035	0.1	0.771	-10.2559482	11.172681	-11.0580894	177.972214	0.3724227	-44.404245
2.96	296	0.055	0.402	0.701	-0.3437748	8.7089616	-5.0420304	177.9664844	0.286479	-44.35267878
2.97	297	0.016	0.223	0.743	1.4896908	5.0993262	-0.6875496	177.9779435	0.23491278	-44.3469492
2.98	298	0.027	0.096	0.84	-6.2452422	-1.0313244	0.572958	177.9149182	0.24637194	-44.35267878
2.99	299	-0.014	0.077	0.89	-12.318597	-5.6149884	1.2605076	177.7888674	0.30366774	-44.36413794
3	300	0.042	0.033	0.949	-18.1054728	-10.2559482	0.5156622	177.61698	0.41252976	-44.3755971
3.01	301	-0.02	0.061	0.999	-22.1161788	-12.1467096	-0.0572958	177.3935264	0.53858052	-44.3755971
3.02	302	-0.004	0.037	1.086	-26.1268848	-12.5477802	-0.286479	177.1299657	0.66463128	-44.3755971
3.03	303	0.053	0.013	1.14	-28.4760126	-12.891555	0.1145916	176.8434867	0.79641162	-44.38705626
3.04	304	0.003	-0.059	1.194	-26.5279554	-14.7250206	1.0313244	176.5741964	0.93965112	-44.39851542
3.05	305	0.078	-0.087	1.188	-23.6631654	-14.1520626	1.8334656	176.3335541	1.08289062	-44.42716332
3.06	306	0.048	-0.173	1.158	-20.7410796	-12.891555	1.5469866	176.1272892	1.21467096	-44.45008164
3.07	307	0.036	-0.07	1.139	-14.32395	-10.6570188	1.145916	175.9783201	1.3178034	-44.46727038
3.08	308	0.051	-0.15	1.139	-12.6623718	-7.2192708	0.3437748	175.8522694	1.39228794	-44.47299996
3.09	309	0.026	-0.241	1.074	-9.6256944	-3.3804522	0	175.7548665	1.42666542	-44.47872954
3.1	310	0.046	-0.132	1.033	-3.6669312	2.6929026	-0.7448454	175.7319482	1.47823164	-44.45008164
3.11	311	0.037	-0.108	1.081	-2.4637194	6.2452422	-0.2291832	175.7033003	1.41520626	-44.44435206
3.12	312	0.059	-0.154	1.017	0.2291832	8.021412	-0.4583664	175.7090299	1.34072172	-44.43862248
3.13	313	0.066	-0.109	1.08	5.9587632	9.6829902	-0.0572958	175.7663257	1.24331886	-44.4328929
3.14	314	-0.005	0.005	1.049	3.9534102	15.5844576	-1.8334656	175.8064327	1.0886202	-44.404245
3.15	315	0.07	-0.192	1.05	1.5469866	19.2513888	-0.8021412	175.829351	0.92246238	-44.38132668
3.16	316	0.031	-0.136	0.994	-0.7448454	18.5065434	-3.3804522	175.8236215	0.7448454	-44.34121962
3.17	317	0.029	-0.078	0.977	2.5210152	17.18874	-1.2032118	175.8465398	0.572958	-44.3183013
3.18	318	0.023	-0.111	1.002	0.7448454	13.8655836	-0.859437	175.8522694	0.43544808	-44.30684214
3.19	319	0.071	-0.142	0.951	-4.5263682	11.9175264	-3.3804522	175.8064327	0.32085648	-44.26673508
3.2	320	0.004	-0.153	0.94	-0.5156622	11.745639	-1.2605076	175.7548665	0.21199446	-44.24381676
3.21	321	0.018	-0.115	0.975	-0.1145916	11.6883432	-1.0313244	175.7548665	0.09740286	-44.2323576
3.22	322	0.013	-0.141	0.937	-0.3437748	13.2926256	-3.5523396	175.7491369	-0.0286479	-44.18652096
3.23	323	0.015	-0.145	0.94	2.0626488	13.750992	-0.9740286	175.7663257	-0.16615782	-44.1750618
3.24	324	0.023	-0.13	0.937	1.3750992	15.4125702	-0.8021412	175.7777848	-0.3151269	-44.15787306
3.25	325	-0.017	0.024	0.95	3.9534102	18.5065434	-1.2605076	175.7720552	-0.4870143	-44.13495474
3.26	326	0.034	-0.308	0.977	-3.151269	20.4546006	-0.7448454	175.7376778	-0.6875496	-44.117766
3.27	327	-0.026	-0.156	0.921	-0.8021412	19.5951636	-0.6302538	175.7262186	-0.88235532	-44.10057726
3.28	328	-0.012	-0.133	0.967	0.9740286	14.5531332	-0.4583664	175.7376778	-1.02559482	-44.0891181
3.29	329	-0.016	-0.142	1.006	1.5469866	10.2559482	-0.4010706	175.7491369	-1.12872726	-44.07765894
3.3	330	-0.015	-0.131	1.029	1.6615782	4.583664	-0.2291832	175.6861115	-1.16310474	-44.07192936
3.31	331	-0.015	-0.122	1.034	1.2605076	-0.572958	0	175.6975707	-1.15737516	-44.07192936
3.32	332	-0.015	-0.114	1.028	0.9740286	-4.5263682	0.286479	175.7090299	-1.1172681	-44.07765894
3.33	333	-0.009	-0.113	1.023	0.6302538	-7.1046792	0.4010706	175.7147594	-1.04278356	-44.08338852
3.34	334	-0.012	-0.108	1.013	0.1145916	-8.59437	0.572958	175.720489	-0.96256944	-44.09484768
3.35	335	-0.009	-0.102	0.993	-0.4010706	-9.1100322	0.6302538	175.6918411	-0.86516658	-44.10057726
3.36	336	-0.006	-0.104	0.983	-1.2605076	-7.8495246	0.6302538	175.680382	-0.78495246	-44.11203642
3.37	337	-0.006	-0.103	0.978	-1.8334656	-5.443101	0.5156622	175.6631932	-0.73338624	-44.12349558
3.38	338	-0.004	-0.101	0.979	-2.2345362	-2.6929026	0.4010706	175.6402749	-0.70473834	-44.12349558
3.39	339	-0.003	-0.104	0.976	-2.578311	-0.286479	0.286479	175.611627	-0.70473834	-44.12922516
3.4	340	0	-0.102	0.979	-2.6356068	1.3750992	0.2291832	175.542872	-0.69900876	-44.12922516
3.41	341	-0.003	-0.106	0.991	-2.7501984	2.7501984	0.1718874	175.5142241	-0.72765666	-44.12922516
3.42	342	-0.005	-0.105	1.001	-2.5210152	4.297185	0.1145916	175.4855762	-0.76776372	-44.12922516
3.43	343	-0.006	-0.104	1.012	-2.1772404	5.2712136	0.1718874	175.4626579	-0.81932994	-44.12349558
3.44	344	-0.008	-0.105	1.019	-1.4896908	5.443101	0.1145916	175.4454692	-0.87662574	-44.12349558
3.45	345	-0.007	-0.107	1.027	-0.9167328	5.3285094	0.1718874	175.3996325	-0.9167328	-44.12349558
3.46	346	-0.008	-0.107	1.031	-0.1718874	4.6982556	0.2291832	175.3996325	-0.96256944	-44.12349558
3.47	347	-0.007	-0.105	1.035	0.4010706	4.0680018	0.2291832	175.3996325	-1.0026765	-44.12349558
3.48	348	-0.007	-0.104	1.041	1.145916	3.151269	0.286479	175.4168213	-1.03705398	-44.12349558
3.49	349	-0.006	-0.105	1.047	2.0626488	1.9480572	0.4010706	175.43401	-1.05424272	-44.12349558
3.5	350	-0.007	-0.105	1.048	2.578311	0.6302538	0.5156622	175.4168213	-1.03705398	-44.12349558
3.51	351	-0.006	-0.104	1.049	2.9220858	-0.5156622	0.6302538	175.4454692	-1.03705398	-44.12922516
3.52	352	-0.005	-0.108	1.044	3.2658606	-1.7761698	0.7448454	175.4798467	-1.01986524	-44.14068432
3.53	353	-0.007	-0.109	1.037	3.437748	-2.4637194	0.6875496	175.5142241	-0.99121734	-44.1464139
3.54	354	-0.006	-0.11	1.031	3.724227	-3.4950438	0.8021412	175.5543312	-0.96256944	-44.15787306
3.55	355	-0.006	-0.11	1.023	3.7815228	-4.6982556	0.7448454	175.5657904	-0.90527364	-44.16360264
3.56	356	-0.007	-0.111	1.009	3.7815228	-5.72958	0.8021412	175.6058974	-0.84797784	-44.1750618
3.57	357	-0.005	-0.111	0.997	3.9534102	-6.4171296	0.8021412	175.6460045	-0.78495246	-44.18652096
3.58	358	-0.003	-0.11	0.989	3.9534102	-6.7609044	0.8021412	175.6861115	-0.72192708	-44.19798012
3.59	359	-0.003	-0.11	0.988	4.010706	-6.9900876	0.7448454	175.7319482	-0.65317212	-44.20943928
3.6	360	-0.002	-0.11	0.998	3.9534102	-6.7609044	0.6875496	175.7434073	-0.57868758	-44.21516886
3.61	361	-0.001	-0.11	1.008	3.3804522	-6.0733548	0.6302538	175.7777848	-0.52139178	-44.22662802
3.62	362	0	-0.111	1.015	2.7501984	-6.016059	0.572958	175.8064327	-0.46409598	-44.2323576
3.63	363	0	-0.111	1.022	2.4064236	-5.5003968	0.6302538	175.8350806	-0.40680018	-44.24381676
3.64	364	0.002	-0.11	1.022	2.1199446	-4.4117766	0.5156622	175.8579989	-0.36669312	-44.24954634
3.65	365	0.002	-0.112	1.017	1.718874	-3.6096354	0.5156622	175.8236215	-0.3151269	-44.25527592
3.66	366	0.002	-0.112	1.011	1.2032118	-3.2658606	0.4583664	175.8350806	-0.286479	-44.2610055
3.67	367	0.003	-0.111	1.008	0.8021412	-2.8074942	0.572958	175.8408102	-0.2578311	-44.26673508
3.68	368	0.003	-0.112	1.008	0.4010706	-1.7761698	0.5156622	175.8465398	-0.24064236	-44.27246466
3.69	369	0.004	-0.11	1.005	0	-1.145916	0.4583664	175.8465398	-0.2291832	-44.27819424
3.7	370	0.005	-0.11	1.003	-0.1718874	-0.9740286	0.5156622	175.680382	-0.16615782	-44.27246466
3.71	371	0.004	-0.109	1.004	-0.3437748	-0.9167328	0.4583664	175.6746524	-0.16042824	-44.27819424
3.72	372	0.005	-0.109	1.004	-0.5156622	-0.7448454	0.4583664	175.6689228	-0.14896908	-44.28392382
3.73	373	0.005	-0.108	1.007	-0.572958	-0.4583664	0.5156622	175.6631932	-0.14896908	-44.2896534
3.74	374	0.004	-0.108	1.01	-0.6875496	-0.4010706	0.4010706	175.6574636	-0.1432395	-44.2896534
3.75	375	0.004	-0.108	1.009	-0.859437	-0.7448454	0.5156622	175.542872	-0.10313244	-44.2896534
3.76	376	0.005	-0.109	1.008	-0.9740286	-0.9740286	0.4583664	175.5371425	-0.09740286	-44.29538298
3.77	377	0.006	-0.108	1.009	-0.859437	-1.0886202	0.5156622	175.5256833	-0.0859437	-44.30111256
3.78	378	0.006	-0.109	1.009	-0.572958	-1.2032118	0.5156622	175.5199537	-0.07448454	-44.30684214
3.79	379	0.007	-0.11	1.01	-0.286479	-1.2605076	0.5156622	175.5199537	-0.0572958	-44.31257172
3.8	380	0.006	-0.108	1.015	0.1145916	-1.0313244	0.5156622	175.3881734	-0.00572958	-44.31257172
3.81	381	0.007	-0.109	1.022	0.3437748	-0.1145916	0.4583664	175.393903	-0.00572958	-44.3183013
3.82	382	0.007	-0.108	1.027	0.572958	0.6302538	0.4010706	175.3996325	-0.01145916	-44.3183013
3.83	383	0.007	-0.108	1.023	0.8021412	0.9740286	0.4010706	175.4053621	-0.02291832	-44.32403088
3.84	384	0.007	-0.109	1.021	0.8021412	1.2605076	0.4010706	175.4168213	-0.04010706	-44.32403088
3.85	385	0.007	-0.108	1.02	0.8021412	2.005353	0.286479	175.3652551	-0.03437748	-44.32403088
3.86	386	0.006	-0.107	1.021	0.859437	2.7501984	0.286479	175.3709846	-0.06302538	-44.32403088
3.87	387	0.005	-0.108	1.019	0.9167328	3.437748	0.286479	175.3824438	-0.09740286	-44.32403088
3.88	388	0.005	-0.108	1.016	0.8021412	3.7815228	0.2291832	175.3881734	-0.13750992	-44.32976046
3.89	389	0.005	-0.108	1.014	0.7448454	3.8388186	0.1718874	175.3996325	-0.17761698	-44.32976046
3.9	390	0.004	-0.108	1.01	0.7448454	4.010706	0.2291832	175.3595255	-0.2005353	-44.32403088
3.91	391	0.002	-0.109	1.01	0.7448454	4.0680018	0.2291832	175.3652551	-0.24637194	-44.32403088
3.92	392	0.001	-0.109	1.007	0.8021412	3.6669312	0.2291832	175.3767142	-0.28074942	-44.32403088
3.93	393	0	-0.109	1.005	0.7448454	3.5523396	0.2291832	175.3824438	-0.3151269	-44.32403088
3.94	394	0	-0.109	1.01	0.7448454	3.6669312	0.286479	175.3881734	-0.35523396	-44.32976046
3.95	395	-0.001	-0.108	1.014	0.7448454	3.4950438	0.2291832	175.3480663	-0.37815228	-44.32403088
3.96	396	0	-0.11	1.016	0.8021412	3.3804522	0.286479	175.3595255	-0.41252976	-44.32403088
3.97	397	-0.001	-0.111	1.017	0.8021412	3.4950438	0.286479	175.3652551	-0.44690724	-44.32976046
3.98	398	-0.001	-0.111	1.017	0.859437	3.5523396	0.286479	175.3767142	-0.48128472	-44.32976046
3.99	399	-0.002	-0.109	1.019	0.8021412	3.3231564	0.286479	175.3824438	-0.5156622	-44.32976046
4	400	-0.003	-0.11	1.02	0.9167328	3.151269	0.3437748	175.3423367	-0.53285094	-44.32976046
4.01	401	-0.003	-0.11	1.021	0.9167328	3.0939732	0.286479	175.3537959	-0.56722842	-44.32976046
4.02	402	-0.006	-0.11	1.019	0.9167328	2.6929026	0.286479	175.3595255	-0.59014674	-44.32976046
4.03	403	-0.005	-0.111	1.016	1.0313244	2.2345362	0.3437748	175.3709846	-0.61306506	-44.33549004
4.04	404	-0.006	-0.11	1.015	0.9740286	1.8907614	0.2291832	175.3824438	-0.63598338	-44.33549004
4.05	405	-0.005	-0.109	1.015	0.8021412	1.7761698	0.286479	175.3194184	-0.63598338	-44.33549004
4.06	406	-0.006	-0.109	1.012	0.8021412	1.6615782	0.3437748	175.325148	-0.65317212	-44.33549004
4.07	407	-0.006	-0.109	1.01	0.572958	1.8334656	0.286479	175.3308776	-0.67036086	-44.34121962
4.08	408	-0.006	-0.109	1.007	0.4010706	1.9480572	0.3437748	175.3366072	-0.6875496	-44.34121962
4.09	409	-0.006	-0.11	1.006	0.286479	1.7761698	0.286479	175.3366072	-0.71046792	-44.34121962
4.1	410	-0.006	-0.109	1.007	0.2291832	1.6615782	0.286479	175.2392043	-0.69900876	-44.33549004
4.11	411	-0.006	-0.11	1.006	0.1718874	1.3178034	0.3437748	175.2449339	-0.71046792	-44.34121962
4.12	412	-0.006	-0.11	1.005	0.2291832	1.2605076	0.286479	175.2449339	-0.72192708	-44.34121962
4.13	413	-0.006	-0.11	1.011	0.1718874	1.0886202	0.3437748	175.2449339	-0.73338624	-44.3469492
4.14	414	-0.007	-0.11	1.015	0.1145916	0.8021412	0.4010706	175.2506635	-0.7448454	-44.3469492
4.15	415	-0.007	-0.11	1.016	0	0.6302538	0.4010706	175.0558577	-0.69327918	-44.34121962
4.16	416	-0.007	-0.109	1.013	0.2291832	0.4583664	0.4010706	175.0558577	-0.69900876	-44.34121962
4.17	417	-0.007	-0.11	1.011	0.5156622	0.6875496	0.4010706	175.0615873	-0.71046792	-44.3469492
4.18	418	-0.006	-0.11	1.012	0.7448454	0.7448454	0.4010706	175.0730465	-0.7161975	-44.35267878
4.19	419	-0.008	-0.111	1.013	0.9167328	0.4583664	0.4010706	175.0787761	-0.72192708	-44.35267878
4.2	420	-0.009	-0.11	1.015	0.859437	-0.1145916	0.4010706	174.9871028	-0.69900876	-44.35267878
4.21	421	-0.007	-0.11	1.018	0.7448454	-0.6302538	0.4583664	174.9928324	-0.69327918	-44.35840836
4.22	422	-0.008	-0.11	1.017	0.7448454	-0.8021412	0.4010706	175.0042915	-0.6875496	-44.36413794
4.23	423	-0.006	-0.11	1.013	0.7448454	-0.7448454	0.4583664	175.0100211	-0.67609044	-44.36986752
4.24	424	-0.005	-0.112	1.009	0.6302538	-0.572958	0.4010706	175.0157507	-0.67036086	-44.36986752
4.25	425	-0.007	-0.11	1.01	0.6302538	-0.5156622	0.4010706	174.9183478	-0.64171296	-44.36986752
4.26	426	-0.006	-0.11	1.013	0.6302538	-0.5156622	0.4583664	174.9240774	-0.63598338	-44.3755971
4.27	427	-0.006	-0.109	1.01	0.859437	-0.3437748	0.4583664	174.9355366	-0.63598338	-44.38132668
4.28	428	-0.008	-0.109	1.01	0.859437	-0.1145916	0.4583664	174.9469957	-0.63598338	-44.38705626
4.29	429	-0.007	-0.11	1.013	0.8021412	0.0572958	0.4010706	174.9527253	-0.63598338	-44.38705626
4.3	430	-0.006	-0.111	1.012	0.6875496	0	0.4583664	174.8381337	-0.60733548	-44.38705626
4.31	431	-0.007	-0.11	1.011	0.7448454	-0.1718874	0.4010706	174.8438633	-0.60733548	-44.39278584
4.32	432	-0.006	-0.109	1.013	0.8021412	-0.4583664	0.4010706	174.8553224	-0.6016059	-44.39278584
4.33	433	-0.007	-0.109	1.014	0.859437	-0.859437	0.5156622	174.8667816	-0.59587632	-44.39851542
4.34	434	-0.006	-0.11	1.015	0.859437	-0.9740286	0.4010706	174.8725112	-0.58441716	-44.404245
4.35	435	-0.006	-0.11	1.014	0.859437	-0.859437	0.3437748	174.8152154	-0.55576926	-44.404245
4.36	436	-0.006	-0.109	1.012	1.0313244	-0.8021412	0.4583664	174.8266745	-0.55003968	-44.40997458
4.37	437	-0.005	-0.109	1.012	1.0886202	-0.6302538	0.4583664	174.8381337	-0.5443101	-44.41570416
4.38	438	-0.005	-0.109	1.014	1.2032118	-0.4583664	0.4010706	174.8495929	-0.53858052	-44.42143374
4.39	439	-0.007	-0.11	1.016	1.145916	-0.286479	0.4010706	174.861052	-0.53858052	-44.42716332
4.4	440	-0.006	-0.109	1.014	1.145916	-0.1718874	0.4583664	174.8037562	-0.52139178	-44.42716332
4.41	441	-0.005	-0.109	1.015	1.0313244	0	0.4583664	174.8152154	-0.52139178	-44.4328929
4.42	442	-0.005	-0.11	1.015	1.0313244	0.1718874	0.4583664	174.8266745	-0.52139178	-44.4328929
4.43	443	-0.005	-0.11	1.013	1.145916	0.2291832	0.4010706	174.8381337	-0.52712136	-44.43862248
4.44	444	-0.005	-0.11	1.012	1.2032118	0.1145916	0.4010706	174.8495929	-0.52712136	-44.44435206
4.45	445	-0.005	-0.11	1.014	1.2605076	0	0.4583664	174.7865675	-0.50993262	-44.44435206
4.46	446	-0.006	-0.11	1.015	1.145916	-0.0572958	0.4010706	174.7980266	-0.50993262	-44.45008164
4.47	447	-0.006	-0.11	1.015	1.0886202	-0.1718874	0.4010706	174.8094858	-0.50993262	-44.45008164
4.48	448	-0.006	-0.109	1.014	1.0313244	-0.1718874	0.4010706	174.820945	-0.50993262	-44.45581122
4.49	449	-0.006	-0.109	1.012	1.0886202	-0.2291832	0.4010706	174.8324041	-0.50993262	-44.4615408
4.5	450	-0.005	-0.109	1.014	1.2605076	0.0572958	0.4010706	174.7693787	-0.4870143	-44.4615408
4.51	451	-0.005	-0.109	1.012	1.0313244	0.4010706	0.3437748	174.7808379	-0.49274388	-44.4615408
4.52	452	-0.005	-0.109	1.013	1.0313244	0.4583664	0.3437748	174.7922971	-0.49847346	-44.46727038
4.53	453	-0.005	-0.109	1.012	1.145916	0.6302538	0.286479	174.8037562	-0.50420304	-44.46727038
4.54	454	-0.005	-0.109	1.013	1.0313244	0.572958	0.4010706	174.8152154	-0.50993262	-44.47299996
4.55	455	-0.006	-0.11	1.011	1.0886202	0.5156622	0.4010706	174.7636492	-0.50420304	-44.47299996
4.56	456	-0.005	-0.109	1.012	1.145916	0.5156622	0.4010706	174.7751083	-0.50993262	-44.47872954
4.57	457	-0.006	-0.109	1.011	1.0313244	0.5156622	0.3437748	174.7865675	-0.5156622	-44.47872954
4.58	458	-0.006	-0.108	1.011	1.0886202	0.4583664	0.3437748	174.7980266	-0.52139178	-44.48445912
4.59	459	-0.006	-0.108	1.013	1.145916	0.572958	0.3437748	174.8094858	-0.52712136	-44.48445912
4.6	460	-0.006	-0.108	1.014	1.145916	0.6302538	0.3437748	174.7693787	-0.5156622	-44.48445912
4.61	461	-0.007	-0.108	1.013	1.0313244	0.5156622	0.3437748	174.7751083	-0.52139178	-44.4901887
4.62	462	-0.006	-0.108	1.012	0.9740286	0.4583664	0.4010706	174.7865675	-0.52712136	-44.49591828
4.63	463	-0.007	-0.107	1.012	1.0313244	0.6302538	0.3437748	174.7980266	-0.53858052	-44.49591828
4.64	464	-0.007	-0.109	1.012	1.0886202	0.7448454	0.3437748	174.8094858	-0.5443101	-44.50164786
4.65	465	-0.008	-0.107	1.015	1.2032118	0.6302538	0.4010706	174.7693787	-0.5443101	-44.50164786
4.66	466	-0.007	-0.108	1.018	1.145916	0.572958	0.3437748	174.7808379	-0.55003968	-44.50164786
4.67	467	-0.007	-0.108	1.015	1.0886202	0.4583664	0.4010706	174.7922971	-0.55576926	-44.50737744
4.68	468	-0.007	-0.108	1.013	1.0313244	0.572958	0.4010706	174.8037562	-0.56149884	-44.51310702
4.69	469	-0.007	-0.108	1.012	1.0313244	0.572958	0.4583664	174.8152154	-0.56722842	-44.51310702
4.7	470	-0.007	-0.108	1.009	1.0886202	0.4583664	0.4010706	174.7636492	-0.56149884	-44.5188366
4.71	471	-0.008	-0.109	1.011	1.2605076	0.4583664	0.4583664	174.7751083	-0.56722842	-44.5188366
4.72	472	-0.008	-0.106	1.016	1.0886202	0.286479	0.4583664	174.7865675	-0.56722842	-44.52456618
4.73	473	-0.007	-0.107	1.015	0.9167328	0.1718874	0.4010706	174.7980266	-0.572958	-44.53029576
4.74	474	-0.008	-0.107	1.011	0.8021412	0.286479	0.4010706	174.8037562	-0.572958	-44.53029576
4.75	475	-0.008	-0.107	1.012	0.9740286	0.2291832	0.4010706	174.75219	-0.56722842	-44.53602534
4.76	476	-0.007	-0.107	1.009	1.145916	0.1718874	0.4010706	174.7636492	-0.56722842	-44.53602534
4.77	477	-0.006	-0.109	1.008	0.859437	0	0.2291832	174.7693787	-0.56722842	-44.54175492
4.78	478	-0.008	-0.108	1.012	0.4010706	-0.286479	0.0572958	174.7751083	-0.56149884	-44.54175492
4.79	479	-0.01	-0.108	1.019	0.3437748	-0.3437748	0.0572958	174.7808379	-0.56149884	-44.54175492
4.8	480	-0.009	-0.108	1.022	0	-0.4010706	0	174.5917618	-0.52139178	-44.53602534
4.81	481	-0.008	-0.108	1.02	-0.0572958	-0.2291832	0	174.5917618	-0.5156622	-44.53602534
4.82	482	-0.007	-0.108	1.014	-0.0572958	0	0	174.5860322	-0.5156622	-44.53602534
4.83	483	-0.007	-0.108	1.011	-0.0572958	0.1718874	0	174.5860322	-0.5156622	-44.53602534
4.84	484	-0.007	-0.108	1.01	-0.1145916	0.2291832	0	174.5860322	-0.52139178	-44.53602534
4.85	485	-0.007	-0.107	1.009	-0.1718874	0.286479	0	174.4313335	-0.49274388	-44.53029576
4.86	486	-0.007	-0.107	1.009	-0.1718874	0.4010706	0	174.4313335	-0.49847346	-44.53029576
4.87	487	-0.008	-0.106	1.011	-0.2291832	0.6302538	0	174.4256039	-0.50420304	-44.52456618
4.88	488	-0.008	-0.106	1.012	-0.1145916	0.3437748	0	174.4256039	-0.50420304	-44.52456618
4.89	489	-0.008	-0.107	1.012	-0.1145916	0.1145916	0.0572958	174.4256039	-0.50993262	-44.53029576
4.9	490	-0.009	-0.106	1.012	-0.0572958	-0.0572958	0	174.2537165	-0.4870143	-44.52456618
4.91	491	-0.009	-0.106	1.013	0	-0.286479	0	174.2537165	-0.48128472	-44.52456618
4.92	492	-0.009	-0.107	1.015	0	-0.4583664	0	174.2537165	-0.48128472	-44.52456618
4.93	493	-0.009	-0.106	1.015	-0.1145916	-0.6302538	0	174.2537165	-0.46982556	-44.52456618
4.94	494	-0.008	-0.106	1.017	-0.1145916	-0.6875496	0	174.247987	-0.46409598	-44.52456618
4.95	495	-0.009	-0.107	1.016	-0.0572958	-0.6875496	0	174.1964207	-0.45263682	-44.52456618
4.96	496	-0.008	-0.106	1.013	-0.0572958	-0.4583664	0	174.1964207	-0.44690724	-44.52456618
4.97	497	-0.009	-0.107	1.015	-0.0572958	-0.4583664	0	174.1964207	-0.44117766	-44.52456618
4.98	498	-0.009	-0.105	1.015	0	-0.4010706	0	174.1964207	-0.43544808	-44.52456618
4.99	499	-0.009	-0.106	1.013	-0.0572958	-0.4583664	0	174.1964207	-0.43544808	-44.52456618
5	500	-0.009	-0.106	1.013	-0.1145916	-0.286479	0	174.1276658	-0.41825934	-44.52456618
5.01	501	-0.008	-0.105	1.013	-0.0572958	-0.2291832	0	174.1276658	-0.41825934	-44.52456618
5.02	502	-0.008	-0.106	1.013	0	-0.2291832	0	174.1276658	-0.41252976	-44.52456618
5.03	503	-0.008	-0.106	1.009	0.0572958	-0.286479	0	174.1276658	-0.41252976	-44.52456618
5.04	504	-0.009	-0.106	1.013	0.1145916	-0.2291832	0	174.1276658	-0.40680018	-44.52456618
5.05	505	-0.009	-0.106	1.015	0.0572958	-0.2291832	0	174.0531812	-0.39534102	-44.52456618
5.06	506	-0.008	-0.106	1.017	0	-0.3437748	0	174.0531812	-0.38961144	-44.52456618
5.07	507	-0.008	-0.106	1.017	-0.0572958	-0.286479	0	174.0531812	-0.38961144	-44.52456618
5.08	508	-0.007	-0.106	1.015	-0.1718874	-0.1145916	0	174.0531812	-0.38961144	-44.52456618
5.09	509	-0.008	-0.106	1.015	-0.0572958	-0.1718874	0.0572958	174.0531812	-0.38388186	-44.52456618
5.1	510	-0.008	-0.106	1.014	-0.0572958	-0.1718874	0	173.961508	-0.36669312	-44.52456618
5.11	511	-0.008	-0.106	1.012	-0.0572958	-0.0572958	0.0572958	173.961508	-0.36669312	-44.52456618
5.12	512	-0.008	-0.106	1.013	-0.0572958	0	0	173.961508	-0.36669312	-44.52456618
5.13	513	-0.008	-0.105	1.012	0	0.1145916	0	173.961508	-0.36669312	-44.52456618
5.14	514	-0.008	-0.105	1.012	-0.1145916	0.286479	0	173.9557784	-0.36669312	-44.52456618
5.15	515	-0.009	-0.106	1.013	-0.0572958	0.2291832	0	173.9214009	-0.36669312	-44.52456618
5.16	516	-0.009	-0.106	1.014	0	0.3437748	0	173.9214009	-0.3724227	-44.5188366
5.17	517	-0.009	-0.105	1.013	0	0.4010706	0	173.9214009	-0.37815228	-44.5188366
5.18	518	-0.007	-0.106	1.013	0	0.4583664	0	173.9214009	-0.38388186	-44.5188366
5.19	519	-0.01	-0.105	1.015	0.1718874	0.4583664	-0.0572958	173.9214009	-0.38961144	-44.5188366
5.2	520	-0.008	-0.105	1.015	0.1718874	0.4583664	0	173.9042122	-0.39534102	-44.5188366
5.21	521	-0.009	-0.105	1.014	0.2291832	0.5156622	0	173.9099417	-0.4010706	-44.5188366
5.22	522	-0.01	-0.105	1.015	0.286479	0.5156622	0	173.9099417	-0.40680018	-44.5188366
5.23	523	-0.009	-0.104	1.015	0.3437748	0.4583664	0	173.9156713	-0.40680018	-44.5188366
5.24	524	-0.01	-0.104	1.014	0.3437748	0.3437748	0	173.9156713	-0.41252976	-44.5188366
5.25	525	-0.009	-0.105	1.012	0.1718874	0.1718874	0	173.8870234	-0.42398892	-44.5188366
5.26	526	-0.01	-0.105	1.012	0.1145916	0	0	173.892753	-0.42398892	-44.5188366
5.27	527	-0.01	-0.104	1.01	0	-0.0572958	0	173.892753	-0.42398892	-44.5188366
5.28	528	-0.01	-0.104	1.014	0	-0.1718874	0	173.892753	-0.42398892	-44.5188366
5.29	529	-0.01	-0.104	1.013	-0.0572958	-0.286479	-0.0572958	173.892753	-0.41825934	-44.5188366
5.3	530	-0.01	-0.105	1.012	-0.0572958	-0.286479	0	173.8583755	-0.41825934	-44.5188366
5.31	531	-0.01	-0.105	1.012	0.0572958	-0.286479	0	173.8583755	-0.41252976	-44.5188366
5.32	532	-0.009	-0.103	1.015	0.1145916	-0.1718874	0	173.8583755	-0.41252976	-44.5188366
5.33	533	-0.01	-0.104	1.018	0	0	0	173.8583755	-0.41252976	-44.5188366
5.34	534	-0.01	-0.103	1.017	-0.1718874	-0.286479	0	173.8583755	-0.40680018	-44.5188366
5.35	535	-0.011	-0.105	1.016	-0.2291832	-0.5156622	0	173.8411868	-0.40680018	-44.5188366
5.36	536	-0.009	-0.104	1.014	-0.1145916	-0.6302538	0	173.8411868	-0.4010706	-44.5188366
5.37	537	-0.009	-0.105	1.011	0.1718874	-0.859437	0	173.8469164	-0.38961144	-44.52456618
5.38	538	-0.009	-0.106	1.01	0.4583664	-0.9167328	-0.0572958	173.8469164	-0.37815228	-44.52456618
5.39	539	-0.01	-0.105	1.015	0.4010706	-0.9167328	0	173.8526459	-0.3724227	-44.52456618
5.4	540	-0.01	-0.105	1.02	0.0572958	-0.9167328	0	173.8469164	-0.36669312	-44.52456618
5.41	541	-0.009	-0.104	1.018	-0.1718874	-0.9740286	0	173.8469164	-0.35523396	-44.52456618
5.42	542	-0.008	-0.104	1.015	-0.286479	-0.8021412	0	173.8411868	-0.34950438	-44.52456618
5.43	543	-0.008	-0.105	1.011	-0.3437748	-0.6302538	0	173.8411868	-0.3437748	-44.52456618
5.44	544	-0.008	-0.104	1.01	-0.4010706	-0.572958	0	173.8354572	-0.33804522	-44.52456618
5.45	545	-0.009	-0.103	1.012	-0.4010706	-0.6302538	-0.0572958	173.823998	-0.33231564	-44.52456618
5.46	546	-0.008	-0.104	1.01	-0.4583664	-0.572958	-0.0572958	173.8182685	-0.32658606	-44.52456618
5.47	547	-0.008	-0.104	1.009	-0.4010706	-0.572958	0	173.8125389	-0.32085648	-44.52456618
5.48	548	-0.008	-0.103	1.011	-0.4010706	-0.5156622	0	173.8125389	-0.3151269	-44.52456618
5.49	549	-0.007	-0.103	1.015	-0.286479	-0.572958	0	173.8068093	-0.30939732	-44.53029576
5.5	550	-0.008	-0.103	1.015	-0.2291832	-0.4583664	0	173.7953501	-0.3151269	-44.53029576
5.51	551	-0.007	-0.103	1.016	-0.1145916	-0.2291832	0	173.7953501	-0.30939732	-44.53029576
5.52	552	-0.008	-0.104	1.017	-0.1718874	-0.2291832	0	173.7953501	-0.30939732	-44.53029576
5.53	553	-0.008	-0.103	1.015	-0.2291832	-0.1145916	0	173.7896206	-0.30366774	-44.53029576
5.54	554	-0.007	-0.104	1.015	-0.286479	0	0	173.7896206	-0.30366774	-44.53029576
5.55	555	-0.008	-0.102	1.015	-0.3437748	0.1718874	0	173.7896206	-0.30939732	-44.53029576
5.56	556	-0.007	-0.104	1.016	-0.286479	0.1718874	-0.0572958	173.783891	-0.3151269	-44.53029576
5.57	557	-0.008	-0.104	1.014	-0.286479	0.286479	-0.0572958	173.7781614	-0.3151269	-44.53029576
5.58	558	-0.008	-0.103	1.014	-0.2291832	0.4010706	-0.0572958	173.7781614	-0.32085648	-44.53029576
5.59	559	-0.008	-0.103	1.013	-0.1718874	0.286479	-0.0572958	173.7781614	-0.32085648	-44.52456618
5.6	560	-0.008	-0.103	1.013	-0.286479	0.2291832	0	173.7724318	-0.33804522	-44.53029576
5.61	561	-0.009	-0.103	1.015	-0.4010706	0.2291832	-0.0572958	173.7667022	-0.33804522	-44.53029576
5.62	562	-0.008	-0.104	1.015	-0.2291832	0.4583664	0	173.7667022	-0.3437748	-44.52456618
5.63	563	-0.008	-0.105	1.011	-0.0572958	0.6875496	0	173.7667022	-0.34950438	-44.52456618
5.64	564	-0.009	-0.103	1.013	0	0.9167328	-0.0572958	173.7609727	-0.36096354	-44.52456618
5.65	565	-0.009	-0.104	1.016	0.0572958	0.9167328	0	173.7609727	-0.3724227	-44.52456618
5.66	566	-0.009	-0.104	1.017	0.0572958	0.8021412	0	173.7609727	-0.37815228	-44.52456618
5.67	567	-0.009	-0.103	1.017	-0.1145916	0.859437	0	173.7609727	-0.38388186	-44.52456618
5.68	568	-0.009	-0.104	1.015	-0.1145916	0.6302538	0	173.7609727	-0.39534102	-44.52456618
5.69	569	-0.009	-0.104	1.014	-0.1145916	0.572958	-0.0572958	173.7552431	-0.4010706	-44.5188366
5.7	570	-0.009	-0.104	1.014	-0.1145916	0.4010706	-0.0572958	173.7552431	-0.4010706	-44.5188366
5.71	571	-0.009	-0.104	1.013	-0.1718874	0.286479	0	173.7495135	-0.4010706	-44.5188366
5.72	572	-0.009	-0.103	1.011	-0.1145916	0.3437748	0	173.7495135	-0.40680018	-44.5188366
5.73	573	-0.009	-0.102	1.011	-0.2291832	0.3437748	-0.0572958	173.7495135	-0.41252976	-44.5188366
5.74	574	-0.009	-0.103	1.012	-0.1718874	0.2291832	-0.0572958	173.7437839	-0.41252976	-44.5188366
5.75	575	-0.008	-0.103	1.013	-0.1718874	0	0	173.7323248	-0.40680018	-44.5188366
5.76	576	-0.009	-0.104	1.012	-0.1718874	0.0572958	-0.0572958	173.7323248	-0.40680018	-44.51310702
5.77	577	-0.009	-0.104	1.011	-0.1718874	0.0572958	0	173.7323248	-0.40680018	-44.51310702
5.78	578	-0.009	-0.103	1.012	-0.1145916	0.0572958	-0.0572958	173.7265952	-0.41252976	-44.51310702
5.79	579	-0.009	-0.103	1.015	-0.1145916	0	0	173.7265952	-0.41252976	-44.51310702
5.8	580	-0.01	-0.104	1.016	-0.1145916	0	0	173.7265952	-0.41252976	-44.51310702
5.81	581	-0.009	-0.104	1.016	0	-0.1718874	-0.0572958	173.7265952	-0.40680018	-44.51310702
5.82	582	-0.008	-0.104	1.017	-0.1145916	-0.1145916	0	173.7265952	-0.40680018	-44.51310702
5.83	583	-0.009	-0.103	1.015	-0.1718874	-0.286479	0	173.7265952	-0.40680018	-44.51310702
5.84	584	-0.009	-0.103	1.014	-0.1718874	-0.5156622	0	173.7208656	-0.4010706	-44.51310702
5.85	585	-0.009	-0.103	1.014	-0.1718874	-0.572958	0	173.7208656	-0.39534102	-44.51310702
