TimeStamp(s)	FrameCounter	AccX	AccY	AccZ	GyrX	GyrY	GyrZ	EulerX	EulerY	EulerZ
0.01	1	-0.091	-1.008	0.09	-6.7036086	2.005353	-0.859437	95.37458868	-3.94768062	-12.88582542
0.02	2	-0.104	-1.005	0.09	-7.6776372	2.0626488	-0.4010706	95.29437456	-3.94195104	-12.86863668
0.03	3	-0.105	-1	0.099	-7.734933	2.9793816	-0.286479	95.21416044	-3.94768062	-12.83998878
0.04	4	-0.102	-0.998	0.096	-7.7922288	3.8961144	-0.4010706	95.12821674	-3.94768062	-12.79988172
0.05	5	-0.098	-0.999	0.092	-7.2765666	3.9534102	-0.4583664	95.04227304	-3.96486936	-12.7483155
0.06	6	-0.094	-1.002	0.094	-6.9900876	3.7815228	-0.572958	94.9677885	-3.96486936	-12.71393802
0.07	7	-0.09	-1.005	0.104	-7.9068204	4.583664	-0.6302538	94.8818448	-3.96486936	-12.66810138
0.08	8	-0.083	-1.007	0.102	-9.5683986	5.6149884	-0.6875496	94.77871236	-3.96486936	-12.61080558
0.09	9	-0.077	-1.008	0.098	-10.886202	5.8441716	-0.5156622	94.66412076	-3.96486936	-12.55350978
0.1	10	-0.075	-1.006	0.093	-11.1153852	5.2139178	-0.2291832	94.54379958	-3.97059894	-12.50194356
0.11	11	-0.074	-0.998	0.089	-10.026765	3.724227	-0.0572958	94.44066714	-3.97632852	-12.46756608
0.12	12	-0.075	-0.989	0.095	-8.4224826	2.4064236	-0.286479	94.35472344	-3.97632852	-12.44464776
0.13	13	-0.075	-0.981	0.096	-6.9327918	1.4896908	-0.8021412	94.2802389	-3.96486936	-12.42745902
0.14	14	-0.08	-0.98	0.096	-5.5576926	0.572958	-1.3750992	94.2229431	-3.9534102	-12.42172944
0.15	15	-0.084	-0.984	0.093	-4.4117766	0	-1.7761698	94.17710646	-3.95913978	-12.41027028
0.16	16	-0.093	-0.989	0.098	-3.437748	-0.4010706	-1.8334656	94.14272898	-3.94195104	-12.41599986
0.17	17	-0.103	-0.995	0.101	-3.151269	-0.0572958	-2.005353	94.1083515	-3.91903272	-12.41599986
0.18	18	-0.109	-0.994	0.099	-2.86479	0.6875496	-2.291832	94.0797036	-3.8961144	-12.41027028
0.19	19	-0.111	-0.995	0.098	-2.8074942	1.2605076	-2.5210152	94.04532612	-3.87319608	-12.39308154
0.2	20	-0.105	-0.994	0.092	-2.6929026	1.6042824	-2.6356068	94.01667822	-3.89038482	-12.35870406
0.21	21	-0.099	-0.991	0.093	-2.005353	1.6042824	-2.86479	93.9937599	-3.86173692	-12.33578574
0.22	22	-0.095	-0.988	0.097	-1.2032118	1.5469866	-3.3231564	93.97657116	-3.83308902	-12.318597
0.23	23	-0.093	-0.989	0.101	-0.2291832	1.3178034	-3.437748	93.97657116	-3.79871154	-12.30713784
0.24	24	-0.086	-0.993	0.103	0.7448454	0.9167328	-3.5523396	93.98230074	-3.76433406	-12.29567868
0.25	25	-0.074	-0.993	0.105	1.3750992	0.6302538	-4.1252976	94.00521906	-3.724227	-12.28421952
0.26	26	-0.071	-0.992	0.104	1.8334656	0	-5.0420304	94.02813738	-3.67266078	-12.28421952
0.27	27	-0.07	-0.996	0.109	2.4637194	-0.7448454	-5.9587632	94.0510557	-3.61536498	-12.28421952
0.28	28	-0.071	-1.003	0.109	2.9220858	-1.2032118	-6.7609044	94.08543318	-3.54661002	-12.2899491
0.29	29	-0.071	-1.01	0.107	3.4950438	-1.0886202	-7.9641162	94.11981066	-3.46066632	-12.29567868
0.3	30	-0.063	-1.025	0.101	3.724227	-0.6875496	-9.3392154	94.15991772	-3.36326346	-12.29567868
0.31	31	-0.049	-1.036	0.092	3.4950438	-1.2605076	-10.886202	94.1942952	-3.25440144	-12.30140826
0.32	32	-0.042	-1.037	0.092	3.6669312	-2.0626488	-13.0061466	94.23440226	-3.1226211	-12.31286742
0.33	33	-0.039	-1.03	0.083	3.3804522	-1.718874	-16.1574156	94.26877974	-2.96219286	-12.318597
0.34	34	-0.037	-1.03	0.09	2.3491278	-1.5469866	-20.1681216	94.29169806	-2.76165756	-12.318597
0.35	35	-0.045	-1.032	0.091	-0.0572958	-0.0572958	-23.777757	94.28596848	-2.52674478	-12.30140826
0.36	36	-0.044	-1.018	0.091	-1.9480572	5.3858052	-26.4133638	94.26305016	-2.26891368	-12.22692372
0.37	37	-0.044	-0.998	0.103	-3.3804522	13.750992	-28.0176462	94.21721352	-2.005353	-12.06649548
0.38	38	-0.042	-0.978	0.112	-5.6722842	22.7464326	-27.9030546	94.14845856	-1.75325148	-11.82585312
0.39	39	-0.044	-0.958	0.111	-8.4797784	31.1689152	-25.8977016	94.0510557	-1.52406828	-11.49926706
0.4	40	-0.04	-0.944	0.093	-11.45916	40.0497642	-23.204799	93.91927536	-1.33499214	-11.0867373
0.41	41	-0.044	-0.942	0.084	-11.8029348	47.2117392	-20.2827132	93.78176544	-1.18029348	-10.61118216
0.42	42	-0.05	-0.968	0.128	-7.9068204	50.7640788	-17.8762896	93.68436258	-1.04851314	-10.10124954
0.43	43	-0.047	-1.02	0.157	-6.0733548	49.9619376	-16.2147114	93.60414846	-0.93392154	-9.5970465
0.44	44	-0.03	-1.066	0.155	-6.016059	47.7274014	-14.2093584	93.52966392	-0.83651868	-9.12149136
0.45	45	0.005	-1.083	0.156	-4.6982556	46.7533728	-12.1467096	93.4780977	-0.75057498	-8.65739538
0.46	46	0.051	-1.07	0.173	-4.010706	45.550161	-10.599723	93.4208019	-0.68182002	-8.20475856
0.47	47	0.097	-1.036	0.19	-4.0680018	40.966497	-9.740286	93.36923568	-0.62452422	-7.7922288
0.48	48	0.138	-1.015	0.198	-4.297185	33.6326346	-9.7975818	93.31766946	-0.55576926	-7.45418358
0.49	49	0.182	-1.025	0.2	-4.1252976	25.5539268	-11.9175264	93.27183282	-0.4583664	-7.19635248
0.5	50	0.209	-1.048	0.188	-3.8388186	16.6730778	-15.5271618	93.2489145	-0.26356068	-7.05311298
0.51	51	0.218	-1.052	0.174	-4.2398892	10.8289062	-18.9649098	93.20307786	-0.0859437	-6.9327918
0.52	52	0.199	-1.03	0.163	-4.7555514	5.6722842	-21.485925	93.15724122	0.1145916	-6.86403684
0.53	53	0.155	-0.995	0.161	-4.870143	1.2605076	-22.7464326	93.105675	0.3437748	-6.84111852
0.54	54	0.1	-0.964	0.167	-4.8128472	-2.4637194	-22.91832	93.05410878	0.572958	-6.85257768
0.55	55	0.051	-0.932	0.175	-5.0420304	-5.0420304	-22.1161788	93.02546088	0.8021412	-6.89841432
0.56	56	0.004	-0.91	0.18	-5.5003968	-5.5576926	-20.6837838	92.96816508	1.01413566	-6.94425096
0.57	57	-0.023	-0.901	0.188	-5.2712136	-5.0420304	-18.7357266	92.91659886	1.2032118	-6.98435802
0.58	58	-0.038	-0.891	0.211	-3.2085648	-3.6669312	-15.9855282	92.88222138	1.36364004	-7.01300592
0.59	59	-0.053	-0.891	0.222	-1.4896908	-2.4064236	-13.750992	92.86503264	1.50114996	-7.03019466
0.6	60	-0.051	-0.899	0.238	0.286479	0.286479	-11.5164558	92.93951718	1.59282324	-7.0187355
0.61	61	-0.04	-0.917	0.252	0.4583664	1.8907614	-9.5111028	92.94524676	1.68449652	-6.99581718
0.62	62	-0.026	-0.939	0.254	0	3.437748	-7.6203414	92.95097634	1.75898106	-6.95571012
0.63	63	-0.016	-0.953	0.243	-1.5469866	5.2139178	-5.3858052	92.9337876	1.8048177	-6.9041439
0.64	64	-0.009	-0.958	0.237	-3.7815228	6.4171296	-2.6356068	92.89368054	1.82773602	-6.83538894
0.65	65	0.003	-0.96	0.223	-5.443101	7.9068204	0.2291832	92.89368054	1.82200644	-6.77236356
0.66	66	0.02	-0.967	0.208	-6.0733548	11.45916	1.6615782	92.83638474	1.79908812	-6.65777196
0.67	67	0.01	-0.976	0.217	-6.9900876	12.3758928	2.1199446	92.76762978	1.76471064	-6.53745078
0.68	68	-0.001	-0.97	0.225	-8.1360036	11.1153852	3.0366774	92.68741566	1.72460358	-6.42858876
0.69	69	-0.001	-0.96	0.22	-9.2246238	10.886202	4.7555514	92.59574238	1.67303736	-6.32545632
0.7	70	-0.001	-0.953	0.211	-10.6570188	11.6883432	6.7609044	92.51552826	1.59282324	-6.2165943
0.71	71	-0.005	-0.956	0.204	-11.2299768	12.318597	8.5370742	92.40666624	1.50114996	-6.1020027
0.72	72	-0.005	-0.96	0.199	-11.45916	12.1467096	9.9694692	92.29207464	1.39228794	-5.9874111
0.73	73	0.003	-0.967	0.202	-11.9175264	10.3705398	11.2299768	92.17175346	1.27196676	-5.89000824
0.74	74	0.028	-0.977	0.202	-12.1467096	6.9900876	12.6623718	92.0457027	1.14018642	-5.82698286
0.75	75	0.065	-0.993	0.209	-11.9748222	3.151269	13.5791046	91.96548858	1.0313244	-5.82125328
0.76	76	0.108	-1.009	0.245	-11.9748222	-1.9480572	14.0947668	91.8451674	0.89381448	-5.84990118
0.77	77	0.152	-1.01	0.268	-12.7769634	-8.0787078	14.5531332	91.71338706	0.75057498	-5.93584488
0.78	78	0.187	-0.995	0.273	-10.886202	-14.0947668	14.610429	91.60452504	0.61306506	-6.07908438
0.79	79	0.199	-0.999	0.236	-8.5370742	-19.0795014	13.8082878	91.51858134	0.4870143	-6.2738901
0.8	80	0.178	-1.044	0.088	-10.9434978	-23.1475032	12.4331886	91.40971932	0.39534102	-6.52026204
0.81	81	0.129	-1.122	0.058	-8.307891	-24.2361234	8.880849	91.3295052	0.32085648	-6.7609044
0.82	82	0.063	-1.237	0.153	2.2345362	-26.5279554	0.4583664	91.35242352	0.33231564	-7.02446508
0.83	83	0.005	-1.307	0.24	-3.151269	-26.2987722	-4.3544808	91.32377562	0.38388186	-7.28229618
0.84	84	0.006	-1.31	0.371	-19.0222056	-16.3865988	-4.1825934	91.1289699	0.43544808	-7.448454
0.85	85	0.06	-1.292	0.323	-32.5440144	5.2139178	0.859437	90.80811342	0.4297185	-7.40261736
0.86	86	0.145	-1.267	-0.028	-29.9657034	13.3499214	9.453807	90.50444568	0.32658606	-7.2765666
0.87	87	0.193	-1.285	-0.175	-16.7303736	-2.3491278	17.9908812	90.33255828	0.14896908	-7.3052145
0.88	88	0.165	-1.389	0.003	-12.0894138	-18.7357266	24.7517856	90.2122371	-0.0859437	-7.49429064
0.89	89	0.15	-1.426	-0.046	-21.9442914	-26.5279554	31.799169	89.99451306	-0.39534102	-7.75785132
0.9	90	0.154	-1.315	-0.155	-23.3193906	-36.8984952	38.7892566	89.76532986	-0.76776372	-8.13027402
0.91	91	0.123	-1.236	-0.116	-17.4179232	-44.690724	40.1643558	89.60490162	-1.15737516	-8.57145168
0.92	92	0.066	-1.132	-0.083	-18.1627686	-52.712136	39.6486936	89.4387438	-1.54125702	-9.09284346
0.93	93	0.023	-1.011	-0.062	-19.5951636	-57.4676874	37.815228	89.2668564	-1.91367972	-9.66007188
0.94	94	0.013	-0.916	-0.074	-20.4546006	-59.1865614	34.950438	89.08350984	-2.25172494	-10.24448904
0.95	95	0.008	-0.854	-0.056	-21.4286292	-60.447069	30.9970278	88.90016328	-2.5496631	-10.84036536
0.96	96	-0.015	-0.811	-0.066	-23.8923486	-62.0513514	26.2987722	88.6938984	-2.81322378	-11.45343042
0.97	97	-0.041	-0.781	-0.086	-26.5852512	-63.2545632	21.485925	88.4647152	-3.02521824	-12.07795464
0.98	98	0.009	-0.772	-0.085	-28.8197874	-57.6395748	15.6990492	88.21261368	-3.18564648	-12.65091264
0.99	99	0.059	-0.802	-0.086	-26.9863218	-52.7694318	11.2299768	87.97197132	-3.30023808	-13.17230442
1	100	0.031	-0.883	-0.096	-24.923673	-52.425657	8.59437	87.75424728	-3.38618178	-13.6936962
1.01	101	-0.028	-0.96	-0.075	-22.9756158	-53.7434604	10.313244	87.55944156	-3.50077338	-14.22654714
1.02	102	-0.063	-0.999	-0.052	-20.1108258	-53.6861646	15.2979786	87.39328374	-3.66120162	-14.7536685
1.03	103	-0.082	-0.985	-0.049	-17.0168526	-52.2537696	20.8556712	87.2615034	-3.87892566	-15.26360112
1.04	104	-0.111	-0.946	-0.037	-12.8342592	-50.5348956	24.0069402	87.1755597	-4.13102718	-15.75061542
1.05	105	-0.155	-0.911	-0.028	-10.026765	-49.274388	25.6685184	87.11253432	-4.40604702	-16.22617056
1.06	106	-0.188	-0.903	-0.026	-9.0527364	-48.414951	26.2987722	87.06669768	-4.68106686	-16.69599612
1.07	107	-0.199	-0.91	-0.03	-9.8548776	-47.555514	25.9549974	87.00940188	-4.95035712	-17.15436252
1.08	108	-0.198	-0.91	-0.017	-10.0840608	-45.6647526	24.1788276	86.95210608	-5.20245864	-17.59554018
1.09	109	-0.193	-0.891	0.008	-9.0527364	-42.8572584	21.4286292	86.90626944	-5.42591226	-18.01379952
1.1	110	-0.195	-0.865	0.036	-7.2192708	-38.674665	18.1054728	86.88335112	-5.63790672	-18.38049264
1.11	111	-0.2	-0.84	0.068	-4.9847346	-33.4607472	14.5531332	86.86616238	-5.7868758	-18.7070787
1.12	112	-0.214	-0.826	0.105	-3.3804522	-26.8144344	11.0007936	86.86616238	-5.90719698	-18.97063938
1.13	113	-0.219	-0.834	0.111	-3.0366774	-18.621135	7.0473834	86.85470322	-5.98168152	-19.14825636
1.14	114	-0.227	-0.851	0.089	-3.2085648	-10.2559482	4.8128472	86.8317849	-6.03324774	-19.2513888
1.15	115	-0.239	-0.867	0.08	-2.6929026	-3.7815228	3.6096354	86.86616238	-6.1879464	-19.24565922
1.16	116	-0.246	-0.89	0.083	-1.4896908	2.0626488	3.151269	86.84324406	-6.22232388	-19.2227409
1.17	117	-0.249	-0.911	0.084	-0.1145916	7.448454	3.0939732	86.8317849	-6.25097178	-19.14825636
1.18	118	-0.248	-0.941	0.053	1.4896908	11.9175264	3.3804522	86.83751448	-6.27961968	-19.02793518
1.19	119	-0.241	-0.966	0.018	1.9480572	14.4385416	4.4690724	86.83751448	-6.31972674	-18.8789661
1.2	120	-0.223	-0.967	0.07	2.005353	17.6471064	4.6409598	86.86616238	-6.39421128	-18.69561954
1.21	121	-0.174	-0.934	0.099	3.437748	21.8869956	2.8074942	86.87189196	-6.4171296	-18.47216592
1.22	122	-0.139	-0.856	0.107	6.3598338	24.1215318	-0.4010706	86.90626944	-6.40567044	-18.23152356
1.23	123	-0.115	-0.794	0.113	9.5683986	25.8977016	-4.4117766	86.96929482	-6.35410422	-17.97942204
1.24	124	-0.102	-0.77	0.14	12.7769634	27.8457588	-7.8495246	87.06669768	-6.26816052	-17.7044022
1.25	125	-0.089	-0.784	0.18	15.5844576	30.4240698	-10.0840608	87.20993718	-6.15356892	-17.41219362
1.26	126	-0.074	-0.815	0.19	18.334656	32.6013102	-10.8289062	87.35890626	-6.03897732	-17.08560756
1.27	127	-0.069	-0.852	0.194	20.3973048	34.2055926	-10.6570188	87.52506408	-5.92438572	-16.74756234
1.28	128	-0.091	-0.9	0.189	20.6837838	35.6952834	-10.2559482	87.69695148	-5.8155237	-16.39805796
1.29	129	-0.142	-0.961	0.189	20.3973048	36.7266078	-8.7662574	87.8631093	-5.72385042	-16.03136484
1.3	130	-0.197	-1.001	0.196	18.8503182	38.3308902	-7.6776372	88.02926712	-5.65509546	-15.65321256
1.31	131	-0.254	-1.035	0.199	16.902261	40.680018	-7.5630456	88.15531788	-5.58061092	-15.24641238
1.32	132	-0.302	-1.057	0.201	15.6990492	44.6334282	-8.6516658	88.26990948	-5.48893764	-14.80523472
1.33	133	-0.321	-1.104	0.216	15.9855282	52.0245864	-12.4331886	88.37304192	-5.36288688	-14.28957252
1.34	134	-0.325	-1.148	0.21	15.2406828	60.733548	-16.615782	88.4647152	-5.19672906	-13.68796662
1.35	135	-0.317	-1.187	0.213	18.4492476	69.4425096	-19.480572	88.59076596	-5.0133825	-13.00041702
1.36	136	-0.292	-1.215	0.217	20.2827132	74.8856106	-19.767051	88.7225463	-4.81857678	-12.25557162
1.37	137	-0.236	-1.227	0.223	23.491278	76.7190762	-18.6784308	88.88870412	-4.63523022	-11.49353748
1.38	138	-0.168	-1.254	0.231	26.5279554	71.9635248	-17.0741484	89.08923942	-4.4690724	-10.78306956
1.39	139	-0.11	-1.302	0.248	24.637194	56.9520252	-15.0114996	89.28977472	-4.3258329	-10.21584114
1.4	140	-0.076	-1.304	0.177	21.0275586	44.0604702	-13.750992	89.4673917	-4.19405256	-9.78039306
1.41	141	-0.024	-1.256	0.071	22.0015872	48.0138804	-13.8655836	89.65073826	-4.06227222	-9.29910834
1.42	142	0.05	-1.225	0.026	24.4653066	50.5348956	-13.750992	89.85700314	-3.93622146	-8.80063488
1.43	143	0.087	-1.239	-0.081	19.7097552	40.2789474	-13.5218088	90.02889054	-3.8101707	-8.39956428
1.44	144	0.143	-1.255	-0.262	10.5424272	30.0229992	-12.5477802	90.10910466	-3.6955791	-8.09589654
1.45	145	0.231	-1.28	-0.4	5.0993262	23.0329116	-11.4018642	90.1262934	-3.56952834	-7.87244292
1.46	146	0.325	-1.349	-0.475	1.2032118	10.1986524	-9.6829902	90.13202298	-3.47785506	-7.76931048
1.47	147	0.387	-1.362	-0.498	-0.4583664	-3.724227	-6.9327918	90.1262934	-3.40337052	-7.80368796
1.48	148	0.394	-1.311	-0.471	2.9793816	-12.605076	-4.9847346	90.16640046	-3.3518043	-7.92973872
1.49	149	0.329	-1.194	-0.412	6.6463128	-15.6417534	-6.302538	90.24661458	-3.28304934	-8.08443738
1.5	150	0.207	-1.042	-0.36	9.6829902	-14.896908	-8.59437	90.28672164	-3.151269	-8.23340646
1.51	151	0.004	-0.918	-0.306	11.6883432	-12.7769634	-11.745639	90.41850198	-3.02521824	-8.35945722
1.52	152	-0.202	-0.842	-0.239	11.45916	-11.9748222	-15.0114996	90.53882316	-2.87624916	-8.47404882
1.53	153	-0.371	-0.845	-0.17	7.2192708	-10.1986524	-16.329303	90.61903728	-2.70436176	-8.57145168
1.54	154	-0.445	-0.895	-0.114	2.3491278	-7.2192708	-15.8136408	90.64768518	-2.54393352	-8.64020664
1.55	155	-0.416	-0.967	-0.077	-1.2605076	-3.3231564	-15.9855282	90.59038938	-2.52674478	-8.61155874
1.56	156	-0.299	-1.058	-0.073	-4.8128472	1.8334656	-18.1054728	90.53882316	-2.3491278	-8.58864042
1.57	157	-0.15	-1.109	-0.065	-6.016059	6.7609044	-20.2827132	90.47579778	-2.1485925	-8.51988546
1.58	158	-0.027	-1.111	-0.053	-5.5576926	10.1986524	-21.2567418	90.4127724	-1.94232762	-8.41675302
1.59	159	0.08	-1.08	-0.048	-4.1825934	13.0634424	-20.912967	90.36120618	-1.74179232	-8.28497268
1.6	160	0.164	-1.022	-0.034	-2.3491278	14.32395	-19.4232762	90.3268287	-1.4896908	-8.17038108
1.61	161	0.21	-0.971	-0.029	-1.3178034	14.2666542	-16.615782	90.30963996	-1.32926256	-8.02714158
1.62	162	0.218	-0.928	-0.034	-1.2032118	12.8342592	-13.8655836	90.29245122	-1.19175264	-7.89536124
1.63	163	0.187	-0.893	-0.032	-0.2291832	10.5424272	-11.3445684	90.28672164	-1.08289062	-7.7922288
1.64	164	0.137	-0.858	-0.016	0.859437	7.2192708	-9.7975818	90.29245122	-0.99121734	-7.71774426
1.65	165	0.079	-0.838	0.013	2.005353	4.4690724	-9.5683986	90.31536954	-0.86516658	-7.68336678
1.66	166	0.044	-0.825	0.04	1.2605076	2.2345362	-9.3392154	90.3268287	-0.7734933	-7.66044846
1.67	167	0.03	-0.817	0.043	-0.3437748	0.859437	-9.453807	90.32109912	-0.67609044	-7.65471888
1.68	168	0.027	-0.82	0.024	-2.4637194	0.2291832	-9.5111028	90.2981808	-0.58441716	-7.6489893
1.69	169	0.041	-0.83	0.008	-2.5210152	-1.2605076	-9.3392154	90.2695329	-0.4870143	-7.66044846
1.7	170	0.051	-0.847	0.008	-1.6615782	-4.4117766	-8.880849	90.25234416	-0.37815228	-7.71201468
1.71	171	0.057	-0.859	0.019	-0.0572958	-7.9641162	-7.5630456	90.25234416	-0.29793816	-7.7922288
1.72	172	0.066	-0.871	0.033	1.5469866	-11.4018642	-5.443101	90.27526248	-0.24064236	-7.9068204
1.73	173	0.07	-0.883	0.041	2.5210152	-14.4385416	-3.0366774	90.2981808	-0.20626488	-8.0500599
1.74	174	0.072	-0.892	0.052	3.3804522	-17.3033316	-0.572958	90.33828786	-0.19480572	-8.21621772
1.75	175	0.06	-0.902	0.064	4.297185	-19.9962342	1.4896908	90.40131324	-0.17761698	-8.42821218
1.76	176	0.048	-0.898	0.078	4.870143	-21.7151082	3.151269	90.45287946	-0.2005353	-8.64020664
1.77	177	0.04	-0.891	0.085	5.2712136	-21.8869956	4.1825934	90.51017526	-0.23491278	-8.85793068
1.78	178	0.029	-0.881	0.083	6.0733548	-21.199446	5.0420304	90.57320064	-0.27501984	-9.06419556
1.79	179	0.014	-0.871	0.092	8.021412	-20.8556712	5.443101	90.65914434	-0.32085648	-9.27046044
1.8	180	0	-0.857	0.106	9.740286	-21.0275586	6.1879464	90.77946552	-0.3724227	-9.4824549
1.81	181	-0.011	-0.845	0.125	12.9488508	-21.9442914	7.5630456	90.91697544	-0.43544808	-9.70017894
1.82	182	-0.019	-0.833	0.159	17.475219	-23.204799	9.3965112	91.100322	-0.52139178	-9.92936214
1.83	183	-0.025	-0.826	0.202	22.5172494	-24.923673	11.5737516	91.33523478	-0.61879464	-10.17573408
1.84	184	-0.016	-0.828	0.248	26.8717302	-27.1009134	14.037471	91.61025462	-0.7448454	-10.44502434
1.85	185	0	-0.84	0.251	28.8197874	-28.1322378	16.6730778	91.93684068	-0.88235532	-10.73150334
1.86	186	0.03	-0.862	0.233	28.361421	-27.8457588	18.907614	92.22904926	-1.05424272	-11.01225276
1.87	187	0.06	-0.899	0.221	27.4446882	-28.4187168	19.5378678	92.52125784	-1.22613012	-11.29300218
1.88	188	0.091	-0.935	0.211	25.9549974	-29.4500412	19.5378678	92.79627768	-1.39228794	-11.59094034
1.89	189	0.109	-0.965	0.18	22.4599536	-30.3094782	19.480572	93.03692004	-1.56417534	-11.90033766
1.9	190	0.101	-0.977	0.148	17.8762896	-32.3148312	19.9389384	93.24318492	-1.71314442	-12.23838288
1.91	191	0.083	-0.978	0.142	16.7876694	-35.2942128	20.5691922	93.42653148	-1.88503182	-12.59361684
1.92	192	0.049	-0.978	0.147	15.0114996	-35.4088044	20.7410796	93.59841888	-2.05691922	-12.95458038
1.93	193	-0.001	-0.992	0.166	13.6936962	-35.6379876	19.9962342	93.75311754	-2.22307704	-13.31554392
1.94	194	-0.064	-1.021	0.197	10.4851314	-36.1536498	18.3919518	93.88489788	-2.37204612	-13.68796662
1.95	195	-0.109	-1.026	0.231	6.9327918	-35.5806918	17.0168526	93.9937599	-2.51528562	-14.04893016
1.96	196	-0.129	-1.015	0.272	4.583664	-33.6899304	15.756345	94.05678528	-2.64133638	-14.38697538
1.97	197	-0.12	-1.006	0.313	4.297185	-31.1689152	14.9542038	94.11981066	-2.75592798	-14.70783186
1.98	198	-0.099	-1.019	0.317	4.297185	-28.3041252	14.32395	94.18283604	-2.87051958	-14.99431086
1.99	199	-0.059	-1.042	0.292	3.0366774	-24.4653066	13.6936962	94.23440226	-2.9793816	-15.24641238
2	200	-0.015	-1.064	0.269	3.2658606	-22.4599536	13.2353298	94.3088868	-3.07105488	-15.48705474
2.01	201	0	-1.085	0.234	8.2505952	-22.8037284	11.9748222	94.40628966	-3.16845774	-15.72196752
2.02	202	0.005	-1.148	0.184	15.2406828	-21.7151082	8.3651868	94.57817706	-3.22575354	-15.93969156
2.03	203	0	-1.276	0.29	5.9587632	-18.621135	4.6409598	94.6526616	-3.25440144	-16.1287677
2.04	204	-0.014	-1.36	0.32	-17.0741484	-6.7036086	2.578311	94.4807742	-3.27159018	-16.19752266
2.05	205	-0.011	-1.363	0.069	-20.2827132	9.2819196	1.6615782	94.26305016	-3.2945085	-16.11157896
2.06	206	-0.011	-1.342	-0.209	-8.1932994	18.2773602	0.8021412	94.1656473	-3.3231564	-15.93396198
2.07	207	-0.057	-1.333	-0.303	5.156622	14.7823164	-0.4583664	94.20575436	-3.33461556	-15.7849929
2.08	208	-0.172	-1.375	-0.286	7.2192708	11.9748222	-2.1199446	94.27450932	-3.3231564	-15.66467172
2.09	209	-0.268	-1.437	-0.351	5.5003968	18.6784308	-4.583664	94.31461638	-3.2945085	-15.47559558
2.1	210	-0.339	-1.477	-0.38	8.4797784	30.8251404	-7.9641162	94.3661826	-3.25440144	-15.16046868
2.11	211	-0.349	-1.463	-0.323	12.8342592	43.1437374	-12.032118	94.46931504	-3.1799169	-14.7250206
2.12	212	-0.257	-1.379	-0.269	13.5791046	53.8007562	-13.9801752	94.5667179	-3.09970278	-14.1807105
2.13	213	-0.086	-1.258	-0.262	13.4072172	58.5563076	-11.172681	94.66412076	-3.04813656	-13.59629334
2.14	214	0.075	-1.132	-0.238	12.7196676	54.3737142	-3.724227	94.76152362	-3.07105488	-13.05198324
2.15	215	0.181	-1.018	-0.195	8.7662574	44.690724	5.5576926	94.78444194	-3.12835068	-12.62799432
2.16	216	0.266	-0.918	-0.201	2.7501984	33.231564	12.891555	94.79017152	-3.28877892	-12.31286742
2.17	217	0.319	-0.862	-0.19	-2.6929026	21.5432208	16.6730778	94.74433488	-3.47785506	-12.11233212
2.18	218	0.322	-0.864	-0.17	-6.5317212	10.4851314	16.4438946	94.67557992	-3.65547204	-12.02638842
2.19	219	0.26	-0.923	-0.163	-10.3705398	0.5156622	15.2406828	94.5667179	-3.8101707	-12.032118
2.2	220	0.159	-1.009	-0.161	-12.891555	-6.4744254	14.8396122	94.3948305	-3.90184398	-12.12379128
2.21	221	0.054	-1.085	-0.163	-13.5791046	-9.5683986	15.2979786	94.26877974	-4.04508348	-12.22692372
2.22	222	-0.033	-1.109	-0.159	-12.4904844	-9.5111028	14.8396122	94.14845856	-4.1825934	-12.33578574
2.23	223	-0.096	-1.084	-0.124	-10.7143146	-7.734933	13.750992	94.0510557	-4.31437374	-12.42172944
2.24	224	-0.154	-1.002	-0.099	-9.8548776	-6.1879464	12.9488508	93.95365284	-4.4404245	-12.49621398
2.25	225	-0.2	-0.914	-0.078	-9.0527364	-2.5210152	12.9488508	93.81614292	-4.62950064	-12.49621398
2.26	226	-0.228	-0.853	-0.042	-8.880849	1.6042824	13.8082878	93.72446964	-4.77274014	-12.4904844
2.27	227	-0.225	-0.822	-0.01	-10.4851314	4.4690724	14.6677248	93.61560762	-4.92170922	-12.4618365
2.28	228	-0.203	-0.817	-0.036	-12.0894138	5.8441716	15.6417534	93.48382728	-5.08213746	-12.41027028
2.29	229	-0.179	-0.836	-0.037	-12.5477802	5.72958	16.6730778	93.35204694	-5.25402486	-12.37016322
2.3	230	-0.153	-0.867	-0.031	-12.4331886	4.6982556	17.6471064	93.20307786	-5.45456016	-12.32432658
2.31	231	-0.137	-0.892	-0.042	-12.7769634	3.6096354	18.1054728	93.06556794	-5.63790672	-12.29567868
2.32	232	-0.125	-0.908	-0.07	-13.0061466	3.2658606	17.5325148	92.9337876	-5.8155237	-12.27848994
2.33	233	-0.123	-0.922	-0.066	-11.9175264	3.9534102	15.756345	92.80773684	-5.97022236	-12.24984204
2.34	234	-0.12	-0.932	-0.053	-10.4851314	4.4117766	13.4072172	92.69887482	-6.10773228	-12.20973498
2.35	235	-0.117	-0.942	-0.05	-8.7662574	4.9847346	11.6310474	92.56709448	-6.23951262	-12.15816876
2.36	236	-0.111	-0.936	-0.049	-6.9327918	6.016059	10.2559482	92.48688036	-6.34837464	-12.10087296
2.37	237	-0.105	-0.939	-0.046	-4.6409598	6.8182002	9.6829902	92.43531414	-6.45150708	-12.03784758
2.38	238	-0.101	-0.943	-0.017	-3.724227	6.7609044	9.453807	92.3894775	-6.54890994	-11.9748222
2.39	239	-0.084	-0.962	0.005	-2.578311	5.9014674	9.7975818	92.35510002	-6.65204238	-11.92325598
2.4	240	-0.077	-0.967	0.015	-3.151269	3.8961144	9.5683986	92.29207464	-6.72652692	-11.8888785
2.41	241	-0.077	-0.963	0.007	-3.0939732	1.2032118	8.1932994	92.26342674	-6.80674104	-11.88314892
2.42	242	-0.082	-0.954	0.002	-2.7501984	-1.0313244	6.2452422	92.23477884	-6.86976642	-11.89460808
2.43	243	-0.086	-0.944	-0.011	-1.9480572	-2.86479	4.2398892	92.2175901	-6.90987348	-11.92898556
2.44	244	-0.088	-0.937	-0.002	-0.4010706	-3.6096354	2.6929026	92.22331968	-6.9327918	-11.96336304
2.45	245	-0.095	-0.936	0.024	2.2345362	-3.437748	1.3178034	92.24050842	-6.92706222	-12.0034701
2.46	246	-0.101	-0.93	0.086	5.2139178	-2.86479	0.5156622	92.29780422	-6.9327918	-12.032118
2.47	247	-0.11	-0.941	0.128	6.1879464	-1.7761698	0	92.3608296	-6.9327918	-12.04930674
2.48	248	-0.125	-0.956	0.131	5.2712136	-1.0313244	0	92.4181254	-6.92706222	-12.0607659
2.49	249	-0.143	-0.975	0.135	4.870143	-0.9740286	-0.286479	92.46969162	-6.92706222	-12.06649548
2.5	250	-0.161	-0.986	0.137	3.2658606	-1.2605076	-0.3437748	92.62439028	-7.00727634	-12.07795464
2.51	251	-0.175	-0.994	0.128	2.0626488	0	-1.0886202	92.6473086	-6.99581718	-12.07795464
2.52	252	-0.188	-0.992	0.122	0.9740286	2.291832	-2.0626488	92.65303818	-6.97289886	-12.05503632
2.53	253	-0.198	-0.982	0.118	0.1145916	5.0420304	-3.3231564	92.6473086	-6.94425096	-12.0034701
2.54	254	-0.2	-0.977	0.103	-0.8021412	7.734933	-4.4117766	92.63011986	-6.9041439	-11.92325598
2.55	255	-0.195	-0.977	0.087	-2.291832	9.6256944	-5.5576926	92.59574238	-6.89841432	-11.80866438
2.56	256	-0.184	-0.977	0.083	-3.724227	10.599723	-6.6463128	92.54417616	-6.84111852	-11.70553194
2.57	257	-0.17	-0.978	0.1	-4.297185	10.3705398	-7.9068204	92.48688036	-6.76663398	-11.59666992
2.58	258	-0.158	-0.988	0.078	-8.5370742	10.4278356	-9.2819196	92.38374792	-6.68069028	-11.4878079
2.59	259	-0.143	-0.987	0.039	-13.750992	11.5737516	-10.4851314	92.22904926	-6.589017	-11.3732163
2.6	260	-0.127	-0.989	0.025	-17.3606274	12.4904844	-11.2299768	92.02851396	-6.48588456	-11.24143596
2.61	261	-0.111	-0.979	0.019	-20.340009	12.891555	-11.6310474	91.80506034	-6.38275212	-11.10965562
2.62	262	-0.096	-0.967	-0.002	-22.2880662	9.6256944	-11.45916	91.57014756	-6.2738901	-11.01798234
2.63	263	-0.085	-0.971	-0.021	-25.3820394	5.2139178	-11.3445684	91.30658688	-6.16502808	-10.96068654
2.64	264	-0.071	-0.981	-0.046	-29.6219286	1.5469866	-11.3445684	91.00291914	-6.05616606	-10.94922738
2.65	265	-0.062	-0.998	-0.057	-34.0337052	-1.5469866	-11.745639	90.6419556	-5.93584488	-10.96641612
2.66	266	-0.056	-1.02	-0.043	-39.1903272	-2.86479	-12.605076	90.24661458	-5.80979412	-11.0007936
2.67	267	-0.052	-1.037	-0.059	-44.117766	-2.9220858	-13.4072172	89.80543692	-5.67801378	-11.03517108
2.68	268	-0.065	-1.043	-0.093	-47.269035	-4.297185	-13.9228794	89.32988178	-5.54623344	-11.08100772
2.69	269	-0.087	-1.046	-0.11	-48.8160216	-3.437748	-14.3812458	88.8371379	-5.40299394	-11.12111478
2.7	270	-0.11	-1.04	-0.125	-50.8213746	-0.0572958	-14.9542038	88.31001654	-5.26548402	-11.12684436
2.71	271	-0.138	-1.034	-0.149	-52.6548402	4.1825934	-15.469866	87.77143602	-5.11651494	-11.09819646
2.72	272	-0.142	-1.022	-0.159	-54.6601932	10.026765	-15.5844576	87.2042076	-4.96181628	-11.01225276
2.73	273	-0.143	-1.004	-0.152	-54.43101	15.8136408	-14.2093584	86.63697918	-4.82430636	-10.86901326
2.74	274	-0.158	-0.992	-0.105	-52.8840234	20.8556712	-12.032118	86.08120992	-4.6982556	-10.67420754
2.75	275	-0.177	-0.99	-0.068	-52.3683612	24.5226024	-9.3392154	85.52544066	-4.6123119	-10.43929476
2.76	276	-0.182	-0.986	-0.076	-53.3423898	25.6685184	-5.9014674	84.96394182	-4.54355694	-10.19292282
2.77	277	-0.165	-0.991	-0.083	-55.4623344	27.3300966	-3.4950438	84.37379508	-4.4977203	-9.92936214
2.78	278	-0.139	-1.019	-0.113	-59.0719698	29.9084076	-3.2658606	83.74927086	-4.44615408	-9.64288314
2.79	279	-0.111	-1.032	-0.141	-63.311859	31.799169	-4.1825934	83.07891	-4.3831287	-9.34494498
2.8	280	-0.079	-1.03	-0.181	-67.7809314	34.5493674	-6.016059	82.35698292	-4.297185	-9.01262934
2.81	281	-0.063	-0.999	-0.216	-74.3699484	38.7892566	-8.9381448	81.56630088	-4.17686382	-8.6516658
2.82	282	-0.043	-0.971	-0.227	-78.5525418	37.9298196	-10.313244	80.74124136	-4.03362432	-8.30216142
2.83	283	-0.025	-0.962	-0.25	-83.07891	33.4034514	-9.6829902	79.8703452	-3.90184398	-7.99849368
2.84	284	0.019	-0.963	-0.217	-85.1415588	27.3300966	-8.5370742	78.98798988	-3.7815228	-7.75785132
2.85	285	0.077	-0.98	-0.161	-86.2874748	22.7464326	-8.021412	78.09990498	-3.66120162	-7.5630456
2.86	286	0.122	-1.012	-0.119	-89.667927	20.626488	-7.6776372	77.1774426	-3.5523396	-7.38542862
2.87	287	0.144	-1.046	-0.157	-93.965112	15.6990492	-6.875496	76.20914358	-3.4663959	-7.25937786
2.88	288	0.194	-1.092	-0.198	-96.6580146	12.2040054	-5.9587632	75.22365582	-3.39191136	-7.161975
2.89	289	0.239	-1.15	-0.26	-102.1011156	8.6516658	-7.6203414	74.18087226	-3.31169724	-7.11040878
2.9	290	0.26	-1.179	-0.317	-109.0339074	6.1306506	-11.2872726	73.07506332	-3.1799169	-7.09894962
2.91	291	0.242	-1.165	-0.354	-114.305121	3.3804522	-14.2093584	71.91768816	-3.04813656	-7.11613836
2.92	292	0.211	-1.153	-0.375	-118.2585312	0.6302538	-15.6417534	70.72020594	-2.91062664	-7.16770458
2.93	293	0.189	-1.142	-0.315	-123.9881112	-1.2605076	-16.8449652	69.46542792	-2.77311672	-7.2479187
2.94	294	0.205	-1.109	-0.332	-133.6711014	-1.145916	-17.9908812	68.10751746	-2.62414764	-7.3338624
2.95	295	0.219	-1.083	-0.313	-139.9163436	-2.6356068	-19.1367972	66.70377036	-2.4637194	-7.448454
2.96	296	0.193	-1.048	-0.286	-146.8491354	-5.7868758	-19.4232762	65.21980914	-2.32620948	-7.5916935
2.97	297	0.164	-0.997	-0.365	-151.6619826	-12.7769634	-16.7876694	63.69001128	-2.24599536	-7.78649922
2.98	298	0.164	-0.964	-0.381	-149.7712212	-18.1627686	-13.178034	62.17740216	-2.22307704	-8.021412
2.99	299	0.156	-0.924	-0.315	-145.1302614	-25.3247436	-11.8602306	60.72208884	-2.25172494	-8.307891
3	300	0.205	-0.891	-0.229	-143.2395	-36.1536498	-12.605076	59.301153	-2.31475032	-8.70323202
3.01	301	0.315	-0.879	-0.28	-145.0156698	-43.831287	-15.3552744	57.85156926	-2.41788276	-9.167328
3.02	302	0.477	-0.926	-0.105	-144.6145992	-49.274388	-21.2567418	56.41344468	-2.50955604	-9.70590852
3.03	303	0.5	-0.905	-0.153	-148.5680094	-56.8374336	-25.496631	54.94094262	-2.62414764	-10.32470316
3.04	304	0.476	-0.841	-0.199	-149.5993338	-67.895523	-24.064236	53.46271098	-2.83041252	-11.0294415
3.05	305	0.458	-0.807	-0.23	-149.0836716	-83.5945722	-17.761698	52.01312724	-3.16272816	-11.82585312
3.06	306	0.435	-0.767	-0.246	-148.3388262	-94.4807742	-12.318597	50.56927308	-3.65547204	-12.65091264
3.07	307	0.42	-0.701	-0.268	-145.3594446	-102.6167778	-8.8235532	49.16552598	-4.2398892	-13.51034964
3.08	308	0.397	-0.648	-0.23	-137.6245116	-110.294415	-6.4171296	47.85345216	-4.91025006	-14.39270496
3.09	309	0.32	-0.596	-0.156	-129.5458038	-118.029348	-6.0733548	46.64451078	-5.64936588	-15.32089692
3.1	310	0.234	-0.575	-0.134	-123.0140826	-123.18597	-6.2452422	45.5215131	-6.42858876	-16.28346636
3.11	311	0.127	-0.557	-0.089	-115.8521076	-129.202029	-3.9534102	44.47872954	-7.29375534	-17.2460358
3.12	312	0.001	-0.521	-0.006	-107.143146	-133.212735	1.3750992	43.53907842	-8.23913604	-18.18568692
3.13	313	-0.128	-0.466	0.061	-95.111028	-134.072172	7.2192708	42.72547806	-9.24181254	-19.0795014
3.14	314	-0.234	-0.386	0.134	-86.4020664	-129.488508	9.5683986	42.00928056	-10.23875946	-19.9102905
3.15	315	-0.307	-0.302	0.187	-78.7244292	-118.3731228	10.5424272	41.37902676	-11.19559932	-20.64940632
3.16	316	-0.368	-0.241	0.222	-71.7343416	-101.2989744	9.9121734	40.78888002	-12.0034701	-21.26820096
3.17	317	-0.428	-0.201	0.226	-66.5204238	-81.7038108	9.0527364	40.22738118	-12.67383096	-21.75521526
3.18	318	-0.468	-0.174	0.184	-63.4264506	-61.4783934	9.3965112	39.66588234	-13.19522274	-22.09326048
3.19	319	-0.476	-0.171	0.114	-60.7908438	-43.258329	11.8602306	39.1043835	-13.60202292	-22.2880662
3.2	320	-0.503	-0.217	0.001	-60.6762522	-31.1116194	17.475219	38.51996634	-13.99736394	-22.345362
3.21	321	-0.498	-0.272	-0.065	-63.4837464	-20.2254174	25.0382646	37.86106464	-14.31249084	-22.27660704
3.22	322	-0.419	-0.327	-0.16	-67.322565	-13.8082878	31.0543236	37.13913756	-14.61615858	-22.1161788
3.23	323	-0.278	-0.37	-0.236	-71.2759752	-9.2246238	35.9244666	36.3541851	-14.91409674	-21.87553644
3.24	324	-0.123	-0.441	-0.387	-78.5525418	-9.7975818	40.7373138	35.48901852	-15.2406828	-21.6005166
3.25	325	0.009	-0.528	-0.542	-85.4280378	-15.9282324	46.3523022	34.55509698	-15.62456466	-21.31976718
3.26	326	0.137	-0.608	-0.635	-88.5793068	-25.6685184	50.133825	33.58106838	-16.12303812	-21.04474734
3.27	327	0.287	-0.682	-0.602	-88.80849	-37.815228	49.560867	32.6299581	-16.71318486	-20.83275288
3.28	328	0.463	-0.706	-0.35	-94.0224078	-51.852699	42.5707794	31.66165908	-17.37781614	-20.75826834
3.29	329	0.547	-0.662	-0.426	-107.8879914	-56.8374336	30.7105488	30.58449804	-18.02525868	-20.80410498
3.3	330	0.461	-0.599	-0.402	-108.9766116	-63.4837464	22.1734746	29.55317364	-18.64405332	-20.9702628
3.31	331	0.288	-0.574	-0.306	-106.856667	-69.327918	13.178034	28.55622672	-19.31441418	-21.21663474
3.32	332	0.145	-0.502	-0.261	-104.564835	-72.2500038	3.2658606	27.62230518	-19.96185672	-21.56040954
3.33	333	-0.013	-0.4	-0.096	-97.975818	-75.630456	-4.870143	26.7857865	-20.60929926	-21.98439846
3.34	334	-0.14	-0.311	0.069	-93.7932246	-73.7396946	-12.318597	26.01802278	-21.21090516	-22.46568318
3.35	335	-0.196	-0.234	0.23	-89.954406	-62.2805346	-20.2254174	25.31328444	-21.70364904	-22.96415664
3.36	336	-0.157	-0.177	0.314	-86.1728832	-43.3156248	-29.0489706	24.62573484	-21.9729393	-23.45117094
3.37	337	-0.222	-0.148	0.204	-77.922288	-24.7517856	-32.0283522	23.99548104	-22.07607174	-23.88088944
3.38	338	-0.352	-0.114	0.245	-59.8168152	-18.7357266	-22.5745452	23.50273716	-22.16201544	-24.18455718
3.39	339	-0.498	-0.047	0.114	-43.9458786	-19.5378678	-5.3285094	23.11312572	-22.3167141	-24.3220671
3.4	340	-0.519	0.009	0.06	-26.1841806	-12.9488508	13.0634424	22.82091714	-22.55735646	-24.23039382
3.41	341	-0.644	0.031	0.062	-10.7143146	-1.432395	25.7258142	22.61465226	-22.67194806	-23.9782923
3.42	342	-0.932	0.213	0.171	-3.9534102	14.6677248	25.6685184	22.44849444	-22.63757058	-23.6631654
3.43	343	-1.135	0.516	0.28	-2.1772404	41.7686382	13.9801752	22.29952536	-22.3167141	-23.34230892
3.44	344	-1.116	0.893	-0.101	13.5218088	70.760313	-4.7555514	22.33390284	-21.65208282	-23.08447782
3.45	345	-0.877	1.134	-0.483	69.4425096	89.954406	-23.3193906	22.94123832	-20.75826834	-22.90686084
3.46	346	-0.541	0.919	-0.622	95.2829154	90.0689976	-32.2002396	23.8637007	-19.81288764	-22.82091714
3.47	347	0.054	0.526	-0.723	76.1461182	70.8176088	-26.929026	24.6085461	-19.06231266	-22.75789176
3.48	348	0.765	0.207	-1.079	44.0604702	29.7365202	-4.297185	25.02107586	-18.77583366	-22.66621848
3.49	349	1.064	-0.304	-1.479	12.3758928	-14.2093584	19.4232762	25.11274914	-18.98209854	-22.5458973
3.5	350	0.833	-1.181	-2.217	-50.9359662	-58.155237	49.274388	24.53406156	-19.70402562	-22.345362
3.51	351	-0.281	-1.513	-2.885	-99.4655088	-43.8885828	67.036086	23.3766864	-20.38584564	-21.89845476
3.52	352	-1.415	-1.844	-3.996	-141.8644008	21.4286292	65.6609868	21.68073072	-20.46033018	-21.15933894
3.53	353	-3.177	-1.537	-3.996	-236.2878792	8.5370742	73.1667366	19.01074644	-20.66659506	-20.39157522
3.54	354	-3.999	0.07	-3.996	-232.1625816	114.1332336	119.9774052	16.07720148	-19.99050462	-18.78156324
3.55	355	-3.791	0.281	-3.904	-199.5039756	155.4435054	101.8719324	13.53326796	-18.81021114	-17.2746837
3.56	356	-1.831	0.589	-3.989	-183.2892642	128.629071	51.6808116	11.39040504	-17.71013178	-16.40951712
3.57	357	-0.644	0.31	-3.564	-132.066819	131.9522274	46.2950064	9.80331138	-16.53556788	-15.6417534
3.58	358	-0.664	0.447	-2.595	-123.0713784	118.8314892	57.4103916	8.31362058	-15.48705474	-14.82242346
3.59	359	-0.833	0.36	-2.19	-106.9712586	102.1584114	45.4928652	7.0473834	-14.57032194	-14.1807105
3.6	360	-1.003	0.139	-1.277	-96.4861272	97.2882684	22.4026578	5.9587632	-13.67077788	-13.80255822
3.61	361	-0.725	0.218	-1.044	-101.6427492	98.7206634	4.0680018	4.87587258	-12.71393802	-13.63067082
3.62	362	-0.613	0.282	-0.864	-98.7779592	92.6473086	2.4637194	3.83308902	-11.82012354	-13.50462006
3.63	363	-0.622	0.264	-0.729	-92.9910834	86.9177286	5.6149884	2.85333084	-10.97787528	-13.36138056
3.64	364	-0.515	0.236	-0.772	-82.3340646	86.0582916	5.2139178	1.98243468	-10.1413566	-13.24105938
3.65	365	-0.3	0.098	-0.776	-71.7916374	91.386801	-3.8961144	1.2318597	-9.24754212	-13.22387064
3.66	366	-0.076	-0.007	-0.799	-65.0880288	96.7726062	-16.1001198	0.57868758	-8.29643184	-13.33846224
3.67	367	-0.017	0.059	-0.758	-61.306506	95.6266902	-21.772404	-0.0286479	-7.35678072	-13.5218088
3.68	368	-0.011	0.214	-0.544	-63.884817	90.527364	-22.4026578	-0.66463128	-6.4744254	-13.7223441
3.69	369	0.002	0.392	-0.459	-70.3019466	97.0017894	-20.7410796	-1.3750992	-5.52331512	-13.91142024
3.7	370	0.036	0.446	-0.526	-66.2912406	102.2157072	-19.0222056	-2.06837838	-4.52063862	-14.0947668
3.71	371	0.095	0.437	-0.558	-61.5356892	108.0598788	-14.4385416	-2.69863218	-3.4663959	-14.24946546
3.72	372	0.157	0.392	-0.598	-54.717489	111.9559932	-7.9641162	-3.26013102	-2.37204612	-14.3525979
3.73	373	0.244	0.356	-0.666	-45.9512316	112.4716554	-2.1199446	-3.74141574	-1.26623718	-14.40416412
3.74	374	0.328	0.353	-0.727	-38.2735944	110.2371192	1.8907614	-4.14248634	-0.17761698	-14.42708244
3.75	375	0.359	0.382	-0.75	-34.3201842	105.0232014	3.3231564	-4.53209778	0.88235532	-14.45000076
3.76	376	0.359	0.414	-0.741	-31.226211	98.4914802	1.9480572	-4.86441342	1.85065434	-14.47864866
3.77	377	0.381	0.445	-0.67	-24.9809688	85.657221	-1.2605076	-5.1279741	2.6929026	-14.54167404
3.78	378	0.342	0.438	-0.688	-20.9702628	75.2866812	-2.0626488	-5.3571573	3.43201842	-14.60469942
3.79	379	0.271	0.411	-0.709	-17.9908812	68.1247062	-1.0886202	-5.55196302	4.10237928	-14.66199522
3.8	380	0.205	0.379	-0.747	-14.3812458	62.165943	0.9740286	-5.74676874	4.7269035	-14.70210228
3.81	381	0.165	0.34	-0.772	-6.6463128	58.155237	3.3231564	-5.82698286	5.30559108	-14.70783186
3.82	382	0.188	0.318	-0.807	1.0886202	54.7747848	5.5576926	-5.82125328	5.84990118	-14.69064312
3.83	383	0.238	0.349	-0.817	9.3392154	52.3110654	6.3598338	-5.72958	6.37129296	-14.6677248
3.84	384	0.322	0.406	-0.856	17.4179232	46.9252602	6.4171296	-5.55196302	6.8468481	-14.6390769
3.85	385	0.395	0.425	-0.895	25.496631	37.6433406	7.1046792	-5.33423898	7.26510744	-14.610429
3.86	386	0.472	0.414	-0.925	32.2002396	26.642547	8.7089616	-5.00192334	7.54012728	-14.54167404
3.87	387	0.555	0.339	-0.944	32.085648	20.340009	9.740286	-4.6696077	7.75212174	-14.46145992
3.88	388	0.613	0.287	-1.02	31.8564648	6.016059	12.2613012	-4.3258329	7.82660628	-14.34113874
3.89	389	0.629	0.244	-0.945	37.4714532	-10.5424272	13.464513	-3.93049188	7.734933	-14.2093584
3.9	390	0.619	0.191	-0.894	36.7839036	-24.1788276	12.891555	-3.54661002	7.56877518	-14.0947668
3.91	391	0.568	0.143	-0.914	33.2888598	-33.8618178	11.0580894	-3.18564648	7.24218912	-13.97444562
3.92	392	0.532	0.075	-0.925	30.2521824	-36.669312	9.5111028	-2.85906042	6.89268474	-13.87131318
3.93	393	0.497	0.034	-0.959	27.215505	-39.7059894	9.7975818	-2.56685184	6.5030733	-13.76818074
3.94	394	0.43	0.016	-1.006	25.9549974	-46.8106686	11.0580894	-2.28610242	6.05043648	-13.65358914
3.95	395	0.389	0.009	-1.023	25.6112226	-54.144531	12.318597	-1.99962342	5.55196302	-13.53899754
3.96	396	0.374	0.031	-1.034	23.6631654	-58.2698286	12.4331886	-1.74179232	4.9847346	-13.41294678
3.97	397	0.323	0.057	-1.071	20.8556712	-57.2385042	10.7143146	-1.51260912	4.42323576	-13.30981434
3.98	398	0.265	0.063	-1.103	18.1054728	-53.3996856	8.4797784	-1.3178034	3.8961144	-13.22387064
3.99	399	0.202	0.042	-1.122	16.7876694	-47.555514	7.2192708	-1.13445684	3.43201842	-13.16084526
4	400	0.142	0.004	-1.128	15.469866	-40.1643558	6.2452422	-0.96829902	3.04240698	-13.10354946
4.01	401	0.104	-0.023	-1.096	11.5737516	-31.9710564	6.4171296	-0.84224826	2.73300966	-13.04625366
4.02	402	0.077	-0.032	-1.083	5.5576926	-23.8350528	7.161975	-0.77922288	2.49809688	-12.9774987
4.03	403	0.07	-0.011	-1.097	1.0886202	-16.2147114	7.8495246	-0.76203414	2.33766864	-12.90301416
4.04	404	0.062	0.021	-1.08	0.4583664	-10.313244	9.2246238	-0.75630456	2.2345362	-12.81134088
4.05	405	0.062	0.048	-1.03	0.9740286	-7.2192708	9.7975818	-0.7734933	2.17151082	-12.71393802
4.06	406	0.072	0.062	-0.983	2.6929026	-5.5003968	8.2505952	-0.7448454	2.1199446	-12.6337239
4.07	407	0.096	0.045	-0.93	4.7555514	-5.6722842	4.6982556	-0.69327918	2.0626488	-12.58788726
4.08	408	0.102	-0.002	-0.911	6.1306506	-8.021412	0.6302538	-0.6302538	1.98816426	-12.58215768
4.09	409	0.114	-0.053	-0.93	4.1252976	-11.5737516	-4.870143	-0.58441716	1.87357266	-12.6337239
4.1	410	0.083	-0.147	-1.014	-3.6669312	-17.9908812	-7.2765666	-0.58441716	1.69595568	-12.71393802
4.11	411	-0.121	-0.311	-1.264	-32.2575354	-31.3408026	-5.7868758	-0.90527364	1.38082878	-12.77123382
4.12	412	-0.159	-0.161	-1.288	-31.51269	-12.8342592	-12.605076	-1.22613012	1.24904844	-12.89728458
4.13	413	-0.106	-0.166	-0.795	1.7761698	13.0634424	-26.1268848	-1.22040054	1.3750992	-13.15511568
4.14	414	-0.217	-0.145	-0.798	-2.578311	17.475219	-26.4706596	-1.25477802	1.54125702	-13.41867636
4.15	415	-0.246	0.049	-0.89	-6.7609044	0	-14.610429	-1.3750992	1.41520626	-13.52753838
4.16	416	-0.079	0.121	-0.889	-6.589017	-17.18874	-3.2085648	-1.43812458	1.24331886	-13.55618628
4.17	417	0.019	0.052	-0.877	-2.3491278	-26.929026	-0.8021412	-1.4610429	0.97975818	-13.56764544
4.18	418	-0.032	-0.06	-0.882	0.286479	-32.4294228	-6.7036086	-1.44958374	0.6589017	-13.6364004
4.19	419	-0.114	-0.115	-0.9	3.8388186	-32.5440144	-15.4125702	-1.40947668	0.33231564	-13.79109906
4.2	420	-0.147	-0.132	-0.849	10.0840608	-29.7365202	-23.6058696	-1.28342592	0.00572958	-14.02028226
4.21	421	-0.137	-0.149	-0.821	12.5477802	-26.929026	-27.5592798	-1.15164558	-0.2578311	-14.2953021
4.22	422	-0.106	-0.139	-0.847	12.1467096	-26.5852512	-26.356068	-1.02559482	-0.52139178	-14.55886278
4.23	423	-0.085	-0.1	-0.883	13.9228794	-26.7571386	-23.204799	-0.87662574	-0.79068204	-14.79377556
4.24	424	-0.083	-0.037	-0.932	16.5011904	-24.8663772	-19.9962342	-0.70473834	-1.03705398	-15.00004044
4.25	425	-0.075	0.013	-0.977	18.334656	-20.340009	-18.1054728	-0.52139178	-1.24904844	-15.17765742
4.26	426	-0.071	0.041	-1.01	18.5065434	-16.2720072	-16.7303736	-0.32658606	-1.40947668	-15.34954482
4.27	427	-0.064	0.052	-1.038	17.7044022	-12.2040054	-14.7823164	-0.13750992	-1.52979786	-15.50424348
4.28	428	-0.076	0.04	-1.054	16.4438946	-8.4797784	-13.0061466	0.0286479	-1.61001198	-15.63602382
4.29	429	-0.085	0.015	-1.069	14.1520626	-4.4117766	-11.6883432	0.1718874	-1.65584862	-15.75061542
4.3	430	-0.085	-0.011	-1.089	10.599723	0	-10.8289062	0.28074942	-1.67876694	-15.85374786
4.31	431	-0.083	-0.028	-1.11	6.7609044	4.0680018	-10.2559482	0.34950438	-1.6329303	-15.9568803
4.32	432	-0.078	-0.031	-1.112	3.437748	7.5057498	-9.3392154	0.38961144	-1.55844576	-16.04855358
4.33	433	-0.078	-0.015	-1.089	0.1145916	10.7143146	-7.6203414	0.38961144	-1.45531332	-16.11730854
4.34	434	-0.078	0.013	-1.057	-1.3178034	12.5477802	-5.3285094	0.37815228	-1.32926256	-16.16887476
4.35	435	-0.073	0.037	-1.028	-2.4064236	13.9228794	-2.6356068	0.30939732	-1.2318597	-16.17460434
4.36	436	-0.067	0.05	-1.004	-3.724227	14.7823164	0	0.26929026	-1.08289062	-16.16887476
4.37	437	-0.06	0.054	-0.984	-4.9274388	15.0687954	2.3491278	0.21772404	-0.93392154	-16.14022686
4.38	438	-0.056	0.053	-0.969	-5.7868758	14.5531332	4.0680018	0.15469866	-0.79068204	-16.09439022
4.39	439	-0.057	0.046	-0.962	-6.0733548	13.4072172	5.2139178	0.09167328	-0.6589017	-16.03709442
4.4	440	-0.065	0.041	-0.951	-6.589017	12.032118	5.8441716	0	-0.57868758	-15.96260988
4.41	441	-0.077	0.049	-0.947	-7.2765666	10.6570188	6.4171296	-0.07448454	-0.47555514	-15.89385492
4.42	442	-0.086	0.069	-0.945	-7.2192708	10.1986524	7.1046792	-0.14896908	-0.3724227	-15.81937038
4.43	443	-0.084	0.094	-0.941	-6.3598338	10.313244	8.0787078	-0.21772404	-0.27501984	-15.73915626
4.44	444	-0.075	0.115	-0.942	-5.0993262	11.0007936	9.1100322	-0.26929026	-0.16615782	-15.6417534
4.45	445	-0.06	0.127	-0.944	-3.7815228	11.9748222	9.9694692	-0.36669312	-0.08021412	-15.5271618
4.46	446	-0.042	0.133	-0.95	-2.1772404	13.1207382	10.7143146	-0.38961144	0.04583664	-15.41829978
4.47	447	-0.023	0.134	-0.958	-0.3437748	14.0947668	11.2872726	-0.39534102	0.18334656	-15.30370818
4.48	448	0.003	0.131	-0.967	1.3178034	15.0687954	11.6883432	-0.38388186	0.33231564	-15.183387
4.49	449	0.03	0.121	-0.975	3.151269	16.5011904	11.9748222	-0.35523396	0.49847346	-15.06306582
4.5	450	0.054	0.107	-0.984	4.4690724	17.8189938	11.8602306	-0.3437748	0.6875496	-14.94274464
4.51	451	0.08	0.086	-0.995	5.5003968	18.5065434	11.4018642	-0.286479	0.87089616	-14.82815304
4.52	452	0.103	0.064	-1.001	6.4171296	18.5638392	10.7716104	-0.22345362	1.05424272	-14.71356144
4.53	453	0.125	0.04	-1.002	6.8182002	18.1054728	9.9121734	-0.15469866	1.23758928	-14.610429
4.54	454	0.142	0.016	-1.005	6.6463128	17.475219	9.0527364	-0.0859437	1.40947668	-14.51875572
4.55	455	0.155	-0.005	-1.008	6.1306506	16.6730778	8.1360036	-0.02291832	1.62720072	-14.45000076
4.56	456	0.165	-0.029	-1.006	4.9847346	15.5271618	7.0473834	0.02291832	1.78189938	-14.37551622
4.57	457	0.17	-0.046	-1.002	2.6356068	13.750992	5.9587632	0.05156622	1.9194093	-14.31249084
4.58	458	0.168	-0.054	-1.003	0.859437	12.2613012	4.9847346	0.06302538	2.03973048	-14.25519504
4.59	459	0.161	-0.054	-1.005	-0.4010706	10.6570188	4.2398892	0.0572958	2.14286292	-14.2093584
4.6	460	0.156	-0.047	-1.007	-1.718874	9.5111028	3.6096354	0.0572958	2.32620948	-14.19789924
4.61	461	0.151	-0.036	-1.008	-3.151269	8.3651868	3.3231564	0.0286479	2.4064236	-14.16352176
4.62	462	0.147	-0.024	-1.007	-4.1252976	7.1046792	3.151269	-0.01145916	2.47517856	-14.12914428
4.63	463	0.144	-0.011	-1.002	-4.297185	5.443101	2.9793816	-0.05156622	2.53247436	-14.0947668
4.64	464	0.141	0.001	-0.997	-3.9534102	3.6096354	2.6929026	-0.09167328	2.56685184	-14.0661189
4.65	465	0.137	0.007	-0.985	-3.3231564	1.4896908	2.1772404	-0.16615782	2.7501984	-14.08903722
4.66	466	0.13	0.013	-0.976	-2.5210152	-0.0572958	1.4896908	-0.18907614	2.74446882	-14.07757806
4.67	467	0.123	0.015	-0.97	-1.8334656	-1.432395	0.7448454	-0.21199446	2.73300966	-14.0661189
4.68	468	0.115	0.018	-0.964	-1.2032118	-2.6929026	-0.0572958	-0.22345362	2.70436176	-14.07184848
4.69	469	0.108	0.021	-0.962	-0.572958	-3.5523396	-0.9740286	-0.2291832	2.66998428	-14.07757806
4.7	470	0.1	0.026	-0.963	0.1145916	-4.010706	-1.8334656	-0.286479	2.70436176	-14.11768512
4.71	471	0.093	0.027	-0.966	0.7448454	-4.010706	-2.6356068	-0.28074942	2.6642547	-14.14633302
4.72	472	0.085	0.027	-0.972	1.2032118	-3.9534102	-3.151269	-0.26929026	2.62414764	-14.1807105
4.73	473	0.082	0.027	-0.978	1.5469866	-4.0680018	-3.5523396	-0.25210152	2.58404058	-14.21508798
4.74	474	0.078	0.026	-0.983	1.7761698	-4.1252976	-3.8388186	-0.23491278	2.54393352	-14.25519504
4.75	475	0.078	0.026	-0.989	1.8907614	-4.297185	-4.010706	-0.2578311	2.52674478	-14.30103168
4.76	476	0.076	0.025	-0.997	1.718874	-4.5263682	-4.1252976	-0.24064236	2.48663772	-14.34686832
4.77	477	0.072	0.028	-1.003	1.6042824	-4.9847346	-4.1252976	-0.2291832	2.4350715	-14.38697538
4.78	478	0.071	0.029	-1.004	1.6615782	-5.3858052	-4.1252976	-0.21199446	2.38350528	-14.43281202
4.79	479	0.069	0.03	-1.003	1.432395	-5.7868758	-4.1252976	-0.19480572	2.32620948	-14.47291908
4.8	480	0.065	0.029	-0.999	1.3178034	-6.0733548	-3.9534102	-0.22345362	2.28037284	-14.51875572
4.81	481	0.061	0.027	-0.998	1.0886202	-6.4171296	-3.7815228	-0.21199446	2.21734746	-14.55886278
4.82	482	0.052	0.027	-0.996	0.8021412	-6.7036086	-3.4950438	-0.20626488	2.1485925	-14.59324026
4.83	483	0.044	0.028	-0.994	0.6302538	-6.5317212	-3.0939732	-0.2005353	2.08556712	-14.62761774
4.84	484	0.037	0.029	-0.993	0.3437748	-6.302538	-2.6929026	-0.19480572	2.02254174	-14.65626564
4.85	485	0.029	0.034	-0.991	0.1145916	-5.9014674	-2.3491278	-0.2578311	1.93659804	-14.67345438
4.86	486	0.023	0.034	-0.989	0.0572958	-5.5003968	-1.9480572	-0.2578311	1.88503182	-14.69064312
4.87	487	0.017	0.037	-0.987	0	-5.0420304	-1.5469866	-0.2578311	1.8334656	-14.70783186
4.88	488	0.012	0.035	-0.983	-0.0572958	-4.4117766	-1.2032118	-0.2578311	1.78762896	-14.7250206
4.89	489	0.009	0.035	-0.982	-0.286479	-3.437748	-0.7448454	-0.2578311	1.75325148	-14.73075018
4.9	490	0.008	0.033	-0.98	-0.1718874	-2.6356068	-0.4583664	-0.41825934	1.61001198	-14.6963727
4.91	491	0.009	0.031	-0.98	0	-2.0626488	-0.3437748	-0.41825934	1.58709366	-14.70210228
4.92	492	0.011	0.029	-0.981	0.1145916	-1.3178034	-0.1718874	-0.41825934	1.5756345	-14.70210228
4.93	493	0.011	0.026	-0.983	0	-0.6302538	-0.1718874	-0.41825934	1.56990492	-14.70783186
4.94	494	0.011	0.024	-0.983	0	0	-0.1145916	-0.41825934	1.56990492	-14.70783186
4.95	495	0.014	0.023	-0.984	0	0.4583664	0	-0.8307891	1.29488508	-14.61615858
4.96	496	0.016	0.022	-0.984	-0.0572958	0.859437	0.1145916	-0.8307891	1.30634424	-14.61615858
4.97	497	0.019	0.021	-0.985	-0.1145916	1.2605076	0.0572958	-0.8307891	1.3178034	-14.61615858
4.98	498	0.023	0.021	-0.986	-0.2291832	1.6042824	0.2291832	-0.83651868	1.33499214	-14.610429
4.99	499	0.025	0.02	-0.988	-0.4583664	1.8907614	0.3437748	-0.84224826	1.35218088	-14.60469942
5	500	0.027	0.02	-0.991	-0.572958	2.1199446	0.5156622	-0.91100322	1.36364004	-14.59324026
5.01	501	0.032	0.02	-0.993	-0.4583664	2.2345362	0.6875496	-0.9167328	1.38655836	-14.58751068
5.02	502	0.036	0.02	-0.993	-0.3437748	2.578311	0.8021412	-0.92246238	1.40947668	-14.57605152
5.03	503	0.041	0.021	-0.991	-0.5156622	2.8074942	0.9167328	-0.92819196	1.43812458	-14.57032194
5.04	504	0.048	0.021	-0.993	-0.4583664	2.9220858	1.0886202	-0.93392154	1.46677248	-14.55886278
5.05	505	0.052	0.021	-0.993	-0.3437748	2.6929026	1.2032118	-0.98548776	1.53552744	-14.5531332
5.06	506	0.056	0.02	-0.991	-0.4010706	2.4064236	1.2032118	-0.99121734	1.56417534	-14.54167404
5.07	507	0.059	0.021	-0.99	-0.5156622	2.1772404	1.3750992	-0.99694692	1.58136408	-14.53021488
5.08	508	0.06	0.02	-0.988	-0.4010706	2.1199446	1.3750992	-0.99694692	1.6042824	-14.51302614
5.09	509	0.06	0.02	-0.985	-0.2291832	1.9480572	1.2605076	-1.0026765	1.62720072	-14.50156698
5.1	510	0.06	0.018	-0.979	-0.286479	2.0626488	1.2605076	-1.04851314	1.70741484	-14.50156698
5.11	511	0.063	0.015	-0.977	-0.7448454	2.0626488	1.145916	-1.0599723	1.73033316	-14.49010782
5.12	512	0.064	0.013	-0.979	-0.859437	1.9480572	0.9740286	-1.06570188	1.75325148	-14.47864866
5.13	513	0.065	0.016	-0.983	-0.7448454	1.8334656	0.8021412	-1.07143146	1.77044022	-14.47291908
5.14	514	0.064	0.019	-0.987	-0.859437	1.8907614	0.8021412	-1.08289062	1.78762896	-14.46145992
5.15	515	0.066	0.026	-0.992	-0.9740286	1.8334656	0.7448454	-1.16310474	1.87930224	-14.47291908
5.16	516	0.066	0.033	-0.996	-0.7448454	1.7761698	0.7448454	-1.1745639	1.89649098	-14.46145992
5.17	517	0.067	0.034	-0.996	-0.286479	1.718874	0.6875496	-1.1745639	1.91367972	-14.45573034
5.18	518	0.069	0.035	-0.996	-0.1145916	1.6042824	0.5156622	-1.18029348	1.92513888	-14.45000076
5.19	519	0.069	0.034	-0.993	0.1145916	1.432395	0.5156622	-1.1745639	1.94232762	-14.44427118
5.2	520	0.068	0.034	-0.988	0.2291832	1.0313244	0.4583664	-1.33499214	2.10275586	-14.47291908
5.21	521	0.069	0.031	-0.987	0.4010706	0.5156622	0.4010706	-1.32926256	2.10848544	-14.4671895
5.22	522	0.069	0.031	-0.986	0.286479	0.3437748	0.3437748	-1.32926256	2.11421502	-14.4671895
5.23	523	0.068	0.033	-0.988	0.0572958	0.2291832	0.1718874	-1.32926256	2.11421502	-14.46145992
5.24	524	0.067	0.032	-0.987	0.0572958	0.0572958	0.2291832	-1.32353298	2.11421502	-14.46145992
5.25	525	0.067	0.032	-0.989	0.1145916	0	0.2291832	-1.67303736	2.4064236	-14.5244853
5.26	526	0.067	0.031	-0.988	0.1145916	0	0.1718874	-1.66730778	2.4064236	-14.51875572
5.27	527	0.067	0.03	-0.99	0	-0.1718874	0.1718874	-1.66730778	2.4064236	-14.51875572
5.28	528	0.066	0.028	-0.99	0	-0.3437748	0.2291832	-1.66730778	2.40069402	-14.51875572
5.29	529	0.066	0.025	-0.989	0.0572958	-0.5156622	0.0572958	-1.66730778	2.39496444	-14.51875572
5.3	530	0.064	0.024	-0.989	-0.1145916	-0.5156622	0	-1.81054728	2.50955604	-14.54167404
5.31	531	0.061	0.024	-0.99	-0.1145916	-0.572958	0	-1.81054728	2.50382646	-14.54167404
5.32	532	0.06	0.026	-0.989	0	-0.7448454	0	-1.81054728	2.49809688	-14.54167404
5.33	533	0.059	0.026	-0.989	0.0572958	-0.7448454	-0.0572958	-1.81054728	2.48663772	-14.54167404
5.34	534	0.059	0.026	-0.988	0	-0.6875496	-0.1145916	-1.81054728	2.48090814	-14.54740362
5.35	535	0.058	0.023	-0.986	0.0572958	-0.7448454	-0.1718874	-1.86784308	2.50955604	-14.5531332
5.36	536	0.057	0.018	-0.987	-0.1718874	-0.7448454	-0.1145916	-1.87357266	2.50382646	-14.55886278
5.37	537	0.054	0.018	-0.986	-0.2291832	-0.6875496	-0.1145916	-1.87357266	2.4923673	-14.55886278
5.38	538	0.053	0.021	-0.987	-0.286479	-0.7448454	-0.1718874	-1.87930224	2.48663772	-14.55886278
5.39	539	0.05	0.024	-0.986	-0.1145916	-0.8021412	-0.2291832	-1.87930224	2.48090814	-14.56459236
5.4	540	0.05	0.026	-0.986	-0.1718874	-0.7448454	-0.286479	-1.95951636	2.4637194	-14.56459236
5.41	541	0.049	0.027	-0.986	-0.0572958	-0.6302538	-0.2291832	-1.95951636	2.45798982	-14.56459236
5.42	542	0.049	0.028	-0.99	0	-0.4583664	-0.286479	-1.95951636	2.45226024	-14.57032194
5.43	543	0.049	0.026	-0.99	0.0572958	-0.4010706	-0.2291832	-1.95951636	2.44653066	-14.57032194
5.44	544	0.049	0.025	-0.989	0.1718874	-0.5156622	-0.2291832	-1.95951636	2.44653066	-14.57032194
5.45	545	0.049	0.025	-0.989	0.3437748	-0.4583664	-0.1145916	-2.0340009	2.42361234	-14.57032194
5.46	546	0.048	0.026	-0.986	0.3437748	-0.286479	-0.1145916	-2.02827132	2.42361234	-14.57032194
5.47	547	0.046	0.026	-0.987	0.3437748	-0.1145916	-0.0572958	-2.02827132	2.42361234	-14.57032194
5.48	548	0.046	0.028	-0.986	0.3437748	0	0	-2.02254174	2.41788276	-14.57032194
5.49	549	0.047	0.029	-0.987	0.3437748	0	0	-2.01681216	2.41788276	-14.57032194
5.5	550	0.049	0.028	-0.988	0.3437748	0.1145916	0	-2.1485925	2.4064236	-14.56459236
5.51	551	0.048	0.027	-0.987	0.1718874	0.286479	0.0572958	-2.1485925	2.41215318	-14.56459236
5.52	552	0.049	0.026	-0.988	0.0572958	0.286479	0.1718874	-2.1485925	2.41215318	-14.56459236
5.53	553	0.05	0.028	-0.987	0	0.4010706	0.2291832	-2.1485925	2.41788276	-14.55886278
5.54	554	0.049	0.029	-0.987	0.0572958	0.4010706	0.1718874	-2.1485925	2.42361234	-14.55886278
5.55	555	0.049	0.029	-0.988	0	0.6302538	0.2291832	-2.22307704	2.41788276	-14.5531332
5.56	556	0.05	0.03	-0.988	-0.0572958	0.6302538	0.1718874	-2.22307704	2.42361234	-14.54740362
5.57	557	0.051	0.029	-0.99	-0.0572958	0.7448454	0.1718874	-2.22307704	2.42934192	-14.54740362
5.58	558	0.052	0.027	-0.99	0.0572958	0.9167328	0.286479	-2.22307704	2.44080108	-14.54740362
5.59	559	0.052	0.026	-0.989	0.1718874	1.0313244	0.4010706	-2.22307704	2.45226024	-14.54167404
5.6	560	0.054	0.026	-0.987	0	1.145916	0.3437748	-2.24599536	2.47517856	-14.54167404
5.61	561	0.056	0.027	-0.988	-0.1145916	1.3178034	0.286479	-2.24599536	2.4923673	-14.53594446
5.62	562	0.059	0.029	-0.988	0	1.3178034	0.3437748	-2.24599536	2.50382646	-14.53594446
5.63	563	0.062	0.028	-0.988	0	1.2032118	0.3437748	-2.24599536	2.51528562	-14.53021488
5.64	564	0.065	0.027	-0.987	-0.0572958	1.145916	0.286479	-2.24599536	2.52674478	-14.5244853
5.65	565	0.066	0.026	-0.986	-0.2291832	0.9740286	0.3437748	-2.27464326	2.58404058	-14.53594446
5.66	566	0.065	0.025	-0.987	-0.286479	0.572958	0.3437748	-2.27464326	2.58977016	-14.53021488
5.67	567	0.065	0.022	-0.982	-0.3437748	0.3437748	0.3437748	-2.28037284	2.59549974	-14.5244853
5.68	568	0.065	0.019	-0.981	-0.572958	0.2291832	0.2291832	-2.28610242	2.59549974	-14.5244853
5.69	569	0.063	0.018	-0.984	-0.6302538	0.0572958	0.1145916	-2.291832	2.60122932	-14.5244853
5.7	570	0.06	0.021	-0.987	-0.3437748	-0.0572958	0.0572958	-2.33766864	2.6642547	-14.53594446
5.71	571	0.059	0.023	-0.987	-0.4583664	-0.1145916	0	-2.34339822	2.6642547	-14.53594446
5.72	572	0.059	0.028	-0.991	-0.7448454	-0.1145916	0	-2.3491278	2.65852512	-14.53594446
5.73	573	0.059	0.032	-0.994	-0.4583664	-0.2291832	0	-2.35485738	2.65852512	-14.53594446
5.74	574	0.06	0.034	-0.994	-0.2291832	-0.1718874	0	-2.35485738	2.65852512	-14.53594446
5.75	575	0.061	0.033	-0.992	-0.1145916	-0.1718874	0	-2.49809688	2.74446882	-14.5531332
5.76	576	0.06	0.032	-0.992	0.1145916	-0.286479	0	-2.4923673	2.73873924	-14.5531332
5.77	577	0.059	0.031	-0.99	0.3437748	-0.286479	0	-2.4923673	2.73873924	-14.5531332
5.78	578	0.059	0.03	-0.986	0.4010706	-0.5156622	0	-2.48663772	2.73300966	-14.5531332
5.79	579	0.057	0.031	-0.985	0.2291832	-0.5156622	0	-2.48090814	2.72728008	-14.5531332
5.8	580	0.057	0.031	-0.986	0.1718874	-0.4010706	0	-2.5496631	2.7215505	-14.5531332
5.81	581	0.055	0.033	-0.987	0.2291832	-0.3437748	0.0572958	-2.54393352	2.71582092	-14.5531332
5.82	582	0.055	0.032	-0.988	0.1718874	-0.1718874	0.0572958	-2.54393352	2.71582092	-14.54740362
5.83	583	0.054	0.031	-0.99	0.286479	0	0	-2.53820394	2.71582092	-14.54740362
5.84	584	0.055	0.028	-0.988	0.1145916	0.1718874	0.1145916	-2.53820394	2.71582092	-14.54740362
5.85	585	0.055	0.028	-0.988	0.2291832	0.1145916	0.1145916	-2.57258142	2.71009134	-14.54740362
5.86	586	0.056	0.026	-0.989	0.2291832	0.0572958	0.1145916	-2.56685184	2.71009134	-14.54167404
5.87	587	0.056	0.024	-0.987	0	0.0572958	0.1145916	-2.56685184	2.71582092	-14.54167404
5.88	588	0.054	0.024	-0.989	-0.1718874	0.0572958	0	-2.57258142	2.71582092	-14.54167404
5.89	589	0.053	0.026	-0.989	-0.1718874	0.1145916	0.0572958	-2.57258142	2.71582092	-14.54167404
5.9	590	0.055	0.027	-0.989	-0.1145916	0	0	-2.6069589	2.71009134	-14.54167404
5.91	591	0.055	0.029	-0.99	-0.0572958	0	0	-2.61268848	2.71009134	-14.54167404
5.92	592	0.056	0.027	-0.989	0	-0.0572958	0	-2.61268848	2.71009134	-14.54167404
5.93	593	0.056	0.024	-0.988	0.0572958	-0.0572958	0	-2.6069589	2.71009134	-14.54167404
5.94	594	0.056	0.023	-0.987	0.0572958	-0.0572958	0	-2.6069589	2.71009134	-14.53594446
5.95	595	0.054	0.023	-0.986	0.0572958	-0.1145916	0.1145916	-2.60122932	2.68717302	-14.53594446
5.96	596	0.053	0.025	-0.985	0.1718874	0	0.1145916	-2.59549974	2.68717302	-14.53021488
5.97	597	0.054	0.027	-0.986	0.2291832	-0.0572958	0	-2.59549974	2.68717302	-14.53021488
5.98	598	0.052	0.03	-0.985	0.3437748	0.0572958	0	-2.58977016	2.68717302	-14.53021488
5.99	599	0.054	0.03	-0.988	0.3437748	0.2291832	0	-2.58977016	2.6929026	-14.53021488
6	600	0.055	0.028	-0.988	0.3437748	0.3437748	0	-2.59549974	2.6929026	-14.53021488
6.01	601	0.056	0.026	-0.989	0.2291832	0.4010706	0.0572958	-2.58977016	2.69863218	-14.53021488
6.02	602	0.057	0.027	-0.989	0.286479	0.1718874	0.0572958	-2.58977016	2.69863218	-14.53021488
6.03	603	0.057	0.027	-0.987	0.2291832	0.0572958	0.0572958	-2.58404058	2.69863218	-14.53021488
6.04	604	0.057	0.028	-0.987	0.0572958	0.1145916	0.0572958	-2.58404058	2.69863218	-14.5244853
6.05	605	0.056	0.029	-0.988	0	0.2291832	0.0572958	-2.61268848	2.71009134	-14.53021488
6.06	606	0.056	0.029	-0.988	0.0572958	0.2291832	0.0572958	-2.61268848	2.71582092	-14.5244853
6.07	607	0.057	0.029	-0.988	0.0572958	0.1718874	0.0572958	-2.61268848	2.71582092	-14.5244853
6.08	608	0.056	0.029	-0.99	0.1718874	0.1718874	0.1145916	-2.61268848	2.7215505	-14.5244853
6.09	609	0.056	0.03	-0.989	0.1718874	0.2291832	0.0572958	-2.6069589	2.7215505	-14.5244853
6.1	610	0.055	0.03	-0.991	0.1718874	0.1718874	0.0572958	-2.6356068	2.7215505	-14.5244853
6.11	611	0.056	0.03	-0.99	0.2291832	0.2291832	0.0572958	-2.62987722	2.7215505	-14.5244853
6.12	612	0.057	0.029	-0.988	0.286479	0.1718874	0.0572958	-2.62414764	2.7215505	-14.51875572
6.13	613	0.057	0.029	-0.989	0.3437748	0.1145916	0.1145916	-2.62414764	2.72728008	-14.51875572
6.14	614	0.058	0.027	-0.989	0.4583664	0.1718874	0.0572958	-2.61841806	2.72728008	-14.51875572
6.15	615	0.057	0.025	-0.988	0.286479	0.0572958	0	-2.61841806	2.7501984	-14.5244853
6.16	616	0.058	0.026	-0.988	0.1145916	0.2291832	0	-2.61841806	2.7501984	-14.5244853
6.17	617	0.059	0.027	-0.987	0.1145916	0.1718874	0	-2.61268848	2.7501984	-14.5244853
6.18	618	0.06	0.028	-0.986	0.1718874	0.1718874	0	-2.61268848	2.75592798	-14.5244853
6.19	619	0.062	0.027	-0.986	0.2291832	0	0	-2.61268848	2.75592798	-14.5244853
6.2	620	0.061	0.027	-0.985	0.1718874	-0.0572958	0	-2.61841806	2.78457588	-14.53021488
6.21	621	0.06	0.025	-0.986	0.2291832	-0.1145916	0	-2.61841806	2.7788463	-14.53021488
6.22	622	0.058	0.025	-0.988	0.1718874	-0.1145916	0	-2.61268848	2.7788463	-14.53021488
6.23	623	0.058	0.026	-0.987	0.0572958	-0.1718874	-0.0572958	-2.61268848	2.7788463	-14.53021488
6.24	624	0.058	0.027	-0.987	0	-0.2291832	-0.1145916	-2.61268848	2.77311672	-14.53021488
6.25	625	0.057	0.027	-0.988	0.0572958	-0.3437748	-0.1145916	-2.62414764	2.77311672	-14.53594446
6.26	626	0.056	0.027	-0.988	0	-0.4010706	-0.1145916	-2.62414764	2.76738714	-14.53594446
6.27	627	0.056	0.027	-0.989	0	-0.3437748	-0.1718874	-2.62414764	2.76738714	-14.53594446
6.28	628	0.055	0.025	-0.988	0	-0.2291832	-0.1145916	-2.62414764	2.76165756	-14.54167404
6.29	629	0.056	0.026	-0.988	0.0572958	-0.1718874	-0.1145916	-2.62414764	2.76165756	-14.54167404
6.3	630	0.054	0.025	-0.988	0.1145916	-0.0572958	-0.1145916	-2.6356068	2.74446882	-14.53594446
6.31	631	0.055	0.026	-0.988	0	0.1145916	-0.1145916	-2.6356068	2.74446882	-14.54167404
6.32	632	0.056	0.029	-0.989	-0.1718874	0.2291832	-0.0572958	-2.6356068	2.7501984	-14.54167404
6.33	633	0.058	0.029	-0.989	-0.1718874	0.286479	-0.1145916	-2.6356068	2.7501984	-14.54167404
6.34	634	0.058	0.03	-0.989	-0.1145916	0.1145916	0	-2.64133638	2.7501984	-14.54167404
6.35	635	0.058	0.03	-0.99	-0.0572958	-0.0572958	0.0572958	-2.66998428	2.76738714	-14.54167404
6.36	636	0.057	0.026	-0.988	0	-0.2291832	0.0572958	-2.66998428	2.76165756	-14.54167404
6.37	637	0.057	0.022	-0.983	-0.1145916	-0.1145916	0.0572958	-2.66998428	2.76165756	-14.54167404
6.38	638	0.057	0.019	-0.979	-0.572958	0	0	-2.67571386	2.76165756	-14.54167404
6.39	639	0.057	0.018	-0.983	-0.859437	0	0	-2.68717302	2.76165756	-14.54167404
6.4	640	0.054	0.02	-0.985	-0.6875496	-0.0572958	0	-2.68144344	2.75592798	-14.54167404
6.41	641	0.053	0.022	-0.987	-0.6302538	-0.1718874	0	-2.68717302	2.75592798	-14.54167404
6.42	642	0.054	0.027	-0.989	-0.859437	-0.1718874	0	-2.69863218	2.7501984	-14.53594446
6.43	643	0.054	0.032	-0.991	-0.6302538	-0.2291832	0	-2.70436176	2.7501984	-14.53594446
6.44	644	0.054	0.032	-0.991	-0.4010706	-0.286479	0	-2.71009134	2.74446882	-14.53594446
6.45	645	0.056	0.03	-0.991	-0.2291832	-0.1718874	0	-2.72728008	2.73300966	-14.53594446
6.46	646	0.057	0.028	-0.99	0	0	-0.0572958	-2.72728008	2.73300966	-14.53594446
6.47	647	0.056	0.029	-0.989	0.0572958	-0.0572958	0	-2.72728008	2.73300966	-14.53594446
6.48	648	0.055	0.029	-0.987	0.1145916	-0.1718874	0	-2.72728008	2.73300966	-14.53594446
6.49	649	0.056	0.029	-0.985	0	-0.0572958	0	-2.72728008	2.73300966	-14.53594446
6.5	650	0.057	0.029	-0.985	-0.0572958	0	0.1145916	-2.73873924	2.73873924	-14.53594446
6.51	651	0.058	0.029	-0.987	-0.1145916	0.2291832	0.1718874	-2.73873924	2.74446882	-14.53594446
6.52	652	0.058	0.028	-0.988	-0.0572958	0.1718874	0.2291832	-2.74446882	2.74446882	-14.53021488
6.53	653	0.059	0.029	-0.989	-0.1718874	0.2291832	0.286479	-2.74446882	2.7501984	-14.53021488
6.54	654	0.059	0.028	-0.99	-0.286479	0.1718874	0.1718874	-2.74446882	2.7501984	-14.53021488
6.55	655	0.057	0.028	-0.989	-0.2291832	0.0572958	0.1718874	-2.75592798	2.75592798	-14.5244853
6.56	656	0.057	0.029	-0.988	0	0	0	-2.75592798	2.75592798	-14.5244853
6.57	657	0.058	0.027	-0.988	0	0	0	-2.75592798	2.75592798	-14.5244853
6.58	658	0.057	0.025	-0.989	-0.1718874	0.0572958	0	-2.75592798	2.75592798	-14.5244853
6.59	659	0.057	0.026	-0.988	-0.0572958	0.0572958	0	-2.75592798	2.75592798	-14.5244853
6.6	660	0.057	0.027	-0.987	-0.0572958	0.0572958	0	-2.76738714	2.76738714	-14.53021488
6.61	661	0.058	0.029	-0.988	0	0.0572958	0	-2.76738714	2.76738714	-14.53021488
6.62	662	0.06	0.027	-0.988	-0.0572958	0.1718874	-0.1145916	-2.76738714	2.76738714	-14.53021488
6.63	663	0.061	0.025	-0.986	0	0	0	-2.76738714	2.76738714	-14.53021488
6.64	664	0.059	0.022	-0.988	0.0572958	0	0	-2.76738714	2.76738714	-14.53021488
6.65	665	0.057	0.021	-0.987	0.1145916	-0.1145916	0	-2.73300966	2.77311672	-14.53021488
6.66	666	0.056	0.022	-0.986	0	-0.0572958	0	-2.73873924	2.77311672	-14.53021488
6.67	667	0.055	0.026	-0.987	0	-0.0572958	-0.0572958	-2.73873924	2.77311672	-14.53021488
6.68	668	0.055	0.028	-0.987	0.0572958	0	-0.1145916	-2.73300966	2.76738714	-14.53594446
6.69	669	0.054	0.028	-0.987	0	0	-0.1718874	-2.73300966	2.76738714	-14.53594446
6.7	670	0.054	0.029	-0.988	0.0572958	0	-0.2291832	-2.74446882	2.76165756	-14.53594446
6.71	671	0.054	0.028	-0.989	0.1718874	0.1718874	-0.1145916	-2.74446882	2.76165756	-14.54167404
6.72	672	0.055	0.028	-0.988	0.286479	0.1718874	-0.1145916	-2.73873924	2.76738714	-14.54167404
6.73	673	0.054	0.028	-0.985	0.4010706	0.1718874	0	-2.73873924	2.76738714	-14.54167404
6.74	674	0.053	0.028	-0.985	0.3437748	0.1718874	-0.0572958	-2.73300966	2.76738714	-14.54167404
6.75	675	0.054	0.029	-0.984	0.286479	0.2291832	-0.1145916	-2.73873924	2.76738714	-14.54167404
6.76	676	0.053	0.029	-0.985	0.2291832	0.4010706	-0.0572958	-2.73300966	2.77311672	-14.54167404
6.77	677	0.053	0.029	-0.987	0.1145916	0.286479	0	-2.73300966	2.77311672	-14.54167404
6.78	678	0.054	0.03	-0.988	0.1145916	0.286479	-0.0572958	-2.73300966	2.7788463	-14.54740362
6.79	679	0.055	0.03	-0.99	0.1145916	0.4583664	0	-2.73300966	2.7788463	-14.54740362
6.8	680	0.057	0.027	-0.99	0	0.572958	0	-2.72728008	2.79030546	-14.54740362
6.81	681	0.058	0.026	-0.989	0	0.5156622	0	-2.72728008	2.79603504	-14.54740362
6.82	682	0.058	0.027	-0.99	0	0.5156622	0.1145916	-2.72728008	2.80176462	-14.54740362
