TimeStamp(s)	FrameCounter	AccX	AccY	AccZ	GyrX	GyrY	GyrZ	EulerX	EulerY	EulerZ
0.01	1	-0.007	-0.972	0.219	1.2605076	2.1772404	-3.437748	102.9892005	-2.22307704	-8.85793068
0.02	2	0.018	-0.981	0.201	1.8907614	2.578311	-4.4117766	103.0063892	-2.18296998	-8.81782362
0.03	3	0.021	-0.991	0.208	2.005353	2.2345362	-3.8961144	103.023578	-2.15432208	-8.78917572
0.04	4	0.034	-0.987	0.227	2.7501984	2.6929026	-4.010706	103.0522259	-2.1199446	-8.75479824
0.05	5	0.03	-0.977	0.207	2.6929026	1.6042824	-4.583664	103.063685	-2.05691922	-8.72042076
0.06	6	0.018	-0.983	0.205	3.3231564	0.286479	-4.5263682	103.0980625	-2.01681216	-8.7089616
0.07	7	0.016	-1.003	0.209	3.4950438	-0.286479	-4.4690724	103.13244	-1.97097552	-8.70323202
0.08	8	0.016	-1.016	0.212	2.8074942	0	-4.3544808	103.1610879	-1.92513888	-8.69177286
0.09	9	0.018	-1.012	0.219	2.291832	-0.3437748	-3.9534102	103.1840062	-1.8907614	-8.68604328
0.1	10	0.016	-0.992	0.206	1.3750992	-1.3750992	-3.3231564	103.1840062	-1.82773602	-8.68604328
0.11	11	0.012	-0.978	0.208	1.6615782	-2.8074942	-2.578311	103.201195	-1.79908812	-8.70323202
0.12	12	0.01	-0.982	0.206	2.1772404	-3.6096354	-2.1199446	103.2241133	-1.76471064	-8.7376095
0.13	13	0.009	-0.985	0.205	2.291832	-3.3804522	-2.291832	103.2470316	-1.73606274	-8.76052782
0.14	14	0.012	-0.979	0.21	2.291832	-2.9220858	-2.5210152	103.2756795	-1.70168526	-8.78344614
0.15	15	0.023	-0.968	0.212	2.2345362	-2.291832	-2.5210152	103.2871387	-1.65011904	-8.7949053
0.16	16	0.029	-0.959	0.213	2.5210152	-2.291832	-1.8907614	103.310057	-1.62720072	-8.81209404
0.17	17	0.034	-0.951	0.215	3.2085648	-2.7501984	-0.9740286	103.3444345	-1.61001198	-8.83501236
0.18	18	0.036	-0.946	0.21	3.6669312	-3.2658606	-0.0572958	103.3845415	-1.59855282	-8.86366026
0.19	19	0.028	-0.947	0.21	4.297185	-4.5263682	0.9740286	103.4303782	-1.59855282	-8.9094969
0.2	20	0.022	-0.954	0.223	5.2139178	-5.7868758	1.9480572	103.4819444	-1.59282324	-8.9667927
0.21	21	0.021	-0.964	0.227	5.8441716	-6.4171296	3.0366774	103.5449698	-1.6042824	-9.03554766
0.22	22	0.018	-0.974	0.225	6.1306506	-6.7036086	4.1252976	103.6137247	-1.62720072	-9.1100322
0.23	23	0.011	-0.981	0.233	6.7609044	-6.4744254	5.2139178	103.6824797	-1.6615782	-9.18451674
0.24	24	0.004	-0.98	0.232	6.6463128	-5.9587632	5.8441716	103.7512346	-1.70168526	-9.2532717
0.25	25	-0.004	-0.975	0.23	6.4744254	-5.443101	5.9587632	103.8199896	-1.73606274	-9.31629708
0.26	26	-0.008	-0.969	0.231	6.7036086	-4.9847346	5.9014674	103.8887446	-1.78189938	-9.37932246
0.27	27	-0.01	-0.969	0.23	7.1046792	-4.297185	5.8441716	103.9632291	-1.82773602	-9.43661826
0.28	28	-0.012	-0.981	0.223	7.448454	-3.9534102	6.016059	104.0434432	-1.87357266	-9.48818448
0.29	29	-0.015	-0.99	0.232	8.021412	-4.010706	6.875496	104.1236573	-1.93086846	-9.5397507
0.3	30	-0.01	-0.991	0.24	8.1932994	-3.9534102	7.6203414	104.209601	-1.98816426	-9.5970465
0.31	31	-0.008	-0.989	0.236	8.1932994	-3.9534102	8.0787078	104.2955447	-2.05118964	-9.6543423
0.32	32	0	-0.986	0.243	8.880849	-3.6096354	8.307891	104.387218	-2.12567418	-9.70590852
0.33	33	0.01	-0.988	0.252	9.3392154	-3.3231564	8.3651868	104.4846209	-2.19442914	-9.75747474
0.34	34	0.015	-0.989	0.256	9.453807	-3.3231564	8.5370742	104.5820237	-2.26891368	-9.80904096
0.35	35	0.02	-0.984	0.262	9.2819196	-3.6096354	8.8235532	104.6794266	-2.33193906	-9.86060718
0.36	36	0.024	-0.972	0.268	9.0527364	-4.010706	9.1100322	104.7768295	-2.4064236	-9.92363256
0.37	37	0.023	-0.967	0.267	9.1100322	-4.4690724	9.2246238	104.8685027	-2.48663772	-9.98665794
0.38	38	0.024	-0.971	0.275	9.6829902	-4.010706	9.1100322	104.9716352	-2.56112226	-10.04968332
0.39	39	0.018	-0.982	0.279	10.026765	-3.437748	9.2246238	105.0804972	-2.6356068	-10.10697912
0.4	40	0.003	-0.99	0.28	9.8548776	-3.151269	9.8548776	105.1779001	-2.71582092	-10.15854534
0.41	41	-0.013	-0.985	0.285	9.6829902	-2.86479	10.7143146	105.2810325	-2.81322378	-10.21011156
0.42	42	-0.028	-0.981	0.291	9.9694692	-1.8907614	11.2872726	105.3841649	-2.91062664	-10.26167778
0.43	43	-0.039	-0.986	0.297	10.3705398	-0.286479	11.6310474	105.493027	-3.02521824	-10.29032568
0.44	44	-0.052	-0.997	0.298	10.026765	1.0313244	12.3758928	105.5961594	-3.14553942	-10.313244
0.45	45	-0.057	-0.993	0.294	9.0527364	2.2345362	13.8655836	105.6878327	-3.28304934	-10.33043274
0.46	46	-0.05	-0.986	0.289	8.2505952	2.7501984	15.0687954	105.7737764	-3.43201842	-10.3418919
0.47	47	-0.041	-0.983	0.285	7.8495246	2.86479	15.9855282	105.8539905	-3.59244666	-10.35908064
0.48	48	-0.033	-0.986	0.28	7.5057498	2.578311	16.6730778	105.9342046	-3.76433406	-10.37626938
0.49	49	-0.031	-0.992	0.272	6.5317212	2.2345362	17.4179232	106.0029596	-3.93622146	-10.40491728
0.5	50	-0.031	-0.99	0.269	5.5003968	2.005353	17.8189938	106.0545258	-4.10237928	-10.43356518
0.51	51	-0.03	-0.981	0.268	4.5263682	1.4896908	17.761698	106.106092	-4.27999626	-10.46794266
0.52	52	-0.028	-0.97	0.272	3.8388186	0.9167328	17.18874	106.1461991	-4.44615408	-10.50232014
0.53	53	-0.028	-0.965	0.269	3.5523396	0	16.4438946	106.1863061	-4.60085274	-10.54815678
0.54	54	-0.031	-0.964	0.27	3.4950438	-0.0572958	15.756345	106.2264132	-4.74982182	-10.59399342
0.55	55	-0.036	-0.966	0.28	3.8961144	0.1718874	15.2406828	106.2665203	-4.88733174	-10.63410048
0.56	56	-0.046	-0.966	0.279	3.8388186	0.4583664	15.183387	106.3123569	-5.03630082	-10.66847796
0.57	57	-0.066	-0.964	0.28	4.010706	0.6875496	15.0687954	106.352464	-5.17954032	-10.70858502
0.58	58	-0.086	-0.968	0.293	4.3544808	1.6615782	15.0687954	106.3983006	-5.3285094	-10.73150334
0.59	59	-0.1	-0.972	0.293	3.5523396	3.0939732	15.2979786	106.4384077	-5.48320806	-10.74869208
0.6	60	-0.118	-0.977	0.285	3.3231564	3.8388186	15.5271618	106.4670556	-5.6436363	-10.75442166
0.61	61	-0.107	-0.991	0.28	3.3231564	4.7555514	15.5271618	106.501433	-5.80979412	-10.75442166
0.62	62	-0.085	-0.988	0.296	3.3231564	4.2398892	15.2406828	106.5358105	-5.96449278	-10.75442166
0.63	63	-0.066	-0.992	0.285	3.9534102	3.437748	14.9542038	106.5759176	-6.11919144	-10.76588082
0.64	64	-0.017	-0.996	0.281	2.4064236	3.3804522	14.4385416	106.6045655	-6.26816052	-10.7716104
0.65	65	0.008	-1.002	0.281	2.578311	1.0313244	14.32395	106.6274838	-6.38275212	-10.8002583
0.66	66	0.014	-1.004	0.286	2.4637194	-1.2032118	15.4125702	106.6561317	-6.52599162	-10.8575541
0.67	67	0.012	-1.002	0.292	3.3804522	-2.1772404	16.5011904	106.7019683	-6.6749607	-10.92630906
0.68	68	0	-0.989	0.301	5.156622	-4.1825934	17.8762896	106.7649937	-6.83538894	-11.01798234
0.69	69	-0.037	-0.975	0.32	6.9327918	-7.6203414	19.0795014	106.8509374	-6.9900876	-11.1440331
0.7	70	-0.072	-0.955	0.348	6.7609044	-8.6516658	19.5378678	106.9426107	-7.14478626	-11.28154302
0.71	71	-0.1	-0.946	0.351	6.302538	-8.2505952	20.1108258	107.0285544	-7.31094408	-11.41905294
0.72	72	-0.114	-0.941	0.339	5.5576926	-7.1046792	20.7983754	107.1030389	-7.48283148	-11.5451037
0.73	73	-0.102	-0.953	0.313	5.0993262	-5.8441716	21.199446	107.1717939	-7.66617804	-11.66542488
0.74	74	-0.075	-0.968	0.274	4.0680018	-5.9014674	20.7983754	107.2290897	-7.84379502	-11.78001648
0.75	75	-0.059	-0.971	0.248	3.0939732	-8.5370742	19.9962342	107.2749263	-7.99849368	-11.9175264
0.76	76	-0.053	-0.954	0.252	2.578311	-12.318597	18.8503182	107.3264926	-8.1360036	-12.0894138
0.77	77	-0.053	-0.945	0.255	1.8334656	-13.8082878	17.8189938	107.3723292	-8.26205436	-12.27848994
0.78	78	-0.071	-0.944	0.268	1.5469866	-14.9542038	17.3033316	107.4181658	-8.37664596	-12.46756608
0.79	79	-0.098	-0.943	0.282	0.9167328	-15.1260912	16.6730778	107.4582729	-8.48550798	-12.6623718
0.8	80	-0.13	-0.941	0.293	0.1145916	-13.8655836	16.042824	107.4869208	-8.59437	-12.84571836
0.81	81	-0.162	-0.932	0.295	-0.1145916	-12.2613012	15.469866	107.5098391	-8.69750244	-13.0061466
0.82	82	-0.186	-0.917	0.31	0.1145916	-11.2872726	14.9542038	107.538487	-8.80636446	-13.16084526
0.83	83	-0.236	-0.892	0.35	1.5469866	-12.4904844	14.896908	107.5843237	-8.90376732	-13.3212735
0.84	84	-0.241	-0.872	0.319	0.9740286	-9.453807	14.1520626	107.6129716	-9.00689976	-13.45878342
0.85	85	-0.198	-0.919	0.282	1.8334656	-4.1825934	12.605076	107.6358899	-9.12149136	-13.53326796
0.86	86	-0.169	-0.985	0.268	2.5210152	-4.010706	11.2872726	107.6759969	-9.21316464	-13.6077525
0.87	87	-0.159	-1.011	0.29	1.718874	-5.5003968	10.1413566	107.7046448	-9.29337876	-13.68796662
0.88	88	-0.159	-0.991	0.295	-0.1145916	-6.1879464	9.2819196	107.7218336	-9.35640414	-13.7796399
0.89	89	-0.158	-0.959	0.29	-0.6875496	-5.3858052	8.9954406	107.7275632	-9.4251591	-13.85412444
0.9	90	-0.163	-0.949	0.283	0.1718874	-4.9847346	9.167328	107.7332927	-9.49391406	-13.93433856
0.91	91	-0.173	-0.957	0.303	1.432395	-4.6982556	9.1100322	107.7619406	-9.5683986	-14.00309352
0.92	92	-0.175	-0.969	0.307	0.8021412	-3.2658606	8.0787078	107.7791294	-9.63142398	-14.06038932
0.93	93	-0.19	-0.97	0.323	0	-2.3491278	6.8182002	107.7905885	-9.68871978	-14.10622596
0.94	94	-0.195	-0.956	0.311	-0.7448454	-1.3178034	5.9014674	107.784859	-9.740286	-14.13487386
0.95	95	-0.196	-0.95	0.302	-0.6302538	-1.2605076	5.0993262	107.7733998	-9.7975818	-14.16352176
0.96	96	-0.189	-0.955	0.297	-0.5156622	-1.718874	4.297185	107.7733998	-9.83195928	-14.19216966
0.97	97	-0.175	-0.963	0.289	-0.8021412	-2.3491278	3.5523396	107.7676702	-9.8548776	-14.22654714
0.98	98	-0.161	-0.965	0.29	-1.2032118	-3.0366774	2.8074942	107.7619406	-9.87206634	-14.2666542
0.99	99	-0.155	-0.965	0.289	-1.6615782	-3.437748	2.5210152	107.7562111	-9.88925508	-14.30676126
1	100	-0.158	-0.969	0.284	-2.1199446	-4.0680018	2.4064236	107.7218336	-9.88925508	-14.34686832
1.01	101	-0.167	-0.977	0.291	-2.1772404	-4.4690724	2.005353	107.7103744	-9.89498466	-14.39843454
1.02	102	-0.174	-0.981	0.293	-2.6929026	-4.2398892	1.5469866	107.6931857	-9.89498466	-14.44427118
1.03	103	-0.183	-0.978	0.296	-3.2658606	-3.7815228	0.9167328	107.6645378	-9.89498466	-14.48437824
1.04	104	-0.191	-0.971	0.297	-3.6096354	-3.3231564	0.4583664	107.6358899	-9.8835255	-14.51875572
1.05	105	-0.194	-0.959	0.301	-3.8961144	-2.7501984	0.1718874	107.5900532	-9.88925508	-14.54740362
1.06	106	-0.194	-0.948	0.301	-3.9534102	-1.8334656	-0.1145916	107.5499462	-9.8835255	-14.56459236
1.07	107	-0.189	-0.943	0.3	-3.8961144	-1.432395	-0.2291832	107.5155687	-9.87206634	-14.57605152
1.08	108	-0.178	-0.94	0.298	-3.7815228	-1.2605076	-0.4010706	107.4811912	-9.86633676	-14.58751068
1.09	109	-0.166	-0.938	0.295	-3.5523396	-1.432395	-0.6302538	107.4468137	-9.8548776	-14.59896984
1.1	110	-0.154	-0.936	0.295	-3.151269	-1.5469866	-0.8021412	107.4009771	-9.8262297	-14.610429
1.11	111	-0.147	-0.933	0.294	-2.6356068	-1.7761698	-1.2032118	107.3780588	-9.80904096	-14.62188816
1.12	112	-0.141	-0.93	0.297	-2.2345362	-1.9480572	-1.4896908	107.36087	-9.79185222	-14.6390769
1.13	113	-0.141	-0.933	0.296	-1.6615782	-2.291832	-1.9480572	107.3436813	-9.76320432	-14.65626564
1.14	114	-0.148	-0.934	0.296	-1.4896908	-2.3491278	-2.7501984	107.3322221	-9.72882684	-14.6677248
1.15	115	-0.156	-0.937	0.293	-0.9740286	-2.1772404	-3.5523396	107.3093038	-9.6829902	-14.67345438
1.16	116	-0.165	-0.938	0.289	-0.286479	-1.9480572	-4.297185	107.3093038	-9.63715356	-14.67918396
1.17	117	-0.173	-0.936	0.295	0.286479	-1.0313244	-4.9847346	107.3150334	-9.58558734	-14.67918396
1.18	118	-0.18	-0.939	0.292	0.859437	-0.1145916	-5.3285094	107.320763	-9.53402112	-14.66199522
1.19	119	-0.185	-0.947	0.29	1.2605076	0.9167328	-5.6722842	107.3264926	-9.4824549	-14.63334732
1.2	120	-0.182	-0.958	0.286	1.7761698	1.9480572	-5.6149884	107.3264926	-9.44234784	-14.59896984
1.21	121	-0.175	-0.963	0.284	1.9480572	2.7501984	-5.443101	107.3379517	-9.3965112	-14.5531332
1.22	122	-0.159	-0.964	0.286	2.291832	3.437748	-5.0993262	107.3551405	-9.36213372	-14.50729656
1.23	123	-0.139	-0.962	0.293	2.4064236	4.2398892	-4.9847346	107.3665996	-9.32775624	-14.45000076
1.24	124	-0.117	-0.969	0.3	2.4637194	5.2139178	-4.7555514	107.3837884	-9.29910834	-14.38697538
1.25	125	-0.111	-0.978	0.298	2.4064236	5.6149884	-4.583664	107.3837884	-9.2532717	-14.31249084
1.26	126	-0.116	-0.983	0.3	1.9480572	5.2139178	-4.4117766	107.3952475	-9.2246238	-14.24946546
1.27	127	-0.117	-0.979	0.301	1.5469866	4.9847346	-4.2398892	107.4009771	-9.20170548	-14.19216966
1.28	128	-0.116	-0.972	0.3	1.0886202	4.4690724	-4.4117766	107.4009771	-9.17305758	-14.13487386
1.29	129	-0.114	-0.966	0.301	0.572958	3.9534102	-4.7555514	107.4009771	-9.14440968	-14.08330764
1.3	130	-0.118	-0.966	0.298	0.1145916	3.2658606	-4.870143	107.3837884	-9.0813843	-14.03174142
1.31	131	-0.123	-0.965	0.296	-0.286479	2.5210152	-5.0420304	107.3723292	-9.04127724	-13.99163436
1.32	132	-0.128	-0.963	0.292	-0.7448454	2.0626488	-5.2712136	107.3551405	-9.00117018	-13.95725688
1.33	133	-0.128	-0.963	0.29	-1.2605076	2.1199446	-5.8441716	107.3379517	-8.94960396	-13.91714982
1.34	134	-0.126	-0.959	0.292	-1.432395	2.6356068	-6.3598338	107.3150334	-8.89803774	-13.87131318
1.35	135	-0.127	-0.954	0.292	-1.3750992	3.151269	-6.7036086	107.2863855	-8.83501236	-13.81974696
1.36	136	-0.129	-0.951	0.29	-1.2605076	3.5523396	-6.9327918	107.2634672	-8.77771656	-13.76245116
1.37	137	-0.129	-0.949	0.289	-1.145916	3.8961144	-6.9900876	107.2405489	-8.72615034	-13.70515536
1.38	138	-0.13	-0.951	0.284	-0.9167328	3.7815228	-6.9900876	107.2233601	-8.67458412	-13.64785956
1.39	139	-0.127	-0.954	0.281	-0.7448454	3.6669312	-6.9327918	107.2061714	-8.61728832	-13.59629334
1.4	140	-0.12	-0.957	0.278	-0.7448454	3.5523396	-6.875496	107.1775235	-8.54853336	-13.53326796
1.41	141	-0.115	-0.958	0.276	-0.572958	3.0366774	-6.875496	107.1603347	-8.49696714	-13.48743132
1.42	142	-0.112	-0.962	0.277	-0.5156622	2.7501984	-6.875496	107.1488756	-8.43967134	-13.44159468
1.43	143	-0.111	-0.968	0.274	-0.6875496	2.578311	-6.875496	107.1316868	-8.38237554	-13.39575804
1.44	144	-0.115	-0.97	0.273	-0.9167328	2.578311	-6.875496	107.1144981	-8.32507974	-13.3499214
1.45	145	-0.116	-0.971	0.272	-0.9740286	2.4637194	-6.6463128	107.0801206	-8.25632478	-13.29835518
1.46	146	-0.117	-0.969	0.271	-1.2032118	2.0626488	-6.589017	107.0629319	-8.19902898	-13.2639777
1.47	147	-0.117	-0.965	0.276	-1.2605076	1.7761698	-6.3598338	107.0457431	-8.14173318	-13.22387064
1.48	148	-0.113	-0.961	0.284	-1.3750992	1.718874	-6.3598338	107.0228248	-8.09016696	-13.18949316
1.49	149	-0.106	-0.96	0.283	-1.3178034	1.6042824	-6.4171296	107.0056361	-8.03287116	-13.15511568
1.5	150	-0.106	-0.962	0.283	-1.145916	1.3178034	-6.302538	106.9769882	-7.95838662	-13.1207382
1.51	151	-0.107	-0.964	0.287	-0.9740286	1.0313244	-6.016059	106.9597994	-7.90109082	-13.0920903
1.52	152	-0.105	-0.964	0.288	-0.9740286	0.9740286	-5.8441716	106.9483403	-7.8495246	-13.0634424
1.53	153	-0.103	-0.966	0.289	-0.9167328	0.8021412	-5.6722842	106.9368811	-7.79795838	-13.04052408
1.54	154	-0.103	-0.964	0.291	-0.859437	0.7448454	-5.6149884	106.9196924	-7.74639216	-13.01760576
1.55	155	-0.098	-0.961	0.294	-0.859437	0.8021412	-5.72958	106.9025036	-7.67190762	-12.98895786
1.56	156	-0.092	-0.96	0.296	-0.572958	0.8021412	-5.9587632	106.8910445	-7.61461182	-12.96030996
1.57	157	-0.088	-0.96	0.294	-0.286479	0.859437	-5.9014674	106.8853149	-7.5630456	-12.93739164
1.58	158	-0.084	-0.959	0.294	-0.0572958	0.7448454	-5.7868758	106.8795853	-7.51147938	-12.91447332
1.59	159	-0.082	-0.958	0.295	0.1718874	0.5156622	-5.6149884	106.8795853	-7.45991316	-12.891555
1.6	160	-0.079	-0.956	0.294	0.4010706	0.3437748	-5.5003968	106.8681262	-7.36823988	-12.8629071
1.61	161	-0.077	-0.959	0.289	0.5156622	0.1145916	-5.3285094	106.8738557	-7.31667366	-12.84571836
1.62	162	-0.076	-0.962	0.287	0.6875496	-0.286479	-5.0420304	106.8795853	-7.27083702	-12.8342592
1.63	163	-0.075	-0.964	0.282	0.7448454	-0.6302538	-4.7555514	106.8853149	-7.22500038	-12.82852962
1.64	164	-0.076	-0.967	0.278	1.0313244	-1.3178034	-4.4117766	106.8967741	-7.17343416	-12.82280004
1.65	165	-0.077	-0.97	0.276	1.3750992	-2.1199446	-3.9534102	106.8910445	-7.1046792	-12.82852962
1.66	166	-0.076	-0.971	0.275	1.2605076	-2.578311	-3.6096354	106.9082332	-7.05884256	-12.83998878
1.67	167	-0.075	-0.972	0.274	1.2032118	-2.7501984	-3.3804522	106.9196924	-7.0187355	-12.85717752
1.68	168	-0.075	-0.972	0.274	0.9740286	-2.9220858	-3.2658606	106.9368811	-6.97862844	-12.87436626
1.69	169	-0.076	-0.968	0.271	0.859437	-3.0939732	-3.2658606	106.9483403	-6.93852138	-12.89728458
1.7	170	-0.079	-0.967	0.271	0.859437	-3.2085648	-3.2085648	106.9368811	-6.86976642	-12.90874374
1.71	171	-0.085	-0.968	0.271	1.0313244	-3.4950438	-3.0939732	106.9483403	-6.82965936	-12.93166206
1.72	172	-0.089	-0.969	0.268	1.0886202	-3.5523396	-2.9220858	106.965529	-6.7895523	-12.96030996
1.73	173	-0.092	-0.97	0.269	1.0886202	-3.3804522	-2.578311	106.9769882	-6.75517482	-12.98322828
1.74	174	-0.092	-0.968	0.271	1.0313244	-3.3231564	-2.3491278	106.9941769	-6.72079734	-13.0061466
1.75	175	-0.092	-0.965	0.271	1.0886202	-3.2658606	-2.291832	106.9827178	-6.66923112	-13.02906492
1.76	176	-0.09	-0.963	0.274	1.2605076	-3.151269	-2.1772404	106.9941769	-6.63485364	-13.05198324
1.77	177	-0.089	-0.96	0.274	1.4896908	-3.2085648	-2.1772404	107.0170952	-6.60620574	-13.07490156
1.78	178	-0.088	-0.96	0.272	1.718874	-3.2658606	-2.1199446	107.034284	-6.57182826	-13.09781988
1.79	179	-0.088	-0.959	0.274	1.9480572	-3.3231564	-2.1199446	107.0572023	-6.54318036	-13.1207382
1.8	180	-0.089	-0.958	0.278	2.4064236	-3.3231564	-2.1772404	107.0686615	-6.49734372	-13.14365652
1.81	181	-0.092	-0.959	0.281	2.6356068	-2.9220858	-2.291832	107.0973094	-6.46869582	-13.16657484
1.82	182	-0.095	-0.958	0.284	2.9793816	-2.578311	-2.291832	107.1316868	-6.43431834	-13.18376358
1.83	183	-0.099	-0.957	0.284	3.2085648	-2.4064236	-2.291832	107.1660643	-6.40567044	-13.19522274
1.84	184	-0.102	-0.956	0.287	3.6096354	-2.1199446	-2.1772404	107.2061714	-6.37702254	-13.21241148
1.85	185	-0.102	-0.955	0.288	3.6096354	-1.718874	-1.9480572	107.2290897	-6.34264506	-13.21814106
1.86	186	-0.1	-0.952	0.288	3.8388186	-1.3750992	-1.718874	107.2691968	-6.32545632	-13.22387064
1.87	187	-0.095	-0.952	0.288	4.2398892	-1.2605076	-1.5469866	107.3093038	-6.302538	-13.2353298
1.88	188	-0.093	-0.951	0.287	4.4690724	-1.0886202	-1.432395	107.3551405	-6.28534926	-13.24105938
1.89	189	-0.092	-0.953	0.288	5.0420304	-0.7448454	-1.432395	107.4124363	-6.26816052	-13.24105938
1.9	190	-0.092	-0.955	0.29	5.443101	-0.2291832	-1.5469866	107.4468137	-6.23951262	-13.2353298
1.91	191	-0.092	-0.957	0.291	5.9014674	0.4010706	-1.718874	107.5098391	-6.22805346	-13.22387064
1.92	192	-0.091	-0.959	0.293	6.302538	0.9740286	-1.8334656	107.5671349	-6.21086472	-13.2066819
1.93	193	-0.093	-0.959	0.296	6.6463128	1.2032118	-1.8907614	107.6358899	-6.19940556	-13.18949316
1.94	194	-0.093	-0.961	0.296	6.7609044	1.5469866	-1.718874	107.7046448	-6.1879464	-13.16657484
1.95	195	-0.093	-0.96	0.296	7.0473834	1.6042824	-1.718874	107.7562111	-6.16502808	-13.14365652
1.96	196	-0.091	-0.959	0.296	7.3338624	1.8907614	-1.6615782	107.8306956	-6.15356892	-13.1207382
1.97	197	-0.085	-0.961	0.294	7.448454	2.005353	-1.6615782	107.9051801	-6.14210976	-13.09781988
1.98	198	-0.081	-0.963	0.293	7.5057498	2.0626488	-1.5469866	107.9796647	-6.13638018	-13.06917198
1.99	199	-0.077	-0.964	0.291	7.3911582	2.1772404	-1.3178034	108.0484196	-6.1306506	-13.04625366
2	200	-0.074	-0.961	0.291	7.3911582	2.005353	-1.2032118	108.1057154	-6.10773228	-13.01760576
2.01	201	-0.074	-0.96	0.293	7.448454	1.6042824	-1.145916	108.1802	-6.1020027	-12.99468744
2.02	202	-0.073	-0.958	0.294	7.448454	1.3750992	-1.0886202	108.2489549	-6.09627312	-12.9774987
2.03	203	-0.07	-0.957	0.298	7.6776372	0.9167328	-1.0313244	108.3291691	-6.09054354	-12.96603954
2.04	204	-0.069	-0.956	0.305	7.6776372	0.7448454	-1.0886202	108.4036536	-6.07908438	-12.95458038
2.05	205	-0.073	-0.955	0.306	7.734933	0.5156622	-1.0313244	108.466679	-6.05616606	-12.94312122
2.06	206	-0.073	-0.952	0.308	7.7922288	0	-0.859437	108.5468931	-6.0447069	-12.93739164
2.07	207	-0.07	-0.951	0.31	7.7922288	-0.3437748	-0.8021412	108.6271072	-6.03897732	-12.93739164
2.08	208	-0.069	-0.949	0.312	7.7922288	-0.6875496	-0.859437	108.7073213	-6.02751816	-12.93739164
2.09	209	-0.066	-0.948	0.312	7.7922288	-0.9740286	-0.859437	108.7875355	-6.016059	-12.94312122
2.1	210	-0.066	-0.948	0.312	7.9641162	-1.3750992	-0.859437	108.8562904	-5.98168152	-12.9488508
2.11	211	-0.067	-0.949	0.318	8.1932994	-1.6042824	-0.859437	108.9422341	-5.97022236	-12.96030996
2.12	212	-0.07	-0.949	0.318	8.4797784	-1.6615782	-0.9167328	109.0281778	-5.95303362	-12.97176912
2.13	213	-0.074	-0.95	0.32	9.167328	-1.718874	-0.9740286	109.1255807	-5.93584488	-12.98322828
2.14	214	-0.076	-0.949	0.329	9.6256944	-0.9740286	-1.0886202	109.2229835	-5.92438572	-12.98895786
2.15	215	-0.081	-0.955	0.343	10.9434978	-0.2291832	-1.0886202	109.3318456	-5.9014674	-12.98322828
2.16	216	-0.09	-0.962	0.339	10.6570188	0.1718874	-0.7448454	109.434978	-5.89573782	-12.9774987
2.17	217	-0.093	-0.961	0.336	10.7143146	0.7448454	-0.2291832	109.54384	-5.89573782	-12.96603954
2.18	218	-0.091	-0.962	0.329	10.7716104	0.9167328	0.1718874	109.652702	-5.9014674	-12.96030996
2.19	219	-0.088	-0.955	0.328	10.599723	0.7448454	0.6302538	109.7615641	-5.90719698	-12.95458038
2.2	220	-0.083	-0.946	0.328	10.886202	0.572958	0.9167328	109.8589669	-5.90719698	-12.9488508
2.21	221	-0.077	-0.942	0.333	11.0580894	0.7448454	1.0313244	109.9735585	-5.91865614	-12.94312122
2.22	222	-0.074	-0.942	0.328	11.2299768	0.859437	0.9740286	110.0881501	-5.9301153	-12.93739164
2.23	223	-0.072	-0.939	0.329	11.6310474	0.9167328	0.7448454	110.2027417	-5.94157446	-12.92593248
2.24	224	-0.069	-0.935	0.33	11.9748222	0.9740286	0.572958	110.3230629	-5.95303362	-12.9202029
2.25	225	-0.07	-0.932	0.329	12.5477802	0.8021412	0.4010706	110.4376545	-5.94730404	-12.90874374
2.26	226	-0.07	-0.929	0.328	13.0634424	0.8021412	0.3437748	110.5694348	-5.95303362	-12.90301416
2.27	227	-0.07	-0.926	0.329	13.750992	0.6875496	0.4010706	110.7126743	-5.9587632	-12.891555
2.28	228	-0.07	-0.924	0.331	14.4958374	0.286479	0.4583664	110.8559138	-5.96449278	-12.891555
2.29	229	-0.071	-0.922	0.329	15.1260912	0	0.6302538	111.0106125	-5.97022236	-12.891555
2.3	230	-0.07	-0.921	0.326	15.9282324	-0.286479	0.8021412	111.1595816	-5.96449278	-12.891555
2.31	231	-0.071	-0.924	0.327	16.6730778	-0.8021412	0.9167328	111.331469	-5.97022236	-12.90301416
2.32	232	-0.069	-0.924	0.328	17.2460358	-0.9167328	1.0886202	111.509086	-5.97595194	-12.91447332
2.33	233	-0.067	-0.925	0.329	17.8762896	-1.145916	1.145916	111.6924325	-5.98168152	-12.92593248
2.34	234	-0.066	-0.925	0.332	18.621135	-1.3178034	1.145916	111.8815087	-5.9874111	-12.93739164
2.35	235	-0.07	-0.926	0.337	19.2513888	-1.3178034	1.0313244	112.0648552	-5.98168152	-12.9488508
2.36	236	-0.07	-0.927	0.339	19.8816426	-1.4896908	1.0313244	112.2711201	-5.9874111	-12.96603954
2.37	237	-0.074	-0.925	0.342	20.5118964	-1.6042824	0.9740286	112.4831146	-5.9874111	-12.98322828
2.38	238	-0.077	-0.923	0.343	21.1421502	-1.7761698	0.9740286	112.695109	-5.9874111	-13.00041702
2.39	239	-0.078	-0.921	0.348	21.8296998	-2.1199446	0.9740286	112.9185626	-5.9874111	-13.01760576
2.4	240	-0.077	-0.918	0.351	22.345362	-2.3491278	0.9740286	113.1420163	-5.98168152	-13.04052408
2.41	241	-0.079	-0.918	0.355	23.0329116	-2.4637194	1.0313244	113.376929	-5.98168152	-13.0634424
2.42	242	-0.08	-0.918	0.358	23.6631654	-2.4637194	1.2032118	113.6175714	-5.98168152	-13.08636072
2.43	243	-0.082	-0.919	0.36	24.350715	-2.7501984	1.4896908	113.8696729	-5.98168152	-13.11500862
2.44	244	-0.087	-0.917	0.364	25.1528562	-2.9220858	1.8334656	114.127504	-5.9874111	-13.14365652
2.45	245	-0.088	-0.912	0.369	25.8404058	-3.0939732	2.005353	114.3853351	-5.9874111	-13.178034
2.46	246	-0.089	-0.906	0.374	26.7571386	-3.0939732	2.005353	114.660355	-5.99314068	-13.21241148
2.47	247	-0.085	-0.902	0.378	27.4446882	-2.9793816	1.8334656	114.946834	-5.99314068	-13.24105938
2.48	248	-0.085	-0.9	0.383	28.3041252	-2.7501984	1.718874	115.233313	-5.99887026	-13.26970728
2.49	249	-0.083	-0.896	0.382	28.934379	-2.6929026	1.718874	115.5312511	-5.99887026	-13.29835518
2.5	250	-0.083	-0.891	0.386	29.9657034	-2.7501984	1.718874	115.8349189	-5.99887026	-13.3212735
2.51	251	-0.083	-0.886	0.39	30.9970278	-2.7501984	1.8334656	116.1500458	-5.99887026	-13.3499214
2.52	252	-0.084	-0.883	0.397	32.658606	-2.9793816	2.005353	116.488091	-6.00459984	-13.38429888
2.53	253	-0.084	-0.882	0.4	33.6899304	-2.9220858	2.1199446	116.8318658	-6.01032942	-13.41294678
2.54	254	-0.085	-0.877	0.405	34.7785506	-2.9793816	2.2345362	117.1870997	-6.016059	-13.44732426
2.55	255	-0.083	-0.872	0.411	35.9817624	-3.0939732	2.291832	117.5480633	-6.016059	-13.47597216
2.56	256	-0.08	-0.869	0.413	37.1276784	-2.9793816	2.291832	117.9319451	-6.02178858	-13.51034964
2.57	257	-0.077	-0.866	0.419	38.3308902	-2.9220858	2.291832	118.3272862	-6.02751816	-13.53899754
2.58	258	-0.076	-0.86	0.419	39.6486936	-3.0366774	2.3491278	118.7283568	-6.03324774	-13.57337502
2.59	259	-0.077	-0.857	0.422	41.0237928	-3.2658606	2.3491278	119.1523457	-6.03324774	-13.6077525
2.6	260	-0.08	-0.853	0.423	42.8572584	-3.3804522	2.4064236	119.5820642	-6.03324774	-13.64212998
2.61	261	-0.081	-0.849	0.426	44.404245	-3.4950438	2.2345362	120.0404306	-6.03897732	-13.67650746
2.62	262	-0.077	-0.843	0.435	46.3523022	-3.5523396	1.718874	120.5159857	-6.03324774	-13.70515536
2.63	263	-0.072	-0.839	0.442	47.9565846	-3.0366774	0.9167328	121.003	-6.02178858	-13.73380326
2.64	264	-0.068	-0.832	0.448	49.3889796	-2.578311	0.286479	121.5072031	-6.01032942	-13.74526242
2.65	265	-0.062	-0.824	0.454	50.8786704	-2.0626488	0	122.0171357	-5.99314068	-13.75672158
2.66	266	-0.051	-0.818	0.453	52.6548402	-1.8907614	-0.1145916	122.5557162	-5.98168152	-13.76245116
2.67	267	-0.041	-0.812	0.457	54.4883058	-2.3491278	-0.4583664	123.1057559	-5.96449278	-13.77391032
2.68	268	-0.036	-0.811	0.45	56.149884	-3.6669312	-0.6302538	123.6787139	-5.94157446	-13.79109906
2.69	269	-0.02	-0.802	0.464	58.7854908	-5.3858052	-0.859437	124.2803198	-5.9014674	-13.81974696
2.7	270	-0.002	-0.805	0.473	61.020027	-6.302538	-1.0313244	124.8991144	-5.84990118	-13.85412444
2.71	271	-0.003	-0.797	0.471	62.3951262	-7.5057498	-0.8021412	125.5350978	-5.79833496	-13.90569066
2.72	272	-0.012	-0.79	0.485	64.8588456	-9.2819196	-0.0572958	126.2054587	-5.74103916	-13.96871604
2.73	273	-0.016	-0.784	0.5	66.9787902	-10.7143146	0.7448454	126.8930083	-5.67801378	-14.04320058
2.74	274	-0.015	-0.781	0.51	68.8695516	-11.5164558	1.2605076	127.6034762	-5.62071798	-14.13487386
2.75	275	-0.021	-0.768	0.525	70.8176088	-13.2353298	1.8334656	128.3254033	-5.54623344	-14.2380063
2.76	276	-0.024	-0.76	0.537	73.1094408	-14.4385416	2.1772404	129.0817078	-5.4717489	-14.34686832
2.77	277	-0.027	-0.737	0.535	75.7450476	-15.6417534	2.578311	129.8666603	-5.39153478	-14.47291908
2.78	278	-0.029	-0.734	0.525	78.2660628	-15.8709366	2.86479	130.6745311	-5.30559108	-14.59896984
2.79	279	-0.037	-0.732	0.525	80.5578948	-16.3865988	3.2085648	131.5053202	-5.22537696	-14.7250206
2.8	280	-0.043	-0.734	0.531	82.9643184	-16.7876694	3.4950438	132.353298	-5.13370368	-14.85680094
2.81	281	-0.04	-0.733	0.53	83.8810512	-16.615782	3.6096354	133.2184646	-5.04775998	-14.98858128
2.82	282	-0.044	-0.73	0.531	85.1415588	-16.7876694	3.7815228	134.1008199	-4.9560867	-15.12036162
2.83	283	-0.052	-0.729	0.533	86.1728832	-16.6730778	4.0680018	134.9889048	-4.870143	-15.25214196
2.84	284	-0.063	-0.723	0.541	87.8917572	-16.2147114	4.4117766	135.8941784	-4.7841993	-15.3839223
2.85	285	-0.071	-0.712	0.56	90.6992514	-16.1574156	4.6409598	136.8166408	-4.70398518	-15.50997306
2.86	286	-0.072	-0.703	0.577	93.3348582	-16.1574156	4.6982556	137.7792103	-4.61804148	-15.63602382
2.87	287	-0.076	-0.708	0.591	96.256944	-15.8709366	4.9847346	138.7704276	-4.53209778	-15.76207458
2.88	288	-0.084	-0.72	0.599	98.3195928	-13.9228794	5.72958	139.7788337	-4.46334282	-15.88239576
2.89	289	-0.094	-0.729	0.598	99.981171	-10.599723	6.5317212	140.8044285	-4.42896534	-15.9855282
2.9	290	-0.109	-0.746	0.564	100.0384668	-5.72958	7.0473834	141.8128346	-4.43469492	-16.06001274
2.91	291	-0.126	-0.749	0.552	99.694692	-2.4064236	7.6776372	142.8269702	-4.46334282	-16.12303812
2.92	292	-0.125	-0.756	0.529	99.0071424	-0.0572958	7.9641162	143.8353763	-4.51490904	-16.17460434
2.93	293	-0.123	-0.752	0.508	96.256944	0.286479	8.0787078	144.8208641	-4.56647526	-16.22044098
2.94	294	-0.108	-0.737	0.508	94.251591	-0.0572958	7.2765666	145.7777039	-4.6123119	-16.2720072
2.95	295	-0.073	-0.72	0.484	90.9284346	3.8961144	5.3285094	146.6829776	-4.68106686	-16.28346636
2.96	296	-0.073	-0.698	0.468	85.2561504	8.9954406	4.0680018	147.5424146	-4.7841993	-16.26054804
2.97	297	-0.086	-0.662	0.41	77.34933	12.032118	4.5263682	148.327367	-4.91597964	-16.22617056
2.98	298	-0.088	-0.564	0.358	69.1560306	11.6310474	5.2712136	149.0263758	-5.04775998	-16.20325224
2.99	299	-0.038	-0.452	0.341	65.317212	10.026765	3.8388186	149.6852775	-5.156622	-16.18033392
3	300	0.033	-0.511	0.396	67.7236356	5.443101	-0.6875496	150.3499088	-5.19672906	-16.14022686
3.01	301	0.064	-0.573	0.49	66.8641986	-2.005353	-3.437748	151.0259992	-5.16808116	-16.11157896
3.02	302	0.057	-0.554	0.551	65.2599162	-6.9327918	-2.2345362	151.6906305	-5.0993262	-16.11157896
3.03	303	0.058	-0.504	0.572	66.1193532	-10.1413566	-1.4896908	152.3609914	-5.00765292	-16.13449728
3.04	304	0.03	-0.436	0.623	80.6151906	-15.5271618	-1.3178034	153.1860509	-4.86441342	-16.18033392
3.05	305	-0.039	-0.418	0.58	89.667927	-18.1627686	-0.6875496	154.0970541	-4.70398518	-16.23762972
3.06	306	-0.044	-0.375	0.559	89.7825186	-13.4072172	-1.0886202	155.0137869	-4.583664	-16.2720072
3.07	307	-0.015	-0.373	0.535	95.111028	-13.8655836	-3.9534102	155.9820859	-4.45188366	-16.27773678
3.08	308	0.01	-0.334	0.486	100.7260164	-11.745639	-6.7609044	157.0019512	-4.32010332	-16.24908888
3.09	309	0.02	-0.266	0.494	110.1798234	-10.0840608	-5.7868758	158.1192193	-4.21697088	-16.2147114
3.1	310	0.017	-0.233	0.517	120.2638842	-10.6570188	-2.0626488	159.3396198	-4.11383844	-16.22044098
3.11	311	-0.006	-0.222	0.567	129.2593248	-12.5477802	3.2658606	160.6574232	-4.01643558	-16.2720072
3.12	312	-0.055	-0.204	0.644	139.4579772	-14.2666542	8.59437	162.0840886	-3.9247623	-16.38086922
3.13	313	-0.098	-0.178	0.713	150.2295876	-11.8602306	12.4904844	163.6196161	-3.85600734	-16.51264956
3.14	314	-0.129	-0.172	0.737	160.141761	-7.9641162	14.9542038	165.2582759	-3.83308902	-16.66161864
3.15	315	-0.139	-0.217	0.727	168.3350604	-4.9274388	15.6990492	166.9714204	-3.84454818	-16.80485814
3.16	316	-0.121	-0.29	0.7	174.1219362	-2.4637194	14.8396122	168.7475902	-3.8674665	-16.93663848
3.17	317	-0.078	-0.358	0.647	177.3877968	-0.7448454	13.8655836	170.5581374	-3.90184398	-17.05695966
3.18	318	-0.022	-0.378	0.587	179.3931498	-1.718874	14.2666542	172.3858735	-3.9247623	-17.18301042
3.19	319	0.015	-0.351	0.536	181.8568692	-4.6409598	16.2147114	174.2422574	-3.91330314	-17.3319795
3.2	320	0.043	-0.283	0.494	186.497829	-5.9014674	18.7930224	176.1444779	-3.88465524	-17.5038669
3.21	321	0.048	-0.181	0.488	193.4879166	-5.6722842	20.8556712	178.121183	-3.86173692	-17.69294304
3.22	322	0.021	-0.066	0.53	201.0509622	-5.3858052	22.0015872	-179.8171387	-3.83308902	-17.89347834
3.23	323	-0.019	0.022	0.568	208.843191	-4.6982556	22.345362	-177.685735	-3.80444112	-18.09974322
3.24	324	-0.05	0.041	0.555	216.4062366	-2.9793816	23.1475032	-175.4741171	-3.78725238	-18.31173768
3.25	325	-0.082	0.04	0.489	223.5682116	-0.7448454	24.4653066	-173.1880147	-3.78725238	-18.54092088
3.26	326	-0.466	1.991	1.842	196.9256646	-44.117766	40.8519054	-171.1654729	-3.3231564	-18.8503182
3.27	327	0.277	1.131	0.375	435.8491506	52.8840234	-1.8334656	-166.7422372	-3.89038482	-18.93053232
3.28	328	0.061	-0.682	-0.593	173.606274	61.1346186	11.6883432	-164.9717969	-4.4690724	-19.19982258
3.29	329	0.229	-1.227	2.199	170.5695966	17.0168526	11.0580894	-163.2300046	-4.61804148	-19.34879166
3.3	330	-0.403	-0.967	2.748	277.9419258	-14.0947668	11.6310474	-160.4053217	-4.49199072	-19.3946283
3.31	331	-0.023	0.499	2.548	211.3069104	-6.9327918	19.3086846	-158.24527	-4.38885828	-19.54359738
3.32	332	-0.425	0.249	2.932	153.7246314	4.4117766	12.891555	-156.6753651	-4.40031744	-19.67537772
3.33	333	-0.229	0.63	3.011	92.9910834	17.3033316	9.9694692	-155.7242548	-4.5263682	-19.83580596
3.34	334	-0.145	1.76	2.461	58.9000824	5.9587632	6.302538	-155.1169193	-4.56074568	-19.92174966
3.35	335	-0.048	2.927	2.298	46.8679644	-9.9121734	0.8021412	-154.6470938	-4.47480198	-19.8816426
3.36	336	0.093	2.716	2.5	43.4302164	-20.5691922	4.2398892	-154.2059161	-4.27999626	-19.8243468
3.37	337	0.049	1.631	2.271	30.9970278	-19.3086846	6.3598338	-153.8907892	-4.09092012	-19.78996932
3.38	338	-0.234	0.851	1.81	33.9191136	-7.7922288	6.9327918	-153.5412848	-3.99351726	-19.81861722
3.39	339	-0.25	-0.149	1.402	3.9534102	-0.6302538	10.8289062	-153.4954482	-3.94195104	-19.9102905
3.4	340	-0.024	0.352	1.103	-39.0757356	6.9900876	17.4179232	-153.8850596	-3.91330314	-20.09936664
3.41	341	-0.049	0.835	0.831	-66.1193532	11.9748222	13.2353298	-154.5439613	-3.94768062	-20.27125404
3.42	342	0.007	0.659	0.69	-67.3798608	5.6149884	13.3499214	-155.2200518	-3.93049188	-20.42022312
3.43	343	0.036	0.61	0.631	-68.1247062	7.5630456	13.6364004	-155.9018718	-3.93622146	-20.58065136
3.44	344	-0.014	0.417	0.554	-72.5937786	12.2613012	13.8082878	-156.6237989	-3.97632852	-20.75826834
3.45	345	0.031	0.405	0.508	-70.9894962	13.5218088	11.1153852	-157.3342668	-4.0393539	-20.91869658
3.46	346	0.062	0.325	0.478	-80.8443738	11.4018642	8.6516658	-158.1478672	-4.10237928	-21.04474734
3.47	347	0.083	0.423	0.474	-81.7038108	4.010706	5.2712136	-158.9729267	-4.10810886	-21.1135023
3.48	348	0.072	0.384	0.534	-82.0475856	-3.724227	-1.6042824	-159.8037158	-4.0680018	-21.09058398
3.49	349	0.034	0.468	0.595	-76.4325972	-5.9014674	-3.0366774	-160.5829387	-4.010706	-21.03901776
3.5	350	-0.111	0.46	0.585	-65.603691	-8.880849	-1.145916	-161.2303812	-3.9247623	-21.00464028
3.51	351	-0.059	0.473	0.605	-65.3745078	-6.589017	-0.4010706	-161.8950125	-3.85600734	-20.97599238
3.52	352	-0.114	0.515	0.65	-57.5249832	-4.4117766	0.859437	-162.4794296	-3.80444112	-20.97599238
3.53	353	-0.107	0.469	0.688	-55.1185596	-2.578311	0.4583664	-163.0409285	-3.77006364	-20.97599238
3.54	354	-0.096	0.558	0.72	-51.279741	-4.010706	0.1718874	-163.5623203	-3.72995658	-20.96453322
3.55	355	-0.125	0.578	0.792	-45.4355694	-6.5317212	0.572958	-163.9863092	-3.66120162	-20.95880364
3.56	356	-0.066	0.536	0.872	-39.0184398	-10.599723	1.718874	-164.3816502	-3.5523396	-20.9416149
3.57	357	-0.05	0.406	0.968	-33.4034514	-14.32395	1.8334656	-164.7196954	-3.4091001	-20.91869658
3.58	358	-0.063	0.311	1.081	-29.507337	-15.8136408	2.005353	-165.0176336	-3.24867186	-20.89577826
3.59	359	-0.075	0.315	1.14	-28.5906042	-14.7823164	2.1772404	-165.3098422	-3.09970278	-20.87858952
3.6	360	-0.026	0.265	1.177	-29.1062664	-13.464513	2.2345362	-165.6077803	-2.95646328	-20.86140078
3.61	361	-0.005	0.267	1.167	-29.3927454	-13.0634424	2.291832	-165.9057185	-2.82468294	-20.84994162
3.62	362	-0.005	0.209	1.167	-29.1635622	-12.7769634	2.2345362	-166.1979271	-2.6929026	-20.83848246
3.63	363	0.013	0.213	1.132	-27.7311672	-12.0894138	2.2345362	-166.4786765	-2.56685184	-20.83275288
3.64	364	0.028	0.185	1.126	-25.1528562	-11.3445684	2.291832	-166.7365076	-2.45226024	-20.8270233
3.65	365	-0.013	0.168	1.103	-23.0902074	-8.6516658	2.005353	-166.9828795	-2.35485738	-20.8270233
3.66	366	-0.032	0.169	1.069	-21.485925	-5.156622	1.3178034	-167.194874	-2.29756158	-20.8270233
3.67	367	-0.043	0.18	1.031	-19.4232762	-1.3178034	0.9167328	-167.3954093	-2.28037284	-20.83275288
3.68	368	-0.02	0.175	1.004	-17.6471064	2.4064236	0.6302538	-167.5730263	-2.30329116	-20.84994162
3.69	369	-0.013	0.176	0.971	-17.2460358	4.9847346	0.8021412	-167.7506432	-2.34339822	-20.86713036
3.7	370	-0.009	0.206	0.932	-16.8449652	5.72958	0.859437	-167.8938827	-2.38923486	-20.89004868
3.71	371	-0.016	0.159	0.938	-16.5584862	5.3858052	0.7448454	-168.0600406	-2.4350715	-20.912967
3.72	372	-0.009	0.185	0.921	-16.2720072	6.016059	0.5156622	-168.2261984	-2.4923673	-20.93015574
3.73	373	-0.003	0.071	0.962	-17.18874	7.3911582	0	-168.4038154	-2.56112226	-20.94734448
3.74	374	-0.01	0.087	0.959	-18.048177	9.6256944	-0.6302538	-168.5871619	-2.65279554	-20.96453322
3.75	375	-0.007	0.132	0.947	-18.3919518	11.4018642	-1.0886202	-168.7876972	-2.75592798	-20.98172196
3.76	376	-0.02	0.139	0.949	-18.9649098	12.7769634	-1.6042824	-168.9767734	-2.88197874	-20.99318112
3.77	377	-0.031	0.131	0.955	-18.6784308	13.6936962	-1.8334656	-169.1715791	-3.01375908	-21.00464028
3.78	378	-0.032	0.136	0.975	-18.1054728	14.037471	-2.1199446	-169.3549256	-3.151269	-21.01609944
3.79	379	-0.037	0.14	0.992	-17.8762896	13.9801752	-2.4064236	-169.5382722	-3.28877892	-21.02182902
3.8	380	-0.038	0.133	1.002	-17.7044022	13.464513	-2.4637194	-169.7330779	-3.41482968	-21.0275586
3.81	381	-0.038	0.129	1.008	-17.18874	12.6623718	-2.4064236	-169.9106949	-3.54088044	-21.0275586
3.82	382	-0.04	0.127	1.011	-16.2720072	12.0894138	-2.4637194	-170.0768527	-3.66120162	-21.0275586
3.83	383	-0.04	0.125	1.011	-15.183387	11.8602306	-2.5210152	-170.2315514	-3.7815228	-21.0275586
3.84	384	-0.046	0.125	1.013	-13.750992	12.2040054	-2.578311	-170.3747909	-3.90184398	-21.0275586
3.85	385	-0.044	0.123	1.02	-12.318597	13.0061466	-2.6929026	-170.5123008	-4.02216516	-21.0275586
3.86	386	-0.046	0.123	1.025	-10.7716104	13.8655836	-2.86479	-170.6268924	-4.15967508	-21.02182902
3.87	387	-0.052	0.123	1.029	-9.3392154	14.4385416	-2.86479	-170.7242953	-4.30291458	-21.02182902
3.88	388	-0.06	0.121	1.028	-8.021412	14.2666542	-2.6356068	-170.8045094	-4.44615408	-21.02182902
3.89	389	-0.064	0.12	1.022	-6.9900876	13.5791046	-2.4064236	-170.8789939	-4.583664	-21.0275586
3.9	390	-0.063	0.12	1.015	-5.9014674	13.0634424	-2.291832	-170.9534785	-4.70398518	-21.0275586
3.91	391	-0.062	0.122	1.01	-4.8128472	12.318597	-2.0626488	-171.0050447	-4.82430636	-21.0275586
3.92	392	-0.066	0.124	1.009	-3.8961144	11.5737516	-2.005353	-171.0451517	-4.94462754	-21.0275586
3.93	393	-0.067	0.125	1.007	-3.2085648	10.8289062	-1.8907614	-171.0795292	-5.04775998	-21.0275586
3.94	394	-0.07	0.126	1.006	-2.578311	9.8548776	-1.718874	-171.1081771	-5.15089242	-21.0275586
3.95	395	-0.073	0.127	1.004	-2.005353	8.7662574	-1.432395	-171.1482842	-5.22537696	-21.0275586
3.96	396	-0.072	0.127	1.002	-1.5469866	7.161975	-1.145916	-171.1654729	-5.29413192	-21.0275586
3.97	397	-0.075	0.127	1.004	-1.3178034	5.9014674	-0.859437	-171.1826617	-5.3571573	-21.03328818
3.98	398	-0.079	0.125	1.005	-1.432395	4.8128472	-0.6875496	-171.1941208	-5.40299394	-21.03328818
3.99	399	-0.08	0.124	1.007	-1.6615782	3.8388186	-0.4583664	-171.2113096	-5.443101	-21.03901776
4	400	-0.081	0.119	1.009	-2.0626488	2.9220858	-0.4010706	-171.2915237	-5.44883058	-21.03328818
4.01	401	-0.081	0.118	1.011	-2.578311	2.005353	-0.2291832	-171.314442	-5.4717489	-21.03328818
4.02	402	-0.082	0.117	1.013	-3.2085648	1.3178034	-0.2291832	-171.3488195	-5.48320806	-21.03328818
4.03	403	-0.083	0.114	1.012	-3.7815228	0.7448454	-0.0572958	-171.3889265	-5.48893764	-21.03328818
4.04	404	-0.081	0.113	1.01	-4.297185	-0.286479	0.0572958	-171.4347632	-5.48893764	-21.03328818
4.05	405	-0.08	0.113	1.008	-4.6982556	-0.7448454	0.1718874	-171.5264365	-5.46028974	-21.0275586
4.06	406	-0.078	0.113	1.008	-4.6409598	-1.3178034	0.3437748	-171.5780027	-5.44883058	-21.03328818
4.07	407	-0.077	0.112	1.006	-4.6409598	-1.8907614	0.3437748	-171.6238393	-5.42591226	-21.03328818
4.08	408	-0.076	0.11	1.004	-4.4117766	-2.4064236	0.4583664	-171.669676	-5.40299394	-21.03328818
4.09	409	-0.074	0.109	1.005	-4.010706	-2.86479	0.572958	-171.709783	-5.37434604	-21.03328818
4.1	410	-0.072	0.107	1.006	-3.6096354	-3.0939732	0.572958	-171.7842676	-5.31705024	-21.0275586
4.11	411	-0.069	0.106	1.009	-3.0939732	-2.9793816	0.6302538	-171.818645	-5.28840234	-21.03328818
4.12	412	-0.069	0.103	1.01	-2.7501984	-2.9220858	0.5156622	-171.8415634	-5.25975444	-21.03328818
4.13	413	-0.071	0.102	1.01	-2.4637194	-2.6356068	0.4583664	-171.8702113	-5.23110654	-21.03328818
4.14	414	-0.068	0.102	1.01	-2.2345362	-2.578311	0.5156622	-171.8931296	-5.20245864	-21.03328818
4.15	415	-0.069	0.101	1.007	-2.1199446	-2.578311	0.4583664	-171.9733437	-5.15089242	-21.0275586
4.16	416	-0.068	0.1	1.007	-2.0626488	-2.578311	0.4010706	-171.996262	-5.12224452	-21.0275586
4.17	417	-0.068	0.098	1.005	-2.005353	-2.5210152	0.3437748	-172.0191803	-5.0993262	-21.0275586
4.18	418	-0.065	0.098	1.004	-2.005353	-2.3491278	0.286479	-172.0363691	-5.07640788	-21.0275586
4.19	419	-0.068	0.097	1.003	-2.1199446	-1.7761698	0.1718874	-172.0592874	-5.05348956	-21.02182902
4.2	420	-0.067	0.098	1.003	-2.1199446	-1.2605076	0.0572958	-172.173879	-5.00192334	-21.01036986
4.21	421	-0.066	0.098	1.003	-2.1772404	-0.9740286	0	-172.1910677	-4.99046418	-21.01036986
4.22	422	-0.066	0.098	1.002	-2.1772404	-0.572958	-0.0572958	-172.2139861	-4.9847346	-21.01036986
4.23	423	-0.064	0.099	1.002	-2.1772404	-0.3437748	-0.0572958	-172.2369044	-4.9847346	-21.01036986
4.24	424	-0.065	0.1	1.004	-2.0626488	0.1145916	-0.0572958	-172.2598227	-4.9847346	-21.01036986
4.25	425	-0.067	0.101	1.008	-1.9480572	0.572958	-0.1718874	-172.3744143	-4.94462754	-20.99318112
4.26	426	-0.067	0.103	1.012	-1.6615782	1.0886202	-0.1145916	-172.391603	-4.9560867	-20.99318112
4.27	427	-0.069	0.103	1.016	-1.4896908	1.3750992	-0.1718874	-172.4087918	-4.96754586	-20.99318112
4.28	428	-0.069	0.104	1.019	-1.2605076	1.6042824	-0.1718874	-172.4202509	-4.9847346	-20.9989107
4.29	429	-0.068	0.102	1.019	-1.0886202	1.9480572	-0.1145916	-172.4317101	-5.00192334	-20.9989107
4.3	430	-0.07	0.104	1.021	-0.859437	2.005353	-0.0572958	-172.5176538	-4.97900502	-20.99318112
4.31	431	-0.07	0.104	1.021	-0.859437	2.005353	-0.0572958	-172.529113	-4.99619376	-20.99318112
4.32	432	-0.07	0.103	1.02	-0.7448454	2.005353	-0.0572958	-172.5348425	-5.01911208	-20.99318112
4.33	433	-0.071	0.104	1.019	-0.572958	1.8907614	-0.0572958	-172.5405721	-5.03630082	-20.9989107
4.34	434	-0.072	0.103	1.018	-0.5156622	1.7761698	-0.0572958	-172.5463017	-5.05348956	-20.9989107
4.35	435	-0.072	0.102	1.014	-0.4010706	1.718874	0	-172.6551637	-5.02484166	-20.98745154
4.36	436	-0.073	0.103	1.013	-0.4010706	1.6042824	0	-172.6551637	-5.03630082	-20.99318112
4.37	437	-0.074	0.102	1.012	-0.4583664	1.3178034	0	-172.6608933	-5.05348956	-20.99318112
4.38	438	-0.074	0.1	1.012	-0.4583664	1.0886202	0.0572958	-172.6666229	-5.05921914	-20.9989107
4.39	439	-0.074	0.101	1.01	-0.4010706	0.8021412	0.1145916	-172.6723525	-5.0706783	-20.9989107
4.4	440	-0.074	0.1	1.01	-0.572958	0.7448454	0.0572958	-172.815592	-5.00765292	-20.98172196
4.41	441	-0.075	0.1	1.01	-0.6302538	0.5156622	0.1145916	-172.8213215	-5.0133825	-20.98745154
4.42	442	-0.075	0.099	1.011	-0.6875496	0.4010706	0.1145916	-172.8327807	-5.01911208	-20.98745154
4.43	443	-0.074	0.098	1.011	-0.8021412	0.1718874	0.1145916	-172.8385103	-5.01911208	-20.99318112
4.44	444	-0.074	0.098	1.011	-0.9167328	0	0.1145916	-172.8499694	-5.01911208	-20.99318112
4.45	445	-0.075	0.096	1.011	-0.9740286	-0.0572958	0.1718874	-173.0103977	-4.96181628	-20.97599238
4.46	446	-0.074	0.096	1.01	-0.9740286	-0.2291832	0.286479	-173.0218568	-4.96181628	-20.98172196
4.47	447	-0.074	0.096	1.011	-0.9167328	-0.286479	0.286479	-173.0275864	-4.9560867	-20.98172196
4.48	448	-0.073	0.095	1.011	-0.9167328	-0.4010706	0.286479	-173.0390456	-4.95035712	-20.98745154
4.49	449	-0.073	0.095	1.013	-0.9740286	-0.6302538	0.2291832	-173.0505047	-4.94462754	-20.98745154
4.5	450	-0.073	0.094	1.014	-1.0313244	-0.6875496	0.286479	-173.1593668	-4.8987909	-20.97599238
4.51	451	-0.073	0.094	1.013	-0.9740286	-0.7448454	0.286479	-173.1708259	-4.88733174	-20.98172196
4.52	452	-0.072	0.095	1.012	-0.9740286	-1.0313244	0.286479	-173.1822851	-4.88160216	-20.98172196
4.53	453	-0.071	0.094	1.01	-0.859437	-1.2605076	0.3437748	-173.1880147	-4.86441342	-20.98172196
4.54	454	-0.071	0.094	1.009	-0.6875496	-1.3178034	0.3437748	-173.1937442	-4.85295426	-20.98745154
4.55	455	-0.071	0.095	1.009	-0.572958	-1.2605076	0.4010706	-173.2796879	-4.79565846	-20.97599238
4.56	456	-0.07	0.094	1.011	-0.572958	-1.145916	0.286479	-173.2854175	-4.7841993	-20.98172196
4.57	457	-0.071	0.094	1.01	-0.5156622	-1.0886202	0.3437748	-173.2911471	-4.77274014	-20.98172196
4.58	458	-0.071	0.095	1.013	-0.5156622	-0.9740286	0.286479	-173.2968767	-4.76701056	-20.98172196
4.59	459	-0.069	0.094	1.012	-0.5156622	-0.859437	0.3437748	-173.3026063	-4.7555514	-20.98745154
4.6	460	-0.07	0.094	1.011	-0.5156622	-0.4583664	0.2291832	-173.4573049	-4.67533728	-20.9702628
4.61	461	-0.069	0.093	1.011	-0.4583664	-0.1145916	0.2291832	-173.4630345	-4.67533728	-20.9702628
4.62	462	-0.07	0.093	1.012	-0.4583664	-0.0572958	0.2291832	-173.4687641	-4.67533728	-20.97599238
4.63	463	-0.069	0.094	1.012	-0.5156622	-0.0572958	0.1718874	-173.4744937	-4.6696077	-20.97599238
4.64	464	-0.069	0.094	1.012	-0.5156622	0	0.1145916	-173.4802232	-4.6696077	-20.97599238
4.65	465	-0.07	0.094	1.011	-0.5156622	0.1718874	0.1145916	-173.6406515	-4.60085274	-20.96453322
4.66	466	-0.07	0.094	1.013	-0.572958	0.4010706	0.0572958	-173.6463811	-4.60085274	-20.96453322
4.67	467	-0.071	0.095	1.012	-0.572958	0.5156622	0.0572958	-173.6521106	-4.60658232	-20.96453322
4.68	468	-0.07	0.094	1.012	-0.6302538	0.5156622	0.0572958	-173.6578402	-4.6123119	-20.96453322
4.69	469	-0.071	0.093	1.012	-0.5156622	0.572958	0.0572958	-173.6635698	-4.61804148	-20.9702628
4.7	470	-0.071	0.093	1.011	-0.5156622	0.6302538	0.0572958	-173.7667022	-4.583664	-20.95880364
4.71	471	-0.072	0.092	1.011	-0.4010706	0.6302538	0.0572958	-173.7667022	-4.59512316	-20.96453322
4.72	472	-0.071	0.092	1.013	-0.4010706	0.6875496	0.0572958	-173.7724318	-4.60085274	-20.96453322
4.73	473	-0.072	0.093	1.013	-0.4010706	0.6875496	0.0572958	-173.7781614	-4.60658232	-20.96453322
4.74	474	-0.072	0.093	1.013	-0.4010706	0.7448454	0.0572958	-173.783891	-4.6123119	-20.9702628
4.75	475	-0.071	0.092	1.012	-0.4010706	0.572958	0.1145916	-173.8870234	-4.57793442	-20.95880364
4.76	476	-0.072	0.092	1.012	-0.4010706	0.4583664	0	-173.892753	-4.583664	-20.95880364
4.77	477	-0.072	0.092	1.013	-0.3437748	0.5156622	0.0572958	-173.892753	-4.58939358	-20.96453322
4.78	478	-0.073	0.093	1.013	-0.286479	0.572958	0.0572958	-173.8984826	-4.59512316	-20.96453322
4.79	479	-0.072	0.092	1.014	-0.3437748	0.6875496	0.0572958	-173.8984826	-4.60085274	-20.96453322
4.8	480	-0.073	0.092	1.013	-0.3437748	0.6302538	0.0572958	-174.001615	-4.56647526	-20.95880364
4.81	481	-0.073	0.092	1.013	-0.3437748	0.4583664	0.0572958	-174.0073446	-4.56647526	-20.95880364
4.82	482	-0.073	0.092	1.013	-0.4010706	0.4010706	0.0572958	-174.0130742	-4.57220484	-20.95880364
4.83	483	-0.072	0.091	1.013	-0.286479	0.286479	0.1145916	-174.0130742	-4.57793442	-20.95880364
4.84	484	-0.072	0.092	1.013	-0.2291832	0.1718874	0.1145916	-174.0188038	-4.57793442	-20.96453322
4.85	485	-0.073	0.092	1.013	-0.286479	0.2291832	0.1145916	-174.1276658	-4.53209778	-20.95307406
4.86	486	-0.073	0.091	1.014	-0.3437748	0.1718874	0.1145916	-174.1333954	-4.53209778	-20.95307406
4.87	487	-0.072	0.091	1.015	-0.4583664	0.3437748	0.1145916	-174.1391249	-4.53209778	-20.95880364
4.88	488	-0.072	0.091	1.015	-0.572958	0.4583664	0.1145916	-174.1448545	-4.53782736	-20.95880364
4.89	489	-0.073	0.091	1.017	-0.6875496	0.5156622	0.1145916	-174.1505841	-4.54355694	-20.95880364
4.9	490	-0.072	0.091	1.015	-0.6302538	0.4583664	0.1145916	-174.2250686	-4.5263682	-20.95880364
4.91	491	-0.072	0.091	1.01	-0.6875496	0.4010706	0.1145916	-174.2307982	-4.5263682	-20.95880364
4.92	492	-0.074	0.09	1.01	-0.5156622	0.0572958	0.1145916	-174.2365278	-4.5263682	-20.95880364
4.93	493	-0.073	0.089	1.011	-0.3437748	0.0572958	0.2291832	-174.2365278	-4.5263682	-20.96453322
4.94	494	-0.073	0.09	1.01	-0.2291832	0	0.1718874	-174.2422574	-4.5263682	-20.96453322
4.95	495	-0.073	0.089	1.01	-0.2291832	-0.0572958	0.1718874	-174.3740377	-4.4690724	-20.95307406
4.96	496	-0.073	0.088	1.011	-0.286479	-0.0572958	0.1145916	-174.3797673	-4.4690724	-20.95307406
4.97	497	-0.073	0.089	1.012	-0.3437748	0	0.0572958	-174.3797673	-4.4690724	-20.95880364
4.98	498	-0.073	0.089	1.013	-0.3437748	0.1145916	0.1145916	-174.3854969	-4.4690724	-20.95880364
4.99	499	-0.073	0.089	1.012	-0.286479	0	0.1145916	-174.3912265	-4.4690724	-20.95880364
5	500	-0.073	0.088	1.012	0.1145916	-0.2291832	0.0572958	-174.5172772	-4.42323576	-20.94734448
5.01	501	-0.073	0.089	1.014	0.2291832	-0.1145916	0.0572958	-174.5115476	-4.41750618	-20.94734448
5.02	502	-0.073	0.089	1.012	0.286479	-0.1718874	0	-174.5115476	-4.41750618	-20.94734448
5.03	503	-0.073	0.088	1.013	0.4010706	-0.0572958	0	-174.5058181	-4.41750618	-20.94734448
5.04	504	-0.073	0.088	1.013	0.4010706	-0.1718874	0.0572958	-174.5000885	-4.41750618	-20.94734448
5.05	505	-0.073	0.089	1.011	0.4583664	-0.286479	0.0572958	-174.5573843	-4.39458786	-20.9416149
5.06	506	-0.073	0.089	1.011	0.572958	-0.2291832	0.1145916	-174.5516547	-4.38885828	-20.94734448
5.07	507	-0.073	0.089	1.012	0.6302538	-0.3437748	0.1145916	-174.5401955	-4.3831287	-20.94734448
5.08	508	-0.073	0.09	1.013	0.5156622	-0.286479	0.0572958	-174.534466	-4.3831287	-20.94734448
5.09	509	-0.073	0.089	1.013	0.572958	-0.286479	0	-174.5287364	-4.37739912	-20.94734448
5.1	510	-0.072	0.088	1.014	0.4010706	-0.1145916	0	-174.5974913	-4.34302164	-20.9416149
5.11	511	-0.073	0.088	1.014	0.4583664	-0.0572958	0	-174.5917618	-4.34302164	-20.9416149
5.12	512	-0.073	0.088	1.013	0.286479	0	0	-174.5917618	-4.34302164	-20.9416149
5.13	513	-0.074	0.088	1.012	0.286479	0	0	-174.5860322	-4.34302164	-20.9416149
5.14	514	-0.073	0.087	1.013	0.2291832	0	0	-174.5860322	-4.34302164	-20.9416149
5.15	515	-0.074	0.088	1.013	0.1718874	-0.0572958	-0.0572958	-174.7235421	-4.32010332	-20.93015574
5.16	516	-0.074	0.089	1.014	0.1145916	-0.286479	0	-174.7235421	-4.31437374	-20.93015574
5.17	517	-0.073	0.088	1.013	0.1145916	-0.286479	0	-174.7235421	-4.31437374	-20.93015574
5.18	518	-0.074	0.089	1.013	0.1718874	-0.2291832	0	-174.7235421	-4.30864416	-20.92442616
5.19	519	-0.073	0.089	1.012	0.2291832	-0.1145916	0	-174.7178125	-4.30864416	-20.92442616
5.2	520	-0.074	0.089	1.011	0.2291832	0.0572958	0	-174.7865675	-4.297185	-20.91869658
5.21	521	-0.073	0.089	1.014	0.2291832	0.1718874	0	-174.7808379	-4.297185	-20.91869658
5.22	522	-0.074	0.089	1.013	0.286479	0.2291832	0	-174.7808379	-4.297185	-20.92442616
5.23	523	-0.075	0.088	1.014	0.4010706	0.1718874	0	-174.7751083	-4.30291458	-20.91869658
5.24	524	-0.074	0.088	1.014	0.4010706	0.2291832	0	-174.7693787	-4.30291458	-20.91869658
5.25	525	-0.074	0.089	1.013	0.4010706	0.2291832	0	-174.8152154	-4.297185	-20.91869658
5.26	526	-0.074	0.089	1.014	0.3437748	0.3437748	0	-174.8094858	-4.30291458	-20.91869658
5.27	527	-0.074	0.088	1.013	0.4010706	0.286479	0	-174.8094858	-4.30291458	-20.91869658
5.28	528	-0.073	0.088	1.014	0.4010706	0.1718874	0	-174.8037562	-4.30864416	-20.91869658
5.29	529	-0.074	0.087	1.012	0.3437748	0.1145916	0	-174.7980266	-4.30864416	-20.91869658
5.3	530	-0.075	0.088	1.013	0.1718874	-0.0572958	0	-174.9355366	-4.2685371	-20.90723742
5.31	531	-0.073	0.087	1.011	0.1145916	-0.1145916	0	-174.9355366	-4.26280752	-20.90723742
5.32	532	-0.074	0.087	1.012	0.1145916	-0.1145916	0	-174.9355366	-4.26280752	-20.90723742
5.33	533	-0.074	0.088	1.012	0	0	0	-174.9355366	-4.26280752	-20.90723742
5.34	534	-0.075	0.088	1.013	0	0.0572958	0	-174.9355366	-4.26280752	-20.90723742
5.35	535	-0.074	0.088	1.013	0	0.1718874	0	-174.9928324	-4.26280752	-20.90150784
5.36	536	-0.074	0.088	1.013	0.0572958	0.286479	0	-174.9928324	-4.26280752	-20.90150784
5.37	537	-0.074	0.087	1.012	0.0572958	0.286479	0	-174.9928324	-4.2685371	-20.90150784
5.38	538	-0.075	0.088	1.011	0	0.286479	0	-174.9928324	-4.27426668	-20.90150784
5.39	539	-0.075	0.087	1.012	0.0572958	0.1718874	0	-174.9871028	-4.27426668	-20.90150784
5.4	540	-0.075	0.088	1.013	0.1145916	0	0	-175.0443986	-4.25134836	-20.89577826
5.41	541	-0.075	0.086	1.013	0.1145916	0	0	-175.0443986	-4.25134836	-20.89577826
5.42	542	-0.075	0.087	1.013	0	-0.1718874	0	-175.0443986	-4.24561878	-20.89577826
5.43	543	-0.075	0.087	1.013	0	-0.1145916	0	-175.0443986	-4.24561878	-20.89577826
5.44	544	-0.074	0.087	1.012	0	-0.0572958	0	-175.0443986	-4.24561878	-20.89577826
5.45	545	-0.076	0.088	1.014	0	-0.0572958	0	-175.0959648	-4.24561878	-20.89004868
5.46	546	-0.075	0.087	1.014	0	0.0572958	0	-175.1016944	-4.24561878	-20.89004868
5.47	547	-0.075	0.087	1.014	0	0.1145916	0	-175.1016944	-4.24561878	-20.89004868
5.48	548	-0.075	0.089	1.013	0	0.0572958	0.0572958	-175.1016944	-4.24561878	-20.89004868
5.49	549	-0.076	0.088	1.013	0	0.0572958	0	-175.1016944	-4.25134836	-20.89004868
5.5	550	-0.075	0.088	1.013	0	0.1145916	0	-175.147531	-4.24561878	-20.89004868
5.51	551	-0.076	0.088	1.013	-0.1145916	0.0572958	0	-175.1532606	-4.24561878	-20.89004868
5.52	552	-0.076	0.087	1.012	-0.0572958	0	0	-175.1532606	-4.24561878	-20.89004868
5.53	553	-0.075	0.087	1.011	-0.1145916	0.0572958	0	-175.1532606	-4.25134836	-20.89004868
5.54	554	-0.075	0.087	1.01	-0.1718874	0	0	-175.1532606	-4.25134836	-20.89004868
5.55	555	-0.076	0.087	1.01	-0.1145916	0	0	-175.1933677	-4.25707794	-20.89004868
5.56	556	-0.075	0.087	1.011	-0.1145916	0.1718874	0	-175.1933677	-4.25707794	-20.89004868
5.57	557	-0.075	0.087	1.012	-0.0572958	0.1718874	0.0572958	-175.1933677	-4.25707794	-20.89004868
5.58	558	-0.075	0.088	1.013	-0.0572958	0.1718874	0	-175.1933677	-4.25707794	-20.89004868
5.59	559	-0.075	0.087	1.013	-0.1145916	0.1145916	0	-175.1933677	-4.26280752	-20.89004868
5.6	560	-0.076	0.087	1.014	-0.1145916	0.1145916	-0.0572958	-175.2277451	-4.25707794	-20.89004868
5.61	561	-0.077	0.087	1.014	-0.1718874	0.0572958	-0.0572958	-175.2277451	-4.25707794	-20.89004868
5.62	562	-0.075	0.087	1.015	-0.0572958	0.0572958	0	-175.2277451	-4.26280752	-20.89004868
5.63	563	-0.076	0.087	1.015	-0.1145916	0.0572958	-0.0572958	-175.2334747	-4.26280752	-20.8843191
5.64	564	-0.077	0.087	1.014	-0.1145916	0	0	-175.2334747	-4.26280752	-20.8843191
5.65	565	-0.076	0.087	1.012	-0.0572958	-0.0572958	0	-175.256393	-4.26280752	-20.8843191
5.66	566	-0.077	0.086	1.013	-0.0572958	-0.0572958	0	-175.2621226	-4.26280752	-20.8843191
5.67	567	-0.076	0.087	1.01	-0.0572958	-0.1718874	0	-175.2621226	-4.25707794	-20.8843191
5.68	568	-0.076	0.086	1.011	-0.1145916	-0.2291832	0.0572958	-175.2621226	-4.25707794	-20.8843191
5.69	569	-0.077	0.087	1.011	-0.1718874	-0.286479	0	-175.2621226	-4.25134836	-20.8843191
5.7	570	-0.076	0.087	1.011	-0.1145916	-0.2291832	0	-175.2793114	-4.25707794	-20.8843191
5.71	571	-0.077	0.087	1.011	-0.1145916	-0.286479	0	-175.2793114	-4.25134836	-20.8843191
5.72	572	-0.077	0.087	1.012	-0.1145916	-0.3437748	0	-175.2793114	-4.25134836	-20.8843191
5.73	573	-0.076	0.086	1.014	-0.2291832	-0.3437748	0	-175.2850409	-4.24561878	-20.8843191
5.74	574	-0.077	0.084	1.015	-0.1145916	-0.4010706	0	-175.2850409	-4.2398892	-20.8843191
5.75	575	-0.076	0.085	1.014	-0.1718874	-0.4010706	0	-175.3022297	-4.2398892	-20.8843191
5.76	576	-0.077	0.084	1.012	-0.1718874	-0.4010706	0	-175.3022297	-4.2398892	-20.8843191
5.77	577	-0.076	0.084	1.014	-0.286479	-0.3437748	0	-175.3079593	-4.23415962	-20.8843191
5.78	578	-0.077	0.085	1.015	-0.286479	-0.2291832	0	-175.3079593	-4.23415962	-20.8843191
5.79	579	-0.076	0.086	1.014	-0.286479	-0.286479	0	-175.3136888	-4.22843004	-20.87858952
5.8	580	-0.076	0.086	1.014	-0.286479	-0.3437748	0	-175.3194184	-4.22843004	-20.87858952
5.81	581	-0.076	0.085	1.013	-0.2291832	-0.3437748	0	-175.3194184	-4.22270046	-20.87858952
5.82	582	-0.076	0.086	1.013	-0.1145916	-0.2291832	0	-175.325148	-4.22270046	-20.87858952
5.83	583	-0.076	0.086	1.011	-0.0572958	-0.2291832	0	-175.325148	-4.21697088	-20.87858952
5.84	584	-0.076	0.087	1.012	0	-0.1718874	0	-175.325148	-4.21697088	-20.87858952
5.85	585	-0.076	0.087	1.013	0	-0.2291832	0	-175.3308776	-4.21697088	-20.87858952
5.86	586	-0.076	0.085	1.013	0.1145916	-0.1718874	0.0572958	-175.325148	-4.21697088	-20.87858952
5.87	587	-0.076	0.086	1.015	0.1718874	-0.2291832	0.0572958	-175.325148	-4.2112413	-20.8843191
5.88	588	-0.076	0.085	1.014	0.1145916	-0.286479	0	-175.325148	-4.2112413	-20.8843191
5.89	589	-0.076	0.085	1.013	0.0572958	-0.2291832	0	-175.325148	-4.20551172	-20.8843191
5.9	590	-0.076	0.084	1.013	0.1145916	-0.286479	0	-175.3366072	-4.2112413	-20.8843191
5.91	591	-0.075	0.085	1.011	0.1145916	-0.2291832	0.0572958	-175.3366072	-4.20551172	-20.8843191
5.92	592	-0.076	0.085	1.014	0.0572958	0.0572958	0.0572958	-175.3366072	-4.20551172	-20.8843191
5.93	593	-0.076	0.085	1.014	0.0572958	0	0	-175.3308776	-4.20551172	-20.8843191
5.94	594	-0.077	0.084	1.014	0.0572958	0	0	-175.3308776	-4.20551172	-20.8843191
5.95	595	-0.076	0.084	1.012	0.1145916	0	0.0572958	-175.3767142	-4.22270046	-20.8843191
5.96	596	-0.075	0.084	1.013	0	-0.1145916	0.0572958	-175.3767142	-4.22270046	-20.8843191
5.97	597	-0.076	0.084	1.013	0	-0.1145916	0	-175.3767142	-4.22270046	-20.8843191
5.98	598	-0.076	0.084	1.011	0	0	0.0572958	-175.3767142	-4.22270046	-20.8843191
5.99	599	-0.075	0.083	1.013	0	0	0.0572958	-175.3767142	-4.22270046	-20.8843191
6	600	-0.077	0.084	1.014	0	0	0	-175.4110917	-4.2398892	-20.8843191
6.01	601	-0.076	0.084	1.011	0	0.0572958	0.0572958	-175.4110917	-4.2398892	-20.8843191
6.02	602	-0.076	0.083	1.011	0.0572958	0.0572958	0	-175.4110917	-4.24561878	-20.8843191
6.03	603	-0.075	0.083	1.012	0	0.0572958	-0.0572958	-175.4110917	-4.24561878	-20.8843191
6.04	604	-0.076	0.083	1.012	0.0572958	0.0572958	0	-175.4110917	-4.24561878	-20.8843191
6.05	605	-0.076	0.084	1.013	0.0572958	0	0	-175.4569283	-4.27426668	-20.8843191
6.06	606	-0.075	0.084	1.012	0.1145916	0.0572958	0	-175.4569283	-4.27426668	-20.8843191
6.07	607	-0.075	0.084	1.014	0.0572958	0	0	-175.4569283	-4.27426668	-20.8843191
6.08	608	-0.076	0.084	1.014	0	0.0572958	0	-175.4569283	-4.27426668	-20.8843191
6.09	609	-0.075	0.084	1.014	0	0.1145916	-0.0572958	-175.4569283	-4.27426668	-20.8843191
6.1	610	-0.076	0.084	1.014	0.0572958	0.1145916	-0.0572958	-175.4683875	-4.27999626	-20.8843191
6.11	611	-0.075	0.083	1.014	0	0.286479	0	-175.4683875	-4.27999626	-20.8843191
6.12	612	-0.076	0.084	1.013	0.0572958	0.2291832	0	-175.4683875	-4.28572584	-20.8843191
6.13	613	-0.076	0.083	1.014	0	0.1145916	-0.0572958	-175.4683875	-4.28572584	-20.8843191
6.14	614	-0.076	0.084	1.013	0.0572958	0.1718874	0	-175.4683875	-4.28572584	-20.8843191
6.15	615	-0.075	0.083	1.013	0	0.1718874	-0.0572958	-175.4798467	-4.28572584	-20.8843191
6.16	616	-0.076	0.082	1.013	0.0572958	0.3437748	-0.0572958	-175.4741171	-4.28572584	-20.8843191
6.17	617	-0.077	0.082	1.011	0	0.3437748	-0.1145916	-175.4741171	-4.29145542	-20.87858952
6.18	618	-0.076	0.082	1.012	0.0572958	0.4010706	-0.0572958	-175.4741171	-4.297185	-20.87858952
6.19	619	-0.077	0.083	1.013	0	0.4583664	-0.1145916	-175.4741171	-4.30291458	-20.87858952
6.2	620	-0.076	0.082	1.014	0	0.6302538	-0.1145916	-175.4798467	-4.30864416	-20.87858952
6.21	621	-0.077	0.083	1.013	0	0.6302538	-0.0572958	-175.4798467	-4.31437374	-20.87858952
6.22	622	-0.077	0.083	1.012	0	0.4583664	-0.0572958	-175.4798467	-4.32010332	-20.87858952
6.23	623	-0.076	0.084	1.012	0	0.1718874	0	-175.4798467	-4.32010332	-20.87858952
6.24	624	-0.077	0.083	1.012	0	0.1145916	0	-175.4798467	-4.32010332	-20.87858952
6.25	625	-0.076	0.084	1.013	0	0.1145916	0	-175.5084946	-4.3258329	-20.87858952
6.26	626	-0.077	0.083	1.013	0	0.1718874	0	-175.5084946	-4.3258329	-20.87858952
6.27	627	-0.078	0.084	1.014	0.1145916	0.1145916	0	-175.5084946	-4.33156248	-20.87858952
