TimeStamp(s)	FrameCounter	AccX	AccY	AccZ	GyrX	GyrY	GyrZ	EulerX	EulerY	EulerZ
0.01	1	-0.029	-0.991	0.196	1.0886202	-2.578311	0.9167328	98.42845482	-2.26891368	-18.52946172
0.02	2	-0.024	-0.989	0.204	0.6875496	-4.010706	0.9740286	98.43991398	-2.26891368	-18.56956878
0.03	3	-0.029	-0.99	0.205	0.5156622	-4.583664	1.0313244	98.44564356	-2.27464326	-18.61540542
0.04	4	-0.029	-0.99	0.206	0.2291832	-4.9847346	1.145916	98.45137314	-2.27464326	-18.66697164
0.05	5	-0.031	-0.994	0.206	0	-5.156622	1.432395	98.48575062	-2.26891368	-18.7357266
0.06	6	-0.03	-0.992	0.205	-0.1145916	-5.3285094	1.6615782	98.48575062	-2.27464326	-18.7930224
0.07	7	-0.029	-0.99	0.206	-0.1145916	-5.5003968	1.718874	98.48575062	-2.28610242	-18.8503182
0.08	8	-0.031	-0.988	0.208	-0.1718874	-5.443101	1.6615782	98.48575062	-2.291832	-18.907614
0.09	9	-0.034	-0.987	0.207	-0.3437748	-5.0420304	1.7761698	98.48575062	-2.30329116	-18.95918022
0.1	10	-0.035	-0.987	0.204	-0.572958	-4.7555514	2.005353	98.50866894	-2.30329116	-19.0222056
0.11	11	-0.035	-0.987	0.2	-0.572958	-4.6982556	2.1199446	98.50866894	-2.3204799	-19.06804224
0.12	12	-0.033	-0.989	0.201	-0.4010706	-4.4117766	2.2345362	98.50293936	-2.33193906	-19.11960846
0.13	13	-0.03	-0.991	0.203	-0.2291832	-4.297185	2.1772404	98.50293936	-2.3491278	-19.1654451
0.14	14	-0.029	-0.988	0.2	-0.4010706	-4.4690724	2.2345362	98.50293936	-2.36058696	-19.21128174
0.15	15	-0.029	-0.986	0.201	-0.4583664	-4.870143	2.291832	98.52585768	-2.36058696	-19.27430712
0.16	16	-0.029	-0.984	0.204	-0.4010706	-5.2712136	2.291832	98.52585768	-2.37204612	-19.33160292
0.17	17	-0.03	-0.986	0.21	-0.4583664	-5.156622	2.2345362	98.52585768	-2.38923486	-19.38316914
0.18	18	-0.029	-0.987	0.212	-0.7448454	-4.870143	2.1772404	98.5201281	-2.40069402	-19.43473536
0.19	19	-0.027	-0.988	0.21	-0.7448454	-4.7555514	2.291832	98.51439852	-2.41788276	-19.48630158
0.2	20	-0.023	-0.988	0.21	-0.4583664	-5.0420304	2.4064236	98.54304642	-2.41215318	-19.56078612
0.21	21	-0.022	-0.986	0.212	-0.3437748	-5.3858052	2.4064236	98.54304642	-2.42361234	-19.61808192
0.22	22	-0.023	-0.983	0.212	-0.0572958	-5.9587632	2.291832	98.54304642	-2.4350715	-19.67537772
0.23	23	-0.023	-0.984	0.213	0	-6.3598338	2.1199446	98.548776	-2.44653066	-19.74413268
0.24	24	-0.024	-0.986	0.213	-0.1718874	-6.4171296	1.9480572	98.548776	-2.45798982	-19.80715806
0.25	25	-0.026	-0.988	0.211	-0.4010706	-6.2452422	1.8334656	98.5774239	-2.44653066	-19.88737218
0.26	26	-0.026	-0.987	0.209	-0.2291832	-6.0733548	1.8907614	98.5774239	-2.45226024	-19.95039756
0.27	27	-0.027	-0.985	0.209	-0.0572958	-6.016059	1.8334656	98.58315348	-2.4637194	-20.01342294
0.28	28	-0.027	-0.983	0.211	0.1718874	-5.7868758	1.6042824	98.58888306	-2.46944898	-20.07071874
0.29	29	-0.027	-0.982	0.21	0.2291832	-5.5003968	1.4896908	98.59461264	-2.47517856	-20.12801454
0.3	30	-0.027	-0.983	0.211	0.3437748	-5.3285094	1.3178034	98.6347197	-2.45798982	-20.20249908
0.31	31	-0.027	-0.984	0.213	0.286479	-5.0420304	1.0886202	98.64044928	-2.45798982	-20.2540653
0.32	32	-0.028	-0.984	0.215	0.286479	-4.8128472	1.0313244	98.64617886	-2.45798982	-20.30563152
0.33	33	-0.028	-0.985	0.214	0.286479	-4.4117766	0.9167328	98.65763802	-2.4637194	-20.34573858
0.34	34	-0.026	-0.984	0.214	0.286479	-4.010706	0.9167328	98.65763802	-2.4637194	-20.39157522
0.35	35	-0.027	-0.986	0.212	0.286479	-4.0680018	0.859437	98.70920424	-2.44080108	-20.4546006
0.36	36	-0.028	-0.984	0.212	0.5156622	-3.9534102	0.8021412	98.7206634	-2.44653066	-20.49470766
0.37	37	-0.031	-0.984	0.214	0.5156622	-3.6096354	0.5156622	98.72639298	-2.44080108	-20.52908514
0.38	38	-0.033	-0.983	0.214	0.4583664	-2.9793816	0.286479	98.73212256	-2.44080108	-20.55773304
0.39	39	-0.035	-0.985	0.214	0.3437748	-2.291832	-0.0572958	98.73785214	-2.4350715	-20.58065136
0.4	40	-0.035	-0.987	0.215	0.4010706	-1.5469866	-0.286479	98.86963248	-2.38923486	-20.6551359
0.41	41	-0.034	-0.988	0.214	0.4010706	-0.9740286	-0.3437748	98.87536206	-2.38350528	-20.66659506
0.42	42	-0.029	-0.988	0.214	0.286479	-0.6302538	-0.286479	98.88109164	-2.3777757	-20.67232464
0.43	43	-0.027	-0.986	0.215	0.286479	-0.286479	-0.1718874	98.88109164	-2.3777757	-20.67232464
0.44	44	-0.026	-0.985	0.218	0.5156622	-0.1145916	-0.1718874	98.88682122	-2.37204612	-20.67232464
0.45	45	-0.027	-0.983	0.22	0.6302538	0.0572958	-0.286479	99.0930861	-2.291832	-20.7697275
0.46	46	-0.028	-0.983	0.222	0.6875496	0.4583664	-0.4010706	99.10454526	-2.28610242	-20.76399792
0.47	47	-0.03	-0.982	0.22	0.6875496	0.8021412	-0.5156622	99.11027484	-2.28037284	-20.75826834
0.48	48	-0.03	-0.984	0.221	0.6302538	1.0313244	-0.5156622	99.11600442	-2.28037284	-20.74680918
0.49	49	-0.031	-0.987	0.221	0.572958	1.3178034	-0.4583664	99.121734	-2.27464326	-20.72962044
0.5	50	-0.03	-0.989	0.222	0.572958	1.3178034	-0.3437748	99.23059602	-2.24026578	-20.76399792
0.51	51	-0.031	-0.987	0.223	0.572958	1.5469866	-0.1718874	99.2363256	-2.24026578	-20.74680918
0.52	52	-0.032	-0.986	0.222	0.6302538	1.8334656	-0.4010706	99.24205518	-2.24026578	-20.72962044
0.53	53	-0.034	-0.986	0.221	0.3437748	2.1199446	-0.5156622	99.24205518	-2.2345362	-20.70670212
0.54	54	-0.034	-0.986	0.22	0.2291832	2.4637194	-0.572958	99.24778476	-2.2345362	-20.6837838
0.55	55	-0.036	-0.988	0.22	0.0572958	2.578311	-0.6302538	99.30508056	-2.22307704	-20.67805422
0.56	56	-0.037	-0.991	0.218	0	2.8074942	-0.6302538	99.30508056	-2.21734746	-20.64940632
0.57	57	-0.037	-0.993	0.218	-0.1145916	2.9220858	-0.6302538	99.29935098	-2.21734746	-20.62075842
0.58	58	-0.037	-0.993	0.215	-0.1145916	3.2085648	-0.6302538	99.29935098	-2.21734746	-20.58638094
0.59	59	-0.036	-0.991	0.213	-0.1718874	3.437748	-0.6875496	99.2936214	-2.21734746	-20.55200346
0.6	60	-0.034	-0.987	0.211	-0.4010706	3.437748	-0.8021412	99.3222693	-2.20015872	-20.53481472
0.61	61	-0.032	-0.984	0.208	-0.4010706	3.437748	-0.9167328	99.31653972	-2.20015872	-20.50043724
0.62	62	-0.032	-0.982	0.211	-0.1718874	3.151269	-0.9167328	99.31081014	-2.19442914	-20.46605976
0.63	63	-0.034	-0.982	0.215	-0.1718874	3.2658606	-0.9167328	99.30508056	-2.19442914	-20.43168228
0.64	64	-0.032	-0.984	0.214	-0.2291832	3.3231564	-1.0313244	99.29935098	-2.18869956	-20.3973048
0.65	65	-0.031	-0.985	0.213	-0.286479	3.3231564	-0.859437	99.33372846	-2.17151082	-20.38011606
0.66	66	-0.031	-0.985	0.213	-0.3437748	3.3231564	-0.859437	99.32799888	-2.17151082	-20.35146816
0.67	67	-0.029	-0.985	0.214	-0.0572958	3.0939732	-0.859437	99.32799888	-2.16578124	-20.31709068
0.68	68	-0.031	-0.985	0.216	0.0572958	2.5210152	-0.8021412	99.32799888	-2.16005166	-20.28844278
0.69	69	-0.033	-0.984	0.219	0.286479	1.8907614	-0.8021412	99.32799888	-2.16005166	-20.27125404
0.7	70	-0.036	-0.981	0.222	0.286479	2.005353	-1.145916	99.39102426	-2.14286292	-20.27125404
0.71	71	-0.039	-0.984	0.223	0	2.8074942	-1.6042824	99.38529468	-2.13140376	-20.23687656
0.72	72	-0.043	-0.984	0.22	-0.0572958	3.4950438	-2.0626488	99.38529468	-2.11421502	-20.20249908
0.73	73	-0.045	-0.988	0.216	0.0572958	3.7815228	-2.4064236	99.38529468	-2.09702628	-20.16239202
0.74	74	-0.041	-0.988	0.217	0.286479	3.724227	-2.4637194	99.38529468	-2.07983754	-20.12228496
0.75	75	-0.031	-0.987	0.219	0.6875496	3.4950438	-2.1772404	99.42540174	-2.05691922	-20.09363706
0.76	76	-0.023	-0.984	0.222	1.2605076	3.2658606	-1.8334656	99.4368609	-2.04546006	-20.05925958
0.77	77	-0.019	-0.982	0.223	1.432395	2.9220858	-1.5469866	99.44832006	-2.0340009	-20.03061168
0.78	78	-0.02	-0.983	0.223	1.3750992	2.6356068	-1.2605076	99.45977922	-2.02827132	-20.00196378
0.79	79	-0.023	-0.984	0.223	1.0313244	2.578311	-0.9740286	99.47123838	-2.02254174	-19.97331588
0.8	80	-0.028	-0.986	0.218	0.859437	2.6929026	-0.859437	99.51707502	-1.99962342	-19.9675863
0.81	81	-0.031	-0.989	0.215	0.572958	2.6929026	-0.859437	99.5228046	-1.99962342	-19.9389384
0.82	82	-0.034	-0.99	0.213	0.4010706	2.6929026	-1.0313244	99.5228046	-1.99389384	-19.9102905
0.83	83	-0.036	-0.987	0.208	0.2291832	2.7501984	-1.3178034	99.52853418	-1.98243468	-19.8816426
0.84	84	-0.037	-0.985	0.206	0.286479	3.0366774	-1.4896908	99.52853418	-1.9767051	-19.84726512
0.85	85	-0.035	-0.984	0.207	0.5156622	3.0939732	-1.432395	99.55718208	-1.95951636	-19.8243468
0.86	86	-0.034	-0.986	0.211	0.6875496	3.0939732	-1.3178034	99.56291166	-1.95378678	-19.78996932
0.87	87	-0.033	-0.99	0.211	0.859437	3.3231564	-1.0886202	99.56864124	-1.9480572	-19.75559184
0.88	88	-0.029	-0.993	0.208	0.859437	3.724227	-0.8021412	99.57437082	-1.9480572	-19.71548478
0.89	89	-0.026	-0.999	0.206	0.6302538	4.1825934	-0.4010706	99.5801004	-1.95378678	-19.67537772
0.9	90	-0.024	-1	0.204	0.286479	4.8128472	-0.0572958	99.59728914	-1.94232762	-19.64100024
0.91	91	-0.023	-0.996	0.199	-0.0572958	5.5576926	0.3437748	99.59155956	-1.95378678	-19.58943402
0.92	92	-0.026	-0.995	0.195	-0.8021412	5.8441716	0.7448454	99.5801004	-1.9767051	-19.53213822
0.93	93	-0.031	-0.998	0.196	-1.2032118	6.1879464	1.2605076	99.56864124	-1.99962342	-19.47484242
0.94	94	-0.036	-1.007	0.204	-1.5469866	6.875496	1.3750992	99.54572292	-2.02827132	-19.41181704
0.95	95	-0.033	-1.022	0.204	-2.578311	8.5370742	1.2605076	99.51707502	-2.05118964	-19.33160292
0.96	96	-0.029	-1.039	0.19	-4.6982556	9.5683986	0.9167328	99.4655088	-2.07983754	-19.23992964
0.97	97	-0.03	-1.051	0.182	-7.161975	9.2819196	0.4583664	99.39102426	-2.10275586	-19.15398594
0.98	98	-0.03	-1.054	0.184	-9.167328	9.453807	0	99.2936214	-2.1199446	-19.06231266
0.99	99	-0.024	-1.057	0.169	-11.0580894	9.6256944	-0.572958	99.17330022	-2.13140376	-18.9649098
1	100	-0.016	-1.056	0.147	-14.4385416	8.4224826	-0.6875496	99.01287198	-2.13713334	-18.88469568
1.01	101	-0.009	-1.053	0.132	-16.9595568	6.589017	-0.4583664	98.835255	-2.14286292	-18.8216703
1.02	102	-0.002	-1.046	0.124	-18.4492476	4.7555514	-0.2291832	98.64617886	-2.15432208	-18.77583366
1.03	103	0	-1.043	0.118	-19.4232762	3.3231564	-0.1145916	98.44564356	-2.16005166	-18.74718576
1.04	104	-0.001	-1.042	0.111	-20.2827132	2.005353	-0.286479	98.23937868	-2.16005166	-18.72999702
1.05	105	-0.005	-1.042	0.103	-21.1421502	0.9167328	-0.9167328	98.01019548	-2.14286292	-18.71853786
1.06	106	-0.013	-1.043	0.102	-22.5745452	-0.4583664	-1.7761698	97.78101228	-2.12567418	-18.72426744
1.07	107	-0.018	-1.037	0.1	-24.4080108	-2.6929026	-2.8074942	97.53464034	-2.09702628	-18.75291534
1.08	108	-0.021	-1.028	0.09	-24.8090814	-4.4117766	-3.437748	97.28253882	-2.05691922	-18.7930224
1.09	109	-0.025	-1.028	0.083	-25.7258142	-4.9274388	-3.8388186	97.02470772	-2.01681216	-18.83885904
1.1	110	-0.026	-1.032	0.075	-27.2728008	-5.0993262	-3.8961144	96.73822872	-1.96524594	-18.88469568
1.11	111	-0.023	-1.042	0.064	-28.5906042	-5.2712136	-3.9534102	96.45174972	-1.92513888	-18.9362619
1.12	112	-0.019	-1.05	0.054	-29.5646328	-6.0733548	-3.8388186	96.15381156	-1.87930224	-18.99928728
1.13	113	-0.01	-1.05	0.062	-29.507337	-7.734933	-3.9534102	95.8558734	-1.82773602	-19.07377182
1.14	114	0	-1.046	0.062	-30.0229992	-9.2246238	-4.010706	95.55793524	-1.78189938	-19.1654451
1.15	115	0.004	-1.034	0.056	-30.0229992	-10.7716104	-4.3544808	95.24853792	-1.718874	-19.26857754
1.16	116	-0.004	-1.025	0.099	-26.356068	-13.3499214	-4.9274388	94.98497724	-1.6615782	-19.40035788
1.17	117	-0.022	-1.036	0.111	-26.356068	-13.178034	-5.5576926	94.72714614	-1.59282324	-19.52640864
1.18	118	-0.03	-1.043	0.082	-30.7105488	-9.7975818	-5.72958	94.41774882	-1.52406828	-19.6238115
1.19	119	-0.033	-1.056	0.056	-34.950438	-7.6776372	-5.6722842	94.06251486	-1.46677248	-19.69829604
1.2	120	-0.03	-1.067	0.048	-37.1276784	-6.9327918	-6.1879464	93.68436258	-1.39801752	-19.767051
1.21	121	-0.031	-1.071	0.045	-39.4768062	-6.302538	-6.875496	93.28902156	-1.32926256	-19.83007638
1.22	122	-0.033	-1.061	0.036	-43.6021038	-5.2139178	-7.3911582	92.8478439	-1.25477802	-19.8816426
1.23	123	-0.033	-1.039	0.017	-47.7274014	-3.6096354	-8.021412	92.3608296	-1.1745639	-19.92174966
1.24	124	-0.034	-1.026	0.009	-49.2170922	-2.0626488	-8.59437	91.86235614	-1.0886202	-19.94466798
1.25	125	-0.033	-1.029	0.006	-50.420304	-0.572958	-9.167328	91.34669394	-1.0026765	-19.95039756
1.26	126	-0.033	-1.02	0.021	-52.425657	-0.286479	-10.0840608	90.813843	-0.90527364	-19.95612714
1.27	127	-0.03	-1	0.033	-52.6548402	-0.1718874	-11.172681	90.28099206	-0.8021412	-19.96185672
1.28	128	-0.026	-0.996	0.019	-55.290447	1.2032118	-11.9748222	89.71949322	-0.6875496	-19.95612714
1.29	129	-0.021	-1.001	-0.006	-60.16059	3.3231564	-12.7196676	89.10642816	-0.56722842	-19.93320882
1.3	130	-0.009	-1.012	-0.026	-63.9994086	5.2139178	-12.891555	88.45325604	-0.44117766	-19.88737218
1.31	131	0.002	-1.021	-0.046	-66.2339448	6.4171296	-13.0061466	87.78289518	-0.3151269	-19.83580596
1.32	132	0.006	-1.027	-0.075	-67.895523	7.2765666	-13.1207382	87.089616	-0.19480572	-19.77851016
1.33	133	0.021	-1.024	-0.08	-70.3592424	7.7922288	-13.3499214	86.3734185	-0.06302538	-19.71548478
1.34	134	0.033	-1.007	-0.074	-71.61975	8.6516658	-13.5218088	85.64576184	0.06302538	-19.64672982
1.35	135	0.033	-0.991	-0.079	-73.338624	10.1986524	-13.4072172	84.90091644	0.19480572	-19.5665157
1.36	136	0.013	-0.966	-0.058	-74.5991316	8.9381448	-12.7196676	84.1388823	0.32085648	-19.49776074
1.37	137	-0.014	-0.942	-0.063	-73.9688778	6.875496	-11.745639	83.38830732	0.43544808	-19.44619452
1.38	138	-0.018	-0.943	-0.085	-74.6564274	7.6776372	-11.3445684	82.63200276	0.55003968	-19.3946283
1.39	139	-0.006	-0.956	-0.106	-77.2347384	7.9641162	-11.2299768	81.8470503	0.6589017	-19.3373325
1.4	140	0.007	-0.972	-0.11	-78.7244292	1.9480572	-11.8602306	81.0449091	0.7734933	-19.34306208
1.41	141	0.033	-0.961	-0.102	-78.8390208	-4.3544808	-13.4072172	80.24849748	0.89381448	-19.41754662
1.42	142	0.061	-0.948	-0.128	-78.495246	-4.9847346	-15.6990492	79.44635628	1.0313244	-19.49776074
1.43	143	0.073	-0.952	-0.11	-78.0941754	-2.1772404	-18.1627686	78.65567424	1.19748222	-19.56078612
1.44	144	0.073	-0.964	-0.098	-77.635809	2.1772404	-20.2827132	77.8649922	1.38655836	-19.58943402
1.45	145	0.065	-0.978	-0.121	-79.068204	6.1306506	-21.8869956	77.06858058	1.61001198	-19.58370444
1.46	146	0.04	-0.979	-0.082	-81.1308528	5.5576926	-22.631841	76.24352106	1.82773602	-19.58943402
1.47	147	0.002	-0.96	-0.086	-81.9902898	0.6875496	-21.1421502	75.40700238	2.02827132	-19.64100024
1.48	148	-0.02	-0.939	-0.15	-82.9070226	-4.1252976	-16.7876694	74.56475412	2.17151082	-19.73267352
1.49	149	-0.006	-0.909	-0.174	-80.5578948	-8.1360036	-13.0061466	73.7396946	2.2631841	-19.8529947
1.5	150	0.037	-0.909	-0.179	-79.641162	-13.8082878	-11.745639	72.93182382	2.33193906	-20.0248821
1.51	151	0.06	-0.909	-0.204	-78.2660628	-16.329303	-12.6623718	72.12968262	2.40069402	-20.2254174
1.52	152	0.023	-0.912	-0.208	-70.760313	-17.475219	-15.2406828	71.40775554	2.48663772	-20.44314144
1.53	153	0.013	-0.931	-0.139	-57.9260538	-14.4958374	-19.480572	70.81187922	2.61841806	-20.64940632
1.54	154	0.069	-0.968	-0.088	-59.7595194	-2.4637194	-24.5226024	70.19881416	2.8361421	-20.75826834
1.55	155	0.131	-0.977	-0.148	-70.8176088	7.2192708	-26.069589	69.48834624	3.09970278	-20.78691624
1.56	156	0.179	-0.966	-0.127	-81.4173318	11.172681	-24.5226024	68.65755714	3.35753388	-20.77545708
1.57	157	0.113	-0.93	-0.186	-86.3447706	10.2559482	-21.0848544	67.7809314	3.57525792	-20.76399792
1.58	158	0.026	-0.907	-0.246	-83.651868	2.2345362	-15.2406828	66.92722398	3.71276784	-20.80983456
1.59	159	0.019	-0.898	-0.282	-81.7611066	-6.4171296	-9.453807	66.0907053	3.77006364	-20.912967
1.6	160	0.049	-0.907	-0.324	-82.3340646	-12.5477802	-5.0993262	65.25418662	3.75860448	-21.05047692
1.61	161	0.07	-0.893	-0.293	-78.3806544	-19.1367972	-3.9534102	64.44631584	3.70703826	-21.25101222
1.62	162	0.082	-0.916	-0.297	-75.7450476	-19.7097552	-6.5317212	63.66709296	3.67839036	-21.46300668
1.63	163	0.06	-0.948	-0.225	-75.4012728	-21.4286292	-10.6570188	62.88787008	3.67266078	-21.70364904
1.64	164	0.048	-0.943	-0.198	-77.922288	-17.6471064	-15.0687954	62.08572888	3.71849742	-21.93856182
1.65	165	0.045	-0.919	-0.224	-82.2767688	-11.8029348	-17.5898106	61.2492102	3.8101707	-22.12763796
1.66	166	0.03	-0.891	-0.214	-84.1675302	-8.4797784	-18.1627686	60.38404362	3.91903272	-22.29952536
1.67	167	0.012	-0.86	-0.26	-86.516658	-7.161975	-17.3606274	59.49595872	4.02216516	-22.45422402
1.68	168	0.003	-0.836	-0.332	-86.9750244	-6.1879464	-16.1001198	58.60787382	4.11956802	-22.59173394
1.69	169	0.021	-0.813	-0.43	-86.0009958	-2.86479	-15.1260912	57.7255185	4.22270046	-22.70059596
1.7	170	0.032	-0.795	-0.395	-80.500599	0.0572958	-14.4385416	56.91191814	4.3258329	-22.78081008
1.71	171	0.033	-0.797	-0.321	-74.4272442	6.9327918	-14.2093584	56.149884	4.47480198	-22.8037284
1.72	172	0.05	-0.808	-0.346	-72.8802576	12.4331886	-11.8602306	55.41076818	4.62950064	-22.76935092
1.73	173	0.06	-0.8	-0.364	-71.7916374	12.5477802	-10.313244	54.6888411	4.77274014	-22.72924386
1.74	174	0.074	-0.769	-0.344	-68.6976642	11.172681	-9.9121734	53.98983234	4.90452048	-22.69486638
1.75	175	0.091	-0.726	-0.326	-68.2965936	8.307891	-9.5683986	53.30801232	5.01911208	-22.6891368
1.76	176	0.099	-0.702	-0.331	-68.5830726	4.870143	-9.6829902	52.60900356	5.11651494	-22.71205512
1.77	177	0.087	-0.698	-0.348	-68.8695516	2.6356068	-10.1413566	51.90426522	5.20245864	-22.75216218
1.78	178	0.078	-0.703	-0.414	-70.4165382	4.1252976	-11.2872726	51.18233814	5.30559108	-22.79226924
1.79	179	0.097	-0.718	-0.517	-70.760313	8.880849	-12.6623718	50.46614064	5.44883058	-22.80945798
1.8	180	0.087	-0.741	-0.505	-66.5777196	10.9434978	-12.4904844	49.79577978	5.60352924	-22.8037284
1.81	181	0.071	-0.737	-0.421	-61.2492102	10.9434978	-10.3705398	49.17125556	5.74103916	-22.78653966
1.82	182	0.077	-0.72	-0.459	-61.3638018	10.026765	-6.589017	48.55246092	5.8441716	-22.75789176
1.83	183	0.098	-0.692	-0.493	-59.874111	3.8388186	-2.4064236	47.94512544	5.87854908	-22.7464326
1.84	184	0.109	-0.673	-0.5	-57.4103916	-1.7761698	0.572958	47.36070828	5.85563076	-22.75789176
1.85	185	0.122	-0.645	-0.512	-56.0925882	-3.3804522	0.9167328	46.79347986	5.82698286	-22.78081008
1.86	186	0.163	-0.63	-0.56	-54.6601932	-1.5469866	-1.0313244	46.2377106	5.8155237	-22.79799882
1.87	187	0.19	-0.648	-0.635	-51.7381074	-1.3178034	-3.0366774	45.71058924	5.82125328	-22.8323763
1.88	188	0.186	-0.698	-0.656	-47.8992888	-6.016059	-3.6669312	45.21784536	5.79833496	-22.90113126
1.89	189	0.205	-0.728	-0.697	-45.0917946	-8.9381448	-3.2658606	44.7480198	5.7582279	-22.99280454
1.9	190	0.229	-0.751	-0.709	-41.539455	-11.2299768	-2.4637194	44.32403088	5.70666168	-23.09593698
1.91	191	0.228	-0.75	-0.7	-38.101707	-15.2979786	-0.9167328	43.92296028	5.60352924	-23.21052858
1.92	192	0.184	-0.717	-0.672	-35.0077338	-19.3659804	1.432395	43.56199674	5.44883058	-23.34230892
1.93	193	0.125	-0.674	-0.643	-31.799169	-18.9649098	3.151269	43.2296811	5.29413192	-23.45117094
1.94	194	0.088	-0.646	-0.691	-27.6165756	-14.2666542	2.8074942	42.9432021	5.16808116	-23.53138506
1.95	195	0.062	-0.661	-0.692	-21.8296998	-9.7975818	0.3437748	42.71974848	5.08786704	-23.59441044
1.96	196	0.014	-0.687	-0.656	-17.4179232	-4.9847346	-3.7815228	42.53640192	5.07640788	-23.65743582
1.97	197	-0.033	-0.713	-0.692	-15.4125702	-1.0886202	-5.6722842	42.37597368	5.10505578	-23.70900204
1.98	198	-0.08	-0.743	-0.721	-13.5791046	3.3231564	-6.5317212	42.23273418	5.16808116	-23.73192036
1.99	199	-0.102	-0.772	-0.764	-12.4331886	8.59437	-6.4744254	42.10668342	5.2712136	-23.7204612
2	200	-0.097	-0.787	-0.784	-9.9121734	12.318597	-5.5003968	42.01501014	5.3571573	-23.6631654
2.01	201	-0.08	-0.78	-0.746	-6.589017	13.8655836	-3.2658606	41.95198476	5.47747848	-23.58868086
2.02	202	-0.053	-0.756	-0.713	-2.1772404	14.7250206	-0.4010706	41.9405256	5.5863405	-23.491278
2.03	203	-0.012	-0.764	-0.722	1.6615782	15.4125702	2.1772404	41.96344392	5.68374336	-23.37095682
2.04	204	0.027	-0.764	-0.705	5.0993262	13.6936962	4.6409598	42.0264693	5.75249832	-23.24490606
2.05	205	0.081	-0.75	-0.68	6.9327918	12.5477802	4.7555514	42.13533132	5.80979412	-23.1188553
2.06	206	0.125	-0.743	-0.655	8.307891	12.032118	2.8074942	42.2270046	5.87854908	-23.01572286
2.07	207	0.173	-0.745	-0.651	8.7089616	11.6883432	-0.4010706	42.32440746	5.96449278	-22.94123832
2.08	208	0.207	-0.757	-0.674	9.453807	10.4278356	-2.86479	42.42181032	6.06189564	-22.8896721
2.09	209	0.245	-0.778	-0.711	10.4278356	12.5477802	-4.4117766	42.53067234	6.18221682	-22.8323763
2.1	210	0.262	-0.798	-0.77	10.4851314	16.5584862	-4.583664	42.65099352	6.34837464	-22.75789176
2.11	211	0.232	-0.809	-0.776	11.5737516	19.5378678	-3.3231564	42.77704428	6.50880288	-22.64902974
2.12	212	0.165	-0.818	-0.733	14.2093584	20.7983754	-0.859437	42.93747252	6.66350154	-22.50579024
2.13	213	0.104	-0.835	-0.685	15.9282324	20.3973048	0.4010706	43.10935992	6.80674104	-22.36255074
2.14	214	0.06	-0.846	-0.66	15.9855282	18.7930224	0.572958	43.2869769	6.93852138	-22.22504082
2.15	215	0.056	-0.844	-0.655	15.5271618	17.4179232	0.0572958	43.48178262	7.0473834	-22.09899006
2.16	216	0.084	-0.848	-0.647	15.0114996	16.5011904	-0.9167328	43.64794044	7.17343416	-21.98439846
2.17	217	0.135	-0.855	-0.633	13.750992	16.042824	-2.2345362	43.79690952	7.3052145	-21.8869956
2.18	218	0.205	-0.841	-0.655	12.4331886	16.2147114	-3.0939732	43.93441944	7.43699484	-21.79532232
2.19	219	0.28	-0.842	-0.699	11.6883432	16.1574156	-2.8074942	44.06619978	7.56877518	-21.69791946
2.2	220	0.312	-0.861	-0.75	11.6310474	14.3812458	-1.3178034	44.2037097	7.70055552	-21.61197576
2.21	221	0.309	-0.884	-0.768	12.318597	12.318597	0.3437748	44.33549004	7.78649922	-21.52030248
2.22	222	0.273	-0.897	-0.755	12.9488508	9.3392154	1.8334656	44.47872954	7.83806544	-21.44008836
2.23	223	0.211	-0.898	-0.702	13.178034	5.8441716	2.0626488	44.62196904	7.86671334	-21.38279256
2.24	224	0.163	-0.889	-0.67	12.3758928	4.4117766	0.572958	44.7480198	7.89536124	-21.34841508
2.25	225	0.161	-0.887	-0.672	10.7716104	4.870143	-1.3178034	44.89698888	7.94119788	-21.31976718
2.26	226	0.178	-0.892	-0.666	9.6256944	4.3544808	-2.5210152	44.99439174	7.9927641	-21.30830802
2.27	227	0.192	-0.89	-0.655	7.9068204	3.2658606	-2.5210152	45.07460586	8.03287116	-21.30257844
2.28	228	0.197	-0.881	-0.667	5.6722842	0.9740286	-1.4896908	45.13190166	8.0500599	-21.30257844
2.29	229	0.194	-0.876	-0.679	4.6409598	-0.5156622	-0.572958	45.1777383	8.0500599	-21.3140376
2.3	230	0.19	-0.87	-0.685	4.010706	-1.3178034	-0.1145916	45.263682	8.06151906	-21.33122634
2.31	231	0.189	-0.868	-0.682	3.5523396	-1.718874	0.1145916	45.29805948	8.0500599	-21.3426855
2.32	232	0.183	-0.867	-0.662	3.4950438	-2.0626488	0.286479	45.33243696	8.03287116	-21.35414466
2.33	233	0.162	-0.865	-0.632	2.8074942	-1.9480572	0.572958	45.36108486	8.01568242	-21.36560382
2.34	234	0.136	-0.861	-0.637	1.8907614	-1.3178034	0.9167328	45.38400318	7.99849368	-21.36560382
2.35	235	0.115	-0.856	-0.638	1.4896908	-1.0313244	0.859437	45.54443142	7.94692746	-21.34841508
2.36	236	0.111	-0.844	-0.615	1.0886202	-0.4583664	-0.0572958	45.55589058	7.94119788	-21.35414466
2.37	237	0.122	-0.836	-0.596	0.2291832	-0.1718874	-1.2032118	45.55589058	7.95265704	-21.36560382
2.38	238	0.141	-0.834	-0.599	-1.0886202	0.0572958	-2.0626488	45.54443142	7.9641162	-21.37706298
2.39	239	0.162	-0.837	-0.599	-2.291832	0	-2.2345362	45.51578352	7.98130494	-21.39425172
2.4	240	0.181	-0.841	-0.592	-3.4950438	0.3437748	-2.3491278	45.6074568	8.03860074	-21.42289962
2.41	241	0.192	-0.845	-0.572	-4.583664	2.1772404	-2.578311	45.55589058	8.07297822	-21.42289962
2.42	242	0.189	-0.857	-0.569	-5.7868758	4.1825934	-2.7501984	45.49859478	8.11881486	-21.41144046
2.43	243	0.177	-0.862	-0.574	-7.2765666	5.5576926	-2.6929026	45.42983982	8.17611066	-21.38852214
2.44	244	0.156	-0.859	-0.578	-8.2505952	6.0733548	-2.1199446	45.3496257	8.22767688	-21.35987424
2.45	245	0.134	-0.852	-0.57	-8.9954406	5.5003968	-1.4896908	45.33243696	8.26778394	-21.32549676
2.46	246	0.117	-0.836	-0.569	-10.1986524	5.3858052	-1.0886202	45.22930452	8.31362058	-21.29684886
2.47	247	0.121	-0.821	-0.562	-11.1153852	5.6722842	-1.0313244	45.1204425	8.35372764	-21.26247138
2.48	248	0.135	-0.813	-0.551	-11.8602306	5.5576926	-1.0313244	45.0058509	8.39956428	-21.2280939
2.49	249	0.148	-0.809	-0.542	-13.178034	5.443101	-1.3178034	44.87407056	8.44540092	-21.199446
2.5	250	0.159	-0.81	-0.541	-14.0947668	6.016059	-1.3178034	44.79385644	8.49696714	-21.16506852
2.51	251	0.162	-0.81	-0.527	-15.2406828	6.1306506	-1.2032118	44.64488736	8.54853336	-21.13069104
2.52	252	0.16	-0.806	-0.529	-16.902261	6.9327918	-1.3750992	44.47872954	8.60582916	-21.09058398
2.53	253	0.163	-0.808	-0.526	-18.1627686	7.161975	-1.6042824	44.30111256	8.66312496	-21.05047692
2.54	254	0.164	-0.809	-0.532	-19.1367972	7.7922288	-1.8907614	44.11203642	8.72615034	-21.01036986
2.55	255	0.168	-0.812	-0.545	-19.5951636	8.1360036	-2.1199446	43.96306734	8.80063488	-20.96453322
2.56	256	0.165	-0.811	-0.535	-19.7097552	7.448454	-1.7761698	43.76826162	8.86366026	-20.92442616
2.57	257	0.156	-0.803	-0.505	-20.1681216	6.4171296	-1.3178034	43.56772632	8.91522648	-20.89004868
2.58	258	0.152	-0.791	-0.482	-20.9702628	6.8182002	-1.145916	43.36146144	8.9667927	-20.84994162
2.59	259	0.149	-0.778	-0.488	-22.4026578	7.161975	-0.859437	43.13800782	9.01835892	-20.80410498
2.6	260	0.146	-0.779	-0.503	-23.6631654	7.3911582	-0.6302538	42.95466126	9.07565472	-20.75826834
2.61	261	0.142	-0.785	-0.484	-24.350715	7.5630456	-1.0886202	42.7140189	9.13295052	-20.7124317
2.62	262	0.14	-0.787	-0.477	-25.8404058	9.3965112	-1.8907614	42.4561878	9.20743506	-20.66086548
2.63	263	0.161	-0.798	-0.516	-27.1582092	11.9748222	-2.4064236	42.18689754	9.30483792	-20.5978401
2.64	264	0.162	-0.804	-0.474	-26.8717302	11.8602306	-2.5210152	41.92333686	9.40797036	-20.53481472
2.65	265	0.164	-0.809	-0.461	-27.2728008	13.5791046	-2.2345362	41.70561282	9.51683238	-20.4546006
2.66	266	0.181	-0.809	-0.479	-29.1062664	14.2666542	-1.3750992	41.4248634	9.6256944	-20.3686569
2.67	267	0.18	-0.81	-0.474	-29.7365202	12.5477802	0	41.13265482	9.7116381	-20.2827132
2.68	268	0.175	-0.807	-0.477	-30.366774	10.3705398	1.3178034	40.83471666	9.77466348	-20.20249908
2.69	269	0.163	-0.805	-0.44	-30.7678446	8.7089616	2.005353	40.5367785	9.82050012	-20.12801454
2.7	270	0.15	-0.802	-0.417	-31.3408026	8.7662574	2.1199446	40.28467698	9.87206634	-20.04780042
2.71	271	0.152	-0.796	-0.43	-32.6013102	9.9694692	1.9480572	39.9638205	9.92363256	-19.9675863
2.72	272	0.146	-0.79	-0.407	-32.6013102	11.2872726	1.145916	39.6486936	9.9981171	-19.8816426
2.73	273	0.141	-0.785	-0.417	-32.0283522	14.2093584	0.0572958	39.33929628	10.10124954	-19.78423974
2.74	274	0.147	-0.794	-0.439	-32.3148312	14.1520626	-0.0572958	39.02416938	10.1986524	-19.69256646
2.75	275	0.14	-0.801	-0.401	-32.7159018	11.2872726	0.572958	38.7606087	10.27886652	-19.60662276
2.76	276	0.146	-0.801	-0.408	-33.4607472	9.6829902	1.5469866	38.43402264	10.33616232	-19.53213822
2.77	277	0.164	-0.812	-0.404	-33.8618178	9.453807	2.005353	38.101707	10.38772854	-19.45765368
2.78	278	0.168	-0.811	-0.347	-33.4607472	8.1360036	1.718874	37.77512094	10.43929476	-19.38889872
2.79	279	0.175	-0.808	-0.349	-33.0023808	8.4224826	1.2032118	37.44853488	10.49086098	-19.32587334
2.8	280	0.185	-0.802	-0.369	-34.3201842	6.3598338	1.7761698	37.17924462	10.53096804	-19.26284796
2.81	281	0.169	-0.797	-0.319	-34.8931422	2.291832	2.9220858	36.83546982	10.52523846	-19.22847048
2.82	282	0.139	-0.791	-0.311	-36.4401288	-0.3437748	3.6669312	36.4687767	10.49659056	-19.19982258
2.83	283	0.129	-0.792	-0.314	-38.2162986	-1.145916	3.8388186	36.08489484	10.4564835	-19.17690426
2.84	284	0.115	-0.783	-0.29	-38.2735944	-2.1772404	3.437748	35.70101298	10.41637644	-19.15971552
2.85	285	0.114	-0.778	-0.29	-37.528749	-2.6929026	3.3231564	35.39161566	10.3705398	-19.1367972
2.86	286	0.113	-0.777	-0.263	-36.7266078	-3.3231564	3.437748	35.01919296	10.31897358	-19.12533804
2.87	287	0.102	-0.785	-0.238	-36.096354	-3.2658606	3.8388186	34.65249984	10.26167778	-19.11387888
2.88	288	0.098	-0.788	-0.233	-37.1849742	-3.151269	4.6982556	34.28007714	10.20438198	-19.09669014
2.89	289	0.094	-0.783	-0.213	-38.101707	-6.302538	6.3598338	33.89619528	10.1127087	-19.0795014
2.9	290	0.097	-0.757	-0.177	-39.1330314	-8.9381448	7.2192708	33.56387964	9.9981171	-19.05658308
2.91	291	0.106	-0.74	-0.195	-41.7686382	-9.740286	7.6776372	33.13989072	9.87206634	-19.0508535
2.92	292	0.098	-0.715	-0.191	-43.3156248	-12.5477802	9.2819196	32.70444264	9.7116381	-19.03939434
2.93	293	0.077	-0.694	-0.178	-44.0031744	-16.5011904	11.1153852	32.2575354	9.5111028	-19.03939434
2.94	294	0.051	-0.669	-0.174	-45.1490904	-19.9962342	12.7769634	31.80489858	9.27046044	-19.03939434
2.95	295	0.038	-0.624	-0.129	-43.6593996	-20.1681216	12.2613012	31.3980984	9.02981808	-19.03939434
2.96	296	0.018	-0.586	-0.116	-43.7739912	-17.0741484	9.7975818	30.95692074	8.82928278	-19.04512392
2.97	297	0.018	-0.537	-0.137	-43.9458786	-10.4278356	7.3911582	30.5100135	8.69750244	-19.03939434
2.98	298	0.057	-0.496	-0.114	-42.5134836	-0.1145916	4.5263682	30.08602458	8.66885454	-18.99928728
2.99	299	0.055	-0.451	-0.104	-44.8626114	3.3231564	4.8128472	29.63911734	8.66885454	-18.9362619
3	300	0.032	-0.407	-0.103	-48.414951	1.2032118	8.3651868	29.18075094	8.62874748	-18.8503182
3.01	301	0.058	-0.383	-0.121	-51.1651494	-1.0886202	13.0634424	28.6765479	8.54853336	-18.74145618
3.02	302	0.08	-0.372	-0.195	-56.2071798	-4.9847346	17.5898106	28.12650822	8.41675302	-18.60967584
3.03	303	0.071	-0.386	-0.311	-61.7648724	-8.4224826	19.9962342	27.52490232	8.23913604	-18.47216592
3.04	304	0.07	-0.406	-0.344	-65.030733	-11.5737516	19.3086846	26.88318936	8.04433032	-18.35757432
3.05	305	0.089	-0.44	-0.287	-63.598338	-11.9748222	14.4958374	26.2701243	7.86671334	-18.28308978
3.06	306	0.115	-0.503	-0.195	-68.75496	-12.4904844	5.72958	25.57111554	7.72347384	-18.28308978
3.07	307	0.168	-0.529	-0.18	-77.062851	-13.9801752	-7.161975	24.77470392	7.6203414	-18.40914054
3.08	308	0.217	-0.518	-0.254	-84.224826	-19.5378678	-12.891555	23.89807818	7.48856106	-18.60967584
3.09	309	0.198	-0.478	-0.18	-82.4486562	-27.6165756	-10.9434978	23.0329116	7.27083702	-18.82739988
3.1	310	0.097	-0.401	-0.066	-73.7969904	-29.1635622	-6.2452422	22.2880662	7.02446508	-18.99928728
3.11	311	-0.033	-0.266	0.092	-61.4210976	-27.8457588	-3.8388186	21.65208282	6.77809314	-19.14252678
3.12	312	-0.075	-0.215	0.275	-57.4676874	-32.3148312	-4.8128472	21.05047692	6.49161414	-19.3086846
3.13	313	-0.109	-0.302	0.394	-93.5067456	-47.555514	-9.740286	20.0821779	6.07908438	-19.57797486
3.14	314	-0.295	-0.077	0.082	-152.8078986	-50.5348956	-14.9542038	18.50081382	5.63790672	-19.89310176
3.15	315	-0.438	0.458	-0.345	-160.714719	-20.9702628	-24.064236	16.81058772	5.4717489	-20.15666244
3.16	316	-0.408	0.775	-0.357	-139.515273	18.7930224	-36.8984952	15.36100398	5.73530958	-20.44314144
3.17	317	-0.154	0.965	-0.291	-125.1340272	31.7418732	-40.5081306	14.06038932	6.11919144	-20.7410796
3.18	318	0.108	1.147	-0.395	-102.9605526	30.080295	-30.939732	12.98322828	6.46869582	-20.95880364
3.19	319	0.298	1.21	-0.647	-71.6770458	31.3980984	-20.7983754	12.23838288	6.80674104	-21.07912482
3.2	320	0.284	1.046	-0.659	-55.4050386	30.8251404	-13.1207382	11.59094034	7.1333271	-21.1135023
3.21	321	0.111	0.774	-0.448	-43.1437374	30.653253	-13.178034	11.1440331	7.448454	-21.1707981
3.22	322	0.134	0.435	-0.497	-50.1911208	45.6647526	-22.345362	10.61118216	7.92400914	-21.29111928
3.23	323	0.559	0.147	-1.333	-83.3080932	34.663959	-29.0489706	9.72882684	8.30216142	-21.50311374
3.24	324	0.424	-0.255	-3.34	-127.5404508	-45.3209778	-31.3980984	8.38810512	7.89536124	-21.8869956
3.25	325	0.953	-0.449	-3.996	-146.0469942	-93.4494498	-61.020027	6.8182002	7.0473834	-22.631841
3.26	326	1.988	0.984	-3.996	-128.2852962	-145.4740362	-91.0430262	5.4144531	5.7009321	-23.7204612
3.27	327	1.181	2.72	-3.996	-155.1570264	-63.311859	-49.9619376	3.79298196	5.10505578	-24.27623046
3.28	328	0.248	2.595	-3.996	-121.5243918	19.9389384	-38.0444112	2.52674478	5.30559108	-24.63146442
3.29	329	-0.065	1.608	-3.996	-45.4928652	40.680018	-33.9191136	2.02827132	5.71812084	-24.94086174
3.3	330	0.04	0.854	-3.418	28.0176462	48.7587258	-20.05353	2.28610242	6.21086472	-25.10701956
3.31	331	0.155	0.009	-1.343	44.7480198	39.6486936	-4.2398892	2.73300966	6.60620574	-25.1242083
3.32	332	0.189	-0.463	-0.406	6.2452422	7.9641162	17.3606274	2.81895336	6.68069028	-24.94659132
3.33	333	0.224	-0.845	-0.462	4.4117766	2.0626488	22.5172494	2.88770832	6.68641986	-24.7231377
3.34	334	0.071	-1.01	-0.65	-8.4797784	3.5523396	11.6310474	2.81895336	6.71506776	-24.60281652
3.35	335	-0.123	-0.716	-0.681	-7.2192708	19.2513888	-4.6982556	2.83041252	6.85830726	-24.59708694
3.36	336	-0.199	-0.262	-0.657	6.4171296	35.0650296	-22.1161788	2.87051958	7.21354122	-24.79189266
3.37	337	-0.119	0.204	-0.753	18.4492476	43.258329	-31.2835068	3.01375908	7.66044846	-25.07264208
3.38	338	-0.051	0.743	-0.619	65.4318036	55.1758554	-32.5440144	3.63255372	8.23340646	-25.3533915
3.39	339	-0.1	0.79	0.078	77.2347384	61.4783934	-20.1108258	4.3831287	8.86366026	-25.50236058
3.4	340	-0.269	0.536	0.321	25.3247436	60.447069	0.4583664	4.6123119	9.43661826	-25.39349856
3.41	341	-0.265	0.168	0.309	3.437748	57.1812084	14.2666542	4.67533728	9.98665794	-25.18723368
3.42	342	-0.029	-0.208	0.285	-1.8907614	49.560867	21.8869956	4.6982556	10.4564835	-24.91221384
3.43	343	0.173	-0.472	0.197	-4.4117766	37.815228	22.5745452	4.6982556	10.80598788	-24.64292358
3.44	344	0.182	-0.469	0.131	-1.6042824	21.8296998	18.5065434	4.71544434	11.00652318	-24.43092912
3.45	345	0.198	-0.306	0.099	6.5317212	4.5263682	11.9175264	4.83003594	11.06381898	-24.29914878
3.46	346	0.3	-0.089	0.032	12.032118	-8.1932994	4.5263682	4.96181628	10.98360486	-24.2647713
3.47	347	0.426	0.13	-0.088	12.4331886	-23.5485738	-2.1199446	5.08213746	10.75442166	-24.31060794
3.48	348	0.412	0.274	-0.234	6.8182002	-44.3469492	-4.3544808	5.13943326	10.31897358	-24.4080108
3.49	349	0.361	0.352	-0.373	-3.7815228	-59.301153	-2.9220858	5.08786704	9.740286	-24.50541366
3.5	350	0.396	0.401	-0.588	-15.9855282	-71.9635248	-1.0886202	4.87587258	9.05846598	-24.60281652
3.51	351	0.367	0.461	-0.726	-34.950438	-82.3913604	-1.718874	4.51490904	8.2505952	-24.71167854
3.52	352	0.214	0.524	-0.866	-52.8840234	-81.3027402	-4.0680018	3.97632852	7.44272442	-24.83199972
3.53	353	0.291	0.462	-1.21	-65.4890994	-68.5257768	-8.8235532	3.30023808	6.76663398	-24.97523922
3.54	354	0.293	0.318	-1.45	-66.1193532	-65.603691	-11.1153852	2.61841806	6.11919144	-25.13566746
3.55	355	0.3	0.113	-1.54	-69.614397	-51.9099948	-11.1153852	1.90222056	5.60925882	-25.27317738
3.56	356	0.446	-0.007	-1.69	-76.489893	-36.7839036	-6.9327918	1.12299768	5.23683612	-25.35912108
3.57	357	0.567	-0.011	-1.941	-77.4639216	-34.8931422	-0.4583664	0.3437748	4.88160216	-25.37058024
3.58	358	0.525	0.068	-2.053	-71.4478626	-31.9710564	5.5576926	-0.36669312	4.56074568	-25.31901402
3.59	359	0.368	0.207	-2.016	-65.0880288	-26.1268848	12.605076	-1.01413566	4.29145542	-25.19296326
3.6	360	0.163	0.317	-1.848	-62.2232388	-26.1841806	17.4179232	-1.6329303	4.03362432	-25.01534628
3.61	361	0.036	0.392	-1.613	-57.5249832	-27.6165756	19.2513888	-2.20015872	3.75860448	-24.81481098
3.62	362	0	0.46	-1.37	-52.139178	-24.6944898	18.8503182	-2.71582092	3.51223254	-24.62000526
3.63	363	0.063	0.558	-1.188	-45.0917946	-20.7983754	17.3033316	-3.15699858	3.31169724	-24.4366587
3.64	364	0.087	0.62	-1.06	-35.236917	-19.4232762	16.2720072	-3.50650296	3.1226211	-24.27050088
3.65	365	0.114	0.624	-1.008	-26.1841806	-18.1054728	16.9595568	-3.81590028	2.95646328	-24.08142474
3.66	366	0.09	0.542	-0.874	-21.7151082	-25.210152	18.2773602	-4.02216516	2.7215505	-23.8923486
3.67	367	0.006	0.427	-0.766	-21.8296998	-36.2109456	17.5325148	-4.22843004	2.37204612	-23.69754288
3.68	368	-0.054	0.314	-0.793	-21.199446	-39.0757356	14.9542038	-4.43469492	1.99389384	-23.53138506
3.69	369	-0.137	0.248	-0.748	-19.3086846	-40.5081306	11.1153852	-4.61804148	1.59855282	-23.39387514
3.7	370	-0.237	0.255	-0.689	-17.8762896	-40.7946096	6.3598338	-4.82430636	1.15737516	-23.28501312
3.71	371	-0.318	0.311	-0.737	-13.5791046	-36.2682414	0.6875496	-4.9560867	0.8021412	-23.25636522
3.72	372	-0.38	0.348	-0.776	-6.3598338	-25.8977016	-3.9534102	-5.01911208	0.53858052	-23.27928354
3.73	373	-0.383	0.332	-0.813	0.2291832	-14.896908	-6.875496	-5.0133825	0.38961144	-23.34230892
3.74	374	-0.357	0.267	-0.86	6.8182002	-4.583664	-8.880849	-4.94462754	0.33231564	-23.42825262
3.75	375	-0.326	0.175	-0.895	11.0007936	6.1306506	-11.2299768	-4.85868384	0.29793816	-23.50273716
3.76	376	-0.273	0.082	-0.946	14.0947668	16.6730778	-13.8082878	-4.71544434	0.4583664	-23.65170624
3.77	377	-0.232	-0.003	-0.991	17.8762896	25.8977016	-15.2979786	-4.53782736	0.70473834	-23.81786406
3.78	378	-0.183	-0.065	-1.043	21.3140376	32.372127	-15.8136408	-4.33156248	1.01413566	-23.98975146
3.79	379	-0.145	-0.1	-1.079	25.8404058	35.9817624	-14.610429	-4.07946096	1.35791046	-24.15590928
3.8	380	-0.112	-0.129	-1.098	28.4187168	35.4088044	-12.605076	-3.7815228	1.6902261	-24.2934192
3.81	381	-0.087	-0.169	-1.082	30.5959572	29.8511118	-10.0840608	-3.47785506	1.98243468	-24.4080108
3.82	382	-0.105	-0.246	-0.963	26.1268848	26.7571386	-6.875496	-3.22002396	2.24599536	-24.48249534
3.83	383	-0.052	-0.254	-1.016	19.8243468	27.788463	-4.297185	-3.02521824	2.5210152	-24.53979114
3.84	384	0.005	-0.242	-0.981	13.8655836	22.9756158	-2.0626488	-2.88770832	2.7501984	-24.56270946
3.85	385	0.047	-0.199	-0.956	6.5317212	19.5378678	-1.9480572	-2.7501984	2.94500412	-24.59135736
3.86	386	0.098	-0.163	-0.96	2.9793816	20.1108258	-2.5210152	-2.7215505	3.14553942	-24.62000526
3.87	387	0.145	-0.144	-0.947	0.859437	20.6837838	-2.0626488	-2.71582092	3.3518043	-24.64865316
3.88	388	0.179	-0.126	-0.95	-2.6929026	22.1161788	-1.5469866	-2.7501984	3.56952834	-24.6658419
3.89	389	0.196	-0.109	-0.959	-5.443101	24.064236	-0.9740286	-2.8074942	3.80444112	-24.67730106
3.9	390	0.201	-0.088	-0.96	-7.6776372	27.0436176	-0.7448454	-2.86479	4.0966497	-24.70021938
3.91	391	0.194	-0.076	-0.963	-9.3965112	29.793816	-0.8021412	-2.96792244	4.39458786	-24.71740812
3.92	392	0.213	-0.071	-0.97	-11.4018642	30.1375908	-0.3437748	-3.08824362	4.68679644	-24.72886728
3.93	393	0.237	-0.059	-0.937	-14.610429	27.8457588	0.1718874	-3.2372127	4.96181628	-24.72886728
3.94	394	0.279	-0.017	-0.953	-17.7044022	26.069589	0.6302538	-3.42055926	5.21964738	-24.72886728
3.95	395	0.327	0.069	-0.976	-18.8503182	23.8923486	-0.8021412	-3.63255372	5.5003968	-24.75751518
3.96	396	0.337	0.132	-0.986	-17.2460358	21.7151082	-3.2085648	-3.81590028	5.71239126	-24.79762224
3.97	397	0.316	0.144	-0.994	-12.9488508	20.3973048	-5.2139178	-3.9534102	5.90719698	-24.86064762
3.98	398	0.291	0.123	-0.982	-8.7089616	19.2513888	-6.2452422	-4.05081306	6.09054354	-24.92940258
3.99	399	0.272	0.102	-0.965	-6.016059	17.3033316	-5.7868758	-4.1252976	6.25670136	-24.99242796
4	400	0.258	0.089	-0.953	-3.8388186	14.7250206	-4.1825934	-4.18832298	6.46296624	-25.06118292
4.01	401	0.249	0.089	-0.948	-1.6042824	11.9748222	-1.7761698	-4.2112413	6.58328742	-25.08410124
4.02	402	0.237	0.094	-0.943	0.4583664	9.5683986	0.8021412	-4.20551172	6.6749607	-25.07837166
4.03	403	0.219	0.102	-0.943	2.9220858	8.4224826	3.6096354	-4.17113424	6.7609044	-25.04972376
4.04	404	0.206	0.105	-0.941	4.7555514	7.9068204	5.443101	-4.11956802	6.8468481	-24.99815754
4.05	405	0.192	0.102	-0.94	5.5576926	8.1360036	6.875496	-4.07946096	6.95571012	-24.94086174
4.06	406	0.182	0.099	-0.951	5.6722842	8.3651868	8.0787078	-4.010706	7.0473834	-24.8663772
4.07	407	0.179	0.093	-0.962	4.9847346	7.6203414	8.9954406	-3.9534102	7.12759752	-24.7804335
4.08	408	0.18	0.091	-0.974	3.8388186	5.8441716	9.9694692	-3.90184398	7.19635248	-24.68303064
4.09	409	0.18	0.096	-0.996	3.6096354	3.5523396	10.7716104	-3.85027776	7.23645954	-24.57416862
4.1	410	0.178	0.094	-1.016	4.297185	0.9740286	11.1153852	-3.81590028	7.27083702	-24.47103618
4.11	411	0.166	0.085	-1.036	5.8441716	-1.5469866	10.7716104	-3.74141574	7.25937786	-24.36217416
4.12	412	0.144	0.064	-1.031	6.8182002	-4.6409598	9.7975818	-3.66120162	7.22500038	-24.2647713
4.13	413	0.124	0.041	-1.015	6.016059	-6.2452422	8.4797784	-3.58671708	7.16770458	-24.1788276
4.14	414	0.108	0.023	-1.003	4.9847346	-6.4171296	7.2192708	-3.5236917	7.11040878	-24.10434306
4.15	415	0.101	0.015	-0.99	4.297185	-5.5576926	6.0733548	-3.45493674	7.03592424	-24.0355881
4.16	416	0.102	0.015	-0.978	4.010706	-4.297185	5.0993262	-3.4091001	6.99581718	-23.9782923
4.17	417	0.11	0.02	-0.974	3.6669312	-2.7501984	4.2398892	-3.36899304	6.97289886	-23.93818524
4.18	418	0.122	0.023	-0.973	3.2085648	-1.2605076	3.2085648	-3.32888598	6.9614397	-23.90380776
4.19	419	0.132	0.019	-0.966	2.1199446	0.1718874	1.718874	-3.30596766	6.96716928	-23.88661902
4.2	420	0.138	0.014	-0.965	1.6615782	1.5469866	0.2291832	-3.2372127	7.01300592	-23.8923486
4.21	421	0.144	0.008	-0.961	1.9480572	2.6356068	-1.2605076	-3.22002396	7.03592424	-23.90953734
4.22	422	0.149	0.005	-0.96	2.3491278	3.3231564	-2.4637194	-3.20283522	7.07030172	-23.93245566
4.23	423	0.153	0.002	-0.962	2.8074942	4.0680018	-3.3804522	-3.17418732	7.11040878	-23.97256272
4.24	424	0.156	0	-0.965	3.151269	3.8961144	-3.7815228	-3.151269	7.14478626	-24.0069402
4.25	425	0.159	0	-0.97	3.724227	3.3231564	-3.724227	-3.08824362	7.20208206	-24.05277684
4.26	426	0.162	-0.004	-0.975	4.4690724	2.578311	-3.437748	-3.04813656	7.22500038	-24.0928839
4.27	427	0.165	-0.004	-0.984	5.5003968	1.6615782	-3.2085648	-2.99657034	7.24218912	-24.1215318
4.28	428	0.164	-0.007	-0.986	6.0733548	0.4010706	-3.0366774	-2.93927454	7.2479187	-24.15590928
4.29	429	0.161	-0.011	-0.982	5.6722842	-0.859437	-2.86479	-2.88197874	7.23645954	-24.18455718
4.3	430	0.159	-0.012	-0.973	4.010706	-1.8907614	-2.86479	-2.8074942	7.2479187	-24.21893466
4.31	431	0.161	-0.007	-0.976	2.578311	-2.4637194	-2.7501984	-2.78457588	7.22500038	-24.24758256
4.32	432	0.163	0	-0.976	1.432395	-3.2085648	-2.4637194	-2.77311672	7.1906229	-24.27050088
4.33	433	0.165	0.01	-0.98	0.6302538	-3.7815228	-2.0626488	-2.76738714	7.15051584	-24.2934192
4.34	434	0.163	0.018	-0.987	0.4583664	-3.6669312	-1.6615782	-2.76165756	7.11613836	-24.31060794
4.35	435	0.157	0.024	-0.986	0.5156622	-2.86479	-1.2605076	-2.75592798	7.1333271	-24.33925584
4.36	436	0.148	0.024	-0.989	0.2291832	-1.2605076	-0.859437	-2.75592798	7.12186794	-24.34498542
4.37	437	0.138	0.024	-0.988	0.1718874	-0.286479	-0.572958	-2.7501984	7.12186794	-24.35644458
4.38	438	0.132	0.021	-0.984	0.1145916	0.1145916	-0.286479	-2.7501984	7.12186794	-24.35644458
4.39	439	0.13	0.021	-0.984	0.286479	0.4583664	-0.1145916	-2.7501984	7.12186794	-24.35644458
4.4	440	0.129	0.019	-0.982	0.2291832	0.572958	0.1145916	-2.69863218	7.11040878	-24.350715
4.41	441	0.128	0.021	-0.982	0.0572958	0.7448454	0.3437748	-2.69863218	7.11613836	-24.34498542
4.42	442	0.126	0.022	-0.985	0.1145916	0.6875496	0.6302538	-2.69863218	7.12759752	-24.33925584
4.43	443	0.123	0.023	-0.982	0.0572958	0.9740286	0.6302538	-2.69863218	7.13905668	-24.33352626
4.44	444	0.122	0.024	-0.982	0.0572958	1.3750992	0.6302538	-2.6929026	7.15051584	-24.32779668
4.45	445	0.123	0.027	-0.98	0.0572958	1.7761698	0.5156622	-2.70436176	7.13905668	-24.31060794
4.46	446	0.172	0.014	-0.978	-1.2605076	0.2291832	0	-2.64133638	7.734933	-24.31060794
4.47	447	0.17	0.018	-0.984	-1.0313244	0.6302538	-0.0572958	-2.65279554	7.74639216	-24.31060794
4.48	448	0.167	0.021	-0.986	-1.0313244	0.9740286	-0.0572958	-2.65852512	7.75212174	-24.31060794
4.49	449	0.165	0.022	-0.983	-1.0313244	1.0313244	-0.0572958	-2.6642547	7.84379502	-24.33925584
4.5	450	0.164	0.024	-0.983	-0.7448454	0.7448454	0	-2.67571386	7.85525418	-24.33925584
4.51	451	0.163	0.022	-0.981	-0.286479	0.4010706	0	-2.67571386	7.85525418	-24.33925584
4.52	452	0.161	0.021	-0.981	-0.0572958	0	0.0572958	-2.67571386	7.85525418	-24.33925584
4.53	453	0.16	0.022	-0.983	0.0572958	0	0.0572958	-2.67571386	7.85525418	-24.33925584
4.54	454	0.157	0.021	-0.982	0.1145916	-0.1145916	0.0572958	-2.6069589	8.00995284	-24.3793629
4.55	455	0.155	0.021	-0.98	0.1718874	0	0	-2.6069589	8.00995284	-24.3793629
4.56	456	0.154	0.02	-0.981	0.0572958	0	0	-2.6069589	8.00995284	-24.3793629
4.57	457	0.154	0.019	-0.979	-0.0572958	0	0	-2.6069589	8.00995284	-24.3793629
4.58	458	0.154	0.018	-0.979	-0.286479	-0.1718874	0	-2.6069589	8.00422326	-24.3793629
4.59	459	0.154	0.017	-0.978	-0.6302538	-0.4010706	0	-2.58977016	8.03287116	-24.38509248
4.6	460	0.155	0.016	-0.979	-0.8021412	-0.572958	0.0572958	-2.59549974	8.02714158	-24.38509248
4.61	461	0.156	0.014	-0.979	-0.9740286	-0.572958	-0.0572958	-2.6069589	8.021412	-24.38509248
4.62	462	0.157	0.015	-0.981	-0.859437	-0.6302538	-0.0572958	-2.61268848	8.01568242	-24.38509248
4.63	463	0.155	0.015	-0.981	-0.8021412	-0.4583664	-0.2291832	-2.62414764	8.00995284	-24.39082206
4.64	464	0.152	0.015	-0.981	-0.6875496	-0.2291832	-0.2291832	-2.578311	8.03860074	-24.39655164
4.65	465	0.151	0.014	-0.981	-0.6875496	-0.1718874	-0.286479	-2.58404058	8.03287116	-24.39655164
4.66	466	0.152	0.015	-0.979	-0.6302538	-0.0572958	-0.2291832	-2.59549974	8.03287116	-24.40228122
4.67	467	0.153	0.015	-0.979	-0.572958	0	-0.2291832	-2.60122932	8.03287116	-24.40228122
4.68	468	0.154	0.013	-0.977	-0.6875496	-0.286479	-0.1145916	-2.6069589	8.02714158	-24.40228122
4.69	469	0.154	0.011	-0.978	-0.8021412	-0.4010706	-0.1145916	-2.56112226	8.05578948	-24.4080108
4.7	470	0.154	0.011	-0.981	-0.7448454	-0.1718874	0	-2.57258142	8.05578948	-24.4080108
4.71	471	0.154	0.014	-0.982	-0.7448454	0.1145916	-0.0572958	-2.578311	8.05578948	-24.41374038
4.72	472	0.154	0.018	-0.982	-0.7448454	0.572958	0	-2.58404058	8.06151906	-24.41374038
4.73	473	0.155	0.021	-0.981	-0.572958	0.8021412	0.1145916	-2.58977016	8.06724864	-24.4080108
4.74	474	0.157	0.02	-0.978	-0.4010706	0.859437	0.1718874	-2.58977016	8.11308528	-24.41946996
4.75	475	0.158	0.02	-0.977	-0.4583664	0.859437	0.2291832	-2.58977016	8.12454444	-24.41374038
4.76	476	0.16	0.018	-0.977	-0.572958	0.6875496	0.286479	-2.59549974	8.13027402	-24.41374038
4.77	477	0.161	0.018	-0.98	-0.4583664	0.4583664	0.286479	-2.60122932	8.1360036	-24.4080108
4.78	478	0.16	0.019	-0.981	-0.2291832	0.572958	0.286479	-2.6069589	8.14173318	-24.4080108
4.79	479	0.159	0.019	-0.98	-0.1145916	0.4583664	0.1718874	-2.56685184	8.21621772	-24.42519954
4.8	480	0.157	0.018	-0.978	-0.1718874	0.4010706	0.1145916	-2.56685184	8.2219473	-24.42519954
4.81	481	0.158	0.019	-0.979	-0.2291832	0.5156622	0.1145916	-2.57258142	8.22767688	-24.41946996
4.82	482	0.161	0.018	-0.978	-0.1718874	0.1718874	0.1145916	-2.57258142	8.23340646	-24.41946996
4.83	483	0.161	0.017	-0.976	-0.286479	0	0.1718874	-2.578311	8.23340646	-24.41946996
4.84	484	0.164	0.019	-0.98	-0.3437748	0	0.1145916	-2.55539268	8.31935016	-24.44238828
4.85	485	0.164	0.02	-0.983	-0.2291832	0	0.1145916	-2.56112226	8.31935016	-24.44238828
4.86	486	0.165	0.019	-0.985	-0.1145916	0.1718874	0.1145916	-2.56112226	8.31935016	-24.4366587
4.87	487	0.164	0.017	-0.983	-0.2291832	0.0572958	0	-2.56112226	8.31935016	-24.4366587
4.88	488	0.162	0.016	-0.979	-0.4010706	0	0	-2.56685184	8.31935016	-24.4366587
4.89	489	0.162	0.016	-0.976	-0.4583664	0	-0.0572958	-2.50955604	8.40529386	-24.45957702
4.9	490	0.162	0.016	-0.976	-0.4583664	0	-0.0572958	-2.51528562	8.40529386	-24.45957702
4.91	491	0.162	0.017	-0.977	-0.3437748	0.0572958	0	-2.5210152	8.40529386	-24.45957702
4.92	492	0.161	0.017	-0.979	-0.3437748	0.0572958	0	-2.52674478	8.40529386	-24.45957702
4.93	493	0.161	0.016	-0.979	-0.1718874	0.1145916	-0.0572958	-2.52674478	8.40529386	-24.45957702
4.94	494	0.16	0.016	-0.979	-0.1145916	0.0572958	-0.0572958	-2.46944898	8.49123756	-24.47676576
4.95	495	0.16	0.017	-0.977	-0.2291832	-0.0572958	-0.1145916	-2.46944898	8.49123756	-24.48249534
4.96	496	0.16	0.018	-0.977	-0.1145916	0	-0.1718874	-2.46944898	8.49123756	-24.48249534
4.97	497	0.159	0.018	-0.978	0	0	-0.1718874	-2.47517856	8.49123756	-24.48249534
4.98	498	0.16	0.018	-0.979	0	0	-0.1718874	-2.47517856	8.49123756	-24.48822492
4.99	499	0.16	0.017	-0.978	-0.2291832	-0.2291832	-0.0572958	-2.44653066	8.51988546	-24.4939545
5	500	0.161	0.016	-0.979	-0.3437748	-0.286479	-0.1145916	-2.44653066	8.51415588	-24.4939545
5.01	501	0.161	0.015	-0.98	-0.286479	-0.1718874	-0.0572958	-2.45226024	8.51415588	-24.4939545
5.02	502	0.16	0.015	-0.98	0.0572958	-0.3437748	-0.1145916	-2.45226024	8.5084263	-24.4939545
5.03	503	0.158	0.015	-0.979	0	-0.286479	-0.1718874	-2.45226024	8.50269672	-24.49968408
5.04	504	0.158	0.016	-0.976	0	-0.2291832	-0.1145916	-2.41788276	8.53134462	-24.49968408
5.05	505	0.157	0.019	-0.975	-0.0572958	-0.3437748	-0.1718874	-2.41788276	8.52561504	-24.50541366
5.06	506	0.159	0.02	-0.975	0	-0.286479	-0.1718874	-2.42361234	8.51988546	-24.50541366
5.07	507	0.16	0.02	-0.978	0.1718874	-0.3437748	-0.1145916	-2.41788276	8.51988546	-24.50541366
5.08	508	0.16	0.019	-0.981	0.286479	-0.286479	0	-2.41788276	8.51415588	-24.50541366
5.09	509	0.158	0.018	-0.981	0.2291832	-0.3437748	-0.0572958	-2.4064236	8.52561504	-24.51114324
5.1	510	0.158	0.017	-0.979	0.1145916	-0.286479	-0.1145916	-2.40069402	8.51988546	-24.51114324
5.11	511	0.156	0.018	-0.978	0	-0.1718874	-0.1718874	-2.40069402	8.51988546	-24.51687282
5.12	512	0.157	0.018	-0.978	0	0	-0.1145916	-2.4064236	8.51988546	-24.51687282
5.13	513	0.158	0.019	-0.977	0	0.0572958	-0.0572958	-2.4064236	8.51988546	-24.51687282
5.14	514	0.159	0.019	-0.978	0	0	0	-2.40069402	8.57718126	-24.53406156
5.15	515	0.16	0.019	-0.979	0.1145916	0	0	-2.40069402	8.57718126	-24.53406156
5.16	516	0.162	0.019	-0.979	0.1145916	0	0.0572958	-2.40069402	8.57718126	-24.53406156
5.17	517	0.161	0.017	-0.981	0.286479	0	0.1718874	-2.39496444	8.57718126	-24.53406156
5.18	518	0.161	0.015	-0.981	0.3437748	0.1145916	0.0572958	-2.39496444	8.57718126	-24.53406156
5.19	519	0.159	0.015	-0.98	0.286479	0.1145916	0	-2.35485738	8.59437	-24.52833198
5.2	520	0.158	0.015	-0.978	0.3437748	0.1718874	0	-2.3491278	8.60009958	-24.52833198
5.21	521	0.159	0.015	-0.977	0.2291832	0.2291832	0	-2.3491278	8.60009958	-24.52833198
5.22	522	0.16	0.015	-0.975	0.0572958	0.1145916	0	-2.3491278	8.60009958	-24.52833198
5.23	523	0.161	0.017	-0.975	-0.0572958	-0.1145916	0.0572958	-2.3491278	8.60009958	-24.52833198
5.24	524	0.162	0.017	-0.976	-0.2291832	-0.2291832	0.0572958	-2.33766864	8.6230179	-24.53406156
5.25	525	0.162	0.017	-0.978	-0.286479	-0.286479	0.1145916	-2.34339822	8.6230179	-24.53406156
5.26	526	0.161	0.018	-0.981	-0.1718874	-0.1145916	0	-2.34339822	8.6230179	-24.53406156
5.27	527	0.16	0.017	-0.98	0	0	0	-2.34339822	8.6230179	-24.53406156
5.28	528	0.161	0.017	-0.979	0	0	-0.0572958	-2.34339822	8.6230179	-24.53406156
5.29	529	0.16	0.017	-0.978	-0.0572958	0.0572958	-0.0572958	-2.33766864	8.65739538	-24.54552072
5.3	530	0.162	0.017	-0.979	-0.1718874	-0.0572958	-0.0572958	-2.33766864	8.6516658	-24.54552072
5.31	531	0.163	0.017	-0.979	-0.2291832	-0.286479	0	-2.34339822	8.6516658	-24.54552072
5.32	532	0.162	0.018	-0.98	-0.1718874	-0.4010706	0	-2.34339822	8.64593622	-24.54552072
5.33	533	0.162	0.017	-0.982	-0.1718874	-0.7448454	0	-2.3491278	8.64020664	-24.54552072
5.34	534	0.161	0.016	-0.982	-0.2291832	-0.859437	-0.1145916	-2.34339822	8.63447706	-24.54552072
5.35	535	0.161	0.014	-0.981	-0.4010706	-0.859437	-0.1718874	-2.3491278	8.62874748	-24.54552072
5.36	536	0.159	0.013	-0.983	-0.6875496	-1.0886202	-0.4010706	-2.35485738	8.61728832	-24.5512503
5.37	537	0.157	0.016	-0.985	-0.7448454	-1.2605076	-0.4583664	-2.36058696	8.60582916	-24.55697988
5.38	538	0.156	0.02	-0.981	-0.6302538	-1.3750992	-0.4010706	-2.37204612	8.58864042	-24.56270946
5.39	539	0.159	0.022	-0.984	-0.5156622	-0.9740286	-0.4010706	-2.3777757	8.58291084	-24.56843904
5.4	540	0.161	0.022	-0.985	-0.6302538	-0.8021412	-0.1718874	-2.38923486	8.57718126	-24.56843904
5.41	541	0.162	0.022	-0.983	-0.8021412	-1.145916	-0.1145916	-2.39496444	8.5657221	-24.56843904
5.42	542	0.159	0.021	-0.978	-0.6875496	-1.3178034	-0.1718874	-2.40069402	8.54853336	-24.57416862
5.43	543	0.156	0.02	-0.975	-0.4583664	-1.2605076	-0.1718874	-2.4064236	8.5370742	-24.57416862
5.44	544	0.154	0.02	-0.976	-0.2291832	-0.9167328	-0.2291832	-2.4064236	8.52561504	-24.57416862
5.45	545	0.157	0.019	-0.973	-0.1718874	-0.6302538	-0.1718874	-2.41215318	8.51988546	-24.5798982
5.46	546	0.16	0.016	-0.974	-0.4583664	-0.7448454	-0.0572958	-2.41788276	8.51415588	-24.5798982
5.47	547	0.158	0.016	-0.979	-0.3437748	-1.0313244	0	-2.41788276	8.50269672	-24.5798982
5.48	548	0.158	0.017	-0.983	0	-0.9740286	0.1145916	-2.41788276	8.49123756	-24.57416862
5.49	549	0.159	0.017	-0.984	0.1718874	-0.8021412	0.0572958	-2.4064236	8.49123756	-24.57416862
5.5	550	0.159	0.016	-0.987	-0.0572958	-0.5156622	0.1718874	-2.41215318	8.49123756	-24.57416862
5.51	551	0.159	0.016	-0.985	-0.2291832	-0.4583664	0.1718874	-2.41215318	8.48550798	-24.57416862
5.52	552	0.158	0.015	-0.981	-0.0572958	-0.6875496	0.2291832	-2.41215318	8.47404882	-24.56843904
5.53	553	0.158	0.017	-0.979	0	-0.8021412	0.1145916	-2.41215318	8.46831924	-24.56843904
5.54	554	0.157	0.019	-0.976	-0.1145916	-0.6875496	0.0572958	-2.41788276	8.46831924	-24.56843904
5.55	555	0.155	0.024	-0.975	-0.286479	-0.4010706	0.1145916	-2.41788276	8.46831924	-24.56843904
5.56	556	0.156	0.026	-0.975	-0.1145916	-0.286479	0.2291832	-2.42361234	8.46258966	-24.56843904
5.57	557	0.156	0.024	-0.978	0	-0.286479	0.0572958	-2.41788276	8.46258966	-24.56270946
5.58	558	0.155	0.022	-0.979	0.0572958	-0.4010706	0.0572958	-2.41788276	8.45686008	-24.56270946
5.59	559	0.155	0.016	-0.978	-0.2291832	-0.6302538	0.1718874	-2.4064236	8.4511305	-24.56270946
5.6	560	0.155	0.015	-0.982	-0.4010706	-0.3437748	0.1718874	-2.41215318	8.4511305	-24.55697988
5.61	561	0.155	0.016	-0.984	-0.572958	0	0.1718874	-2.41788276	8.4511305	-24.55697988
5.62	562	0.154	0.018	-0.984	-0.6302538	0.6302538	0.2291832	-2.42361234	8.45686008	-24.5512503
5.63	563	0.155	0.023	-0.986	-0.1718874	1.2605076	0.4010706	-2.42934192	8.46831924	-24.5512503
5.64	564	0.155	0.024	-0.983	0.1145916	1.718874	0.5156622	-2.42934192	8.48550798	-24.54552072
5.65	565	0.158	0.022	-0.983	0.3437748	2.1772404	0.6302538	-2.42361234	8.5084263	-24.53979114
5.66	566	0.163	0.02	-0.981	0.3437748	2.4637194	0.859437	-2.41788276	8.53134462	-24.52833198
5.67	567	0.164	0.017	-0.978	0.2291832	2.2345362	0.9740286	-2.41788276	8.55426294	-24.5226024
5.68	568	0.164	0.016	-0.978	0.0572958	1.7761698	0.9167328	-2.41215318	8.57145168	-24.51114324
5.69	569	0.162	0.015	-0.976	0.1718874	1.6615782	0.8021412	-2.4064236	8.59437	-24.50541366
5.7	570	0.161	0.016	-0.972	0.1718874	1.5469866	0.6302538	-2.4064236	8.61155874	-24.49968408
5.71	571	0.161	0.015	-0.974	0.286479	1.3178034	0.6302538	-2.40069402	8.6230179	-24.48822492
5.72	572	0.162	0.017	-0.976	0.4583664	0.9167328	0.572958	-2.39496444	8.63447706	-24.48249534
5.73	573	0.161	0.018	-0.974	0.572958	0.6302538	0.5156622	-2.38923486	8.64020664	-24.48249534
5.74	574	0.161	0.019	-0.974	0.5156622	0.4583664	0.3437748	-2.38350528	8.6516658	-24.47676576
5.75	575	0.16	0.018	-0.971	0.1718874	0.1145916	0.2291832	-2.38350528	8.6516658	-24.47676576
5.76	576	0.159	0.017	-0.972	-0.2291832	-0.4583664	0.1718874	-2.38350528	8.64593622	-24.47676576
5.77	577	0.158	0.016	-0.973	-0.4010706	-0.8021412	0	-2.38923486	8.64020664	-24.47103618
5.78	578	0.158	0.015	-0.976	-0.4010706	-0.8021412	-0.0572958	-2.39496444	8.63447706	-24.47676576
5.79	579	0.158	0.016	-0.977	-0.286479	-0.8021412	-0.1145916	-2.39496444	8.6230179	-24.47676576
5.8	580	0.157	0.019	-0.979	-0.2291832	-0.7448454	-0.1145916	-2.39496444	8.61728832	-24.47676576
5.81	581	0.159	0.02	-0.976	-0.1718874	-0.7448454	-0.1145916	-2.39496444	8.61155874	-24.47676576
5.82	582	0.159	0.02	-0.976	-0.1718874	-0.7448454	-0.1145916	-2.40069402	8.60009958	-24.47676576
5.83	583	0.159	0.019	-0.976	-0.2291832	-0.7448454	-0.286479	-2.40069402	8.59437	-24.48249534
5.84	584	0.16	0.018	-0.974	-0.3437748	-0.5156622	-0.3437748	-2.40069402	8.60009958	-24.48822492
5.85	585	0.16	0.014	-0.972	-0.8021412	-0.286479	-0.5156622	-2.41215318	8.59437	-24.4939545
5.86	586	0.154	0.007	-0.964	-2.3491278	-0.8021412	-0.9167328	-2.4350715	8.58291084	-24.49968408
5.87	587	0.152	0.004	-0.954	-4.3544808	-0.6875496	-1.4896908	-2.48090814	8.57718126	-24.51687282
5.88	588	0.149	0.003	-0.944	-7.1046792	-1.2605076	-1.9480572	-2.55539268	8.5657221	-24.53406156
5.89	589	0.152	0.015	-0.954	-8.021412	-1.3178034	-2.0626488	-2.64133638	8.54853336	-24.55697988
5.9	590	0.153	0.028	-0.97	-7.1046792	-0.859437	-2.0626488	-2.71582092	8.5370742	-24.57416862
5.91	591	0.152	0.036	-0.984	-5.6722842	-0.2291832	-1.9480572	-2.7788463	8.53134462	-24.59708694
5.92	592	0.149	0.038	-0.994	-4.6409598	0	-1.7761698	-2.83041252	8.53134462	-24.61427568
