TimeStamp(s)	FrameCounter	AccX	AccY	AccZ	GyrX	GyrY	GyrZ	EulerX	EulerY	EulerZ
0.01	1	-0.075	-1.008	0.004	-1.8334656	0	-1.3178034	89.96013558	-3.99351726	-20.12228496
0.02	2	-0.069	-1.011	-0.015	-1.5469866	0	-0.859437	89.94294684	-3.9820581	-20.12228496
0.03	3	-0.07	-1.013	-0.013	-1.3178034	-0.286479	-0.9167328	89.93148768	-3.97632852	-20.12801454
0.04	4	-0.07	-1.012	-0.014	-1.3178034	-0.2291832	-0.9167328	89.92002852	-3.96486936	-20.12801454
0.05	5	-0.072	-1.011	-0.013	-1.4896908	-0.1145916	-0.6875496	89.8398144	-3.95913978	-20.12801454
0.06	6	-0.074	-1.007	-0.013	-1.5469866	-0.1145916	-0.5156622	89.82835524	-3.9534102	-20.12801454
0.07	7	-0.071	-1.004	-0.016	-1.4896908	0.2291832	-0.572958	89.8111665	-3.94768062	-20.12801454
0.08	8	-0.068	-1.001	-0.016	-1.6615782	0.5156622	-0.5156622	89.79397776	-3.94195104	-20.12228496
0.09	9	-0.067	-1	-0.017	-1.432395	0.3437748	-0.4010706	89.77678902	-3.93622146	-20.11655538
0.1	10	-0.067	-0.997	-0.019	-1.3178034	0.2291832	-0.3437748	89.69084532	-3.9247623	-20.11655538
0.11	11	-0.067	-0.998	-0.019	-1.2605076	0.2291832	-0.3437748	89.67938616	-3.91903272	-20.1108258
0.12	12	-0.068	-0.998	-0.018	-1.145916	0.1718874	-0.286479	89.667927	-3.91903272	-20.1108258
0.13	13	-0.069	-0.997	-0.022	-1.2605076	0.1718874	-0.286479	89.65646784	-3.91330314	-20.10509622
0.14	14	-0.069	-0.998	-0.023	-1.2032118	0.0572958	-0.4010706	89.6392791	-3.90757356	-20.10509622
0.15	15	-0.068	-1	-0.023	-0.9740286	0.1145916	-0.4010706	89.53614666	-3.8961144	-20.10509622
0.16	16	-0.07	-1	-0.023	-0.9167328	0	-0.4583664	89.5246875	-3.89038482	-20.10509622
0.17	17	-0.07	-1.002	-0.02	-0.9167328	0.1718874	-0.4583664	89.51895792	-3.88465524	-20.09936664
0.18	18	-0.072	-1.003	-0.021	-1.0313244	0.1145916	-0.4583664	89.50749876	-3.87892566	-20.09936664
0.19	19	-0.072	-1.003	-0.022	-1.0886202	0.1718874	-0.5156622	89.4960396	-3.87319608	-20.09936664
0.2	20	-0.071	-1.006	-0.025	-1.145916	0.3437748	-0.572958	89.41582548	-3.8674665	-20.08790748
0.21	21	-0.068	-1.009	-0.027	-1.2032118	0.5156622	-0.5156622	89.39863674	-3.86173692	-20.0821779
0.22	22	-0.066	-1.009	-0.025	-1.145916	0.4583664	-0.5156622	89.38717758	-3.85600734	-20.0821779
0.23	23	-0.065	-1.006	-0.027	-1.2032118	0.2291832	-0.4583664	89.37571842	-3.85027776	-20.07644832
0.24	24	-0.066	-1.007	-0.027	-1.2032118	0.2291832	-0.4583664	89.36425926	-3.85027776	-20.07644832
0.25	25	-0.067	-1.006	-0.029	-1.2032118	0.1718874	-0.572958	89.27831556	-3.83308902	-20.07071874
0.26	26	-0.068	-1.006	-0.027	-1.2032118	0.286479	-0.572958	89.26112682	-3.82735944	-20.07071874
0.27	27	-0.069	-1.007	-0.025	-1.5469866	0.4583664	-0.5156622	89.24966766	-3.82162986	-20.06498916
0.28	28	-0.068	-1.007	-0.028	-1.8907614	0.3437748	-0.3437748	89.22674934	-3.82162986	-20.05925958
0.29	29	-0.069	-1.008	-0.028	-2.291832	0.2291832	-0.3437748	89.20383102	-3.81590028	-20.05925958
0.3	30	-0.068	-1.005	-0.025	-2.578311	-0.2291832	-0.5156622	89.14080564	-3.8101707	-20.05925958
0.31	31	-0.068	-1.003	-0.024	-2.6929026	-0.3437748	-0.8021412	89.11215774	-3.79871154	-20.06498916
0.32	32	-0.067	-1.004	-0.024	-2.86479	-0.1718874	-0.9167328	89.08350984	-3.79298196	-20.06498916
0.33	33	-0.066	-1.006	-0.026	-3.0939732	-0.1718874	-0.8021412	89.05486194	-3.7815228	-20.07071874
0.34	34	-0.065	-1.006	-0.024	-3.151269	0	-0.5156622	89.02048446	-3.77579322	-20.07071874
0.35	35	-0.065	-1.006	-0.024	-2.86479	0.3437748	-0.286479	88.95745908	-3.76433406	-20.06498916
0.36	36	-0.064	-1.006	-0.026	-2.6356068	0.6302538	-0.0572958	88.92881118	-3.76433406	-20.05925958
0.37	37	-0.064	-1.004	-0.026	-2.4064236	0.572958	0	88.90589286	-3.76433406	-20.05353
0.38	38	-0.066	-1.003	-0.024	-2.2345362	0.2291832	0	88.88297454	-3.76433406	-20.05353
0.39	39	-0.07	-1.002	-0.024	-2.2345362	0.286479	-0.1145916	88.85432664	-3.76433406	-20.04780042
0.4	40	-0.07	-1.005	-0.024	-2.4064236	0.286479	-0.1718874	88.79703084	-3.76433406	-20.04207084
0.41	41	-0.071	-1.004	-0.024	-2.3491278	0.1145916	-0.2291832	88.76838294	-3.76433406	-20.04207084
0.42	42	-0.069	-1.006	-0.027	-2.2345362	0.2291832	-0.286479	88.74546462	-3.75860448	-20.04207084
0.43	43	-0.067	-1.005	-0.024	-1.9480572	0.3437748	-0.1718874	88.72827588	-3.75860448	-20.03634126
0.44	44	-0.065	-1.004	-0.02	-1.6042824	0.4583664	0	88.71108714	-3.75860448	-20.03061168
0.45	45	-0.063	-1.005	-0.023	-1.7761698	0.8021412	0.1718874	88.65952092	-3.74714532	-20.0248821
0.46	46	-0.064	-1.005	-0.027	-1.7761698	0.9740286	0.286479	88.6366026	-3.7528749	-20.01342294
0.47	47	-0.065	-1.005	-0.029	-1.718874	0.6875496	0.286479	88.61941386	-3.7528749	-20.00769336
0.48	48	-0.065	-1.005	-0.028	-1.4896908	0.4010706	0.286479	88.6079547	-3.75860448	-20.00196378
0.49	49	-0.066	-1.004	-0.026	-1.3178034	0.2291832	0.286479	88.59076596	-3.75860448	-20.00196378
0.5	50	-0.066	-1.003	-0.029	-1.432395	0.1718874	0.1145916	88.522011	-3.7528749	-19.9962342
0.51	51	-0.067	-1.001	-0.03	-1.4896908	0.1145916	0.0572958	88.51055184	-3.75860448	-19.9962342
0.52	52	-0.068	-1.001	-0.032	-1.432395	0.0572958	0	88.4933631	-3.75860448	-19.9962342
0.53	53	-0.066	-1.002	-0.032	-1.4896908	0	0	88.47617436	-3.75860448	-19.9962342
0.54	54	-0.065	-1.002	-0.033	-1.4896908	0.1718874	0	88.4647152	-3.75860448	-19.9962342
0.55	55	-0.066	-1.001	-0.034	-1.3178034	0.1145916	0	88.37304192	-3.74714532	-19.99050462
0.56	56	-0.066	-1.001	-0.034	-1.2605076	0.2291832	0.0572958	88.36158276	-3.74714532	-19.99050462
0.57	57	-0.068	-1.001	-0.034	-1.2605076	0.4010706	0.1145916	88.3501236	-3.7528749	-19.98477504
0.58	58	-0.066	-1.002	-0.034	-1.145916	0.4010706	0.2291832	88.33293486	-3.7528749	-19.97904546
0.59	59	-0.066	-1.002	-0.033	-1.2032118	0.286479	0.2291832	88.3214757	-3.75860448	-19.97904546
0.6	60	-0.066	-1.003	-0.035	-1.2032118	0.4010706	0.2291832	88.25845032	-3.7528749	-19.97331588
0.61	61	-0.065	-1.004	-0.035	-1.2605076	0.5156622	0.3437748	88.24699116	-3.75860448	-19.9675863
0.62	62	-0.064	-1.005	-0.036	-1.432395	0.4010706	0.1718874	88.22980242	-3.75860448	-19.96185672
0.63	63	-0.063	-1.005	-0.036	-1.5469866	0.286479	0.0572958	88.21261368	-3.75860448	-19.95612714
0.64	64	-0.063	-1.005	-0.036	-1.4896908	0.2291832	0.1145916	88.20115452	-3.75860448	-19.95612714
0.65	65	-0.064	-1.005	-0.036	-1.4896908	0.2291832	0.1145916	88.13812914	-3.7528749	-19.95612714
0.66	66	-0.065	-1.004	-0.036	-1.4896908	0.1145916	0.1718874	88.1209404	-3.7528749	-19.95039756
0.67	67	-0.067	-1.003	-0.035	-1.432395	0.1145916	0.286479	88.10948124	-3.75860448	-19.95039756
0.68	68	-0.067	-1.003	-0.036	-1.3750992	0.2291832	0.1718874	88.0922925	-3.75860448	-19.95039756
0.69	69	-0.067	-1.003	-0.033	-1.2605076	0.1145916	0.2291832	88.08083334	-3.75860448	-19.94466798
0.7	70	-0.066	-1.001	-0.031	-1.3750992	0.1145916	0.1145916	88.01780796	-3.75860448	-19.94466798
0.71	71	-0.069	-1.002	-0.034	-1.4896908	0.286479	0.0572958	88.00061922	-3.75860448	-19.9389384
0.72	72	-0.071	-1.001	-0.035	-1.4896908	0.4010706	0.2291832	87.98343048	-3.75860448	-19.9389384
0.73	73	-0.073	-1.003	-0.035	-1.4896908	0.1718874	0.286479	87.96624174	-3.76433406	-19.93320882
0.74	74	-0.075	-1.001	-0.034	-1.3750992	0	0.3437748	87.95478258	-3.77006364	-19.93320882
0.75	75	-0.075	-1.002	-0.034	-1.145916	0.0572958	0.286479	87.8917572	-3.7815228	-19.92747924
0.76	76	-0.074	-1.003	-0.035	-1.145916	0.0572958	0.286479	87.88029804	-3.7815228	-19.92747924
0.77	77	-0.074	-1.003	-0.035	-0.4010706	-0.1145916	0.286479	87.87456846	-3.78725238	-19.92747924
0.78	78	-0.074	-1.005	-0.036	0.1718874	-0.286479	0.2291832	87.88029804	-3.78725238	-19.93320882
0.79	79	-0.074	-1.005	-0.035	0.286479	-0.4010706	0.4010706	87.88029804	-3.79298196	-19.93320882
0.8	80	-0.074	-1.003	-0.033	0.286479	-0.4583664	0.572958	87.82300224	-3.81590028	-19.93320882
0.81	81	-0.075	-1.006	-0.034	0.2291832	-0.1718874	0.4583664	87.82873182	-3.81590028	-19.93320882
0.82	82	-0.074	-1.008	-0.034	-0.1145916	0.3437748	0.4583664	87.82300224	-3.82162986	-19.92747924
0.83	83	-0.073	-1.009	-0.037	-0.2291832	0.6302538	0.6302538	87.82300224	-3.82735944	-19.92174966
0.84	84	-0.07	-1.008	-0.037	-0.3437748	0.859437	0.7448454	87.81727266	-3.8388186	-19.91602008
0.85	85	-0.065	-1.008	-0.034	-0.572958	0.859437	0.9167328	87.78289518	-3.83308902	-19.90456092
0.86	86	-0.063	-1.007	-0.035	-0.8021412	0.6302538	0.8021412	87.7771656	-3.84454818	-19.89883134
0.87	87	-0.063	-1.004	-0.037	-0.859437	0.4583664	0.6302538	87.76570644	-3.85027776	-19.89310176
0.88	88	-0.066	-1.005	-0.036	-0.8021412	0.2291832	0.1145916	87.75997686	-3.85027776	-19.89310176
0.89	89	-0.069	-1.006	-0.036	-0.6875496	0.3437748	0	87.7485177	-3.85027776	-19.88737218
0.9	90	-0.069	-1.005	-0.036	-0.5156622	0.4583664	0	87.68549232	-3.84454818	-19.8816426
0.91	91	-0.067	-1.004	-0.033	-0.0572958	0.7448454	-0.0572958	87.68549232	-3.84454818	-19.87591302
0.92	92	-0.063	-1.004	-0.035	0	0.9740286	0.0572958	87.68549232	-3.84454818	-19.86445386
0.93	93	-0.063	-1.002	-0.038	0.0572958	0.6875496	0.3437748	87.68549232	-3.84454818	-19.85872428
0.94	94	-0.065	-1	-0.035	0.1718874	0.1718874	0.286479	87.68549232	-3.85027776	-19.8529947
0.95	95	-0.069	-1	-0.033	0.3437748	0	0.2291832	87.61673736	-3.85027776	-19.84726512
0.96	96	-0.073	-0.999	-0.031	0.6875496	-0.1145916	0.0572958	87.62246694	-3.85600734	-19.8529947
0.97	97	-0.075	-1.002	-0.034	0.5156622	0	0	87.62819652	-3.85027776	-19.8529947
0.98	98	-0.077	-1.001	-0.036	0.5156622	-0.1718874	-0.1145916	87.6339261	-3.85027776	-19.8529947
0.99	99	-0.078	-1.001	-0.037	0.7448454	-0.1145916	-0.1718874	87.63965568	-3.85027776	-19.8529947
1	100	-0.075	-1.001	-0.037	0.8021412	0	-0.2291832	87.58235988	-3.86173692	-19.84726512
1.01	101	-0.072	-1.002	-0.041	0.8021412	0	-0.2291832	87.59381904	-3.85600734	-19.84726512
1.02	102	-0.071	-1.001	-0.04	1.0313244	0.1145916	-0.286479	87.59954862	-3.85600734	-19.84726512
1.03	103	-0.071	-1.001	-0.039	1.0886202	0.0572958	-0.1718874	87.61100778	-3.85027776	-19.84153554
1.04	104	-0.071	-1.001	-0.04	1.0886202	0	0	87.62246694	-3.85027776	-19.84153554
1.05	105	-0.072	-1.004	-0.043	0.9740286	0	0	87.56517114	-3.85027776	-19.83580596
1.06	106	-0.071	-1.006	-0.04	0.9740286	0	0.0572958	87.57090072	-3.85027776	-19.83580596
1.07	107	-0.071	-1.003	-0.04	0.6875496	0	0.0572958	87.58235988	-3.85027776	-19.83580596
1.08	108	-0.07	-1.003	-0.042	0.6302538	0	0.1145916	87.58808946	-3.85600734	-19.83580596
1.09	109	-0.07	-1.003	-0.044	0.572958	0.0572958	0.0572958	87.59381904	-3.85600734	-19.83580596
1.1	110	-0.071	-1.004	-0.041	0.6302538	0.0572958	0.1145916	87.5193345	-3.85027776	-19.83007638
1.11	111	-0.071	-1.003	-0.041	0.4010706	0.2291832	0.1718874	87.52506408	-3.85027776	-19.83007638
1.12	112	-0.07	-1.004	-0.044	0.286479	0.4010706	0.286479	87.52506408	-3.85600734	-19.8243468
1.13	113	-0.068	-1.004	-0.043	0.3437748	0.3437748	0.286479	87.53079366	-3.86173692	-19.81861722
1.14	114	-0.068	-1.004	-0.041	0.3437748	0.3437748	0.3437748	87.53652324	-3.86173692	-19.81861722
1.15	115	-0.071	-1.004	-0.042	0.1718874	0.2291832	0.1718874	87.41047248	-3.8674665	-19.80142848
1.16	116	-0.072	-1.004	-0.043	0.1145916	0.1145916	0	87.41047248	-3.8674665	-19.80142848
1.17	117	-0.076	-1.004	-0.038	0.1718874	0	-0.1145916	87.41047248	-3.8674665	-19.80142848
1.18	118	-0.076	-1.006	-0.035	-0.1145916	0.1145916	-0.1145916	87.41047248	-3.8674665	-19.80142848
1.19	119	-0.074	-1.007	-0.034	-0.6875496	0.1145916	-0.1718874	87.4047429	-3.8674665	-19.80142848
1.2	120	-0.073	-1.007	-0.034	-1.145916	0.4010706	-0.2291832	87.37036542	-3.86173692	-19.7956989
1.21	121	-0.073	-1.008	-0.039	-1.5469866	0.7448454	-0.286479	87.35317668	-3.86173692	-19.78423974
1.22	122	-0.073	-1.008	-0.041	-1.8334656	0.6302538	-0.4010706	87.33025836	-3.85600734	-19.77851016
1.23	123	-0.076	-1.009	-0.035	-2.005353	0	-0.3437748	87.31306962	-3.85600734	-19.77851016
1.24	124	-0.078	-1.009	-0.031	-2.6356068	-0.9740286	-0.3437748	87.28442172	-3.85027776	-19.78996932
1.25	125	-0.082	-1.007	-0.034	-2.6929026	-1.3750992	-0.5156622	87.25004424	-3.85600734	-19.80142848
1.26	126	-0.083	-1.007	-0.036	-2.5210152	-0.859437	-0.6302538	87.22712592	-3.85027776	-19.81288764
1.27	127	-0.081	-1.009	-0.035	-2.7501984	-0.4583664	-0.6302538	87.19847802	-3.84454818	-19.81861722
1.28	128	-0.079	-1.01	-0.034	-3.2085648	-0.4010706	-0.6302538	87.16983012	-3.83308902	-19.8243468
1.29	129	-0.079	-1.009	-0.04	-3.151269	-0.2291832	-0.572958	87.13545264	-3.82735944	-19.8243468
1.3	130	-0.078	-1.007	-0.041	-2.6929026	-0.286479	-0.6302538	87.09534558	-3.83308902	-19.8243468
1.31	131	-0.08	-1.007	-0.041	-2.4064236	-0.3437748	-0.6875496	87.06669768	-3.82162986	-19.83007638
1.32	132	-0.08	-1.006	-0.039	-2.2345362	-0.4583664	-0.8021412	87.04950894	-3.81590028	-19.83580596
1.33	133	-0.08	-1.004	-0.041	-2.1772404	-0.572958	-0.9740286	87.02659062	-3.80444112	-19.84153554
1.34	134	-0.08	-1.003	-0.047	-2.1199446	-0.3437748	-0.9740286	87.0036723	-3.79871154	-19.84726512
1.35	135	-0.078	-1.001	-0.048	-1.8907614	-0.4010706	-1.0313244	86.96356524	-3.79298196	-19.84726512
1.36	136	-0.077	-1.002	-0.045	-1.6615782	-0.3437748	-0.9740286	86.9463765	-3.78725238	-19.8529947
1.37	137	-0.076	-1.002	-0.044	-1.8334656	-0.5156622	-0.8021412	86.92918776	-3.77579322	-19.85872428
1.38	138	-0.075	-1.002	-0.045	-1.718874	-0.5156622	-0.6875496	86.91199902	-3.77006364	-19.86445386
1.39	139	-0.074	-1.001	-0.048	-1.5469866	-0.4010706	-0.6302538	86.89481028	-3.76433406	-19.87018344
1.4	140	-0.075	-1.002	-0.047	-1.4896908	-0.1145916	-0.572958	86.8604328	-3.77006364	-19.87018344
1.41	141	-0.074	-1.003	-0.046	-1.6615782	-0.1145916	-0.5156622	86.84324406	-3.76433406	-19.87018344
1.42	142	-0.073	-1.005	-0.048	-1.6042824	-0.286479	-0.3437748	86.82605532	-3.75860448	-19.87591302
1.43	143	-0.073	-1.004	-0.05	-1.718874	-0.1145916	-0.4010706	86.80886658	-3.75860448	-19.87591302
1.44	144	-0.072	-1.001	-0.054	-1.4896908	-0.1145916	-0.4010706	86.79167784	-3.7528749	-19.87591302
1.45	145	-0.072	-1	-0.054	-1.2605076	-0.3437748	-0.4583664	86.75157078	-3.7528749	-19.87591302
1.46	146	-0.071	-1.001	-0.053	-1.145916	-0.6875496	-0.4010706	86.74011162	-3.74714532	-19.88737218
1.47	147	-0.07	-1.002	-0.054	-1.2032118	-0.859437	-0.4010706	86.72865246	-3.74714532	-19.89310176
1.48	148	-0.069	-1.002	-0.057	-1.0886202	-0.859437	-0.4583664	86.7171933	-3.74141574	-19.90456092
1.49	149	-0.07	-1.004	-0.056	-1.145916	-0.8021412	-0.4010706	86.70573414	-3.73568616	-19.91602008
1.5	150	-0.072	-1.005	-0.054	-1.2605076	-0.572958	-0.4010706	86.6598975	-3.74141574	-19.91602008
1.51	151	-0.075	-1.005	-0.055	-1.432395	-0.3437748	-0.3437748	86.64270876	-3.73568616	-19.92174966
1.52	152	-0.072	-1.004	-0.057	-1.5469866	-0.2291832	-0.4010706	86.62552002	-3.72995658	-19.92174966
1.53	153	-0.072	-1.002	-0.058	-1.4896908	-0.3437748	-0.3437748	86.61406086	-3.72995658	-19.92747924
1.54	154	-0.073	-1.001	-0.059	-1.432395	-0.3437748	-0.572958	86.59687212	-3.724227	-19.93320882
1.55	155	-0.075	-1.002	-0.058	-1.432395	-0.1145916	-0.6302538	86.55103548	-3.72995658	-19.92747924
1.56	156	-0.075	-1.003	-0.06	-1.4896908	0	-0.6875496	86.53384674	-3.71849742	-19.92747924
1.57	157	-0.076	-1.003	-0.062	-1.7761698	0.0572958	-0.6875496	86.516658	-3.71276784	-19.92747924
1.58	158	-0.074	-1.004	-0.063	-2.005353	0.1145916	-0.6875496	86.49373968	-3.70703826	-19.92747924
1.59	159	-0.073	-1.004	-0.063	-1.9480572	0.286479	-0.6302538	86.47655094	-3.70130868	-19.92747924
1.6	160	-0.071	-1.004	-0.062	-2.1772404	0.3437748	-0.572958	86.4307143	-3.6955791	-19.92174966
1.61	161	-0.07	-1.005	-0.063	-2.4064236	0.286479	-0.6302538	86.4020664	-3.68984952	-19.91602008
1.62	162	-0.071	-1.004	-0.065	-2.6929026	0.3437748	-0.6875496	86.37914808	-3.68411994	-19.91602008
1.63	163	-0.072	-1.005	-0.065	-2.6929026	0.5156622	-0.6875496	86.35050018	-3.67839036	-19.9102905
1.64	164	-0.07	-1.003	-0.062	-2.86479	0.4010706	-0.6302538	86.3161227	-3.67266078	-19.90456092
1.65	165	-0.072	-1.003	-0.062	-3.151269	0.1145916	-0.572958	86.27028606	-3.67266078	-19.90456092
1.66	166	-0.073	-1.004	-0.06	-3.3804522	0	-0.5156622	86.230179	-3.6669312	-19.90456092
1.67	167	-0.072	-1.003	-0.06	-3.437748	0.1145916	-0.572958	86.19580152	-3.66120162	-19.90456092
1.68	168	-0.07	-1.003	-0.061	-3.7815228	0.1145916	-0.6302538	86.16142404	-3.65547204	-19.90456092
1.69	169	-0.071	-1.005	-0.061	-4.0680018	0.1718874	-0.572958	86.1155874	-3.64974246	-19.89883134
1.7	170	-0.074	-1.01	-0.049	-4.4117766	0.6302538	-0.5156622	86.07548034	-3.64974246	-19.89310176
1.71	171	-0.074	-1.013	-0.037	-4.0680018	2.005353	-0.1145916	86.0296437	-3.64401288	-19.87591302
1.72	172	-0.074	-1.011	-0.05	-3.724227	2.6929026	0.1718874	85.98953664	-3.64974246	-19.84726512
1.73	173	-0.072	-1.009	-0.067	-2.9220858	2.6929026	0.4583664	85.96088874	-3.64974246	-19.81861722
1.74	174	-0.072	-1.009	-0.069	-2.1772404	1.7761698	0.572958	85.93797042	-3.65547204	-19.80142848
1.75	175	-0.076	-1.008	-0.065	-1.7761698	1.5469866	0.5156622	85.90359294	-3.67266078	-19.78423974
1.76	176	-0.078	-1.007	-0.063	-1.9480572	2.1199446	0.286479	85.88067462	-3.67266078	-19.76132142
1.77	177	-0.079	-1.005	-0.062	-2.4064236	2.1199446	0.286479	85.85202672	-3.67839036	-19.74413268
1.78	178	-0.079	-1.003	-0.067	-2.9793816	1.718874	0.4010706	85.82337882	-3.67839036	-19.72694394
1.79	179	-0.079	-1	-0.068	-3.2085648	1.718874	0.2291832	85.78900134	-3.68411994	-19.7097552
1.8	180	-0.077	-1.001	-0.07	-3.3231564	1.8907614	0.1718874	85.7431647	-3.68984952	-19.68683688
1.81	181	-0.074	-1.002	-0.069	-3.5523396	1.9480572	0.0572958	85.70305764	-3.68984952	-19.66964814
1.82	182	-0.073	-1	-0.071	-3.6669312	1.6042824	0.3437748	85.66295058	-3.68984952	-19.6524594
1.83	183	-0.071	-1.001	-0.073	-3.8961144	1.2605076	0.2291832	85.62284352	-3.6955791	-19.64100024
1.84	184	-0.07	-1.005	-0.073	-4.1825934	0.9167328	0.1145916	85.58273646	-3.6955791	-19.62954108
1.85	185	-0.07	-1.006	-0.071	-4.5263682	0.5156622	-0.0572958	85.52544066	-3.6955791	-19.6238115
1.86	186	-0.073	-1.007	-0.069	-5.0420304	0.4010706	-0.1145916	85.47387444	-3.6955791	-19.61808192
1.87	187	-0.074	-1.006	-0.072	-5.7868758	0.4583664	-0.0572958	85.41084906	-3.6955791	-19.61808192
1.88	188	-0.076	-1.006	-0.077	-6.4171296	0.4010706	-0.0572958	85.34782368	-3.68984952	-19.61235234
1.89	189	-0.077	-1.006	-0.077	-6.7036086	0.4583664	-0.0572958	85.27906872	-3.68984952	-19.60662276
1.9	190	-0.075	-1.003	-0.074	-6.9327918	0.3437748	-0.0572958	85.1988546	-3.6955791	-19.60089318
1.91	191	-0.076	-1.002	-0.076	-7.448454	0.2291832	-0.0572958	85.12437006	-3.6955791	-19.60089318
1.92	192	-0.075	-1.004	-0.083	-8.2505952	0.3437748	-0.0572958	85.03842636	-3.6955791	-19.60089318
1.93	193	-0.074	-1.007	-0.089	-8.880849	0.572958	-0.2291832	84.94675308	-3.68984952	-19.5951636
1.94	194	-0.072	-1.012	-0.093	-9.2246238	0.4583664	-0.286479	84.8550798	-3.68984952	-19.58943402
1.95	195	-0.07	-1.013	-0.089	-9.5683986	0	-0.286479	84.75194736	-3.68411994	-19.58943402
1.96	196	-0.07	-1.01	-0.086	-9.9121734	-0.3437748	-0.4010706	84.64881492	-3.68411994	-19.5951636
1.97	197	-0.074	-1.006	-0.089	-10.4278356	-0.1145916	-0.3437748	84.54568248	-3.67839036	-19.60089318
1.98	198	-0.075	-1.01	-0.094	-11.45916	0.0572958	-0.2291832	84.4253613	-3.67839036	-19.60089318
1.99	199	-0.077	-1.015	-0.095	-12.2613012	-0.2291832	-0.0572958	84.30504012	-3.67839036	-19.60089318
2	200	-0.079	-1.016	-0.095	-12.6623718	-0.1145916	0	84.1675302	-3.68411994	-19.60662276
2.01	201	-0.077	-1.015	-0.097	-13.178034	0.1145916	0	84.03574986	-3.68411994	-19.60662276
2.02	202	-0.073	-1.016	-0.101	-13.6936962	-0.0572958	0.0572958	83.89823994	-3.68411994	-19.60662276
2.03	203	-0.072	-1.016	-0.099	-14.1520626	-0.9167328	0.1145916	83.75500044	-3.68984952	-19.61808192
2.04	204	-0.074	-1.017	-0.1	-15.1260912	-1.3750992	0.0572958	83.60030178	-3.6955791	-19.63527066
2.05	205	-0.08	-1.015	-0.108	-16.042824	-1.432395	-0.2291832	83.43414396	-3.6955791	-19.64672982
2.06	206	-0.086	-1.019	-0.114	-17.0741484	-1.145916	-0.5156622	83.26225656	-3.6955791	-19.66391856
2.07	207	-0.084	-1.022	-0.113	-18.2200644	-0.4010706	-0.4583664	83.07891	-3.68984952	-19.66964814
2.08	208	-0.078	-1.018	-0.114	-18.907614	-0.4010706	0	82.88410428	-3.6955791	-19.67537772
2.09	209	-0.077	-0.999	-0.114	-19.7097552	-0.4583664	0.4010706	82.68356898	-3.70130868	-19.6811073
2.1	210	-0.083	-0.982	-0.11	-20.4546006	-0.3437748	0.0572958	82.4773041	-3.70703826	-19.68683688
2.11	211	-0.088	-0.986	-0.106	-21.0848544	-0.1145916	-0.4583664	82.26530964	-3.70703826	-19.69256646
2.12	212	-0.092	-1	-0.103	-22.0015872	-0.0572958	-0.8021412	82.04185602	-3.70130868	-19.69256646
2.13	213	-0.093	-1.009	-0.104	-22.5745452	0.2291832	-0.859437	81.81267282	-3.68984952	-19.69829604
2.14	214	-0.093	-1.009	-0.11	-23.4339822	0.9167328	-1.145916	81.57203046	-3.68411994	-19.69256646
2.15	215	-0.093	-1.01	-0.109	-23.6631654	1.145916	-1.3178034	81.33711768	-3.67266078	-19.6811073
2.16	216	-0.092	-1.017	-0.111	-23.6631654	1.0886202	-1.2032118	81.09647532	-3.66120162	-19.67537772
2.17	217	-0.088	-1.02	-0.113	-23.9496444	0.9740286	-1.2032118	80.85010338	-3.64974246	-19.66964814
2.18	218	-0.089	-1.017	-0.116	-24.2361234	0.859437	-1.0886202	80.60373144	-3.64401288	-19.66391856
2.19	219	-0.09	-1.018	-0.12	-24.6944898	0.9167328	-0.9167328	80.35162992	-3.63255372	-19.65818898
2.2	220	-0.093	-1.018	-0.118	-25.1528562	1.2605076	-0.859437	80.0995284	-3.63255372	-19.6524594
2.21	221	-0.094	-1.017	-0.12	-25.3820394	1.6042824	-0.6875496	79.8416973	-3.62109456	-19.64100024
2.22	222	-0.095	-1.014	-0.125	-26.0122932	2.2345362	-0.6302538	79.57813662	-3.61536498	-19.61808192
2.23	223	-0.091	-1.015	-0.129	-27.2728008	2.8074942	-0.4583664	79.2973872	-3.6096354	-19.5951636
2.24	224	-0.09	-1.014	-0.139	-28.5333084	3.3231564	-0.1718874	79.00517862	-3.60390582	-19.5665157
2.25	225	-0.086	-1.013	-0.149	-29.8511118	3.8961144	0.0572958	78.70151088	-3.60390582	-19.53213822
2.26	226	-0.087	-1.017	-0.157	-31.1116194	4.3544808	0.4010706	78.3806544	-3.60390582	-19.49203116
2.27	227	-0.088	-1.017	-0.165	-32.3148312	4.8128472	0.4583664	78.05406834	-3.60390582	-19.44619452
2.28	228	-0.086	-1.016	-0.175	-33.2888598	5.6722842	0.6302538	77.71029354	-3.60390582	-19.3946283
2.29	229	-0.081	-1.009	-0.188	-34.5493674	6.3598338	0.7448454	77.35505958	-3.60390582	-19.33160292
2.3	230	-0.075	-1.002	-0.192	-35.7525792	6.589017	0.8021412	76.98836646	-3.60390582	-19.26857754
2.31	231	-0.073	-0.998	-0.198	-36.955791	6.7036086	0.9740286	76.6044846	-3.60390582	-19.20555216
2.32	232	-0.076	-0.998	-0.205	-38.1590028	6.875496	1.0313244	76.21487316	-3.60390582	-19.1367972
2.33	233	-0.081	-0.998	-0.212	-39.247623	7.2765666	0.859437	75.80807298	-3.60390582	-19.06804224
2.34	234	-0.083	-0.997	-0.213	-40.9092012	7.8495246	0.572958	75.38981364	-3.59244666	-18.9935577
2.35	235	-0.08	-0.995	-0.224	-42.97185	8.5370742	0.4010706	74.94863598	-3.58671708	-18.91334358
2.36	236	-0.078	-0.992	-0.234	-44.8053156	8.7662574	0.286479	74.48454	-3.56952834	-18.83312946
2.37	237	-0.073	-0.992	-0.242	-46.7533728	8.9381448	0.1145916	74.00325528	-3.55806918	-18.75291534
2.38	238	-0.07	-0.992	-0.252	-48.5295426	9.167328	0.0572958	73.50478182	-3.54088044	-18.66697164
2.39	239	-0.069	-0.99	-0.256	-50.1911208	9.3965112	0	72.98911962	-3.51796212	-18.58102794
2.4	240	-0.069	-0.989	-0.263	-51.6235158	9.6256944	-0.4010706	72.46199826	-3.4950438	-18.49508424
2.41	241	-0.07	-0.982	-0.267	-52.8840234	10.026765	-1.0886202	71.91768816	-3.4663959	-18.40914054
2.42	242	-0.068	-0.979	-0.267	-54.144531	10.2559482	-1.6615782	71.3619189	-3.42628884	-18.32319684
2.43	243	-0.068	-0.978	-0.27	-55.6915176	10.886202	-1.8334656	70.7889609	-3.3804522	-18.23152356
2.44	244	-0.068	-0.978	-0.274	-57.6395748	11.4018642	-1.718874	70.19308458	-3.33461556	-18.1341207
2.45	245	-0.067	-0.971	-0.281	-59.5303362	11.6310474	-1.7761698	69.5857491	-3.28877892	-18.03098826
2.46	246	-0.074	-0.96	-0.295	-60.7908438	12.8342592	-1.9480572	68.96122488	-3.2372127	-17.92212624
2.47	247	-0.08	-0.958	-0.288	-61.2492102	13.178034	-2.005353	68.33097108	-3.1799169	-17.81326422
2.48	248	-0.093	-0.962	-0.299	-63.1972674	12.8342592	-2.4637194	67.68352854	-3.1226211	-17.71013178
2.49	249	-0.089	-0.977	-0.312	-64.8588456	13.0634424	-3.151269	67.01889726	-3.05386614	-17.60699934
2.5	250	-0.084	-0.988	-0.334	-66.463128	13.2926256	-3.6669312	66.33707724	-2.9793816	-17.5038669
2.51	251	-0.076	-0.987	-0.346	-68.0101146	12.6623718	-4.297185	65.64379806	-2.89916748	-17.40646404
2.52	252	-0.069	-0.98	-0.372	-69.4425096	12.9488508	-4.7555514	64.92760056	-2.81895336	-17.31479076
2.53	253	-0.059	-0.973	-0.375	-68.0101146	14.896908	-5.3858052	64.23432138	-2.71582092	-17.20592874
2.54	254	-0.049	-0.995	-0.382	-67.7809314	13.750992	-6.3598338	63.5410422	-2.61268848	-17.11425546
2.55	255	-0.056	-1.004	-0.408	-69.4425096	11.9748222	-7.1046792	62.83057428	-2.50955604	-17.0455005
2.56	256	-0.062	-1.019	-0.44	-69.8435802	11.5164558	-7.5057498	62.12010636	-2.40069402	-16.98247512
2.57	257	-0.073	-1.027	-0.475	-69.4425096	10.9434978	-7.6203414	61.40963844	-2.291832	-16.92517932
2.58	258	-0.079	-1.04	-0.494	-69.041439	10.1413566	-7.6203414	60.7049001	-2.18869956	-16.8736131
2.59	259	-0.07	-1.061	-0.491	-68.9268474	9.2819196	-7.6203414	60.00016176	-2.08556712	-16.83350604
2.6	260	-0.05	-1.081	-0.555	-70.4165382	7.9641162	-7.5057498	59.28396426	-1.99389384	-16.80485814
2.61	261	-0.042	-1.086	-0.587	-70.3592424	4.9274388	-7.5057498	58.56776676	-1.91367972	-16.80485814
2.62	262	-0.042	-1.073	-0.622	-69.614397	2.7501984	-8.1932994	57.86302842	-1.83919518	-16.82777646
2.63	263	-0.047	-1.054	-0.633	-68.2392978	1.3750992	-9.1100322	57.16974924	-1.76471064	-16.86788352
2.64	264	-0.054	-1.043	-0.647	-67.895523	1.2605076	-9.8548776	56.48219964	-1.68449652	-16.91372016
2.65	265	-0.052	-1.033	-0.658	-67.8382272	0.572958	-9.5683986	55.79465004	-1.61001198	-16.96528638
2.66	266	-0.057	-1.025	-0.686	-66.9787902	-0.0572958	-8.9954406	55.1185596	-1.5469866	-17.02258218
2.67	267	-0.048	-1.016	-0.706	-65.7755784	-0.7448454	-8.6516658	54.45392832	-1.4896908	-17.07987798
2.68	268	-0.03	-1.014	-0.737	-64.6869582	-1.2032118	-8.6516658	53.79502662	-1.43812458	-17.14290336
2.69	269	-0.02	-1.012	-0.757	-63.0826758	-2.7501984	-8.9381448	53.15904324	-1.38655836	-17.22311748
2.7	270	-0.025	-0.993	-0.768	-60.9627312	-4.6982556	-9.5111028	52.5402486	-1.3464513	-17.32052034
2.71	271	-0.023	-0.972	-0.761	-59.0719698	-5.3858052	-10.4278356	51.94437228	-1.30634424	-17.42938236
2.72	272	-0.008	-0.961	-0.771	-57.582279	-5.7868758	-10.886202	51.35995512	-1.2605076	-17.54397396
2.73	273	0.001	-0.958	-0.766	-55.3477428	-7.0473834	-10.599723	50.80418586	-1.2318597	-17.67002472
2.74	274	0.004	-0.949	-0.755	-53.0559108	-8.9381448	-10.1986524	50.27133492	-1.21467096	-17.80180506
2.75	275	-0.004	-0.925	-0.738	-50.706783	-11.8029348	-10.4851314	49.7614023	-1.21467096	-17.9622333
2.76	276	-0.007	-0.887	-0.72	-48.414951	-13.8082878	-11.5164558	49.274388	-1.21467096	-18.14557986
2.77	277	-0.003	-0.854	-0.706	-45.7793442	-15.2406828	-12.318597	48.8160216	-1.22613012	-18.34611516
2.78	278	0	-0.814	-0.686	-42.112413	-16.1001198	-12.7769634	48.39203268	-1.23758928	-18.55238004
2.79	279	0.002	-0.78	-0.678	-39.247623	-16.902261	-13.1207382	48.00242124	-1.25477802	-18.77010408
2.8	280	-0.003	-0.754	-0.669	-36.1536498	-18.8503182	-13.6364004	47.6414577	-1.27769634	-19.00501686
2.81	281	-0.01	-0.742	-0.661	-32.8877892	-20.626488	-14.4385416	47.31487164	-1.31207382	-19.25711838
2.82	282	-0.005	-0.747	-0.657	-29.793816	-22.058883	-14.9542038	47.02266306	-1.3464513	-19.52067906
2.83	283	-0.001	-0.753	-0.645	-26.5852512	-23.6631654	-15.6990492	46.75910238	-1.39228794	-19.80142848
2.84	284	0.004	-0.737	-0.635	-23.2620948	-24.6944898	-16.7303736	46.53564876	-1.43812458	-20.09936664
2.85	285	0.002	-0.718	-0.638	-20.4546006	-25.7258142	-18.1627686	46.34084304	-1.47823164	-20.41449354
2.86	286	-0.001	-0.704	-0.627	-17.1314442	-26.929026	-19.6524594	46.17468522	-1.5183387	-20.74680918
2.87	287	-0.002	-0.702	-0.618	-14.9542038	-28.7051958	-20.5118964	46.0371753	-1.56417534	-21.09631356
2.88	288	-0.005	-0.696	-0.622	-12.6623718	-30.4240698	-21.1421502	45.9225837	-1.61574156	-21.46873626
2.89	289	-0.006	-0.691	-0.62	-10.3705398	-31.799169	-21.8296998	45.83091042	-1.67303736	-21.84688854
2.9	290	-0.005	-0.686	-0.619	-7.9068204	-32.4867186	-22.8610242	45.76788504	-1.73033316	-22.24222956
2.91	291	0	-0.682	-0.612	-5.6149884	-33.6326346	-23.777757	45.72777798	-1.78189938	-22.65475932
2.92	292	0.004	-0.682	-0.609	-3.8388186	-35.0650296	-24.2361234	45.70485966	-1.84492476	-23.07874824
2.93	293	0.003	-0.687	-0.601	-2.005353	-37.1276784	-24.5798982	45.70485966	-1.9194093	-23.5199259
2.94	294	0.001	-0.7	-0.599	-0.5156622	-39.9351726	-25.2674478	45.7220484	-2.01108258	-23.98402188
2.95	295	-0.003	-0.711	-0.593	0.4583664	-42.398892	-25.6112226	45.7506963	-2.10848544	-24.47103618
2.96	296	0	-0.712	-0.592	1.2032118	-44.404245	-26.069589	45.79080336	-2.21734746	-24.97523922
2.97	297	0.011	-0.715	-0.596	2.005353	-45.8939358	-26.356068	45.83664	-2.33766864	-25.49090142
2.98	298	-0.003	-0.704	-0.6	2.291832	-47.555514	-27.1582092	45.88820622	-2.4637194	-26.02375236
2.99	299	0	-0.716	-0.598	2.7501984	-49.7327544	-27.7311672	45.94550202	-2.59549974	-26.57952162
3	300	-0.011	-0.723	-0.581	3.0939732	-51.6808116	-28.4187168	46.01425698	-2.73300966	-27.15247962
3.01	301	-0.021	-0.724	-0.584	3.151269	-53.858052	-29.0489706	46.08301194	-2.88197874	-27.74835594
3.02	302	-0.03	-0.721	-0.58	3.3804522	-56.9520252	-29.6792244	46.15749648	-3.04813656	-28.36715058
3.03	303	-0.024	-0.719	-0.578	3.7815228	-59.014674	-30.3094782	46.2377106	-3.22002396	-29.00886354
3.04	304	-0.018	-0.718	-0.564	4.1252976	-60.9054354	-30.3094782	46.3236543	-3.4091001	-29.66203566
3.05	305	-0.022	-0.716	-0.561	3.6096354	-62.6243094	-30.366774	46.41532758	-3.59817624	-30.33239652
3.06	306	-0.023	-0.709	-0.552	3.6669312	-64.1140002	-30.9970278	46.50127128	-3.79871154	-31.01994612
3.07	307	-0.028	-0.707	-0.546	3.0366774	-65.7755784	-31.8564648	46.59294456	-4.00497642	-31.71895488
3.08	308	-0.038	-0.694	-0.534	2.8074942	-67.2079734	-32.372127	46.67888826	-4.2112413	-32.44088196
3.09	309	-0.044	-0.684	-0.51	3.2658606	-68.9841432	-32.6013102	46.77629112	-4.42896534	-33.16853862
3.1	310	-0.054	-0.673	-0.495	2.7501984	-70.6457214	-33.0596766	46.87942356	-4.65241896	-33.9191136
3.11	311	-0.058	-0.671	-0.488	2.3491278	-71.2186794	-33.518043	46.97109684	-4.870143	-34.67541816
3.12	312	-0.053	-0.67	-0.479	1.3178034	-72.3645954	-33.4034514	47.06277012	-5.10505578	-35.44318188
3.13	313	-0.051	-0.66	-0.494	0.6302538	-73.5105114	-33.0023808	47.14871382	-5.33996856	-36.21667518
3.14	314	-0.046	-0.657	-0.465	1.145916	-74.48454	-32.5440144	47.24611668	-5.5863405	-36.99016848
3.15	315	-0.038	-0.647	-0.447	0.9167328	-75.6877518	-32.1429438	47.34351954	-5.8441716	-37.77512094
3.16	316	-0.037	-0.637	-0.447	0.2291832	-76.9482594	-31.6845774	47.4409224	-6.10773228	-38.56580298
3.17	317	-0.043	-0.638	-0.439	-0.1718874	-79.5838662	-31.226211	47.53832526	-6.39421128	-39.37367376
3.18	318	-0.049	-0.642	-0.447	-0.9740286	-82.2767688	-30.8251404	47.62999854	-6.7036086	-40.19873328
3.19	319	-0.047	-0.639	-0.431	-0.9740286	-85.1415588	-30.3094782	47.73313098	-7.02446508	-41.04671112
3.2	320	-0.046	-0.64	-0.422	-2.5210152	-87.8344614	-29.8511118	47.83053384	-7.36823988	-41.9118777
3.21	321	-0.037	-0.637	-0.428	-3.6669312	-89.6106312	-29.9084076	47.92220712	-7.72347384	-42.79423302
3.22	322	-0.031	-0.64	-0.415	-5.156622	-92.1889422	-29.9084076	48.00242124	-8.09589654	-43.69377708
3.23	323	-0.031	-0.648	-0.419	-6.875496	-93.678633	-29.8511118	48.07690578	-8.47404882	-44.6047803
3.24	324	-0.034	-0.656	-0.414	-6.875496	-94.4807742	-29.6219286	48.1571199	-8.86366026	-45.52724268
3.25	325	-0.035	-0.663	-0.421	-8.307891	-95.683986	-29.3927454	48.23733402	-9.2532717	-46.45543464
3.26	326	-0.052	-0.672	-0.424	-9.6256944	-96.7153104	-29.1062664	48.30608898	-9.6543423	-47.38935618
3.27	327	-0.054	-0.683	-0.423	-11.45916	-97.8612264	-28.4760126	48.36338478	-10.06687206	-48.33473688
3.28	328	-0.055	-0.687	-0.441	-13.1207382	-99.4655088	-27.8457588	48.40922142	-10.49086098	-49.28584716
3.29	329	-0.042	-0.682	-0.436	-14.4958374	-101.7573408	-27.2728008	48.45505806	-10.93776822	-50.25414618
3.3	330	-0.029	-0.679	-0.443	-15.5844576	-105.4815678	-26.7571386	48.50662428	-11.4018642	-51.2510931
3.31	331	-0.022	-0.676	-0.442	-16.4438946	-109.0912032	-26.5279554	48.56392008	-11.90033766	-52.27095834
3.32	332	-0.013	-0.67	-0.428	-16.6730778	-112.0705848	-26.6998428	48.62694546	-12.41027028	-53.31947148
3.33	333	-0.011	-0.674	-0.4	-16.8449652	-116.5396572	-26.9863218	48.71288916	-12.9488508	-54.41382126
3.34	334	-0.006	-0.681	-0.389	-17.5898106	-120.9514338	-27.0436176	48.80456244	-13.51034964	-55.53681894
3.35	335	-0.015	-0.678	-0.362	-18.048177	-125.2486188	-26.8717302	48.92488362	-14.0947668	-56.70565326
3.36	336	-0.022	-0.675	-0.348	-18.1627686	-129.0874374	-26.1841806	49.05093438	-14.70783186	-57.8974059
3.37	337	-0.036	-0.675	-0.343	-18.7930224	-132.6970728	-25.6685184	49.19417388	-15.34954482	-59.12353602
3.38	338	-0.053	-0.674	-0.332	-18.8503182	-135.6191586	-25.2674478	49.3603317	-16.00844652	-60.37258446
3.39	339	-0.058	-0.682	-0.32	-18.6784308	-137.2807368	-24.8090814	49.54367826	-16.6730778	-61.63882164
3.4	340	-0.066	-0.691	-0.325	-19.0795014	-138.8850192	-23.777757	49.74994314	-17.35489782	-62.92224756
3.41	341	-0.071	-0.702	-0.311	-19.0795014	-141.5779218	-22.2880662	49.97339676	-18.05963616	-64.22286222
3.42	342	-0.079	-0.702	-0.312	-19.7097552	-144.6145992	-20.5118964	50.20830954	-18.78729282	-65.54066562
3.43	343	-0.086	-0.694	-0.299	-19.4232762	-146.8491354	-19.1367972	50.46614064	-19.54359738	-66.88138734
3.44	344	-0.095	-0.684	-0.281	-19.194093	-148.7971926	-18.048177	50.75834922	-20.30563152	-68.2392978
3.45	345	-0.108	-0.672	-0.272	-18.7357266	-150.687954	-17.0741484	51.0792057	-21.07912482	-69.62012658
3.46	346	-0.122	-0.663	-0.244	-18.048177	-151.4327994	-15.9282324	51.4229805	-21.8583477	-71.00668494
3.47	347	-0.13	-0.645	-0.232	-17.5325148	-151.547391	-14.32395	51.7954032	-22.64902974	-72.39897288
3.48	348	-0.131	-0.624	-0.222	-16.7876694	-151.4327994	-12.7769634	52.19074422	-23.43971178	-73.7969904
3.49	349	-0.124	-0.609	-0.197	-15.2979786	-151.6046868	-11.5164558	52.62046272	-24.23039382	-75.2007375
3.5	350	-0.106	-0.586	-0.17	-13.8082878	-151.4900952	-10.313244	53.09601786	-25.01534628	-76.61021418
3.51	351	-0.094	-0.566	-0.15	-13.2926256	-152.3495322	-9.2246238	53.59449132	-25.8117579	-78.0368796
3.52	352	-0.085	-0.545	-0.132	-13.0061466	-152.7506028	-8.307891	54.1158831	-26.60243994	-79.48073376
3.53	353	-0.064	-0.523	-0.119	-13.0061466	-152.7506028	-7.8495246	54.66592278	-27.38166282	-80.93604708
3.54	354	-0.048	-0.502	-0.111	-12.605076	-152.8651944	-7.8495246	55.24461036	-28.15515612	-82.40854914
3.55	355	-0.056	-0.481	-0.096	-11.6310474	-152.0630532	-7.5057498	55.863405	-28.9057311	-83.89823994
3.56	356	-0.069	-0.441	-0.077	-10.3705398	-151.3755036	-5.9587632	56.51084754	-29.65630608	-85.38793074
3.57	357	-0.07	-0.39	-0.064	-9.3392154	-150.5733624	-2.7501984	57.17547882	-30.41261064	-86.87189196
3.58	358	-0.054	-0.338	-0.024	-6.8182002	-149.255559	0.1145916	57.88021716	-31.1689152	-88.34439402
3.59	359	-0.047	-0.305	-0.001	-3.6669312	-147.823164	2.1199446	58.63079214	-31.92521976	-89.81689608
3.6	360	-0.043	-0.271	0.028	-0.4583664	-147.3075018	3.724227	59.4443925	-32.66433558	-91.3008573
3.61	361	-0.047	-0.231	0.049	2.6356068	-147.250206	4.7555514	60.30955908	-33.4034514	-92.79627768
3.62	362	-0.044	-0.183	0.068	6.302538	-148.109643	5.8441716	61.24348062	-34.13110806	-94.32034596
3.63	363	-0.028	-0.148	0.113	10.9434978	-148.9117842	7.5630456	62.2518867	-34.85876472	-95.87306214
3.64	364	-0.001	-0.118	0.186	15.6417534	-147.8804598	9.9694692	63.32904774	-35.57496222	-97.4315079
3.65	365	0.009	-0.087	0.248	19.2513888	-144.2135286	11.0580894	64.46350458	-36.2682414	-98.9784945
3.66	366	0.012	-0.048	0.26	18.7357266	-140.8903722	10.4851314	65.59223184	-36.90995436	-100.5140219
3.67	367	0.002	-0.019	0.209	17.18874	-143.3540916	10.599723	66.749607	-37.54020816	-102.1068452
3.68	368	-0.036	-0.007	0.139	14.1520626	-149.1409674	12.032118	67.94708922	-38.18192112	-103.7913417
3.69	369	-0.137	0.006	0.092	13.4072172	-154.8132516	17.3033316	69.20186724	-38.85801156	-105.5503228
3.7	370	-0.217	-0.005	0.118	15.5844576	-154.5840684	24.5226024	70.49675232	-39.57993864	-107.3150334
3.71	371	-0.294	-0.079	0.089	7.5630456	-142.3227672	31.6272816	71.63693874	-40.29613614	-108.9365045
3.72	372	-0.361	-0.149	0.06	2.4637194	-116.1958824	38.1590028	72.52502364	-40.98368574	-110.2371192
3.73	373	-0.397	-0.213	-0.049	-6.9327918	-91.386801	48.3003594	73.1094408	-41.6826945	-111.2111478
3.74	374	-0.399	-0.25	-0.137	-17.5325148	-79.068204	61.1919144	73.47040434	-42.47337654	-111.9961003
3.75	375	-0.368	-0.258	-0.282	-27.501984	-80.0995284	74.771019	73.7110467	-43.39010934	-112.7524048
3.76	376	-0.258	-0.205	-0.413	-27.501984	-88.0636446	88.6938984	74.02044402	-44.4615408	-113.5889235
3.77	377	-0.107	-0.134	-0.49	-18.7357266	-108.4036536	102.1011156	74.62204992	-45.69913008	-114.6775437
3.78	378	0.079	0.027	-0.529	-2.005353	-139.5725688	108.6901326	75.7450476	-47.06277012	-116.2302599
3.79	379	0.225	0.221	-0.374	29.3927454	-176.5856556	105.7680468	77.68737522	-48.43213974	-118.4132299
3.8	380	0.247	0.209	-0.02	52.3683612	-204.3741186	104.7367224	80.31725244	-49.77859104	-121.1519691
3.81	381	0.091	0.006	0.114	49.7327544	-224.313057	114.018642	83.33101152	-51.15369024	-124.3548043
3.82	382	-0.328	-0.245	0.238	41.252976	-250.3253502	131.7230442	86.78594826	-52.5975444	-128.1764342
3.83	383	-0.91	-0.322	0.402	38.4454818	-266.0243994	149.0263758	90.70498098	-54.0585873	-132.5251854
3.84	384	-1.724	-0.385	0.477	40.4508348	-272.2696416	167.6475108	95.07665052	-55.50817104	-137.3208439
3.85	385	-2.452	-0.512	0.502	55.003968	-264.3055254	198.3580596	99.9238752	-57.04942806	-142.4316292
3.86	386	-3.535	-1.049	0.464	87.662574	-231.2458488	210.3328818	105.0747676	-58.5276597	-147.427823
3.87	387	-3.86	-1.306	0.79	109.6068654	-154.2975894	207.124317	109.6584316	-59.9887026	-151.438529
3.88	388	-3.984	-0.158	-0.006	111.6695142	-27.7311672	288.0832824	113.1420163	-62.54409528	-154.1142428
3.89	389	-3.999	-0.063	1.828	110.7527814	70.5311298	334.7793594	115.8120005	-65.86725168	-155.8331168
3.9	390	-3.994	0.395	2.2	83.8810512	-74.8283148	358.671708	122.3093443	-68.60026134	-161.9351195
3.91	391	-3.726	-0.227	1.372	122.3838288	-84.2821218	353.1713112	131.0068467	-70.89782292	-169.8591287
3.92	392	-3.19	0.24	1.494	105.0804972	-55.8061092	356.3225802	141.0106934	-72.94901256	-179.2384511
3.93	393	-3.662	0.826	2.226	240.9861348	-187.357266	354.7182978	156.3315903	-73.17819576	167.3381135
3.94	394	-3.106	1.179	1.366	191.1387888	-154.5267726	330.8259492	169.8075625	-72.66826314	155.3002659
3.95	395	-3.046	0.472	1.501	140.8330764	-127.1393802	306.0168678	-179.1467779	-71.65412748	145.2276643
3.96	396	-2.682	-0.711	1.53	33.518043	-109.8933444	260.6385942	-171.6352985	-70.3592424	137.6703482
3.97	397	-1.742	-1.142	1.656	-111.2684436	-84.6258966	201.7385118	-167.8537757	-69.16176018	132.4507009
3.98	398	-1.216	0.19	0.839	-162.4908888	-81.5319234	177.7888674	-165.6192395	-67.9528188	128.2967554
3.99	399	-1.144	0.132	0.571	-174.3511194	-76.6617804	143.4686832	-164.5707263	-66.82982112	125.260078
4	400	-1.255	0.394	0.431	-114.305121	-64.0567044	110.9819646	-163.7112893	-65.90735874	123.0656488
4.01	401	-1.182	0.29	0.46	-29.6792244	-67.895523	80.0422326	-162.788827	-65.030733	121.7363863
4.02	402	-0.804	0.373	0.417	-23.4339822	-81.8184024	47.2117392	-162.6226691	-64.12545936	121.3009382
4.03	403	-0.589	0.327	0.235	11.9175264	-81.8756982	13.0634424	-162.7716382	-63.32331816	121.6160651
4.04	404	-0.313	0.341	0.264	34.950438	-79.641162	-9.167328	-163.075306	-62.60712066	122.3609105
4.05	405	-0.337	0.615	0.263	30.080295	-82.5632478	-11.4018642	-163.3904329	-61.85654568	123.0885671
4.06	406	-0.169	0.581	0.263	35.0650296	-89.2095606	-8.59437	-163.6769119	-61.0486749	123.8391421
4.07	407	-0.238	0.53	0.321	29.3354496	-96.9444936	-9.9121734	-164.0550641	-60.16631958	124.6298242
4.08	408	-0.336	0.547	0.287	21.6005166	-100.26765	-5.9014674	-164.4274868	-59.23812762	125.3288329
4.09	409	-0.445	0.509	0.257	19.3659804	-101.2416786	-5.7868758	-164.79418	-58.2984765	125.9991938
4.1	410	-0.471	0.54	0.251	16.9595568	-102.0438198	-1.6615782	-165.0405519	-57.34163664	126.5320447
4.11	411	-0.522	0.586	0.211	15.9282324	-99.3509172	4.4117766	-165.229628	-56.38479678	126.9674928
4.12	412	-0.533	0.546	0.268	19.6524594	-95.970465	2.9220858	-165.367138	-55.47379356	127.3914817
4.13	413	-0.593	0.479	0.286	18.8503182	-92.3035338	-4.6982556	-165.5963212	-54.60862698	127.9128735
4.14	414	-0.54	0.304	0.299	19.2513888	-84.511305	-13.5791046	-165.8885297	-53.84086326	128.5316681
4.15	415	-0.558	0.272	0.293	15.5844576	-72.7083702	-26.1268848	-166.3067891	-53.21633904	129.2650544
4.16	416	-0.51	0.253	0.313	12.7769634	-63.6556338	-34.2628884	-166.8224513	-52.68921768	130.0843843
4.17	417	-0.491	0.293	0.344	10.599723	-60.9054354	-38.3308902	-167.3896797	-52.1964738	130.9438213
4.18	418	-0.516	0.267	0.422	2.9793816	-62.7961968	-39.1330314	-168.0256631	-51.67508202	131.8032583
4.19	419	-0.638	0.084	0.72	-56.5509546	-85.9437	-46.0085274	-169.3835735	-50.93023662	132.817394
4.2	420	-0.556	0.435	0.553	-89.381448	-119.2898556	-39.7632852	-170.9993151	-49.83015726	133.7685043
4.21	421	-0.485	0.415	0.616	-48.8160216	-129.488508	-26.4706596	-172.0363691	-48.60402714	134.5018905
4.22	422	-0.532	0.479	0.639	-22.0015872	-129.5458038	-19.4232762	-172.678082	-47.36070828	135.0920372
4.23	423	-0.592	0.42	0.808	-23.5485738	-125.0767314	-16.1001198	-173.2682288	-46.15749648	135.5962403
4.24	424	-0.7	0.362	0.841	-25.2674478	-125.191323	-12.4331886	-173.8068093	-44.94282552	136.0144996
4.25	425	-0.676	0.413	0.923	-30.2521824	-118.2585312	-12.032118	-174.356849	-43.78545036	136.3869223
4.26	426	-0.757	0.159	0.968	-34.8931422	-89.7252228	-14.037471	-174.929807	-42.9145542	136.7249675
4.27	427	-0.79	0.126	0.967	-48.5295426	-76.2607098	-15.0687954	-175.6230862	-42.17543838	137.0343649
4.28	428	-0.871	0.21	1	-53.4569814	-64.3431834	-16.329303	-176.3564724	-41.54518458	137.332303
4.29	429	-0.734	0.076	1.045	-59.4157446	-49.9619376	-18.1627686	-177.1414249	-41.05817028	137.618782
4.3	430	-0.732	0.126	0.991	-60.16059	-34.2055926	-20.2254174	-177.9378365	-40.71439548	137.9109906
4.31	431	-0.711	0.154	0.982	-52.8267276	-20.4546006	-22.4599536	-178.6712227	-40.51386018	138.2146583
4.32	432	-0.733	0.099	1.016	-41.7686382	-8.4797784	-19.0222056	-179.2556399	-40.42791648	138.4667599
4.33	433	-0.682	0.098	0.98	-30.8251404	0.572958	-13.0061466	-179.6796288	-40.42791648	138.6329177
4.34	434	-0.701	0.1	0.968	-22.345362	2.4637194	-11.2872726	179.9947557	-40.4508348	138.7761572
4.35	435	-0.733	0.059	0.98	-15.756345	5.2139178	-9.8548776	179.7598429	-40.49667144	138.9022079
4.36	436	-0.727	-0.007	0.984	-9.9694692	10.1986524	-8.4224826	179.5879555	-40.5940743	139.0053404
4.37	437	-0.723	-0.033	0.993	-0.1718874	14.037471	-6.4744254	179.5249301	-40.73158422	139.0855545
4.38	438	-0.736	-0.046	0.994	4.297185	14.2093584	-5.443101	179.5249301	-40.87482372	139.1543095
4.39	439	-0.702	-0.005	1.014	5.2712136	14.896908	-3.9534102	179.5421189	-41.0237928	139.2058757
4.4	440	-0.751	0.051	0.985	5.0420304	16.7303736	-6.016059	179.5478485	-41.17849146	139.2746306
4.41	441	-0.748	0.182	0.936	6.7036086	20.7410796	-13.6936962	179.4962822	-41.38475634	139.4522476
4.42	442	-0.675	0.031	0.912	5.6722842	26.5852512	-29.0489706	179.3014765	-41.64831702	139.8361295
4.43	443	-0.679	0.135	0.872	7.8495246	30.653253	-30.1948866	179.1124004	-41.94625518	140.2314705
4.44	444	-0.685	0.109	0.89	11.9748222	35.4088044	-46.0658232	178.8144622	-42.29002998	140.8445356
4.45	445	-0.647	0.003	0.854	11.745639	41.252976	-42.2270046	178.5509015	-42.685371	141.411764
4.46	446	-0.694	0.105	0.856	13.6936962	46.696077	-46.9252602	178.2472338	-43.13800782	142.0477474
4.47	447	-0.669	0.096	0.821	23.6058696	55.6342218	-52.0818822	177.9836731	-43.67658834	142.7639449
4.48	448	-0.641	0.061	0.815	22.91832	57.2385042	-55.863405	177.6685462	-44.22089844	143.5488973
4.49	449	-0.688	0.155	0.792	30.3094782	60.2178858	-56.0352924	177.4107151	-44.79958602	144.3453089
4.5	450	-0.636	0.144	0.74	43.6021038	61.9367598	-60.2751816	177.2330981	-45.38973276	145.2047459
4.51	451	-0.66	0.08	0.732	50.1911208	58.2698286	-62.5097178	177.0841291	-45.93977244	146.1214787
4.52	452	-0.702	-0.421	0.731	39.6486936	61.1919144	-54.3737142	176.8950529	-46.5241896	146.9236199
4.53	453	-0.709	0.204	0.704	22.0015872	63.4264506	-37.5860448	176.688788	-47.13152508	147.5023075
4.54	454	-0.689	0.099	0.697	37.4714532	64.5723666	-43.4875122	176.5684669	-47.75031972	148.1726684
4.55	455	-0.717	0.22	0.701	61.9940556	66.0620574	-38.5027776	176.7346247	-48.3863031	148.7800039
4.56	456	-0.727	-0.116	0.693	57.6968706	65.317212	-40.2216516	176.8320275	-49.0165569	149.4217168
4.57	457	-0.722	-0.315	0.673	12.0894138	66.5204238	-36.382833	176.4997119	-49.65826986	150.006134
4.58	458	-0.78	0.142	0.662	6.0733548	66.2912406	-28.0176462	176.1903146	-50.29425324	150.4759595
4.59	459	-0.824	0.198	0.617	37.1276784	65.2599162	-28.5906042	176.1788554	-50.92450704	150.9687034
4.6	460	-0.814	0.002	0.641	40.393539	68.1247062	-31.7418732	176.1444779	-51.58340874	151.5244727
4.61	461	-0.873	-0.046	0.599	40.966497	58.6708992	-31.3980984	176.1215596	-52.14490758	152.0687828
4.62	462	-1.102	0.197	0.553	42.9145542	66.9214944	-29.8511118	176.1215596	-52.79235012	152.6073633
4.63	463	-0.546	0.225	0.553	53.285094	65.603691	-31.5699858	176.1960442	-53.4283335	153.1745917
4.64	464	-0.353	-0.045	0.974	72.9948492	26.1268848	-24.2361234	176.5856556	-53.68043502	153.6100398
4.65	465	-0.902	-0.191	0.672	59.301153	33.4607472	-17.0168526	176.9007825	-54.00702108	153.9423554
4.66	466	-0.9	-0.134	0.535	41.825934	51.0505578	-14.6677248	177.0955882	-54.51122412	154.2231049
4.67	467	-0.829	0.003	0.519	32.8304934	54.6028974	-14.9542038	177.1929911	-55.04407506	154.5038543
4.68	468	-0.937	0.224	0.544	48.2430636	55.6915176	-10.3705398	177.5023884	-55.59411474	154.7101192
4.69	469	-0.927	0.085	0.649	52.7694318	54.9466722	-9.2819196	177.8805407	-56.14415442	154.8934657
4.7	470	-0.885	0.035	0.677	61.1346186	58.9573782	-7.9641162	178.3560958	-56.722842	155.053894
4.71	471	-0.977	0.037	0.641	49.7900502	63.7702254	-5.3285094	178.7686256	-57.35882538	155.1570264
4.72	472	-0.957	0.009	0.598	54.3737142	67.7809314	-3.4950438	179.2613695	-58.03491582	155.2200518
4.73	473	-0.88	-0.082	0.598	56.5509546	71.1040878	-1.2032118	179.8228683	-58.74538374	155.2257814
4.74	474	-0.853	-0.005	0.543	37.9871154	69.9581718	5.2712136	-179.6796288	-59.43866292	155.0882714
4.75	475	-0.864	-0.049	0.499	38.8465524	68.5257768	5.9014674	-179.1639666	-60.12621252	154.9335728
4.76	476	-0.811	-0.052	0.399	31.3980984	61.9367598	10.0840608	-178.6311157	-60.73927758	154.6757417
4.77	477	-0.67	-0.111	0.309	27.1009134	53.4569814	10.4851314	-178.121183	-61.26639894	154.4064514
4.78	478	-0.666	-0.109	0.288	16.902261	48.128472	10.3705398	-177.7143829	-61.7362245	154.125702
4.79	479	-0.634	-0.067	0.32	11.5164558	38.0444112	6.5317212	-177.4336334	-62.1086472	153.9366259
4.8	480	-0.716	0.054	0.365	13.2353298	25.4393352	5.5576926	-177.1471544	-62.3664783	153.7647385
4.81	481	-0.749	0.055	0.385	20.7410796	17.1314442	3.6096354	-176.8492163	-62.53263612	153.661606
4.82	482	-0.793	0.053	0.398	24.064236	10.8289062	3.724227	-176.5169006	-62.64149814	153.5642032
4.83	483	-0.851	0.058	0.428	26.8144344	4.1252976	5.156622	-176.1444779	-62.6816052	153.4496116
4.84	484	-0.888	0.075	0.452	29.1635622	-2.9793816	7.448454	-175.7147594	-62.6529573	153.2949129
4.85	485	-0.876	0.104	0.469	30.0229992	-10.4278356	9.2246238	-175.2334747	-62.5383657	153.1115663
4.86	486	-0.92	0.106	0.476	29.0489706	-12.0894138	8.4797784	-174.8094858	-62.41804452	152.9625973
4.87	487	-0.911	0.108	0.497	26.4706596	-11.2299768	8.307891	-174.4084152	-62.30345292	152.8193578
4.88	488	-0.909	0.11	0.496	21.6578124	-8.8235532	8.021412	-174.0589108	-62.21177964	152.6761183
4.89	489	-0.904	0.115	0.478	16.3865988	-5.2712136	7.9641162	-173.7609727	-62.15448384	152.5214196
4.9	490	-0.901	0.111	0.451	11.9748222	-3.2658606	7.6776372	-173.4630345	-62.12583594	152.3323435
4.91	491	-0.886	0.116	0.421	7.8495246	-3.6096354	7.9641162	-173.2395809	-62.0799993	152.1719152
4.92	492	-0.87	0.122	0.391	4.4690724	-5.0420304	7.9641162	-173.0619639	-62.0227035	152.0229461
4.93	493	-0.855	0.127	0.381	-0.7448454	-7.5057498	6.7609044	-172.964561	-61.9367598	151.902625
4.94	494	-0.846	0.131	0.378	-3.8961144	-9.0527364	4.9274388	-172.9359131	-61.84508652	151.8281404
4.95	495	-0.837	0.139	0.386	-5.7868758	-10.9434978	2.6356068	-172.9015357	-61.75341324	151.7421967
4.96	496	-0.836	0.142	0.398	-6.7609044	-13.5218088	-0.1145916	-173.0103977	-61.61590332	151.7880334
4.97	497	-0.846	0.101	0.42	-7.1046792	-16.902261	-1.2605076	-173.1479076	-61.4497455	151.8625179
4.98	498	-0.846	0.113	0.436	-7.6776372	-20.5691922	-0.5156622	-173.2854175	-61.2492102	151.9370024
4.99	499	-0.844	0.12	0.449	-7.734933	-23.0902074	-1.2032118	-173.4401162	-61.02575658	152.0286757
5	500	-0.842	0.121	0.469	-7.8495246	-25.0382646	-1.8907614	-173.5833557	-60.77938464	152.1088898
5.01	501	-0.84	0.115	0.483	-7.9641162	-27.501984	-2.6929026	-173.7781614	-60.51582396	152.2406702
5.02	502	-0.844	0.114	0.501	-7.8495246	-28.6479	-3.0939732	-173.9729671	-60.23507454	152.3781801
5.03	503	-0.843	0.112	0.514	-7.9641162	-28.361421	-3.3804522	-174.1735024	-59.9600547	152.5214196
5.04	504	-0.848	0.112	0.537	-8.1932994	-27.0436176	-3.9534102	-174.3740377	-59.69649402	152.6646591
5.05	505	-0.849	0.119	0.566	-8.5370742	-25.4393352	-4.010706	-174.5573843	-59.43293334	152.7849803
5.06	506	-0.868	0.099	0.573	-9.2246238	-24.6944898	-4.3544808	-174.7693787	-59.19229098	152.9282198
5.07	507	-0.86	0.105	0.573	-8.7089616	-21.8869956	-5.0420304	-174.9813732	-58.98029652	153.0714593
5.08	508	-0.877	0.097	0.592	-7.3911582	-20.2827132	-4.870143	-175.1704493	-58.7854908	153.2089692
5.09	509	-0.873	0.1	0.599	-6.2452422	-17.9908812	-4.870143	-175.3423367	-58.6136034	153.3407495
5.1	510	-0.887	0.102	0.597	-5.0993262	-15.6990492	-4.5263682	-175.4683875	-58.44744558	153.4381524
5.11	511	-0.885	0.102	0.597	-4.010706	-13.6936962	-4.4117766	-175.6001678	-58.31566524	153.5470144
5.12	512	-0.886	0.094	0.589	-3.437748	-11.4018642	-4.4117766	-175.7262186	-58.20680322	153.6558764
5.13	513	-0.885	0.1	0.584	-2.578311	-9.5683986	-4.0680018	-175.829351	-58.11512994	153.7475497
5.14	514	-0.892	0.086	0.563	-1.3750992	-6.0733548	-4.0680018	-175.9210243	-58.05783414	153.8334934
5.15	515	-0.869	0.096	0.568	-0.4583664	-4.3544808	-3.3231564	-175.8809173	-57.99480876	153.8220343
5.16	516	-0.86	0.102	0.568	1.2032118	-4.0680018	-2.6356068	-175.9152947	-57.9547017	153.8793301
5.17	517	-0.866	0.092	0.548	3.5523396	-2.3491278	-2.5210152	-175.9267539	-57.93178338	153.9308963
5.18	518	-0.851	0.093	0.547	3.3804522	-1.7761698	-2.1772404	-175.9267539	-57.92032422	153.9767329
5.19	519	-0.853	0.093	0.544	3.3231564	-2.6356068	-2.2345362	-175.9324835	-57.89167632	154.0225696
5.2	520	-0.845	0.103	0.546	2.9793816	-3.6669312	-1.9480572	-175.8465398	-57.85156926	153.9881921
5.21	521	-0.844	0.097	0.544	2.7501984	-4.4117766	-2.2345362	-175.8579989	-57.8114622	154.0397583
5.22	522	-0.838	0.096	0.543	1.718874	-4.9274388	-2.4064236	-175.8866468	-57.76562556	154.0913245
5.23	523	-0.834	0.095	0.541	0.4010706	-4.870143	-2.5210152	-175.9324835	-57.71978892	154.1486203
5.24	524	-0.838	0.092	0.542	-0.6302538	-4.297185	-2.6929026	-175.9840497	-57.67395228	154.2059161
5.25	525	-0.835	0.09	0.54	-0.9740286	-3.0939732	-2.7501984	-175.9496722	-57.64530438	154.1887274
5.26	526	-0.838	0.089	0.533	-1.432395	-2.6356068	-2.8074942	-176.0126976	-57.62238606	154.2402936
5.27	527	-0.834	0.089	0.536	-1.3750992	-2.86479	-2.6929026	-176.075723	-57.59373816	154.2975894
5.28	528	-0.834	0.087	0.54	-1.3750992	-2.8074942	-2.5210152	-176.1330188	-57.56509026	154.3491556
5.29	529	-0.835	0.085	0.55	-1.2605076	-2.005353	-2.1772404	-176.1788554	-57.54790152	154.3949923
5.3	530	-0.839	0.087	0.555	-0.9167328	-1.4896908	-1.8907614	-176.0528047	-57.50206488	154.2918598
5.31	531	-0.844	0.087	0.559	-0.4583664	-1.0886202	-1.4896908	-176.0871821	-57.4963353	154.3205077
5.32	532	-0.846	0.088	0.561	0	-0.6302538	-1.0886202	-176.1043709	-57.49060572	154.343426
5.33	533	-0.85	0.086	0.564	0.6875496	0.0572958	-0.4583664	-176.1043709	-57.49060572	154.3548852
5.34	534	-0.851	0.082	0.561	1.3750992	0.8021412	0	-176.0871821	-57.4963353	154.3548852
5.35	535	-0.846	0.087	0.554	1.9480572	1.6615782	0.6875496	-175.9382131	-57.50206488	154.2402936
5.36	536	-0.844	0.086	0.548	2.1772404	2.578311	1.0886202	-175.8923764	-57.5249832	154.2116457
5.37	537	-0.841	0.089	0.546	2.291832	3.3231564	1.432395	-175.8465398	-57.55936068	154.1829978
5.38	538	-0.841	0.09	0.544	2.291832	3.3231564	1.432395	-175.7949736	-57.58800858	154.1486203
5.39	539	-0.839	0.093	0.543	2.0626488	3.2085648	1.432395	-175.7434073	-57.62238606	154.1142428
5.4	540	-0.837	0.093	0.541	2.1199446	3.0939732	1.3750992	-175.5944383	-57.64530438	153.9939217
5.41	541	-0.84	0.093	0.543	2.578311	2.3491278	1.2032118	-175.542872	-57.6682227	153.9652738
5.42	542	-0.843	0.092	0.545	3.0366774	1.7761698	1.2032118	-175.4913058	-57.68541144	153.9423554
5.43	543	-0.845	0.093	0.547	3.437748	1.6615782	1.2032118	-175.43401	-57.6968706	153.9137075
5.44	544	-0.848	0.095	0.55	3.4950438	1.7761698	1.0886202	-175.3767142	-57.71405934	153.8907892
5.45	545	-0.849	0.097	0.548	3.4950438	1.9480572	0.9740286	-175.216286	-57.7255185	153.7819272
5.46	546	-0.85	0.099	0.542	3.6096354	1.8907614	0.7448454	-175.1647198	-57.74270724	153.7647385
5.47	547	-0.85	0.099	0.542	3.6096354	1.3178034	0.5156622	-175.1188831	-57.75989598	153.7532793
5.48	548	-0.851	0.1	0.542	3.5523396	1.0313244	0.2291832	-175.0787761	-57.77135514	153.7475497
5.49	549	-0.849	0.101	0.54	3.2658606	0.9740286	-0.0572958	-175.0443986	-57.77708472	153.7475497
5.5	550	-0.849	0.101	0.535	3.0939732	0.859437	-0.4010706	-174.8553224	-57.78854388	153.6157694
5.51	551	-0.846	0.101	0.533	2.5210152	0.6302538	-0.6875496	-174.8438633	-57.80000304	153.6272285
5.52	552	-0.848	0.102	0.533	2.0626488	0.4583664	-0.9740286	-174.8381337	-57.80573262	153.6444173
5.53	553	-0.843	0.099	0.533	1.6615782	0.2291832	-1.3178034	-174.8381337	-57.80573262	153.6730652
5.54	554	-0.843	0.103	0.536	1.6615782	-0.3437748	-1.3750992	-174.8438633	-57.80573262	153.6959835
5.55	555	-0.843	0.101	0.538	2.1199446	-0.7448454	-1.432395	-174.7006238	-57.80000304	153.6043102
5.56	556	-0.839	0.1	0.534	0.8021412	-0.9167328	-1.6042824	-174.7178125	-57.78854388	153.6329581
5.57	557	-0.836	0.098	0.536	0.1145916	-1.5469866	-1.8334656	-174.75219	-57.77708472	153.6730652
5.58	558	-0.836	0.097	0.538	-0.1145916	-2.291832	-2.005353	-174.7865675	-57.7541664	153.7131722
5.59	559	-0.839	0.095	0.539	-0.4583664	-2.6929026	-2.005353	-174.8266745	-57.73124808	153.7590089
5.6	560	-0.842	0.093	0.541	-0.5156622	-2.9220858	-1.8334656	-174.7636492	-57.6968706	153.7074427
5.61	561	-0.845	0.092	0.544	-0.3437748	-3.2085648	-1.4896908	-174.7980266	-57.66249312	153.7475497
5.62	562	-0.846	0.093	0.55	-0.3437748	-3.0939732	-1.3178034	-174.8266745	-57.63384522	153.7761976
5.63	563	-0.848	0.092	0.552	-0.1718874	-2.6929026	-1.0886202	-174.8495929	-57.6109269	153.8048455
5.64	564	-0.847	0.092	0.553	0	-2.291832	-0.9740286	-174.8667816	-57.58800858	153.8277638
5.65	565	-0.846	0.092	0.554	0	-1.7761698	-0.859437	-174.6605167	-57.53071278	153.661606
5.66	566	-0.847	0.092	0.554	0.2291832	-1.2605076	-0.6875496	-174.6719759	-57.51925362	153.6787948
5.67	567	-0.849	0.093	0.553	0.4583664	-0.7448454	-0.572958	-174.6777055	-57.51352404	153.6902539
5.68	568	-0.848	0.093	0.554	0.6302538	-0.4010706	-0.4010706	-174.683435	-57.51352404	153.6959835
5.69	569	-0.85	0.093	0.554	0.9167328	-0.1718874	-0.1145916	-174.6719759	-57.50779446	153.7017131
5.7	570	-0.85	0.093	0.553	1.2032118	0	0	-174.356849	-57.47341698	153.4496116
5.71	571	-0.848	0.094	0.548	1.3178034	0.286479	0.1718874	-174.3396602	-57.47341698	153.443882
5.72	572	-0.847	0.095	0.545	1.3750992	0.4010706	0.2291832	-174.3224715	-57.47914656	153.4381524
5.73	573	-0.843	0.095	0.541	1.432395	0.5156622	0.2291832	-174.2995532	-57.48487614	153.4324228
5.74	574	-0.843	0.095	0.537	1.4896908	0.3437748	0.2291832	-174.2823644	-57.48487614	153.4266932
5.75	575	-0.842	0.097	0.537	1.6042824	0	0.1718874	-173.9844263	-57.49060572	153.1860509
5.76	576	-0.841	0.096	0.54	1.5469866	-0.2291832	0.0572958	-173.9672375	-57.48487614	153.1860509
5.77	577	-0.84	0.097	0.539	1.4896908	-0.4010706	0	-173.9557784	-57.48487614	153.1917805
5.78	578	-0.841	0.098	0.54	1.2605076	-0.572958	-0.1718874	-173.9443192	-57.47914656	153.1917805
5.79	579	-0.841	0.098	0.541	1.0886202	-0.6875496	-0.286479	-173.9385896	-57.4676874	153.2032396
5.8	580	-0.841	0.097	0.544	0.9167328	-0.8021412	-0.4010706	-173.7552431	-57.44476908	153.0542705
5.81	581	-0.841	0.096	0.547	0.6875496	-0.572958	-0.4583664	-173.7552431	-57.4390395	153.0657297
5.82	582	-0.84	0.096	0.549	0.4010706	0.1718874	-0.4583664	-173.7552431	-57.4390395	153.0771889
5.83	583	-0.842	0.096	0.548	0.4010706	0.572958	-0.4583664	-173.7609727	-57.44476908	153.0829184
5.84	584	-0.843	0.095	0.545	0.4583664	0.572958	-0.3437748	-173.7609727	-57.45622824	153.088648
5.85	585	-0.843	0.096	0.548	0.4583664	0.8021412	-0.286479	-173.5547078	-57.43330992	152.9224902
5.86	586	-0.846	0.096	0.55	0.4583664	1.2032118	-0.1718874	-173.5489782	-57.44476908	152.9224902
5.87	587	-0.846	0.096	0.55	0.5156622	1.3178034	-0.2291832	-173.5432486	-57.45622824	152.9224902
5.88	588	-0.844	0.095	0.547	0.4583664	1.6615782	-0.2291832	-173.537519	-57.47341698	152.9224902
5.89	589	-0.847	0.095	0.546	0.6875496	1.8907614	-0.0572958	-173.5317895	-57.49060572	152.9167606
5.9	590	-0.848	0.096	0.546	0.8021412	1.7761698	-0.1718874	-173.3828204	-57.50206488	152.802169
5.91	591	-0.847	0.097	0.546	0.9167328	1.6042824	-0.1145916	-173.3713612	-57.51352404	152.802169
5.92	592	-0.849	0.097	0.547	0.9740286	1.6042824	-0.1145916	-173.3599021	-57.53071278	152.802169
5.93	593	-0.849	0.096	0.548	1.145916	1.4896908	-0.1145916	-173.3484429	-57.54790152	152.7964394
5.94	594	-0.851	0.096	0.548	1.2032118	1.6615782	-0.0572958	-173.3312542	-57.56509026	152.7964394
5.95	595	-0.85	0.097	0.546	1.3178034	1.6615782	0	-173.2166626	-57.57081984	152.7047662
5.96	596	-0.848	0.097	0.545	1.2605076	1.718874	0	-173.1994738	-57.58800858	152.6990366
5.97	597	-0.848	0.097	0.544	1.0886202	1.8334656	-0.0572958	-173.1822851	-57.60519732	152.6990366
5.98	598	-0.848	0.098	0.543	1.145916	1.8334656	-0.1145916	-173.1708259	-57.62811564	152.6990366
5.99	599	-0.847	0.097	0.541	1.145916	1.6042824	-0.1718874	-173.1593668	-57.6395748	152.693307
6	600	-0.846	0.098	0.539	0.9740286	1.432395	-0.2291832	-173.0161273	-57.65103396	152.584445
6.01	601	-0.846	0.097	0.538	0.8021412	1.2605076	-0.286479	-173.0103977	-57.66249312	152.584445
6.02	602	-0.845	0.098	0.536	0.8021412	0.9740286	-0.286479	-173.0046681	-57.67395228	152.5901746
6.03	603	-0.845	0.097	0.537	0.6875496	0.6875496	-0.286479	-172.9989385	-57.68541144	152.5901746
6.04	604	-0.846	0.097	0.538	0.6875496	0.3437748	-0.3437748	-172.9989385	-57.68541144	152.5959041
6.05	605	-0.846	0.098	0.538	0.572958	0.2291832	-0.4583664	-172.7296483	-57.67395228	152.3781801
6.06	606	-0.847	0.098	0.538	0.5156622	0.0572958	-0.5156622	-172.7353778	-57.67968186	152.3896393
6.07	607	-0.847	0.097	0.54	0.5156622	0	-0.6302538	-172.7353778	-57.67968186	152.4010984
6.08	608	-0.847	0.097	0.542	0.572958	0.286479	-0.6302538	-172.7411074	-57.67968186	152.4125576
6.09	609	-0.848	0.095	0.542	0.6875496	0.5156622	-0.4583664	-172.7411074	-57.68541144	152.4240167
6.1	610	-0.847	0.097	0.537	0.8021412	0.3437748	-0.4010706	-172.5921383	-57.68541144	152.3094251
6.11	611	-0.847	0.098	0.537	0.6302538	0.2291832	-0.6302538	-172.5978679	-57.69114102	152.3151547
6.12	612	-0.846	0.095	0.538	0.572958	0.1718874	-0.6302538	-172.5978679	-57.69114102	152.3323435
6.13	613	-0.846	0.095	0.541	0.6875496	0.2291832	-0.572958	-172.6035975	-57.6968706	152.338073
6.14	614	-0.846	0.096	0.543	0.7448454	0.572958	-0.4583664	-172.6035975	-57.70260018	152.3495322
6.15	615	-0.848	0.096	0.543	0.859437	0.6875496	-0.3437748	-172.4890059	-57.70260018	152.2635885
6.16	616	-0.85	0.096	0.54	0.9740286	0.6875496	-0.2291832	-172.4775467	-57.70832976	152.2635885
6.17	617	-0.848	0.096	0.539	1.2032118	0.3437748	-0.0572958	-172.4660876	-57.71405934	152.2635885
6.18	618	-0.848	0.097	0.54	1.2605076	0.2291832	0	-172.4546284	-57.71405934	152.2635885
6.19	619	-0.847	0.096	0.543	1.0886202	0.572958	0	-172.4431693	-57.71978892	152.2635885
6.2	620	-0.848	0.096	0.543	1.0886202	1.0313244	0.286479	-172.351496	-57.71978892	152.189104
6.21	621	-0.848	0.097	0.54	1.0886202	1.5469866	0.286479	-172.3285777	-57.73124808	152.1833744
6.22	622	-0.85	0.098	0.539	1.0886202	1.7761698	0.286479	-172.3113889	-57.7541664	152.1719152
6.23	623	-0.85	0.098	0.539	0.9740286	1.8334656	0.2291832	-172.2884706	-57.77135514	152.1604561
6.24	624	-0.849	0.099	0.539	0.9740286	1.8907614	0.2291832	-172.2712819	-57.78854388	152.1489969
6.25	625	-0.85	0.099	0.537	0.9167328	2.0626488	0.1718874	-172.1853382	-57.80573262	152.0802419
6.26	626	-0.85	0.099	0.537	0.859437	1.8907614	0.1145916	-172.1681494	-57.82292136	152.0745124
6.27	627	-0.851	0.099	0.537	0.859437	1.7761698	0.0572958	-172.1509607	-57.8401101	152.0630532
6.28	628	-0.85	0.099	0.537	1.0313244	1.5469866	0	-172.1395015	-57.85729884	152.0573236
6.29	629	-0.85	0.099	0.539	1.0886202	1.432395	0	-172.1223128	-57.87448758	152.0573236
6.3	630	-0.85	0.099	0.537	1.145916	1.5469866	0	-172.0249099	-57.88021716	151.9771095
6.31	631	-0.85	0.1	0.536	1.2032118	1.432395	-0.0572958	-172.0077212	-57.8974059	151.9771095
6.32	632	-0.85	0.1	0.533	1.0886202	1.3750992	-0.1145916	-171.996262	-57.90886506	151.9771095
6.33	633	-0.848	0.1	0.533	1.0313244	1.2605076	-0.2291832	-171.9905324	-57.9260538	151.9771095
6.34	634	-0.848	0.099	0.532	1.0886202	1.0886202	-0.3437748	-171.9790733	-57.93751296	151.9771095
6.35	635	-0.849	0.101	0.533	0.9740286	1.145916	-0.4010706	-171.8874	-57.94324254	151.9083545
6.36	636	-0.849	0.1	0.536	0.9740286	1.0886202	-0.4583664	-171.8816704	-57.9547017	151.9198137
6.37	637	-0.849	0.1	0.535	0.9740286	1.0886202	-0.572958	-171.8759408	-57.96616086	151.9255433
6.38	638	-0.849	0.099	0.536	1.0313244	1.0886202	-0.6302538	-171.8759408	-57.97762002	151.9312729
6.39	639	-0.851	0.099	0.534	1.0886202	1.0313244	-0.4010706	-171.8702113	-57.98907918	151.9370024
6.4	640	-0.85	0.099	0.534	1.0886202	1.0886202	-0.4010706	-171.778538	-57.99480876	151.8739771
6.41	641	-0.851	0.099	0.533	0.9740286	1.0313244	-0.4010706	-171.7728084	-58.00626792	151.8797066
6.42	642	-0.853	0.101	0.532	0.859437	0.9740286	-0.4583664	-171.7728084	-58.01772708	151.8854362
6.43	643	-0.851	0.099	0.532	0.859437	0.859437	-0.6302538	-171.7670788	-58.02918624	151.8911658
6.44	644	-0.852	0.1	0.534	0.859437	0.859437	-0.6875496	-171.7670788	-58.03491582	151.902625
6.45	645	-0.851	0.097	0.533	1.0886202	1.0313244	-0.572958	-171.7040534	-58.04637498	151.8625179
6.46	646	-0.85	0.099	0.53	1.2605076	0.6875496	-0.4583664	-171.6983239	-58.05210456	151.8682475
6.47	647	-0.849	0.098	0.529	1.2605076	0.3437748	-0.4583664	-171.6925943	-58.05783414	151.8739771
6.48	648	-0.849	0.098	0.532	1.3178034	0.1145916	-0.4010706	-171.6868647	-58.05783414	151.8854362
6.49	649	-0.851	0.099	0.534	1.2605076	0	-0.3437748	-171.6754055	-58.06356372	151.8911658
6.5	650	-0.851	0.099	0.533	1.2605076	0.1718874	-0.2291832	-171.5665435	-58.05783414	151.8052221
6.51	651	-0.85	0.099	0.53	1.2605076	0.1145916	-0.286479	-171.5550844	-58.05783414	151.8109517
6.52	652	-0.851	0.1	0.529	1.2605076	0	-0.286479	-171.5493548	-58.05783414	151.8166813
6.53	653	-0.852	0.101	0.528	1.0886202	-0.3437748	-0.4583664	-171.5436252	-58.05783414	151.8281404
6.54	654	-0.853	0.101	0.527	0.9167328	-0.5156622	-0.5156622	-171.5436252	-58.05210456	151.8395996
6.55	655	-0.851	0.102	0.53	0.9167328	-0.8021412	-0.5156622	-171.4805998	-58.0406454	151.7994925
6.56	656	-0.853	0.1	0.532	0.6875496	-1.0886202	-0.6302538	-171.4863294	-58.03491582	151.8166813
6.57	657	-0.851	0.099	0.533	0.6875496	-0.9740286	-0.6875496	-171.4977886	-58.02345666	151.83387
6.58	658	-0.852	0.101	0.53	0.572958	-1.0313244	-0.7448454	-171.5035181	-58.01772708	151.8510587
6.59	659	-0.851	0.101	0.532	0.4010706	-1.145916	-0.9740286	-171.5207069	-58.00626792	151.8739771
6.6	660	-0.851	0.1	0.533	0.4010706	-1.2032118	-1.145916	-171.4748702	-58.00053834	151.8453292
6.61	661	-0.852	0.1	0.532	0.4583664	-1.2605076	-1.0886202	-171.492059	-57.98907918	151.8682475
6.62	662	-0.851	0.1	0.535	0.4010706	-1.3178034	-1.145916	-171.5092477	-57.97762002	151.8968954
6.63	663	-0.852	0.1	0.535	0.3437748	-1.2605076	-1.2605076	-171.5264365	-57.96616086	151.9255433
6.64	664	-0.85	0.099	0.534	0.3437748	-1.2032118	-1.3178034	-171.5493548	-57.9547017	151.9541912
6.65	665	-0.85	0.099	0.536	0.286479	-1.2032118	-1.3750992	-171.5207069	-57.94324254	151.942732
6.66	666	-0.85	0.099	0.534	0.3437748	-1.0886202	-1.432395	-171.5436252	-57.93178338	151.9713799
6.67	667	-0.85	0.098	0.536	0.4010706	-1.0313244	-1.432395	-171.5665435	-57.9260538	152.0000278
6.68	668	-0.852	0.098	0.536	0.286479	-0.9167328	-1.4896908	-171.5894618	-57.92032422	152.0344053
6.69	669	-0.852	0.098	0.536	0.4010706	-0.859437	-1.4896908	-171.6123802	-57.91459464	152.0630532
6.7	670	-0.852	0.098	0.537	0.4583664	-0.9167328	-1.432395	-171.5780027	-57.8974059	152.0458645
6.71	671	-0.852	0.097	0.538	0.4583664	-0.7448454	-1.4896908	-171.5951914	-57.89167632	152.0802419
6.72	672	-0.852	0.098	0.537	0.4583664	-0.572958	-1.4896908	-171.6181097	-57.89167632	152.1088898
6.73	673	-0.851	0.096	0.536	0.5156622	-0.5156622	-1.4896908	-171.6352985	-57.88594674	152.1375377
6.74	674	-0.851	0.095	0.535	0.6875496	-0.4583664	-1.432395	-171.6524872	-57.88594674	152.1661856
6.75	675	-0.851	0.096	0.537	0.7448454	-0.4583664	-1.2605076	-171.6181097	-57.88021716	152.1489969
6.76	676	-0.851	0.097	0.534	0.859437	-0.4583664	-1.145916	-171.6295689	-57.88021716	152.1719152
6.77	677	-0.851	0.096	0.536	0.9740286	-0.3437748	-1.0886202	-171.6352985	-57.87448758	152.1948335
6.78	678	-0.851	0.096	0.536	0.859437	-0.2291832	-1.145916	-171.6467576	-57.87448758	152.2177519
6.79	679	-0.849	0.097	0.535	0.7448454	0	-1.2032118	-171.6582168	-57.88021716	152.2406702
6.8	680	-0.849	0.097	0.535	0.572958	-0.0572958	-1.145916	-171.5894618	-57.88021716	152.1948335
6.81	681	-0.849	0.095	0.535	0.572958	0	-1.145916	-171.600921	-57.88021716	152.2177519
6.82	682	-0.85	0.096	0.537	0.572958	0	-1.0886202	-171.6181097	-57.88021716	152.2349406
6.83	683	-0.851	0.096	0.537	0.6302538	0.0572958	-1.0886202	-171.6238393	-57.88594674	152.2578589
6.84	684	-0.851	0.096	0.536	0.6302538	0.0572958	-1.0313244	-171.6352985	-57.88594674	152.2807772
6.85	685	-0.851	0.096	0.535	0.6302538	0.2291832	-1.0313244	-171.5894618	-57.88594674	152.2463998
6.86	686	-0.85	0.096	0.534	0.6302538	0.1145916	-1.0886202	-171.600921	-57.89167632	152.2693181
6.87	687	-0.85	0.097	0.535	0.572958	0.286479	-1.145916	-171.6123802	-57.8974059	152.2922364
6.88	688	-0.851	0.096	0.534	0.7448454	0.4010706	-1.0886202	-171.6181097	-57.90313548	152.3094251
6.89	689	-0.85	0.095	0.534	0.7448454	0.4010706	-1.0886202	-171.6295689	-57.90886506	152.3266139
6.9	690	-0.852	0.094	0.535	0.859437	0.5156622	-1.0313244	-171.5894618	-57.91459464	152.3036956
6.91	691	-0.854	0.097	0.536	0.9167328	0.6302538	-0.9167328	-171.5894618	-57.92032422	152.3208843
6.92	692	-0.852	0.097	0.537	0.9167328	0.6875496	-1.0313244	-171.5951914	-57.93178338	152.338073
6.93	693	-0.854	0.097	0.536	1.0313244	0.6875496	-1.0886202	-171.600921	-57.94324254	152.3552618
6.94	694	-0.854	0.096	0.537	1.145916	0.6875496	-1.0886202	-171.6066506	-57.94897212	152.3781801
6.95	695	-0.854	0.095	0.534	1.2605076	0.6875496	-1.145916	-171.5722731	-57.96043128	152.3667209
6.96	696	-0.852	0.095	0.534	1.432395	0.6875496	-1.145916	-171.5780027	-57.96616086	152.3839097
6.97	697	-0.852	0.095	0.535	1.3750992	0.6875496	-1.2605076	-171.5780027	-57.97762002	152.406828
6.98	698	-0.852	0.095	0.534	1.3750992	0.8021412	-1.2605076	-171.5837323	-57.98907918	152.4297463
