TimeStamp(s)	FrameCounter	AccX	AccY	AccZ	GyrX	GyrY	GyrZ	EulerX	EulerY	EulerZ
0.01	1	-0.059	-0.996	-0.043	-0.2291832	0.286479	-2.9220858	87.43912038	-3.93622146	-19.84153554
0.02	2	-0.041	-0.989	-0.065	0.6875496	2.1772404	-4.9847346	87.44484996	-3.88465524	-19.81861722
0.03	3	-0.036	-0.988	-0.066	0.9740286	2.8074942	-4.297185	87.45057954	-3.8388186	-19.7956989
0.04	4	-0.03	-0.989	-0.061	1.0886202	2.7501984	-3.7815228	87.4620387	-3.80444112	-19.767051
0.05	5	-0.023	-0.997	-0.061	0.7448454	2.1199446	-3.6669312	87.44484996	-3.72995658	-19.75559184
0.06	6	-0.022	-0.997	-0.058	0.6302538	1.4896908	-3.7815228	87.45057954	-3.68984952	-19.74413268
0.07	7	-0.023	-0.992	-0.055	0.6302538	1.2032118	-4.1252976	87.45630912	-3.64974246	-19.73267352
0.08	8	-0.023	-0.99	-0.055	0.9167328	1.8334656	-4.2398892	87.4620387	-3.6096354	-19.71548478
0.09	9	-0.015	-0.988	-0.053	1.2032118	2.7501984	-3.8961144	87.47349786	-3.56952834	-19.69256646
0.1	10	-0.013	-0.989	-0.049	1.0313244	2.6929026	-3.3231564	87.4620387	-3.50077338	-19.67537772
0.11	11	-0.011	-0.987	-0.049	0.1718874	1.7761698	-3.2085648	87.4620387	-3.4663959	-19.65818898
0.12	12	-0.023	-0.987	-0.049	-0.286479	1.4896908	-3.6669312	87.4620387	-3.42628884	-19.64672982
0.13	13	-0.031	-1	-0.047	-0.7448454	1.6615782	-4.3544808	87.45057954	-3.38618178	-19.62954108
0.14	14	-0.021	-1.016	-0.048	-1.3178034	2.578311	-4.870143	87.4333908	-3.33461556	-19.60662276
0.15	15	-0.012	-1.025	-0.056	-1.2032118	3.2085648	-4.9847346	87.4047429	-3.26013102	-19.58370444
0.16	16	-0.004	-1.03	-0.061	-0.859437	3.8961144	-5.0993262	87.39328374	-3.2085648	-19.54932696
0.17	17	0.007	-1.033	-0.06	-0.572958	3.6096354	-4.8128472	87.38755416	-3.16272816	-19.51494948
0.18	18	0.018	-1.029	-0.062	-0.9740286	3.437748	-4.583664	87.37036542	-3.11116194	-19.480572
0.19	19	0.028	-1.028	-0.061	-1.2032118	3.151269	-4.5263682	87.35890626	-3.0653253	-19.4519241
0.2	20	0.034	-1.022	-0.063	-1.6042824	3.0939732	-4.6409598	87.32452878	-2.9793816	-19.44046494
0.21	21	0.038	-1.017	-0.065	-1.9480572	3.2658606	-4.6409598	87.30161046	-2.92781538	-19.40608746
0.22	22	0.043	-1.013	-0.06	-2.1772404	3.151269	-4.297185	87.27869214	-2.88770832	-19.37743956
0.23	23	0.045	-1.009	-0.059	-2.1772404	2.9220858	-3.9534102	87.25004424	-2.84760126	-19.34879166
0.24	24	0.043	-1.008	-0.053	-2.0626488	2.6929026	-3.724227	87.22712592	-2.8074942	-19.32587334
0.25	25	0.045	-1.011	-0.046	-2.6356068	2.291832	-3.6669312	87.19274844	-2.7215505	-19.32014376
0.26	26	0.046	-1.016	-0.042	-3.3804522	1.8334656	-3.8961144	87.15837096	-2.68144344	-19.30295502
0.27	27	0.049	-1.021	-0.044	-4.4117766	2.005353	-4.2398892	87.11253432	-2.6356068	-19.28576628
0.28	28	0.045	-1.022	-0.05	-5.5003968	2.8074942	-4.583664	87.05523852	-2.58977016	-19.26284796
0.29	29	0.044	-1.018	-0.057	-6.4171296	3.724227	-4.8128472	86.98648356	-2.54393352	-19.22847048
0.3	30	0.04	-1.013	-0.063	-7.3911582	5.3858052	-4.6409598	86.90053986	-2.47517856	-19.18263384
0.31	31	0.037	-1.011	-0.069	-7.3911582	6.589017	-4.0680018	86.82032574	-2.42934192	-19.11960846
0.32	32	0.038	-1.009	-0.064	-6.8182002	6.9900876	-3.2658606	86.7458412	-2.39496444	-19.05658308
0.33	33	0.038	-1.006	-0.058	-6.1306506	6.9327918	-2.5210152	86.68281582	-2.37204612	-18.98782812
0.34	34	0.042	-1.003	-0.051	-5.6149884	6.875496	-2.0626488	86.61979044	-2.3491278	-18.91907316
0.35	35	0.045	-0.998	-0.042	-5.6722842	6.3598338	-1.8907614	86.55676506	-2.29756158	-18.86750694
0.36	36	0.047	-0.994	-0.035	-6.3598338	5.9014674	-2.0626488	86.4880101	-2.27464326	-18.81021114
0.37	37	0.041	-0.998	-0.027	-7.3911582	5.6149884	-2.4637194	86.41352556	-2.24599536	-18.75864492
0.38	38	0.037	-1.002	-0.031	-9.2246238	5.6722842	-2.9220858	86.3161227	-2.21734746	-18.7070787
0.39	39	0.032	-0.998	-0.039	-10.6570188	6.6463128	-2.6929026	86.2015311	-2.18869956	-18.64405332
0.4	40	0.031	-0.999	-0.048	-11.2299768	7.9068204	-2.3491278	86.08120992	-2.1485925	-18.56956878
0.41	41	0.034	-1.006	-0.055	-11.2299768	9.1100322	-1.718874	85.96088874	-2.12567418	-18.48362508
0.42	42	0.039	-1.008	-0.058	-10.7143146	9.453807	-0.7448454	85.85202672	-2.11421502	-18.3919518
0.43	43	0.044	-1.009	-0.049	-9.5111028	9.2246238	0.1145916	85.74889428	-2.11421502	-18.30027852
0.44	44	0.041	-1.006	-0.038	-8.7662574	8.3651868	0.859437	85.657221	-2.1199446	-18.2200644
0.45	45	0.041	-1.001	-0.024	-8.307891	8.2505952	1.5469866	85.5712773	-2.10848544	-18.13985028
0.46	46	0.04	-1.001	-0.014	-8.4224826	8.2505952	1.718874	85.4853336	-2.12567418	-18.05963616
0.47	47	0.041	-1.006	-0.012	-8.8235532	8.8235532	1.3750992	85.38793074	-2.13140376	-17.97369246
0.48	48	0.033	-1.002	-0.013	-9.2819196	8.9954406	1.2032118	85.29052788	-2.14286292	-17.88201918
0.49	49	0.032	-0.996	-0.018	-9.6829902	8.59437	1.6615782	85.18739544	-2.15432208	-17.79607548
0.5	50	0.039	-0.991	-0.026	-10.0840608	8.021412	2.1199446	85.08999258	-2.15432208	-17.72159094
0.51	51	0.047	-0.992	-0.021	-10.5424272	7.3911582	2.6356068	84.97540098	-2.1772404	-17.6471064
0.52	52	0.058	-1	-0.012	-11.172681	6.3598338	3.151269	84.86080938	-2.2058883	-17.58408102
0.53	53	0.059	-1.006	-0.016	-12.032118	5.0420304	3.6669312	84.73475862	-2.24026578	-17.5325148
0.54	54	0.054	-1.008	-0.007	-12.0894138	4.010706	4.3544808	84.60870786	-2.28037284	-17.48667816
0.55	55	0.045	-1.006	-0.009	-12.2613012	3.2658606	4.583664	84.49411626	-2.30329116	-17.45803026
0.56	56	0.041	-0.991	-0.011	-11.9748222	2.6356068	4.9847346	84.37379508	-2.35485738	-17.42938236
0.57	57	0.04	-0.978	-0.004	-11.0580894	1.3750992	5.3858052	84.25920348	-2.4064236	-17.41219362
0.58	58	0.046	-0.971	0	-10.0840608	0.1718874	5.72958	84.15607104	-2.4637194	-17.40646404
0.59	59	0.052	-0.967	0.008	-10.2559482	-0.859437	5.6722842	84.0529386	-2.5210152	-17.41219362
0.6	60	0.06	-0.965	0.006	-11.0007936	-2.2345362	5.7868758	83.96126532	-2.55539268	-17.43511194
0.61	61	0.07	-0.965	0	-11.8602306	-3.151269	6.1879464	83.84094414	-2.61841806	-17.46375984
0.62	62	0.075	-0.975	0	-11.8029348	-4.7555514	7.0473834	83.72062296	-2.6929026	-17.5038669
0.63	63	0.067	-0.978	0	-11.172681	-6.6463128	8.021412	83.61176094	-2.7788463	-17.5611627
0.64	64	0.056	-0.979	0.006	-9.3392154	-8.6516658	9.167328	83.52581724	-2.88197874	-17.63564724
0.65	65	0.048	-0.977	0.019	-7.2765666	-10.4851314	10.1413566	83.47425102	-2.97365202	-17.7330501
0.66	66	0.047	-0.978	0.032	-6.0733548	-11.745639	10.7143146	83.41695522	-3.08824362	-17.84191212
0.67	67	0.044	-0.982	0.036	-5.8441716	-13.178034	10.7716104	83.37111858	-3.2085648	-17.95650372
0.68	68	0.053	-0.982	0.032	-5.6722842	-14.610429	10.4851314	83.31955236	-3.3231564	-18.09401364
0.69	69	0.064	-0.975	0.026	-4.6409598	-16.2720072	10.3705398	83.28517488	-3.44347758	-18.24298272
0.7	70	0.062	-0.97	0.031	-2.6356068	-19.0222056	10.599723	83.29090446	-3.54088044	-18.42632928
0.71	71	0.064	-0.965	0.049	-1.0886202	-21.7151082	10.886202	83.29090446	-3.67266078	-18.62686458
0.72	72	0.066	-0.965	0.066	-0.5156622	-24.9809688	11.1153852	83.3080932	-3.80444112	-18.86177736
0.73	73	0.068	-0.972	0.073	-1.0313244	-28.074942	11.2299768	83.31955236	-3.93622146	-19.12533804
0.74	74	0.075	-0.979	0.072	-1.8334656	-30.5959572	11.45916	83.32528194	-4.07946096	-19.41181704
0.75	75	0.08	-0.976	0.064	-2.4064236	-32.4867186	11.9748222	83.34247068	-4.20551172	-19.72694394
0.76	76	0.071	-0.971	0.059	-1.8334656	-34.37748	12.7196676	83.34820026	-4.36593996	-20.05353
0.77	77	0.046	-0.967	0.065	-0.286479	-35.8671708	13.2926256	83.37684816	-4.5263682	-20.39157522
0.78	78	0.03	-0.977	0.075	1.5469866	-37.8725238	13.6364004	83.42841438	-4.69252602	-20.75253876
0.79	79	0.013	-0.992	0.084	2.6929026	-38.3308902	13.2926256	83.49143976	-4.85868384	-21.1135023
0.8	80	0.005	-1.006	0.076	4.3544808	-37.0130868	12.318597	83.58884262	-5.00192334	-21.46873626
0.81	81	0.002	-1.034	0.06	5.5003968	-33.8618178	10.4278356	83.67478632	-5.13370368	-21.79532232
0.82	82	-0.003	-1.085	0.039	5.6722842	-29.507337	7.6203414	83.76073002	-5.23110654	-22.07607174
0.83	83	-0.003	-1.144	0	4.0680018	-25.8977016	4.5263682	83.82948498	-5.29413192	-22.32817326
0.84	84	-0.02	-1.195	-0.041	3.2085648	-23.7204612	3.437748	83.88678078	-5.34569814	-22.55735646
0.85	85	-0.06	-1.23	-0.061	5.8441716	-22.2307704	2.7501984	83.97272448	-5.39153478	-22.7750805
0.86	86	-0.07	-1.244	-0.055	13.0634424	-17.475219	1.7761698	84.12742314	-5.42018268	-22.9469679
0.87	87	-0.078	-1.249	-0.051	15.8709366	-12.6623718	0	84.29931054	-5.42591226	-23.07301866
0.88	88	-0.136	-1.287	-0.024	12.7769634	-4.297185	-2.6929026	84.43682046	-5.40299394	-23.11312572
0.89	89	-0.219	-1.321	-0.021	5.9587632	11.3445684	-4.9847346	84.4826571	-5.34569814	-23.0042637
0.9	90	-0.271	-1.335	-0.103	6.4744254	24.2361234	-6.302538	84.52276416	-5.2712136	-22.76935092
0.91	91	-0.242	-1.325	-0.173	12.3758928	23.9496444	-5.5003968	84.6258966	-5.19672906	-22.53443814
0.92	92	-0.141	-1.281	-0.124	18.3919518	14.3812458	-3.6669312	84.797784	-5.15089242	-22.39692822
0.93	93	0.008	-1.22	-0.025	21.0275586	13.9801752	-3.9534102	84.9983193	-5.0993262	-22.2594183
0.94	94	0.103	-1.167	-0.12	17.761698	16.1574156	-2.3491278	85.15874754	-5.06494872	-22.09899006
0.95	95	0.14	-1.111	-0.157	16.4438946	9.453807	-1.3750992	85.30771662	-5.00765292	-22.01304636
0.96	96	0.132	-1.08	-0.163	13.5791046	3.8388186	0.6302538	85.43949696	-5.00765292	-21.9729393
0.97	97	0.097	-1.029	-0.199	9.5111028	-1.5469866	3.0366774	85.53689982	-5.0420304	-21.98439846
0.98	98	0.026	-0.974	-0.237	5.9587632	-7.448454	4.7555514	85.60565478	-5.08786704	-22.05315342
0.99	99	-0.053	-0.92	-0.261	3.2085648	-11.5164558	5.72958	85.65149142	-5.15089242	-22.16201544
1	100	-0.111	-0.865	-0.287	1.7761698	-15.1260912	5.7868758	85.64003226	-5.22537696	-22.30525494
1.01	101	-0.138	-0.816	-0.269	2.1772404	-16.1574156	5.7868758	85.68013932	-5.28840234	-22.4599536
1.02	102	-0.16	-0.801	-0.255	0.9740286	-12.2613012	5.156622	85.70305764	-5.34569814	-22.58027478
1.03	103	-0.186	-0.804	-0.249	-0.572958	-6.0733548	4.0680018	85.70305764	-5.39153478	-22.63757058
1.04	104	-0.225	-0.841	-0.229	-1.4896908	1.9480572	2.8074942	85.6858689	-5.42018268	-22.61465226
1.05	105	-0.234	-0.883	-0.215	-1.2032118	10.7716104	2.9793816	85.61711394	-5.48320806	-22.49433108
1.06	106	-0.21	-0.922	-0.195	0.4583664	19.5951636	4.9847346	85.5999252	-5.52331512	-22.29379578
1.07	107	-0.163	-0.938	-0.187	2.6929026	26.6998428	7.1046792	85.5999252	-5.58061092	-22.02450552
1.08	108	-0.117	-0.948	-0.177	4.6982556	30.9970278	9.1100322	85.61138436	-5.65509546	-21.70937862
1.09	109	-0.092	-0.96	-0.172	6.3598338	33.804522	11.5737516	85.64003226	-5.75249832	-21.36560382
1.1	110	-0.099	-0.987	-0.161	8.021412	35.4088044	14.2093584	85.66868016	-5.87854908	-21.00464028
1.11	111	-0.127	-1.02	-0.142	8.0787078	35.4088044	16.2147114	85.70878722	-6.02178858	-20.63794716
1.12	112	-0.155	-1.035	-0.135	7.734933	34.6066632	17.761698	85.74889428	-6.18221682	-20.2827132
1.13	113	-0.169	-1.027	-0.133	7.8495246	33.6326346	18.7357266	85.78327176	-6.35410422	-19.93320882
1.14	114	-0.164	-1.004	-0.125	8.2505952	32.5440144	18.7357266	85.8291084	-6.52026204	-19.5951636
1.15	115	-0.143	-0.983	-0.116	8.0787078	31.226211	18.334656	85.86348588	-6.69214944	-19.26857754
1.16	116	-0.118	-0.965	-0.107	7.0473834	29.5646328	17.2460358	85.89213378	-6.8468481	-18.95918022
1.17	117	-0.089	-0.947	-0.112	5.0420304	27.501984	15.2979786	85.90932252	-6.9900876	-18.6784308
1.18	118	-0.07	-0.93	-0.117	2.86479	24.923673	13.3499214	85.90359294	-7.11040878	-18.4205997
1.19	119	-0.066	-0.919	-0.118	1.6615782	23.0329116	12.0894138	85.8864042	-7.2192708	-18.17995734
1.2	120	-0.073	-0.915	-0.11	0.8021412	21.8296998	11.45916	85.85202672	-7.31667366	-17.95650372
1.21	121	-0.088	-0.912	-0.109	0.1145916	20.9702628	11.45916	85.82337882	-7.4198061	-17.73877968
1.22	122	-0.112	-0.905	-0.103	-0.2291832	20.340009	11.4018642	85.79473092	-7.52293854	-17.52678522
1.23	123	-0.126	-0.899	-0.095	-0.1718874	20.340009	11.2299768	85.76035344	-7.62607098	-17.31479076
1.24	124	-0.128	-0.897	-0.085	0.0572958	20.1681216	10.6570188	85.73170554	-7.72347384	-17.10852588
1.25	125	-0.127	-0.889	-0.074	0.0572958	19.767051	9.2819196	85.69732806	-7.80941754	-16.902261
1.26	126	-0.126	-0.886	-0.065	0.6302538	19.194093	7.5630456	85.67440974	-7.87244292	-16.70745528
1.27	127	-0.121	-0.883	-0.053	1.3178034	18.621135	5.5003968	85.657221	-7.91827956	-16.51837914
1.28	128	-0.12	-0.88	-0.044	1.6615782	18.1054728	3.2658606	85.65149142	-7.94119788	-16.33503258
1.29	129	-0.115	-0.872	-0.036	2.0626488	17.5898106	0.9740286	85.64576184	-7.94692746	-16.1574156
1.3	130	-0.112	-0.866	-0.028	2.5210152	17.18874	-1.145916	85.64576184	-7.92400914	-15.9855282
1.31	131	-0.105	-0.854	-0.023	2.8074942	16.8449652	-3.2658606	85.65149142	-7.88390208	-15.81937038
1.32	132	-0.1	-0.849	-0.019	2.9793816	16.2720072	-5.2139178	85.657221	-7.8208767	-15.65894214
1.33	133	-0.101	-0.854	-0.015	2.5210152	15.469866	-7.0473834	85.66295058	-7.74639216	-15.50997306
1.34	134	-0.098	-0.862	-0.015	1.6042824	14.2666542	-8.6516658	85.657221	-7.6489893	-15.37819272
1.35	135	-0.103	-0.869	-0.015	1.2032118	13.1207382	-10.0840608	85.657221	-7.54012728	-15.25214196
1.36	136	-0.109	-0.882	-0.01	1.432395	11.745639	-11.5164558	85.657221	-7.4198061	-15.14327994
1.37	137	-0.113	-0.89	-0.005	2.3491278	10.3705398	-12.7769634	85.66868016	-7.28802576	-15.05160666
1.38	138	-0.115	-0.898	0.006	4.1825934	8.59437	-14.037471	85.69732806	-7.14478626	-14.97139254
1.39	139	-0.116	-0.898	0.021	6.1879464	6.875496	-15.6990492	85.75462386	-6.9900876	-14.91409674
1.4	140	-0.106	-0.889	0.04	9.5111028	4.8128472	-17.5898106	85.8577563	-6.80674104	-14.87971926
1.41	141	-0.084	-0.888	0.065	14.0947668	2.5210152	-19.9389384	86.0009958	-6.60620574	-14.8682601
1.42	142	-0.072	-0.896	0.088	17.3033316	-0.1145916	-21.6578124	86.17861278	-6.39421128	-14.87971926
1.43	143	-0.075	-0.935	0.082	17.9908812	-2.6356068	-21.8869956	86.36195934	-6.17648724	-14.91982632
1.44	144	-0.097	-0.97	0.081	19.0795014	-7.9068204	-20.5118964	86.56822422	-5.97022236	-15.0114996
1.45	145	-0.137	-1.021	0.08	18.5638392	-11.172681	-18.334656	86.78021868	-5.79833496	-15.1260912
1.46	146	-0.152	-1.06	0.036	15.0687954	-13.0634424	-16.6730778	86.95210608	-5.63217714	-15.26360112
1.47	147	-0.137	-1.097	0.001	12.9488508	-13.9228794	-15.4125702	87.09534558	-5.48320806	-15.4125702
1.48	148	-0.099	-1.128	-0.009	12.2613012	-12.4331886	-14.2093584	87.2328555	-5.33996856	-15.53862096
1.49	149	-0.074	-1.162	0.008	12.0894138	-7.8495246	-12.8342592	87.36463584	-5.2139178	-15.62456466
1.5	150	-0.061	-1.201	0.049	8.1932994	-2.2345362	-11.0007936	87.4620387	-5.0993262	-15.65321256
1.51	151	-0.075	-1.256	0.114	1.8334656	0.859437	-9.9121734	87.47922744	-5.00192334	-15.64748298
1.52	152	-0.109	-1.319	0.176	-8.4797784	-0.1718874	-10.0840608	87.39328374	-4.8987909	-15.65321256
1.53	153	-0.133	-1.344	0.196	-10.6570188	-6.7036086	-9.453807	87.2901513	-4.80711762	-15.7276971
1.54	154	-0.202	-1.392	0.06	-4.7555514	0.1718874	-6.302538	87.24431466	-4.74409224	-15.7276971
1.55	155	-0.232	-1.488	-0.118	-0.2291832	15.6417534	-0.6302538	87.22712592	-4.73836266	-15.57299844
1.56	156	-0.165	-1.604	-0.086	6.4171296	19.2513888	8.0787078	87.27296256	-4.8128472	-15.37246314
1.57	157	-0.022	-1.645	-0.112	-1.145916	12.3758928	16.5584862	87.25004424	-4.97900502	-15.24641238
1.58	158	0.044	-1.587	-0.285	-3.6096354	3.7815228	21.6578124	87.2042076	-5.19099948	-15.19484616
1.59	159	0.047	-1.474	-0.315	2.86479	-3.6096354	24.4080108	87.23858508	-5.43164184	-15.22349406
1.6	160	0.005	-1.274	-0.262	6.7036086	-14.2093584	24.0069402	87.30734004	-5.66655462	-15.34954482
1.61	161	-0.104	-1.065	-0.218	8.1360036	-18.5065434	19.7097552	87.41047248	-5.86708992	-15.5271618
1.62	162	-0.216	-0.916	-0.179	8.59437	-11.6310474	12.7196676	87.51360492	-5.99314068	-15.63602382
1.63	163	-0.234	-0.809	-0.169	4.5263682	-0.572958	3.3231564	87.55944156	-6.02751816	-15.6417534
1.64	164	-0.191	-0.735	-0.193	0.572958	9.9121734	-1.4896908	87.55371198	-6.01032942	-15.54435054
1.65	165	-0.118	-0.683	-0.253	-2.8074942	18.2773602	-1.8334656	87.47349786	-5.99314068	-15.3552744
1.66	166	-0.076	-0.663	-0.251	-6.7609044	19.767051	1.9480572	87.38182458	-6.01032942	-15.16046868
1.67	167	-0.056	-0.672	-0.247	-11.8602306	14.1520626	8.1932994	87.24431466	-6.09054354	-15.01722918
1.68	168	-0.03	-0.736	-0.258	-16.329303	6.0733548	14.2093584	87.07242726	-6.23378304	-14.9542038
1.69	169	0	-0.836	-0.257	-18.7930224	-2.0626488	16.2147114	86.88335112	-6.39421128	-14.96566296
1.7	170	0.027	-0.923	-0.246	-19.5951636	-9.8548776	14.7823164	86.66562708	-6.52599162	-15.06306582
1.71	171	0.031	-0.949	-0.243	-19.3086846	-17.761698	11.745639	86.49373968	-6.65204238	-15.23495322
1.72	172	0.006	-0.949	-0.227	-17.2460358	-23.5485738	7.2765666	86.35050018	-6.7322565	-15.46413642
1.73	173	-0.022	-0.953	-0.196	-13.5791046	-26.0122932	2.3491278	86.24163816	-6.76663398	-15.72196752
1.74	174	-0.069	-0.97	-0.181	-9.9121734	-25.2674478	-3.0366774	86.17861278	-6.74371566	-15.97979862
1.75	175	-0.106	-0.999	-0.163	-6.875496	-21.4286292	-5.6149884	86.1155874	-6.69787902	-16.19752266
1.76	176	-0.126	-1.009	-0.149	-5.2712136	-15.8709366	-6.8182002	86.08120992	-6.63485364	-16.3579509
1.77	177	-0.116	-1.006	-0.138	-4.583664	-9.3965112	-5.8441716	86.04683244	-6.58328742	-16.45535376
1.78	178	-0.098	-1.008	-0.126	-4.1252976	-3.9534102	-4.0680018	86.01245496	-6.54318036	-16.5011904
1.79	179	-0.068	-0.999	-0.115	-4.0680018	0.1145916	-3.3804522	85.9723479	-6.50880288	-16.5011904
1.8	180	-0.035	-0.982	-0.097	-4.0680018	2.5210152	-3.8388186	85.90359294	-6.42285918	-16.48973124
1.81	181	-0.016	-0.962	-0.094	-5.0993262	3.6096354	-4.6409598	85.84629714	-6.37129296	-16.45535376
1.82	182	-0.007	-0.942	-0.091	-6.016059	3.6096354	-5.2712136	85.78327176	-6.31972674	-16.42097628
1.83	183	0	-0.923	-0.082	-6.4744254	2.4637194	-5.0420304	85.7145168	-6.26816052	-16.40378754
1.84	184	0.002	-0.913	-0.071	-6.589017	1.145916	-4.6409598	85.64576184	-6.22232388	-16.39232838
1.85	185	0	-0.911	-0.055	-6.4744254	0.1145916	-4.297185	85.57700688	-6.13638018	-16.40378754
1.86	186	-0.004	-0.914	-0.04	-6.4171296	-0.5156622	-4.010706	85.5139815	-6.09627312	-16.4152467
1.87	187	-0.002	-0.904	-0.032	-6.3598338	-0.5156622	-3.2658606	85.45095612	-6.06189564	-16.42670586
1.88	188	-0.007	-0.891	-0.024	-5.9014674	-0.1718874	-2.2345362	85.38793074	-6.0447069	-16.42670586
1.89	189	-0.011	-0.864	-0.018	-5.8441716	0.1718874	-0.0572958	85.33063494	-6.03897732	-16.42670586
1.9	190	-0.004	-0.838	-0.015	-6.3598338	0.6302538	2.005353	85.27333914	-6.03897732	-16.42670586
1.91	191	-0.009	-0.852	-0.009	-6.875496	1.145916	4.1825934	85.1988546	-6.07908438	-16.40951712
1.92	192	-0.004	-0.861	-0.016	-8.4224826	2.005353	5.9014674	85.1129109	-6.13638018	-16.3865988
1.93	193	-0.001	-0.868	-0.015	-9.453807	2.1772404	7.3911582	85.01550804	-6.21086472	-16.3579509
1.94	194	0.01	-0.877	-0.019	-10.7143146	1.9480572	8.880849	84.90091644	-6.29680842	-16.33503258
1.95	195	0.027	-0.889	-0.027	-11.45916	1.145916	10.6570188	84.79205442	-6.37129296	-16.32357342
1.96	196	0.042	-0.89	-0.035	-11.45916	-0.3437748	12.6623718	84.67173324	-6.5030733	-16.31211426
1.97	197	0.053	-0.886	-0.029	-10.0840608	-2.6356068	15.0687954	84.57433038	-6.65204238	-16.329303
1.98	198	0.052	-0.88	-0.016	-7.734933	-6.2452422	17.0741484	84.49984584	-6.82392978	-16.37513964
1.99	199	0.049	-0.869	-0.004	-5.443101	-10.026765	18.6784308	84.4540092	-7.0187355	-16.45535376
2	200	0.041	-0.864	0.011	-2.0626488	-14.4385416	19.8243468	84.46546836	-7.20208206	-16.5871341
2.01	201	0.036	-0.86	0.039	2.1199446	-18.5638392	20.3973048	84.511305	-7.41407652	-16.75329192
2.02	202	0.031	-0.863	0.07	5.5576926	-23.0902074	20.3973048	84.5972487	-7.63180056	-16.96528638
2.03	203	0.032	-0.866	0.08	7.9068204	-27.5592798	19.5951636	84.71756988	-7.84379502	-17.22311748
2.04	204	0.028	-0.876	0.092	10.8289062	-30.7678446	17.9335854	84.87226854	-8.03860074	-17.50959648
2.05	205	0.022	-0.906	0.089	13.750992	-32.658606	15.2406828	85.07280384	-8.1932994	-17.82472338
2.06	206	0.027	-0.946	0.052	15.3552744	-31.3408026	12.2040054	85.27906872	-8.33080932	-18.12839112
2.07	207	-0.001	-1	-0.027	12.8342592	-24.637194	7.7922288	85.44522654	-8.41675302	-18.36903348
2.08	208	-0.077	-1.043	-0.088	10.8289062	-14.0947668	4.5263682	85.58273646	-8.46831924	-18.50081382
2.09	209	-0.17	-1.043	-0.085	11.4018642	-7.6203414	5.6149884	85.70878722	-8.53134462	-18.57529836
2.1	210	-0.255	-1.048	-0.015	11.4018642	-9.453807	10.599723	85.85202672	-8.65739538	-18.65551248
2.11	211	-0.257	-1.12	0.111	13.8082878	-9.3965112	13.6364004	86.00672538	-8.7949053	-18.74145618
2.12	212	-0.132	-1.295	0.179	14.610429	-6.9900876	11.8602306	86.16715362	-8.9094969	-18.80448156
2.13	213	0.041	-1.449	0.189	11.4018642	-10.599723	8.5370742	86.29893396	-9.00117018	-18.90188442
2.14	214	0.184	-1.504	0.098	7.2192708	-19.767051	5.5576926	86.4020664	-9.06419556	-19.09669014
2.15	215	0.174	-1.476	-0.099	12.4331886	-37.815228	1.7761698	86.59114254	-9.0813843	-19.47484242
2.16	216	0.008	-1.476	-0.213	18.8503182	-61.1919144	-2.86479	86.8890807	-9.06992514	-20.08790748
2.17	217	-0.235	-1.559	-0.25	20.9702628	-74.1407652	-8.1932994	87.22712592	-9.00117018	-20.8270233
2.18	218	-0.521	-1.683	-0.22	12.605076	-68.75496	-15.4125702	87.47349786	-8.86366026	-21.52030248
2.19	219	-0.702	-1.758	-0.261	3.2658606	-50.6494872	-23.3766864	87.59381904	-8.63447706	-22.03596468
2.2	220	-0.656	-1.662	-0.292	8.8235532	-33.1169724	-26.9863218	87.73132896	-8.37664596	-22.37973948
2.21	221	-0.402	-1.418	-0.319	14.7823164	-12.032118	-26.7571386	87.90321636	-8.11308528	-22.50579024
2.22	222	-0.083	-1.154	-0.332	19.480572	1.145916	-22.9756158	88.09802208	-7.8781725	-22.50006066
2.23	223	0.154	-1.005	-0.287	16.615782	-0.8021412	-17.9908812	88.26990948	-7.70055552	-22.51151982
2.24	224	0.284	-0.856	-0.252	10.026765	-10.886202	-13.0061466	88.39023066	-7.56877518	-22.62038184
2.25	225	0.327	-0.716	-0.284	0.0572958	-25.496631	-9.0527364	88.39023066	-7.42553568	-22.88394252
2.26	226	0.304	-0.658	-0.263	-6.875496	-39.1330314	-7.6776372	88.37304192	-7.35105114	-23.27928354
2.27	227	0.212	-0.636	-0.212	-12.2613012	-48.5295426	-10.0840608	88.3214757	-7.25364828	-23.76629784
2.28	228	0.013	-0.676	-0.177	-17.3606274	-52.3683612	-12.6623718	88.21261368	-7.12759752	-24.2934192
2.29	229	-0.181	-0.791	-0.162	-21.199446	-50.420304	-12.4904844	88.06937418	-7.00727634	-24.80335182
2.3	230	-0.293	-0.904	-0.153	-21.485925	-42.4561878	-10.026765	87.89748678	-6.9327918	-25.22734074
2.31	231	-0.352	-0.966	-0.153	-19.0795014	-31.3408026	-6.7036086	87.74278812	-6.875496	-25.54246764
2.32	232	-0.391	-0.967	-0.143	-15.8709366	-18.1627686	-3.8388186	87.6052782	-6.83538894	-25.7258142
2.33	233	-0.415	-0.909	-0.13	-11.6310474	-5.5003968	-1.6042824	87.49641618	-6.82392978	-25.78311
2.34	234	-0.4	-0.863	-0.122	-8.021412	6.4744254	1.145916	87.4047429	-6.83538894	-25.72008462
2.35	235	-0.334	-0.842	-0.132	-5.3285094	16.4438946	4.297185	87.30734004	-6.91560306	-25.54819722
2.36	236	-0.244	-0.85	-0.127	-2.9793816	23.3766864	6.4171296	87.24431466	-6.97862844	-25.30755486
2.37	237	-0.161	-0.869	-0.114	-1.6042824	27.215505	8.1932994	87.19274844	-7.05311298	-25.03253502
2.38	238	-0.11	-0.894	-0.104	-1.5469866	28.1322378	9.5111028	87.13545264	-7.13905668	-24.7517856
2.39	239	-0.085	-0.908	-0.102	-1.8334656	26.356068	10.3705398	87.08388642	-7.23645954	-24.48249534
2.4	240	-0.088	-0.93	-0.085	-2.4637194	24.064236	11.5164558	87.00940188	-7.33959198	-24.2361234
2.41	241	-0.097	-0.947	-0.087	-4.2398892	21.4286292	11.745639	86.93491734	-7.45418358	-24.01839936
2.42	242	-0.123	-0.967	-0.09	-6.4171296	18.5638392	11.0580894	86.84324406	-7.55731602	-23.82932322
2.43	243	-0.144	-0.967	-0.092	-9.453807	16.4438946	9.5111028	86.72292288	-7.6489893	-23.65743582
2.44	244	-0.178	-0.968	-0.101	-12.4331886	14.7823164	8.3651868	86.5739538	-7.72920342	-23.50846674
2.45	245	-0.205	-0.968	-0.101	-16.042824	13.8082878	8.1360036	86.37914808	-7.8208767	-23.36522724
2.46	246	-0.222	-0.954	-0.101	-19.0222056	14.037471	8.7089616	86.16715362	-7.90109082	-23.22198774
2.47	247	-0.229	-0.935	-0.098	-21.199446	15.9855282	8.9381448	85.92651126	-7.98703452	-23.05582992
2.48	248	-0.228	-0.922	-0.097	-22.2307704	19.1367972	8.9954406	85.66868016	-8.07297822	-22.8610242
2.49	249	-0.222	-0.899	-0.098	-22.7464326	22.8037284	8.1360036	85.40511948	-8.14173318	-22.631841
2.5	250	-0.217	-0.892	-0.083	-22.5745452	27.3300966	7.3911582	85.13009964	-8.21048814	-22.35109158
2.51	251	-0.214	-0.887	-0.068	-23.204799	31.3980984	7.2765666	84.84362064	-8.26778394	-22.03596468
2.52	252	-0.213	-0.887	-0.061	-24.7517856	35.0077338	7.6776372	84.5399529	-8.32507974	-21.68073072
2.53	253	-0.213	-0.883	-0.072	-26.1268848	36.7839036	8.4224826	84.21336684	-8.38237554	-21.30830802
2.54	254	-0.206	-0.869	-0.095	-25.6112226	36.7839036	8.8235532	83.89251036	-8.44540092	-20.93588532
2.55	255	-0.196	-0.844	-0.109	-21.6578124	36.2682414	8.0787078	83.61176094	-8.5084263	-20.5691922
2.56	256	-0.187	-0.824	-0.08	-15.756345	36.7839036	6.016059	83.3940369	-8.5370742	-20.1967695
2.57	257	-0.183	-0.801	-0.038	-9.7975818	38.8465524	3.9534102	83.22787908	-8.54280378	-19.80715806
2.58	258	-0.186	-0.793	0.02	-6.6463128	42.3415962	2.005353	83.09609874	-8.52561504	-19.38316914
2.59	259	-0.192	-0.796	0.043	-7.3338624	45.9512316	0.286479	82.94712966	-8.48550798	-18.92480274
2.6	260	-0.197	-0.815	0.055	-8.8235532	49.847346	-0.6875496	82.78670142	-8.43967134	-18.43205886
2.61	261	-0.202	-0.833	0.019	-9.453807	52.0818822	-1.2032118	82.60908444	-8.37664596	-17.91639666
2.62	262	-0.201	-0.844	0.028	-7.9068204	56.149884	-2.4064236	82.44292662	-8.29643184	-17.3606274
2.63	263	-0.201	-0.849	0.058	-6.589017	60.8481396	-3.0939732	82.28249838	-8.20475856	-16.76475108
2.64	264	-0.215	-0.853	0.057	-6.3598338	62.5097178	-3.151269	82.12207014	-8.1073557	-16.14595644
2.65	265	-0.223	-0.88	0.052	-8.59437	63.6556338	-2.9793816	81.95018274	-8.01568242	-15.52143222
2.66	266	-0.211	-0.928	0.02	-11.4018642	64.6869582	-2.5210152	81.73818828	-7.92400914	-14.87971926
2.67	267	-0.152	-1.036	-0.079	-20.340009	66.8069028	-1.0886202	81.42879096	-7.83233586	-14.22081756
2.68	268	-0.014	-1.263	-0.293	-38.2162986	66.176649	2.5210152	80.94177666	-7.78076964	-13.56764544
2.69	269	0.126	-1.558	-0.466	-52.139178	56.9520252	12.605076	80.3287116	-7.83233586	-12.98895786
2.7	270	0.392	-1.82	-0.619	-64.4004792	37.528749	29.3927454	79.6125141	-8.06724864	-12.5764281
2.71	271	0.487	-1.705	-0.378	-44.1750618	7.5630456	36.2682414	79.14268854	-8.41675302	-12.43891818
2.72	272	0.272	-1.149	-0.163	-36.8984952	-11.3445684	25.3820394	78.781725	-8.68604328	-12.50767314
2.73	273	-0.131	-0.65	-0.048	-21.6578124	-11.9748222	-0.5156622	78.5811897	-8.70323202	-12.62799432
2.74	274	-0.409	-0.536	0.144	-16.7303736	21.0848544	-20.626488	78.3806544	-8.46831924	-12.4618365
2.75	275	-0.626	-0.637	0.202	-24.7517856	39.1903272	-29.7365202	78.09990498	-8.15892192	-12.13525044
2.76	276	-0.794	-0.816	0.064	-33.8618178	52.1964738	-29.9084076	77.68737522	-7.77504006	-11.6883432
2.77	277	-0.733	-1.061	-0.018	-32.945085	78.1514712	-23.204799	77.24619756	-7.40834694	-10.97787528
2.78	278	-0.493	-1.264	-0.114	-33.231564	91.5013926	-8.7662574	76.78783116	-7.15051584	-10.10124954
2.79	279	-0.168	-1.267	-0.227	-34.5493674	87.089616	7.5630456	76.3180056	-7.0473834	-9.24181254
2.8	280	0.064	-1.144	-0.268	-31.8564648	79.4692746	15.8136408	75.88255752	-7.02446508	-8.43394176
2.81	281	0.196	-1.016	-0.259	-32.372127	68.468481	14.4958374	75.4585686	-7.0187355	-7.734933
2.82	282	0.247	-0.889	-0.235	-30.5386614	59.5303362	7.6776372	75.06895716	-6.9614397	-7.13905668
2.83	283	0.168	-0.788	-0.206	-28.7051958	53.7434604	-2.5210152	74.70799362	-6.81247062	-6.62912406
2.84	284	-0.047	-0.733	-0.207	-27.3873924	53.5142772	-15.0114996	74.3699484	-6.54890994	-6.15356892
2.85	285	-0.229	-0.733	-0.231	-26.0122932	59.301153	-25.0955604	74.03763276	-6.18221682	-5.64936588
2.86	286	-0.302	-0.759	-0.24	-23.4339822	70.473834	-29.507337	73.72823544	-5.72385042	-5.05348956
2.87	287	-0.271	-0.78	-0.25	-20.2827132	79.5838662	-28.1895336	73.44748602	-5.25975444	-4.37166954
2.88	288	-0.174	-0.791	-0.237	-16.8449652	87.2042076	-23.8923486	73.1953845	-4.80711762	-3.60390582
2.89	289	-0.032	-0.813	-0.235	-15.3552744	92.6473086	-19.0795014	72.96047172	-4.3831287	-2.77311672
2.9	290	0.103	-0.867	-0.248	-14.2093584	96.1996482	-15.6990492	72.7370181	-3.97059894	-1.90222056
2.91	291	0.194	-0.952	-0.306	-12.891555	96.3715356	-12.8342592	72.5364828	-3.58671708	-1.02559482
2.92	292	0.232	-1.013	-0.347	-10.313244	93.1629708	-10.3705398	72.3645954	-3.2372127	-0.1718874
2.93	293	0.239	-1.002	-0.368	-5.0420304	88.9230816	-10.5424272	72.26146296	-2.8934379	0.63598338
2.94	294	0.188	-0.969	-0.335	3.0939732	82.7351352	-14.610429	72.24427422	-2.52674478	1.38082878
2.95	295	0.077	-0.936	-0.282	11.5164558	78.7244292	-20.8556712	72.32448834	-2.10848544	2.06837838
2.96	296	-0.024	-0.888	-0.218	20.8556712	79.641162	-27.1009134	72.50210532	-1.6329303	2.74446882
2.97	297	-0.099	-0.822	-0.128	30.0229992	82.8497268	-32.945085	72.77712516	-1.09434978	3.437748
2.98	298	-0.179	-0.749	-0.017	38.388186	86.803137	-38.4454818	73.14381828	-0.49274388	4.15967508
2.99	299	-0.217	-0.707	0.102	45.83664	91.9024632	-42.9145542	73.5964551	0.14896908	4.92170922
3	300	-0.2	-0.725	0.197	49.4462754	95.8558734	-44.117766	74.10638772	0.80787078	5.72385042
3.01	301	-0.072	-0.755	0.212	51.9099948	94.824549	-37.528749	74.63923866	1.39801752	6.53745078
3.02	302	0.132	-0.738	0.177	50.2484166	89.1522648	-22.4599536	75.16063044	1.82773602	7.33959198
3.03	303	0.243	-0.689	0.109	47.0398518	73.3959198	-6.6463128	75.64764474	2.05691922	8.03860074
3.04	304	0.259	-0.661	0.113	40.10706	55.4050386	2.4637194	76.07163366	2.16005166	8.58291084
3.05	305	0.208	-0.599	0.078	26.0122932	41.5967508	1.3750992	76.35811266	2.25172494	8.98971102
3.06	306	0.12	-0.557	0.093	14.2093584	34.4347758	-6.9327918	76.51281132	2.38923486	9.30483792
3.07	307	-0.019	-0.583	0.119	1.8907614	37.0130868	-16.1574156	76.54145922	2.61841806	9.6256944
3.08	308	-0.102	-0.611	0.151	-12.891555	47.555514	-24.2934192	76.42113804	2.9507337	10.03249458
3.09	309	-0.16	-0.64	0.125	-23.777757	58.9573782	-29.220858	76.19768442	3.3518043	10.53096804
3.1	310	-0.179	-0.659	0.115	-35.4088044	68.6403684	-28.9916748	75.88255752	3.76433406	11.12684436
3.11	311	-0.093	-0.604	0.184	-46.3523022	72.8802576	-27.2728008	75.44710944	4.1825934	11.75709816
3.12	312	0.019	-0.509	0.19	-52.4829528	67.2079734	-25.5539268	74.94863598	4.57220484	12.34151532
3.13	313	0.109	-0.434	0.191	-58.441716	56.8374336	-26.069589	74.38713714	4.95035712	12.81134088
3.14	314	0.183	-0.419	0.184	-66.9214944	42.9145542	-28.2468294	73.72823544	5.31705024	13.14365652
3.15	315	0.198	-0.427	0.132	-79.927641	27.3873924	-32.658606	72.94328298	5.7009321	13.30408476
3.16	316	0.152	-0.421	-0.012	-97.5174516	13.9801752	-39.820581	71.95206564	6.1020027	13.31554392
3.17	317	0.111	-0.359	-0.137	-111.3257394	7.161975	-50.7640788	70.80614964	6.589017	13.21241148
3.18	318	0.082	-0.25	-0.246	-108.3463578	11.0007936	-60.1032942	69.68888154	7.17343416	13.10354946
3.19	319	0.009	-0.171	-0.361	-96.3142398	16.7876694	-64.9734372	68.6976642	7.8208767	13.02333534
3.2	320	0.018	-0.086	-0.427	-81.4746276	18.6784308	-66.9787902	67.8382272	8.49123756	12.9488508
3.21	321	0.057	-0.033	-0.378	-65.9474658	22.4599536	-69.614397	67.15640718	9.20170548	12.88582542
3.22	322	0.038	0.001	-0.344	-55.0612638	30.1375908	-75.057498	66.58917876	9.99238752	12.86863668
3.23	323	0.09	-0.013	-0.33	-49.9046418	29.1635622	-81.1881486	66.0620574	10.83463578	12.8056113
3.24	324	0.27	-0.108	-0.306	-63.1972674	22.058883	-88.4074194	65.38596696	11.71126152	12.64518306
3.25	325	0.5	-0.241	-0.421	-95.0537322	2.578311	-99.2363256	64.32026508	12.62226474	12.2326533
3.26	326	0.673	-0.399	-0.623	-114.2478252	-34.8358464	-108.6901326	62.97954336	13.4358651	11.41332336
3.27	327	0.749	-0.655	-0.824	-126.5664222	-60.9054354	-112.1851764	61.43828634	14.14060344	10.31897358
3.28	328	0.717	-0.94	-1.035	-155.558097	-52.139178	-109.6068654	59.60482074	14.82815304	9.28764918
3.29	329	0.67	-1.067	-1.489	-159.6260988	-8.1360036	-95.9131692	57.82865094	15.5844576	8.69177286
3.3	330	0.627	-1.157	-1.446	-89.4960396	8.3651868	-78.4379502	56.81451528	16.2720072	8.32507974
3.31	331	0.566	-1.508	-1.277	-76.8909636	0	-64.5150708	55.92643038	16.79339898	7.95265704
3.32	332	0.53	-1.58	-1.198	-100.6687206	-2.7501984	-55.8061092	54.8034327	17.22311748	7.59742308
3.33	333	0.657	-1.888	-1.319	-124.3891818	-5.5576926	-48.70143	53.43406308	17.56689228	7.2479187
3.34	334	0.962	-2.212	-1.588	-151.2036162	-22.1161788	-50.420304	51.74383698	17.8189938	6.73798608
3.35	335	1.407	-2.728	-1.445	-172.4030622	-48.7587258	-51.0505578	49.77286146	17.89347834	5.99314068
3.36	336	1.58	-2.781	-1.463	-188.1594072	-69.2706222	-43.7739912	47.60708022	17.75596842	5.13370368
3.37	337	1.137	-2.22	-1.076	-150.7452498	-84.7404882	-50.3057124	45.7793442	17.54397396	4.11383844
3.38	338	0.364	-1.719	-0.572	-118.8314892	-88.1209404	-69.327918	44.2323576	17.4179232	2.93927454
3.39	339	-0.186	-1.604	-0.263	-105.6534552	-81.1308528	-85.7145168	42.7999626	17.42365278	1.69595568
3.4	340	-0.421	-1.823	-0.007	-94.1942952	-65.2026204	-104.564835	41.47070004	17.63564724	0.42398892
3.41	341	-0.404	-1.791	0.211	-81.3027402	-38.7892566	-113.2737966	40.29040656	18.08255448	-0.73911582
3.42	342	-0.272	-1.444	0.321	-79.8703452	-16.7303736	-98.7206634	39.19605678	18.57529836	-1.64438946
3.43	343	-0.239	-0.956	0.47	-84.1102344	-2.5210152	-80.0422326	38.12462532	19.04512392	-2.31475032
3.44	344	-0.158	-0.36	0.527	-99.0644382	9.0527364	-66.749607	36.955791	19.50349032	-2.81322378
3.45	345	0.009	0.179	0.487	-112.7581344	13.2353298	-63.4264506	35.64944676	19.97904546	-3.2658606
3.46	346	0.159	0.507	0.46	-113.7894588	15.9855282	-63.884817	34.33737294	20.4546006	-3.71849742
3.47	347	0.192	0.421	0.434	-110.3517108	14.4385416	-58.0979412	33.06540618	20.87858952	-4.14248634
3.48	348	0.178	0.054	0.49	-109.8360486	11.6310474	-54.2591226	31.799169	21.25101222	-4.56074568
3.49	349	0.221	-0.238	0.509	-108.6328368	6.9327918	-63.4264506	30.49855434	21.61770534	-5.0993262
3.5	350	0.211	-0.307	0.526	-113.445684	-8.1932994	-82.1621772	29.06615934	21.95575056	-5.89573782
3.51	351	0.215	-0.125	0.465	-114.305121	-23.2620948	-97.1736768	27.51917274	22.2021225	-6.9327918
3.52	352	0.136	0.198	0.283	-116.023995	-36.382833	-99.1790298	25.91489034	22.31098452	-8.06724864
3.53	353	0.021	0.494	0.2	-121.8681666	-44.977203	-86.7458412	24.28196004	22.26514788	-9.12149136
3.54	354	0.078	0.535	0.133	-128.7436626	-50.6494872	-75.2293854	22.61465226	22.09326048	-10.0840608
3.55	355	0.301	0.443	-0.022	-137.1661452	-52.139178	-68.8122558	20.87858952	21.86980686	-10.98933444
3.56	356	0.356	0.405	-0.124	-146.7918396	-50.2484166	-65.5463952	19.0795014	21.61197576	-11.84304186
3.57	357	0.288	0.374	-0.113	-157.9645206	-55.9779966	-71.046792	17.14863294	21.29111928	-12.75404508
3.58	358	0.141	0.463	-0.307	-149.3701506	-60.3324774	-73.6823988	15.2979786	20.912967	-13.6936962
3.59	359	-0.069	0.753	-0.488	-129.8895786	-52.3110654	-72.765666	13.67077788	20.58065136	-14.58751068
3.6	360	-0.017	0.925	-0.493	-126.2799432	-70.0727634	-77.7504006	12.02638842	20.06498916	-15.57872802
3.61	361	0.156	1.008	-0.377	-159.3969156	-109.721457	-85.5999252	10.04395374	19.14825636	-16.7017257
3.62	362	-0.559	0.93	-1.077	-183.4611516	-116.4823614	-85.5999252	7.84379502	18.12839112	-17.80180506
3.63	363	-0.524	0.889	-2.879	-209.8172196	-135.6764544	-94.3661826	5.3858052	16.88507226	-18.95918022
3.64	364	2.602	1.571	-3.994	-185.5238004	-155.3862096	-132.8116644	3.09970278	15.43548852	-20.47751892
3.65	365	3.968	2.586	-3.996	-106.9712586	-218.4688854	-137.3380326	1.65011904	13.32700308	-22.02450552
3.66	366	2.257	2.879	-3.996	-80.2714158	-230.2145244	-34.8358464	0.76776372	11.05235982	-22.4886015
3.67	367	0.733	2.184	-3.996	-103.13244	-161.0584938	0.9167328	-0.2578311	9.453807	-22.52297898
3.68	368	0.912	1.332	-3.97	-103.0751442	-140.7184848	2.005353	-1.2891555	8.0500599	-22.5172494
3.69	369	0.657	0.93	-3.523	-91.2722094	-116.883432	25.4393352	-2.16005166	6.89268474	-22.24795914
3.7	370	0.34	0.757	-2.486	-81.3027402	-106.283709	32.7159018	-2.93354496	5.8441716	-21.89845476
3.71	371	0.514	0.529	-1.782	-67.5517482	-88.9803774	28.2468294	-3.5809875	4.97327544	-21.58332786
3.72	372	0.286	0.533	-0.968	-49.847346	-95.5693944	26.6998428	-4.05081306	4.0393539	-21.27966012
3.73	373	0.177	0.894	-0.717	-37.3568616	-104.278356	24.6944898	-4.39458786	3.02521824	-20.98172196
3.74	374	0.148	1.02	-0.507	-27.3873924	-107.7733998	19.2513888	-4.64668938	1.97097552	-20.73535002
3.75	375	0.164	1.041	-0.329	-22.5745452	-109.3776822	13.9801752	-4.91025006	0.91100322	-20.53481472
3.76	376	0	0.986	-0.227	-18.2200644	-109.148499	13.3499214	-5.07640788	-0.14896908	-20.340009
3.77	377	-0.123	0.806	-0.246	-15.183387	-104.278356	5.5576926	-5.21964738	-1.1745639	-20.21968782
3.78	378	-0.124	0.629	-0.239	-14.5531332	-95.7412818	-4.8128472	-5.3571573	-2.12567418	-20.20249908
3.79	379	-0.257	0.492	-0.216	-17.3033316	-88.1209404	-11.9748222	-5.51758554	-3.0080295	-20.25979488
3.8	380	-0.443	0.353	-0.255	-19.7097552	-78.8963166	-15.0687954	-5.72385042	-3.8388186	-20.35146816
3.81	381	-0.474	0.228	-0.338	-18.9649098	-59.0719698	-16.7876694	-5.9014674	-4.4404245	-20.47178934
3.82	382	-0.472	0.235	-0.409	-17.1314442	-46.123119	-17.475219	-6.05616606	-4.91025006	-20.60929926
3.83	383	-0.398	0.341	-0.526	-18.5065434	-36.6120162	-17.1314442	-6.22805346	-5.29413192	-20.74680918
3.84	384	-0.294	0.467	-0.647	-19.0222056	-32.7159018	-13.6364004	-6.40567044	-5.63217714	-20.8556712
3.85	385	-0.257	0.523	-0.75	-17.6471064	-32.1429438	-8.4797784	-6.64058322	-5.9874111	-20.90150784
3.86	386	-0.239	0.477	-0.85	-15.2406828	-30.7678446	-6.1879464	-6.7895523	-6.29680842	-20.93015574
3.87	387	-0.203	0.383	-0.918	-11.172681	-28.9916748	-5.9014674	-6.89841432	-6.59474658	-20.96453322
3.88	388	-0.223	0.305	-1.021	-5.72958	-25.496631	-6.1879464	-6.94998054	-6.85257768	-20.9989107
3.89	389	-0.224	0.299	-1.089	-0.8021412	-19.767051	-6.4744254	-6.94998054	-7.05311298	-21.04474734
3.9	390	-0.235	0.302	-1.191	5.2139178	-15.5271618	-8.6516658	-6.89841432	-7.22500038	-21.11923188
3.91	391	-0.242	0.303	-1.242	13.4072172	-11.1153852	-12.7769634	-6.74371566	-7.34532156	-21.23382348
3.92	392	-0.209	0.314	-1.18	20.2827132	-0.7448454	-17.7044022	-6.51453246	-7.37396946	-21.41144046
3.93	393	-0.138	0.34	-1.155	21.6005166	13.178034	-19.8243468	-6.2738901	-7.25937786	-21.62343492
3.94	394	-0.052	0.359	-1.142	19.0222056	25.2674478	-19.480572	-6.05616606	-7.03019466	-21.84115896
3.95	395	0.045	0.342	-1.126	15.9282324	36.0390582	-17.8762896	-5.89573782	-6.6749607	-22.04742384
3.96	396	0.124	0.305	-1.112	13.750992	42.112413	-14.5531332	-5.74103916	-6.26816052	-22.22504082
3.97	397	0.174	0.228	-1.074	12.032118	36.096354	-8.9381448	-5.60925882	-5.92438572	-22.33963242
3.98	398	0.129	0.157	-1.07	9.0527364	25.8977016	-4.583664	-5.51185596	-5.66655462	-22.4026578
3.99	399	0.034	0.092	-1.046	5.8441716	15.9282324	-4.4117766	-5.45456016	-5.51758554	-22.4599536
4	400	-0.06	-0.013	-1.022	3.2085648	10.1413566	-4.0680018	-5.34569814	-5.40299394	-22.5172494
4.01	401	-0.192	-0.052	-0.953	-0.2291832	7.6776372	-4.2398892	-5.34569814	-5.3285094	-22.56308604
4.02	402	-0.271	-0.074	-0.932	-5.72958	10.7716104	-9.167328	-5.39726436	-5.23110654	-22.6604889
4.03	403	-0.236	-0.062	-0.935	-11.1153852	16.1001198	-9.3965112	-5.50612638	-5.08213746	-22.76362134
4.04	404	-0.144	0	-0.934	-14.4958374	22.2307704	-7.9068204	-5.6436363	-4.870143	-22.85529462
4.05	405	-0.064	0.026	-0.934	-15.1260912	25.3820394	-5.443101	-5.7868758	-4.62950064	-22.92977916
4.06	406	-0.026	0.043	-0.944	-15.6990492	24.7517856	-2.9793816	-5.94730404	-4.38885828	-22.9756158
4.07	407	0.03	0.068	-0.908	-14.037471	24.5226024	-0.7448454	-6.09054354	-4.14821592	-22.99853412
4.08	408	0.052	0.079	-0.872	-9.9694692	25.496631	1.8907614	-6.19940556	-3.8961144	-22.99853412
4.09	409	0.048	0.089	-0.863	-6.8182002	25.0382646	3.9534102	-6.26816052	-3.64401288	-22.98134538
4.1	410	0.002	0.105	-0.87	-4.0680018	24.9809688	5.8441716	-6.32545632	-3.3804522	-22.94123832
4.11	411	-0.023	0.115	-0.895	-0.7448454	25.3247436	8.0787078	-6.33691548	-3.1226211	-22.88394252
4.12	412	-0.059	0.14	-0.963	2.9793816	26.069589	9.6829902	-6.31399716	-2.85906042	-22.80945798
4.13	413	-0.078	0.17	-1.031	8.021412	27.0436176	9.5683986	-6.23951262	-2.578311	-22.73497344
4.14	414	-0.092	0.204	-1.103	12.4904844	29.6219286	8.880849	-6.11919144	-2.27464326	-22.67194806
4.15	415	-0.104	0.243	-1.116	17.6471064	33.518043	8.880849	-5.96449278	-1.94232762	-22.60892268
4.16	416	-0.111	0.287	-1.06	25.1528562	37.4141574	10.5424272	-5.71812084	-1.55844576	-22.53443814
4.17	417	-0.123	0.3	-0.959	31.226211	36.096354	13.2353298	-5.40299394	-1.18602306	-22.4313057
4.18	418	-0.117	0.286	-0.861	29.8511118	35.4661002	15.3552744	-5.11078536	-0.81932994	-22.30525494
4.19	419	-0.091	0.246	-0.832	22.9756158	35.6952834	16.1574156	-4.88160216	-0.45263682	-22.16774502
4.2	420	-0.044	0.177	-0.884	13.6936962	34.7785506	15.2406828	-4.76128098	-0.10313244	-22.03596468
4.21	421	0.02	0.098	-0.934	5.2139178	37.2995658	13.2926256	-4.71544434	0.26929026	-21.92710266
4.22	422	0.121	0.042	-1.031	-1.0886202	41.9978214	12.1467096	-4.73263308	0.69327918	-21.8296998
4.23	423	0.18	0.034	-1.017	4.3544808	26.1841806	11.8602306	-4.68679644	0.96256944	-21.72656736
4.24	424	0.22	-0.001	-0.925	8.3651868	18.8503182	9.6256944	-4.60658232	1.15737516	-21.64062366
4.25	425	0.273	-0.006	-0.96	1.9480572	24.7517856	5.3285094	-4.57220484	1.48396122	-21.61197576
4.26	426	0.238	0.029	-0.922	2.1199446	20.626488	4.1252976	-4.5550161	1.6902261	-21.58332786
4.27	427	0.219	0.013	-0.914	0.4583664	19.9389384	2.4064236	-4.5550161	1.8907614	-21.56613912
4.28	428	0.215	0.003	-0.932	-3.4950438	20.626488	1.718874	-4.58939358	2.0912967	-21.56040954
4.29	429	0.218	0	-0.925	-3.3231564	19.0795014	3.4950438	-4.62377106	2.28610242	-21.53176164
4.3	430	0.243	0.004	-0.935	-1.8907614	16.7876694	5.5576926	-4.62950064	2.53247436	-21.49738416
4.31	431	0.251	0.028	-0.955	-0.9167328	14.2666542	6.589017	-4.63523022	2.68144344	-21.44008836
4.32	432	0.254	0.073	-0.965	-0.1718874	11.172681	6.589017	-4.6409598	2.79603504	-21.37706298
4.33	433	0.249	0.101	-0.971	1.4896908	8.8235532	6.6463128	-4.61804148	2.88770832	-21.31976718
4.34	434	0.234	0.117	-0.974	2.578311	6.6463128	6.9900876	-4.58939358	2.96219286	-21.25101222
4.35	435	0.213	0.128	-0.979	2.86479	4.8128472	6.875496	-4.60658232	3.10543236	-21.199446
4.36	436	0.188	0.137	-1.002	2.9220858	3.6096354	6.302538	-4.57220484	3.14553942	-21.1421502
4.37	437	0.17	0.138	-1.021	3.0366774	3.0366774	5.9587632	-4.53782736	3.1799169	-21.0848544
4.38	438	0.154	0.134	-1.023	3.9534102	3.3231564	6.0733548	-4.4977203	3.22002396	-21.0275586
4.39	439	0.138	0.128	-1.012	4.6982556	3.6669312	6.5317212	-4.44615408	3.26013102	-20.96453322
4.4	440	0.13	0.126	-0.996	5.443101	3.8388186	7.0473834	-4.42323576	3.34034514	-20.90150784
4.41	441	0.116	0.13	-0.988	5.9587632	3.8388186	7.3911582	-4.36021038	3.3804522	-20.83275288
4.42	442	0.113	0.151	-0.99	6.4744254	3.4950438	7.3338624	-4.28572584	3.42628884	-20.75826834
4.43	443	0.11	0.167	-0.985	7.3911582	3.2085648	6.6463128	-4.2112413	3.46066632	-20.69524296
4.44	444	0.11	0.172	-0.972	7.6776372	3.3804522	5.72958	-4.1252976	3.50077338	-20.64367674
4.45	445	0.109	0.18	-0.968	7.5630456	3.0366774	4.5263682	-4.13102718	3.55806918	-20.60929926
4.46	446	0.113	0.179	-0.957	6.9900876	2.86479	3.724227	-4.05654264	3.59244666	-20.5691922
4.47	447	0.125	0.171	-0.955	5.3858052	3.6669312	2.6929026	-3.99924684	3.63255372	-20.54627388
4.48	448	0.139	0.16	-0.963	3.6096354	3.2658606	1.718874	-3.95913978	3.6669312	-20.52908514
4.49	449	0.148	0.153	-0.97	2.5210152	1.4896908	1.3178034	-3.93622146	3.68411994	-20.51762598
4.5	450	0.157	0.15	-0.973	1.8334656	-0.2291832	0.859437	-4.20551172	3.9247623	-20.5691922
4.51	451	0.15	0.154	-0.981	1.7761698	-1.6615782	0.3437748	-4.1825934	3.91330314	-20.56346262
4.52	452	0.122	0.169	-0.981	1.718874	-2.0626488	0.286479	-4.16540466	3.89038482	-20.55773304
4.53	453	0.094	0.174	-0.974	2.4637194	-1.8334656	0.3437748	-4.13675676	3.87319608	-20.55200346
4.54	454	0.075	0.171	-0.97	2.86479	-1.2605076	0.286479	-4.10810886	3.86173692	-20.55200346
4.55	455	0.07	0.165	-0.97	2.9220858	-0.3437748	0.3437748	-4.36593996	3.85027776	-20.5691922
4.56	456	0.071	0.157	-0.974	2.9220858	0.572958	0.6302538	-4.33156248	3.85600734	-20.56346262
4.57	457	0.08	0.15	-0.978	3.437748	1.3178034	0.859437	-4.297185	3.8674665	-20.55773304
4.58	458	0.088	0.142	-0.981	4.0680018	1.718874	0.9740286	-4.25707794	3.88465524	-20.54627388
4.59	459	0.096	0.132	-0.983	4.4690724	2.1199446	1.0886202	-4.2112413	3.90757356	-20.5405443
4.6	460	0.103	0.122	-0.987	4.8128472	2.1772404	1.2032118	-4.22270046	3.96486936	-20.5405443
4.61	461	0.112	0.106	-0.99	4.870143	2.1772404	1.145916	-4.17686382	3.98778768	-20.52908514
4.62	462	0.123	0.092	-0.988	4.0680018	2.1772404	0.6875496	-4.13102718	4.010706	-20.52335556
4.63	463	0.134	0.088	-0.984	3.151269	2.3491278	0.4583664	-4.10237928	4.03362432	-20.51762598
4.64	464	0.147	0.086	-0.979	2.3491278	2.4064236	0.286479	-4.07946096	4.06227222	-20.51762598
4.65	465	0.16	0.087	-0.979	1.718874	2.1772404	0	-4.1539455	4.28572584	-20.55200346
4.66	466	0.169	0.09	-0.978	1.3750992	1.6042824	0	-4.13675676	4.30291458	-20.55200346
4.67	467	0.174	0.092	-0.978	1.3178034	0.9740286	0	-4.1252976	4.30864416	-20.55200346
4.68	468	0.174	0.09	-0.976	1.0886202	0.4583664	0.1145916	-4.11383844	4.31437374	-20.55200346
4.69	469	0.167	0.092	-0.97	1.0313244	-0.2291832	0.2291832	-4.10237928	4.31437374	-20.54627388
4.7	470	0.164	0.093	-0.966	1.0313244	-0.5156622	0	-4.26280752	4.6409598	-20.60356968
4.71	471	0.163	0.091	-0.96	1.2032118	-0.6875496	-0.1145916	-4.25134836	4.63523022	-20.60929926
4.72	472	0.162	0.093	-0.958	1.2605076	-0.859437	-0.2291832	-4.2398892	4.62377106	-20.60929926
4.73	473	0.16	0.095	-0.958	0.9167328	-1.145916	-0.286479	-4.22843004	4.6123119	-20.60929926
4.74	474	0.159	0.101	-0.958	0.7448454	-1.6615782	-0.4010706	-4.22270046	4.59512316	-20.61502884
4.75	475	0.159	0.105	-0.962	0.5156622	-2.005353	-0.4583664	-4.3544808	4.7555514	-20.6551359
4.76	476	0.159	0.113	-0.969	0.5156622	-2.4064236	-0.3437748	-4.34875122	4.73263308	-20.66086548
4.77	477	0.159	0.118	-0.979	0.9167328	-2.8074942	-0.2291832	-4.34302164	4.70398518	-20.66086548
4.78	478	0.159	0.123	-0.988	1.3750992	-3.3231564	-0.2291832	-4.3258329	4.6696077	-20.66086548
4.79	479	0.157	0.124	-0.989	2.005353	-3.724227	-0.286479	-4.30864416	4.63523022	-20.66086548
4.8	480	0.152	0.125	-0.986	2.4064236	-3.724227	-0.4583664	-4.36021038	4.6696077	-20.6837838
4.81	481	0.145	0.125	-0.981	2.7501984	-3.6096354	-0.572958	-4.33156248	4.62950064	-20.6837838
4.82	482	0.141	0.124	-0.976	2.7501984	-3.3804522	-0.6875496	-4.30291458	4.59512316	-20.69524296
4.83	483	0.138	0.123	-0.974	2.6929026	-3.151269	-0.6302538	-4.27426668	4.56647526	-20.70097254
4.84	484	0.138	0.123	-0.978	2.6929026	-3.0939732	-0.6302538	-4.25134836	4.53209778	-20.70097254
4.85	485	0.137	0.121	-0.98	2.7501984	-3.2658606	-0.5156622	-4.30291458	4.56074568	-20.72389086
4.86	486	0.133	0.122	-0.98	2.9793816	-3.437748	-0.4583664	-4.2685371	4.5263682	-20.72389086
4.87	487	0.127	0.122	-0.977	3.3804522	-3.437748	-0.4010706	-4.23415962	4.49199072	-20.72962044
4.88	488	0.121	0.122	-0.974	3.437748	-3.2658606	-0.286479	-4.19978214	4.45761324	-20.72962044
4.89	489	0.115	0.117	-0.976	3.151269	-2.9220858	-0.4010706	-4.16540466	4.42896534	-20.73535002
4.9	490	0.111	0.113	-0.977	2.86479	-2.5210152	-0.3437748	-4.22843004	4.4404245	-20.75253876
4.91	491	0.108	0.109	-0.98	2.6929026	-2.2345362	-0.286479	-4.19978214	4.41750618	-20.75253876
4.92	492	0.105	0.108	-0.983	2.9793816	-2.1199446	-0.1145916	-4.16540466	4.40031744	-20.75253876
4.93	493	0.104	0.107	-0.982	3.2085648	-1.9480572	0.0572958	-4.13102718	4.37739912	-20.75253876
4.94	494	0.104	0.106	-0.984	3.437748	-1.8334656	0.1718874	-4.0966497	4.36021038	-20.75253876
4.95	495	0.104	0.102	-0.981	3.437748	-1.6042824	0.286479	-4.14248634	4.37739912	-20.75826834
4.96	496	0.102	0.098	-0.978	3.0939732	-1.3750992	0.3437748	-4.11383844	4.36021038	-20.75253876
4.97	497	0.102	0.095	-0.975	2.6356068	-0.859437	0.4010706	-4.08519054	4.3544808	-20.75253876
4.98	498	0.104	0.094	-0.974	2.0626488	-0.3437748	0.3437748	-4.06227222	4.34875122	-20.74680918
4.99	499	0.11	0.095	-0.977	1.718874	0	0.3437748	-4.04508348	4.3544808	-20.7410796
5	500	0.115	0.096	-0.978	1.432395	0.2291832	0.4010706	-4.18832298	4.4690724	-20.7697275
5.01	501	0.121	0.099	-0.98	1.3750992	0.286479	0.4010706	-4.17686382	4.47480198	-20.76399792
5.02	502	0.123	0.099	-0.979	1.5469866	0.3437748	0.3437748	-4.15967508	4.47480198	-20.75826834
5.03	503	0.124	0.1	-0.979	1.9480572	0.3437748	0.4010706	-4.13675676	4.48053156	-20.75826834
5.04	504	0.125	0.098	-0.978	2.1199446	0.5156622	0.4583664	-4.11383844	4.48626114	-20.75253876
5.05	505	0.127	0.098	-0.977	1.9480572	0.8021412	0.4010706	-4.2112413	4.60085274	-20.7697275
5.06	506	0.129	0.1	-0.977	1.718874	0.859437	0.4583664	-4.19405256	4.60658232	-20.7697275
5.07	507	0.13	0.099	-0.978	1.6615782	0.9167328	0.3437748	-4.17686382	4.61804148	-20.76399792
5.08	508	0.132	0.1	-0.978	1.718874	0.9740286	0.4010706	-4.1539455	4.62950064	-20.75826834
5.09	509	0.134	0.101	-0.975	1.9480572	1.0313244	0.4010706	-4.13675676	4.6409598	-20.75826834
5.1	510	0.136	0.102	-0.974	2.1199446	1.0886202	0.4010706	-4.21697088	4.7555514	-20.77545708
5.11	511	0.14	0.1	-0.974	2.1772404	1.0313244	0.4010706	-4.19405256	4.76701056	-20.7697275
5.12	512	0.144	0.101	-0.976	1.9480572	0.9740286	0.5156622	-4.17686382	4.77274014	-20.7697275
5.13	513	0.145	0.101	-0.975	1.7761698	0.572958	0.572958	-4.15967508	4.77846972	-20.76399792
5.14	514	0.143	0.101	-0.976	1.7761698	0.1145916	0.6302538	-4.13675676	4.7841993	-20.75826834
5.15	515	0.14	0.1	-0.976	1.7761698	-0.1718874	0.6875496	-4.24561878	4.8987909	-20.77545708
5.16	516	0.136	0.101	-0.977	1.9480572	-0.4010706	0.6302538	-4.22270046	4.8987909	-20.7697275
5.17	517	0.134	0.099	-0.974	2.1199446	-0.4583664	0.5156622	-4.19978214	4.89306132	-20.76399792
5.18	518	0.134	0.095	-0.974	2.1772404	-0.4010706	0.4583664	-4.17686382	4.88733174	-20.75826834
5.19	519	0.135	0.1	-0.976	1.8907614	-0.4010706	0.3437748	-4.15967508	4.88733174	-20.75253876
5.2	520	0.134	0.099	-0.975	2.0626488	-0.7448454	0.286479	-4.2398892	4.97327544	-20.77545708
5.21	521	0.133	0.096	-0.977	2.005353	-0.7448454	0.3437748	-4.22270046	4.96754586	-20.7697275
5.22	522	0.13	0.095	-0.977	1.9480572	-0.8021412	0.3437748	-4.19978214	4.96181628	-20.76399792
5.23	523	0.128	0.093	-0.976	1.8334656	-0.9167328	0.3437748	-4.1825934	4.95035712	-20.76399792
5.24	524	0.126	0.092	-0.975	1.718874	-0.7448454	0.4010706	-4.15967508	4.94462754	-20.75826834
5.25	525	0.126	0.091	-0.976	1.7761698	-0.6302538	0.4010706	-4.25707794	5.03057124	-20.77545708
5.26	526	0.126	0.09	-0.976	1.718874	-0.572958	0.3437748	-4.2398892	5.02484166	-20.7697275
5.27	527	0.127	0.092	-0.977	1.718874	-0.6302538	0.286479	-4.22270046	5.01911208	-20.7697275
5.28	528	0.126	0.09	-0.978	1.718874	-0.6875496	0.2291832	-4.20551172	5.0133825	-20.76399792
5.29	529	0.126	0.089	-0.975	1.6615782	-0.6302538	0.2291832	-4.18832298	5.00765292	-20.76399792
5.3	530	0.124	0.089	-0.973	1.5469866	-0.572958	0.286479	-4.29145542	5.09359662	-20.78118666
5.31	531	0.124	0.089	-0.972	1.432395	-0.4010706	0.3437748	-4.27426668	5.08786704	-20.78118666
5.32	532	0.123	0.089	-0.973	1.145916	-0.2291832	0.4010706	-4.26280752	5.08786704	-20.77545708
5.33	533	0.126	0.09	-0.973	0.9740286	-0.1145916	0.5156622	-4.25134836	5.08786704	-20.7697275
5.34	534	0.126	0.089	-0.971	0.859437	-0.0572958	0.5156622	-4.24561878	5.08786704	-20.76399792
5.35	535	0.127	0.088	-0.969	0.7448454	-0.1145916	0.5156622	-4.4117766	5.24829528	-20.7983754
5.36	536	0.127	0.088	-0.966	0.5156622	-0.0572958	0.5156622	-4.40604702	5.24829528	-20.79264582
5.37	537	0.126	0.091	-0.965	0.5156622	-0.1145916	0.4010706	-4.40031744	5.24829528	-20.78691624
5.38	538	0.127	0.092	-0.963	0.4010706	0.0572958	0.4010706	-4.39458786	5.24829528	-20.78118666
5.39	539	0.127	0.092	-0.964	0.2291832	0.286479	0.4583664	-4.39458786	5.24829528	-20.78118666
5.4	540	0.127	0.092	-0.967	0	0.286479	0.3437748	-4.68679644	5.47747848	-20.83275288
5.41	541	0.13	0.091	-0.969	0	0.4010706	0.4010706	-4.68679644	5.48320806	-20.83275288
5.42	542	0.132	0.09	-0.972	0.1145916	0.1718874	0.4583664	-4.68679644	5.48893764	-20.8270233
5.43	543	0.136	0.089	-0.976	0.1718874	-0.0572958	0.4010706	-4.68106686	5.48893764	-20.82129372
5.44	544	0.137	0.09	-0.977	0.0572958	-0.2291832	0.286479	-4.68106686	5.48320806	-20.81556414
5.45	545	0.138	0.091	-0.981	0.1718874	-0.4583664	0.286479	-4.85868384	5.67801378	-20.8556712
5.46	546	0.137	0.09	-0.982	0.1718874	-0.6875496	0.2291832	-4.85868384	5.6722842	-20.8556712
5.47	547	0.136	0.088	-0.981	0.1145916	-0.572958	0.1145916	-4.85868384	5.66082504	-20.84994162
5.48	548	0.141	0.088	-0.981	-0.0572958	-0.286479	0.1145916	-4.85868384	5.66082504	-20.84994162
5.49	549	0.144	0.089	-0.981	-0.3437748	-0.572958	0.1145916	-4.85868384	5.65509546	-20.84994162
5.5	550	0.144	0.09	-0.979	-0.286479	-1.0313244	0.2291832	-4.96181628	5.78114622	-20.86713036
5.51	551	0.139	0.092	-0.977	-0.2291832	-1.0313244	0.3437748	-4.96181628	5.76968706	-20.86713036
5.52	552	0.132	0.093	-0.974	-0.2291832	-1.0886202	0.4583664	-4.96754586	5.7582279	-20.86140078
5.53	553	0.13	0.093	-0.973	-0.2291832	-0.859437	0.3437748	-4.96754586	5.75249832	-20.8556712
5.54	554	0.132	0.092	-0.971	-0.0572958	-0.572958	0.2291832	-4.96754586	5.74676874	-20.84994162
5.55	555	0.134	0.09	-0.969	-0.1718874	-0.4583664	0.286479	-5.10505578	5.8728195	-20.87858952
5.56	556	0.133	0.09	-0.97	-0.7448454	-0.572958	0.1718874	-5.11078536	5.86708992	-20.87858952
5.57	557	0.132	0.09	-0.973	-1.145916	-0.9167328	0.2291832	-5.12224452	5.85563076	-20.87285994
5.58	558	0.13	0.091	-0.976	-1.145916	-1.0886202	0.1718874	-5.13370368	5.84990118	-20.87285994
5.59	559	0.129	0.091	-0.977	-1.0313244	-1.0313244	0.1718874	-5.14516284	5.83844202	-20.86713036
5.6	560	0.127	0.092	-0.979	-0.8021412	-0.9167328	0.3437748	-5.21964738	5.8728195	-20.87858952
5.61	561	0.125	0.091	-0.979	-0.5156622	-0.859437	0.4583664	-5.22537696	5.86708992	-20.87285994
5.62	562	0.125	0.09	-0.98	-0.4010706	-0.8021412	0.4010706	-5.23110654	5.85563076	-20.86713036
5.63	563	0.125	0.091	-0.981	-0.3437748	-0.572958	0.4583664	-5.23110654	5.84990118	-20.86140078
5.64	564	0.126	0.094	-0.982	-0.2291832	-0.4583664	0.3437748	-5.23683612	5.84990118	-20.8556712
5.65	565	0.127	0.098	-0.979	-0.1718874	-0.4583664	0.286479	-5.39726436	5.93584488	-20.8843191
5.66	566	0.127	0.098	-0.977	0.0572958	-0.572958	0.286479	-5.39726436	5.9301153	-20.8843191
5.67	567	0.128	0.097	-0.975	0.1145916	-0.6302538	0.2291832	-5.39153478	5.92438572	-20.87858952
5.68	568	0.127	0.097	-0.975	0.0572958	-0.572958	0.3437748	-5.39153478	5.91865614	-20.87285994
5.69	569	0.128	0.094	-0.976	0	-0.5156622	0.3437748	-5.39153478	5.91292656	-20.87285994
5.7	570	0.128	0.093	-0.977	-0.1718874	-0.4583664	0.286479	-5.49466722	5.9874111	-20.89004868
5.71	571	0.128	0.094	-0.977	-0.286479	-0.4010706	0.286479	-5.49466722	5.9874111	-20.8843191
5.72	572	0.129	0.093	-0.979	-0.1145916	-0.3437748	0.1718874	-5.5003968	5.98168152	-20.8843191
5.73	573	0.13	0.094	-0.98	0	-0.1718874	0.1145916	-5.5003968	5.98168152	-20.87858952
5.74	574	0.132	0.092	-0.982	0	-0.1718874	0.2291832	-5.5003968	5.97595194	-20.87858952
5.75	575	0.133	0.09	-0.979	0	-0.2291832	0.2291832	-5.62644756	6.15356892	-20.90723742
5.76	576	0.133	0.09	-0.977	0.0572958	-0.3437748	0.2291832	-5.62644756	6.15356892	-20.90723742
5.77	577	0.132	0.089	-0.977	0.1145916	-0.3437748	0.2291832	-5.62644756	6.14783934	-20.90150784
5.78	578	0.131	0.091	-0.974	0.2291832	-0.0572958	0.0572958	-5.62071798	6.14783934	-20.90150784
5.79	579	0.131	0.09	-0.973	0.1145916	0.286479	0	-5.62071798	6.14783934	-20.90150784
5.8	580	0.13	0.091	-0.975	-0.1145916	0.286479	0	-5.83844202	6.3311859	-20.94734448
5.81	581	0.129	0.093	-0.976	0	0.3437748	0.0572958	-5.83844202	6.33691548	-20.94734448
5.82	582	0.129	0.091	-0.977	0.2291832	0.4010706	0.0572958	-5.83271244	6.34264506	-20.94734448
5.83	583	0.13	0.091	-0.977	0.286479	0.5156622	0	-5.83271244	6.34837464	-20.94734448
5.84	584	0.133	0.091	-0.978	0.1718874	0.5156622	0	-5.82698286	6.35410422	-20.94734448
5.85	585	0.134	0.091	-0.98	0.1145916	0.2291832	0	-5.92438572	6.49161414	-20.9702628
5.86	586	0.133	0.091	-0.979	0.1145916	0.1718874	0.1145916	-5.92438572	6.49734372	-20.9702628
5.87	587	0.132	0.093	-0.977	0.2291832	0.2291832	0.1145916	-5.91865614	6.49734372	-20.9702628
5.88	588	0.132	0.092	-0.976	0.1718874	0.2291832	0.1145916	-5.91865614	6.5030733	-20.96453322
5.89	589	0.132	0.094	-0.979	0.1145916	0.1718874	0.1145916	-5.91865614	6.5030733	-20.96453322
5.9	590	0.133	0.094	-0.981	0.1145916	0.1718874	0.1718874	-6.01032942	6.57182826	-20.98172196
5.91	591	0.131	0.095	-0.98	0.0572958	0.2291832	0.1718874	-6.00459984	6.57755784	-20.98172196
5.92	592	0.13	0.095	-0.979	0.1718874	0.286479	0.1145916	-6.00459984	6.57755784	-20.98172196
5.93	593	0.129	0.096	-0.977	0.1145916	0.286479	0.1145916	-6.00459984	6.58328742	-20.98172196
5.94	594	0.131	0.095	-0.976	0.1718874	0.2291832	0.1718874	-6.00459984	6.58328742	-20.97599238
5.95	595	0.131	0.096	-0.977	0.0572958	0.1145916	0.0572958	-6.14210976	6.66350154	-21.00464028
5.96	596	0.131	0.096	-0.976	0	0.2291832	0.1145916	-6.13638018	6.66350154	-21.00464028
5.97	597	0.129	0.096	-0.975	0	0.1145916	0.1145916	-6.13638018	6.66350154	-21.00464028
5.98	598	0.13	0.096	-0.975	0.0572958	0.1718874	0.1145916	-6.13638018	6.66923112	-20.9989107
5.99	599	0.13	0.094	-0.976	-0.1145916	0	0.0572958	-6.13638018	6.66923112	-20.9989107
6	600	0.131	0.093	-0.977	-0.0572958	0	0	-6.2452422	6.74944524	-21.02182902
6.01	601	0.131	0.094	-0.978	-0.1145916	0.1145916	0	-6.2452422	6.74944524	-21.02182902
6.02	602	0.131	0.093	-0.977	-0.1145916	0.1145916	0	-6.2452422	6.74944524	-21.02182902
6.03	603	0.131	0.092	-0.976	-0.1718874	0.1145916	0	-6.25097178	6.75517482	-21.02182902
6.04	604	0.132	0.092	-0.978	-0.1718874	0.0572958	0	-6.25097178	6.75517482	-21.02182902
6.05	605	0.133	0.091	-0.98	-0.2291832	0.1145916	0	-6.29107884	6.80101146	-21.03328818
6.06	606	0.133	0.093	-0.979	-0.1718874	0	0	-6.29107884	6.80101146	-21.03328818
6.07	607	0.133	0.092	-0.98	-0.0572958	0	0	-6.29107884	6.80101146	-21.03328818
6.08	608	0.131	0.094	-0.977	0	0	0	-6.29107884	6.80101146	-21.03328818
6.09	609	0.132	0.093	-0.976	0	0	0	-6.29107884	6.80101146	-21.03328818
6.1	610	0.132	0.093	-0.979	-0.1718874	0	-0.0572958	-6.33691548	6.85257768	-21.04474734
6.11	611	0.133	0.092	-0.978	-0.2291832	0	-0.0572958	-6.34264506	6.85257768	-21.04474734
6.12	612	0.133	0.092	-0.979	-0.1145916	0	0	-6.34264506	6.85257768	-21.04474734
6.13	613	0.134	0.094	-0.977	0	-0.1145916	0	-6.34264506	6.85257768	-21.04474734
6.14	614	0.135	0.092	-0.975	0	-0.0572958	-0.0572958	-6.34264506	6.85257768	-21.04474734
6.15	615	0.135	0.093	-0.974	0	-0.1145916	-0.0572958	-6.37702254	6.89841432	-21.0562065
6.16	616	0.135	0.094	-0.977	0	-0.0572958	-0.0572958	-6.37702254	6.89841432	-21.0562065
6.17	617	0.135	0.093	-0.979	-0.1718874	-0.0572958	0	-6.38275212	6.89841432	-21.0562065
6.18	618	0.135	0.094	-0.979	-0.1145916	-0.1718874	0.0572958	-6.38275212	6.89841432	-21.05047692
6.19	619	0.135	0.094	-0.979	0	-0.2291832	0.0572958	-6.38275212	6.89268474	-21.05047692
6.2	620	0.134	0.095	-0.978	-0.0572958	-0.2291832	0.1145916	-6.40567044	6.91560306	-21.0562065
6.21	621	0.133	0.094	-0.977	0	-0.572958	0.1718874	-6.40567044	6.90987348	-21.05047692
6.22	622	0.131	0.095	-0.976	-0.1718874	-0.6875496	0.1718874	-6.40567044	6.9041439	-21.05047692
6.23	623	0.13	0.096	-0.975	-0.1718874	-0.859437	0.1718874	-6.41140002	6.89841432	-21.05047692
6.24	624	0.129	0.097	-0.976	-0.286479	-0.9740286	0.0572958	-6.41140002	6.88695516	-21.04474734
6.25	625	0.127	0.097	-0.977	-0.2291832	-0.859437	0.0572958	-6.43431834	6.875496	-21.05047692
6.26	626	0.129	0.097	-0.977	-0.1718874	-0.6875496	0.0572958	-6.43431834	6.86976642	-21.04474734
6.27	627	0.129	0.095	-0.977	-0.1718874	-0.4583664	0.0572958	-6.44004792	6.86403684	-21.04474734
6.28	628	0.131	0.094	-0.977	-0.2291832	-0.4583664	0.0572958	-6.44004792	6.85830726	-21.04474734
6.29	629	0.131	0.094	-0.979	-0.3437748	-0.4583664	0.1718874	-6.4457775	6.85257768	-21.03901776
6.3	630	0.131	0.094	-0.98	-0.286479	-0.2291832	0.1718874	-6.45723666	6.86403684	-21.04474734
6.31	631	0.129	0.095	-0.978	-0.286479	-0.1718874	0.0572958	-6.46296624	6.86403684	-21.03901776
6.32	632	0.128	0.095	-0.979	-0.286479	0.0572958	0.1145916	-6.46296624	6.86403684	-21.03901776
6.33	633	0.129	0.096	-0.978	-0.1718874	0.2291832	0.0572958	-6.46869582	6.86403684	-21.03901776
6.34	634	0.13	0.096	-0.978	-0.1718874	0.2291832	0.0572958	-6.46869582	6.86976642	-21.03901776
6.35	635	0.13	0.094	-0.978	-0.1718874	0.3437748	0	-6.49161414	6.88695516	-21.04474734
6.36	636	0.131	0.095	-0.979	-0.1145916	0.286479	0	-6.49161414	6.89268474	-21.04474734
6.37	637	0.131	0.095	-0.978	-0.1145916	0.1718874	0	-6.49161414	6.89268474	-21.04474734
6.38	638	0.132	0.096	-0.979	-0.2291832	0.3437748	0.0572958	-6.49734372	6.89841432	-21.04474734
6.39	639	0.133	0.096	-0.979	-0.1718874	0.286479	0	-6.49734372	6.89841432	-21.03901776
6.4	640	0.134	0.096	-0.979	-0.2291832	0.1718874	0	-6.53745078	6.94425096	-21.05047692
6.41	641	0.135	0.097	-0.98	-0.1718874	0.1145916	0	-6.53745078	6.94425096	-21.05047692
6.42	642	0.135	0.097	-0.979	-0.0572958	0	-0.0572958	-6.53745078	6.94425096	-21.05047692
6.43	643	0.135	0.097	-0.977	0	-0.1145916	-0.0572958	-6.53745078	6.94425096	-21.05047692
6.44	644	0.135	0.096	-0.976	0.2291832	-0.1145916	-0.1145916	-6.53745078	6.94425096	-21.0562065
6.45	645	0.136	0.094	-0.974	0.2291832	-0.1145916	-0.0572958	-6.54318036	6.97289886	-21.0562065
6.46	646	0.137	0.093	-0.973	-0.0572958	-0.0572958	0	-6.54318036	6.97289886	-21.0562065
6.47	647	0.136	0.093	-0.972	-0.5156622	-0.2291832	0	-6.54890994	6.96716928	-21.0562065
6.48	648	0.133	0.093	-0.973	-0.9167328	-0.3437748	-0.1145916	-6.5603691	6.96716928	-21.0562065
6.49	649	0.132	0.093	-0.974	-1.145916	-0.286479	-0.1718874	-6.57182826	6.9614397	-21.0562065
6.5	650	0.131	0.095	-0.976	-1.2605076	-0.1145916	-0.2291832	-6.589017	6.9614397	-21.06193608
6.51	651	0.131	0.095	-0.98	-1.0886202	-0.1145916	-0.0572958	-6.60047616	6.9614397	-21.06193608
6.52	652	0.134	0.095	-0.982	-0.7448454	-0.286479	0	-6.60620574	6.95571012	-21.06193608
6.53	653	0.134	0.097	-0.983	-0.2291832	-0.2291832	0	-6.61193532	6.95571012	-21.06193608
6.54	654	0.133	0.1	-0.979	0.1145916	-0.286479	-0.0572958	-6.60620574	6.94998054	-21.06193608
6.55	655	0.13	0.102	-0.979	0.4010706	-0.2291832	-0.0572958	-6.63485364	6.95571012	-21.06766566
6.56	656	0.13	0.102	-0.978	0.572958	-0.1718874	-0.0572958	-6.62912406	6.94998054	-21.06766566
6.57	657	0.13	0.103	-0.979	0.5156622	-0.0572958	-0.1718874	-6.62339448	6.94998054	-21.07339524
6.58	658	0.131	0.101	-0.98	0.4010706	0	-0.2291832	-6.6176649	6.94998054	-21.07339524
6.59	659	0.132	0.101	-0.982	0.4583664	0.0572958	-0.1718874	-6.61193532	6.94998054	-21.07912482
6.6	660	0.131	0.101	-0.982	0.572958	0	-0.0572958	-6.63485364	6.95571012	-21.0848544
6.61	661	0.13	0.101	-0.981	0.8021412	0.0572958	-0.0572958	-6.62339448	6.95571012	-21.0848544
6.62	662	0.13	0.099	-0.982	0.859437	0.1718874	-0.0572958	-6.6176649	6.95571012	-21.0848544
6.63	663	0.128	0.1	-0.983	0.9740286	0.286479	-0.0572958	-6.60620574	6.9614397	-21.0848544
6.64	664	0.128	0.1	-0.983	1.0313244	0.3437748	-0.1145916	-6.59474658	6.96716928	-21.0848544
6.65	665	0.131	0.1	-0.983	1.0886202	0.4583664	-0.1145916	-6.59474658	6.97289886	-21.09058398
6.66	666	0.134	0.099	-0.983	1.2605076	0.3437748	-0.2291832	-6.58328742	6.97862844	-21.09631356
6.67	667	0.136	0.101	-0.985	1.3178034	0.2291832	-0.2291832	-6.57182826	6.97862844	-21.09631356
6.68	668	0.137	0.097	-0.988	1.3178034	-0.0572958	-0.3437748	-6.55463952	6.97862844	-21.10204314
6.69	669	0.137	0.096	-0.991	1.2032118	-0.3437748	-0.4583664	-6.54318036	6.97289886	-21.10777272
6.7	670	0.137	0.095	-0.991	1.2605076	-0.4583664	-0.3437748	-6.53745078	6.97862844	-21.1135023
6.71	671	0.136	0.096	-0.991	1.2032118	-0.5156622	-0.4010706	-6.52599162	6.97289886	-21.1135023
6.72	672	0.132	0.097	-0.989	1.2605076	-0.6875496	-0.4010706	-6.50880288	6.9614397	-21.11923188
6.73	673	0.13	0.097	-0.987	1.3750992	-0.6875496	-0.4583664	-6.49734372	6.95571012	-21.12496146
6.74	674	0.129	0.097	-0.983	1.4896908	-0.6302538	-0.5156622	-6.48015498	6.94998054	-21.12496146
6.75	675	0.128	0.098	-0.979	1.4896908	-0.5156622	-0.5156622	-6.4744254	6.94425096	-21.13642062
6.76	676	0.128	0.098	-0.976	1.432395	-0.4583664	-0.572958	-6.46296624	6.93852138	-21.1421502
6.77	677	0.128	0.097	-0.977	1.432395	-0.3437748	-0.572958	-6.4457775	6.9327918	-21.14787978
6.78	678	0.128	0.097	-0.974	1.432395	-0.1718874	-0.572958	-6.43431834	6.9327918	-21.15360936
6.79	679	0.129	0.096	-0.975	1.4896908	-0.1145916	-0.4583664	-6.4171296	6.92706222	-21.15933894
6.8	680	0.129	0.095	-0.977	1.4896908	0	-0.4583664	-6.41140002	6.9327918	-21.16506852
6.81	681	0.131	0.097	-0.977	1.432395	0	-0.4583664	-6.39421128	6.9327918	-21.16506852
