TimeStamp(s)	FrameCounter	AccX	AccY	AccZ	GyrX	GyrY	GyrZ	EulerX	EulerY	EulerZ
0.01	1	-0.126	-0.998	-0.047	-3.8388186	-1.432395	-0.1145916	87.376095	-3.13980984	-60.9913791
0.02	2	-0.157	-0.984	-0.066	-5.0420304	-1.0886202	0.5156622	87.32452878	-3.14553942	-61.00283826
0.03	3	-0.159	-0.98	-0.071	-5.0420304	0.1145916	0.4010706	87.27296256	-3.151269	-61.00283826
0.04	4	-0.156	-0.98	-0.076	-4.8128472	1.3750992	0.3437748	87.22139634	-3.15699858	-60.9913791
0.05	5	-0.149	-0.984	-0.081	-4.4117766	2.5210152	0.4010706	87.1469118	-3.20283522	-60.97419036
0.06	6	-0.136	-0.99	-0.081	-4.0680018	3.0939732	0.572958	87.10107516	-3.2085648	-60.93981288
0.07	7	-0.125	-0.993	-0.083	-3.9534102	3.4950438	0.5156622	87.0609681	-3.21429438	-60.9054354
0.08	8	-0.117	-0.99	-0.082	-3.8961144	3.3804522	0.286479	87.01513146	-3.21429438	-60.87105792
0.09	9	-0.115	-0.989	-0.087	-3.9534102	2.9220858	-0.0572958	86.9750244	-3.21429438	-60.84241002
0.1	10	-0.114	-0.987	-0.099	-3.6096354	3.6096354	-0.2291832	86.89481028	-3.2372127	-60.8194917
0.11	11	-0.111	-0.987	-0.093	-2.9793816	5.6722842	-0.5156622	86.8604328	-3.23148312	-60.7621959
0.12	12	-0.115	-0.985	-0.079	-3.724227	6.4171296	-1.0313244	86.82032574	-3.22002396	-60.69917052
0.13	13	-0.124	-0.988	-0.076	-4.9847346	6.0733548	-1.3750992	86.76302994	-3.20283522	-60.64187472
0.14	14	-0.13	-0.994	-0.082	-5.8441716	6.4171296	-1.718874	86.70000456	-3.18564648	-60.57884934
0.15	15	-0.13	-0.993	-0.081	-5.6149884	8.307891	-1.9480572	86.62552002	-3.1799169	-60.49863522
0.16	16	-0.135	-0.982	-0.077	-4.583664	10.3705398	-1.7761698	86.56822422	-3.16272816	-60.39550278
0.17	17	-0.136	-0.977	-0.074	-2.291832	12.8342592	-1.718874	86.53957632	-3.13980984	-60.26945202
0.18	18	-0.127	-0.973	-0.062	-1.432395	15.469866	-1.3178034	86.51092842	-3.1226211	-60.12048294
0.19	19	-0.108	-0.976	-0.058	-0.6302538	17.0741484	-0.572958	86.49373968	-3.11116194	-59.94859554
0.2	20	-0.09	-0.985	-0.049	-1.2032118	18.4492476	0.2291832	86.46509178	-3.11116194	-59.77097856
0.21	21	-0.086	-0.987	-0.05	-2.8074942	19.5951636	1.2605076	86.42498472	-3.11689152	-59.57617284
0.22	22	-0.091	-0.995	-0.052	-3.8388186	21.0275586	1.8907614	86.3734185	-3.12835068	-59.36417838
0.23	23	-0.093	-1.009	-0.047	-4.9847346	22.4026578	1.7761698	86.30466354	-3.13980984	-59.14072476
0.24	24	-0.095	-1.03	-0.046	-6.875496	23.8350528	1.145916	86.21871984	-3.14553942	-58.90581198
0.25	25	-0.101	-1.043	-0.052	-8.5370742	25.8404058	0.3437748	86.1155874	-3.13980984	-58.65371046
0.26	26	-0.098	-1.044	-0.052	-9.5683986	28.4760126	-0.3437748	86.0009958	-3.12835068	-58.37296104
0.27	27	-0.091	-1.041	-0.046	-10.3705398	31.1116194	-1.432395	85.86921546	-3.09970278	-58.06356372
0.28	28	-0.086	-1.036	-0.042	-11.172681	33.804522	-2.7501984	85.73743512	-3.05959572	-57.73124808
0.29	29	-0.082	-1.033	-0.037	-11.9175264	36.8411994	-4.2398892	85.58846604	-3.00229992	-57.37028454
0.3	30	-0.069	-1.036	-0.035	-12.318597	39.9924684	-5.7868758	85.43949696	-2.9220858	-56.9806731
0.31	31	-0.056	-1.037	-0.031	-12.605076	42.97185	-7.1046792	85.2847983	-2.83041252	-56.56241376
0.32	32	-0.037	-1.034	-0.019	-12.4904844	45.0917946	-7.8495246	85.13009964	-2.73300966	-56.12696568
0.33	33	-0.011	-1.029	-0.012	-12.6623718	45.9512316	-8.1932994	84.97540098	-2.62414764	-55.68005844
0.34	34	0.025	-1.024	-0.013	-12.605076	45.9512316	-8.7662574	84.82070232	-2.50955604	-55.2331512
0.35	35	0.056	-1.016	-0.012	-12.032118	44.977203	-9.2819196	84.67746282	-2.38350528	-54.79770312
0.36	36	0.069	-1.008	-0.005	-11.2872726	43.0291458	-9.8548776	84.5399529	-2.25745452	-54.38517336
0.37	37	0.071	-1.006	0	-11.0580894	40.3362432	-10.1413566	84.40817256	-2.13140376	-53.99556192
0.38	38	0.07	-1.009	0.005	-10.8289062	37.24227	-10.1413566	84.2821218	-2.005353	-53.64032796
0.39	39	0.06	-1.015	0.008	-11.2872726	33.804522	-10.2559482	84.15034146	-1.87930224	-53.31947148
0.4	40	0.048	-1.024	0.004	-11.9175264	30.939732	-10.599723	84.0242907	-1.7475219	-53.02153332
0.41	41	0.041	-1.038	-0.008	-12.9488508	29.1062664	-11.45916	83.8810512	-1.61001198	-52.74651348
0.42	42	0.034	-1.044	-0.022	-13.5218088	28.6479	-12.2040054	83.73208212	-1.47250206	-52.47722322
0.43	43	0.035	-1.029	-0.031	-13.3499214	29.2781538	-12.2040054	83.58311304	-1.32353298	-52.20793296
0.44	44	0.039	-1.006	-0.041	-13.0634424	29.5646328	-11.6310474	83.43987354	-1.18602306	-51.92718354
0.45	45	0.04	-0.987	-0.038	-13.1207382	29.0489706	-10.6570188	83.30236362	-1.05424272	-51.6521637
0.46	46	0.056	-0.982	-0.033	-12.605076	29.6219286	-10.0840608	83.1648537	-0.92819196	-51.37714386
0.47	47	0.064	-0.972	-0.042	-13.750992	29.8511118	-9.6829902	83.01588462	-0.80787078	-51.09639444
0.48	48	0.072	-0.961	-0.047	-13.8082878	29.6219286	-8.59437	82.86691554	-0.69327918	-50.81564502
0.49	49	0.08	-0.955	-0.052	-13.4072172	28.4760126	-7.734933	82.72367604	-0.59014674	-50.54635476
0.5	50	0.09	-0.955	-0.057	-12.0894138	27.3300966	-7.2765666	82.60335486	-0.48128472	-50.28279408
0.51	51	0.096	-0.948	-0.04	-10.1413566	25.3820394	-6.875496	82.49449284	-0.38961144	-50.0478813
0.52	52	0.09	-0.954	-0.025	-9.1100322	21.8296998	-6.7609044	82.39708998	-0.30366774	-49.84161642
0.53	53	0.088	-0.96	-0.015	-8.4797784	18.7930224	-6.589017	82.3054167	-0.21772404	-49.66399944
0.54	54	0.082	-0.965	-0.01	-7.6776372	16.042824	-6.1306506	82.22520258	-0.1432395	-49.51503036
0.55	55	0.077	-0.973	-0.011	-6.875496	13.464513	-5.5003968	82.17363636	-0.0572958	-49.3889796
0.56	56	0.078	-0.976	-0.004	-6.016059	10.7716104	-4.4690724	82.11061098	-0.00572958	-49.28584716
0.57	57	0.082	-0.972	-0.001	-5.0993262	7.1046792	-3.151269	82.05904476	0.0286479	-49.22282178
0.58	58	0.089	-0.964	0.007	-3.8961144	3.4950438	-1.4896908	82.0189377	0.04583664	-49.1884443
0.59	59	0.09	-0.96	0.027	-3.3231564	-0.3437748	-0.1145916	81.98456022	0.04583664	-49.19417388
0.6	60	0.091	-0.96	0.043	-2.9220858	-4.7555514	0.6302538	82.02466728	0.07448454	-49.22855136
0.61	61	0.095	-0.961	0.056	-2.8074942	-9.167328	0.859437	82.00174896	0.0572958	-49.31449506
0.62	62	0.098	-0.967	0.064	-3.437748	-13.1207382	1.2032118	81.96737148	0.0286479	-49.4462754
0.63	63	0.111	-0.979	0.063	-5.5003968	-17.0168526	1.432395	81.91007568	0	-49.61243322
0.64	64	0.13	-0.994	0.051	-7.161975	-20.6837838	2.1199446	81.84132072	-0.04583664	-49.81296852
0.65	65	0.134	-1.01	0.04	-8.7662574	-24.5226024	2.9793816	81.77829534	-0.0859437	-50.0478813
0.66	66	0.147	-1.031	0.015	-10.026765	-28.7624916	3.2085648	81.68089248	-0.15469866	-50.32290114
0.67	67	0.15	-1.048	-0.01	-11.45916	-32.5440144	4.2398892	81.56630088	-0.23491278	-50.63802804
0.68	68	0.151	-1.047	-0.034	-12.1467096	-35.6379876	5.3285094	81.45170928	-0.32658606	-50.98180284
0.69	69	0.136	-1.042	-0.068	-12.9488508	-36.7266078	6.1879464	81.32565852	-0.43544808	-51.3370368
0.7	70	0.112	-1.027	-0.08	-12.032118	-38.388186	7.161975	81.2167965	-0.5443101	-51.70372992
0.71	71	0.087	-1.008	-0.062	-8.7089616	-41.3675676	8.3651868	81.13658238	-0.68182002	-52.09907094
0.72	72	0.091	-0.998	-0.003	-4.583664	-46.0085274	8.9381448	81.1022049	-0.82505952	-52.53451902
0.73	73	0.117	-1.023	0.051	0.4583664	-51.1651494	7.0473834	81.12512322	-0.96256944	-53.0272629
0.74	74	0.147	-1.117	0.024	1.3178034	-57.009321	1.8907614	81.15377112	-1.04851314	-53.58303216
0.75	75	-0.023	-1.363	-0.299	-15.4125702	-63.02538	-8.6516658	81.0162612	-1.04851314	-54.21328596
0.76	76	-0.111	-1.48	-0.167	7.161975	-49.2170922	-17.6471064	81.1022049	-0.93392154	-54.72321858
0.77	77	-0.094	-1.468	-0.164	8.021412	-46.696077	-18.6784308	81.19960776	-0.81360036	-55.21023288
0.78	78	-0.146	-1.443	-0.15	5.3858052	-38.2162986	-14.896908	81.26263314	-0.71046792	-55.6055739
0.79	79	-0.187	-1.375	-0.192	6.589017	-21.4286292	-10.313244	81.33711768	-0.63598338	-55.8347571
0.8	80	-0.143	-1.255	-0.248	5.3858052	-16.3865988	-3.2658606	81.38295432	-0.6302538	-56.00091492
0.81	81	-0.053	-1.145	-0.228	9.6256944	-21.4286292	4.5263682	81.48608676	-0.69900876	-56.20145022
0.82	82	0.089	-1.07	-0.156	11.2299768	-26.7571386	11.3445684	81.61213752	-0.84224826	-56.44782216
0.83	83	0.194	-1.026	-0.165	9.7975818	-32.4867186	13.0061466	81.72099954	-1.00840608	-56.74576032
0.84	84	0.246	-1.012	-0.2	8.8235532	-45.3782736	11.6310474	81.82413198	-1.16883432	-57.17547882
0.85	85	0.252	-0.991	-0.188	8.1932994	-59.9887026	9.1100322	81.92153484	-1.31207382	-57.7541664
0.86	86	0.208	-0.943	-0.196	8.1360036	-71.906229	5.5003968	82.03039686	-1.44385416	-58.45317516
0.87	87	0.073	-0.878	-0.217	5.3858052	-77.5212174	2.1772404	82.11634056	-1.55271618	-59.20947972
0.88	88	-0.122	-0.793	-0.239	2.578311	-79.641162	0.6875496	82.17363636	-1.64438946	-59.99443218
0.89	89	-0.304	-0.746	-0.216	-0.286479	-75.4012728	1.8334656	82.20228426	-1.74179232	-60.733548
0.9	90	-0.424	-0.73	-0.222	-3.8961144	-65.7755784	2.291832	82.17936594	-1.86784308	-61.38099054
0.91	91	-0.445	-0.763	-0.241	-6.4171296	-51.7381074	2.6356068	82.13925888	-1.9480572	-61.88519358
0.92	92	-0.374	-0.848	-0.234	-7.2765666	-36.0390582	2.9220858	82.08196308	-2.01681216	-62.23469796
0.93	93	-0.291	-0.94	-0.24	-8.1360036	-23.0902074	4.0680018	82.00747854	-2.08556712	-62.45815158
0.94	94	-0.212	-1.008	-0.255	-8.1932994	-13.750992	6.302538	81.932994	-2.16005166	-62.58993192
0.95	95	-0.153	-1.044	-0.254	-7.161975	-7.7922288	10.2559482	81.84132072	-2.28610242	-62.6529573
0.96	96	-0.125	-1.04	-0.216	-5.0420304	-3.6669312	14.9542038	81.7897545	-2.44080108	-62.67014604
0.97	97	-0.107	-1.011	-0.197	-3.9534102	-3.2085648	19.480572	81.74964744	-2.6356068	-62.67587562
0.98	98	-0.098	-0.986	-0.192	-3.8388186	-5.9587632	22.91832	81.71526996	-2.87051958	-62.70452352
0.99	99	-0.098	-0.982	-0.181	-3.8388186	-10.4851314	24.1215318	81.68089248	-3.11689152	-62.77327848
1	100	-0.093	-0.986	-0.171	-4.6409598	-15.5844576	23.6058696	81.63505584	-3.37472262	-62.89359966
1.01	101	-0.081	-0.983	-0.17	-6.7036086	-21.3713334	20.7983754	81.58348962	-3.60390582	-63.07694622
1.02	102	-0.074	-0.979	-0.166	-8.9381448	-27.3873924	17.18874	81.51473466	-3.80444112	-63.32331816
1.03	103	-0.094	-0.975	-0.157	-11.2872726	-32.2575354	14.0947668	81.42306138	-3.9820581	-63.62125632
1.04	104	-0.117	-0.971	-0.151	-13.178034	-35.6952834	12.4904844	81.31992894	-4.1539455	-63.95357196
1.05	105	-0.142	-0.964	-0.145	-14.9542038	-37.1849742	12.4331886	81.19387818	-4.3258329	-64.30307634
1.06	106	-0.165	-0.953	-0.135	-16.615782	-36.6120162	13.178034	81.05636826	-4.50344988	-64.64685114
1.07	107	-0.166	-0.942	-0.141	-17.9335854	-35.5806918	14.2666542	80.90739918	-4.69252602	-64.9734372
1.08	108	-0.174	-0.926	-0.146	-18.1627686	-33.7472262	15.1260912	80.75270052	-4.88733174	-65.28283452
1.09	109	-0.162	-0.916	-0.141	-17.7044022	-31.7418732	15.756345	80.60373144	-5.08213746	-65.5750431
1.1	110	-0.162	-0.91	-0.126	-17.4179232	-29.3927454	15.8136408	80.45476236	-5.28840234	-65.83860378
1.11	111	-0.172	-0.907	-0.114	-17.5325148	-26.929026	15.183387	80.30579328	-5.47747848	-66.08497572
1.12	112	-0.199	-0.905	-0.108	-17.5325148	-24.1788276	14.037471	80.15109462	-5.64936588	-66.29697018
1.13	113	-0.226	-0.914	-0.097	-17.3033316	-20.5118964	12.7196676	79.99639596	-5.80406454	-66.48031674
1.14	114	-0.248	-0.923	-0.091	-17.475219	-15.9282324	11.8029348	79.83596772	-5.94730404	-66.61782666
1.15	115	-0.263	-0.929	-0.088	-17.7044022	-11.745639	10.8289062	79.67553948	-6.09627312	-66.71522952
1.16	116	-0.265	-0.934	-0.081	-18.2773602	-6.875496	10.026765	79.4979225	-6.20513514	-66.76679574
1.17	117	-0.253	-0.932	-0.077	-17.9908812	-1.7761698	9.3965112	79.31457594	-6.302538	-66.77252532
1.18	118	-0.225	-0.93	-0.079	-18.1627686	2.005353	8.5370742	79.1254998	-6.38275212	-66.73814784
1.19	119	-0.212	-0.926	-0.088	-17.9908812	4.1252976	7.3911582	78.93642366	-6.45150708	-66.68658162
1.2	120	-0.193	-0.913	-0.103	-17.4179232	4.6982556	5.5576926	78.76453626	-6.51453246	-66.62928582
1.21	121	-0.179	-0.912	-0.121	-15.6990492	4.870143	3.2658606	78.59264886	-6.53745078	-66.5777196
1.22	122	-0.174	-0.891	-0.124	-12.6623718	6.302538	0.8021412	78.46086852	-6.53745078	-66.51469422
1.23	123	-0.191	-0.856	-0.118	-7.8495246	7.9068204	-1.3750992	78.36919524	-6.50880288	-66.44020968
1.24	124	-0.219	-0.833	-0.102	-2.6929026	10.8289062	-2.86479	78.32908818	-6.46296624	-66.33707724
1.25	125	-0.248	-0.815	-0.086	2.291832	15.8709366	-4.297185	78.34627692	-6.4171296	-66.19383774
1.26	126	-0.275	-0.809	-0.008	5.9014674	20.3973048	-6.4171296	78.3806544	-6.31972674	-66.0047616
1.27	127	-0.292	-0.8	0.048	8.307891	23.5485738	-8.1360036	78.4379502	-6.19940556	-65.78703756
1.28	128	-0.308	-0.811	0.039	11.1153852	25.496631	-9.1100322	78.5238939	-6.06762522	-65.55785436
1.29	129	-0.31	-0.853	0.03	14.037471	30.4240698	-9.1100322	78.63275592	-5.92438572	-65.27710494
1.3	130	-0.302	-0.898	0.038	17.1314442	37.1276784	-9.5683986	78.781725	-5.7868758	-64.92760056
1.31	131	-0.296	-0.935	0.035	18.7357266	42.5134836	-11.745639	78.93069408	-5.59779966	-64.53225954
1.32	132	-0.3	-0.982	0.03	18.9649098	47.4982182	-14.4385416	79.07393358	-5.38007562	-64.09108188
1.33	133	-0.296	-1.032	0.011	17.761698	52.0818822	-15.8709366	79.19998434	-5.13943326	-63.60406758
1.34	134	-0.296	-1.081	-0.011	16.5011904	55.1758554	-15.756345	79.32030552	-4.8987909	-63.09413496
1.35	135	-0.285	-1.138	-0.088	13.4072172	56.3790672	-15.0687954	79.40624922	-4.6696077	-62.5670136
1.36	136	-0.229	-1.229	-0.228	11.45916	57.1239126	-13.9801752	79.4692746	-4.4404245	-62.02843308
1.37	137	-0.151	-1.302	-0.314	12.3758928	61.4783934	-10.886202	79.54375914	-4.2398892	-61.44401592
1.38	138	-0.104	-1.344	-0.276	17.6471064	63.4837464	-5.6149884	79.6698099	-4.08519054	-60.83095086
1.39	139	-0.071	-1.314	-0.303	17.6471064	59.4730404	-2.1772404	79.80159024	-3.97632852	-60.25226328
1.4	140	-0.071	-1.324	-0.364	14.8396122	49.560867	-1.5469866	79.90472268	-3.88465524	-59.76524898
1.41	141	-0.071	-1.326	-0.448	10.313244	42.9145542	-4.8128472	79.97920722	-3.77579322	-59.35271922
1.42	142	-0.043	-1.322	-0.494	7.6203414	42.3415962	-11.5737516	80.02504386	-3.59817624	-58.9573782
1.43	143	-0.028	-1.283	-0.463	5.7868758	39.9924684	-17.761698	80.05369176	-3.36326346	-58.59641466
1.44	144	-0.017	-1.171	-0.456	2.9793816	37.6433406	-20.5691922	80.05942134	-3.11116194	-58.25836944
1.45	145	-0.061	-1.071	-0.4	2.9220858	35.9817624	-18.621135	80.04796218	-2.87624916	-57.94324254
1.46	146	-0.098	-0.956	-0.364	2.86479	35.5806918	-14.0947668	80.05942134	-2.68717302	-57.61665648
1.47	147	-0.102	-0.854	-0.333	3.8388186	36.7266078	-10.6570188	80.07661008	-2.53247436	-57.27288168
1.48	148	-0.077	-0.773	-0.309	4.1252976	36.0390582	-8.880849	80.0995284	-2.38923486	-56.93483646
1.49	149	-0.025	-0.743	-0.282	4.1252976	33.9764094	-8.5370742	80.12244672	-2.25745452	-56.61970956
1.5	150	0.03	-0.764	-0.279	2.578311	30.939732	-8.880849	80.11098756	-2.1199446	-56.33323056
1.51	151	0.05	-0.84	-0.294	0.7448454	26.2987722	-9.740286	80.10525798	-1.98243468	-56.0925882
1.52	152	0.04	-0.971	-0.267	-0.1145916	20.7410796	-11.1153852	80.09379882	-1.84492476	-55.90924164
1.53	153	0.049	-1.075	-0.249	-1.2605076	14.896908	-14.4958374	80.07661008	-1.68449652	-55.78892046
1.54	154	0.062	-1.11	-0.244	-0.5156622	10.599723	-18.5065434	80.0708805	-1.48396122	-55.71443592
1.55	155	0.072	-1.082	-0.234	1.2605076	7.448454	-21.7151082	80.06515092	-1.24331886	-55.68005844
1.56	156	0.08	-1.028	-0.228	2.2345362	6.7036086	-23.3193906	80.08806924	-1.00840608	-55.65141054
1.57	157	0.077	-0.982	-0.221	1.6042824	7.6203414	-23.4339822	80.10525798	-0.76776372	-55.61703306
1.58	158	0.064	-0.948	-0.216	0.0572958	9.8548776	-22.631841	80.0995284	-0.53285094	-55.55973726
1.59	159	0.041	-0.923	-0.216	-1.9480572	12.5477802	-21.2567418	80.07661008	-0.30366774	-55.47379356
1.6	160	0	-0.898	-0.249	-4.2398892	15.183387	-19.4232762	80.0135847	-0.09167328	-55.35920196
1.61	161	-0.035	-0.9	-0.238	-5.3858052	19.194093	-17.2460358	79.9562889	0.09740286	-55.19877372
1.62	162	-0.048	-0.908	-0.216	-6.875496	21.3713334	-16.5584862	79.88180436	0.286479	-55.02115674
1.63	163	-0.041	-0.916	-0.213	-8.307891	22.7464326	-16.2720072	79.79586066	0.48128472	-54.82635102
1.64	164	-0.014	-0.922	-0.21	-9.0527364	23.3766864	-16.5584862	79.70418738	0.67609044	-54.6315453
1.65	165	0.015	-0.929	-0.207	-9.6829902	22.8037284	-16.9595568	79.59532536	0.87662574	-54.43673958
1.66	166	0.038	-0.926	-0.221	-10.0840608	21.8296998	-17.0741484	79.49219292	1.07716104	-54.25339302
1.67	167	0.047	-0.913	-0.212	-9.6256944	19.9962342	-16.1574156	79.39479006	1.26623718	-54.09296478
1.68	168	0.049	-0.891	-0.207	-9.3965112	17.761698	-14.5531332	79.30311678	1.432395	-53.9439957
1.69	169	0.044	-0.873	-0.2	-9.0527364	15.9282324	-11.9175264	79.2114435	1.5756345	-53.81221536
1.7	170	0.053	-0.873	-0.189	-9.3392154	14.7823164	-10.0840608	79.10831106	1.70168526	-53.6861646
1.71	171	0.067	-0.881	-0.179	-10.3705398	13.6364004	-8.7662574	79.00517862	1.81054728	-53.571573
1.72	172	0.087	-0.89	-0.18	-11.3445684	12.891555	-7.7922288	78.89058702	1.90795014	-53.46271098
1.73	173	0.097	-0.898	-0.176	-12.0894138	11.3445684	-7.448454	78.77026584	1.99389384	-53.36530812
1.74	174	0.101	-0.921	-0.165	-12.5477802	9.6256944	-6.7036086	78.64421508	2.07410796	-53.285094
1.75	175	0.098	-0.933	-0.161	-13.5218088	7.6203414	-5.9014674	78.51243474	2.16005166	-53.22206862
1.76	176	0.093	-0.935	-0.147	-14.32395	6.5317212	-5.0420304	78.36346566	2.21734746	-53.1705024
1.77	177	0.073	-0.945	-0.131	-14.6677248	6.6463128	-4.1825934	78.22022616	2.26891368	-53.11893618
1.78	178	0.053	-0.954	-0.119	-15.9282324	7.448454	-3.0939732	78.05979792	2.31475032	-53.05018122
1.79	179	0.054	-0.956	-0.109	-17.2460358	7.7922288	-1.432395	77.88218094	2.33766864	-52.98142626
1.8	180	0.069	-0.955	-0.113	-18.334656	7.3338624	0.4583664	77.71602312	2.35485738	-52.90694172
1.81	181	0.087	-0.949	-0.118	-18.3919518	6.016059	1.8907614	77.52694698	2.34339822	-52.84391634
1.82	182	0.109	-0.932	-0.123	-15.9855282	4.1825934	3.3804522	77.36651874	2.3204799	-52.7980797
1.83	183	0.112	-0.905	-0.121	-12.0894138	0.859437	5.0420304	77.24619756	2.26891368	-52.78089096
1.84	184	0.105	-0.869	-0.108	-7.6776372	-3.3804522	7.3911582	77.16598344	2.18869956	-52.7980797
1.85	185	0.106	-0.841	-0.079	-0.572958	-9.6829902	10.599723	77.1774426	2.08556712	-52.86683466
1.86	186	0.1	-0.831	-0.033	4.1825934	-15.3552744	13.0061466	77.21754966	1.92513888	-52.98715584
1.87	187	0.09	-0.843	0	7.5630456	-19.6524594	14.3812458	77.2920342	1.75325148	-53.1418545
1.88	188	0.088	-0.856	-0.001	9.9121734	-21.4286292	14.32395	77.39516664	1.56990492	-53.31947148
1.89	189	0.094	-0.873	-0.008	12.4331886	-22.8037284	13.8655836	77.51548782	1.39801752	-53.5142772
1.9	190	0.105	-0.9	-0.004	14.2093584	-25.0382646	14.0947668	77.68164564	1.22613012	-53.72054208
1.91	191	0.119	-0.942	-0.019	13.1207382	-27.9603504	14.896908	77.81342598	1.0313244	-53.96118444
1.92	192	0.141	-1.007	-0.053	10.1986524	-30.8251404	15.8136408	77.91655842	0.81932994	-54.22474512
1.93	193	0.144	-1.068	-0.085	5.6149884	-37.3568616	17.9908812	77.97385422	0.57868758	-54.55133118
1.94	194	0.138	-1.12	-0.139	1.8907614	-47.0398518	20.912967	77.99677254	0.29220858	-54.96959052
1.95	195	0.131	-1.148	-0.193	1.5469866	-58.7854908	23.777757	78.02542044	-0.0286479	-55.4909823
1.96	196	0.113	-1.151	-0.227	3.724227	-71.7916374	25.210152	78.07125708	-0.4010706	-56.13842484
1.97	197	0.056	-1.129	-0.256	7.448454	-84.2821218	24.5226024	78.16865994	-0.79068204	-56.90618856
1.98	198	0	-1.073	-0.25	12.318597	-91.2722094	21.3713334	78.3233586	-1.15737516	-57.74843682
1.99	199	-0.043	-1.034	-0.299	11.0007936	-92.532717	14.7250206	78.4665981	-1.45531332	-58.61933298
2	200	-0.092	-1.099	-0.45	6.1879464	-86.7458412	6.8182002	78.5525418	-1.67303736	-59.45585166
2.01	201	-0.148	-1.218	-0.499	0.572958	-83.938347	2.005353	78.59264886	-1.8334656	-60.26945202
2.02	202	-0.149	-1.298	-0.522	-5.0420304	-80.3287116	2.1199446	78.5811897	-1.99389384	-61.0486749
2.03	203	-0.122	-1.305	-0.545	-7.2765666	-73.1094408	2.9793816	78.54108264	-2.1485925	-61.75914282
2.04	204	-0.158	-1.259	-0.516	-7.0473834	-67.036086	2.1199446	78.50097558	-2.28037284	-62.40658536
2.05	205	-0.196	-1.174	-0.501	-10.2559482	-60.0459984	-0.0572958	78.41503188	-2.38923486	-62.9967321
2.06	206	-0.194	-1.08	-0.483	-11.745639	-51.9672906	-3.0939732	78.3233586	-2.45226024	-63.5123943
2.07	207	-0.167	-1.006	-0.428	-11.8029348	-46.0085274	-4.297185	78.23168532	-2.4923673	-63.9707607
2.08	208	-0.131	-0.962	-0.35	-12.2613012	-42.7426668	-2.7501984	78.12855288	-2.53820394	-64.38902004
2.09	209	-0.117	-0.938	-0.303	-13.6936962	-40.2789474	2.578311	78.01396128	-2.64133638	-64.77863148
2.1	210	-0.113	-0.944	-0.262	-14.3812458	-38.5600734	6.589017	77.88218094	-2.7788463	-65.1453246
2.11	211	-0.109	-0.975	-0.227	-14.0947668	-35.3515086	9.0527364	77.76185976	-2.93354496	-65.47191066
2.12	212	-0.122	-1.021	-0.199	-13.9228794	-31.6845774	10.7143146	77.635809	-3.09970278	-65.75838966
2.13	213	-0.128	-1.055	-0.209	-14.9542038	-27.3873924	12.2613012	77.50402866	-3.27159018	-65.99903202
2.14	214	-0.123	-1.081	-0.232	-15.8709366	-24.350715	14.2093584	77.35505958	-3.45493674	-66.21102648
2.15	215	-0.13	-1.086	-0.234	-16.042824	-23.8923486	17.2460358	77.2060905	-3.67839036	-66.4058322
2.16	216	-0.143	-1.043	-0.232	-16.5584862	-25.3820394	21.0275586	77.05712142	-3.93049188	-66.6063675
2.17	217	-0.157	-0.964	-0.247	-18.048177	-30.080295	23.9496444	76.89669318	-4.22270046	-66.84700986
2.18	218	-0.156	-0.905	-0.248	-19.0222056	-33.6899304	24.637194	76.73053536	-4.53209778	-67.1220297
2.19	219	-0.134	-0.871	-0.239	-20.05353	-36.955791	23.4339822	76.55291838	-4.83576552	-67.43142702
2.2	220	-0.102	-0.848	-0.221	-22.0015872	-40.10706	20.7983754	76.36384224	-5.12224452	-67.77520182
2.21	221	-0.094	-0.836	-0.216	-24.6944898	-42.685371	18.2200644	76.15184778	-5.39153478	-68.14762452
2.22	222	-0.095	-0.84	-0.212	-26.929026	-44.9199072	16.2147114	75.92266458	-5.6436363	-68.54869512
2.23	223	-0.097	-0.86	-0.193	-28.5333084	-46.409598	15.469866	75.68202222	-5.89573782	-68.96122488
2.24	224	-0.111	-0.873	-0.195	-29.9657034	-48.3576552	15.756345	75.4299207	-6.1592985	-69.39667296
2.25	225	-0.144	-0.885	-0.181	-30.4240698	-50.420304	16.1574156	75.18354876	-6.43431834	-69.84930978
2.26	226	-0.186	-0.883	-0.164	-30.0229992	-50.133825	15.6990492	74.93144724	-6.7036086	-70.29621702
2.27	227	-0.225	-0.886	-0.149	-29.9657034	-47.7846972	14.4958374	74.6850753	-6.95571012	-70.72593552
2.28	228	-0.254	-0.89	-0.149	-30.4240698	-45.0917946	13.1207382	74.43297378	-7.1906229	-71.12700612
2.29	229	-0.282	-0.894	-0.14	-30.4813656	-41.3675676	11.745639	74.18087226	-7.40834694	-71.49942882
2.3	230	-0.292	-0.903	-0.139	-30.7678446	-36.6120162	10.7143146	73.92304116	-7.6203414	-71.82601488
2.31	231	-0.3	-0.907	-0.13	-31.1116194	-31.1116194	9.2246238	73.64802132	-7.78649922	-72.1067643
2.32	232	-0.289	-0.896	-0.129	-31.8564648	-25.3820394	7.2765666	73.36154232	-7.92400914	-72.33021792
2.33	233	-0.281	-0.884	-0.139	-31.9137606	-19.4232762	4.8128472	73.06360416	-8.02714158	-72.5078349
2.34	234	-0.257	-0.86	-0.134	-32.2002396	-15.756345	2.1199446	72.75993642	-8.09016696	-72.65680398
2.35	235	-0.237	-0.854	-0.132	-32.372127	-11.8602306	0.1145916	72.46772784	-8.14173318	-72.77139558
2.36	236	-0.228	-0.858	-0.124	-31.799169	-8.1360036	-0.9167328	72.15260094	-8.15892192	-72.85733928
2.37	237	-0.213	-0.865	-0.128	-30.4240698	-5.3858052	-2.0626488	71.85466278	-8.15892192	-72.92036466
2.38	238	-0.215	-0.876	-0.13	-28.5906042	-2.9220858	-3.5523396	71.57391336	-8.1360036	-72.96047172
2.39	239	-0.219	-0.891	-0.121	-27.1582092	-1.2032118	-4.583664	71.29889352	-8.10162612	-72.98911962
2.4	240	-0.214	-0.916	-0.123	-26.6998428	0	-5.3858052	71.06971032	-8.06724864	-73.01203794
2.41	241	-0.203	-0.928	-0.121	-27.215505	2.8074942	-5.6149884	70.7889609	-8.00995284	-73.00057878
2.42	242	-0.205	-0.936	-0.14	-30.939732	4.0680018	-5.6722842	70.473834	-7.94692746	-72.98339004
2.43	243	-0.16	-0.987	-0.253	-40.393539	5.2712136	-5.0420304	70.05557466	-7.88963166	-72.95474214
2.44	244	-0.083	-1.051	-0.353	-47.2117392	4.5263682	-3.2085648	69.57428994	-7.8495246	-72.92609424
2.45	245	-0.006	-1.112	-0.387	-51.6808116	4.1252976	0	69.04716858	-7.82660628	-72.89171676
2.46	246	0.04	-1.13	-0.373	-53.9153478	3.2658606	3.2658606	68.49139932	-7.85525418	-72.8516097
2.47	247	0.052	-1.088	-0.337	-55.5196302	-0.1145916	5.156622	67.9241709	-7.9068204	-72.84015054
2.48	248	0.015	-1.043	-0.274	-58.6136034	-3.0366774	5.6722842	67.33402416	-7.97557536	-72.8516097
2.49	249	-0.066	-1.046	-0.25	-67.895523	-7.9068204	7.3338624	66.65220414	-8.08443738	-72.90317592
2.5	250	-0.113	-1.099	-0.24	-79.1254998	-12.4331886	10.3705398	65.87298126	-8.22767688	-72.97766046
2.51	251	-0.09	-1.149	-0.3	-89.7252228	-17.0168526	15.6417534	64.97916678	-8.44540092	-73.0807929
2.52	252	-0.036	-1.166	-0.411	-93.8505204	-24.6944898	21.3713334	64.05097482	-8.74906866	-73.21830282
2.53	253	0.063	-1.154	-0.361	-95.0537322	-33.9764094	25.210152	63.12278286	-9.12722094	-73.4245677
2.54	254	0.211	-1.086	-0.27	-100.9551996	-47.555514	27.9603504	62.15448384	-9.59131692	-73.72823544
2.55	255	0.246	-0.952	-0.246	-105.7680468	-67.4371566	28.6479	61.18045524	-10.1413566	-74.20379058
2.56	256	0.198	-0.853	-0.198	-108.289062	-86.0582916	27.501984	60.21215622	-10.78879914	-74.83977396
2.57	257	0.113	-0.773	-0.275	-107.7733998	-111.8986974	26.4133638	59.301153	-11.56229244	-75.70494054
2.58	258	0.026	-0.722	-0.237	-99.7519878	-129.774987	27.3873924	58.51047096	-12.43891818	-76.70761704
2.59	259	-0.081	-0.688	-0.181	-91.959759	-144.2135286	27.1582092	57.85156926	-13.40148762	-77.83061472
2.6	260	-0.253	-0.628	-0.13	-82.5632478	-153.0943776	25.0955604	57.33017748	-14.40416412	-79.0395561
2.61	261	-0.421	-0.591	-0.094	-73.1094408	-159.2250282	22.4026578	56.94056604	-15.41829978	-80.31152286
2.62	262	-0.538	-0.559	-0.048	-62.0513514	-157.9072248	20.5691922	56.67700536	-16.4152467	-81.57776004
2.63	263	-0.573	-0.549	-0.002	-52.7694318	-150.8598414	18.621135	56.51657712	-17.36635698	-82.79816058
2.64	264	-0.566	-0.531	0.037	-43.258329	-140.088231	16.902261	56.44782216	-18.24298272	-83.938347
2.65	265	-0.575	-0.523	0.092	-30.0229992	-125.3059146	14.32395	56.50511796	-19.03939434	-84.97540098
2.66	266	-0.586	-0.5	0.111	-19.2513888	-108.8047242	11.4018642	56.62543914	-19.70402562	-85.87494504
2.67	267	-0.547	-0.474	0.118	-10.0840608	-91.2149136	8.9381448	56.79732654	-20.2540653	-86.64270876
2.68	268	-0.485	-0.442	0.106	-2.6356068	-75.7450476	5.6722842	57.00359142	-20.69524296	-87.2901513
2.69	269	-0.395	-0.412	0.067	3.8961144	-62.6816052	4.0680018	57.24423378	-21.05047692	-87.8344614
2.7	270	-0.272	-0.368	0.049	11.8602306	-53.1705024	5.5576926	57.5536311	-21.37706298	-88.28709822
2.71	271	-0.14	-0.302	0.013	17.7044022	-48.128472	10.1413566	57.88021716	-21.69791946	-88.67098008
2.72	272	-0.037	-0.177	0.018	22.6891368	-48.987909	14.5531332	58.25263986	-22.06461258	-89.0376732
2.73	273	0.08	-0.064	0.001	27.6738714	-52.425657	17.1314442	58.68808794	-22.46568318	-89.42728464
2.74	274	0.252	0.066	-0.072	31.7418732	-58.8427866	14.7250206	59.19802056	-22.87248336	-89.89138062
2.75	275	0.37	0.162	-0.087	36.3255372	-67.9528188	6.9900876	59.79962646	-23.23917648	-90.48725694
2.76	276	0.38	0.167	-0.045	36.382833	-77.9795838	-0.5156622	60.4757169	-23.59441044	-91.23210234
2.77	277	0.341	0.099	0.05	36.2109456	-85.4280378	-2.578311	61.18618482	-23.95537398	-92.05716186
2.78	278	0.265	-0.002	0.072	31.9137606	-90.240885	1.7761698	61.87373442	-24.37363332	-92.92232844
2.79	279	0.164	-0.111	0.078	27.1009134	-98.7779592	8.9954406	62.54409528	-24.87783636	-93.83906124
2.8	280	0.131	-0.203	0.045	23.3766864	-106.4555964	14.5531332	63.22018572	-25.44506478	-94.81308984
2.81	281	0.108	-0.2	-0.09	16.9595568	-116.310474	14.3812458	63.87908742	-26.05812984	-95.90171004
2.82	282	0.068	-0.191	-0.289	10.8289062	-128.8582542	10.4278356	64.56090744	-26.6711949	-97.1450289
2.83	283	0.036	-0.179	-0.403	8.4797784	-140.7757806	5.3285094	65.30575284	-27.2728008	-98.55450558
2.84	284	0.095	-0.196	-0.411	8.59437	-149.5993338	0.8021412	66.12508278	-27.85148838	-100.090033
2.85	285	0.043	-0.17	-0.382	8.9381448	-162.2044098	0.7448454	67.01316768	-28.4473647	-101.7630704
2.86	286	-0.106	-0.162	-0.337	4.9274388	-175.4397396	3.6669312	67.97000754	-29.10053682	-103.596536
2.87	287	-0.251	-0.215	-0.293	-6.3598338	-179.2785582	5.0420304	68.85809244	-29.75370894	-105.4872974
2.88	288	-0.342	-0.418	-0.332	-24.5226024	-175.2105564	6.3598338	69.56856036	-30.38396274	-107.3551405
2.89	289	-0.42	-0.663	-0.411	-58.5563076	-169.6528638	12.2040054	69.91806474	-31.03713486	-109.1599582
2.9	290	-0.459	-1.017	-0.544	-98.7206634	-164.2097628	20.8556712	69.83785062	-31.75906194	-110.8902913
2.91	291	-0.483	-1.452	-0.951	-153.9538146	-156.9331962	31.8564648	69.1560306	-32.5726623	-112.5060329
2.92	292	-0.618	-1.791	-1.224	-203.6292732	-147.823164	43.544808	67.91271174	-33.49512468	-113.9785349
2.93	293	-0.863	-2.023	-1.546	-247.8616308	-128.2852962	52.3683612	66.08497572	-34.4634237	-115.1817467
2.94	294	-1.068	-1.879	-2.073	-274.160403	-117.5136858	55.8061092	63.91919448	-35.4661002	-116.2245303
2.95	295	-1.073	-1.455	-2.476	-211.5360936	-109.148499	59.7595194	62.3091825	-36.48023586	-117.1126152
2.96	296	-0.815	-1.283	-2.539	-104.1064686	-100.26765	72.0208206	61.68465828	-37.56885606	-117.811624
2.97	297	-0.652	-1.344	-2.068	3.6096354	-92.5900128	91.2149136	62.04562182	-38.77779744	-118.315827
2.98	298	-0.568	-1.139	-0.615	-8.4224826	-37.1849742	93.1629708	61.88519358	-39.7632852	-118.1783171
2.99	299	-0.039	-1.628	0.078	-73.5678072	-17.5898106	101.9292282	60.87105792	-40.7373138	-117.7600577
3	300	0.375	-2.451	0.577	-108.9766116	-83.07891	79.1254998	60.08610546	-41.82020442	-118.2241537
3.01	301	0.816	-2.124	0.732	-153.9538146	-137.9109906	40.4508348	59.45585166	-42.84006966	-119.5820642
3.02	302	0.826	-0.947	0.849	-180.4244742	-193.1441418	34.7212548	59.07769938	-44.09484768	-121.6504426
3.03	303	0.61	-0.112	0.889	-200.248821	-217.2656736	41.7113424	58.728195	-45.53297226	-124.0052999
3.04	304	0.409	0.566	0.941	-206.7805422	-232.8501312	74.8283148	58.36723146	-47.33778996	-126.3544277
3.05	305	0.329	0.638	1.145	-196.6964814	-258.6332412	114.8207832	58.25263986	-49.62389238	-128.8124176
3.06	306	0.005	0.582	0.963	-175.038669	-294.9587784	136.5931872	58.77403164	-52.26522876	-131.7173146
3.07	307	-0.628	0.617	0.536	-128.5144794	-277.7700384	150.4587708	59.73660108	-54.90656514	-134.4904313
3.08	308	-1.341	0.494	0.465	-72.3645954	-232.620948	156.3602382	60.92262414	-57.34736622	-136.759345
3.09	309	-2.008	0.337	0.469	-30.7678446	-213.1976718	167.2464402	62.44096284	-59.76524898	-138.8678305
3.1	310	-2.329	0.45	0.415	-15.0114996	-212.6247138	195.1494948	64.1999439	-62.3951262	-141.016423
3.11	311	-2.301	0.681	0.352	0.572958	-210.4474734	221.1044922	66.2625927	-65.20834998	-143.2796071
3.12	312	-2.24	0.614	0.24	33.1169724	-202.5979488	235.6003296	68.90392908	-68.08459914	-145.7547856
3.13	313	-2.712	0.228	0.067	63.1399716	-173.8354572	224.2557612	71.94060648	-70.70874678	-148.2815304
3.14	314	-3.114	0.446	0.004	78.8390208	-126.5091264	232.2198774	74.41005546	-73.23549156	-150.0175931
3.15	315	-3.014	0.846	0.035	106.6847796	-74.5991316	258.977016	75.69348138	-75.88255752	-150.2123989
3.16	316	-3.33	0.767	0.447	132.7543686	-74.48454	278.5148838	77.37224832	-78.71297004	-150.5332553
3.17	317	-3.661	0.432	0.898	133.3273266	-93.2202666	267.857865	81.07928658	-81.46316844	-152.9053015
3.18	318	-3.239	0.372	0.858	90.8711388	-108.4036536	270.2069928	88.6079547	-84.1961781	-159.5401551
3.19	319	-2.944	0.582	0.335	74.8283148	-106.2264132	280.0618704	107.5728645	-86.79740742	-177.7774082
3.2	320	-2.22	0.944	0.026	73.1667366	-105.4815678	278.8586586	171.7670788	-87.949053	118.7340863
3.21	321	-1.573	1.087	-0.103	88.5793068	-111.2684436	260.3521152	-143.5775452	-86.13277614	74.95436556
3.22	322	-1.498	0.665	0.14	93.6213372	-164.0378754	222.9952536	-135.9228263	-83.50289892	68.25075696
3.23	323	-1.643	0.637	0.516	58.5563076	-181.9714608	190.8523098	-134.9373386	-80.9303175	67.88406384
3.24	324	-2.413	0.611	1.086	39.8778768	-155.3289138	159.2250282	-134.5591863	-78.75880668	67.93563006
3.25	325	-2.721	0.189	1.341	25.496631	-122.7276036	120.7222506	-134.5190792	-77.08003974	68.182002
3.26	326	-1.885	0.042	1.047	-24.350715	-110.9246688	90.0117018	-135.4415416	-75.6877518	68.89246992
3.27	327	-1.145	0.132	0.813	-56.4936588	-115.164558	57.7541664	-137.4755425	-74.47881042	70.42226778
3.28	328	-1.049	0.134	0.517	-80.2714158	-120.32118	17.4179232	-140.6268115	-73.47613392	72.86879844
3.29	329	-1.112	0.094	0.426	-79.641162	-124.7902524	-5.72958	-144.1218553	-72.54221238	75.69921096
3.3	330	-0.999	0.106	0.34	-61.4210976	-118.3731228	-18.2200644	-147.3304201	-71.68850496	78.42649104
3.31	331	-0.7	0.089	0.462	-44.117766	-115.2218538	-21.3713334	-150.1207256	-70.83479754	80.91885834
3.32	332	-0.648	-0.019	0.395	-44.0031744	-125.9934642	-25.6112226	-152.9224902	-69.8722281	83.43414396
3.33	333	-0.582	0.094	0.334	-48.2430636	-133.7283972	-29.1635622	-155.6898773	-68.81798538	85.89213378
3.34	334	-0.618	0.254	0.302	-51.1651494	-145.531332	-35.3515086	-158.491642	-67.6376919	88.36731234
3.35	335	-0.359	0.351	0.233	-51.5089242	-145.7605152	-40.680018	-161.1157896	-66.42875052	90.6706035
3.36	336	-0.254	0.658	-0.034	-33.1169724	-133.6138056	-27.4446882	-162.9950918	-65.26564578	92.37801834
3.37	337	-0.286	0.427	0.051	-7.3338624	-118.4877144	-10.0840608	-164.0264162	-64.17702558	93.45517938
3.38	338	-0.2	0.39	0.048	-5.2139178	-113.2165008	1.3750992	-164.7082363	-63.10559412	94.17137688
3.39	339	-0.329	0.32	0.038	2.6929026	-111.0392604	7.5630456	-165.1264956	-62.03416266	94.69276866
3.4	340	0.007	0.297	0.191	-3.0366774	-116.7688404	6.875496	-165.5676733	-60.89397624	95.18551254
3.41	341	-0.198	0.607	-0.001	-4.7555514	-108.9766116	27.4446882	-165.6593465	-59.7881673	95.24853792
3.42	342	-0.307	0.628	-0.107	18.621135	-93.965112	41.4248634	-165.2181689	-58.79694996	94.97924766
3.43	343	-0.411	0.414	0.162	20.2254174	-108.6901326	33.9764094	-164.9660674	-57.67968186	94.9391406
3.44	344	-0.524	0.27	0.297	-3.8388186	-136.4212998	18.3919518	-165.3041126	-56.33896014	95.31729288
3.45	345	-0.636	0.482	0.232	-46.7533728	-154.1829978	16.4438946	-166.1062538	-54.8320806	95.74701138
3.46	346	-0.764	0.412	0.366	-67.7236356	-165.6994536	2.578311	-167.3094656	-53.23352778	96.41164266
3.47	347	-0.625	0.416	0.45	-135.3899754	-210.7339524	-13.9228794	-169.4351398	-51.21671562	97.40286
3.48	348	-0.651	0.641	0.256	-122.3838288	-196.2954108	-22.8610242	-171.3660082	-49.3316838	98.32532238
3.49	349	-0.782	0.587	0.443	-76.1461182	-184.492476	-33.4607472	-172.815592	-47.57270274	99.27070308
3.5	350	-0.79	0.403	1.041	-56.8374336	-196.1808192	-41.252976	-174.0875587	-45.68767092	100.2561908
3.51	351	-0.856	0.248	1.334	-129.6603954	-234.2252304	-57.5249832	-176.1788554	-43.42448682	101.4078364
3.52	352	-0.719	0.284	1.338	-143.2967958	-225.745452	-72.479187	-178.4019325	-41.21286894	102.5938595
3.53	353	-0.758	0.118	1.475	-137.1661452	-228.037284	-87.8917572	179.4332569	-38.95541442	103.8257192
3.54	354	-0.696	-0.061	1.386	-112.0705848	-231.6469194	-91.1576178	177.6284392	-36.63493452	104.960176
3.55	355	-0.722	-0.032	1.399	-82.1048814	-212.1090516	-86.230179	176.25334	-34.48061244	105.9399342
3.56	356	-0.544	-0.264	1.59	-90.1262934	-171.600921	-67.322565	174.9756436	-32.72736096	106.6332134
3.57	357	-0.57	-0.131	1.386	-51.5089242	-131.6084526	-44.7480198	174.2537165	-31.38663924	107.0457431
3.58	358	-0.572	-0.075	1.291	-41.4248634	-107.3723292	-36.3255372	173.6807585	-30.28655988	107.3665996
3.59	359	-0.569	-0.053	1.184	-37.3568616	-91.959759	-31.3980984	173.1822851	-29.34117918	107.6244307
3.6	360	-0.564	0.053	1.233	-33.9191136	-83.4799806	-39.3622146	172.6952708	-28.47028302	107.9682055
3.61	361	-0.519	-0.226	1.253	-20.7983754	-72.479187	-59.3584488	172.2197156	-27.67960098	108.5411635
3.62	362	-0.51	-0.05	1.317	-20.340009	-53.3423898	-48.5868384	171.8071859	-27.08945424	109.0109891
3.63	363	-0.543	0.078	1.259	-17.6471064	-36.5547204	-55.863405	171.3717378	-26.64827658	109.5782175
3.64	364	-0.516	0.11	1.142	-6.6463128	-22.058883	-65.603691	170.9993151	-26.33314968	110.2657671
3.65	365	-0.511	0.069	1.058	-3.0939732	-14.4385416	-62.7961968	170.7128361	-26.09250732	110.9132096
3.66	366	-0.437	0	0.999	9.9121734	-7.161975	-64.744254	170.5065712	-25.92061992	111.6122184
3.67	367	-0.336	-0.161	0.942	2.3491278	-2.9220858	-60.1032942	170.2487401	-25.79456916	112.2596609
3.68	368	-0.39	0.029	0.921	6.2452422	-0.859437	-54.3164184	170.0539344	-25.6971663	112.8498077
3.69	369	-0.233	-0.275	0.917	-1.0313244	0.9167328	-52.9413192	169.7903737	-25.6112226	113.4284953
3.7	370	-0.366	0.069	0.827	4.583664	4.7555514	-42.398892	169.6757821	-25.58830428	113.8696729
3.71	371	-0.239	-0.265	0.826	14.610429	7.2192708	-37.9871154	169.6414046	-25.59403386	114.2993914
3.72	372	-0.235	-0.303	0.804	-1.8334656	2.9793816	-41.252976	169.4236806	-25.54819722	114.7462987
3.73	373	-0.301	-0.114	0.807	10.1413566	1.6042824	-35.7525792	169.3606552	-25.50236058	115.1416397
3.74	374	-0.254	-0.219	0.837	13.2926256	1.0313244	-33.3461556	169.3377369	-25.45652394	115.5026032
3.75	375	-0.302	-0.185	0.875	12.032118	0.8021412	-32.4867186	169.2747115	-25.37630982	115.8750259
3.76	376	-0.302	-0.258	0.886	11.0007936	0.2291832	-30.7678446	169.2460636	-25.3247436	116.2073416
3.77	377	-0.316	-0.286	0.911	-1.718874	-3.8961144	-23.0902074	169.1257424	-25.24452948	116.4537135
3.78	378	-0.343	-0.179	0.913	2.578311	-4.9847346	-18.3919518	169.0684466	-25.16431536	116.6427896
3.79	379	-0.36	-0.274	0.948	-4.583664	-4.9847346	-13.0061466	168.9653142	-25.08983082	116.77457
3.8	380	-0.38	-0.177	0.966	-5.7868758	-2.6356068	-10.7716104	168.8621818	-25.01534628	116.883432
3.81	381	-0.425	0.157	0.958	9.740286	2.7501984	-10.6570188	168.9080184	-25.02107586	117.0037532
3.82	382	-0.332	-0.514	1.002	-2.1199446	5.443101	-11.5737516	168.8278043	-25.05545334	117.1355335
3.83	383	-0.378	-0.189	0.951	-9.0527364	6.2452422	-4.8128472	168.7132127	-25.10701956	117.1985589
3.84	384	-0.396	-0.181	0.966	-7.9068204	8.1932994	-2.8074942	168.6100802	-25.17577452	117.2443955
3.85	385	-0.407	-0.181	0.98	-6.7036086	10.6570188	-1.432395	168.5298661	-25.25598864	117.278773
3.86	386	-0.404	-0.173	0.984	-5.8441716	12.605076	-0.4010706	168.4553816	-25.3820394	117.3074209
3.87	387	-0.406	-0.164	0.975	-4.870143	13.8082878	0.6875496	168.3980858	-25.51381974	117.3246097
3.88	388	-0.407	-0.157	0.956	-4.583664	14.4385416	1.2605076	168.3465196	-25.65705924	117.3360688
3.89	389	-0.404	-0.15	0.942	-4.3544808	14.9542038	1.6042824	168.2949533	-25.80602832	117.347528
3.9	390	-0.405	-0.144	0.925	-3.724227	15.0687954	2.0626488	168.2663054	-25.94353824	117.3417984
3.91	391	-0.407	-0.143	0.917	-2.9220858	15.469866	2.578311	168.231928	-26.0982369	117.347528
3.92	392	-0.411	-0.124	0.912	-2.0626488	16.2147114	3.0939732	168.2090096	-26.25866514	117.3417984
3.93	393	-0.411	-0.131	0.909	-0.6302538	17.3606274	3.6669312	168.2032801	-26.43628212	117.3360688
3.94	394	-0.409	-0.131	0.904	-0.4583664	18.2200644	4.2398892	168.2032801	-26.62535826	117.3246097
3.95	395	-0.415	-0.134	0.91	0.1145916	18.5638392	4.9274388	168.231928	-26.80297524	117.2959618
3.96	396	-0.417	-0.128	0.902	0.572958	18.8503182	5.5003968	168.2491167	-26.99778096	117.2730434
3.97	397	-0.432	-0.118	0.894	1.0313244	18.5638392	5.6722842	168.2663054	-27.1868571	117.2443955
3.98	398	-0.432	-0.111	0.89	1.432395	16.6730778	6.7036086	168.3006829	-27.36447408	117.2042885
3.99	399	-0.457	-0.118	0.893	4.6982556	14.0947668	7.2192708	168.3694379	-27.51917274	117.1527223
4	400	-0.423	-0.118	0.879	2.2345362	14.037471	3.8388186	168.4267337	-27.6452235	117.1183448
4.01	401	-0.402	0.05	0.864	15.0114996	8.5370742	4.870143	168.5986211	-27.74262636	117.0839673
4.02	402	-0.486	-0.248	0.948	6.1879464	9.9694692	-0.5156622	168.6444577	-27.84002922	117.1126152
4.03	403	-0.458	-0.122	0.929	2.1199446	13.9228794	0.9167328	168.6616465	-27.97753914	117.1240744
4.04	404	-0.448	-0.106	0.93	1.6042824	16.9595568	0.3437748	168.6616465	-28.14369696	117.1527223
4.05	405	-0.454	-0.113	0.914	0.7448454	19.1367972	0	168.6788352	-28.31558436	117.1756406
4.06	406	-0.454	-0.119	0.897	0	19.9389384	-0.572958	168.6501873	-28.51039008	117.2214772
4.07	407	-0.465	-0.114	0.909	-0.4010706	19.8816426	-1.6042824	168.6158098	-28.69946622	117.2730434
4.08	408	-0.508	-0.101	0.91	1.2032118	19.5951636	-2.5210152	168.5928915	-28.88854236	117.3417984
4.09	409	-0.371	0.375	0.849	6.1879464	18.3919518	-1.9480572	168.627269	-29.06042976	117.3990942
4.1	410	-0.433	-0.326	0.907	58.4990118	14.037471	-17.8189938	169.0627171	-29.1635622	117.6569253
4.11	411	-0.453	-0.424	0.952	4.9847346	20.912967	-15.9855282	168.9996917	-29.3354496	117.8746493
4.12	412	-0.503	0.049	0.899	8.8235532	19.0222056	-6.0733548	169.0397987	-29.51306658	117.9835114
4.13	413	-0.512	-0.033	0.907	14.2093584	20.1108258	-7.8495246	169.1142833	-29.69641314	118.1095621
4.14	414	-0.472	-0.059	0.913	20.9702628	22.058883	-10.4851314	169.2460636	-29.89121886	118.2699904
4.15	415	-0.468	-0.08	0.927	29.3927454	24.1788276	-10.1413566	169.4637877	-30.10321332	118.4304186
4.16	416	-0.473	-0.129	0.913	27.788463	25.7258142	-8.021412	169.6700525	-30.34385568	118.5679285
4.17	417	-0.475	-0.13	0.91	23.0329116	26.4706596	-7.161975	169.8362104	-30.5959572	118.6997089
4.18	418	-0.477	-0.153	0.9	19.3086846	26.929026	-7.5057498	169.9565315	-30.84805872	118.8314892
4.19	419	-0.485	-0.077	0.887	20.8556712	26.356068	-6.1306506	170.1055006	-31.09443066	118.9518104
4.2	420	-0.482	-0.13	0.886	18.048177	25.6112226	-7.448454	170.2315514	-31.32934344	119.0721316
4.21	421	-0.498	-0.058	0.879	21.1421502	24.5798982	-6.4744254	170.38625	-31.56425622	119.1867232
4.22	422	-0.498	-0.101	0.903	26.6998428	24.8090814	-5.9587632	170.5925149	-31.799169	119.3013148
4.23	423	-0.488	-0.093	0.875	23.4339822	25.6112226	-6.016059	170.7701319	-32.03981136	119.4101768
4.24	424	-0.507	-0.08	0.875	24.8663772	25.78311	-5.0420304	170.9649376	-32.29191288	119.5133092
4.25	425	-0.508	-0.102	0.873	21.6578124	26.4706596	-6.3598338	171.1253659	-32.53828482	119.6279008
4.26	426	-0.51	-0.069	0.867	22.2880662	27.5592798	-6.2452422	171.2857941	-32.8018455	119.7424924
4.27	427	-0.521	-0.076	0.879	23.3766864	28.6479	-6.2452422	171.4519519	-33.07686534	119.857084
4.28	428	-0.527	-0.066	0.877	17.475219	29.6219286	-7.5630456	171.5550844	-33.35761476	119.9945939
4.29	429	-0.53	-0.051	0.881	21.3713334	30.4813656	-7.6203414	171.6925943	-33.64982334	120.1263743
4.3	430	-0.536	-0.04	0.882	23.491278	31.6845774	-7.448454	171.8587521	-33.9477615	120.2581546
4.31	431	-0.542	-0.07	0.885	23.0329116	32.5440144	-7.448454	172.0134508	-34.25715882	120.389935
4.32	432	-0.536	-0.09	0.879	21.6578124	33.4034514	-6.4171296	172.1624198	-34.5780153	120.5159857
4.33	433	-0.54	-0.085	0.874	18.1054728	34.3201842	-5.72958	172.2712819	-34.91033094	120.6305773
4.34	434	-0.542	-0.059	0.853	21.9442914	34.1482968	-4.4690724	172.4317101	-35.24264658	120.7337098
4.35	435	-0.544	-0.073	0.844	21.8296998	33.2888598	-4.4117766	172.6035975	-35.55777348	120.825383
4.36	436	-0.559	-0.058	0.833	22.8610242	31.3980984	-3.3231564	172.7869441	-35.8671708	120.9055972
4.37	437	-0.562	-0.057	0.835	23.7204612	29.6219286	-2.1199446	172.9817498	-36.15937938	120.9686225
4.38	438	-0.569	-0.062	0.846	22.6891368	28.9916748	-2.4637194	173.1708259	-36.44585838	121.0316479
4.39	439	-0.578	-0.036	0.843	18.8503182	28.4187168	-2.86479	173.319795	-36.72087822	121.1061325
4.4	440	-0.583	-0.03	0.846	18.334656	28.2468294	-3.151269	173.4687641	-36.99589806	121.1691578
4.41	441	-0.588	-0.024	0.841	15.8136408	27.6738714	-2.9793816	173.5833557	-37.26518832	121.2379128
4.42	442	-0.589	-0.027	0.818	16.5584862	27.501984	-3.2085648	173.7094064	-37.53447858	121.3066678
4.43	443	-0.59	-0.032	0.82	15.4125702	27.0436176	-3.4950438	173.8182685	-37.79803926	121.3811523
4.44	444	-0.596	-0.01	0.821	14.4385416	26.356068	-3.2658606	173.9156713	-38.05587036	121.4499073
4.45	445	-0.593	-0.034	0.817	15.0114996	26.1841806	-4.010706	174.0302629	-38.3022423	121.5186622
4.46	446	-0.611	-0.012	0.821	12.9488508	25.3247436	-3.7815228	174.110477	-38.55434382	121.5931468
4.47	447	-0.604	-0.011	0.819	12.1467096	24.9809688	-4.297185	174.1849616	-38.79498618	121.6676313
4.48	448	-0.607	-0.014	0.819	11.2299768	24.9809688	-4.5263682	174.2422574	-39.03562854	121.753575
4.49	449	-0.614	-0.01	0.805	10.4278356	24.7517856	-4.6409598	174.2938236	-39.28200048	121.8337891
4.5	450	-0.61	-0.015	0.797	9.3965112	25.210152	-6.1306506	174.3339307	-39.52264284	121.9254624
4.51	451	-0.624	-0.017	0.787	8.4797784	23.8350528	-5.8441716	174.356849	-39.75182604	122.0285948
4.52	452	-0.625	-0.012	0.79	8.021412	22.2880662	-4.7555514	174.3797673	-39.96955008	122.108809
4.53	453	-0.619	-0.031	0.772	9.1100322	21.1421502	-4.583664	174.4198744	-40.17008538	122.1890231
4.54	454	-0.615	-0.017	0.785	9.2246238	20.1681216	-3.6096354	174.465711	-40.37062068	122.2520485
4.55	455	-0.623	-0.019	0.788	8.6516658	19.8243468	-4.1252976	174.5230068	-40.55396724	122.3150738
4.56	456	-0.639	-0.022	0.783	7.5630456	18.907614	-3.2658606	174.5573843	-40.7373138	122.3723696
4.57	457	-0.628	-0.008	0.777	7.5057498	17.475219	-2.578311	174.5974913	-40.9092012	122.4239359
4.58	458	-0.618	-0.029	0.763	7.3911582	17.18874	-3.0366774	174.6375984	-41.07535902	122.4812317
4.59	459	-0.638	-0.018	0.755	6.5317212	16.329303	-2.3491278	174.6719759	-41.23578726	122.5270683
4.6	460	-0.629	-0.022	0.764	7.3911582	15.2979786	-2.9793816	174.7235421	-41.37329718	122.5671754
4.61	461	-0.636	-0.03	0.776	6.1306506	14.4958374	-3.6669312	174.7407308	-41.51653668	122.6302007
4.62	462	-0.645	-0.009	0.786	5.3285094	14.037471	-3.6096354	174.75219	-41.6540466	122.6932261
4.63	463	-0.656	-0.012	0.779	3.8961144	13.8655836	-3.724227	174.75219	-41.78582694	122.7562515
4.64	464	-0.648	-0.033	0.786	3.724227	13.8082878	-2.9793816	174.75219	-41.92333686	122.8078177
4.65	465	-0.65	-0.03	0.78	2.1199446	13.178034	-1.8907614	174.7922971	-42.03219888	122.8135473
4.66	466	-0.649	-0.007	0.766	1.2032118	13.1207382	-1.8907614	174.7751083	-42.15824964	122.8479248
4.67	467	-0.643	-0.013	0.761	1.0313244	12.6623718	-1.7761698	174.7579196	-42.2843004	122.8823023
4.68	468	-0.643	-0.027	0.758	1.2032118	11.6883432	-1.4896908	174.75219	-42.398892	122.9166797
4.69	469	-0.649	-0.026	0.759	0.859437	10.4278356	-0.859437	174.7464604	-42.49629486	122.9338685
4.7	470	-0.653	-0.019	0.761	0.286479	9.6256944	-0.4583664	174.7980266	-42.56504982	122.9052206
4.71	471	-0.652	-0.019	0.765	-0.0572958	8.7662574	-0.286479	174.7865675	-42.65099352	122.9166797
4.72	472	-0.653	-0.014	0.768	-0.7448454	8.1932994	-0.2291832	174.7693787	-42.73120764	122.9281389
4.73	473	-0.656	-0.015	0.759	-1.2605076	7.2192708	-0.1718874	174.75219	-42.7999626	122.9338685
4.74	474	-0.654	-0.019	0.751	-1.2032118	6.3598338	0	174.7350013	-42.86298798	122.9395981
4.75	475	-0.656	-0.016	0.751	-1.0886202	5.0993262	0.3437748	174.8094858	-42.89163588	122.8708431
4.76	476	-0.654	-0.013	0.748	-1.3750992	3.7815228	0.5156622	174.7980266	-42.92601336	122.8651135
4.77	477	-0.654	-0.012	0.746	-1.6042824	2.5210152	0.4583664	174.7865675	-42.95466126	122.8651135
4.78	478	-0.656	-0.013	0.746	-1.9480572	1.8907614	0.5156622	174.7693787	-42.97185	122.8593839
4.79	479	-0.657	-0.01	0.744	-2.1199446	0.9167328	0.572958	174.75219	-42.98330916	122.8479248
4.8	480	-0.662	-0.01	0.75	-2.3491278	-0.1718874	0.572958	174.9068887	-42.93174294	122.7104149
4.81	481	-0.664	-0.007	0.753	-2.578311	-1.3178034	0.2291832	174.8839703	-42.92028378	122.7046853
4.82	482	-0.662	-0.009	0.752	-2.9220858	-2.0626488	0.1145916	174.8553224	-42.89736546	122.7046853
4.83	483	-0.663	-0.009	0.753	-2.9793816	-2.7501984	0	174.8266745	-42.86871756	122.6989557
4.84	484	-0.662	-0.009	0.755	-2.86479	-2.9220858	0	174.7980266	-42.84006966	122.6989557
4.85	485	-0.661	-0.011	0.755	-2.86479	-3.2085648	0.0572958	174.8725112	-42.77704428	122.6187416
4.86	486	-0.661	-0.01	0.759	-2.7501984	-3.7815228	0.1145916	174.8495929	-42.73693722	122.613012
4.87	487	-0.664	-0.011	0.765	-2.5210152	-4.583664	0.1145916	174.8266745	-42.69110058	122.6072824
4.88	488	-0.664	-0.012	0.769	-2.4637194	-5.3285094	0.1145916	174.8094858	-42.63953436	122.5958233
4.89	489	-0.663	-0.013	0.771	-2.5210152	-5.9587632	0.1145916	174.7865675	-42.58223856	122.5900937
4.9	490	-0.661	-0.014	0.771	-2.7501984	-5.9014674	0.0572958	174.8324041	-42.49056528	122.5327979
4.91	491	-0.658	-0.014	0.77	-2.9220858	-5.5576926	0.0572958	174.8094858	-42.43899906	122.5270683
4.92	492	-0.655	-0.015	0.768	-2.9793816	-5.3858052	0.1718874	174.7865675	-42.38170326	122.5213387
4.93	493	-0.654	-0.013	0.769	-3.0366774	-5.6149884	0.1718874	174.7579196	-42.33013704	122.5098796
4.94	494	-0.652	-0.014	0.769	-2.9220858	-5.7868758	0.1718874	174.7350013	-42.27284124	122.50415
4.95	495	-0.653	-0.014	0.772	-2.9220858	-6.2452422	0.1145916	174.7808379	-42.18116796	122.4468542
4.96	496	-0.653	-0.013	0.774	-2.86479	-6.4744254	0.1145916	174.7579196	-42.11814258	122.435395
4.97	497	-0.652	-0.013	0.775	-2.9793816	-6.1879464	0.1718874	174.7292717	-42.0551172	122.4296654
4.98	498	-0.65	-0.013	0.779	-3.2658606	-5.8441716	0.1718874	174.7063534	-41.9978214	122.4239359
4.99	499	-0.65	-0.013	0.78	-3.3231564	-5.3285094	0.1145916	174.6777055	-41.94625518	122.4124767
5	500	-0.65	-0.015	0.778	-3.2085648	-5.2139178	0.0572958	174.7178125	-41.86031148	122.3551809
5.01	501	-0.651	-0.015	0.778	-3.0939732	-5.5003968	0.0572958	174.6891646	-41.80874526	122.3494513
5.02	502	-0.649	-0.015	0.782	-2.6356068	-5.2712136	-0.0572958	174.6662463	-41.75144946	122.3437217
5.03	503	-0.651	-0.016	0.785	-2.291832	-5.0993262	0	174.6490576	-41.70561282	122.3437217
5.04	504	-0.654	-0.016	0.792	-2.0626488	-5.0993262	-0.0572958	174.6318688	-41.6540466	122.3379922
5.05	505	-0.652	-0.016	0.792	-2.1199446	-4.870143	-0.2291832	174.6891646	-41.5681029	122.2749668
5.06	506	-0.65	-0.018	0.788	-2.4064236	-4.0680018	-0.3437748	174.6662463	-41.52799584	122.2749668
5.07	507	-0.648	-0.018	0.786	-2.5210152	-3.5523396	-0.3437748	174.6375984	-41.48788878	122.2806964
5.08	508	-0.647	-0.017	0.782	-2.4064236	-3.2658606	-0.286479	174.6146801	-41.45924088	122.2806964
5.09	509	-0.645	-0.017	0.78	-2.0626488	-3.0366774	-0.286479	174.5917618	-41.4248634	122.2806964
5.1	510	-0.646	-0.017	0.783	-1.6615782	-2.9220858	-0.286479	174.6948942	-41.35037886	122.1947527
5.11	511	-0.647	-0.018	0.789	-1.3178034	-2.8074942	-0.3437748	174.6777055	-41.32173096	122.1947527
5.12	512	-0.648	-0.02	0.79	-1.2032118	-2.3491278	-0.3437748	174.6662463	-41.29881264	122.2004822
5.13	513	-0.647	-0.021	0.79	-1.2032118	-1.9480572	-0.3437748	174.6490576	-41.27589432	122.2004822
5.14	514	-0.646	-0.019	0.788	-1.2032118	-1.718874	-0.3437748	174.6375984	-41.25870558	122.2062118
5.15	515	-0.645	-0.019	0.787	-1.2032118	-1.4896908	-0.4010706	174.7922971	-41.1670323	122.0858906
5.16	516	-0.644	-0.019	0.786	-0.859437	-1.3750992	-0.4010706	174.7808379	-41.14984356	122.0916202
5.17	517	-0.644	-0.02	0.787	-0.6875496	-1.0886202	-0.286479	174.7693787	-41.1383844	122.0916202
5.18	518	-0.643	-0.02	0.784	-0.6302538	-0.8021412	-0.3437748	174.7636492	-41.13265482	122.0973498
5.19	519	-0.643	-0.02	0.784	-0.5156622	-0.5156622	-0.2291832	174.75219	-41.12692524	122.0973498
5.2	520	-0.643	-0.018	0.786	-0.4583664	-0.4010706	-0.286479	175.1532606	-40.94930826	121.8051412
5.21	521	-0.645	-0.018	0.787	-0.2291832	-0.5156622	-0.3437748	175.147531	-40.94357868	121.8108708
5.22	522	-0.644	-0.019	0.786	-0.3437748	-0.5156622	-0.5156622	175.1418014	-40.9378491	121.8166004
5.23	523	-0.644	-0.021	0.787	-0.4010706	-0.4583664	-0.4010706	175.1303423	-40.93211952	121.82233
5.24	524	-0.644	-0.019	0.784	-0.286479	-0.2291832	-0.286479	175.1246127	-40.93211952	121.8280595
5.25	525	-0.643	-0.018	0.782	0	-0.0572958	-0.3437748	175.7319482	-40.7086659	121.3868819
5.26	526	-0.643	-0.017	0.784	0	-0.1718874	-0.3437748	175.7262186	-40.70293632	121.3868819
5.27	527	-0.643	-0.016	0.786	-0.1718874	0.0572958	-0.572958	175.720489	-40.7086659	121.398341
5.28	528	-0.643	-0.016	0.783	-0.1145916	0.4583664	-0.7448454	175.7147594	-40.7086659	121.4098002
5.29	529	-0.643	-0.017	0.781	0.1718874	0.3437748	-0.8021412	175.7090299	-40.71439548	121.4212594
5.3	530	-0.644	-0.016	0.782	0.3437748	0.1145916	-0.9167328	175.9267539	-40.62845178	121.2665607
5.31	531	-0.643	-0.017	0.785	0.572958	0.286479	-0.9740286	175.9267539	-40.62845178	121.2780199
5.32	532	-0.645	-0.017	0.784	0.8021412	0.5156622	-1.0886202	175.9267539	-40.63418136	121.2952086
5.33	533	-0.643	-0.018	0.783	0.9740286	0.6302538	-1.0313244	175.9267539	-40.63991094	121.3066678
5.34	534	-0.643	-0.017	0.782	1.145916	0.8021412	-1.0313244	175.9267539	-40.64564052	121.3238565
5.35	535	-0.643	-0.018	0.783	1.3178034	0.6875496	-1.145916	176.006968	-40.61699262	121.2837494
5.36	536	-0.644	-0.021	0.783	1.432395	0.6875496	-1.2032118	176.0126976	-40.6227222	121.3009382
5.37	537	-0.645	-0.019	0.786	1.5469866	0.572958	-1.0886202	176.0184272	-40.62845178	121.3181269
5.38	538	-0.643	-0.019	0.783	1.5469866	0.6875496	-1.0886202	176.0241568	-40.63418136	121.3295861
5.39	539	-0.643	-0.018	0.783	1.6042824	0.7448454	-1.0886202	176.0298863	-40.64564052	121.3467748
5.4	540	-0.645	-0.019	0.781	1.8334656	0.6875496	-1.0886202	176.1043709	-40.6227222	121.3123973
5.41	541	-0.643	-0.021	0.784	1.8907614	0.6302538	-0.9740286	176.11583	-40.62845178	121.3238565
5.42	542	-0.644	-0.021	0.785	2.005353	0.6875496	-0.859437	176.1272892	-40.63418136	121.3353157
5.43	543	-0.643	-0.019	0.779	1.8907614	0.7448454	-0.8021412	176.1387484	-40.64564052	121.3467748
5.44	544	-0.643	-0.017	0.776	2.0626488	0.572958	-0.7448454	176.1559371	-40.6513701	121.358234
5.45	545	-0.643	-0.017	0.774	2.4637194	0.0572958	-0.8021412	176.2476104	-40.6227222	121.3181269
5.46	546	-0.643	-0.016	0.774	2.5210152	0	-0.859437	176.2647991	-40.6227222	121.3295861
5.47	547	-0.644	-0.016	0.777	2.7501984	0	-0.9167328	176.2819879	-40.6227222	121.3410452
5.48	548	-0.642	-0.015	0.778	2.86479	0	-0.9740286	176.3049062	-40.6227222	121.358234
5.49	549	-0.642	-0.016	0.778	2.9220858	0.1145916	-1.0313244	176.3278245	-40.6227222	121.3696931
5.5	550	-0.642	-0.017	0.782	2.9793816	0.4010706	-0.859437	176.3965795	-40.59980388	121.3467748
5.51	551	-0.646	-0.017	0.791	2.7501984	0.9740286	-0.6875496	176.4137682	-40.61126304	121.358234
5.52	552	-0.645	-0.017	0.797	2.4064236	1.6615782	-0.572958	176.4366865	-40.62845178	121.3696931
5.53	553	-0.645	-0.019	0.795	1.8334656	2.578311	-0.5156622	176.4481457	-40.6513701	121.3754227
5.54	554	-0.647	-0.018	0.795	1.0886202	3.0366774	-0.1718874	176.4538753	-40.68574758	121.3811523
5.55	555	-0.648	-0.016	0.792	0.6875496	3.3231564	0	176.5169006	-40.68574758	121.3410452
5.56	556	-0.648	-0.015	0.79	0.286479	3.5523396	-0.0572958	176.5169006	-40.72012506	121.3410452
5.57	557	-0.649	-0.014	0.785	0.0572958	3.724227	0	176.5169006	-40.76023212	121.3467748
5.58	558	-0.649	-0.013	0.785	-0.1145916	3.6096354	0.1145916	176.5169006	-40.7946096	121.3410452
5.59	559	-0.65	-0.011	0.78	-0.1145916	3.3804522	0.1718874	176.5169006	-40.82898708	121.3410452
5.6	560	-0.649	-0.01	0.778	-0.1145916	2.86479	0.0572958	176.6028443	-40.82898708	121.2780199
5.61	561	-0.649	-0.011	0.777	-0.2291832	2.5210152	-0.0572958	176.5971148	-40.8519054	121.2837494
5.62	562	-0.65	-0.011	0.774	-0.2291832	2.2345362	-0.1718874	176.5913852	-40.87482372	121.2837494
5.63	563	-0.649	-0.011	0.77	-0.5156622	1.8334656	-0.2291832	176.5856556	-40.89774204	121.289479
5.64	564	-0.649	-0.011	0.769	-0.6875496	1.432395	-0.286479	176.5741964	-40.9092012	121.2952086
5.65	565	-0.647	-0.011	0.769	-0.9167328	1.0886202	-0.3437748	176.6658697	-40.89201246	121.2207241
5.66	566	-0.648	-0.013	0.77	-0.9740286	0.6875496	-0.4010706	176.648681	-40.89774204	121.2321832
5.67	567	-0.649	-0.013	0.771	-1.145916	0.1718874	-0.4583664	176.6314922	-40.90347162	121.2379128
5.68	568	-0.648	-0.013	0.771	-1.2605076	-0.3437748	-0.572958	176.6143035	-40.89774204	121.2436424
5.69	569	-0.648	-0.014	0.773	-1.3750992	-0.6302538	-0.6302538	176.5971148	-40.89201246	121.249372
5.7	570	-0.648	-0.015	0.775	-1.4896908	-0.572958	-0.6875496	176.6429514	-40.85763498	121.2149945
5.71	571	-0.647	-0.016	0.773	-1.4896908	-0.5156622	-0.6875496	176.6200331	-40.8519054	121.2207241
5.72	572	-0.646	-0.017	0.774	-1.6615782	-0.572958	-0.5156622	176.5971148	-40.84617582	121.2264536
5.73	573	-0.647	-0.016	0.773	-1.6042824	-0.9740286	-0.4010706	176.579926	-40.83471666	121.2321832
5.74	574	-0.649	-0.014	0.771	-1.6615782	-1.7761698	-0.4583664	176.5570077	-40.81752792	121.2379128
5.75	575	-0.648	-0.014	0.777	-1.4896908	-2.4064236	-0.6875496	176.579926	-40.77742086	121.2149945
5.76	576	-0.646	-0.017	0.777	-1.2605076	-2.6356068	-0.7448454	176.5627373	-40.74877296	121.2264536
5.77	577	-0.645	-0.018	0.775	-1.2605076	-2.6356068	-0.572958	176.5455485	-40.72012506	121.2321832
5.78	578	-0.645	-0.017	0.772	-1.0313244	-2.8074942	-0.5156622	176.5283598	-40.69147716	121.2379128
5.79	579	-0.643	-0.016	0.774	-0.8021412	-3.0939732	-0.6302538	176.5169006	-40.66282926	121.2436424
5.8	580	-0.643	-0.016	0.776	-0.4583664	-3.2658606	-0.6875496	176.5512781	-40.61126304	121.2207241
5.81	581	-0.645	-0.018	0.776	-0.5156622	-3.6669312	-0.8021412	176.539819	-40.57688556	121.2264536
5.82	582	-0.644	-0.018	0.776	-0.5156622	-4.010706	-0.8021412	176.5283598	-40.5367785	121.2379128
5.83	583	-0.644	-0.017	0.777	-0.3437748	-4.297185	-0.7448454	176.5226302	-40.49094186	121.2436424
5.84	584	-0.644	-0.016	0.783	-0.1718874	-4.297185	-0.7448454	176.5169006	-40.4508348	121.2551015
5.85	585	-0.646	-0.016	0.793	0	-4.297185	-0.7448454	176.5455485	-40.38207984	121.2379128
5.86	586	-0.647	-0.018	0.796	-0.0572958	-4.010706	-0.8021412	176.539819	-40.34197278	121.2436424
5.87	587	-0.643	-0.019	0.794	-0.572958	-3.437748	-0.7448454	176.5283598	-40.3075953	121.2551015
5.88	588	-0.642	-0.015	0.786	-1.0313244	-2.7501984	-0.572958	176.5169006	-40.2789474	121.2608311
5.89	589	-0.642	-0.013	0.784	-0.8021412	-2.578311	-0.6302538	176.5054415	-40.25602908	121.2665607
5.9	590	-0.641	-0.016	0.784	-0.4010706	-2.5210152	-0.6302538	176.5455485	-40.21019244	121.2379128
5.91	591	-0.641	-0.015	0.788	-0.3437748	-2.291832	-0.6302538	176.539819	-40.18727412	121.2436424
5.92	592	-0.643	-0.015	0.79	-0.2291832	-2.005353	-0.6302538	176.5340894	-40.1643558	121.249372
5.93	593	-0.645	-0.017	0.792	-0.2291832	-1.8334656	-0.8021412	176.5226302	-40.14716706	121.2608311
5.94	594	-0.643	-0.017	0.791	0	-1.6042824	-0.8021412	176.5169006	-40.12997832	121.2722903
5.95	595	-0.641	-0.017	0.79	0	-1.3750992	-0.6875496	176.5913852	-40.07268252	121.2207241
5.96	596	-0.642	-0.017	0.79	0.1718874	-1.2605076	-0.6875496	176.5913852	-40.06122336	121.2321832
5.97	597	-0.64	-0.016	0.792	0.286479	-1.145916	-0.6875496	176.5856556	-40.0497642	121.2379128
5.98	598	-0.641	-0.016	0.793	0.4583664	-0.8021412	-0.859437	176.5856556	-40.03830504	121.249372
5.99	599	-0.64	-0.018	0.793	0.4010706	-0.6875496	-0.8021412	176.5856556	-40.03257546	121.2608311
6	600	-0.64	-0.019	0.791	0.3437748	-0.3437748	-0.6302538	176.7059768	-39.95809092	121.180617
6.01	601	-0.637	-0.02	0.79	0.286479	-0.1145916	-0.6302538	176.7059768	-39.95809092	121.1863466
6.02	602	-0.637	-0.018	0.789	0.1718874	-0.1718874	-0.6302538	176.7002472	-39.95236134	121.1978057
6.03	603	-0.638	-0.019	0.79	0	-0.3437748	-0.5156622	176.7002472	-39.95236134	121.2035353
6.04	604	-0.638	-0.02	0.789	-0.0572958	-0.286479	-0.5156622	176.6945176	-39.94663176	121.2092649
6.05	605	-0.639	-0.018	0.786	-0.1718874	-0.1145916	-0.4010706	176.8606754	-39.87214722	121.0889437
6.06	606	-0.64	-0.018	0.786	-0.2291832	-0.1718874	-0.3437748	176.8549459	-39.87214722	121.0946733
6.07	607	-0.64	-0.019	0.788	-0.1145916	-0.286479	-0.3437748	176.8549459	-39.86641764	121.1004029
6.08	608	-0.639	-0.017	0.783	-0.286479	-0.286479	-0.286479	176.8492163	-39.86641764	121.1061325
6.09	609	-0.638	-0.017	0.78	-0.4583664	-0.4010706	-0.286479	176.8377571	-39.86068806	121.1061325
6.1	610	-0.639	-0.018	0.783	-0.4010706	-0.4583664	-0.2291832	176.93516	-39.82631058	121.0373775
6.11	611	-0.64	-0.021	0.785	-0.3437748	-0.572958	-0.1718874	176.9294304	-39.820581	121.0431071
6.12	612	-0.64	-0.02	0.79	-0.572958	-0.6875496	-0.1145916	176.9237008	-39.80912184	121.0431071
6.13	613	-0.641	-0.021	0.793	-0.6875496	-0.4010706	-0.0572958	176.9179712	-39.80912184	121.0431071
6.14	614	-0.64	-0.02	0.792	-0.6302538	-0.1145916	0.0572958	176.9122417	-39.80339226	121.0431071
6.15	615	-0.639	-0.02	0.79	-0.6302538	0.1145916	0.2291832	176.9924558	-39.7632852	120.9743521
6.16	616	-0.636	-0.019	0.792	-0.5156622	0.0572958	0.3437748	176.9924558	-39.7632852	120.9743521
6.17	617	-0.636	-0.017	0.789	-0.5156622	0.1718874	0.286479	176.9867262	-39.7632852	120.9686225
6.18	618	-0.638	-0.017	0.786	-0.4010706	0.1145916	0.3437748	176.9867262	-39.7632852	120.962893
6.19	619	-0.639	-0.017	0.79	-0.4010706	0.3437748	0.3437748	176.9867262	-39.76901478	120.9571634
6.2	620	-0.639	-0.016	0.793	-0.3437748	0.8021412	0.3437748	177.0497516	-39.74609646	120.9055972
6.21	621	-0.64	-0.016	0.792	-0.6302538	1.3178034	0.3437748	177.044022	-39.7632852	120.9055972
6.22	622	-0.64	-0.016	0.79	-0.3437748	1.7761698	0.3437748	177.044022	-39.78047394	120.8998676
6.23	623	-0.641	-0.016	0.79	-0.2291832	2.2345362	0.3437748	177.044022	-39.80339226	120.894138
6.24	624	-0.642	-0.015	0.791	-0.0572958	2.86479	0.4583664	177.044022	-39.83204016	120.8884084
6.25	625	-0.643	-0.016	0.792	-0.0572958	3.151269	0.4583664	177.0783995	-39.8492289	120.8654901
6.26	626	-0.642	-0.015	0.789	0	3.437748	0.3437748	177.0783995	-39.88360638	120.8597605
6.27	627	-0.642	-0.015	0.785	0	3.6096354	0.4010706	177.0841291	-39.91798386	120.8540309
6.28	628	-0.643	-0.014	0.783	0.2291832	3.4950438	0.3437748	177.0841291	-39.95809092	120.8483014
6.29	629	-0.643	-0.013	0.786	0.4010706	3.4950438	0.2291832	177.0898586	-39.9924684	120.8483014
6.3	630	-0.643	-0.013	0.786	0.6875496	3.5523396	0.1718874	177.1299657	-40.01538672	120.825383
6.31	631	-0.643	-0.015	0.784	0.572958	3.5523396	0.0572958	177.1356953	-40.05549378	120.825383
6.32	632	-0.645	-0.014	0.783	0.6302538	3.2658606	0	177.1414249	-40.08414168	120.825383
6.33	633	-0.643	-0.013	0.783	0.7448454	3.2658606	-0.0572958	177.1471544	-40.11851916	120.825383
6.34	634	-0.643	-0.014	0.779	0.6875496	3.3231564	-0.1145916	177.152884	-40.15289664	120.8311126
6.35	635	-0.643	-0.015	0.774	0.6875496	2.9220858	-0.1718874	177.1872615	-40.17581496	120.8139239
6.36	636	-0.643	-0.012	0.776	0.5156622	2.578311	-0.1718874	177.1929911	-40.20446286	120.8139239
6.37	637	-0.642	-0.012	0.773	0.4583664	2.1199446	-0.4010706	177.1929911	-40.2216516	120.825383
6.38	638	-0.644	-0.013	0.773	0.4583664	1.718874	-0.4583664	177.1929911	-40.23884034	120.8311126
6.39	639	-0.644	-0.014	0.775	0.572958	1.2605076	-0.4583664	177.1929911	-40.25602908	120.8368422
6.4	640	-0.645	-0.014	0.774	0.6875496	0.7448454	-0.572958	177.2560165	-40.25602908	120.8024647
6.41	641	-0.646	-0.015	0.774	0.5156622	0.286479	-0.6302538	177.2560165	-40.26175866	120.8139239
6.42	642	-0.646	-0.015	0.775	0.3437748	0.0572958	-0.6302538	177.2502869	-40.26175866	120.8196535
6.43	643	-0.647	-0.015	0.775	0.3437748	-0.1718874	-0.5156622	177.2502869	-40.26175866	120.825383
6.44	644	-0.646	-0.015	0.773	0.286479	-0.5156622	-0.5156622	177.2502869	-40.25602908	120.8368422
6.45	645	-0.646	-0.016	0.773	0.4010706	-0.9167328	-0.3437748	177.3018531	-40.23884034	120.8024647
6.46	646	-0.645	-0.013	0.772	0.572958	-1.2032118	-0.3437748	177.3075827	-40.22738118	120.8081943
6.47	647	-0.643	-0.013	0.77	1.0313244	-1.3750992	-0.3437748	177.3133123	-40.21592202	120.8139239
6.48	648	-0.644	-0.014	0.771	1.6042824	-1.9480572	-0.4583664	177.3247714	-40.1930037	120.8196535
6.49	649	-0.646	-0.014	0.776	1.9480572	-2.6356068	-0.4010706	177.3419602	-40.17008538	120.825383
6.5	650	-0.646	-0.017	0.778	2.0626488	-2.9793816	-0.3437748	177.3763376	-40.1357079	120.8196535
6.51	651	-0.645	-0.017	0.779	2.4637194	-3.3231564	-0.1145916	177.399256	-40.10133042	120.8196535
6.52	652	-0.644	-0.017	0.781	2.4637194	-3.3804522	0.0572958	177.4279039	-40.07268252	120.8196535
6.53	653	-0.646	-0.011	0.793	1.8334656	-2.9220858	0.0572958	177.4508222	-40.04403462	120.8139239
6.54	654	-0.648	-0.014	0.798	1.8334656	-2.6356068	0	177.4680109	-40.01538672	120.8139239
6.55	655	-0.644	-0.016	0.795	1.0886202	-2.1772404	0.1145916	177.5023884	-39.97527966	120.7967351
6.56	656	-0.642	-0.014	0.79	0.6875496	-1.5469866	0.572958	177.5138476	-39.95809092	120.7910056
6.57	657	-0.642	-0.01	0.788	0.9167328	-1.2605076	0.6875496	177.5310363	-39.94663176	120.7795464
6.58	658	-0.643	-0.01	0.791	1.0313244	-1.5469866	0.6875496	177.548225	-39.92944302	120.7738168
6.59	659	-0.643	-0.009	0.79	1.0313244	-1.432395	0.6875496	177.5654138	-39.91798386	120.7623577
6.6	660	-0.644	-0.008	0.789	1.0886202	-0.8021412	0.6875496	177.6284392	-39.89506554	120.7222506
6.61	661	-0.644	-0.01	0.79	1.5469866	-0.286479	0.8021412	177.6513575	-39.89506554	120.7107914
6.62	662	-0.645	-0.009	0.79	1.7761698	0.4010706	0.859437	177.6742758	-39.90079512	120.6993323
6.63	663	-0.644	-0.007	0.788	2.6356068	1.0886202	1.145916	177.7143829	-39.91225428	120.6821435
6.64	664	-0.642	-0.005	0.787	3.724227	2.2345362	1.2032118	177.7602195	-39.9351726	120.6706844
6.65	665	-0.643	-0.001	0.784	4.8128472	2.5210152	1.145916	177.834704	-39.95809092	120.6477661
6.66	666	-0.644	0	0.788	5.9014674	2.578311	0.9167328	177.8977294	-39.98673882	120.6363069
