TimeStamp(s)	FrameCounter	AccX	AccY	AccZ	GyrX	GyrY	GyrZ	EulerX	EulerY	EulerZ
0.01	1	-0.109	-0.92	-0.177	0.8021412	-4.6409598	-0.572958	51.44589882	-26.9576739	-88.14385872
0.02	2	-0.08	-0.971	-0.059	-3.8388186	-7.5057498	0.2291832	51.44016924	-27.00351054	-88.2068841
0.03	3	-0.09	-0.972	-0.056	-3.8961144	-9.453807	0.6302538	51.44016924	-27.06653592	-88.28709822
0.04	4	-0.096	-0.978	-0.057	-4.6982556	-10.7143146	1.0313244	51.42871008	-27.14102046	-88.37304192
0.05	5	-0.102	-0.981	-0.06	-4.9274388	-11.5164558	1.6615782	51.8240511	-27.05507676	-88.5506589
0.06	6	-0.103	-0.979	-0.07	-5.0420304	-11.1153852	2.1772404	51.81259194	-27.14102046	-88.6366026
0.07	7	-0.101	-0.974	-0.073	-4.9274388	-9.9121734	3.0939732	51.7954032	-27.22123458	-88.70535756
0.08	8	-0.101	-0.967	-0.074	-5.5003968	-8.0787078	4.0680018	51.76102572	-27.3014487	-88.7511942
0.09	9	-0.098	-0.961	-0.085	-7.0473834	-6.2452422	4.8128472	51.70372992	-27.38166282	-88.77411252
0.1	10	-0.089	-0.947	-0.099	-8.6516658	-4.4117766	5.5003968	51.94437228	-27.29571912	-88.84859706
0.11	11	-0.08	-0.925	-0.109	-9.2246238	-2.4064236	6.302538	51.84123984	-27.3587445	-88.82567874
0.12	12	-0.075	-0.913	-0.104	-10.1413566	-0.5156622	7.161975	51.72091866	-27.42176988	-88.7798421
0.13	13	-0.07	-0.911	-0.1	-10.7143146	0.8021412	8.1360036	51.58340874	-27.47906568	-88.71681672
0.14	14	-0.082	-0.926	-0.091	-10.1413566	1.8334656	9.453807	51.44016924	-27.54782064	-88.6366026
0.15	15	-0.108	-0.959	-0.077	-9.9694692	2.4637194	10.6570188	51.5948679	-27.49625442	-88.6079547
0.16	16	-0.136	-1.018	-0.072	-9.9121734	3.2658606	11.172681	51.44589882	-27.56500938	-88.50482226
0.17	17	-0.151	-1.073	-0.075	-9.5683986	4.6982556	10.599723	51.29120016	-27.6165756	-88.38450108
0.18	18	-0.148	-1.111	-0.077	-8.7662574	6.016059	8.9381448	51.14796066	-27.65095308	-88.26990948
0.19	19	-0.14	-1.124	-0.073	-7.3338624	6.9327918	6.875496	51.0219099	-27.66814182	-88.16104746
0.2	20	-0.117	-1.121	-0.062	-6.7609044	7.2765666	4.297185	51.21098604	-27.5306319	-88.13812914
0.21	21	-0.1	-1.09	-0.056	-7.448454	7.7922288	2.1199446	51.09639444	-27.501984	-88.05218544
0.22	22	-0.085	-1.047	-0.041	-8.4797784	8.021412	1.0886202	50.97034368	-27.46760652	-87.9777009
0.23	23	-0.068	-1.023	-0.029	-9.453807	6.7609044	0.7448454	50.84429292	-27.43322904	-87.90894594
0.24	24	-0.045	-1.038	-0.022	-10.4278356	4.5263682	-0.572958	50.72397174	-27.40458114	-87.87456846
0.25	25	-0.037	-1.069	-0.007	-10.4851314	2.7501984	-2.9793816	51.03909864	-27.1868571	-87.97197132
0.26	26	-0.034	-1.086	0.011	-10.2559482	0.9167328	-5.72958	50.94742536	-27.13529088	-88.0063488
0.27	27	-0.027	-1.092	0.015	-9.9121734	-0.572958	-8.7089616	50.8786704	-27.0722655	-88.07510376
0.28	28	-0.013	-1.083	0.018	-9.5683986	-2.5210152	-11.1153852	50.82710418	-27.00351054	-88.17250662
0.29	29	0.002	-1.068	0.022	-9.5111028	-5.156622	-12.891555	50.7927267	-26.94048516	-88.31001654
0.3	30	-0.002	-1.056	0.016	-10.7716104	-8.021412	-14.3812458	50.98180284	-26.78005692	-88.53347016
0.31	31	-0.02	-1.061	0.006	-13.0634424	-9.9694692	-16.1001198	50.9359662	-26.71703154	-88.73400546
0.32	32	-0.042	-1.064	-0.006	-15.183387	-9.3965112	-17.8189938	50.8786704	-26.642547	-88.94599992
0.33	33	-0.047	-1.049	-0.008	-15.8709366	-8.4224826	-18.1627686	50.80991544	-26.55087372	-89.14653522
0.34	34	-0.032	-1.017	-0.026	-17.0741484	-7.9641162	-17.0168526	50.71824216	-26.4706596	-89.33561136
0.35	35	-0.026	-0.983	-0.033	-18.1627686	-6.875496	-15.469866	50.79845628	-26.31023136	-89.54760582
0.36	36	-0.021	-0.97	-0.038	-18.7357266	-6.3598338	-13.9228794	50.6781351	-26.24720598	-89.70230448
0.37	37	-0.012	-0.966	-0.041	-19.8816426	-6.0733548	-12.4331886	50.54062518	-26.18991018	-89.8398144
0.38	38	-0.015	-0.968	-0.041	-20.05353	-5.72958	-11.172681	50.3916561	-26.13834396	-89.97159474
0.39	39	-0.022	-0.971	-0.037	-19.3086846	-4.7555514	-9.7975818	50.2484166	-26.0982369	-90.08045676
0.4	40	-0.025	-0.975	-0.029	-17.9335854	-4.0680018	-8.6516658	50.35727862	-25.94926782	-90.23515542
0.41	41	-0.028	-0.976	-0.029	-17.5325148	-3.6096354	-7.2765666	50.2197687	-25.91489034	-90.32109912
0.42	42	-0.029	-0.975	-0.032	-17.4179232	-3.3231564	-6.302538	50.0765292	-25.89197202	-90.39558366
0.43	43	-0.027	-0.973	-0.033	-18.048177	-3.5523396	-5.443101	49.92183054	-25.87478328	-90.46433862
0.44	44	-0.023	-0.971	-0.034	-17.7044022	-4.2398892	-4.583664	49.77286146	-25.8690537	-90.53309358
0.45	45	-0.022	-0.971	-0.039	-17.2460358	-4.5263682	-3.6096354	49.92183054	-25.73727336	-90.66487392
0.46	46	-0.02	-0.969	-0.031	-15.8136408	-5.5003968	-2.291832	49.7900502	-25.7544621	-90.7278993
0.47	47	-0.025	-0.967	-0.018	-14.5531332	-6.9327918	-0.9740286	49.6754586	-25.78883958	-90.79665426
0.48	48	-0.028	-0.963	-0.001	-14.1520626	-8.4224826	0	49.560867	-25.84613538	-90.8711388
0.49	49	-0.024	-0.957	0.004	-14.037471	-9.6829902	0.859437	49.45200498	-25.91489034	-90.94562334
0.5	50	-0.02	-0.953	0.014	-13.2353298	-10.6570188	1.6615782	49.65254028	-25.87478328	-91.09459242
0.51	51	-0.016	-0.956	0.023	-11.745639	-11.745639	2.4064236	49.57232616	-25.96645656	-91.18053612
0.52	52	-0.012	-0.959	0.041	-9.9694692	-13.0061466	3.0366774	49.50930078	-26.069589	-91.26647982
0.53	53	0.003	-0.965	0.052	-8.9381448	-14.32395	3.4950438	49.46346414	-26.18991018	-91.36961226
0.54	54	0.017	-0.972	0.05	-8.4797784	-14.7250206	3.8388186	49.42335708	-26.31023136	-91.46701512
0.55	55	0.036	-0.983	0.056	-8.3651868	-15.2979786	4.1825934	49.68691776	-26.30450178	-91.63890252
0.56	56	0.06	-1.011	0.033	-9.6256944	-15.5271618	4.297185	49.63535154	-26.43055254	-91.74203496
0.57	57	0.067	-1.045	-0.005	-11.9748222	-15.2979786	3.4950438	49.56659658	-26.5566033	-91.85089698
0.58	58	0.049	-1.068	-0.054	-12.891555	-16.1001198	2.8074942	49.48638246	-26.67692448	-91.97121816
0.59	59	0.035	-1.075	-0.105	-12.2040054	-17.0168526	2.9793816	49.42335708	-26.80870482	-92.09726892
0.6	60	0.018	-1.062	-0.136	-8.5370742	-15.469866	3.3804522	49.65826986	-26.78005692	-92.26915632
0.61	61	-0.037	-1.032	-0.126	-5.6722842	-10.1413566	3.3231564	49.63535154	-26.86600062	-92.3321817
0.62	62	-0.125	-1.01	-0.103	-3.8388186	-4.7555514	3.151269	49.60097406	-26.92329642	-92.34937044
0.63	63	-0.241	-1.111	-0.196	-11.5737516	-4.5263682	0.572958	49.5035712	-26.9576739	-92.38374792
0.64	64	-0.342	-1.268	-0.144	-8.9954406	1.2032118	-5.5576926	49.42335708	-26.90610768	-92.4181254
0.65	65	-0.085	-1.33	-0.078	-0.4010706	11.4018642	-8.1932994	49.49784162	-26.72276112	-92.40093666
0.66	66	0.042	-1.279	-0.172	-2.9220858	10.2559482	-8.1360036	49.45200498	-26.59671036	-92.37228876
0.67	67	0.022	-1.227	-0.21	3.2658606	8.3651868	-8.4797784	49.48065288	-26.47638918	-92.3608296
0.68	68	0.06	-1.175	-0.133	9.5111028	4.0680018	-9.9121734	49.59524448	-26.37325674	-92.39520708
0.69	69	0.089	-1.151	-0.072	10.313244	2.86479	-11.0580894	49.72129524	-26.2701243	-92.4467733
0.7	70	0.103	-1.124	-0.078	10.5424272	5.2712136	-10.0840608	50.07079962	-26.01802278	-92.52698742
0.71	71	0.132	-1.087	-0.085	11.4018642	3.0939732	-6.875496	50.19685038	-25.94353824	-92.54990574
0.72	72	0.158	-1.058	-0.095	10.7143146	-1.4896908	-4.1825934	50.32290114	-25.92061992	-92.59574238
0.73	73	0.141	-1.044	-0.135	9.1100322	-6.4744254	-4.1825934	50.45468148	-25.9263495	-92.6759565
0.74	74	0.102	-1.046	-0.18	8.0787078	-13.8082878	-4.9274388	50.60938014	-25.97218614	-92.83065516
0.75	75	0.062	-1.036	-0.218	6.4744254	-20.1108258	-3.8961144	50.94169578	-25.93207908	-93.07129752
0.76	76	0.001	-0.98	-0.258	4.7555514	-25.9549974	-1.0313244	51.09639444	-26.07531858	-93.3062103
0.77	77	-0.087	-0.9	-0.264	4.4690724	-29.1635622	0.8021412	51.25682268	-26.25866514	-93.55258224
0.78	78	-0.202	-0.82	-0.26	4.6409598	-27.9603504	0.3437748	51.41725092	-26.42482296	-93.79895418
0.79	79	-0.285	-0.778	-0.237	5.0993262	-24.9809688	0.0572958	51.56622	-26.57379204	-94.01667822
0.8	80	-0.31	-0.764	-0.223	4.010706	-20.2254174	1.6615782	51.80686236	-26.67692448	-94.21148394
0.81	81	-0.285	-0.773	-0.206	4.4690724	-13.0061466	2.578311	51.89853564	-26.77432734	-94.31461638
0.82	82	-0.216	-0.806	-0.207	3.9534102	-4.3544808	1.8334656	51.95010186	-26.8144344	-94.3375347
0.83	83	-0.133	-0.849	-0.231	2.9793816	3.4950438	0.4010706	51.96156102	-26.79724566	-94.30315722
0.84	84	-0.084	-0.91	-0.245	2.291832	8.1932994	0.1718874	51.95010186	-26.75140902	-94.22867268
0.85	85	-0.061	-0.977	-0.237	2.0626488	11.4018642	2.1199446	52.2251217	-26.4993075	-94.17710646
0.86	86	-0.056	-1.041	-0.218	2.4064236	14.32395	5.443101	52.17355548	-26.45347086	-94.01094864
0.87	87	-0.076	-1.067	-0.202	3.724227	16.5584862	8.9381448	52.11625968	-26.43055254	-93.80468376
0.88	88	-0.09	-1.064	-0.185	5.2139178	18.2773602	12.318597	52.05896388	-26.41909338	-93.55831182
0.89	89	-0.094	-1.047	-0.179	5.7868758	17.8189938	15.3552744	51.9959385	-26.43055254	-93.29475114
0.9	90	-0.092	-1.017	-0.167	6.589017	16.2720072	17.4179232	52.09907094	-26.39044548	-93.06556794
0.91	91	-0.087	-0.987	-0.155	6.5317212	14.1520626	17.9908812	52.0532343	-26.44774128	-92.81346642
0.92	92	-0.073	-0.961	-0.146	5.9587632	11.2872726	17.0741484	52.01312724	-26.51649624	-92.59574238
0.93	93	-0.062	-0.941	-0.135	4.6982556	7.734933	15.2406828	51.98447934	-26.59098078	-92.42385498
0.94	94	-0.053	-0.924	-0.132	3.151269	3.724227	12.8342592	51.96156102	-26.66546532	-92.3035338
0.95	95	-0.044	-0.906	-0.128	1.7761698	-0.1718874	10.0840608	52.29960624	-26.55087372	-92.31499296
0.96	96	-0.032	-0.884	-0.119	0.9740286	-3.7815228	7.8495246	52.29960624	-26.63108784	-92.29780422
0.97	97	-0.041	-0.867	-0.108	0.4583664	-6.1879464	6.3598338	52.3110654	-26.72276112	-92.30926338
0.98	98	-0.055	-0.862	-0.101	-0.1145916	-7.6776372	5.6149884	52.32252456	-26.80870482	-92.33791128
0.99	99	-0.073	-0.863	-0.095	-0.5156622	-8.307891	5.5576926	52.33398372	-26.9003781	-92.37801834
1	100	-0.089	-0.865	-0.09	-0.2291832	-8.4797784	5.6722842	52.63192188	-26.86600062	-92.48115078
1.01	101	-0.098	-0.869	-0.084	0.5156622	-7.9068204	5.7868758	52.6548402	-26.9576739	-92.51552826
1.02	102	-0.11	-0.87	-0.074	1.8334656	-6.9327918	5.3858052	52.6834881	-27.03788802	-92.54417616
1.03	103	-0.123	-0.873	-0.064	3.0939732	-5.6149884	4.4117766	52.72932474	-27.10664298	-92.5613649
1.04	104	-0.133	-0.873	-0.05	4.010706	-4.4690724	3.151269	52.78089096	-27.1582092	-92.58428322
1.05	105	-0.139	-0.873	-0.041	4.583664	-3.724227	1.718874	53.22206862	-27.03788802	-92.7046044
1.06	106	-0.14	-0.872	-0.035	5.0993262	-3.3231564	0	53.29082358	-27.06080634	-92.7332523
1.07	107	-0.139	-0.868	-0.023	5.9014674	-3.3231564	-2.1199446	53.3710377	-27.06080634	-92.77908894
1.08	108	-0.139	-0.871	-0.024	6.1306506	-3.2085648	-4.3544808	53.46271098	-27.0436176	-92.83638474
1.09	109	-0.141	-0.877	-0.027	6.589017	-3.5523396	-6.7609044	53.56584342	-27.00924012	-92.91086928
1.1	110	-0.15	-0.89	-0.013	7.5057498	-2.7501984	-9.167328	53.94972528	-26.84881188	-93.07129752
1.11	111	-0.17	-0.904	0.002	8.0787078	-1.5469866	-11.5737516	54.07577604	-26.76286818	-93.15724122
1.12	112	-0.209	-0.929	0.011	7.8495246	0.5156622	-13.5791046	54.19036764	-26.65400616	-93.24318492
1.13	113	-0.245	-0.951	-0.012	8.021412	3.3231564	-15.6990492	54.30495924	-26.50503708	-93.31193988
1.14	114	-0.268	-0.961	-0.039	10.026765	7.3911582	-17.4179232	54.42528042	-26.32169052	-93.35777652
1.15	115	-0.276	-0.962	-0.052	15.756345	11.9175264	-18.1054728	54.71175942	-26.07531858	-93.392154
1.16	116	-0.262	-0.968	-0.033	22.5172494	17.5898106	-17.761698	54.9180243	-25.82894664	-93.34631736
1.17	117	-0.229	-0.973	-0.023	27.788463	21.7151082	-15.9282324	55.15293708	-25.57684512	-93.24318492
1.18	118	-0.196	-1.01	-0.004	32.372127	23.204799	-12.032118	55.41649776	-25.34766192	-93.105675
1.19	119	-0.152	-1.055	-0.029	32.658606	22.2307704	-6.5317212	55.67432886	-25.17004494	-92.93951718
1.2	120	-0.088	-1.134	-0.073	30.1375908	16.902261	-1.145916	56.02956282	-25.0096167	-92.81346642
1.21	121	-0.041	-1.18	-0.036	28.6479	11.1153852	1.2032118	56.27020518	-24.95805048	-92.69887482
1.22	122	0.012	-1.198	0.059	27.215505	10.6570188	-0.6875496	56.50511796	-24.88929552	-92.60720154
1.23	123	0.016	-1.178	0.134	26.069589	13.464513	-6.4744254	56.72857158	-24.76324476	-92.51552826
1.24	124	-0.115	-1.176	0.203	23.7204612	19.6524594	-13.0061466	56.9233773	-24.5512503	-92.41239582
1.25	125	-0.279	-1.272	0.268	10.599723	23.6058696	-18.1054728	57.04369848	-24.2647713	-92.31499296
1.26	126	-0.135	-1.649	-0.427	-34.8931422	32.085648	-16.6730778	56.60252082	-23.96683314	-92.12018724
1.27	127	-0.226	-1.853	-0.216	12.032118	17.0168526	-2.291832	56.6655462	-23.85224154	-91.97121816
1.28	128	-0.198	-1.671	-0.178	20.7410796	33.518043	9.9121734	56.722842	-23.76056826	-91.60452504
1.29	129	-0.199	-1.485	-0.264	18.7930224	25.3820394	14.2093584	56.7801378	-23.74337952	-91.28939814
1.3	130	-0.104	-1.257	-0.274	11.172681	17.5325148	13.1207382	56.86035192	-23.71473162	-91.05448536
1.31	131	-0.069	-1.187	-0.346	8.4224826	20.4546006	10.886202	56.8374336	-23.69754288	-90.80238384
1.32	132	-0.046	-1.075	-0.288	3.2085648	26.929026	6.016059	56.7514899	-23.61159918	-90.52163442
1.33	133	-0.039	-0.944	-0.317	-0.3437748	41.0237928	-0.6302538	56.59679124	-23.38814556	-90.14921172
1.34	134	-0.02	-0.801	-0.305	-1.7761698	56.3217714	-1.9480572	56.37333762	-23.07874824	-89.64500868
1.35	135	-0.121	-0.711	-0.33	-8.7662574	60.5616606	5.2139178	56.0639403	-22.79226924	-89.0663211
1.36	136	-0.225	-0.72	-0.333	-12.7769634	52.712136	13.4072172	55.71443592	-22.62038184	-88.51055184
1.37	137	-0.174	-0.839	-0.279	-12.7196676	43.3156248	17.0741484	55.38784986	-22.53443814	-88.01780796
1.38	138	-0.104	-0.986	-0.248	-12.6623718	36.096354	15.0114996	55.09564128	-22.4599536	-87.59954862
1.39	139	-0.06	-1.054	-0.229	-11.5164558	28.8770832	9.453807	54.85499892	-22.38546906	-87.28442172
1.4	140	-0.019	-1.049	-0.206	-9.2246238	20.8556712	2.0626488	54.87218766	-22.16201544	-87.1182639
1.41	141	0.011	-1.026	-0.197	-6.1306506	13.5791046	-6.875496	54.7747848	-22.03596468	-87.04377936
1.42	142	0.039	-0.98	-0.177	-3.4950438	7.9068204	-15.5271618	54.7461369	-21.86407728	-87.06669768
1.43	143	0.063	-0.934	-0.174	-2.86479	4.6409598	-23.491278	54.75759606	-21.64635324	-87.16983012
1.44	144	0.081	-0.9	-0.161	-3.8961144	4.4117766	-26.2987722	54.75759606	-21.41144046	-87.2901513
1.45	145	0.069	-0.88	-0.156	-6.7036086	5.443101	-25.0382646	54.84353976	-21.09631356	-87.41620206
1.46	146	0.041	-0.865	-0.155	-9.7975818	8.307891	-20.8556712	54.76332564	-20.87858952	-87.46776828
1.47	147	0.021	-0.862	-0.141	-11.4018642	12.318597	-15.3552744	54.64300446	-20.68951338	-87.45630912
1.48	148	-0.004	-0.853	-0.125	-11.745639	16.7303736	-10.1986524	54.4883058	-20.51762598	-87.37036542
1.49	149	-0.015	-0.849	-0.106	-10.599723	20.4546006	-7.161975	54.33360714	-20.34573858	-87.23858508
1.5	150	-0.006	-0.858	-0.103	-9.9121734	22.7464326	-6.875496	54.29350008	-20.10509622	-87.10107516
1.51	151	0.011	-0.864	-0.105	-8.0787078	24.1788276	-10.0840608	54.15599016	-19.88737218	-86.95210608
1.52	152	0.023	-0.876	-0.093	-6.1306506	22.8610242	-14.1520626	54.05285772	-19.64672982	-86.83751448
1.53	153	0.01	-0.874	-0.078	-4.6982556	20.7983754	-15.8709366	53.9726436	-19.40608746	-86.75730036
1.54	154	0.014	-0.878	-0.069	-4.297185	19.767051	-15.5271618	53.90388864	-19.1654451	-86.68281582
1.55	155	0.025	-0.89	-0.071	-4.870143	19.9962342	-13.464513	53.96691402	-18.87323652	-86.61406086
1.56	156	0.039	-0.906	-0.074	-5.7868758	20.5118964	-10.3705398	53.86951116	-18.6784308	-86.49946926
1.57	157	0.055	-0.927	-0.081	-6.4744254	20.912967	-6.4744254	53.75491956	-18.5065434	-86.36195934
1.58	158	0.063	-0.936	-0.08	-7.6203414	20.4546006	-2.1199446	53.62313922	-18.37476306	-86.2015311
1.59	159	0.053	-0.947	-0.084	-9.6256944	18.907614	2.005353	53.46844056	-18.28881936	-86.02391412
1.6	160	0.056	-0.953	-0.096	-12.0894138	17.4179232	4.0680018	53.46271098	-18.12839112	-85.86921546
1.61	161	0.056	-0.956	-0.101	-14.4385416	15.9282324	5.2139178	53.26217568	-18.08255448	-85.70305764
1.62	162	0.064	-0.959	-0.113	-17.2460358	13.8655836	6.1306506	53.03872206	-18.05390658	-85.54835898
1.63	163	0.07	-0.971	-0.126	-19.7097552	11.6310474	6.7609044	52.79235012	-18.04244742	-85.40511948
1.64	164	0.076	-0.981	-0.133	-21.6578124	9.2819196	7.0473834	52.53451902	-18.048177	-85.2847983
1.65	165	0.085	-0.99	-0.137	-23.6631654	6.3598338	6.9327918	52.425657	-17.97369246	-85.21031376
1.66	166	0.096	-1.004	-0.135	-25.210152	3.0939732	6.6463128	52.15063716	-18.00806994	-85.1415588
1.67	167	0.101	-1.015	-0.141	-27.2728008	-0.6875496	5.9587632	51.86415816	-18.06536574	-85.1129109
1.68	168	0.108	-1.024	-0.138	-27.9603504	-3.151269	5.3858052	51.57767916	-18.12839112	-85.10145174
1.69	169	0.113	-1.038	-0.13	-29.793816	-6.875496	4.7555514	51.28547058	-18.21433482	-85.13009964
1.7	170	0.114	-1.044	-0.123	-30.2521824	-11.2299768	4.583664	51.1365015	-18.24298272	-85.21604334
1.71	171	0.123	-1.055	-0.095	-30.4240698	-16.5011904	4.5263682	50.86148166	-18.38049264	-85.31917578
1.72	172	0.149	-1.084	-0.085	-31.51269	-20.9702628	4.4690724	50.5921914	-18.54665046	-85.46814486
1.73	173	0.167	-1.091	-0.062	-29.6792244	-26.069589	4.2398892	50.35154904	-18.74145618	-85.65149142
1.74	174	0.173	-1.094	-0.046	-26.069589	-32.2002396	4.297185	50.16820248	-18.97636896	-85.89213378
1.75	175	0.183	-1.096	0.009	-20.9702628	-43.7739912	5.3858052	50.16820248	-19.23420006	-86.230179
1.76	176	0.194	-1.103	0.048	-18.621135	-54.144531	6.3598338	50.12236584	-19.61808192	-86.63697918
1.77	177	0.18	-1.132	0.044	-17.7044022	-62.1086472	4.6409598	50.11663626	-20.03634126	-87.1182639
1.78	178	0.101	-1.186	0.058	-16.5584862	-65.4318036	-0.3437748	50.14528416	-20.43741186	-87.662574
1.79	179	0.007	-1.254	0.037	-17.5325148	-65.3745078	-5.443101	50.17966164	-20.7983754	-88.24126158
1.8	180	-0.059	-1.326	0.012	-19.6524594	-59.7022236	-7.6203414	50.23695744	-21.0848544	-88.80276042
1.81	181	-0.086	-1.393	-0.047	-22.8037284	-51.9099948	-6.4171296	50.18539122	-21.35987424	-89.27831556
1.82	182	-0.141	-1.459	-0.19	-28.1322378	-45.83664	-3.3231564	50.05361088	-21.61770534	-89.68511574
1.83	183	-0.267	-1.543	-0.343	-30.939732	-33.518043	-2.578311	49.85307558	-21.80678148	-89.9830539
1.84	184	-0.412	-1.527	-0.42	-25.8404058	-22.1161788	-4.5263682	49.6754586	-21.9156435	-90.20077794
1.85	185	-0.404	-1.408	-0.398	-17.9908812	-15.1260912	-3.437748	49.58378532	-21.9729393	-90.3554766
1.86	186	-0.228	-1.192	-0.405	-13.0061466	-24.6944898	5.2139178	49.52075994	-22.16774502	-90.527364
1.87	187	0.003	-1.065	-0.283	-7.8495246	-36.382833	10.2559482	49.5322191	-22.47141276	-90.7565472
1.88	188	0.107	-0.987	-0.281	-5.2712136	-39.5913978	13.0634424	49.57805574	-22.82091714	-90.99718956
1.89	189	0.159	-0.901	-0.308	-2.2345362	-50.3057124	14.0947668	49.68691776	-23.23917648	-91.31804604
1.9	190	0.173	-0.849	-0.295	-2.6929026	-56.0925882	15.8136408	49.86453474	-23.6345175	-91.69046874
1.91	191	0.122	-0.778	-0.359	-2.6929026	-67.6663398	16.042824	50.03642214	-24.17309802	-92.15456472
1.92	192	0.087	-0.695	-0.354	-1.2032118	-73.625103	15.469866	50.2484166	-24.74605602	-92.6759565
1.93	193	0.102	-0.571	-0.341	-0.6302538	-73.1094408	13.750992	50.4775998	-25.2960957	-93.20880744
1.94	194	0.116	-0.468	-0.302	0.859437	-66.2339448	11.172681	50.706783	-25.78311	-93.70155132
1.95	195	0.027	-0.434	-0.273	0.8021412	-61.7648724	9.7975818	50.9359662	-26.2128285	-94.17137688
1.96	196	-0.132	-0.454	-0.273	-0.7448454	-56.8947294	11.2872726	51.12504234	-26.642547	-94.5953658
1.97	197	-0.299	-0.521	-0.278	-0.9167328	-48.1857678	12.318597	51.27401142	-27.02642886	-94.93341102
1.98	198	-0.414	-0.62	-0.275	0.7448454	-37.8725238	11.8602306	51.40579176	-27.34728534	-95.18551254
1.99	199	-0.428	-0.681	-0.283	5.3858052	-23.3193906	10.3705398	51.52611294	-27.56500938	-95.32302246
2	200	-0.398	-0.738	-0.303	8.4224826	-11.9175264	10.1986524	51.73237782	-27.69106014	-95.38604784
2.01	201	-0.337	-0.793	-0.324	10.4851314	-2.3491278	10.1986524	51.81832152	-27.78273342	-95.33448162
2.02	202	-0.259	-0.814	-0.338	12.7769634	4.9847346	10.5424272	51.89280606	-27.83429964	-95.21989002
2.03	203	-0.176	-0.891	-0.369	13.2353298	9.1100322	11.45916	51.95010186	-27.86867712	-95.0537322
2.04	204	-0.135	-0.942	-0.401	12.9488508	9.9121734	12.2040054	52.00166808	-27.90878418	-94.8818448
2.05	205	-0.098	-0.962	-0.421	13.6936962	8.9954406	13.464513	52.15063716	-27.8457588	-94.72714614
2.06	206	-0.079	-0.94	-0.435	14.32395	6.0733548	13.6936962	52.2251217	-27.91451376	-94.57817706
2.07	207	-0.074	-0.957	-0.412	15.756345	1.718874	12.8342592	52.33398372	-28.00618704	-94.47504462
2.08	208	-0.072	-0.958	-0.396	15.4125702	-2.0626488	11.5737516	52.46003448	-28.10931948	-94.41201924
2.09	209	-0.077	-0.977	-0.364	15.4125702	-5.2712136	11.0580894	52.60900356	-28.22391108	-94.38337134
2.1	210	-0.07	-0.971	-0.351	14.4958374	-8.0787078	10.0840608	52.89548256	-28.2181815	-94.4234784
2.11	211	-0.084	-1	-0.311	14.2666542	-9.6829902	8.1360036	53.0559108	-28.33850268	-94.45785588
2.12	212	-0.091	-1.049	-0.304	12.891555	-11.5164558	7.161975	53.21633904	-28.45882386	-94.51515168
2.13	213	-0.095	-1.083	-0.295	11.5164558	-13.8082878	6.016059	53.37676728	-28.58487462	-94.60109538
2.14	214	-0.119	-1.097	-0.277	10.313244	-15.2406828	3.8961144	53.53719552	-28.69946622	-94.71568698
2.15	215	-0.143	-1.089	-0.262	8.6516658	-15.5844576	1.718874	53.86378158	-28.68800706	-94.89903354
2.16	216	-0.161	-1.067	-0.245	7.7922288	-15.8136408	0.8021412	54.01275066	-28.77968034	-95.03654346
2.17	217	-0.171	-1.046	-0.226	6.8182002	-15.4125702	0.6875496	54.15026058	-28.87135362	-95.17978296
2.18	218	-0.194	-1.028	-0.198	5.5576926	-13.9228794	1.2032118	54.27058176	-28.95729732	-95.30010414
2.19	219	-0.208	-1.017	-0.187	3.4950438	-11.5164558	1.8907614	54.35079588	-29.03751144	-95.39177742
2.2	220	-0.226	-1.015	-0.189	1.5469866	-8.6516658	2.4637194	54.86645808	-28.86562404	-95.5980423
2.21	221	-0.236	-1.012	-0.189	0.1718874	-5.3285094	3.3804522	54.88364682	-28.92291984	-95.6266902
2.22	222	-0.237	-0.998	-0.182	-0.7448454	-2.005353	4.3544808	54.87218766	-28.96875648	-95.61523104
2.23	223	-0.229	-0.959	-0.171	-1.8907614	3.2085648	4.870143	54.82062144	-28.9916748	-95.55220566
2.24	224	-0.228	-0.938	-0.148	-3.437748	7.0473834	4.6409598	54.73467774	-28.9916748	-95.4548028
2.25	225	-0.217	-0.927	-0.135	-6.302538	11.6310474	4.9274388	54.82062144	-28.87135362	-95.38031826
2.26	226	-0.213	-0.919	-0.116	-9.8548776	17.7044022	5.3858052	54.62008614	-28.8197874	-95.17978296
2.27	227	-0.2	-0.916	-0.113	-12.891555	19.9389384	5.9014674	54.37944378	-28.7624916	-94.95632934
2.28	228	-0.192	-0.917	-0.085	-17.0741484	21.0848544	5.7868758	54.0872352	-28.69373664	-94.72141656
2.29	229	-0.171	-0.892	-0.14	-19.5951636	17.3606274	4.7555514	53.79502662	-28.63644084	-94.53234042
2.3	230	-0.137	-0.862	-0.132	-14.9542038	15.1260912	4.6409598	53.70335334	-28.51039008	-94.40056008
2.31	231	-0.098	-0.827	-0.121	-8.307891	15.5271618	3.4950438	53.53719552	-28.45309428	-94.23440226
2.32	232	-0.087	-0.787	-0.054	0.3437748	14.9542038	2.578311	53.46271098	-28.3900689	-94.0797036
2.33	233	-0.111	-0.743	0.061	8.6516658	13.750992	2.4637194	53.4856293	-28.3327731	-93.9364641
2.34	234	-0.139	-0.701	0.106	14.037471	12.3758928	1.6042824	53.56584342	-28.26974772	-93.81041334
2.35	235	-0.198	-0.665	0.094	19.3659804	12.8342592	-0.1718874	53.8007562	-28.18380402	-93.72446964
2.36	236	-0.278	-0.65	0.107	24.637194	16.615782	-1.9480572	53.97837318	-28.06921242	-93.58123014
2.37	237	-0.352	-0.678	0.115	28.1322378	23.3193906	-3.4950438	54.1731789	-27.90878418	-93.38642442
2.38	238	-0.388	-0.793	0.096	28.9916748	30.8251404	-5.2139178	54.3450663	-27.69106014	-93.1343229
2.39	239	-0.368	-0.915	0.024	26.4133638	43.4302164	-6.5317212	54.44246916	-27.39312198	-92.77335936
2.4	240	-0.305	-1.013	-0.029	24.5798982	49.7327544	-4.583664	54.5742495	-27.05507676	-92.37228876
2.41	241	-0.227	-1.096	-0.046	22.7464326	52.2537696	-0.5156622	54.58570866	-26.76286818	-91.89100404
2.42	242	-0.169	-1.192	-0.132	17.7044022	52.8840234	1.6615782	54.53414244	-26.48211876	-91.39253058
2.43	243	-0.094	-1.284	-0.343	11.4018642	52.712136	1.0313244	54.42528042	-26.19563976	-90.90551628
2.44	244	-0.035	-1.353	-0.454	15.8136408	56.0352924	1.2032118	54.35079588	-25.89197202	-90.3841245
2.45	245	-0.049	-1.374	-0.4	22.6891368	63.02538	0.4583664	54.35079588	-25.5252789	-89.81689608
2.46	246	-0.071	-1.304	-0.338	24.2361234	63.9994086	-4.4117766	54.35079588	-25.12993788	-89.26112682
2.47	247	-0.168	-1.188	-0.395	25.4393352	64.8588456	-11.3445684	54.37944378	-24.67730106	-88.74546462
2.48	248	-0.335	-1.105	-0.376	28.3041252	68.4111852	-15.1260912	54.44246916	-24.17309802	-88.22407284
2.49	249	-0.44	-1.062	-0.337	27.4446882	71.9635248	-16.2720072	54.49403538	-23.64024708	-87.67976274
2.5	250	-0.389	-1.004	-0.336	26.4706596	78.7244292	-15.9282324	54.53987202	-23.0615595	-87.07815684
2.51	251	-0.257	-0.93	-0.308	26.7571386	87.4906866	-15.8709366	54.53414244	-22.44849444	-86.4020664
2.52	252	-0.095	-0.818	-0.288	25.496631	92.0743506	-14.2093584	54.50549454	-21.82397022	-85.66868016
2.53	253	0.009	-0.707	-0.31	23.6058696	90.4127724	-10.3705398	54.46538748	-21.23955306	-84.93529392
2.54	254	0.049	-0.646	-0.317	21.1421502	83.0216142	-6.9327918	54.42528042	-20.71816128	-84.24774432
2.55	255	0.056	-0.713	-0.288	18.4492476	69.4998054	-4.6409598	54.43101	-20.2540653	-83.67478632
2.56	256	0.105	-0.856	-0.253	16.329303	56.436363	-4.010706	54.43101	-19.90456092	-83.20496076
2.57	257	0.177	-0.984	-0.248	14.6677248	44.3469492	-4.3544808	54.44819874	-19.6238115	-82.84399722
2.58	258	0.21	-1.061	-0.261	14.037471	33.804522	-7.2765666	54.50549454	-19.37743956	-82.5918957
2.59	259	0.199	-1.111	-0.279	13.5218088	24.4080108	-13.464513	54.59716782	-19.13106762	-82.46011536
2.6	260	0.143	-1.126	-0.285	13.6364004	17.7044022	-20.2827132	54.79197354	-18.80448156	-82.44292662
2.61	261	0.099	-1.138	-0.297	13.4072172	14.6677248	-25.5539268	54.92948346	-18.51227298	-82.46584494
2.62	262	0.023	-1.151	-0.315	13.464513	14.5531332	-28.3041252	55.07845254	-18.20287566	-82.505952
2.63	263	-0.014	-1.147	-0.31	14.2093584	14.7823164	-26.5852512	55.2331512	-17.89920792	-82.5345999
2.64	264	-0.035	-1.125	-0.305	14.896908	16.329303	-21.772404	55.3763907	-17.63564724	-82.52314074
2.65	265	-0.023	-1.101	-0.287	14.7250206	17.8762896	-16.8449652	55.58838516	-17.34343866	-82.47157452
2.66	266	0.015	-1.075	-0.254	13.750992	17.8189938	-12.9488508	55.69724718	-17.13717378	-82.3913604
2.67	267	0.067	-1.078	-0.219	12.1467096	15.2979786	-10.8289062	55.80037962	-16.96528638	-82.32260544
2.68	268	0.086	-1.094	-0.187	10.7143146	10.7143146	-10.313244	55.89778248	-16.82204688	-82.28822796
2.69	269	0.094	-1.111	-0.176	9.740286	5.6149884	-11.5737516	56.00091492	-16.69599612	-82.3054167
2.7	270	0.089	-1.123	-0.147	9.6829902	1.2605076	-13.0634424	56.2931235	-16.4725425	-82.3913604
2.71	271	0.077	-1.1	-0.127	9.1100322	-3.6669312	-13.750992	56.41344468	-16.37513964	-82.50022242
2.72	272	0.069	-1.054	-0.128	8.6516658	-6.9327918	-12.5477802	56.53949544	-16.30638468	-82.63200276
2.73	273	0.051	-1.015	-0.12	9.1100322	-9.3965112	-10.4278356	56.67700536	-16.2720072	-82.77524226
2.74	274	0.041	-0.986	-0.092	8.9381448	-11.5164558	-8.1360036	56.8087857	-16.26054804	-82.92421134
2.75	275	0.045	-0.96	-0.085	7.3338624	-13.0061466	-5.9014674	57.14110134	-16.1574156	-83.09609874
2.76	276	0.037	-0.952	-0.083	5.0420304	-14.4385416	-4.1825934	57.23277462	-16.19179308	-83.24506782
2.77	277	0.026	-0.953	-0.082	2.9793816	-15.3552744	-2.7501984	57.30725916	-16.24908888	-83.3940369
2.78	278	0.001	-0.941	-0.075	0	-15.8136408	-2.578311	57.3530958	-16.30638468	-83.54873556
2.79	279	-0.009	-0.944	-0.068	-3.2085648	-15.469866	-2.1772404	57.36455496	-16.36941006	-83.69770464
2.8	280	-0.004	-0.928	-0.08	-7.6776372	-15.9282324	-0.6302538	57.5249832	-16.34649174	-83.86386246
2.81	281	0.004	-0.924	-0.103	-12.4331886	-16.902261	0.859437	57.44476908	-16.4438946	-84.01283154
2.82	282	0.033	-0.914	-0.103	-16.615782	-17.5325148	1.4896908	57.31871832	-16.54702704	-84.15607104
2.83	283	0.067	-0.904	-0.106	-19.9962342	-18.9649098	1.2032118	57.16401966	-16.65588906	-84.32222886
2.84	284	0.109	-0.908	-0.137	-24.4653066	-21.1421502	0.859437	56.96921394	-16.77621024	-84.49984584
2.85	285	0.12	-0.916	-0.155	-27.7311672	-24.2934192	0.9167328	56.84316318	-16.8449652	-84.72329946
2.86	286	0.116	-0.935	-0.143	-30.4813656	-28.8770832	1.2605076	56.6082504	-17.00539344	-84.9696714
2.87	287	0.116	-0.952	-0.129	-33.1169724	-36.382833	1.3178034	56.36760804	-17.21165832	-85.2847983
2.88	288	0.12	-0.966	-0.135	-35.9817624	-42.5134836	0	56.1212361	-17.44084152	-85.66295058
2.89	289	0.125	-0.976	-0.132	-37.0703826	-47.1544434	-2.1772404	55.88059374	-17.68148388	-86.0869395
2.9	290	0.112	-0.982	-0.082	-36.7839036	-52.712136	-4.4690724	55.73162466	-17.88774876	-86.58541296
2.91	291	0.102	-0.979	-0.031	-37.3568616	-59.4157446	-5.0993262	55.53108936	-18.16849818	-87.14118222
2.92	292	0.119	-0.969	-0.017	-38.1590028	-65.317212	-5.9014674	55.34201322	-18.4778955	-87.7485177
2.93	293	0.122	-0.978	-0.035	-39.3049188	-70.9894962	-5.7868758	55.16439624	-18.81594072	-88.40168982
2.94	294	0.118	-0.971	-0.023	-37.7006364	-77.4066258	-4.6982556	55.02115674	-19.20555216	-89.11215774
2.95	295	0.121	-0.941	0.026	-32.5440144	-89.0376732	-2.2345362	55.02688632	-19.64100024	-89.91429894
2.96	296	0.118	-0.907	0.064	-27.788463	-99.2936214	0.4010706	55.05553422	-20.18531034	-90.7851951
2.97	297	0.14	-0.89	0.08	-23.7204612	-107.6588082	3.2658606	55.15293708	-20.7983754	-91.71911664
2.98	298	0.132	-0.885	0.11	-19.7097552	-114.7634874	4.4690724	55.32482448	-21.46300668	-92.71033398
2.99	299	0.088	-0.887	0.17	-14.896908	-122.2119414	4.5263682	55.58838516	-22.15628586	-93.77603586
3	300	0.046	-0.881	0.199	-11.8029348	-125.8788726	2.9220858	55.98372618	-22.82664672	-94.9104927
3.01	301	-0.015	-0.923	0.184	-9.2819196	-121.0660254	0.859437	56.33323056	-23.47408926	-96.00484248
3.02	302	-0.101	-0.966	0.112	-12.032118	-115.1072622	-0.9740286	56.65408704	-24.06996558	-97.07054436
3.03	303	-0.194	-1.075	0.128	-12.5477802	-101.8146366	-1.8334656	56.93483646	-24.58562778	-98.02165464
3.04	304	-0.28	-1.255	-0.011	-18.907614	-81.4746276	-3.6669312	57.07807596	-24.97523922	-98.80087752
3.05	305	-0.436	-1.403	-0.252	-25.210152	-59.0719698	-8.880849	57.10672386	-25.20442242	-99.41394258
3.06	306	-0.644	-1.452	-0.412	-26.1841806	-36.955791	-13.1207382	57.02650974	-25.28463654	-99.8379315
3.07	307	-0.741	-1.377	-0.544	-19.9389384	-22.1734746	-11.9748222	56.94629562	-25.30182528	-100.1186809
3.08	308	-0.635	-1.249	-0.465	-11.4018642	-23.3766864	-5.9014674	56.94056604	-25.37630982	-100.3707824
3.09	309	-0.53	-1.245	-0.335	-12.3758928	6.8182002	0.1718874	56.78586738	-25.34193234	-100.3077571
3.1	310	-0.346	-1.121	-0.506	-16.615782	19.0795014	9.9121734	56.55668418	-25.29036612	-100.0785739
3.11	311	-0.158	-1.107	-0.376	-13.9801752	22.5745452	27.3300966	56.25301644	-25.40495772	-99.70615116
3.12	312	0.015	-1.179	-0.396	-8.9954406	24.2934192	34.4920716	55.96653744	-25.55965638	-99.27070308
3.13	313	0.231	-1.239	-0.388	-2.005353	18.9649098	32.372127	55.78319088	-25.7258142	-98.8925508
3.14	314	0.388	-1.228	-0.434	-2.005353	10.599723	29.5646328	55.63995138	-25.91489034	-98.61180138
3.15	315	0.378	-1.183	-0.506	-2.578311	-1.8334656	24.8663772	55.58265558	-26.0409411	-98.48002104
3.16	316	0.268	-1.069	-0.532	-4.3544808	-11.8029348	20.8556712	55.53108936	-26.27585388	-98.4628323
3.17	317	0.089	-0.937	-0.557	-7.161975	-16.615782	17.8762896	55.47952314	-26.51649624	-98.50293936
3.18	318	-0.194	-0.772	-0.562	-7.7922288	-17.761698	17.5898106	55.42795692	-26.7571386	-98.56023516
3.19	319	-0.415	-0.647	-0.528	-5.0993262	-8.4797784	20.1681216	55.35920196	-26.96913306	-98.51439852
3.2	320	-0.493	-0.615	-0.48	-0.7448454	5.3858052	21.9442914	55.22742162	-27.15247962	-98.31386322
3.21	321	-0.502	-0.64	-0.475	2.86479	19.194093	22.8610242	55.10710044	-27.23842332	-97.99300674
3.22	322	-0.454	-0.696	-0.455	6.8182002	31.7418732	24.1788276	54.96959052	-27.26134164	-97.54036992
3.23	323	-0.384	-0.771	-0.436	10.0840608	42.4561878	25.2674478	54.80916228	-27.23269374	-96.98460066
3.24	324	-0.32	-0.82	-0.411	12.8342592	50.0765292	24.5798982	54.64873404	-27.1582092	-96.36580602
3.25	325	-0.263	-0.852	-0.389	15.2406828	54.8320806	24.064236	54.52841286	-27.02069928	-95.7126339
3.26	326	-0.196	-0.932	-0.384	17.3033316	55.9207008	23.8350528	54.39090294	-26.90610768	-95.04227304
3.27	327	-0.143	-0.979	-0.397	17.9908812	52.6548402	22.631841	54.28204092	-26.79151608	-94.41201924
3.28	328	-0.064	-1.038	-0.401	18.907614	46.8679644	21.199446	54.21328596	-26.6998428	-93.83906124
3.29	329	-0.018	-1.003	-0.41	20.626488	38.4454818	19.8816426	54.2018268	-26.642547	-93.35777652
3.3	330	-0.019	-0.952	-0.409	21.1421502	29.8511118	17.3033316	54.2877705	-26.54514414	-92.98535382
3.31	331	-0.046	-0.946	-0.397	21.3713334	23.3766864	14.896908	54.36225504	-26.53368498	-92.6759565
3.32	332	-0.069	-0.934	-0.379	21.3713334	18.907614	12.891555	54.4596579	-26.5279554	-92.4181254
3.33	333	-0.084	-0.92	-0.374	20.7983754	15.9855282	10.9434978	54.5742495	-26.5279554	-92.20040136
3.34	334	-0.092	-0.904	-0.356	20.7410796	14.32395	9.2246238	54.69457068	-26.52222582	-92.00559564
3.35	335	-0.096	-0.902	-0.339	20.6837838	13.8655836	8.4797784	54.90656514	-26.41909338	-91.8451674
3.36	336	-0.096	-0.903	-0.365	19.2513888	12.3758928	7.8495246	55.02688632	-26.4133638	-91.67900958
3.37	337	-0.099	-0.892	-0.376	19.2513888	9.7975818	6.7609044	55.16439624	-26.4133638	-91.54722924
3.38	338	-0.098	-0.885	-0.347	20.6837838	8.6516658	5.3285094	55.3190949	-26.40763422	-91.43263764
3.39	339	-0.088	-0.867	-0.338	21.6578124	7.1046792	3.151269	55.50244146	-26.39044548	-91.34096436
3.4	340	-0.08	-0.847	-0.325	22.9756158	5.3858052	0	55.80037962	-26.25293556	-91.31231646
3.41	341	-0.078	-0.824	-0.3	24.0069402	5.3285094	-3.2085648	56.02956282	-26.18991018	-91.28366856
3.42	342	-0.078	-0.803	-0.31	24.2361234	4.2398892	-5.2712136	56.27020518	-26.12115522	-91.27793898
3.43	343	-0.095	-0.801	-0.268	25.4393352	3.6669312	-5.5576926	56.52803628	-26.05240026	-91.2722094
3.44	344	-0.113	-0.804	-0.249	25.8977016	3.0366774	-4.5263682	56.79159696	-25.99510446	-91.2722094
3.45	345	-0.133	-0.801	-0.245	25.6112226	1.2032118	-3.4950438	57.14110134	-25.89197202	-91.3008573
3.46	346	-0.154	-0.798	-0.199	26.8144344	0.6302538	-2.86479	57.42185076	-25.85759454	-91.31231646
3.47	347	-0.146	-0.796	-0.196	27.3300966	-0.2291832	-2.4637194	57.70260018	-25.83467622	-91.3295052
3.48	348	-0.145	-0.774	-0.185	30.1375908	-1.6615782	-2.9220858	58.02345666	-25.81748748	-91.3581531
3.49	349	-0.138	-0.769	-0.144	33.7472262	-2.4637194	-3.724227	58.3844202	-25.79456916	-91.40398974
3.5	350	-0.111	-0.748	-0.128	36.955791	-3.9534102	-5.9014674	58.85424576	-25.72008462	-91.48993344
3.51	351	-0.103	-0.742	-0.08	41.3102718	-5.2139178	-9.167328	59.31834174	-25.65705924	-91.5873363
3.52	352	-0.1	-0.732	-0.075	43.1437374	-6.0733548	-12.7769634	59.81108562	-25.57111554	-91.71338706
3.53	353	-0.097	-0.718	-0.058	46.5241896	-8.2505952	-16.1001198	60.35539572	-25.4679831	-91.87954488
3.54	354	-0.096	-0.701	-0.055	49.3889796	-10.6570188	-18.7930224	60.94554246	-25.34766192	-92.08008018
3.55	355	-0.094	-0.681	-0.04	53.7434604	-12.4904844	-21.485925	61.63309206	-25.18723368	-92.32072254
3.56	356	-0.08	-0.66	-0.005	58.5563076	-14.8396122	-24.4080108	62.3378304	-25.03253502	-92.5900128
3.57	357	-0.052	-0.657	0.041	61.7075766	-17.9335854	-27.2728008	63.09986454	-24.86064762	-92.89941012
3.58	358	-0.035	-0.684	0.069	61.1346186	-21.5432208	-30.7105488	63.87335784	-24.6658419	-93.25464408
3.59	359	-0.033	-0.711	0.101	60.733548	-25.2674478	-33.9764094	64.6583103	-24.45957702	-93.66144426
3.6	360	-0.026	-0.74	0.067	59.7595194	-27.788463	-36.5547204	65.49482898	-24.20174592	-94.11408108
3.61	361	-0.041	-0.767	0.062	60.3324774	-29.793816	-38.2735944	66.29697018	-23.96110356	-94.57244748
3.62	362	-0.069	-0.781	0.058	61.879464	-29.3354496	-39.7632852	67.11630012	-23.69754288	-95.03654346
3.63	363	-0.135	-0.787	0.111	64.171296	-27.1582092	-41.4821592	67.94135964	-23.4053343	-95.47199154
3.64	364	-0.188	-0.788	0.067	63.4837464	-22.5745452	-42.8572584	68.74350084	-23.07874824	-95.86733256
3.65	365	-0.235	-0.765	-0.003	63.7129296	-19.0222056	-42.97185	69.56283078	-22.72924386	-96.22256652
3.66	366	-0.281	-0.783	-0.031	65.4890994	-16.2147114	-40.5654264	70.34778324	-22.39119864	-96.53196384
3.67	367	-0.288	-0.776	-0.046	68.4111852	-13.464513	-35.4661002	71.13846528	-22.09326048	-96.78979494
3.68	368	-0.305	-0.735	-0.042	71.7343416	-9.740286	-30.5959572	71.94060648	-21.82397022	-96.98460066
3.69	369	-0.345	-0.713	-0.059	72.2500038	-5.156622	-26.8717302	72.72555894	-21.5718687	-97.116381
3.7	370	-0.377	-0.691	-0.12	70.473834	1.6042824	-24.7517856	73.46467476	-21.33695592	-97.1736768
3.71	371	-0.383	-0.65	-0.124	69.7289886	9.9121734	-22.5172494	74.15222436	-21.09058398	-97.12784016
3.72	372	-0.385	-0.563	-0.131	64.1140002	23.204799	-17.8762896	74.73091194	-20.8556712	-96.93303444
3.73	373	-0.354	-0.441	-0.144	57.9260538	41.7686382	-12.0894138	75.1720896	-20.63794716	-96.53196384
3.74	374	-0.201	-0.277	-0.169	52.139178	60.8481396	-6.1879464	75.47575734	-20.43741186	-95.91889878
3.75	375	-0.024	-0.066	-0.27	48.6441342	77.635809	0.0572958	75.63618558	-20.26552446	-95.111028
3.76	376	0.108	0.137	-0.266	52.5975444	74.0261736	4.583664	75.89401668	-20.14520328	-94.33180512
3.77	377	0.152	0.212	-0.139	54.2591226	63.7702254	6.9327918	76.203414	-20.07071874	-93.65571468
3.78	378	0.155	0.219	-0.002	48.3576552	51.7954032	2.8074942	76.50135216	-19.98477504	-93.11140458
3.79	379	0.174	0.201	0.084	53.0559108	44.7480198	-5.72958	76.87950444	-19.83007638	-92.65876776
3.8	380	0.189	0.103	0.16	55.9779966	38.7319608	-14.3812458	77.32641168	-19.60089318	-92.29207464
3.81	381	0.158	0.019	0.194	52.9413192	31.51269	-17.2460358	77.76185976	-19.3659804	-92.00559564
3.82	382	0.076	-0.089	0.209	55.9207008	26.5279554	-16.4438946	78.24314448	-19.15398594	-91.7592237
3.83	383	0.004	-0.177	0.262	62.3951262	26.8717302	-14.5531332	78.79318416	-18.95918022	-91.50712218
3.84	384	-0.003	-0.19	0.277	66.6350154	27.501984	-10.5424272	79.37760132	-18.80448156	-91.23783192
3.85	385	0.046	-0.192	0.276	68.0101146	24.923673	-4.5263682	80.0135847	-18.7070787	-90.9857304
3.86	386	0.151	-0.239	0.218	63.1399716	21.8869956	0.4583664	80.57508354	-18.67270122	-90.7565472
3.87	387	0.258	-0.345	0.085	54.6028974	16.1574156	2.86479	81.073557	-18.67270122	-90.57893022
3.88	388	0.364	-0.467	-0.091	42.6280752	1.5469866	2.4064236	81.49754592	-18.69561954	-90.55028232
3.89	389	0.49	-0.643	-0.256	24.637194	-11.5737516	-0.0572958	81.78402492	-18.70134912	-90.6706035
3.9	390	0.75	-1.009	-0.64	-10.7716104	-14.2093584	-0.3437748	81.69808122	-18.68416038	-90.81957258
3.91	391	1.149	-1.897	-1.381	-82.7351352	-39.534102	20.3973048	80.9876133	-18.94199148	-91.20345444
3.92	392	1.598	-2.905	-1.489	-82.5632478	-135.5618628	70.8749046	80.60373144	-19.8243468	-92.5040691
3.93	393	1.33	-2.782	-1.291	-62.5670136	-209.1869658	91.5013926	80.70686388	-21.01036986	-94.53807
3.94	394	0.757	-2.077	-1.22	-34.0337052	-226.1465226	79.2973872	81.22252608	-22.07607174	-96.79552452
3.95	395	-0.196	-1.208	-0.713	-9.453807	-232.1625816	26.9863218	82.06477434	-22.62611142	-99.21913686
3.96	396	-1.428	-0.684	-0.14	1.0313244	-205.8638094	-24.4653066	82.95858882	-22.59173394	-101.4422139
3.97	397	-2.181	-0.453	0.103	15.469866	-120.1492926	-63.1399716	83.64613842	-22.07607174	-102.8001244
3.98	398	-1.943	-0.253	0.237	52.3110654	-37.5860448	-81.932994	84.36233592	-21.29111928	-103.2814091
3.99	399	-1.14	-0.059	0.177	66.749607	26.929026	-70.5884256	84.95821224	-20.5691922	-103.0579555
4	400	-0.985	-0.233	-0.2	63.7702254	34.2628884	-31.7418732	85.44522654	-20.30563152	-102.7199102
4.01	401	-0.634	-0.824	0.36	85.8864042	25.210152	7.161975	86.21871984	-20.35719774	-102.4391608
4.02	402	-0.399	-0.614	0.7	73.625103	11.45916	15.1260912	86.9177286	-20.49470766	-102.3016509
4.03	403	0.263	-0.063	0.765	79.927641	20.05353	12.1467096	87.64538526	-20.60356968	-102.0724677
4.04	404	1.174	0.074	0.329	82.9070226	-3.8388186	-5.8441716	88.49909268	-20.5405443	-102.1068452
4.05	405	1.774	-0.202	0.208	97.0590852	-35.4088044	-31.9137606	89.61636078	-20.1967695	-102.4735383
4.06	406	1.537	-0.394	0.18	93.5640414	-65.8328742	-53.0559108	90.80238384	-19.64100024	-103.1496287
4.07	407	0.908	-0.331	-0.014	87.1469118	-86.5739538	-63.9994086	91.9884069	-18.95345064	-104.0262545
4.08	408	0.522	-0.435	-0.188	87.3187992	-90.1262934	-80.5578948	93.1629708	-18.08255448	-104.9143394
4.09	409	-0.065	-0.546	-0.17	98.9498466	-84.8550798	-93.678633	94.41774882	-17.06841882	-105.710751
4.1	410	-0.396	-0.302	-0.208	112.5289512	-78.2660628	-98.2050012	95.75274096	-16.02563526	-106.4040302
4.11	411	-0.364	-0.167	-0.081	136.7077788	-60.2178858	-96.0850566	97.27107966	-14.9828517	-106.8853149
4.12	412	-0.358	-0.615	0.251	169.7674554	-41.252976	-89.0376732	99.0644382	-14.02601184	-107.1488756
4.13	413	-0.634	-1.679	0.366	186.1540542	-41.9978214	-62.9107884	101.0239546	-13.3212735	-107.429625
4.14	414	-0.704	-2.747	0.595	201.1655538	-23.0902074	-23.0329116	103.1037921	-13.02906492	-107.5785941
4.15	415	-0.118	-2.945	0.895	242.361234	54.3164184	6.9327918	105.4357312	-13.2353298	-107.034284
4.16	416	-0.022	-2.67	1.36	292.495059	87.2042076	24.7517856	108.2031183	-13.72807368	-106.2321428
4.17	417	-0.432	-2.192	1.828	313.5226176	101.5281576	24.923673	111.1481224	-14.31249084	-105.3096804
4.18	418	-0.425	-2.225	2.219	326.4141726	105.710751	11.0580894	114.196259	-14.83388262	-104.3184631
4.19	419	0.37	-2.674	2.493	339.8786856	105.7680468	-8.7662574	117.3589871	-15.22922364	-103.2699499
4.2	420	1.246	-3.347	2.751	336.4409376	88.522011	-30.4813656	120.498797	-15.40111104	-102.2844622
4.21	421	2.065	-2.665	2.979	497.4994314	42.1697088	-50.5921914	125.3517512	-15.20057574	-101.5682647
4.22	422	0.704	-0.761	3.466	587.5111332	-58.0979412	-31.1116194	131.3678102	-14.60469942	-101.7401521
4.23	423	0.529	-1.236	1.803	103.8772854	4.4117766	-16.042824	132.3819459	-14.51302614	-101.5797238
4.24	424	0.24	-0.866	1.977	121.180617	5.5003968	-7.3338624	133.5794281	-14.50156698	-101.4708618
4.25	425	0.217	-0.578	1.88	121.8108708	21.2567418	-7.161975	134.7769103	-14.59324026	-101.2531378
4.26	426	0.098	-0.291	1.511	121.5243918	25.6112226	-4.1825934	135.9457447	-14.7536685	-101.0239546
4.27	427	-0.295	-0.728	1.173	116.1958824	32.372127	-5.9587632	137.0515536	-14.9542038	-100.7432051
4.28	428	0.71	-0.499	1.183	128.8009584	40.393539	-10.313244	138.2547654	-15.18911658	-100.376512
4.29	429	0.133	-0.291	1.028	129.488508	35.6379876	-4.297185	139.4923547	-15.43548852	-100.090033
4.3	430	0.094	-0.179	0.886	132.926256	38.2162986	-1.3178034	140.7986989	-15.72196752	-99.82647234
4.31	431	-0.083	0.617	0.617	143.4113874	48.6441342	-0.6302538	142.1566094	-16.11157896	-99.49988628
4.32	432	0.032	0.339	0.703	143.5832748	57.6395748	10.4851314	143.525979	-16.63870032	-99.21913686
4.33	433	0.067	-0.054	0.827	158.1937038	62.738901	11.0580894	145.0385881	-17.22884706	-98.92692828
4.34	434	0.132	-0.426	1.102	173.9500488	61.020027	6.1306506	146.7058959	-17.77888674	-98.61753096
4.35	435	0.043	-0.262	1.404	179.335854	58.3844202	8.59437	148.4534178	-18.31746726	-98.35969986
4.36	436	-0.011	-0.304	1.621	166.9026654	56.436363	11.0580894	150.0691594	-18.87323652	-98.15343498
4.37	437	0.1	-0.333	1.699	150.5733624	50.0765292	8.1360036	151.5302023	-19.36025082	-97.96435884
4.38	438	0.162	-0.44	1.702	144.7864866	42.685371	5.3858052	152.9396789	-19.77278058	-97.79820102
4.39	439	0.102	-0.306	1.71	138.7131318	32.7159018	1.718874	154.2918598	-20.0821779	-97.64923194
4.4	440	0.027	-0.557	1.62	101.127087	33.1169724	8.9954406	155.3002659	-20.41449354	-97.58620656
4.41	441	0.063	-0.355	1.448	74.3126526	33.5753388	26.2987722	156.0909479	-20.83275288	-97.69506858
4.42	442	0.131	-0.468	1.45	59.9887026	27.788463	39.9924684	156.7956863	-21.25101222	-97.96435884
4.43	443	0	-0.263	1.305	41.0810886	26.642547	73.7969904	157.4373992	-21.78386316	-98.58315348
4.44	444	0.003	-0.481	1.208	28.074942	25.3247436	91.67328	158.027546	-22.36255074	-99.39675384
4.45	445	-0.115	-0.179	1.024	10.313244	11.8602306	87.8344614	158.4859124	-22.75789176	-100.2390021
4.46	446	-0.149	-0.365	1.014	-5.6722842	6.6463128	81.1881486	158.7380139	-23.10739614	-101.0296841
4.47	447	-0.012	-0.35	0.833	-63.8275212	-7.161975	70.1300592	158.3885095	-23.2907427	-101.7688
4.48	448	-0.067	0.635	0.565	6.016059	2.4064236	69.8435802	158.7265547	-23.56576254	-102.4678087
4.49	449	-0.111	0.367	0.661	29.793816	17.475219	83.8237554	159.3396198	-24.02985852	-103.2470316
4.5	450	-0.043	0.356	0.634	27.1582092	20.5118964	79.4692746	159.9985215	-24.47103618	-104.0090657
4.51	451	-0.042	0.217	0.66	17.9908812	22.5745452	72.3072996	160.4568879	-24.923673	-104.6794266
4.52	452	-0.008	0.124	0.671	0.9740286	22.8037284	62.3378304	160.7089894	-25.34193234	-105.246655
4.53	453	0	0.134	0.67	-14.5531332	20.8556712	50.8213746	160.7548261	-25.70289588	-105.710751
4.54	454	-0.044	0.151	0.669	-18.8503182	15.9282324	37.0703826	160.7089894	-25.97218614	-106.0430666
4.55	455	-0.018	0.076	0.679	-17.0168526	9.3965112	18.5638392	160.7204486	-26.05812984	-106.2436019
4.56	456	-0.046	0.177	0.686	-18.8503182	3.724227	1.7761698	160.5313724	-26.0982369	-106.2493315
4.57	457	-0.022	0.103	0.739	-23.7204612	-0.1145916	-10.4851314	160.2448934	-26.05812984	-106.1461991
4.58	458	-0.024	0.037	0.805	-22.8610242	-2.9793816	-10.1986524	159.9698736	-25.99510446	-106.0545258
4.59	459	-0.046	0.029	0.905	-24.6944898	-3.0939732	-9.3965112	159.6833946	-25.93207908	-105.9685821
4.6	460	-0.04	-0.003	0.994	-29.7365202	-4.9274388	-7.734933	159.4828593	-25.73727336	-105.9456638
4.61	461	-0.032	-0.024	1.06	-35.0077338	-7.161975	-5.6149884	159.1218958	-25.64560008	-105.9170159
4.62	462	-0.04	-0.054	1.114	-40.0497642	-10.026765	-3.6096354	158.7150956	-25.53673806	-105.9227455
4.63	463	-0.048	-0.094	1.159	-43.3156248	-12.8342592	-2.1772404	158.2911067	-25.40495772	-105.9513934
4.64	464	-0.049	-0.148	1.218	-43.7739912	-13.2353298	-1.3178034	157.8671177	-25.27317738	-105.9915004
4.65	465	-0.028	-0.135	1.243	-42.398892	-13.0061466	0.2291832	157.5118838	-25.08983082	-106.065985
4.66	466	-0.01	-0.134	1.242	-39.1330314	-13.5791046	1.6615782	157.1509202	-24.96378006	-106.1404695
4.67	467	0.004	-0.109	1.247	-32.8304934	-16.1574156	3.2085648	156.8644412	-24.82627014	-106.2436019
4.68	468	0.005	-0.031	1.222	-24.4653066	-20.2827132	4.870143	156.6753651	-24.65438274	-106.3753823
4.69	469	0.052	0.057	1.237	-15.2406828	-27.8457588	6.0733548	156.595151	-24.42519954	-106.5529993
4.7	470	-0.12	0.073	1.246	-4.9274388	-32.4867186	2.5210152	156.6982834	-24.04704726	-106.7248867
4.71	471	-0.14	-0.225	1.084	9.453807	-32.945085	0.3437748	156.8529821	-23.74337952	-106.8623966
4.72	472	-0.153	-0.352	0.948	-0.3437748	-35.1223254	-3.2085648	156.8930891	-23.41106388	-106.9712586
4.73	473	-0.019	-0.11	0.986	0.286479	-31.9137606	-10.313244	156.9102779	-23.07301866	-106.9941769
4.74	474	0.027	-0.166	1.028	4.4117766	-15.4125702	-23.0329116	156.8930891	-22.84383546	-106.8222895
4.75	475	-0.089	-0.356	0.883	0.6875496	8.307891	-38.3308902	156.7269313	-22.70632554	-106.4040302
4.76	476	0.105	-0.415	0.828	4.0680018	22.5172494	-47.7274014	156.5493143	-22.72924386	-105.8425313
4.77	477	0.148	-0.215	0.812	9.5111028	9.0527364	-36.8411994	156.4920185	-22.66621848	-105.4414607
4.78	478	0.001	-0.199	0.848	11.6310474	-11.2299768	-12.891555	156.5779622	-22.5172494	-105.355517
4.79	479	0.074	-0.22	0.894	12.7196676	-25.78311	-1.718874	156.7383905	-22.27087746	-105.4357312
4.8	480	0.1	-0.157	0.936	19.0222056	-23.5485738	-4.6982556	157.0248695	-21.90418434	-105.493027
4.81	481	0.037	-0.038	0.935	19.4232762	-14.7823164	-5.5576926	157.2196752	-21.74948568	-105.493027
4.82	482	-0.001	-0.113	0.932	14.5531332	-5.72958	-7.7922288	157.3514555	-21.66927156	-105.4357312
4.83	483	0.016	-0.206	0.903	10.7716104	-1.8907614	-5.156622	157.4431288	-21.6291645	-105.3898945
4.84	484	0.021	-0.156	0.903	10.313244	-2.0626488	-1.432395	157.5462613	-21.60624618	-105.3841649
4.85	485	0.019	-0.155	0.935	7.161975	-1.5469866	-0.9167328	158.0390051	-20.99318112	-105.4471903
4.86	486	0	-0.159	0.966	1.3750992	1.2032118	-0.7448454	158.0504643	-21.00464028	-105.4357312
4.87	487	0.021	-0.149	0.985	-3.0366774	4.5263682	-0.5156622	158.0103572	-21.04474734	-105.4128128
4.88	488	0.023	-0.128	1.004	-6.7609044	6.016059	-0.2291832	157.9301431	-21.10204314	-105.3898945
4.89	489	0.01	-0.139	1.03	-9.5683986	7.3911582	0.1718874	157.8212811	-21.1707981	-105.3669762
4.9	490	0.006	-0.163	1.05	-10.9434978	8.1932994	0.572958	157.8556586	-21.0275586	-105.3669762
4.91	491	0.02	-0.191	1.059	-11.4018642	8.59437	0.8021412	157.7296078	-21.10777272	-105.3440579
4.92	492	0.019	-0.187	1.068	-11.0007936	8.4224826	0.9740286	157.6092866	-21.18798684	-105.3211396
4.93	493	0.016	-0.168	1.069	-10.0840608	7.6776372	1.2605076	157.5004246	-21.26247138	-105.3096804
4.94	494	0.013	-0.158	1.063	-8.4797784	6.5317212	1.2032118	157.4087513	-21.33122634	-105.2982212
4.95	495	0.02	-0.17	1.048	-6.4171296	4.4117766	1.0313244	157.6608529	-20.93588532	-105.3440579
4.96	496	0.018	-0.175	1.037	-4.010706	2.3491278	0	157.6150162	-20.95880364	-105.3325987
4.97	497	0.014	-0.184	1.017	-1.9480572	0.1145916	0.286479	157.5978275	-20.96453322	-105.3383283
4.98	498	0.029	-0.163	1.011	-0.4010706	-1.3750992	0	157.5920979	-20.94734448	-105.3440579
4.99	499	0.03	-0.175	1.002	0.4010706	-1.432395	-0.4583664	157.5978275	-20.93588532	-105.3440579
5	500	0.014	-0.198	0.994	1.718874	-1.0313244	-0.286479	158.4343462	-19.69829604	-105.4643791
5.01	501	-0.006	-0.188	0.982	3.437748	-0.6875496	0.3437748	158.4744532	-19.69256646	-105.4701086
5.02	502	0	-0.161	0.967	3.724227	-1.2032118	0.8021412	158.5145603	-19.6811073	-105.4815678
5.03	503	0.007	-0.127	0.959	2.005353	-1.3178034	0.7448454	158.5432082	-19.67537772	-105.493027
5.04	504	0.03	-0.132	0.957	-0.286479	-1.0886202	0.5156622	158.5432082	-19.66391856	-105.5044861
5.05	505	0.035	-0.147	0.966	-2.005353	-0.6875496	0.2291832	159.3797269	-18.45497718	-105.6305369
5.06	506	0.028	-0.143	0.977	-2.3491278	-0.1145916	0.1145916	159.3568085	-18.45497718	-105.6305369
5.07	507	0.017	-0.141	0.992	-2.005353	0.9740286	0.0572958	159.3338902	-18.46643634	-105.6305369
5.08	508	0.018	-0.149	1.005	-0.9167328	2.4064236	0.1145916	159.3224311	-18.48935466	-105.6190777
5.09	509	0.022	-0.151	1.02	0.286479	4.0680018	0.1718874	159.3224311	-18.52946172	-105.6076186
5.1	510	0.024	-0.154	1.031	1.2032118	5.6149884	0.3437748	159.677665	-18.11120238	-105.641996
5.11	511	0.023	-0.15	1.038	1.7761698	6.8182002	0.572958	159.6891242	-18.17422776	-105.6248073
5.12	512	0.018	-0.145	1.042	1.8907614	7.3338624	0.6875496	159.7005833	-18.2487123	-105.601889
5.13	513	0.015	-0.155	1.041	1.6615782	6.9327918	0.859437	159.7120425	-18.31746726	-105.5904298
5.14	514	0.018	-0.159	1.035	1.6615782	6.0733548	0.9167328	159.7235017	-18.37476306	-105.5789707
5.15	515	0.015	-0.158	1.029	1.432395	4.7555514	0.9167328	160.1474906	-17.8476417	-105.6248073
5.16	516	0.013	-0.156	1.018	1.0313244	3.3231564	0.9167328	160.1589497	-17.88201918	-105.6248073
5.17	517	0.011	-0.153	1.005	0.3437748	2.1199446	0.9167328	160.1646793	-17.9049375	-105.6248073
5.18	518	0.014	-0.152	0.996	-0.286479	0.9167328	0.9740286	160.1646793	-17.91639666	-105.6305369
5.19	519	0.011	-0.15	0.988	-1.3178034	-0.0572958	0.859437	160.1532202	-17.92212624	-105.641996
5.2	520	0.014	-0.146	0.98	-2.005353	-0.8021412	0.7448454	160.714719	-17.08560756	-105.7222102
5.21	521	0.016	-0.151	0.977	-2.4637194	-1.6615782	0.6302538	160.6975303	-17.0741484	-105.7336693
5.22	522	0.016	-0.154	0.978	-2.4064236	-2.1772404	0.572958	160.6746119	-17.05123008	-105.7451285
5.23	523	0.015	-0.158	0.981	-1.8907614	-2.5210152	0.4583664	160.6574232	-17.02831176	-105.7623172
5.24	524	0.014	-0.162	0.991	-0.7448454	-2.4064236	0.4010706	160.6574232	-17.01112302	-105.7737764
5.25	525	0.016	-0.161	1.003	0.572958	-1.9480572	0.2291832	161.4366461	-15.82509996	-105.8597201
5.26	526	0.018	-0.158	1.011	2.4064236	-1.145916	0.1145916	161.465294	-15.8136408	-105.8654497
5.27	527	0.02	-0.159	1.021	4.583664	0	0.0572958	161.5111306	-15.8136408	-105.8654497
5.28	528	0.02	-0.16	1.027	6.1306506	1.0886202	0.1718874	161.574156	-15.82509996	-105.8597201
5.29	529	0.019	-0.161	1.029	7.161975	2.0626488	0.1718874	161.642911	-15.84801828	-105.8539905
5.3	530	0.018	-0.158	1.028	7.5630456	2.7501984	0.4010706	161.9122012	-15.5844576	-105.8711792
5.31	531	0.018	-0.158	1.024	7.3338624	3.0939732	0.5156622	161.9866858	-15.6131055	-105.8654497
5.32	532	0.014	-0.155	1.018	6.5317212	3.151269	0.5156622	162.0497111	-15.64748298	-105.8597201
5.33	533	0.013	-0.153	1.01	5.2712136	2.86479	0.572958	162.1012774	-15.67613088	-105.8597201
5.34	534	0.014	-0.152	1.005	3.6096354	2.4064236	0.6302538	162.1356548	-15.6990492	-105.8539905
5.35	535	0.013	-0.151	0.997	1.718874	1.5469866	0.572958	162.7716382	-14.74220934	-105.9112863
5.36	536	0.014	-0.152	0.992	0.3437748	0.9167328	0.6302538	162.7773678	-14.7536685	-105.9112863
5.37	537	0.014	-0.152	0.988	-1.0313244	0.5156622	0.572958	162.7659086	-14.75939808	-105.9170159
5.38	538	0.015	-0.153	0.987	-2.0626488	0.1718874	0.5156622	162.7487199	-14.76512766	-105.9227455
5.39	539	0.016	-0.153	0.986	-2.8074942	-0.1145916	0.5156622	162.720072	-14.76512766	-105.928475
5.4	540	0.017	-0.153	0.99	-3.0939732	-0.1718874	0.4010706	163.1497905	-14.00309352	-105.9685821
5.41	541	0.018	-0.155	0.997	-3.0939732	-0.1718874	0.4010706	163.1211426	-13.99736394	-105.9743117
5.42	542	0.018	-0.156	1.002	-2.86479	0.0572958	0.4010706	163.0924947	-14.00309352	-105.9743117
5.43	543	0.019	-0.157	1.011	-2.3491278	0.3437748	0.3437748	163.0695764	-14.0088231	-105.9800413
5.44	544	0.019	-0.158	1.017	-1.6042824	0.8021412	0.3437748	163.0523876	-14.01455268	-105.9800413
5.45	545	0.02	-0.158	1.021	-0.9740286	1.3178034	0.3437748	163.5966977	-13.09781988	-106.0144187
5.46	546	0.021	-0.157	1.021	-0.286479	1.6615782	0.4010706	163.5909682	-13.11500862	-106.0144187
5.47	547	0.02	-0.157	1.022	0.3437748	2.1772404	0.4583664	163.5966977	-13.13792694	-106.0144187
5.48	548	0.02	-0.157	1.02	0.8021412	2.578311	0.572958	163.6024273	-13.16657484	-106.0086892
5.49	549	0.019	-0.156	1.017	1.0886202	2.9220858	0.572958	163.6138865	-13.19522274	-106.0086892
5.5	550	0.018	-0.155	1.013	1.145916	3.0939732	0.6302538	163.934743	-12.70820844	-106.0201483
5.51	551	0.018	-0.153	1.007	1.145916	3.0366774	0.6875496	163.9462021	-12.73685634	-106.0201483
5.52	552	0.017	-0.154	1.002	1.0313244	2.9220858	0.6875496	163.9576613	-12.76550424	-106.0201483
5.53	553	0.016	-0.152	0.998	0.8021412	2.86479	0.6302538	163.9633909	-12.79988172	-106.0201483
5.54	554	0.016	-0.151	0.996	0.5156622	2.6356068	0.6302538	163.9691204	-12.82280004	-106.0201483
5.55	555	0.015	-0.15	0.996	0.286479	2.578311	0.6302538	164.3931094	-12.13525044	-106.0373371
5.56	556	0.015	-0.151	0.996	0.0572958	2.4064236	0.572958	164.3931094	-12.16389834	-106.0373371
5.57	557	0.015	-0.151	0.998	0	2.2345362	0.5156622	164.3931094	-12.18681666	-106.0373371
5.58	558	0.015	-0.152	1.001	-0.1145916	2.1199446	0.5156622	164.3931094	-12.20973498	-106.0373371
5.59	559	0.014	-0.152	1.004	-0.1145916	1.8907614	0.4583664	164.3873798	-12.22692372	-106.0373371
5.6	560	0.014	-0.152	1.007	0	1.718874	0.5156622	164.943149	-11.28154302	-106.0602554
5.61	561	0.014	-0.153	1.01	0.2291832	1.5469866	0.4583664	164.943149	-11.29873176	-106.0602554
5.62	562	0.013	-0.154	1.011	0.4583664	1.4896908	0.4583664	164.9488786	-11.3159205	-106.0602554
5.63	563	0.015	-0.155	1.014	0.6875496	1.3178034	0.4010706	164.9546082	-11.32737966	-106.065985
5.64	564	0.015	-0.155	1.014	0.9740286	1.3178034	0.4583664	164.9660674	-11.3445684	-106.065985
5.65	565	0.014	-0.155	1.014	1.2032118	1.2032118	0.5156622	165.3499492	-10.69139628	-106.0774441
5.66	566	0.013	-0.155	1.013	1.3750992	1.0886202	0.4583664	165.3614084	-10.70285544	-106.0774441
5.67	567	0.014	-0.155	1.012	1.6042824	0.9740286	0.5156622	165.3785971	-10.7143146	-106.0831737
5.68	568	0.013	-0.155	1.01	1.718874	0.9167328	0.4583664	165.3957859	-10.72577376	-106.0831737
5.69	569	0.014	-0.155	1.007	1.718874	0.9740286	0.5156622	165.4187042	-10.73723292	-106.0889033
5.7	570	0.014	-0.155	1.006	1.6615782	0.8021412	0.5156622	165.7510198	-10.15854534	-106.0946329
5.71	571	0.013	-0.153	1.003	1.6042824	0.8021412	0.5156622	165.7682086	-10.16427492	-106.1003624
5.72	572	0.013	-0.154	1.001	1.3178034	0.859437	0.5156622	165.7796677	-10.17573408	-106.1003624
5.73	573	0.013	-0.154	1.001	1.0886202	0.8021412	0.4583664	165.7911269	-10.18719324	-106.106092
5.74	574	0.014	-0.154	1.001	0.8021412	0.7448454	0.5156622	165.802586	-10.19292282	-106.106092
5.75	575	0.015	-0.153	1.001	0.3437748	0.6875496	0.4010706	166.4901356	-8.86938984	-106.1118216
5.76	576	0.015	-0.154	1.001	0.1718874	0.6302538	0.4583664	166.4901356	-8.87511942	-106.1175512
5.77	577	0.016	-0.154	1.004	0	0.6302538	0.4010706	166.4901356	-8.880849	-106.1175512
5.78	578	0.016	-0.154	1.006	-0.1145916	0.6875496	0.4010706	166.4901356	-8.89230816	-106.1232808
5.79	579	0.016	-0.154	1.007	-0.1718874	0.6302538	0.4583664	166.4901356	-8.89803774	-106.1290103
5.8	580	0.017	-0.154	1.008	-0.1718874	0.6875496	0.4010706	166.9656908	-7.95265704	-106.1232808
5.81	581	0.017	-0.154	1.009	-0.1145916	0.859437	0.5156622	166.9599612	-7.9641162	-106.1290103
5.82	582	0.018	-0.155	1.01	-0.1145916	1.0886202	0.4583664	166.9599612	-7.97557536	-106.1290103
5.83	583	0.017	-0.154	1.009	0	1.2032118	0.4583664	166.9599612	-7.98703452	-106.1347399
5.84	584	0.017	-0.154	1.01	0.1145916	1.432395	0.4583664	166.9599612	-8.00422326	-106.1347399
5.85	585	0.017	-0.154	1.009	0.2291832	1.5469866	0.572958	167.2235219	-7.47137232	-106.1347399
5.86	586	0.017	-0.153	1.009	0.3437748	1.6615782	0.572958	167.2292515	-7.48856106	-106.1347399
5.87	587	0.017	-0.153	1.007	0.4583664	1.718874	0.572958	167.234981	-7.51147938	-106.1347399
5.88	588	0.015	-0.153	1.006	0.5156622	1.8334656	0.6302538	167.2407106	-7.52866812	-106.1404695
5.89	589	0.016	-0.153	1.005	0.572958	1.8334656	0.572958	167.2464402	-7.54585686	-106.1404695
5.9	590	0.016	-0.153	1.006	0.572958	1.8334656	0.572958	167.4355163	-7.18489332	-106.1404695
5.91	591	0.015	-0.153	1.004	0.572958	1.8334656	0.572958	167.4412459	-7.20208206	-106.1404695
5.92	592	0.015	-0.153	1.004	0.7448454	1.7761698	0.572958	167.4527051	-7.2192708	-106.1461991
5.93	593	0.016	-0.153	1.006	0.7448454	1.8334656	0.572958	167.4584347	-7.24218912	-106.1461991
5.94	594	0.015	-0.153	1.005	0.7448454	1.8334656	0.572958	167.4641642	-7.25937786	-106.1519287
5.95	595	0.014	-0.153	1.005	0.7448454	1.6042824	0.572958	167.65897	-6.88695516	-106.1461991
5.96	596	0.014	-0.152	1.007	0.6875496	1.3750992	0.5156622	167.6646995	-6.89841432	-106.1519287
5.97	597	0.014	-0.152	1.007	0.6302538	1.432395	0.572958	167.6704291	-6.91560306	-106.1519287
5.98	598	0.014	-0.154	1.008	0.7448454	1.3750992	0.5156622	167.6818883	-6.92706222	-106.1576582
5.99	599	0.015	-0.154	1.007	0.6875496	1.3178034	0.4583664	167.6876179	-6.94425096	-106.1576582
6	600	0.014	-0.154	1.005	0.7448454	1.2032118	0.4583664	167.876694	-6.54890994	-106.1576582
6.01	601	0.014	-0.155	1.006	0.6302538	1.432395	0.572958	167.8824236	-6.56609868	-106.1576582
6.02	602	0.014	-0.155	1.008	0.5156622	1.432395	0.4583664	167.8881532	-6.58328742	-106.1633878
6.03	603	0.013	-0.154	1.009	0.3437748	1.2605076	0.572958	167.8938827	-6.59474658	-106.1633878
6.04	604	0.013	-0.154	1.01	0.1718874	1.2605076	0.5156622	167.8938827	-6.61193532	-106.1691174
6.05	605	0.014	-0.155	1.009	0.2291832	1.3750992	0.572958	168.0829589	-6.1879464	-106.1633878
6.06	606	0.013	-0.155	1.008	0.3437748	1.3178034	0.572958	168.0886885	-6.20513514	-106.1691174
6.07	607	0.014	-0.153	1.006	0.286479	1.2032118	0.572958	168.0886885	-6.2165943	-106.174847
6.08	608	0.015	-0.153	1.004	0.1718874	1.2032118	0.572958	168.094418	-6.23378304	-106.174847
6.09	609	0.015	-0.153	1.004	0.286479	1.0886202	0.5156622	168.094418	-6.2452422	-106.1805766
6.1	610	0.015	-0.152	1.005	0.286479	1.0313244	0.572958	168.3178717	-5.74103916	-106.174847
6.11	611	0.014	-0.153	1.005	0.1718874	0.9167328	0.4583664	168.3236012	-5.75249832	-106.1805766
6.12	612	0.014	-0.152	1.005	0.2291832	0.8021412	0.5156622	168.3236012	-5.7582279	-106.1805766
6.13	613	0.015	-0.153	1.005	-0.1145916	-0.572958	0	168.3236012	-5.75249832	-106.1805766
6.14	614	0.016	-0.152	1.006	-0.1145916	-0.572958	0	168.3236012	-5.74676874	-106.1863061
6.15	615	0.016	-0.152	1.006	-0.0572958	-0.572958	0	168.8736409	-4.4117766	-106.1576582
6.16	616	0.015	-0.153	1.006	0	-0.4583664	0	168.8736409	-4.40604702	-106.1576582
6.17	617	0.016	-0.152	1.008	0	-0.4010706	-0.0572958	168.8736409	-4.40031744	-106.1576582
6.18	618	0.016	-0.152	1.007	0.1145916	-0.4010706	0	168.8793705	-4.40031744	-106.1576582
6.19	619	0.016	-0.154	1.008	0.2291832	-0.4010706	0	168.8793705	-4.39458786	-106.1633878
6.2	620	0.015	-0.152	1.008	0.2291832	-0.4010706	0	169.2059566	-3.58671708	-106.1461991
6.21	621	0.016	-0.153	1.008	0.3437748	-0.286479	0	169.2116861	-3.58671708	-106.1461991
6.22	622	0.017	-0.153	1.006	0.3437748	-0.286479	0	169.2116861	-3.5809875	-106.1461991
6.23	623	0.016	-0.154	1.006	0.2291832	0	0	169.2174157	-3.5809875	-106.1461991
6.24	624	0.016	-0.152	1.006	0.1718874	0.0572958	0	169.2174157	-3.5809875	-106.1461991
6.25	625	0.015	-0.153	1.006	0.1145916	0	0.0572958	169.9221541	-1.75325148	-106.0946329
6.26	626	0.016	-0.154	1.005	0.0572958	0.0572958	0	169.9221541	-1.75325148	-106.0946329
6.27	627	0.015	-0.154	1.005	0.1718874	0.1145916	0	169.9278836	-1.75325148	-106.0946329
6.28	628	0.015	-0.154	1.005	0.1145916	0.1718874	0	169.9278836	-1.75898106	-106.0946329
6.29	629	0.015	-0.154	1.005	0.1718874	0.2291832	0.0572958	169.9278836	-1.75898106	-106.0946329
6.3	630	0.015	-0.153	1.005	0.1145916	0.2291832	0	170.1112302	-1.25477802	-106.0831737
6.31	631	0.015	-0.153	1.006	0	0.1145916	0	170.1112302	-1.25477802	-106.0831737
6.32	632	0.015	-0.154	1.007	-0.0572958	0.1145916	0	170.1112302	-1.2605076	-106.0831737
6.33	633	0.016	-0.154	1.009	-0.0572958	0.286479	0	170.1112302	-1.2605076	-106.0831737
6.34	634	0.016	-0.153	1.008	-0.0572958	0.286479	0	170.1112302	-1.26623718	-106.0831737
6.35	635	0.016	-0.154	1.008	-0.1145916	0.2291832	0.0572958	170.2086331	-0.97975818	-106.0774441
6.36	636	0.014	-0.154	1.008	-0.1145916	0.1718874	0	170.2029035	-0.97975818	-106.0774441
6.37	637	0.015	-0.153	1.007	-0.1145916	0.1145916	0	170.2029035	-0.98548776	-106.0774441
6.38	638	0.015	-0.153	1.006	-0.0572958	0.1145916	0	170.2029035	-0.98548776	-106.0774441
6.39	639	0.014	-0.153	1.007	-0.1145916	0.1145916	0	170.2029035	-0.98548776	-106.0774441
6.4	640	0.014	-0.154	1.006	-0.0572958	0.1145916	0	170.3060359	-0.68182002	-106.065985
6.41	641	0.015	-0.153	1.005	-0.0572958	0.1145916	0	170.3060359	-0.68182002	-106.065985
6.42	642	0.016	-0.152	1.006	-0.1145916	0.0572958	0	170.3060359	-0.68182002	-106.065985
6.43	643	0.015	-0.153	1.006	-0.1145916	0	0	170.3060359	-0.68182002	-106.065985
6.44	644	0.015	-0.152	1.006	0	-0.0572958	0	170.3060359	-0.68182002	-106.065985
6.45	645	0.014	-0.152	1.006	-0.0572958	-0.0572958	-0.0572958	170.38625	-0.46982556	-106.0545258
6.46	646	0.014	-0.152	1.006	-0.0572958	0	-0.0572958	170.38625	-0.46982556	-106.0545258
6.47	647	0.015	-0.152	1.007	0	0	0	170.38625	-0.46982556	-106.0545258
6.48	648	0.015	-0.153	1.008	0	0	-0.1145916	170.38625	-0.46982556	-106.0545258
6.49	649	0.015	-0.152	1.007	0	-0.0572958	0	170.38625	-0.46982556	-106.0545258
6.5	650	0.015	-0.153	1.006	0.0572958	-0.1145916	-0.0572958	170.4664642	-0.2291832	-106.0487962
6.51	651	0.015	-0.153	1.007	0.1145916	-0.286479	0	170.4664642	-0.22345362	-106.0487962
6.52	652	0.015	-0.153	1.007	0	-0.2291832	-0.0572958	170.4664642	-0.22345362	-106.0487962
6.53	653	0.016	-0.153	1.008	0	-0.1718874	-0.0572958	170.4721937	-0.22345362	-106.0487962
6.54	654	0.015	-0.153	1.007	0.0572958	-0.286479	0	170.4721937	-0.21772404	-106.0487962
6.55	655	0.015	-0.153	1.006	0.1145916	-0.2291832	0	170.5123008	-0.07448454	-106.0430666
6.56	656	0.016	-0.154	1.007	0.1145916	-0.2291832	0	170.5123008	-0.07448454	-106.0430666
6.57	657	0.015	-0.155	1.006	0.0572958	-0.1718874	-0.0572958	170.5180304	-0.06875496	-106.0430666
6.58	658	0.015	-0.153	1.006	0	-0.1718874	0	170.5180304	-0.06875496	-106.0430666
6.59	659	0.016	-0.154	1.006	0	-0.0572958	0	170.5180304	-0.06875496	-106.0430666
6.6	660	0.016	-0.154	1.007	0	-0.1145916	-0.0572958	170.5867853	0.13178034	-106.0373371
6.61	661	0.015	-0.152	1.006	0	-0.0572958	0	170.5867853	0.13750992	-106.0373371
6.62	662	0.015	-0.154	1.005	0.0572958	-0.1718874	0	170.5867853	0.13750992	-106.0373371
6.63	663	0.016	-0.153	1.006	-0.0572958	-0.0572958	0	170.5867853	0.13750992	-106.0373371
6.64	664	0.016	-0.154	1.006	0	0	0	170.5867853	0.13750992	-106.0373371
6.65	665	0.016	-0.153	1.006	-0.0572958	0.0572958	0	170.6784586	0.37815228	-106.0258779
6.66	666	0.015	-0.153	1.005	-0.1145916	0.1145916	0	170.6784586	0.37815228	-106.0258779
6.67	667	0.016	-0.153	1.006	-0.0572958	0.0572958	0	170.6784586	0.37815228	-106.0258779
6.68	668	0.016	-0.153	1.007	0	0	0.0572958	170.6784586	0.37815228	-106.0258779
6.69	669	0.016	-0.153	1.007	-0.0572958	0.0572958	0.0572958	170.6784586	0.37815228	-106.0316075
6.7	670	0.016	-0.152	1.007	0	0	0.0572958	170.7128361	0.4870143	-106.0258779
6.71	671	0.015	-0.153	1.007	-0.1145916	0.0572958	0	170.7128361	0.48128472	-106.0258779
6.72	672	0.015	-0.152	1.007	-0.1145916	0.0572958	0	170.7071065	0.48128472	-106.0258779
6.73	673	0.015	-0.153	1.006	-0.1145916	0.0572958	0	170.7071065	0.48128472	-106.0258779
6.74	674	0.016	-0.153	1.006	0	0.0572958	0	170.7071065	0.48128472	-106.0258779
6.75	675	0.015	-0.153	1.006	0	0.1145916	0	170.7357544	0.53858052	-106.0258779
6.76	676	0.016	-0.153	1.006	0	0.1718874	0.0572958	170.7357544	0.53858052	-106.0258779
6.77	677	0.016	-0.152	1.006	0	0.0572958	0	170.7357544	0.53858052	-106.0258779
6.78	678	0.015	-0.153	1.007	0	0.0572958	0.0572958	170.7357544	0.53858052	-106.0258779
6.79	679	0.016	-0.152	1.006	0	0	0	170.7357544	0.53858052	-106.0258779
6.8	680	0.016	-0.153	1.007	0	0.0572958	0	170.7529432	0.61879464	-106.0258779
6.81	681	0.016	-0.153	1.007	0	0.286479	0.0572958	170.7529432	0.61306506	-106.0258779
6.82	682	0.015	-0.153	1.008	0	0.1718874	0	170.7529432	0.61306506	-106.0258779
6.83	683	0.016	-0.152	1.008	0	0	0	170.7529432	0.61306506	-106.0258779
6.84	684	0.015	-0.153	1.008	0	-0.0572958	0.0572958	170.7529432	0.61306506	-106.0258779
6.85	685	0.015	-0.154	1.006	0.1145916	-0.1145916	0	170.7644023	0.6589017	-106.0258779
6.86	686	0.016	-0.153	1.003	0.1718874	0.0572958	0	170.7644023	0.65317212	-106.0258779
6.87	687	0.015	-0.153	1.003	0.2291832	0.1145916	0	170.7701319	0.65317212	-106.0258779
6.88	688	0.015	-0.153	1.005	0.1718874	0.1718874	0	170.7701319	0.65317212	-106.0258779
6.89	689	0.016	-0.153	1.007	0	0.1718874	0	170.7701319	0.65317212	-106.0258779
6.9	690	0.015	-0.153	1.01	-0.286479	0	0	170.7815911	0.67609044	-106.0258779
6.91	691	0.016	-0.154	1.011	-0.4010706	0	0	170.7758615	0.67609044	-106.0201483
6.92	692	0.016	-0.153	1.01	-0.3437748	0.0572958	0	170.7758615	0.67609044	-106.0201483
6.93	693	0.016	-0.154	1.009	-0.1718874	0.1145916	0	170.7701319	0.67609044	-106.0258779
6.94	694	0.016	-0.152	1.006	-0.1718874	0.1718874	0	170.7701319	0.67609044	-106.0201483
6.95	695	0.015	-0.153	1.005	0	0.0572958	0	170.8045094	0.7734933	-106.0201483
6.96	696	0.015	-0.152	1.004	0	0.1145916	-0.0572958	170.8045094	0.7734933	-106.0201483
6.97	697	0.015	-0.152	1.004	-0.0572958	0.1145916	0	170.8045094	0.7734933	-106.0201483
6.98	698	0.015	-0.152	1.003	0	0.0572958	0	170.8045094	0.7734933	-106.0201483
6.99	699	0.016	-0.152	1.004	-0.0572958	0	0	170.8045094	0.7734933	-106.0201483
7	700	0.015	-0.152	1.005	0	0	0	170.8446164	0.8307891	-106.0086892
7.01	701	0.015	-0.153	1.005	-0.1145916	0	0	170.8388869	0.8307891	-106.0086892
7.02	702	0.016	-0.152	1.006	-0.0572958	0.0572958	0	170.8388869	0.8307891	-106.0086892
7.03	703	0.016	-0.152	1.007	0	0	0	170.8388869	0.8307891	-106.0086892
7.04	704	0.016	-0.152	1.008	0	0	0	170.8388869	0.8307891	-106.0086892
7.05	705	0.016	-0.152	1.009	0.0572958	0.0572958	0	170.8618052	0.87089616	-106.0086892
7.06	706	0.016	-0.152	1.009	0.1145916	0	0	170.8618052	0.87089616	-106.0086892
7.07	707	0.015	-0.153	1.007	0.2291832	0	0	170.8618052	0.87089616	-106.0086892
7.08	708	0.016	-0.153	1.006	0.286479	0	0	170.8675348	0.87089616	-106.0086892
7.09	709	0.016	-0.152	1.007	0.286479	-0.0572958	0.0572958	170.8675348	0.87089616	-106.0086892
7.1	710	0.015	-0.153	1.007	0.1718874	0	0	170.8789939	0.88235532	-106.0086892
7.11	711	0.016	-0.153	1.006	0.2291832	-0.0572958	0	170.8789939	0.88235532	-106.0086892
7.12	712	0.015	-0.153	1.006	0.1718874	-0.0572958	0	170.8847235	0.88235532	-106.0086892
7.13	713	0.015	-0.152	1.006	0.1145916	0	0	170.8847235	0.88235532	-106.0086892
7.14	714	0.016	-0.152	1.007	0.0572958	0.0572958	0	170.8847235	0.88235532	-106.0086892
7.15	715	0.016	-0.153	1.007	0.0572958	0	0	170.8847235	0.90527364	-106.0086892
7.16	716	0.015	-0.152	1.007	0.1145916	0.0572958	0	170.8847235	0.89954406	-106.0086892
7.17	717	0.015	-0.152	1.005	0.1145916	0.1145916	-0.0572958	170.8904531	0.89954406	-106.0086892
7.18	718	0.015	-0.152	1.005	0.1145916	0	0	170.8904531	0.89954406	-106.0086892
7.19	719	0.016	-0.153	1.006	0	0.1145916	0.0572958	170.8904531	0.89954406	-106.0086892
7.2	720	0.015	-0.153	1.006	-0.0572958	0.1145916	0	170.8789939	0.9167328	-106.0144187
7.21	721	0.015	-0.154	1.008	-0.1145916	0.0572958	0	170.8732643	0.9167328	-106.0144187
7.22	722	0.016	-0.153	1.008	-0.1718874	0.1145916	0	170.8732643	0.9167328	-106.0144187
7.23	723	0.016	-0.152	1.007	-0.2291832	0.1718874	0	170.8732643	0.9167328	-106.0144187
7.24	724	0.016	-0.153	1.008	-0.1718874	0.1145916	0	170.8675348	0.91100322	-106.0144187
7.25	725	0.015	-0.153	1.006	-0.1718874	0.0572958	0	170.8675348	0.92246238	-106.0144187
7.26	726	0.015	-0.153	1.005	-0.1145916	0.0572958	0	170.8675348	0.92246238	-106.0144187
7.27	727	0.015	-0.153	1.006	-0.1718874	0.0572958	0	170.8618052	0.92246238	-106.0144187
7.28	728	0.016	-0.152	1.006	-0.1718874	0.1718874	0	170.8618052	0.9167328	-106.0144187
7.29	729	0.015	-0.154	1.006	-0.1718874	0.1145916	0	170.8618052	0.9167328	-106.0144187
7.3	730	0.015	-0.152	1.006	-0.1145916	0.1718874	0	170.8618052	0.92819196	-106.0086892
7.31	731	0.015	-0.153	1.007	-0.0572958	0.1145916	0	170.8618052	0.92819196	-106.0086892
7.32	732	0.016	-0.151	1.007	0	0.1145916	0	170.8618052	0.92819196	-106.0086892
7.33	733	0.015	-0.151	1.007	0.1145916	0.1145916	0	170.8618052	0.92246238	-106.0086892
7.34	734	0.015	-0.152	1.006	0.1145916	0.0572958	-0.0572958	170.8675348	0.92246238	-106.0086892
7.35	735	0.014	-0.153	1.005	0.1145916	0.0572958	-0.0572958	170.8675348	0.93392154	-106.0086892
7.36	736	0.015	-0.152	1.006	0.1145916	0	0	170.8675348	0.92819196	-106.0086892
7.37	737	0.015	-0.152	1.008	0.1718874	0.0572958	0	170.8732643	0.92819196	-106.0086892
7.38	738	0.015	-0.151	1.007	0	0	-0.0572958	170.8732643	0.92819196	-106.0086892
7.39	739	0.016	-0.152	1.008	0	0	0	170.8732643	0.92819196	-106.0086892
