TimeStamp(s)	FrameCounter	AccX	AccY	AccZ	GyrX	GyrY	GyrZ	EulerX	EulerY	EulerZ
0.01	1	-0.081	-0.999	0.089	0.4010706	-0.8021412	0.8021412	93.28329198	-6.05616606	-40.02684588
0.02	2	-0.075	-0.999	0.092	0.6302538	-0.8021412	0.9740286	93.29475114	-6.06189564	-40.03830504
0.03	3	-0.076	-0.998	0.091	0.8021412	-0.6302538	0.9740286	93.30048072	-6.0733548	-40.04403462
0.04	4	-0.076	-0.998	0.093	1.145916	-0.572958	0.8021412	93.31766946	-6.07908438	-40.0497642
0.05	5	-0.076	-0.998	0.096	1.0886202	-0.286479	0.572958	93.35204694	-6.03324774	-40.05549378
0.06	6	-0.076	-0.999	0.095	1.0886202	-0.1145916	0.5156622	93.3635061	-6.03897732	-40.06122336
0.07	7	-0.076	-1	0.095	1.145916	-0.286479	0.5156622	93.37496526	-6.0447069	-40.06122336
0.08	8	-0.075	-1.003	0.095	1.0886202	-0.4583664	0.572958	93.38642442	-6.05043648	-40.06695294
0.09	9	-0.073	-1.004	0.097	0.9167328	-0.4583664	0.6875496	93.39788358	-6.05616606	-40.07268252
0.1	10	-0.072	-1.005	0.098	0.859437	-0.6302538	0.6875496	93.42653148	-6.02751816	-40.08414168
0.11	11	-0.073	-1.003	0.099	0.7448454	-0.4583664	0.8021412	93.43226106	-6.03324774	-40.08987126
0.12	12	-0.073	-1.003	0.097	0.859437	-0.286479	0.7448454	93.44372022	-6.03897732	-40.08987126
0.13	13	-0.074	-0.999	0.098	0.9167328	-0.1145916	0.5156622	93.4494498	-6.0447069	-40.09560084
0.14	14	-0.076	-0.997	0.098	0.9740286	0.1718874	0.4010706	93.46090896	-6.05043648	-40.08987126
0.15	15	-0.075	-0.997	0.096	1.3178034	0.4010706	0.286479	93.48955686	-6.016059	-40.08987126
0.16	16	-0.074	-0.997	0.095	1.4896908	0.6302538	0.286479	93.50101602	-6.02178858	-40.08414168
0.17	17	-0.075	-0.998	0.094	1.6042824	0.572958	0.286479	93.51820476	-6.02178858	-40.0784121
0.18	18	-0.073	-1	0.093	1.718874	0.4010706	0.286479	93.5353935	-6.02751816	-40.07268252
0.19	19	-0.071	-1.001	0.093	1.8334656	0	0.4583664	93.55258224	-6.03324774	-40.07268252
0.2	20	-0.069	-1.001	0.094	1.7761698	-0.4010706	0.572958	93.58123014	-6.00459984	-40.0784121
0.21	21	-0.068	-1.002	0.096	1.718874	-0.6302538	0.6875496	93.59841888	-6.01032942	-40.08414168
0.22	22	-0.067	-1.002	0.1	1.6615782	-0.3437748	0.6875496	93.61560762	-6.016059	-40.08987126
0.23	23	-0.068	-1.006	0.1	1.5469866	0	0.6875496	93.63279636	-6.02178858	-40.08987126
0.24	24	-0.068	-1.007	0.099	1.6615782	-0.1718874	0.6302538	93.6499851	-6.03324774	-40.08987126
0.25	25	-0.068	-1.006	0.099	1.7761698	-0.9740286	0.572958	93.678633	-6.00459984	-40.10706
0.26	26	-0.066	-1.006	0.101	1.7761698	-1.5469866	0.7448454	93.70155132	-6.01032942	-40.11851916
0.27	27	-0.063	-1.005	0.102	1.8334656	-2.1772404	0.9167328	93.71874006	-6.016059	-40.14143748
0.28	28	-0.06	-1.001	0.105	1.6615782	-2.3491278	0.9167328	93.74165838	-6.02751816	-40.1643558
0.29	29	-0.059	-0.998	0.103	1.7761698	-2.3491278	0.8021412	93.7645767	-6.03324774	-40.1930037
0.3	30	-0.059	-0.998	0.101	1.9480572	-2.2345362	0.8021412	93.7932246	-6.01032942	-40.21592202
0.31	31	-0.059	-0.996	0.099	2.1199446	-2.5210152	0.9740286	93.81614292	-6.016059	-40.23884034
0.32	32	-0.062	-0.998	0.094	2.1772404	-3.437748	1.2032118	93.84479082	-6.02751816	-40.27321782
0.33	33	-0.065	-1.001	0.092	2.4064236	-4.297185	1.3750992	93.87343872	-6.03897732	-40.31905446
0.34	34	-0.068	-1.006	0.096	2.86479	-4.1825934	1.2605076	93.9078162	-6.0447069	-40.35916152
0.35	35	-0.063	-1.01	0.097	3.2658606	-3.4950438	0.5156622	93.94792326	-6.02751816	-40.39926858
0.36	36	-0.058	-1.011	0.099	2.6929026	-2.7501984	-0.0572958	93.97657116	-6.02178858	-40.4221869
0.37	37	-0.056	-1.009	0.098	2.4064236	-2.7501984	-0.572958	94.00521906	-6.016059	-40.4508348
0.38	38	-0.057	-1.007	0.103	2.1772404	-2.3491278	-0.8021412	94.03386696	-6.00459984	-40.47375312
0.39	39	-0.055	-1.001	0.112	1.7761698	-1.7761698	-0.859437	94.0510557	-5.99314068	-40.49094186
0.4	40	-0.055	-0.993	0.116	1.432395	-1.432395	-0.6302538	94.09116276	-5.94157446	-40.5081306
0.41	41	-0.05	-0.985	0.124	1.145916	-1.6042824	-0.286479	94.1083515	-5.93584488	-40.52531934
0.42	42	-0.045	-0.982	0.129	0.9167328	-2.3491278	-0.0572958	94.11981066	-5.9301153	-40.54823766
0.43	43	-0.042	-0.988	0.138	0.8021412	-3.7815228	0	94.13126982	-5.9301153	-40.58261514
0.44	44	-0.043	-0.998	0.143	1.145916	-5.6722842	-0.5156622	94.14845856	-5.91865614	-40.63991094
0.45	45	-0.04	-1.008	0.149	1.432395	-6.5317212	-1.145916	94.18856562	-5.87854908	-40.70293632
0.46	46	-0.036	-1.017	0.149	1.3178034	-6.7036086	-2.005353	94.21148394	-5.84990118	-40.77169128
0.47	47	-0.035	-1.021	0.15	0.9167328	-6.4744254	-2.8074942	94.2229431	-5.8155237	-40.83471666
0.48	48	-0.037	-1.021	0.152	1.0313244	-6.3598338	-3.437748	94.24586142	-5.77541664	-40.89201246
0.49	49	-0.043	-1.018	0.154	1.6042824	-5.9014674	-3.8388186	94.26877974	-5.72958	-40.94930826
0.5	50	-0.047	-1.012	0.155	2.291832	-4.3544808	-4.0680018	94.3088868	-5.6722842	-40.98941532
0.51	51	-0.052	-1.002	0.157	2.4064236	-2.578311	-3.8388186	94.3375347	-5.62644756	-41.01233364
0.52	52	-0.055	-0.996	0.158	2.005353	0.5156622	-3.4950438	94.35472344	-5.59207008	-41.00087448
0.53	53	-0.058	-0.994	0.16	1.7761698	2.7501984	-2.9220858	94.37191218	-5.56915176	-40.97222658
0.54	54	-0.059	-0.997	0.165	1.8334656	4.6409598	-2.578311	94.38337134	-5.54623344	-40.92638994
0.55	55	-0.059	-1.002	0.168	1.8334656	6.589017	-2.4064236	94.41774882	-5.51758554	-40.85763498
0.56	56	-0.057	-1.009	0.166	1.4896908	8.6516658	-2.4064236	94.4234784	-5.5003968	-40.77169128
0.57	57	-0.047	-1.014	0.165	0.572958	10.313244	-2.2345362	94.41774882	-5.48893764	-40.66855884
0.58	58	-0.037	-1.016	0.162	-0.2291832	11.45916	-2.1772404	94.40056008	-5.48320806	-40.55396724
0.59	59	-0.027	-1.016	0.159	-0.859437	11.8029348	-2.005353	94.37764176	-5.4717489	-40.43364606
0.6	60	-0.022	-1.012	0.155	-1.3178034	12.1467096	-1.9480572	94.36045302	-5.44883058	-40.31332488
0.61	61	-0.018	-1.007	0.151	-2.1772404	12.7196676	-1.7761698	94.32607554	-5.443101	-40.18727412
0.62	62	-0.014	-1	0.145	-3.2085648	13.3499214	-1.6615782	94.2802389	-5.443101	-40.05549378
0.63	63	-0.007	-0.992	0.141	-3.9534102	13.9228794	-1.5469866	94.2229431	-5.443101	-39.91798386
0.64	64	-0.003	-0.99	0.137	-4.6982556	13.9228794	-1.6042824	94.15991772	-5.43737142	-39.77474436
0.65	65	0	-0.988	0.134	-5.2712136	13.5218088	-1.5469866	94.09689234	-5.42018268	-39.64296402
0.66	66	0.004	-0.989	0.132	-5.5576926	12.7769634	-1.2032118	94.02813738	-5.42018268	-39.51691326
0.67	67	0.006	-0.991	0.13	-5.72958	11.5737516	-0.9740286	93.95938242	-5.42591226	-39.40232166
0.68	68	0.005	-0.992	0.129	-6.0733548	9.5111028	-1.0313244	93.88489788	-5.42018268	-39.31064838
0.69	69	0.003	-0.993	0.127	-6.016059	7.6203414	-0.9740286	93.81614292	-5.42018268	-39.23043426
0.7	70	-0.004	-0.992	0.126	-5.8441716	5.6722842	-0.859437	93.75884712	-5.39153478	-39.17886804
0.71	71	-0.014	-0.989	0.125	-5.5003968	4.010706	-0.7448454	93.70155132	-5.3858052	-39.13876098
0.72	72	-0.025	-0.983	0.124	-5.156622	2.4637194	-0.5156622	93.64425552	-5.3858052	-39.11584266
0.73	73	-0.044	-0.979	0.124	-4.9847346	1.3750992	-0.286479	93.5926893	-5.3858052	-39.09865392
0.74	74	-0.064	-0.976	0.124	-5.2139178	0.859437	-0.0572958	93.54112308	-5.3858052	-39.09292434
0.75	75	-0.085	-0.973	0.119	-5.6149884	0.9167328	-0.1145916	93.50101602	-5.38007562	-39.08719476
0.76	76	-0.112	-0.976	0.132	-7.2192708	2.5210152	-0.2291832	93.4208019	-5.38007562	-39.05854686
0.77	77	-0.129	-0.981	0.141	-8.4797784	5.9014674	0	93.32912862	-5.3858052	-39.00125106
0.78	78	-0.136	-0.996	0.123	-9.453807	8.1360036	0.9167328	93.22599618	-5.40299394	-38.92103694
0.79	79	-0.136	-1.012	0.085	-12.2040054	6.9327918	2.3491278	93.09421584	-5.43737142	-38.85801156
0.8	80	-0.122	-1.016	0.042	-17.18874	2.2345362	3.3231564	92.91086928	-5.4717489	-38.84082282
0.81	81	-0.083	-1.015	-0.001	-22.4599536	-5.0420304	3.151269	92.68741566	-5.5003968	-38.89238904
0.82	82	-0.031	-1.024	-0.022	-26.1268848	-12.9488508	2.4064236	92.43531414	-5.51758554	-39.02416938
0.83	83	0.015	-1.056	-0.003	-27.0436176	-20.05353	2.1199446	92.18321262	-5.5290447	-39.23043426
0.84	84	0.034	-1.094	0.029	-26.4133638	-25.6685184	3.6669312	91.94257026	-5.55196302	-39.48826536
0.85	85	0.034	-1.124	0.056	-26.5852512	-27.8457588	6.302538	91.70765748	-5.59207008	-39.76901478
0.86	86	0.016	-1.131	0.072	-24.6944898	-29.220858	9.9121734	91.48993344	-5.67801378	-40.06695294
0.87	87	-0.019	-1.112	0.093	-19.767051	-30.4813656	14.1520626	91.32377562	-5.80406454	-40.37635026
0.88	88	-0.06	-1.072	0.119	-13.750992	-30.5959572	18.1054728	91.22064318	-5.97022236	-40.68574758
0.89	89	-0.1	-1.027	0.14	-9.9121734	-29.4500412	20.9702628	91.1576178	-6.16502808	-40.98368574
0.9	90	-0.137	-0.982	0.168	-9.8548776	-27.6738714	21.8296998	91.100322	-6.37129296	-41.26443516
0.91	91	-0.181	-0.945	0.196	-11.2299768	-25.1528562	20.9702628	91.0143783	-6.57182826	-41.52226626
0.92	92	-0.212	-0.95	0.21	-12.605076	-22.6891368	19.4232762	90.91697544	-6.75517482	-41.75144946
0.93	93	-0.227	-0.974	0.214	-14.4958374	-21.2567418	18.5638392	90.80238384	-6.9327918	-41.9691735
0.94	94	-0.224	-1.002	0.202	-15.9855282	-20.7410796	18.6784308	90.66487392	-7.11040878	-42.18116796
0.95	95	-0.205	-1.02	0.184	-17.3033316	-21.0848544	19.1367972	90.527364	-7.29948492	-42.398892
0.96	96	-0.184	-1.016	0.172	-18.1627686	-21.199446	19.5378678	90.37839492	-7.48283148	-42.61088646
0.97	97	-0.167	-0.997	0.165	-18.621135	-20.7983754	19.480572	90.21796668	-7.67190762	-42.82288092
0.98	98	-0.16	-0.974	0.161	-18.5638392	-19.9389384	19.0222056	90.05753844	-7.86098376	-43.02341622
0.99	99	-0.164	-0.946	0.159	-18.5065434	-18.7930224	18.1054728	89.8971102	-8.03287116	-43.21822194
1	100	-0.174	-0.932	0.158	-18.5065434	-16.615782	16.6730778	89.74814112	-8.19902898	-43.38437976
1.01	101	-0.187	-0.929	0.153	-19.194093	-14.2666542	15.3552744	89.57625372	-8.35372764	-43.52761926
1.02	102	-0.193	-0.928	0.143	-19.7097552	-12.605076	14.2093584	89.39863674	-8.49123756	-43.6593996
1.03	103	-0.197	-0.933	0.132	-19.480572	-11.5737516	13.2353298	89.22101976	-8.6230179	-43.7739912
1.04	104	-0.193	-0.936	0.124	-19.2513888	-11.0007936	12.4904844	89.04340278	-8.74906866	-43.8885828
1.05	105	-0.185	-0.933	0.114	-19.0222056	-10.8289062	11.745639	88.87724496	-8.86938984	-43.99744482
1.06	106	-0.172	-0.923	0.106	-18.4492476	-11.4018642	11.0007936	88.70535756	-8.97825186	-44.11203642
1.07	107	-0.158	-0.917	0.109	-17.8189938	-12.2040054	10.026765	88.54492932	-9.0813843	-44.2323576
1.08	108	-0.147	-0.91	0.109	-17.1314442	-13.5218088	8.7089616	88.39596024	-9.167328	-44.36986752
1.09	109	-0.135	-0.906	0.105	-16.3865988	-15.183387	7.161975	88.25845032	-9.24181254	-44.5188366
1.1	110	-0.13	-0.905	0.108	-15.2979786	-16.5011904	5.6722842	88.14385872	-9.29910834	-44.690724
1.11	111	-0.134	-0.912	0.107	-14.4958374	-16.902261	3.8961144	88.02353754	-9.3392154	-44.85688182
1.12	112	-0.146	-0.926	0.106	-14.1520626	-16.329303	2.2345362	87.90894594	-9.36213372	-45.02303964
1.13	113	-0.165	-0.938	0.107	-14.0947668	-15.8136408	0.5156622	87.79435434	-9.37359288	-45.18346788
1.14	114	-0.186	-0.945	0.11	-13.750992	-15.2979786	-1.0313244	87.67976274	-9.3678633	-45.33816654
1.15	115	-0.212	-0.952	0.107	-13.1207382	-14.610429	-2.4064236	87.59381904	-9.35067456	-45.48713562
1.16	116	-0.231	-0.959	0.107	-12.3758928	-13.4072172	-3.724227	87.4906866	-9.31629708	-45.62464554
1.17	117	-0.243	-0.962	0.108	-11.5164558	-11.0007936	-4.583664	87.39328374	-9.27619002	-45.73923714
1.18	118	-0.248	-0.967	0.102	-9.9121734	-8.0787078	-5.2139178	87.30734004	-9.2246238	-45.82518084
1.19	119	-0.25	-0.977	0.101	-8.4797784	-5.0993262	-5.72958	87.22712592	-9.167328	-45.88247664
1.2	120	-0.252	-0.987	0.114	-6.9900876	-2.6929026	-6.1879464	87.19847802	-9.13295052	-45.91685412
1.21	121	-0.258	-0.995	0.152	-5.0993262	-1.145916	-6.7036086	87.15264138	-9.06419556	-45.93404286
1.22	122	-0.272	-0.999	0.185	-3.0366774	0.5156622	-7.161975	87.1182639	-8.9954406	-45.92831328
1.23	123	-0.291	-1.012	0.216	-1.2032118	2.9220858	-7.8495246	87.10107516	-8.91522648	-45.90539496
1.24	124	-0.304	-1.02	0.247	0.9740286	6.9327918	-9.0527364	87.10107516	-8.8235532	-45.83664
1.25	125	-0.314	-1.027	0.273	3.151269	10.2559482	-10.313244	87.15264138	-8.7376095	-45.74496672
1.26	126	-0.321	-1.034	0.289	6.3598338	13.750992	-11.8029348	87.19274844	-8.61728832	-45.61318638
1.27	127	-0.329	-1.05	0.28	9.0527364	17.9908812	-13.464513	87.2615034	-8.4797784	-45.4355694
1.28	128	-0.328	-1.083	0.251	10.4851314	22.8037284	-15.2979786	87.33025836	-8.31935016	-45.21211578
1.29	129	-0.299	-1.188	0.142	6.302538	29.220858	-16.5011904	87.3474471	-8.14746276	-44.92563678
1.3	130	-0.232	-1.379	-0.028	-4.6409598	32.0283522	-14.32395	87.25577382	-8.00422326	-44.61623946
1.31	131	-0.147	-1.521	0.027	-5.2712136	22.2880662	-8.1360036	87.16410054	-7.91827956	-44.39851542
1.32	132	-0.046	-1.487	0.103	6.7609044	11.4018642	-5.72958	87.21566676	-7.85525418	-44.28392382
1.33	133	-0.023	-1.288	0.099	15.0687954	9.7975818	-8.1932994	87.35890626	-7.77504006	-44.18652096
1.34	134	-0.053	-1.064	0.062	22.8037284	13.0061466	-13.464513	87.57090072	-7.63180056	-44.0604702
1.35	135	-0.098	-0.935	0.035	26.9863218	20.7983754	-20.9702628	87.81727266	-7.4198061	-43.8599349
1.36	136	-0.141	-0.927	0.047	22.1161788	32.0283522	-27.2728008	87.99488964	-7.14478626	-43.544808
1.37	137	-0.171	-0.991	0.001	14.2666542	44.5761324	-29.7365202	88.08083334	-6.8468481	-43.10935992
1.38	138	-0.193	-1.074	-0.13	8.2505952	57.7541664	-28.4187168	88.0922925	-6.5603691	-42.5421315
1.39	139	-0.198	-1.108	-0.239	6.589017	68.1247062	-23.3766864	88.07510376	-6.32545632	-41.87177064
1.4	140	-0.203	-1.074	-0.306	7.2192708	70.473834	-16.4438946	88.04645586	-6.1592985	-41.17276188
1.41	141	-0.229	-1.007	-0.346	4.0680018	62.7961968	-9.3392154	88.01780796	-6.06189564	-40.55396724
1.42	142	-0.227	-0.933	-0.317	-2.3491278	52.8267276	-2.6929026	87.92613468	-6.02751816	-40.02684588
1.43	143	-0.184	-0.878	-0.281	-10.0840608	43.1437374	0.7448454	87.7771656	-6.03324774	-39.59712738
1.44	144	-0.1	-0.845	-0.216	-14.896908	33.7472262	-0.4010706	87.58235988	-6.02751816	-39.26481174
1.45	145	0.005	-0.871	-0.154	-15.183387	23.3766864	-5.0993262	87.39328374	-5.9587632	-39.03562854
1.46	146	0.095	-0.919	-0.091	-11.8029348	14.037471	-11.8602306	87.25577382	-5.83844202	-38.9038482
1.47	147	0.166	-0.984	-0.056	-6.9900876	10.2559482	-19.1367972	87.1755597	-5.64936588	-38.81217492
1.48	148	0.184	-1.018	-0.042	-1.2032118	10.026765	-24.923673	87.15264138	-5.40299394	-38.72050164
1.49	149	0.167	-1.025	-0.035	2.578311	9.2819196	-28.5333084	87.16983012	-5.11651494	-38.64028752
1.5	150	0.141	-1.016	-0.031	5.443101	8.1932994	-30.5386614	87.21566676	-4.78992888	-38.57726214
1.51	151	0.109	-0.99	-0.019	7.448454	7.6776372	-30.939732	87.28442172	-4.48053156	-38.51423676
1.52	152	0.069	-0.964	-0.001	7.6203414	6.7609044	-30.4240698	87.35890626	-4.17686382	-38.45694096
1.53	153	0.032	-0.947	0.013	5.9014674	5.72958	-29.1635622	87.41047248	-3.88465524	-38.41110432
1.54	154	-0.001	-0.933	0.025	3.0939732	4.5263682	-27.3873924	87.43912038	-3.6096354	-38.37672684
1.55	155	-0.037	-0.927	0.027	-0.3437748	3.8388186	-25.5539268	87.43912038	-3.35753388	-38.34807894
1.56	156	-0.041	-0.929	0.017	-4.4690724	3.437748	-23.9496444	87.39328374	-3.11689152	-38.32516062
1.57	157	-0.033	-0.929	0.012	-7.3911582	3.2658606	-22.631841	87.31306962	-2.8934379	-38.3022423
1.58	158	-0.014	-0.931	0.01	-9.5111028	2.1199446	-21.4286292	87.21566676	-2.68144344	-38.29078314
1.59	159	0.003	-0.93	0.01	-10.4851314	0.1145916	-20.2827132	87.11253432	-2.48090814	-38.3022423
1.6	160	0.018	-0.924	0.005	-10.6570188	-1.9480572	-19.1367972	87.00940188	-2.28037284	-38.3308902
1.61	161	0.036	-0.909	-0.009	-10.886202	-4.1252976	-17.7044022	86.90053986	-2.10848544	-38.38245642
1.62	162	0.024	-0.89	-0.021	-11.3445684	-6.3598338	-16.3865988	86.78594826	-1.9480572	-38.45694096
1.63	163	0.029	-0.874	-0.02	-10.0840608	-8.4797784	-14.8396122	86.6885454	-1.8048177	-38.54861424
1.64	164	0.033	-0.87	-0.009	-8.9381448	-10.0840608	-13.0061466	86.6026017	-1.67876694	-38.65747626
1.65	165	0.038	-0.876	0.003	-7.2765666	-10.9434978	-11.2299768	86.53957632	-1.56417534	-38.77206786
1.66	166	0.045	-0.89	0.014	-5.5576926	-11.2299768	-9.5111028	86.4880101	-1.47250206	-38.89238904
1.67	167	0.052	-0.905	0.023	-4.010706	-11.2299768	-7.8495246	86.44790304	-1.39801752	-39.00698064
1.68	168	0.062	-0.921	0.034	-2.8074942	-11.172681	-6.4171296	86.42498472	-1.34072172	-39.12157224
1.69	169	0.069	-0.941	0.052	-2.6929026	-11.6883432	-5.2139178	86.4020664	-1.2891555	-39.24189342
1.7	170	0.07	-0.962	0.07	-3.151269	-12.6623718	-4.297185	86.39633682	-1.2318597	-39.37367376
1.71	171	0.072	-0.973	0.078	-3.8388186	-13.8655836	-3.2085648	86.36195934	-1.2032118	-39.51118368
1.72	172	0.067	-0.977	0.082	-4.1825934	-14.3812458	-1.718874	86.32758186	-1.19175264	-39.65442318
1.73	173	0.062	-0.976	0.087	-4.4690724	-14.037471	-0.2291832	86.28174522	-1.19748222	-39.7919331
1.74	174	0.055	-0.973	0.086	-4.5263682	-13.2353298	1.145916	86.24163816	-1.21467096	-39.92371344
1.75	175	0.048	-0.969	0.081	-4.010706	-12.605076	2.86479	86.23590858	-1.2318597	-40.0497642
1.76	176	0.04	-0.97	0.081	-3.5523396	-12.7769634	4.8128472	86.2015311	-1.28342592	-40.17581496
1.77	177	0.039	-0.979	0.092	-3.724227	-14.5531332	6.875496	86.16715362	-1.35791046	-40.31332488
1.78	178	0.043	-0.995	0.114	-4.6409598	-18.334656	8.9954406	86.12704656	-1.45531332	-40.49094186
1.79	179	0.045	-1.018	0.134	-6.2452422	-23.3766864	11.3445684	86.07548034	-1.5756345	-40.71439548
1.8	180	0.061	-1.029	0.145	-6.875496	-29.9084076	13.2926256	86.03537328	-1.71314442	-41.00087448
1.81	181	0.095	-1.038	0.158	-6.4744254	-34.7785506	14.3812458	85.98380706	-1.87357266	-41.3389197
1.82	182	0.133	-1.047	0.172	-5.72958	-39.3622146	14.32395	85.9437	-2.02827132	-41.71707198
1.83	183	0.168	-1.052	0.187	-4.3544808	-43.6021038	13.464513	85.92078168	-2.18296998	-42.1410609
1.84	184	0.187	-1.049	0.195	-2.6356068	-47.4409224	12.032118	85.92078168	-2.3204799	-42.5994273
1.85	185	0.197	-1.042	0.203	-0.8021412	-51.1651494	10.5424272	85.95515916	-2.4350715	-43.10363034
1.86	186	0.19	-1.045	0.205	0.3437748	-55.003968	9.3392154	85.98953664	-2.5496631	-43.63648128
1.87	187	0.158	-1.057	0.204	1.0313244	-59.3584488	8.7662574	86.03537328	-2.65852512	-44.22089844
1.88	188	0.11	-1.075	0.212	1.0313244	-65.0880288	9.5683986	86.0869395	-2.7788463	-44.85688182
1.89	189	0.067	-1.082	0.231	1.3750992	-69.900876	11.6310474	86.1442353	-2.9220858	-45.53870184
1.9	190	0.037	-1.083	0.259	2.578311	-74.8283148	15.0687954	86.230179	-3.09970278	-46.27208808
1.91	191	0.029	-1.074	0.279	3.9534102	-79.6984578	18.9649098	86.32758186	-3.31742682	-47.05131096
1.92	192	0.044	-1.065	0.273	5.2139178	-84.511305	22.7464326	86.44217346	-3.56952834	-47.8706409
1.93	193	0.067	-1.071	0.245	6.2452422	-88.5793068	25.6685184	86.5739538	-3.85600734	-48.73580748
1.94	194	0.086	-1.096	0.184	6.7609044	-90.813843	26.8144344	86.7171933	-4.14821592	-49.6181628
1.95	195	0.072	-1.127	0.092	6.589017	-91.4440968	26.0122932	86.86616238	-4.42323576	-50.51197728
1.96	196	0.01	-1.179	-0.029	6.1306506	-91.2149136	22.4599536	87.00940188	-4.6696077	-51.40006218
1.97	197	-0.087	-1.209	-0.074	10.1413566	-90.527364	19.194093	87.2042076	-4.88160216	-52.28814708
1.98	198	-0.213	-1.225	-0.07	18.1054728	-90.2981808	16.3865988	87.47349786	-5.05921914	-53.17623198
1.99	199	-0.317	-1.262	-0.1	20.1108258	-91.3295052	13.3499214	87.77143602	-5.20245864	-54.07577604
2	200	-0.374	-1.283	-0.159	15.5844576	-90.6419556	8.9954406	88.02353754	-5.30559108	-54.96959052
2.01	201	-0.42	-1.299	-0.267	7.2192708	-86.1155874	2.578311	88.18396578	-5.33423898	-55.82329794
2.02	202	-0.451	-1.296	-0.37	1.6042824	-80.5578948	-4.1825934	88.28709822	-5.29413192	-56.62543914
2.03	203	-0.501	-1.282	-0.417	-0.286479	-74.5991316	-9.8548776	88.36158276	-5.19672906	-57.36455496
2.04	204	-0.429	-1.224	-0.475	-4.870143	-63.4837464	-13.6364004	88.3787715	-5.05921914	-58.00053834
2.05	205	-0.277	-1.153	-0.561	-11.6883432	-55.4623344	-12.7196676	88.29855738	-4.93889796	-58.5563076
2.06	206	-0.12	-1.086	-0.597	-15.5271618	-50.1911208	-8.0787078	88.18969536	-4.86441342	-59.06051064
2.07	207	-0.007	-1.028	-0.562	-17.0741484	-44.7480198	-2.3491278	88.05791502	-4.8414951	-59.50741788
2.08	208	0.046	-0.965	-0.498	-19.0222056	-38.101707	2.2345362	87.90321636	-4.870143	-59.88557016
2.09	209	0.058	-0.924	-0.414	-19.9962342	-29.9084076	5.3858052	87.72559938	-4.9274388	-60.18350832
2.1	210	0.028	-0.91	-0.328	-20.1108258	-22.5172494	8.1360036	87.5193345	-5.00192334	-60.40123236
2.11	211	-0.022	-0.91	-0.247	-17.9908812	-17.6471064	11.9748222	87.35317668	-5.1279741	-60.57311976
2.12	212	-0.078	-0.912	-0.181	-15.0687954	-14.8396122	15.1260912	87.21566676	-5.28267276	-60.71635926
2.13	213	-0.132	-0.915	-0.137	-12.8342592	-13.6936962	16.7876694	87.10107516	-5.45456016	-60.8481396
2.14	214	-0.171	-0.914	-0.104	-11.6883432	-13.464513	18.2200644	86.99221314	-5.63790672	-60.97419036
2.15	215	-0.203	-0.896	-0.073	-10.313244	-14.6677248	19.9389384	86.90053986	-5.85563076	-61.11170028
2.16	216	-0.227	-0.876	-0.038	-7.734933	-16.902261	21.8869956	86.84324406	-6.07908438	-61.26639894
2.17	217	-0.247	-0.868	-0.017	-5.0993262	-20.340009	23.777757	86.81459616	-6.31972674	-61.46120466
2.18	218	-0.249	-0.862	0.001	-3.5523396	-23.491278	25.3247436	86.80886658	-6.57755784	-61.6789287
2.19	219	-0.237	-0.866	0	-3.6669312	-25.5539268	26.2987722	86.803137	-6.8468481	-61.91957106
2.2	220	-0.219	-0.878	-0.008	-4.583664	-27.6738714	26.2414764	86.79167784	-7.12186794	-62.18313174
2.21	221	-0.2	-0.893	-0.028	-5.3285094	-29.5646328	25.3247436	86.7744891	-7.38542862	-62.46388116
2.22	222	-0.186	-0.909	-0.034	-6.016059	-30.9970278	23.5485738	86.75730036	-7.62607098	-62.76181932
2.23	223	-0.176	-0.917	-0.038	-6.4744254	-31.799169	21.3713334	86.74011162	-7.8495246	-63.07121664
2.24	224	-0.169	-0.918	-0.043	-5.7868758	-32.372127	19.1367972	86.72865246	-8.0500599	-63.38061396
2.25	225	-0.164	-0.919	-0.048	-4.5263682	-31.9710564	17.5325148	86.72865246	-8.23340646	-63.69001128
2.26	226	-0.164	-0.924	-0.053	-3.8961144	-30.4240698	16.4438946	86.73438204	-8.40529386	-63.98794944
2.27	227	-0.167	-0.927	-0.056	-4.1252976	-28.1895336	15.469866	86.74011162	-8.57145168	-64.26296928
2.28	228	-0.179	-0.928	-0.057	-3.3804522	-25.6112226	14.32395	86.7458412	-8.72042076	-64.50934122
2.29	229	-0.194	-0.935	-0.062	-2.291832	-23.5485738	12.891555	86.76302994	-8.8522011	-64.73852442
2.3	230	-0.217	-0.943	-0.063	-1.0313244	-22.631841	11.2872726	86.78021868	-8.98398144	-64.96197804
2.31	231	-0.238	-0.955	-0.057	0.1718874	-22.2307704	10.0840608	86.82032574	-9.09284346	-65.17970208
2.32	232	-0.261	-0.963	-0.047	1.2032118	-21.772404	9.2246238	86.87189196	-9.19024632	-65.39169654
2.33	233	-0.277	-0.967	-0.043	2.578311	-21.0275586	8.7662574	86.93491734	-9.2819196	-65.59796142
2.34	234	-0.288	-0.969	-0.038	3.9534102	-19.8816426	8.6516658	87.00940188	-9.37359288	-65.79276714
2.35	235	-0.293	-0.971	-0.032	4.8128472	-18.334656	8.7089616	87.089616	-9.4824549	-65.97038412
2.36	236	-0.293	-0.97	-0.024	5.443101	-16.329303	8.3651868	87.1755597	-9.5683986	-66.13081236
2.37	237	-0.291	-0.97	-0.012	5.9587632	-14.1520626	7.6776372	87.2615034	-9.64861272	-66.26832228
2.38	238	-0.29	-0.966	-0.008	6.4171296	-11.6883432	6.6463128	87.3474471	-9.71736768	-66.38291388
2.39	239	-0.288	-0.953	0	6.589017	-9.6256944	5.3858052	87.42766122	-9.7689339	-66.47458716
2.4	240	-0.292	-0.942	0.01	6.2452422	-8.4224826	4.1825934	87.5193345	-9.84914802	-66.56053086
2.41	241	-0.299	-0.931	0.015	5.72958	-7.6203414	2.9793816	87.59381904	-9.8835255	-66.6350154
2.42	242	-0.297	-0.921	0.028	5.0993262	-6.3598338	1.9480572	87.65684442	-9.90071424	-66.69804078
2.43	243	-0.288	-0.912	0.047	3.8388186	-3.437748	0.6875496	87.70268106	-9.90644382	-66.73241826
2.44	244	-0.277	-0.896	0.056	3.151269	-0.0572958	-0.9740286	87.73132896	-9.90071424	-66.73241826
2.45	245	-0.27	-0.868	0.058	3.2085648	2.1772404	-2.9793816	87.78862476	-9.9121734	-66.71522952
2.46	246	-0.27	-0.845	0.065	3.7815228	4.6409598	-5.2712136	87.81727266	-9.8548776	-66.66939288
2.47	247	-0.268	-0.828	0.077	4.5263682	7.3911582	-7.6776372	87.85165014	-9.78039306	-66.59490834
2.48	248	-0.255	-0.82	0.082	5.9587632	9.9121734	-9.740286	87.89748678	-9.6829902	-66.49750548
2.49	249	-0.235	-0.818	0.079	7.0473834	11.6883432	-11.45916	87.94332342	-9.56266902	-66.38291388
2.5	250	-0.226	-0.822	0.085	7.7922288	12.5477802	-13.1207382	88.01780796	-9.44234784	-66.2625927
2.51	251	-0.219	-0.838	0.098	8.3651868	13.9228794	-14.7823164	88.07510376	-9.29337876	-66.13081236
2.52	252	-0.214	-0.843	0.102	8.880849	15.5844576	-16.1574156	88.14385872	-9.13295052	-65.9761137
2.53	253	-0.212	-0.845	0.102	9.2819196	16.4438946	-17.7044022	88.2068841	-8.95533354	-65.81568546
2.54	254	-0.215	-0.853	0.106	10.026765	16.615782	-19.1367972	88.28136864	-8.7662574	-65.64952764
2.55	255	-0.211	-0.874	0.115	10.7716104	16.8449652	-20.1681216	88.3787715	-8.57145168	-65.4890994
2.56	256	-0.202	-0.895	0.132	11.2299768	16.902261	-21.3140376	88.4647152	-8.35945722	-65.32294158
2.57	257	-0.194	-0.912	0.143	10.9434978	16.8449652	-22.6891368	88.5506589	-8.13027402	-65.16251334
2.58	258	-0.198	-0.933	0.153	10.5424272	17.0168526	-23.8923486	88.63087302	-7.89536124	-64.99635552
2.59	259	-0.214	-0.966	0.16	10.4278356	18.3919518	-24.637194	88.71108714	-7.6489893	-64.81300896
2.6	260	-0.229	-1	0.17	9.9121734	20.2827132	-24.923673	88.80276042	-7.41407652	-64.61820324
2.61	261	-0.245	-1.031	0.194	9.2819196	22.2880662	-25.0382646	88.8657858	-7.161975	-64.4004792
2.62	262	-0.253	-1.056	0.221	8.880849	25.0382646	-24.9809688	88.91735202	-6.91560306	-64.15410726
2.63	263	-0.249	-1.065	0.235	8.0787078	27.6165756	-24.8663772	88.96318866	-6.66923112	-63.87908742
2.64	264	-0.244	-1.067	0.244	7.6203414	29.1062664	-24.5226024	89.0090253	-6.42858876	-63.59260842
2.65	265	-0.247	-1.08	0.254	7.2765666	29.4500412	-23.7204612	89.06059152	-6.20513514	-63.30612942
2.66	266	-0.258	-1.097	0.26	6.7036086	28.8770832	-22.2307704	89.094969	-5.9874111	-63.01965042
2.67	267	-0.265	-1.101	0.259	6.1306506	27.0436176	-20.1681216	89.12934648	-5.79260538	-62.75036016
2.68	268	-0.261	-1.099	0.255	6.7609044	24.8090814	-18.6784308	89.16945354	-5.60925882	-62.50398822
2.69	269	-0.249	-1.094	0.247	7.9641162	24.2934192	-17.5898106	89.22101976	-5.43737142	-62.26334586
2.7	270	-0.226	-1.092	0.222	8.1360036	24.350715	-16.5584862	89.30123388	-5.28267276	-62.02843308
2.71	271	-0.206	-1.091	0.19	6.5317212	22.8610242	-15.6990492	89.34134094	-5.13370368	-61.79924988
2.72	272	-0.188	-1.102	0.128	3.2658606	19.5378678	-14.4958374	89.3528001	-4.99046418	-61.60444416
2.73	273	-0.166	-1.121	0.058	-2.1199446	15.0114996	-12.6623718	89.31842262	-4.86441342	-61.46120466
2.74	274	-0.109	-1.143	-0.027	-8.0787078	8.7089616	-9.453807	89.22674934	-4.77274014	-61.37526096
2.75	275	-0.012	-1.171	-0.119	-13.5218088	-1.432395	-4.3544808	89.07205068	-4.71544434	-61.38672012
2.76	276	0.083	-1.203	-0.226	-15.2979786	-10.6570188	-2.005353	88.92881118	-4.6982556	-61.49558214
2.77	277	0.223	-1.245	-0.309	-20.340009	-4.870143	-2.5210152	88.72827588	-4.67533728	-61.54714836
2.78	278	0.312	-1.239	-0.37	-26.6998428	6.7609044	-1.6042824	88.44752646	-4.65814854	-61.48412298
2.79	279	0.348	-1.233	-0.444	-38.7892566	14.6677248	1.2605076	88.04072628	-4.67533728	-61.34088348
2.8	280	0.348	-1.242	-0.555	-54.2018268	23.204799	5.7868758	87.45630912	-4.7269035	-61.11742986
2.81	281	0.333	-1.25	-0.649	-61.2492102	29.5646328	12.0894138	86.80886658	-4.8414951	-60.82522128
2.82	282	0.294	-1.259	-0.684	-61.4210976	23.0329116	17.8189938	86.16142404	-5.01911208	-60.5903085
2.83	283	0.219	-1.194	-0.672	-55.8061092	5.6722842	19.6524594	85.58846604	-5.2139178	-60.52728312
2.84	284	0.063	-1.023	-0.595	-48.5295426	-13.9228794	16.2720072	85.1129109	-5.39153478	-60.65906346
2.85	285	-0.042	-0.874	-0.524	-46.1804148	-32.7731976	11.1153852	84.64881492	-5.52331512	-60.97991994
2.86	286	-0.1	-0.766	-0.449	-42.6280752	-52.9413192	5.3858052	84.27639222	-5.6149884	-61.50131172
2.87	287	-0.121	-0.742	-0.375	-39.4768062	-69.8435802	0.3437748	83.94980616	-5.67801378	-62.1945909
2.88	288	-0.116	-0.803	-0.301	-38.0444112	-81.646515	-2.9220858	83.65759758	-5.71239126	-63.01392084
2.89	289	-0.071	-0.926	-0.229	-35.5806918	-89.4387438	-4.8128472	83.3940369	-5.74676874	-63.90773532
2.9	290	0.024	-1.099	-0.166	-32.8877892	-93.4494498	-5.5003968	83.17058328	-5.76968706	-64.84165686
2.91	291	0.146	-1.196	-0.107	-31.3980984	-91.2722094	-4.2398892	82.95285924	-5.8155237	-65.75266008
2.92	292	0.279	-1.203	-0.05	-27.6165756	-82.7351352	-1.5469866	82.76951268	-5.87854908	-66.5777196
2.93	293	0.316	-1.16	-0.052	-24.923673	-71.5051584	1.2032118	82.59762528	-5.96449278	-67.28818752
2.94	294	0.269	-1.085	-0.09	-22.4026578	-61.306506	3.2085648	82.44292662	-6.06189564	-67.88979342
2.95	295	0.177	-1.016	-0.111	-19.480572	-55.4050386	3.6096354	82.31114628	-6.13638018	-68.43410352
2.96	296	0.083	-0.98	-0.118	-18.6784308	-52.5975444	2.9793816	82.18509552	-6.22232388	-68.9554953
2.97	297	0.01	-0.967	-0.124	-19.194093	-51.9099948	2.291832	82.0475856	-6.30826758	-69.46542792
2.98	298	-0.03	-0.953	-0.138	-19.194093	-52.9413192	1.6615782	81.92153484	-6.38275212	-69.9868197
2.99	299	-0.035	-0.932	-0.151	-19.7097552	-56.0352924	1.6615782	81.7897545	-6.46296624	-70.54258896
3	300	-0.008	-0.899	-0.162	-19.767051	-62.2232388	1.8334656	81.66370374	-6.54890994	-71.15565402
3.01	301	0.04	-0.865	-0.159	-18.3919518	-68.4111852	1.9480572	81.5605713	-6.65204238	-71.83174446
3.02	302	0.093	-0.842	-0.16	-16.2147114	-74.0834694	1.4896908	81.49181634	-6.75517482	-72.5651307
3.03	303	0.134	-0.838	-0.154	-14.32395	-80.0422326	0.4010706	81.45170928	-6.85257768	-73.35581274
3.04	304	0.164	-0.852	-0.137	-13.6364004	-84.7404882	-0.9740286	81.42306138	-6.94998054	-74.198061
3.05	305	0.187	-0.875	-0.13	-13.6364004	-88.1209404	-1.6042824	81.40587264	-7.0187355	-75.06895716
3.06	306	0.214	-0.901	-0.132	-14.037471	-91.0430262	-1.2605076	81.38295432	-7.12186794	-75.9742308
3.07	307	0.229	-0.914	-0.116	-13.1207382	-94.0224078	0.0572958	81.37722474	-7.23645954	-76.90815234
3.08	308	0.237	-0.916	-0.089	-11.1153852	-97.9185222	2.291832	81.40014306	-7.37969904	-77.87072178
3.09	309	0.237	-0.901	-0.065	-9.167328	-101.8719324	4.4690724	81.45170928	-7.54585686	-78.87339828
3.1	310	0.243	-0.879	-0.048	-7.9641162	-105.6534552	6.5317212	81.52619382	-7.71774426	-79.91618184
3.11	311	0.257	-0.86	-0.041	-8.2505952	-109.721457	8.4797784	81.60640794	-7.92973872	-80.9876133
3.12	312	0.244	-0.853	-0.031	-9.453807	-115.2218538	10.1413566	81.68089248	-8.1646515	-82.11634056
3.13	313	0.22	-0.859	-0.029	-10.026765	-120.2638842	12.4331886	81.76683618	-8.42821218	-83.29663404
3.14	314	0.201	-0.88	-0.025	-10.886202	-125.5350978	15.469866	81.85277988	-8.72042076	-84.52276416
3.15	315	0.182	-0.88	-0.028	-13.178034	-132.8116644	17.9335854	81.94445316	-9.03554766	-85.81764924
3.16	316	0.135	-0.881	-0.021	-16.2147114	-138.2547654	19.6524594	82.01320812	-9.38505204	-87.16983012
3.17	317	0.101	-0.877	-0.008	-17.7044022	-139.9163436	20.912967	82.08196308	-9.74601558	-88.53919974
3.18	318	0.071	-0.858	0.005	-17.6471064	-139.6298646	21.199446	82.15644762	-10.10697912	-89.90283978
3.19	319	0.046	-0.816	0.01	-17.1314442	-137.2807368	20.8556712	82.24239132	-10.46221308	-91.24929108
3.2	320	0.038	-0.748	-0.011	-15.9855282	-134.1867636	20.5118964	82.33979418	-10.8002583	-92.56709448
3.21	321	0.036	-0.663	-0.001	-14.32395	-129.488508	19.8243468	82.45438578	-11.13257394	-93.83906124
3.22	322	0.029	-0.577	0	-12.8342592	-122.8421952	18.7930224	82.58043654	-11.44197126	-95.04800262
3.23	323	0.061	-0.493	0.012	-14.6677248	-118.8314892	17.9908812	82.68356898	-11.73990942	-96.21683694
3.24	324	0.063	-0.414	0.075	-15.8709366	-116.9407278	17.9908812	82.77524226	-12.032118	-97.3742121
3.25	325	0.031	-0.374	0.03	-18.5065434	-116.310474	20.2254174	82.84399722	-12.34151532	-98.5201281
3.26	326	0.017	-0.362	-0.015	-22.1734746	-123.9881112	23.8923486	82.90129302	-12.69674928	-99.74052864
3.27	327	0.038	-0.374	0.019	-22.631841	-136.4212998	27.5592798	82.9929663	-13.09781988	-101.0869799
3.28	328	0.072	-0.431	0.048	-24.0069402	-151.1463204	31.1689152	83.11328748	-13.5504567	-102.5824003
3.29	329	0.144	-0.479	0.035	-27.501984	-164.8400166	32.658606	83.24506782	-14.02028226	-104.2210602
3.3	330	0.252	-0.477	-0.017	-29.793816	-169.9966386	30.7105488	83.38257774	-14.46145992	-105.9112863
3.31	331	0.286	-0.44	0.006	-28.934379	-166.2151158	25.6112226	83.5372764	-14.86253052	-107.5785941
3.32	332	0.24	-0.406	0.031	-25.2674478	-158.9385492	20.626488	83.71489338	-15.20057574	-109.1828765
3.33	333	0.155	-0.362	-0.017	-22.8610242	-150.2295876	17.0741484	83.90396952	-15.48705474	-110.7012152
3.34	334	0.087	-0.34	-0.035	-19.9389384	-139.515273	15.1260912	84.10450482	-15.74488584	-112.1164214
3.35	335	0.015	-0.364	0.001	-17.3606274	-129.488508	16.1574156	84.30504012	-15.99698736	-113.4284953
3.36	336	-0.033	-0.406	0.018	-17.7044022	-124.5037734	20.6837838	84.49411626	-16.28919594	-114.6890029
3.37	337	-0.104	-0.45	0.053	-17.9335854	-125.2486188	26.5852512	84.6831924	-16.63870032	-115.9495105
3.38	338	-0.176	-0.493	0.115	-18.7357266	-126.2799432	29.9657034	84.8837277	-17.0168526	-117.2272068
3.39	339	-0.21	-0.504	0.095	-18.2200644	-122.1546456	29.793816	85.07853342	-17.38354572	-118.4647961
3.4	340	-0.201	-0.504	0.059	-20.1681216	-115.451037	26.5852512	85.25042082	-17.71586136	-119.63936
3.41	341	-0.188	-0.483	0.003	-24.5226024	-105.7680468	23.3766864	85.3420941	-18.00806994	-120.7222506
3.42	342	-0.204	-0.473	-0.065	-28.7624916	-93.2202666	23.8923486	85.35928284	-18.29454894	-121.6733609
3.43	343	-0.22	-0.482	-0.12	-32.7159018	-86.1728832	29.2781538	85.31917578	-18.63259416	-122.5499866
3.44	344	-0.214	-0.512	-0.142	-34.663959	-86.2874748	37.1276784	85.26187998	-19.0508535	-123.4208828
3.45	345	-0.154	-0.545	-0.091	-33.518043	-85.084263	45.0344988	85.21604334	-19.54359738	-124.2803198
3.46	346	-0.056	-0.529	-0.014	-32.8304934	-83.1362058	51.7954032	85.17593628	-20.10509622	-125.1111089
3.47	347	-0.004	-0.497	-0.007	-29.6219286	-80.3287116	53.9153478	85.16447712	-20.6837838	-125.9132501
3.48	348	0.013	-0.464	-0.03	-26.1268848	-72.3072996	50.2484166	85.1702067	-21.22236432	-126.6351772
3.49	349	-0.019	-0.471	-0.048	-19.5378678	-64.8015498	44.690724	85.22177292	-21.70364904	-127.2883493
3.5	350	-0.076	-0.533	-0.046	-9.1100322	-58.155237	41.1383844	85.35355326	-22.13909712	-127.8727664
3.51	351	-0.112	-0.612	-0.034	0.9740286	-50.9359662	39.534102	85.56554772	-22.55735646	-128.3826991
3.52	352	-0.155	-0.65	0.036	8.9381448	-44.8053156	39.4768062	85.83483798	-22.96415664	-128.8296063
3.53	353	-0.154	-0.661	0.029	19.8816426	-31.2835068	40.4508348	86.16142404	-23.3766864	-129.1390036
3.54	354	-0.102	-0.713	0.03	30.1375908	-8.4797784	42.7999626	86.49373968	-23.80067532	-129.1962994
3.55	355	-0.146	-0.796	0.051	29.3927454	9.1100322	46.0085274	86.7458412	-24.24185298	-129.0702487
3.56	356	-0.232	-0.837	0.027	17.6471064	19.5378678	50.6494872	86.82032574	-24.73459686	-128.8238767
3.57	357	-0.278	-0.828	-0.016	6.9900876	24.7517856	57.1239126	86.76302994	-25.2960957	-128.520209
3.58	358	-0.258	-0.821	-0.002	-2.9793816	25.9549974	63.7702254	86.59114254	-25.92061992	-128.1993525
3.59	359	-0.126	-0.825	-0.039	-20.2254174	18.3919518	70.3019466	86.27028606	-26.6138991	-127.9529806
3.6	360	0.055	-0.832	-0.127	-39.6486936	-2.8074942	77.4066258	85.8577563	-27.3587445	-127.9243327
3.61	361	0.243	-0.809	-0.175	-50.2484166	-35.6952834	85.2561504	85.50825192	-28.22391108	-128.2623779
3.62	362	0.466	-0.797	-0.198	-51.279741	-74.3126526	95.3402112	85.36501242	-29.20939884	-129.024412
3.63	363	0.658	-0.811	-0.339	-47.3263308	-124.9621398	108.1744704	85.56554772	-30.34958526	-130.3536746
3.64	364	0.709	-0.807	-0.22	-49.6181628	-181.6849818	130.7490156	86.1155874	-31.73041404	-132.3475684
3.65	365	0.366	-0.69	-0.101	-43.3156248	-228.5529462	166.2724116	87.09534558	-33.44355846	-134.9258794
3.66	366	-0.071	-0.797	-0.018	-34.7785506	-259.4353824	201.1655538	88.4933631	-35.47182978	-137.9510977
3.67	367	-0.653	-0.973	0.071	-32.8877892	-272.0404584	234.9700758	90.18931878	-37.76366178	-141.2799836
3.68	368	-1.117	-1.013	0.15	-17.5325148	-273.4728534	262.3001724	92.29207464	-40.23884034	-144.8380528
3.69	369	-1.608	-0.975	0.147	-3.4950438	-273.1863744	275.4782064	94.83027858	-42.72547806	-148.6654123
3.7	370	-2.489	-1.007	0.354	3.437748	-274.3895862	276.9678972	97.79247144	-45.08606502	-152.8250873
3.71	371	-3.322	-0.784	0.568	8.4224826	-259.836453	277.7700384	101.0239546	-47.32060122	-157.1280019
3.72	372	-3.849	-0.261	0.613	13.0634424	-222.307704	285.6768588	104.3012743	-49.54367826	-161.287677
3.73	373	-3.999	0.185	0.599	24.5798982	-169.1944974	286.3644084	107.4811912	-51.77248488	-165.0348223
3.74	374	-3.686	0.244	0.661	52.8840234	-123.1286742	268.4881188	110.689756	-53.86378158	-168.3637083
3.75	375	-3.197	-0.331	0.633	90.0689976	-70.8749046	222.1358166	113.6920559	-55.61703306	-170.9019122
3.76	376	-2.51	-0.158	0.599	22.058883	0.8021412	223.2817326	115.3077975	-57.63384522	-172.56922
3.77	377	-1.879	0.155	0.772	21.1421502	23.6631654	243.1633752	116.9407278	-59.90848848	-174.2250686
3.78	378	-2.182	-0.281	0.914	103.13244	1.2605076	241.9601634	120.0175123	-62.0227035	-176.539819
3.79	379	-1.952	-0.299	0.625	88.8657858	25.210152	242.361234	122.9797051	-64.20567348	-178.8488397
3.8	380	-2.094	0.121	0.715	70.9322004	31.51269	255.539268	126.2856728	-66.47458716	178.2988
3.81	381	-2.061	0.166	0.891	109.434978	9.453807	254.6225352	131.0125763	-68.50858806	174.3912265
3.82	382	-1.846	0.072	0.87	124.7902524	-10.7143146	241.2726138	136.8567479	-70.1587071	169.5038947
3.83	383	-1.796	-0.023	0.741	112.4143596	-24.6944898	224.4276486	143.3139845	-71.39629638	163.8889063
3.84	384	-1.801	0.111	0.747	88.1209404	-43.544808	212.7393054	150.2582355	-72.18697842	157.5290725
3.85	385	-1.62	0.003	0.862	72.4218912	-46.8106686	206.26488	157.4030218	-72.66826314	150.8197343
3.86	386	-1.23	-0.319	0.825	65.89017	-38.6173692	204.6605976	164.6509405	-72.9662013	143.9442383
3.87	387	-1.209	-0.157	0.707	58.3271244	-36.8984952	208.3848246	172.0764761	-73.0234971	136.8051817
3.88	388	-1.311	0.05	0.708	47.3263308	-37.7579322	197.0402562	178.9634313	-72.80004348	130.1130322
3.89	389	-1.207	0.207	0.673	43.6593996	-41.6540466	182.6590104	-174.8954295	-72.32448834	124.1599986
3.9	390	-1.141	0.274	0.703	43.3156248	-43.6021038	168.7934268	-169.5554609	-71.67131622	119.0148358
3.91	391	-0.962	0.186	0.582	38.6173692	-42.0551172	157.56345	-164.9603378	-70.92074124	114.5858704
3.92	392	-1.068	0.084	0.534	24.9809688	-41.3675676	138.4839486	-161.3449728	-70.13578878	111.0335308
3.93	393	-1.041	0.224	0.357	12.0894138	-41.8832298	120.7795464	-158.5833152	-69.33937716	108.2260366
3.94	394	-0.87	0.298	0.401	13.2926256	-42.8572584	113.6175714	-156.1883508	-68.51431764	105.8138834
3.95	395	-1.013	0.33	0.307	-3.437748	-43.8885828	107.0858502	-154.2746711	-67.67779896	103.7225867
3.96	396	-0.906	0.214	0.258	-4.1825934	-49.1025006	92.3035338	-152.8938423	-66.84128028	102.1927889
3.97	397	-0.773	0.263	0.298	-3.2658606	-47.9565846	80.3287116	-151.83387	-66.05059824	101.0067658
3.98	398	-0.805	0.285	0.262	-0.859437	-38.101707	70.473834	-150.8942189	-65.39169654	99.97544142
3.99	399	-0.707	0.307	0.22	9.9121734	-27.8457588	64.1140002	-149.9030015	-64.84165686	99.00141282
4	400	-0.74	0.337	0.27	14.6677248	-28.074942	60.0459984	-148.9576208	-64.29161718	98.12478708
4.01	401	-0.74	0.475	0.277	13.6364004	-30.0229992	60.2751816	-148.0981838	-63.73011834	97.32837546
4.02	402	-0.82	0.461	0.265	23.6058696	-26.069589	54.0872352	-147.2330173	-63.23164488	96.64082586
4.03	403	-0.637	0.512	0.292	27.3873924	-24.7517856	49.9046418	-146.4136873	-62.76181932	96.03349038
4.04	404	-0.717	0.527	0.292	25.210152	-22.345362	45.550161	-145.6803011	-62.33210082	95.50063944
4.05	405	-0.649	0.557	0.328	20.1108258	-22.058883	41.6540466	-145.0213994	-61.90238232	95.00216598
4.06	406	-0.632	0.623	0.325	11.5737516	-24.7517856	41.4821592	-144.5515738	-61.47266382	94.60682496
4.07	407	-0.625	0.647	0.268	6.5317212	-25.78311	43.7166954	-144.1218553	-61.01429742	94.1942952
4.08	408	-0.691	0.684	0.254	4.2398892	-22.6891368	44.3469492	-143.6806777	-60.57884934	93.74738796
4.09	409	-0.783	0.651	0.242	11.6883432	-20.340009	43.4302164	-143.170745	-60.16059	93.30048072
4.1	410	-0.834	0.529	0.275	18.048177	-16.9595568	34.5493674	-142.6321645	-59.82254478	92.91086928
4.11	411	-0.847	0.538	0.308	15.0687954	-15.0114996	25.3247436	-142.2998489	-59.5589841	92.7046044
4.12	412	-0.858	0.539	0.327	14.32395	-12.4904844	16.7876694	-142.0592065	-59.3584488	92.60147196
4.13	413	-0.87	0.58	0.331	12.4904844	-8.9954406	8.0787078	-141.9216966	-59.2438572	92.58428322
4.14	414	-0.876	0.575	0.349	11.1153852	-5.156622	-0.9740286	-141.87586	-59.20947972	92.66449734
4.15	415	-0.878	0.563	0.361	9.6829902	-1.8907614	-7.9641162	-141.7956458	-59.22093888	92.72179314
4.16	416	-0.865	0.546	0.361	9.6256944	1.3178034	-14.0947668	-141.8701304	-59.32407132	92.91659886
4.17	417	-0.88	0.521	0.357	11.8029348	4.4690724	-19.4232762	-141.9618037	-59.47876998	93.15724122
4.18	418	-0.896	0.488	0.366	14.2093584	7.7922288	-24.9809688	-142.0649361	-59.69076444	93.4494498
4.19	419	-0.904	0.439	0.378	14.610429	11.4018642	-30.7678446	-142.2081756	-59.97151386	93.78749502
4.2	420	-0.902	0.4	0.389	12.1467096	13.0061466	-34.7212548	-142.4029813	-60.28091118	94.15418814
4.21	421	-0.913	0.369	0.385	9.740286	13.178034	-37.5860448	-142.6837307	-60.61322682	94.58963622
4.22	422	-0.92	0.346	0.398	8.2505952	12.6623718	-39.247623	-143.0160464	-60.94554246	95.05946178
4.23	423	-0.927	0.335	0.41	7.161975	13.2926256	-40.2216516	-143.3770099	-61.29504684	95.55220566
4.24	424	-0.935	0.322	0.404	6.4171296	13.8082878	-40.2216516	-143.7494326	-61.63882164	96.05067912
4.25	425	-0.927	0.299	0.417	4.5263682	12.318597	-40.2789474	-144.1734215	-61.97113728	96.57780048
4.26	426	-0.923	0.285	0.431	1.9480572	10.313244	-39.7059894	-144.6432471	-62.28626418	97.12784016
4.27	427	-0.922	0.282	0.441	-0.1145916	8.1932994	-38.7892566	-145.1589093	-62.57274318	97.70652774
4.28	428	-0.923	0.287	0.434	-0.4010706	8.7662574	-38.4454818	-145.6745715	-62.85922218	98.27948574
4.29	429	-0.924	0.293	0.431	0.3437748	10.313244	-37.7006364	-146.1615858	-63.15143076	98.82952542
4.3	430	-0.924	0.291	0.439	0.6875496	11.3445684	-37.4714532	-146.6428705	-63.44363934	99.37383552
4.31	431	-0.926	0.29	0.439	1.0313244	12.1467096	-37.1276784	-147.1184257	-63.74730708	99.91814562
4.32	432	-0.936	0.285	0.439	2.005353	12.605076	-37.0703826	-147.5882512	-64.05097482	100.4567261
4.33	433	-0.963	0.291	0.431	2.6929026	12.605076	-37.3568616	-148.0695359	-64.34891298	101.018225
4.34	434	-0.987	0.307	0.447	3.8961144	11.45916	-37.6433406	-148.5680094	-64.64685114	101.6141013
4.35	435	-1.032	0.344	0.494	8.1932994	10.313244	-37.5860448	-149.037835	-64.9161414	102.2271664
4.36	436	-1.038	0.358	0.531	12.9488508	11.5737516	-38.388186	-149.4790126	-65.21407956	102.8574202
4.37	437	-0.987	0.401	0.557	17.0741484	11.2872726	-38.674665	-149.9030015	-65.50628814	103.5105923
4.38	438	-1.046	0.47	0.605	19.767051	12.8342592	-35.7525792	-150.2353172	-65.79276714	104.0950094
4.39	439	-0.971	0.447	0.671	29.9657034	20.2827132	-38.6173692	-150.4473116	-66.15946026	104.6565083
4.4	440	-1.111	0.452	0.569	35.7525792	14.7250206	-43.831287	-150.7738977	-66.49750548	105.4070833
4.41	441	-1.082	0.371	0.453	37.815228	10.886202	-55.1185596	-151.3755036	-66.8641986	106.4785147
4.42	442	-0.973	0.351	0.449	33.3461556	19.767051	-66.749607	-152.1948335	-67.3512129	107.7275632
4.43	443	-0.871	0.345	0.484	38.1590028	54.2018268	-68.3538894	-152.6474704	-68.14189494	108.6271072
4.44	444	-0.856	0.234	0.334	48.8160216	75.0002022	-68.8695516	-152.802169	-69.11019396	109.3146568
4.45	445	-0.932	0.108	0.174	55.0612638	65.030733	-68.2392978	-153.0428114	-70.00400844	110.1569051
4.46	446	-0.972	0.05	0.085	45.3209778	39.4195104	-67.322565	-153.7475497	-70.65718056	111.3887648
4.47	447	-0.96	0.003	0.142	32.8304934	18.1054728	-60.3324774	-154.7387671	-71.08116948	112.7867823
4.48	448	-0.876	0.003	0.215	25.3820394	8.9381448	-48.7587258	-155.6612294	-71.36764848	114.0301012
4.49	449	-0.858	0.014	0.202	28.074942	4.1825934	-39.5913978	-156.3946157	-71.57391336	115.1072622
4.5	450	-0.844	-0.002	0.193	29.9657034	-0.2291832	-33.4034514	-157.0477878	-71.71715286	116.1042091
4.51	451	-0.847	0.008	0.188	24.7517856	1.8907614	-28.5906042	-157.5691796	-71.8489332	116.9235391
4.52	452	-0.891	0.015	0.187	20.6837838	9.3392154	-27.5592798	-158.027546	-72.04373892	117.6225478
4.53	453	-0.936	0.045	0.144	17.6471064	22.631841	-27.0436176	-158.354132	-72.34740666	118.1496692
4.54	454	-0.953	0.058	0.077	15.9855282	33.231564	-26.642547	-158.5661265	-72.75420684	118.5392806
4.55	455	-0.983	0.067	0.04	14.4958374	38.4454818	-26.0122932	-158.709366	-73.2240324	118.8372188
4.56	456	-0.983	0.039	0.03	12.5477802	40.393539	-25.6685184	-158.8697942	-73.68812838	119.1294274
4.57	457	-0.94	0.013	0.033	9.167328	39.4195104	-23.9496444	-159.0302225	-74.13503562	119.3872585
4.58	458	-0.895	-0.014	0.032	5.0993262	36.7839036	-20.7410796	-159.173462	-74.54756538	119.5877938
4.59	459	-0.862	-0.037	0.054	-0.1718874	34.2628884	-16.5584862	-159.2708648	-74.91998808	119.679467
4.6	460	-0.854	-0.04	0.075	-3.3804522	33.5753388	-13.6936962	-159.3625381	-75.29814036	119.7310333
4.61	461	-0.856	-0.042	0.123	-2.7501984	36.1536498	-12.605076	-159.3224311	-75.67056306	119.6565487
4.62	462	-0.853	-0.035	0.162	-0.4010706	37.815228	-12.4331886	-159.2307578	-76.0601745	119.5476867
4.63	463	-0.862	-0.017	0.193	0.9740286	36.955791	-12.4331886	-159.1276253	-76.44405636	119.4502838
4.64	464	-0.879	0.001	0.201	1.9480572	35.0077338	-12.032118	-159.0244929	-76.81074948	119.3586106
4.65	465	-0.904	0.019	0.196	1.3178034	33.1169724	-10.7716104	-158.9442788	-77.15452428	119.284126
4.66	466	-0.931	0.042	0.195	-0.4010706	31.9137606	-9.2246238	-158.7895801	-77.48111034	119.1179682
4.67	467	-0.973	0.058	0.201	-2.6929026	26.6998428	-7.6776372	-158.6749885	-77.7504006	118.9689991
4.68	468	-1.017	0.075	0.191	-6.302538	23.7204612	-5.8441716	-158.5718561	-77.98531338	118.7913821
4.69	469	-1.039	0.094	0.175	-9.6829902	22.6891368	-3.3231564	-158.3942391	-78.20303742	118.5106327
4.7	470	-1.061	0.097	0.181	-10.3705398	23.1475032	-1.432395	-158.1077601	-78.42076146	118.1038325
4.71	471	-1.099	0.101	0.165	-10.2559482	26.2414764	-0.4010706	-157.7181487	-78.66140382	117.5938999
4.72	472	-1.101	0.081	0.144	-10.0840608	32.2002396	-0.572958	-157.1967569	-78.9536124	116.952187
4.73	473	-1.09	0.059	0.142	-9.0527364	39.820581	-2.5210152	-156.5550439	-79.32030552	116.201612
4.74	474	-1.06	0.045	0.151	-6.4171296	47.1544434	-4.9847346	-155.7872802	-79.76148318	115.3479046
4.75	475	-1.063	0.062	0.166	-4.5263682	49.9046418	-5.3285094	-154.876277	-80.22557916	114.3681464
4.76	476	-1.08	0.093	0.17	-4.1825934	45.3782736	-3.6096354	-153.9022484	-80.63810892	113.3310924
4.77	477	-1.099	0.106	0.155	-3.0366774	41.825934	-1.432395	-152.802169	-81.01053162	112.1851764
4.78	478	-1.139	0.101	0.134	-0.9167328	41.0810886	0	-151.5302023	-81.360036	110.8788322
4.79	479	-1.162	0.084	0.113	1.8334656	43.3156248	0.286479	-150.0233227	-81.72672912	109.366223
4.8	480	-1.189	0.078	0.105	4.2398892	45.4355694	0.572958	-148.2414233	-82.11061098	107.607242
4.81	481	-1.201	0.075	0.097	7.2765666	49.3316838	1.0313244	-146.0641829	-82.505952	105.4758382
4.82	482	-1.175	0.093	0.11	12.605076	56.6655462	2.1199446	-143.1650155	-82.94712966	102.6798032
4.83	483	-1.087	0.097	0.134	19.7097552	68.6976642	2.8074942	-139.0912841	-83.44560312	98.76650004
4.84	484	-1.007	0.11	0.156	24.923673	76.4325972	2.1772404	-133.8372592	-83.97272448	93.72446964
4.85	485	-0.936	0.122	0.173	29.7365202	76.4325972	2.1772404	-127.6665016	-84.4253613	87.81727266
4.86	486	-0.864	0.126	0.185	32.372127	70.9894962	2.9220858	-120.8884084	-84.78632484	81.3313881
4.87	487	-0.841	0.132	0.154	33.1742682	66.2912406	4.4690724	-113.6691376	-85.03269678	74.41578504
4.88	488	-0.781	0.121	0.115	33.4607472	64.6296624	6.4171296	-105.9571229	-85.18166586	67.0074381
4.89	489	-0.764	0.087	0.077	32.4867186	62.2805346	7.8495246	-98.18781246	-85.21604334	59.5303362
4.9	490	-0.809	0.036	0.043	30.3094782	56.3790672	8.7662574	-91.17480654	-85.1702067	52.79235012
4.91	491	-0.839	0.016	0.022	27.3300966	46.8679644	10.1986524	-85.49679276	-85.04415594	47.36643786
4.92	492	-0.859	0.013	-0.009	24.7517856	39.8778768	11.5164558	-80.94177666	-84.87226854	43.04633454
4.93	493	-0.886	0.022	-0.047	22.2880662	36.669312	12.4331886	-77.08003974	-84.67173324	39.38513292
4.94	494	-0.919	0.031	-0.079	20.3973048	35.4088044	12.9488508	-73.65948048	-84.4540092	36.1536498
4.95	495	-0.949	0.037	-0.101	19.0795014	33.2888598	13.2926256	-70.59415518	-84.21909642	33.27167106
4.96	496	-0.973	0.046	-0.115	17.5325148	29.793816	13.464513	-68.21637948	-83.98418364	31.04859402
4.97	497	-0.987	0.061	-0.119	15.5844576	26.0122932	13.6364004	-66.3485364	-83.75500044	29.32972002
4.98	498	-0.998	0.083	-0.12	13.6936962	22.058883	13.5218088	-64.92760056	-83.5372764	28.04056452
4.99	499	-1.007	0.104	-0.123	11.1153852	18.2200644	12.6623718	-63.89054658	-83.3367411	27.1009134
5	500	-1.018	0.12	-0.135	9.3965112	16.5011904	11.5737516	-62.86495176	-83.14766496	26.17272144
5.01	501	-1.024	0.129	-0.154	8.1360036	16.6730778	10.1413566	-61.97686686	-82.97577756	25.35912108
5.02	502	-1.028	0.13	-0.175	6.589017	17.8189938	8.3651868	-61.00283826	-82.81534932	24.4366587
5.03	503	-1.026	0.129	-0.195	4.7555514	19.6524594	6.6463128	-59.9027589	-82.66065066	23.3766864
5.04	504	-1.017	0.129	-0.211	3.0366774	21.485925	4.9847346	-58.68808794	-82.50022242	22.17920418
5.05	505	-0.998	0.131	-0.226	1.3178034	23.0902074	3.5523396	-57.10099428	-82.31114628	20.5978401
5.06	506	-0.963	0.131	-0.239	0	24.2934192	2.4064236	-55.76027256	-82.15644762	19.23992964
5.07	507	-0.932	0.126	-0.243	-1.3750992	24.5798982	1.5469866	-54.44246916	-81.99601938	17.88774876
5.08	508	-0.905	0.125	-0.246	-2.578311	23.204799	1.2605076	-53.24498694	-81.8470503	16.65015948
5.09	509	-0.884	0.121	-0.247	-3.2085648	21.1421502	1.0313244	-52.20220338	-81.7038108	15.56153928
5.1	510	-0.867	0.119	-0.245	-3.8961144	18.8503182	1.3178034	-51.06201696	-81.53765298	14.36978664
5.11	511	-0.86	0.114	-0.24	-4.3544808	16.5584862	1.718874	-50.35727862	-81.4173318	13.6077525
5.12	512	-0.854	0.112	-0.229	-4.9847346	14.3812458	2.3491278	-49.81296852	-81.3027402	13.0061466
5.13	513	-0.859	0.114	-0.216	-5.6149884	11.9175264	2.9793816	-49.43481624	-81.19960776	12.56496894
5.14	514	-0.862	0.124	-0.201	-6.1879464	8.9954406	3.3804522	-49.22282178	-81.11366406	12.28421952
5.15	515	-0.866	0.137	-0.183	-6.7609044	5.0993262	3.437748	-49.0738527	-81.01053162	12.06649548
5.16	516	-0.87	0.151	-0.168	-7.1046792	1.7761698	2.9793816	-49.19417388	-80.97615414	12.11233212
5.17	517	-0.878	0.161	-0.159	-7.3338624	-1.7761698	2.5210152	-49.46346414	-80.97042456	12.31286742
5.18	518	-0.892	0.172	-0.158	-7.5630456	-5.3858052	2.005353	-49.8759939	-80.99334288	12.65664222
5.19	519	-0.911	0.18	-0.158	-7.5630456	-8.7089616	1.2605076	-50.420304	-81.03917952	13.12646778
5.2	520	-0.927	0.182	-0.159	-7.7922288	-10.9434978	0.1718874	-50.99899158	-81.06209784	13.6364004
5.21	521	-0.937	0.177	-0.159	-7.9068204	-11.9175264	-0.9740286	-51.6235158	-81.14804154	14.18644008
5.22	522	-0.949	0.169	-0.157	-8.3651868	-11.9748222	-2.5210152	-52.20220338	-81.2454444	14.68491354
5.23	523	-0.963	0.162	-0.154	-8.7662574	-11.6883432	-3.9534102	-52.72359516	-81.34857684	15.1260912
5.24	524	-0.978	0.156	-0.147	-9.0527364	-11.8602306	-5.2712136	-53.22206862	-81.46316844	15.53862096
5.25	525	-0.984	0.149	-0.15	-9.3965112	-11.8602306	-6.1879464	-53.61740964	-81.56630088	15.8422887
5.26	526	-0.988	0.143	-0.152	-9.5111028	-12.4331886	-6.6463128	-54.1158831	-81.69808122	16.25481846
5.27	527	-0.991	0.135	-0.154	-9.5683986	-13.5218088	-6.9327918	-54.68311152	-81.82986156	16.7303736
5.28	528	-0.99	0.129	-0.162	-9.3392154	-13.9228794	-7.161975	-55.27325826	-81.97310106	17.22884706
5.29	529	-0.987	0.123	-0.165	-8.59437	-14.4958374	-7.3911582	-55.89778248	-82.11634056	17.77315716
5.3	530	-0.99	0.118	-0.158	-7.7922288	-14.7823164	-7.6776372	-56.4077151	-82.25385048	18.20860524
5.31	531	-1.004	0.117	-0.141	-6.9327918	-13.9801752	-7.9068204	-57.00359142	-82.39708998	18.74145618
5.32	532	-0.999	0.109	-0.128	-7.5630456	-11.5164558	-8.1360036	-57.4676874	-82.52887032	19.1367972
5.33	533	-0.982	0.099	-0.117	-9.3965112	-7.7922288	-8.021412	-57.73124808	-82.63773234	19.3086846
5.34	534	-0.968	0.096	-0.11	-10.6570188	-3.6669312	-7.6776372	-57.77135514	-82.72367604	19.23420006
5.35	535	-0.953	0.092	-0.118	-9.453807	-0.9167328	-7.0473834	-57.38747328	-82.77524226	18.75864492
5.36	536	-0.94	0.082	-0.124	-7.734933	-1.718874	-6.1306506	-57.33017748	-82.83253806	18.621135
5.37	537	-0.942	0.074	-0.116	-7.161975	-5.6722842	-5.0993262	-57.55936068	-82.91275218	18.78156324
5.38	538	-0.965	0.074	-0.103	-7.6776372	-10.313244	-4.0680018	-58.16096658	-82.99869588	19.3086846
5.39	539	-0.996	0.086	-0.081	-7.7922288	-13.3499214	-3.0366774	-59.02613316	-83.10182832	20.10509622
5.4	540	-1.027	0.102	-0.055	-6.875496	-13.2926256	-2.4064236	-59.9600547	-83.1935016	20.97599238
5.41	541	-1.042	0.11	-0.04	-5.443101	-10.7143146	-2.0626488	-60.69917052	-83.26225656	21.66354198
5.42	542	-1.041	0.111	-0.038	-3.9534102	-7.3338624	-1.8334656	-61.19764398	-83.31955236	22.12763796
5.43	543	-1.037	0.106	-0.038	-2.7501984	-4.8128472	-1.6615782	-61.51277088	-83.35392984	22.41411696
5.44	544	-1.036	0.101	-0.035	-1.432395	-3.6096354	-1.2032118	-61.74195408	-83.38257774	22.631841
5.45	545	-1.036	0.099	-0.036	-0.4010706	-3.0939732	-0.572958	-62.07426972	-83.4226848	22.96415664
5.46	546	-1.037	0.1	-0.04	0.3437748	-3.3804522	0.0572958	-62.32637124	-83.43987354	23.22198774
5.47	547	-1.043	0.103	-0.041	1.4896908	-4.2398892	0.8021412	-62.66441646	-83.4513327	23.57149212
5.48	548	-1.05	0.11	-0.04	2.2345362	-5.2139178	1.3178034	-63.08840538	-83.46852144	24.02412894
5.49	549	-1.056	0.115	-0.038	3.0939732	-5.9587632	1.8907614	-63.58114926	-83.4799806	24.55697988
5.5	550	-1.058	0.121	-0.039	3.5523396	-5.9014674	2.3491278	-64.15410726	-83.4799806	25.16431536
5.51	551	-1.056	0.123	-0.04	3.9534102	-5.5003968	2.5210152	-64.6296624	-83.4799806	25.69143672
5.52	552	-1.052	0.122	-0.04	4.1825934	-4.6982556	2.7501984	-65.04792174	-83.47425102	26.1555327
5.53	553	-1.043	0.121	-0.043	4.4117766	-3.6096354	2.9220858	-65.38596696	-83.46852144	26.53941456
5.54	554	-1.031	0.119	-0.049	4.6982556	-2.291832	2.9793816	-65.62087974	-83.4513327	26.82589356
5.55	555	-1.022	0.117	-0.054	5.0420304	-0.9740286	2.86479	-65.64952764	-83.41122564	26.90610768
5.56	556	-1.012	0.117	-0.063	5.2139178	0	2.7501984	-65.6896347	-83.38830732	26.99778096
5.57	557	-1.001	0.115	-0.071	5.2712136	1.0313244	2.6929026	-65.64379806	-83.35965942	27.00924012
5.58	558	-0.995	0.112	-0.077	5.5003968	1.8334656	2.8074942	-65.54066562	-83.32528194	26.9576739
5.59	559	-0.99	0.11	-0.078	5.6722842	2.2345362	2.86479	-65.40888528	-83.29090446	26.88318936
5.6	560	-0.989	0.109	-0.08	5.3858052	2.8074942	2.86479	-65.01927384	-83.23360866	26.55087372
5.61	561	-0.99	0.109	-0.081	4.9847346	3.437748	2.86479	-64.80727938	-83.1935016	26.39044548
5.62	562	-0.988	0.113	-0.084	4.5263682	4.1825934	2.7501984	-64.54944828	-83.14766496	26.17272144
5.63	563	-0.982	0.116	-0.089	4.4690724	5.0993262	2.7501984	-64.22286222	-83.10182832	25.88624244
5.64	564	-0.979	0.116	-0.092	4.3544808	5.3858052	2.578311	-63.87335784	-83.05599168	25.5825747
5.65	565	-0.979	0.117	-0.093	4.0680018	5.6722842	2.4637194	-63.29467026	-82.98150714	25.0382646
5.66	566	-0.977	0.117	-0.096	3.8961144	5.9587632	2.2345362	-62.90505882	-82.9356705	24.6944898
5.67	567	-0.974	0.116	-0.101	3.4950438	6.5317212	1.8907614	-62.48679948	-82.88983386	24.29914878
5.68	568	-0.975	0.117	-0.103	3.0366774	6.7609044	1.6615782	-62.04562182	-82.83826764	23.88661902
5.69	569	-0.976	0.119	-0.104	2.6356068	6.589017	1.3750992	-61.61590332	-82.792431	23.48554842
5.7	570	-0.975	0.12	-0.107	2.1772404	6.4744254	1.0886202	-60.88251708	-82.71794646	22.76935092
5.71	571	-0.972	0.121	-0.112	1.8907614	5.9587632	0.7448454	-60.49863522	-82.68356898	22.4026578
5.72	572	-0.97	0.121	-0.115	1.6615782	5.3285094	0.5156622	-60.14913084	-82.6491915	22.07034216
5.73	573	-0.97	0.12	-0.116	1.6615782	4.6409598	0.4010706	-59.8454631	-82.6205436	21.77813358
5.74	574	-0.97	0.119	-0.12	1.5469866	4.1825934	0.1718874	-59.56471368	-82.59762528	21.50884332
5.75	575	-0.97	0.118	-0.123	1.3750992	3.9534102	0.0572958	-58.6708992	-82.51168158	20.63221758
5.76	576	-0.969	0.117	-0.125	1.2605076	3.4950438	0	-58.43598642	-82.48876326	20.40303438
5.77	577	-0.97	0.116	-0.123	1.0313244	2.7501984	0	-58.25263986	-82.4773041	20.23114698
5.78	578	-0.973	0.118	-0.122	0.6875496	1.7761698	0	-58.13231868	-82.46584494	20.1108258
5.79	579	-0.975	0.118	-0.123	0.1718874	0.9740286	-0.1718874	-58.05783414	-82.46011536	20.04207084
5.8	580	-0.975	0.118	-0.124	0	0.6302538	-0.2291832	-54.95240178	-82.07050392	16.9595568
5.81	581	-0.975	0.117	-0.125	0	0.286479	-0.286479	-54.9180243	-82.07050392	16.92517932
5.82	582	-0.976	0.118	-0.124	-0.1145916	-0.0572958	-0.4010706	-54.90656514	-82.0762335	16.91372016
5.83	583	-0.975	0.116	-0.123	-0.3437748	-0.4583664	-0.4583664	-54.92375388	-82.08196308	16.91944974
5.84	584	-0.974	0.116	-0.122	-0.6302538	-0.9740286	-0.572958	-54.96386094	-82.09342224	16.95382722
5.85	585	-0.974	0.117	-0.118	-0.9167328	-1.3178034	-0.7448454	-54.47111706	-82.03039686	16.46108334
5.86	586	-0.974	0.116	-0.117	-0.9740286	-1.4896908	-0.8021412	-54.53987202	-82.0475856	16.51264956
5.87	587	-0.974	0.117	-0.115	-1.0886202	-1.7761698	-0.859437	-54.61435656	-82.06477434	16.58140452
5.88	588	-0.975	0.117	-0.114	-1.0886202	-2.005353	-0.9167328	-54.70030026	-82.08196308	16.65588906
5.89	589	-0.977	0.115	-0.114	-1.0886202	-2.3491278	-0.9740286	-54.80916228	-82.1048814	16.75329192
5.9	590	-0.978	0.116	-0.112	-0.9167328	-2.578311	-1.0886202	-54.56279034	-82.08196308	16.5011904
5.91	591	-0.979	0.116	-0.111	-0.8021412	-2.5210152	-1.0313244	-54.67165236	-82.1048814	16.60432284
5.92	592	-0.979	0.115	-0.109	-0.859437	-2.3491278	-0.9740286	-54.7747848	-82.12207014	16.7017257
5.93	593	-0.982	0.115	-0.104	-0.9740286	-2.3491278	-0.9167328	-54.87791724	-82.14498846	16.79912856
5.94	594	-0.986	0.117	-0.102	-0.9167328	-2.4064236	-0.9740286	-54.99250884	-82.16790678	16.89653142
5.95	595	-0.988	0.116	-0.1	-0.7448454	-2.9793816	-1.0313244	-54.91229472	-82.1621772	16.8163173
5.96	596	-0.987	0.114	-0.093	-0.6875496	-3.3231564	-0.9740286	-55.07845254	-82.1908251	16.97674554
5.97	597	-0.988	0.111	-0.086	-0.7448454	-3.437748	-0.859437	-55.24461036	-82.219473	17.14290336
5.98	598	-0.99	0.109	-0.085	-0.9740286	-3.3231564	-0.7448454	-55.42222734	-82.24239132	17.30906118
5.99	599	-0.994	0.111	-0.086	-1.0313244	-2.9793816	-0.6875496	-55.58265558	-82.26530964	17.45803026
6	600	-0.997	0.115	-0.088	-0.859437	-2.6929026	-0.6302538	-55.55973726	-82.25958006	17.42938236
6.01	601	-0.998	0.115	-0.091	-0.286479	-2.3491278	-0.5156622	-55.68005844	-82.2767688	17.54397396
6.02	602	-0.995	0.112	-0.093	0.2291832	-1.9480572	-0.3437748	-55.7774613	-82.28822796	17.6471064
6.03	603	-0.991	0.109	-0.092	0.6875496	-1.718874	-0.1145916	-55.86913458	-82.29968712	17.75023884
6.04	604	-0.99	0.108	-0.091	0.8021412	-1.4896908	0.0572958	-55.9493487	-82.31114628	17.84191212
6.05	605	-0.992	0.109	-0.09	1.0313244	-1.3178034	0.2291832	-55.66859928	-82.28249838	17.57262186
6.06	606	-0.993	0.111	-0.088	1.2605076	-1.2032118	0.3437748	-55.74308382	-82.28822796	17.65856556
6.07	607	-0.994	0.113	-0.09	1.432395	-1.0886202	0.5156622	-55.81183878	-82.28822796	17.74450926
6.08	608	-0.994	0.115	-0.091	1.7761698	-0.9167328	0.6302538	-55.87486416	-82.28822796	17.82472338
6.09	609	-0.993	0.114	-0.09	2.005353	-0.7448454	0.6875496	-55.92643038	-82.28822796	17.9049375
6.1	610	-0.992	0.112	-0.091	2.005353	-0.4583664	0.7448454	-55.64568096	-82.2481209	17.64137682
6.11	611	-0.991	0.112	-0.088	2.0626488	0	0.6875496	-55.65141054	-82.24239132	17.67002472
6.12	612	-0.991	0.111	-0.089	2.005353	0.2291832	0.6875496	-55.64568096	-82.23666174	17.68721346
6.13	613	-0.991	0.11	-0.088	2.005353	0.4583664	0.6875496	-55.62276264	-82.22520258	17.68148388
6.14	614	-0.989	0.11	-0.091	1.8334656	0.5156622	0.7448454	-55.59984432	-82.219473	17.68148388
6.15	615	-0.99	0.111	-0.094	1.718874	0.6302538	0.7448454	-55.25033994	-82.17363636	17.34916824
6.16	616	-0.99	0.111	-0.096	1.5469866	0.7448454	0.7448454	-55.22169204	-82.1621772	17.33770908
6.17	617	-0.989	0.113	-0.098	1.432395	0.6302538	0.8021412	-55.2045033	-82.15071804	17.3319795
6.18	618	-0.988	0.112	-0.098	1.3750992	0.7448454	0.6875496	-55.1758554	-82.14498846	17.32052034
6.19	619	-0.986	0.111	-0.098	1.2032118	0.8021412	0.6875496	-55.14147792	-82.1335293	17.29760202
6.2	620	-0.986	0.11	-0.098	0.859437	0.7448454	0.7448454	-54.62008614	-82.0762335	16.7876694
6.21	621	-0.986	0.11	-0.097	0.6875496	0.572958	0.8021412	-54.61435656	-82.06477434	16.79339898
6.22	622	-0.986	0.11	-0.097	0.5156622	0.572958	0.859437	-54.61435656	-82.05331518	16.79339898
6.23	623	-0.984	0.112	-0.099	0.3437748	0.572958	0.9167328	-54.61435656	-82.04185602	16.79912856
6.24	624	-0.983	0.113	-0.1	0.3437748	0.4010706	0.9167328	-54.62581572	-82.03039686	16.81058772
6.25	625	-0.983	0.112	-0.1	0.1718874	0.286479	0.859437	-53.82367452	-81.92726442	16.02563526
6.26	626	-0.984	0.113	-0.102	0.0572958	0.4583664	0.8021412	-53.83513368	-81.91580526	16.03136484
6.27	627	-0.984	0.112	-0.102	0	0.6302538	0.859437	-53.83513368	-81.9043461	16.03136484
6.28	628	-0.985	0.113	-0.104	0	0.572958	0.859437	-53.83513368	-81.89288694	16.03136484
6.29	629	-0.987	0.113	-0.105	-0.0572958	0.5156622	0.8021412	-53.84086326	-81.88715736	16.03709442
6.3	630	-0.987	0.115	-0.103	-0.286479	0.572958	0.7448454	-53.33093064	-81.80121366	15.53289138
6.31	631	-0.987	0.117	-0.104	-0.3437748	0.5156622	0.6875496	-53.33666022	-81.7897545	15.53289138
6.32	632	-0.984	0.119	-0.103	-0.3437748	0.3437748	0.6875496	-53.35384896	-81.78402492	15.54435054
6.33	633	-0.985	0.12	-0.103	-0.3437748	0.1718874	0.6875496	-53.3710377	-81.77256576	15.5558097
6.34	634	-0.986	0.12	-0.103	-0.286479	0	0.5156622	-53.39395602	-81.77256576	15.57872802
6.35	635	-0.986	0.119	-0.104	-0.286479	0	0.4583664	-52.66629936	-81.62359668	14.85107136
6.36	636	-0.987	0.12	-0.103	-0.286479	-0.1718874	0.286479	-52.69494726	-81.62359668	14.87971926
6.37	637	-0.987	0.119	-0.102	-0.1718874	-0.0572958	0.286479	-52.712136	-81.62359668	14.89117842
6.38	638	-0.985	0.119	-0.103	-0.1145916	0	0.1145916	-52.71786558	-81.6178671	14.896908
6.39	639	-0.985	0.118	-0.103	-0.1145916	0.0572958	0.1145916	-52.72359516	-81.6178671	14.896908
6.4	640	-0.985	0.117	-0.104	0	-0.0572958	0.0572958	-51.0792057	-81.37149516	13.27543686
6.41	641	-0.987	0.117	-0.102	0	-0.286479	0	-51.09639444	-81.37722474	13.28689602
6.42	642	-0.987	0.116	-0.101	0	-0.3437748	-0.0572958	-51.11358318	-81.37722474	13.30408476
6.43	643	-0.986	0.117	-0.102	0.0572958	-0.4583664	-0.0572958	-51.13077192	-81.38295432	13.32700308
6.44	644	-0.985	0.116	-0.101	0.0572958	-0.5156622	-0.0572958	-51.15369024	-81.38295432	13.3499214
6.45	645	-0.984	0.114	-0.102	0.286479	-0.6302538	0	-50.76980838	-81.34857684	12.97176912
6.46	646	-0.985	0.114	-0.1	0.286479	-0.8021412	-0.0572958	-50.80418586	-81.35430642	13.01187618
6.47	647	-0.987	0.113	-0.1	0.286479	-0.6875496	-0.0572958	-50.83283376	-81.360036	13.04052408
6.48	648	-0.987	0.111	-0.1	0.4010706	-0.4583664	0	-50.85575208	-81.360036	13.06917198
6.49	649	-0.986	0.111	-0.1	0.4010706	-0.286479	0.0572958	-50.86721124	-81.360036	13.08636072
6.5	650	-0.987	0.111	-0.101	0.4583664	-0.3437748	0.1145916	-50.5635435	-81.34284726	12.79415214
6.51	651	-0.987	0.112	-0.1	0.6302538	-0.5156622	0.1718874	-50.5921914	-81.34284726	12.82852962
6.52	652	-0.988	0.113	-0.102	0.7448454	-0.4583664	0.2291832	-50.61510972	-81.34284726	12.8629071
6.53	653	-0.987	0.113	-0.104	0.8021412	-0.1718874	0.286479	-50.63229846	-81.34284726	12.88582542
6.54	654	-0.986	0.113	-0.104	0.7448454	-0.1718874	0.3437748	-50.6494872	-81.34284726	12.90874374
6.55	655	-0.987	0.113	-0.102	0.6875496	-0.4583664	0.4010706	-50.47187022	-81.31992894	12.74258592
6.56	656	-0.988	0.114	-0.1	0.572958	-0.6875496	0.4583664	-50.51770686	-81.31992894	12.79988172
6.57	657	-0.987	0.113	-0.099	0.572958	-0.9740286	0.5156622	-50.58646182	-81.32565852	12.86863668
6.58	658	-0.986	0.112	-0.092	0.4010706	-0.9167328	0.572958	-50.6494872	-81.32565852	12.94312122
6.59	659	-0.99	0.112	-0.089	-0.0572958	-1.0886202	0.4583664	-50.72397174	-81.3313881	13.01760576
6.6	660	-0.994	0.113	-0.091	-0.286479	-1.3750992	0.572958	-50.76980838	-81.3313881	13.0634424
6.61	661	-0.993	0.115	-0.093	-0.5156622	-1.0886202	0.6302538	-50.86148166	-81.3313881	13.14365652
6.62	662	-0.989	0.116	-0.099	-0.5156622	-0.3437748	0.6302538	-50.91304788	-81.3313881	13.18949316
6.63	663	-0.987	0.116	-0.105	0.1145916	0	0.7448454	-50.94169578	-81.32565852	13.22387064
6.64	664	-0.983	0.114	-0.107	0.6302538	0.0572958	0.7448454	-50.95888452	-81.31992894	13.25251854
6.65	665	-0.982	0.113	-0.105	0.7448454	-0.1145916	0.859437	-50.81564502	-81.29128104	13.11500862
6.66	666	-0.983	0.115	-0.102	0.8021412	-0.4010706	0.9740286	-50.87294082	-81.28555146	13.178034
6.67	667	-0.986	0.119	-0.1	0.9740286	-0.6875496	0.9167328	-50.9359662	-81.28555146	13.25251854
6.68	668	-0.989	0.12	-0.1	1.0313244	-0.572958	0.859437	-50.98753242	-81.27982188	13.3212735
6.69	669	-0.989	0.121	-0.1	1.145916	-0.4583664	0.8021412	-51.03336906	-81.27982188	13.3785693
6.7	670	-0.99	0.121	-0.099	1.2032118	-0.3437748	0.6875496	-50.98753242	-81.25690356	13.34419182
6.71	671	-0.989	0.119	-0.101	1.2605076	-0.4583664	0.6302538	-51.02763948	-81.25690356	13.39575804
6.72	672	-0.988	0.119	-0.101	1.0886202	-0.4583664	0.5156622	-51.05628738	-81.25690356	13.44159468
6.73	673	-0.988	0.119	-0.1	1.0313244	-0.3437748	0.4583664	-51.0792057	-81.25117398	13.47597216
6.74	674	-0.987	0.118	-0.1	0.9740286	-0.286479	0.286479	-51.09639444	-81.25117398	13.50462006
6.75	675	-0.985	0.116	-0.099	0.6875496	-0.3437748	0.1718874	-50.88439998	-81.22825566	13.30408476
6.76	676	-0.984	0.115	-0.099	0.572958	-0.5156622	0.1145916	-50.91304788	-81.23398524	13.33273266
6.77	677	-0.984	0.114	-0.1	0.5156622	-0.6875496	0.0572958	-50.94169578	-81.23971482	13.37283972
6.78	678	-0.986	0.114	-0.101	0.6302538	-0.6875496	0.1145916	-50.97607326	-81.23971482	13.41294678
6.79	679	-0.986	0.116	-0.101	0.6875496	-0.6875496	0.0572958	-51.00472116	-81.2454444	13.45305384
6.8	680	-0.988	0.114	-0.103	0.7448454	-0.572958	0.0572958	-50.71251258	-81.2167965	13.16657484
6.81	681	-0.986	0.113	-0.104	0.8021412	-0.3437748	0.0572958	-50.72397174	-81.22252608	13.18949316
6.82	682	-0.986	0.113	-0.102	0.7448454	-0.4010706	0.0572958	-50.74116048	-81.22252608	13.21241148
6.83	683	-0.988	0.112	-0.098	0.4583664	-0.4583664	0.1718874	-50.7640788	-81.22252608	13.24678896
6.84	684	-0.987	0.113	-0.098	0.3437748	-0.5156622	0.2291832	-50.79845628	-81.22825566	13.28116644
6.85	685	-0.987	0.113	-0.098	0.1718874	-0.572958	0.3437748	-50.6494872	-81.22252608	13.13792694
6.86	686	-0.987	0.115	-0.097	0.0572958	-0.5156622	0.3437748	-50.69532384	-81.22252608	13.18376358
6.87	687	-0.987	0.117	-0.096	0.0572958	-0.6302538	0.3437748	-50.74116048	-81.22252608	13.22960022
6.88	688	-0.986	0.116	-0.097	0	-0.6875496	0.286479	-50.78699712	-81.22825566	13.28116644
6.89	689	-0.986	0.114	-0.099	0	-0.5156622	0.286479	-50.82710418	-81.22825566	13.3212735
6.9	690	-0.986	0.115	-0.099	0.0572958	-0.4010706	0.286479	-50.60938014	-81.21106692	13.10354946
6.91	691	-0.988	0.113	-0.098	0	-0.2291832	0.2291832	-50.62656888	-81.21106692	13.12646778
6.92	692	-0.989	0.115	-0.097	0	-0.2291832	0.3437748	-50.65521678	-81.21106692	13.15511568
6.93	693	-0.989	0.115	-0.098	0.0572958	-0.1718874	0.3437748	-50.68386468	-81.21106692	13.18376358
6.94	694	-0.989	0.117	-0.099	0.1145916	-0.3437748	0.4583664	-50.71824216	-81.21106692	13.21814106
6.95	695	-0.989	0.118	-0.099	0.2291832	-0.4583664	0.4010706	-50.60365056	-81.18241902	13.10927904
6.96	696	-0.989	0.118	-0.099	0.286479	-0.4010706	0.3437748	-50.63229846	-81.18241902	13.14365652
6.97	697	-0.989	0.117	-0.098	0.3437748	-0.286479	0.286479	-50.66094636	-81.18241902	13.17230442
6.98	698	-0.989	0.118	-0.098	0.5156622	-0.1145916	0.286479	-50.6781351	-81.18241902	13.19522274
6.99	699	-0.988	0.117	-0.099	0.5156622	0	0.3437748	-50.68386468	-81.18241902	13.2066819
7	700	-0.987	0.116	-0.098	0.4583664	0	0.286479	-50.51197728	-81.1595007	13.04052408
7.01	701	-0.987	0.116	-0.099	0.5156622	0	0.3437748	-50.51770686	-81.1595007	13.05771282
7.02	702	-0.988	0.116	-0.098	0.6302538	0	0.4010706	-50.52343644	-81.15377112	13.06917198
7.03	703	-0.988	0.115	-0.098	0.6302538	0	0.4583664	-50.5348956	-81.14804154	13.08636072
7.04	704	-0.988	0.117	-0.097	0.2291832	0.2291832	0.2291832	-50.5348956	-81.14804154	13.08636072
7.05	705	-0.987	0.117	-0.098	0.0572958	0.2291832	0.1145916	-50.32290114	-81.11366406	12.88009584
7.06	706	-0.987	0.118	-0.099	0.0572958	0.2291832	0.0572958	-50.31144198	-81.11366406	12.87436626
7.07	707	-0.986	0.117	-0.101	0.1145916	0.1145916	0.0572958	-50.3057124	-81.10793448	12.86863668
7.08	708	-0.986	0.116	-0.101	0.1145916	0.1145916	0	-50.3057124	-81.10793448	12.8629071
7.09	709	-0.985	0.115	-0.102	0.2291832	0.0572958	0	-50.29425324	-81.10793448	12.8629071
7.1	710	-0.985	0.114	-0.101	0.3437748	-0.1145916	0	-49.92183054	-81.06782742	12.4904844
7.11	711	-0.986	0.114	-0.101	0.3437748	-0.286479	0	-49.92756012	-81.073557	12.50194356
7.12	712	-0.987	0.114	-0.1	0.286479	-0.2291832	0.0572958	-49.93901928	-81.073557	12.5191323
7.13	713	-0.988	0.113	-0.1	0.286479	-0.0572958	0.0572958	-49.94474886	-81.073557	12.52486188
7.14	714	-0.988	0.114	-0.101	0.2291832	0.1145916	0.0572958	-49.93901928	-81.073557	12.52486188
7.15	715	-0.988	0.116	-0.101	0.1718874	-0.0572958	0	-49.48065288	-80.99907246	12.07795464
7.16	716	-0.987	0.116	-0.102	0.2291832	-0.1145916	0	-49.49211204	-80.99907246	12.08368422
7.17	717	-0.985	0.117	-0.102	0.286479	-0.0572958	0	-49.49211204	-80.99907246	12.0894138
7.18	718	-0.986	0.117	-0.103	0.1718874	0.0572958	0	-49.48638246	-80.99907246	12.08368422
7.19	719	-0.985	0.117	-0.103	0.0572958	0	0	-49.48638246	-80.99907246	12.0894138
7.2	720	-0.985	0.116	-0.1	-0.0572958	-0.3437748	-0.0572958	-49.34314296	-80.9876133	11.9461743
7.21	721	-0.984	0.115	-0.1	-0.1145916	-0.4583664	0	-49.36606128	-80.9876133	11.96336304
7.22	722	-0.983	0.114	-0.098	0	-0.286479	0	-49.37752044	-80.99334288	11.9748222
7.23	723	-0.987	0.112	-0.095	-0.2291832	0	-0.0572958	-49.37752044	-80.99334288	11.9748222
7.24	724	-0.989	0.113	-0.096	-0.6875496	-0.2291832	0	-49.40043876	-80.99334288	11.99201094
7.25	725	-0.989	0.116	-0.094	-1.145916	-0.572958	0	-49.45200498	-81.00480204	12.032118
7.26	726	-0.988	0.118	-0.094	-1.145916	-0.3437748	0.0572958	-49.48065288	-81.00480204	12.04930674
7.27	727	-0.987	0.12	-0.097	-0.6875496	-0.0572958	0.1145916	-49.5035712	-81.00480204	12.0607659
7.28	728	-0.987	0.12	-0.1	-0.286479	0.1145916	0.0572958	-49.5035712	-81.00480204	12.0607659
7.29	729	-0.986	0.117	-0.103	-0.1718874	0	0	-49.5035712	-81.00480204	12.0607659
7.3	730	-0.985	0.116	-0.102	-0.2291832	-0.1718874	0	-49.30876548	-80.9876133	11.86596018
7.31	731	-0.986	0.117	-0.1	-0.0572958	-0.3437748	0.0572958	-49.32595422	-80.9876133	11.88314892
7.32	732	-0.987	0.118	-0.1	0.1145916	-0.3437748	0.1145916	-49.34887254	-80.9876133	11.90606724
7.33	733	-0.989	0.118	-0.1	0.286479	-0.4583664	0.1718874	-49.37179086	-80.9876133	11.93471514
7.34	734	-0.988	0.119	-0.099	0.4583664	-0.4583664	0.1145916	-49.39470918	-80.99334288	11.96336304
7.35	735	-0.989	0.119	-0.099	0.572958	-0.2291832	0.0572958	-49.37752044	-80.98188372	11.9461743
7.36	736	-0.988	0.119	-0.098	0.6302538	-0.2291832	0.0572958	-49.38325002	-80.98188372	11.96336304
7.37	737	-0.988	0.119	-0.098	0.572958	-0.2291832	0	-49.3889796	-80.9876133	11.9748222
7.38	738	-0.988	0.118	-0.098	0.4583664	-0.0572958	-0.1145916	-49.37752044	-80.9876133	11.96909262
7.39	739	-0.987	0.117	-0.096	0.4010706	0	-0.1145916	-49.36606128	-80.9876133	11.96336304
7.4	740	-0.987	0.115	-0.096	0.2291832	0	-0.1145916	-49.25719926	-81.00480204	11.85450102
7.41	741	-0.986	0.115	-0.096	0.1718874	-0.0572958	-0.1145916	-49.25146968	-81.00480204	11.85450102
7.42	742	-0.985	0.113	-0.097	0.1145916	-0.1718874	-0.1145916	-49.25146968	-81.01053162	11.85450102
7.43	743	-0.986	0.113	-0.099	0.2291832	-0.2291832	-0.1145916	-49.25719926	-81.01053162	11.8602306
7.44	744	-0.988	0.114	-0.101	0.2291832	-0.1718874	-0.1145916	-49.25719926	-81.0162612	11.86596018
7.45	745	-0.989	0.114	-0.103	0.4010706	-0.1145916	-0.0572958	-49.0738527	-81.00480204	11.6883432
7.46	746	-0.988	0.114	-0.102	0.3437748	0	-0.0572958	-49.06812312	-81.00480204	11.6883432
7.47	747	-0.988	0.114	-0.1	0.1718874	0.2291832	-0.0572958	-49.05093438	-81.00480204	11.67115446
7.48	748	-0.987	0.114	-0.097	0.0572958	0.1145916	0	-49.0452048	-80.99907246	11.66542488
