TimeStamp(s)	FrameCounter	AccX	AccY	AccZ	GyrX	GyrY	GyrZ	EulerX	EulerY	EulerZ
0.01	1	-0.047	-1.008	0.105	-2.5210152	0.1145916	-0.5156622	94.64120244	-2.50382646	-20.75826834
0.02	2	-0.045	-1.01	0.103	-4.2398892	-0.1145916	-1.0886202	94.5953658	-2.4923673	-20.75826834
0.03	3	-0.043	-1.01	0.1	-4.2398892	-0.6302538	-0.859437	94.55525874	-2.48090814	-20.76399792
0.04	4	-0.039	-1.009	0.097	-4.6409598	-0.859437	-0.6302538	94.5094221	-2.47517856	-20.7697275
0.05	5	-0.036	-1.001	0.096	-4.9274388	-1.0886202	-0.4583664	94.45785588	-2.4637194	-20.78691624
0.06	6	-0.037	-0.996	0.097	-4.9847346	-1.2032118	-0.4583664	94.40628966	-2.45798982	-20.7983754
0.07	7	-0.039	-0.995	0.096	-5.0420304	-1.2605076	-0.572958	94.35472344	-2.45226024	-20.80983456
0.08	8	-0.043	-0.998	0.095	-5.0993262	-1.3178034	-0.9167328	94.30315722	-2.44080108	-20.82129372
0.09	9	-0.046	-0.997	0.094	-5.2139178	-1.4896908	-0.9167328	94.251591	-2.42934192	-20.83848246
0.1	10	-0.049	-0.998	0.093	-5.2712136	-1.5469866	-1.0313244	94.20002478	-2.41788276	-20.84994162
0.11	11	-0.05	-0.998	0.093	-5.2139178	-1.6042824	-1.0886202	94.14845856	-2.4064236	-20.86713036
0.12	12	-0.047	-1	0.092	-5.156622	-1.3750992	-1.0886202	94.09689234	-2.39496444	-20.8843191
0.13	13	-0.046	-1	0.092	-5.2139178	-1.432395	-1.0886202	94.03959654	-2.38350528	-20.89577826
0.14	14	-0.045	-1.002	0.093	-5.3285094	-1.5469866	-1.0886202	93.98803032	-2.37204612	-20.912967
0.15	15	-0.045	-1.003	0.092	-5.5003968	-1.4896908	-0.9740286	93.93073452	-2.36058696	-20.93015574
0.16	16	-0.045	-0.998	0.091	-5.6722842	-1.5469866	-1.145916	93.8791683	-2.3491278	-20.9416149
0.17	17	-0.045	-0.995	0.092	-5.6722842	-1.2605076	-1.3178034	93.8218725	-2.33193906	-20.95307406
0.18	18	-0.047	-0.992	0.093	-5.3858052	-1.0313244	-1.4896908	93.7645767	-2.31475032	-20.96453322
0.19	19	-0.05	-0.988	0.092	-5.2712136	-0.9740286	-1.718874	93.71301048	-2.29756158	-20.97599238
0.2	20	-0.055	-0.981	0.094	-5.0993262	-0.9740286	-2.005353	93.66144426	-2.28037284	-20.98172196
0.21	21	-0.059	-0.972	0.096	-4.9274388	-0.859437	-2.291832	93.61560762	-2.25745452	-20.99318112
0.22	22	-0.063	-0.96	0.11	-4.4117766	0.3437748	-2.578311	93.56977098	-2.2345362	-20.98745154
0.23	23	-0.066	-0.955	0.118	-3.0366774	3.437748	-2.6929026	93.5353935	-2.21161788	-20.95307406
0.24	24	-0.064	-0.958	0.119	-2.0626488	7.3338624	-2.578311	93.51247518	-2.19442914	-20.87858952
0.25	25	-0.063	-0.958	0.118	-2.2345362	10.1413566	-2.2345362	93.48955686	-2.18296998	-20.77545708
0.26	26	-0.052	-0.958	0.1	-2.9220858	11.1153852	-1.6615782	93.4494498	-2.1772404	-20.66086548
0.27	27	-0.038	-0.952	0.084	-4.010706	9.9121734	-1.3750992	93.40361316	-2.17151082	-20.56346262
0.28	28	-0.029	-0.945	0.08	-4.4690724	7.448454	-1.3750992	93.35777652	-2.16578124	-20.48897808
0.29	29	-0.027	-0.941	0.077	-3.7815228	4.7555514	-1.5469866	93.31766946	-2.15432208	-20.44314144
0.3	30	-0.035	-0.942	0.084	-2.291832	2.005353	-2.1199446	93.29475114	-2.13140376	-20.42022312
0.31	31	-0.045	-0.946	0.092	-0.0572958	0	-2.9793816	93.29475114	-2.10275586	-20.42022312
0.32	32	-0.057	-0.951	0.1	2.1199446	-1.0313244	-3.8961144	93.31766946	-2.0626488	-20.4259527
0.33	33	-0.064	-0.956	0.106	3.9534102	-0.859437	-5.0420304	93.35777652	-2.01108258	-20.43168228
0.34	34	-0.067	-0.959	0.111	5.9014674	0.1145916	-6.0733548	93.4208019	-1.95378678	-20.4259527
0.35	35	-0.068	-0.96	0.118	7.9068204	1.8334656	-6.9327918	93.5067456	-1.8907614	-20.40303438
0.36	36	-0.067	-0.955	0.127	10.313244	4.0680018	-7.6203414	93.60987804	-1.81627686	-20.35719774
0.37	37	-0.068	-0.952	0.146	13.0061466	6.875496	-8.021412	93.7359288	-1.74179232	-20.2827132
0.38	38	-0.069	-0.948	0.168	15.1260912	9.9694692	-8.2505952	93.88489788	-1.66730778	-20.17385118
0.39	39	-0.063	-0.945	0.188	16.615782	13.0634424	-8.307891	94.0510557	-1.59855282	-20.03634126
0.4	40	-0.057	-0.946	0.206	17.2460358	15.2406828	-7.9641162	94.22867268	-1.53552744	-19.8816426
0.41	41	-0.053	-0.953	0.219	17.0168526	16.615782	-7.5057498	94.3948305	-1.47250206	-19.7097552
0.42	42	-0.046	-0.958	0.227	16.042824	18.7357266	-7.1046792	94.54952916	-1.42093584	-19.51494948
0.43	43	-0.033	-0.962	0.234	14.4958374	20.7983754	-6.5317212	94.68703908	-1.38082878	-19.30295502
0.44	44	-0.019	-0.966	0.242	12.3758928	22.6891368	-5.9014674	94.80736026	-1.3464513	-19.07377182
0.45	45	-0.015	-0.965	0.251	9.453807	24.1215318	-5.3285094	94.90476312	-1.3178034	-18.83312946
0.46	46	-0.016	-0.966	0.25	6.3598338	24.8663772	-4.583664	94.96205892	-1.30061466	-18.58102794
0.47	47	-0.021	-0.964	0.248	2.7501984	24.8090814	-3.8961144	94.97924766	-1.2891555	-18.334656
0.48	48	-0.028	-0.969	0.243	-1.0313244	25.3247436	-3.3804522	94.96205892	-1.28342592	-18.08255448
0.49	49	-0.032	-0.98	0.236	-4.3544808	26.9863218	-2.9793816	94.90476312	-1.28342592	-17.8189938
0.5	50	-0.034	-1.007	0.242	-7.3911582	29.507337	-2.86479	94.83027858	-1.2891555	-17.52678522
0.51	51	-0.034	-1.032	0.252	-9.6829902	32.2575354	-3.437748	94.72141656	-1.2891555	-17.20592874
0.52	52	-0.032	-1.041	0.252	-10.4278356	35.2942128	-4.3544808	94.60109538	-1.28342592	-16.85642436
0.53	53	-0.025	-1.036	0.242	-10.5424272	37.7006364	-4.9847346	94.4807742	-1.27769634	-16.48400166
0.54	54	-0.011	-1.02	0.226	-10.1413566	38.7319608	-5.2139178	94.3661826	-1.26623718	-16.1001198
0.55	55	-0.005	-1.005	0.223	-9.3965112	38.7319608	-5.443101	94.26305016	-1.24904844	-15.71623794
0.56	56	0.005	-0.999	0.229	-8.1932994	37.528749	-6.4744254	94.1656473	-1.22613012	-15.34381524
0.57	57	0.013	-1.004	0.245	-6.589017	34.6066632	-8.021412	94.08543318	-1.18029348	-14.99431086
0.58	58	0.006	-1.026	0.274	-6.302538	29.1062664	-9.9121734	94.01094864	-1.11153852	-14.70210228
0.59	59	-0.011	-1.047	0.302	-7.5630456	24.6944898	-11.8029348	93.93073452	-1.01413566	-14.45573034
0.6	60	-0.031	-1.068	0.327	-9.167328	22.9756158	-13.5218088	93.83906124	-0.90527364	-14.22081756
0.61	61	-0.041	-1.092	0.354	-12.8342592	22.0015872	-14.610429	93.70155132	-0.77922288	-13.99163436
0.62	62	-0.052	-1.11	0.377	-17.7044022	22.8610242	-14.9542038	93.51820476	-0.65317212	-13.76245116
0.63	63	-0.048	-1.117	0.391	-20.3973048	23.204799	-13.8082878	93.3062103	-0.53858052	-13.52753838
0.64	64	-0.042	-1.136	0.395	-21.6578124	20.9702628	-11.5737516	93.0770271	-0.44117766	-13.31554392
0.65	65	-0.038	-1.148	0.373	-24.1788276	21.199446	-9.6829902	92.84211432	-0.36669312	-13.10354946
0.66	66	-0.011	-1.153	0.361	-27.3300966	21.772404	-8.6516658	92.55563532	-0.29793816	-12.88582542
0.67	67	0.01	-1.166	0.339	-31.7418732	21.6578124	-8.4224826	92.22904926	-0.2291832	-12.67383096
0.68	68	0.034	-1.173	0.309	-36.955791	22.1734746	-8.9954406	91.85089698	-0.16042824	-12.45610692
0.69	69	0.065	-1.164	0.281	-40.7373138	22.6891368	-9.6256944	91.43263764	-0.08021412	-12.2326533
0.7	70	0.091	-1.141	0.26	-41.0810886	21.199446	-9.2819196	91.02010788	0	-12.02638842
0.71	71	0.103	-1.14	0.243	-40.7373138	18.6784308	-9.1100322	90.60757812	0.08021412	-11.84877144
0.72	72	0.116	-1.147	0.227	-43.4875122	18.5638392	-10.313244	90.16067088	0.1718874	-11.66542488
0.73	73	0.122	-1.146	0.222	-46.696077	20.626488	-12.7769634	89.68511574	0.29220858	-11.47061916
0.74	74	0.122	-1.136	0.214	-46.5241896	24.1788276	-14.6677248	89.2095606	0.4297185	-11.23570638
0.75	75	0.119	-1.135	0.197	-45.4928652	27.5592798	-15.5271618	88.75692378	0.57868758	-10.9721457
0.76	76	0.109	-1.138	0.172	-45.6074568	31.3408026	-15.2406828	88.2928278	0.72765666	-10.66847796
0.77	77	0.1	-1.125	0.15	-44.690724	34.8931422	-13.9801752	87.8344614	0.86516658	-10.33616232
0.78	78	0.095	-1.093	0.131	-40.7946096	35.809875	-12.4904844	87.42193164	0.99121734	-9.99238752
0.79	79	0.095	-1.05	0.111	-32.7159018	34.7785506	-10.026765	87.089616	1.09434978	-9.6543423
0.8	80	0.079	-1.019	0.115	-21.199446	31.51269	-5.72958	86.8890807	1.16310474	-9.35067456
0.81	81	0.039	-0.998	0.16	-9.5111028	26.2987722	0.286479	86.79740742	1.16310474	-9.08711388
0.82	82	0.016	-0.974	0.217	1.5469866	21.1421502	7.3338624	86.81459616	1.09434978	-8.87511942
0.83	83	0.039	-0.937	0.253	11.2299768	16.1574156	13.9801752	86.92918776	0.96256944	-8.7089616
0.84	84	0.087	-0.886	0.216	18.2773602	10.026765	19.767051	87.11253432	0.7734933	-8.59437
0.85	85	0.14	-0.812	0.144	23.3766864	2.005353	24.5798982	87.35890626	0.53858052	-8.5657221
0.86	86	0.181	-0.715	0.101	25.9549974	-9.0527364	28.4187168	87.62819652	0.2578311	-8.64020664
0.87	87	0.186	-0.616	0.119	24.2361234	-19.480572	30.1375908	87.87456846	-0.03437748	-8.8235532
0.88	88	0.158	-0.502	0.133	17.8189938	-27.8457588	30.080295	88.0636446	-0.33231564	-9.08711388
0.89	89	0.137	-0.391	0.11	13.750992	-34.2055926	29.6792244	88.2068841	-0.6302538	-9.41369994
0.9	90	0.132	-0.309	0.035	13.0061466	-39.247623	28.5906042	88.3501236	-0.91100322	-9.79185222
0.91	91	0.138	-0.262	-0.037	9.167328	-41.3675676	25.78311	88.45898562	-1.16310474	-10.19292282
0.92	92	0.143	-0.248	-0.126	4.0680018	-42.112413	20.2827132	88.51628142	-1.36364004	-10.60545258
0.93	93	0.113	-0.299	-0.241	-1.3178034	-39.247623	11.1153852	88.51628142	-1.47250206	-10.98933444
0.94	94	0.06	-0.45	-0.359	-10.1986524	-28.7051958	-0.6302538	88.42460814	-1.46677248	-11.27581344
0.95	95	-0.072	-0.651	-0.396	-22.058883	-7.8495246	-15.1260912	88.17250662	-1.32926256	-11.35602756
0.96	96	-0.266	-0.965	-0.343	-29.8511118	12.2613012	-32.3148312	87.86883888	-1.01413566	-11.24716554
0.97	97	-0.454	-1.159	-0.146	-27.9030546	17.0741484	-42.398892	87.5766303	-0.59014674	-11.09819646
0.98	98	-0.507	-1.2	0.12	-18.8503182	4.297185	-36.6120162	87.38755416	-0.2291832	-11.07527814
0.99	99	-0.373	-1.137	0.205	-21.7151082	-2.578311	-23.0329116	87.16410054	0	-11.10965562
1	100	-0.178	-1.063	0.143	-19.2513888	0.2291832	-9.5683986	86.99221314	0.06302538	-11.10965562
1.01	101	-0.039	-1.068	0.162	-11.45916	10.8289062	0.1718874	86.87762154	0.06302538	-11.00652318
1.02	102	0.066	-1.26	0.209	-11.0007936	22.1734746	2.1772404	86.76302994	0.05156622	-10.78306956
1.03	103	0.138	-1.534	0.254	-13.2353298	35.0077338	-5.72958	86.61979044	0.1145916	-10.44502434
1.04	104	0.112	-1.667	0.29	-6.0733548	42.3415962	-15.0687954	86.55676506	0.27501984	-10.03249458
1.05	105	-0.015	-1.643	0.3	2.8074942	43.4302164	-18.8503182	86.58541296	0.47555514	-9.61423524
1.06	106	-0.1	-1.573	0.288	6.302538	39.534102	-15.9282324	86.64843834	0.64744254	-9.23608296
1.07	107	-0.081	-1.555	0.308	5.5576926	32.945085	-10.0840608	86.70573414	0.76203414	-8.91522648
1.08	108	-0.036	-1.623	0.347	2.6356068	26.2987722	-5.9587632	86.72865246	0.82505952	-8.65739538
1.09	109	0.008	-1.721	0.396	0.3437748	18.1054728	-3.0939732	86.73438204	0.86516658	-8.4797784
1.1	110	0.055	-1.786	0.434	0.1718874	10.4278356	-0.2291832	86.74011162	0.87089616	-8.37664596
1.11	111	0.107	-1.795	0.452	3.151269	2.8074942	5.3858052	86.76875952	0.81360036	-8.34226848
1.12	112	0.164	-1.73	0.442	6.9327918	0.286479	10.886202	86.84324406	0.71046792	-8.33080932
1.13	113	0.213	-1.633	0.425	10.1986524	-3.3231564	15.1260912	86.9463765	0.55576926	-8.35945722
1.14	114	0.223	-1.532	0.43	11.9175264	-9.7975818	17.7044022	87.06669768	0.38388186	-8.44540092
1.15	115	0.207	-1.446	0.39	12.6623718	-16.5584862	20.1108258	87.2042076	0.18334656	-8.60009958
1.16	116	0.163	-1.37	0.32	11.8029348	-25.5539268	22.1734746	87.33025836	-0.03437748	-8.84074194
1.17	117	0.084	-1.302	0.245	11.745639	-34.7785506	23.3766864	87.45630912	-0.27501984	-9.17305758
1.18	118	-0.034	-1.206	0.174	14.037471	-42.0551172	23.491278	87.6052782	-0.50993262	-9.57985776
1.19	119	-0.165	-1.106	0.155	23.3193906	-47.8992888	23.2620948	87.85737972	-0.7448454	-10.03822416
1.2	120	-0.308	-0.996	0.156	34.3201842	-50.1911208	23.204799	88.22407284	-0.99121734	-10.52523846
1.21	121	-0.42	-0.894	0.169	44.2323576	-50.0765292	22.5172494	88.68816882	-1.20894138	-11.00652318
1.22	122	-0.515	-0.781	0.148	53.1705024	-45.8939358	21.1421502	89.24393808	-1.40947668	-11.45343042
1.23	123	-0.54	-0.685	0.124	60.3324774	-36.2682414	18.8503182	89.87419188	-1.58709366	-11.8029348
1.24	124	-0.438	-0.655	0.105	62.9680842	-25.8404058	14.1520626	90.52163442	-1.71314442	-12.05503632
1.25	125	-0.289	-0.583	0.052	62.0513514	-19.8243468	7.3911582	91.16334738	-1.78189938	-12.23838288
1.26	126	-0.13	-0.504	-0.014	60.6189564	-15.6990492	-2.1772404	91.78214202	-1.7475219	-12.38735196
1.27	127	0.029	-0.432	-0.068	55.4050386	-12.4904844	-14.7823164	92.34937044	-1.59282324	-12.50194356
1.28	128	0.127	-0.304	-0.119	52.1964738	-16.7303736	-25.2674478	92.88795096	-1.32353298	-12.64518306
1.29	129	0.153	-0.179	-0.148	51.279741	-23.6631654	-31.51269	93.41507232	-0.98548776	-12.85717752
1.3	130	0.151	-0.1	-0.175	46.2377106	-27.8457588	-32.3148312	93.88489788	-0.63598338	-13.10354946
1.31	131	0.13	-0.014	-0.176	37.9298196	-22.058883	-29.1062664	94.26877974	-0.32085648	-13.2926256
1.32	132	0.124	0.035	-0.18	25.9549974	-12.2040054	-22.91832	94.53807	-0.08021412	-13.39575804
1.33	133	0.071	0.033	-0.197	12.5477802	-8.2505952	-14.0947668	94.66412076	0.06302538	-13.464513
1.34	134	0.015	-0.087	-0.212	-1.5469866	-5.72958	-4.3544808	94.6526616	0.1145916	-13.51607922
1.35	135	-0.027	-0.265	-0.272	-22.0015872	-6.1879464	5.3285094	94.41201924	0.06302538	-13.58483418
1.36	136	-0.025	-0.462	-0.304	-30.080295	-8.4797784	11.5164558	94.1083515	-0.04010706	-13.67650746
1.37	137	-0.024	-0.709	-0.333	-33.9764094	-9.0527364	17.0168526	93.7645767	-0.2005353	-13.78536948
1.38	138	-0.036	-1.01	-0.261	-35.809875	-15.2979786	22.8037284	93.40361316	-0.41825934	-13.9515273
1.39	139	-0.056	-1.333	-0.146	-38.5027776	-25.1528562	29.0489706	93.0197313	-0.6875496	-14.22654714
1.4	140	-0.113	-1.616	-0.053	-42.9145542	-34.37748	33.804522	92.59574238	-1.0026765	-14.58751068
1.41	141	-0.198	-1.64	0.07	-48.7587258	-45.4355694	34.950438	92.11445766	-1.3178034	-15.05733624
1.42	142	-0.249	-1.312	0.146	-45.7220484	-53.1705024	32.2575354	91.67328	-1.61001198	-15.59591676
1.43	143	-0.273	-1.125	0.141	-22.4599536	-57.9833496	24.8663772	91.4727447	-1.82773602	-16.18033392
1.44	144	-0.279	-1.183	0.159	-9.5111028	-52.9413192	16.1001198	91.39826016	-1.95951636	-16.70745528
1.45	145	-0.194	-1.357	0.229	-6.9900876	-45.7793442	10.599723	91.35242352	-2.04546006	-17.16582168
1.46	146	-0.064	-1.507	0.307	-8.8235532	-35.4661002	8.8235532	91.28366856	-2.11421502	-17.51532606
1.47	147	0.036	-1.592	0.368	-7.1046792	-22.91832	6.7609044	91.22064318	-2.17151082	-17.74450926
1.48	148	0.051	-1.658	0.403	-6.2452422	-12.891555	3.5523396	91.16334738	-2.20015872	-17.8762896
1.49	149	-0.037	-1.7	0.425	-9.8548776	-7.5057498	0	91.06594452	-2.20015872	-17.95077414
1.5	150	-0.151	-1.705	0.498	-7.8495246	-5.0420304	-3.8388186	90.99145998	-2.16005166	-18.00234036
1.51	151	-0.211	-1.703	0.581	4.6409598	-3.0939732	-8.7089616	91.0430262	-2.07410796	-18.03098826
1.52	152	-0.238	-1.658	0.625	13.464513	2.6356068	-12.2040054	91.18053612	-1.95378678	-17.99661078
1.53	153	-0.229	-1.595	0.619	21.5432208	11.745639	-14.5531332	91.39253058	-1.81054728	-17.8762896
1.54	154	-0.213	-1.529	0.597	28.7624916	22.631841	-15.756345	91.67328	-1.6615782	-17.6471064
1.55	155	-0.175	-1.447	0.572	32.6013102	28.6479	-15.5844576	91.99986606	-1.52406828	-17.35489782
1.56	156	-0.125	-1.354	0.507	34.1482968	35.4661002	-13.9801752	92.3321817	-1.4037471	-16.99393428
1.57	157	-0.082	-1.288	0.427	33.4607472	43.258329	-8.6516658	92.65303818	-1.3464513	-16.5584862
1.58	158	0.005	-1.225	0.348	28.2468294	48.6441342	-2.3491278	92.92232844	-1.35791046	-16.0714719
1.59	159	0.084	-1.159	0.276	29.1062664	51.9099948	5.2712136	93.19734828	-1.44958374	-15.56153928
1.6	160	0.205	-1.157	0.129	36.0390582	48.5295426	14.2093584	93.54685266	-1.62147114	-15.09171372
1.61	161	0.337	-1.103	0.044	36.382833	34.5493674	21.9442914	93.90208662	-1.86784308	-14.75939808
1.62	162	0.436	-1.026	0.017	36.6120162	14.2093584	27.0436176	94.26877974	-2.1485925	-14.63334732
1.63	163	0.497	-0.95	-0.086	38.3308902	-9.6256944	31.9137606	94.66412076	-2.45226024	-14.7536685
1.64	164	0.499	-0.852	-0.054	28.9916748	-24.2934192	40.5081306	94.97351808	-2.82468294	-15.02295876
1.65	165	0.486	-0.648	0.022	8.2505952	-21.199446	44.690724	95.07092094	-3.2085648	-15.27506028
1.66	166	0.413	-0.376	-0.018	1.0313244	-2.1772404	45.4928652	95.08810968	-3.65547204	-15.33808566
1.67	167	0.239	-0.139	-0.264	25.8977016	16.1574156	38.9038482	95.3402112	-4.05654264	-15.2120349
1.68	168	0.108	-0.045	-0.391	25.8404058	7.8495246	23.491278	95.5980423	-4.297185	-15.1547391
1.69	169	-0.048	-0.03	-0.432	20.912967	-18.2200644	11.0007936	95.8272255	-4.3831287	-15.34381524
1.7	170	-0.11	-0.053	-0.397	19.5951636	-45.3209778	4.010706	96.05067912	-4.36593996	-15.79072248
1.71	171	-0.086	-0.115	-0.281	12.6623718	-59.874111	1.3750992	96.23402568	-4.297185	-16.37513964
1.72	172	-0.029	-0.201	-0.283	-0.1145916	-60.1032942	-0.0572958	96.2855919	-4.21697088	-16.96528638
1.73	173	0.059	-0.38	-0.368	-10.5424272	-58.8427866	0.8021412	96.2282961	-4.14821592	-17.54970354
1.74	174	0.144	-0.61	-0.333	-21.3713334	-56.9520252	2.578311	96.0564087	-4.0966497	-18.11120238
1.75	175	0.277	-0.869	-0.174	-26.0122932	-53.6861646	-1.145916	95.82149592	-3.99351726	-18.64405332
1.76	176	0.43	-1.159	-0.09	-22.8610242	-56.0352924	-8.8235532	95.63814936	-3.8388186	-19.18836342
1.77	177	0.447	-1.292	0.045	-21.485925	-57.4103916	-17.0741484	95.46053238	-3.59817624	-19.7384031
1.78	178	0.357	-1.207	0.058	-21.9442914	-62.3951262	-24.5798982	95.2829154	-3.28304934	-20.33427942
1.79	179	0.251	-0.968	-0.003	-13.0634424	-72.0781164	-30.080295	95.1969717	-2.90489706	-21.01609944
1.8	180	0.153	-0.775	0.004	10.2559482	-85.1415588	-30.5386614	95.34594078	-2.4923673	-21.82397022
1.81	181	0	-0.72	0.022	29.6219286	-90.9284346	-27.1009134	95.69544516	-2.11421502	-22.68340722
1.82	182	-0.134	-0.716	0.08	38.7319608	-90.6419556	-19.1367972	96.12516366	-1.8048177	-23.5485738
1.83	183	-0.269	-0.7	0.119	36.8984952	-86.1155874	-10.7143146	96.53769342	-1.5756345	-24.3793629
1.84	184	-0.377	-0.652	0.135	35.0650296	-80.6151906	-5.0993262	96.92730486	-1.40947668	-25.15858578
1.85	185	-0.452	-0.598	0.176	36.2682414	-75.630456	-1.432395	97.32264588	-1.30061466	-25.88624244
1.86	186	-0.417	-0.576	0.163	38.5027776	-76.489893	0.286479	97.74090522	-1.18029348	-26.62535826
1.87	187	-0.241	-0.615	0.23	38.9038482	-75.9742308	1.718874	98.15916456	-1.07143146	-27.36447408
1.88	188	0	-0.74	0.215	38.5027776	-69.8435802	2.7501984	98.57169432	-0.97975818	-28.0462941
1.89	189	0.103	-0.879	0.163	38.4454818	-60.9054354	1.3178034	98.98422408	-0.88235532	-28.63644084
1.9	190	-0.016	-0.963	0.11	37.6433406	-48.414951	-3.6669312	99.37383552	-0.75630456	-29.09480724
1.91	191	-0.34	-0.971	0.113	39.7059894	-28.2468294	-5.0993262	99.7806357	-0.64744254	-29.35263834
1.92	192	-0.581	-0.921	0.149	40.966497	-18.4492476	2.1199446	100.2046246	-0.6302538	-29.53025532
1.93	193	-0.708	-0.873	0.137	43.7739912	-11.2872726	12.8342592	100.6515319	-0.72765666	-29.66203566
1.94	194	-0.73	-0.813	0.075	48.2430636	-2.4637194	19.767051	101.1442757	-0.9167328	-29.71360188
1.95	195	-0.665	-0.743	0.195	52.5402486	5.9014674	19.3659804	101.6828563	-1.15164558	-29.6792244
1.96	196	-0.514	-0.662	0.411	56.0925882	18.1627686	11.0007936	102.2500847	-1.30061466	-29.52452574
1.97	197	-0.326	-0.531	0.253	46.982556	37.7579322	-1.2032118	102.7084511	-1.3750992	-29.15210304
1.98	198	-0.156	-0.411	-0.012	30.1948866	46.0085274	-15.1260912	103.0006597	-1.34072172	-28.67081832
1.99	199	-0.065	-0.498	-0.079	7.3911582	34.8358464	-26.5279554	103.0579555	-1.1745639	-28.28120688
2	200	0.015	-0.646	-0.134	-19.4232762	18.1054728	-30.5959572	102.8345018	-0.9167328	-28.04056452
2.01	201	0.196	-0.758	-0.157	-50.1911208	4.6982556	-23.491278	102.3245692	-0.70473834	-27.94889124
2.02	202	0.385	-0.837	-0.176	-74.3126526	-3.4950438	-7.5057498	101.5682647	-0.62452422	-27.97753914
2.03	203	0.483	-0.853	-0.068	-92.0170548	-10.5424272	8.5370742	100.6400727	-0.69327918	-28.10931948
2.04	204	0.503	-0.79	-0.003	-105.424272	-17.9908812	17.4179232	99.57437082	-0.8307891	-28.32704352
2.05	205	0.438	-0.716	0.033	-112.1278806	-28.074942	17.3033316	98.44564356	-0.9453807	-28.64217042
2.06	206	0.333	-0.723	0.04	-120.8368422	-38.7892566	12.6623718	97.2309726	-1.01413566	-29.05470018
2.07	207	0.256	-0.775	0.051	-131.0927904	-47.3836266	4.870143	95.9131692	-1.0026765	-29.54171448
2.08	208	0.192	-0.897	-0.012	-133.6138056	-50.3630082	-1.718874	94.57244748	-0.93392154	-30.0516471
2.09	209	0.149	-1.013	-0.089	-136.5358914	-50.9359662	-4.870143	93.20307786	-0.84797784	-30.5673093
2.1	210	0.113	-1.064	-0.056	-146.5626564	-52.998615	-5.8441716	91.7305758	-0.76203414	-31.10588982
2.11	211	0.046	-0.982	0.046	-161.6887476	-50.2484166	-5.0993262	90.10337508	-0.70473834	-31.61582244
2.12	212	-0.035	-0.848	0.023	-168.1058772	-35.9817624	-5.2139178	88.40168982	-0.6589017	-31.99397472
2.13	213	-0.126	-0.845	0.068	-176.0699934	-12.3758928	-3.5523396	86.61979044	-0.64171296	-32.13721422
2.14	214	-0.268	-0.875	0.079	-187.7010408	18.334656	-0.4010706	84.7118403	-0.64171296	-31.97678598
2.15	215	-0.371	-1.032	-0.045	-198.3007638	35.8671708	1.6615782	82.68929856	-0.65317212	-31.63874076
2.16	216	-0.453	-1.334	-0.171	-215.5467996	58.2698286	0.859437	80.48913984	-0.61306506	-31.08870108
2.17	217	-0.608	-1.9	-0.246	-224.2557612	75.0002022	-5.6722842	78.19730784	-0.46409598	-30.38969232
2.18	218	-0.763	-2.601	-0.396	-240.0121062	86.6885454	-17.9908812	75.7450476	-0.1432395	-29.61046944
2.19	219	-0.768	-3.093	-0.47	-262.987722	101.8719324	-22.058883	73.06360416	0.27501984	-28.71665496
2.2	220	-0.589	-3.124	-0.496	-283.4423226	111.2111478	-11.5737516	70.18162542	0.67036086	-27.72543762
2.21	221	-0.333	-2.959	-0.581	-291.635622	123.9308154	3.2658606	67.21943256	1.01986524	-26.57952162
2.22	222	-0.078	-2.961	-0.694	-303.3239652	134.9889048	8.9381448	64.14837768	1.41520626	-25.33620276
2.23	223	-0.007	-2.811	-0.415	-300.4018794	125.5350978	4.6982556	61.11742986	1.87930224	-24.21320508
2.24	224	0.052	-2.519	-0.1	-299.5424424	116.1958824	-5.156622	58.0979412	2.4350715	-23.25063564
2.25	225	0.231	-2.223	0.184	-308.251404	101.127087	-15.2979786	54.99250884	3.04813656	-22.50006066
2.26	226	0.415	-1.911	0.359	-308.1368124	78.9536124	-23.3193906	51.88707648	3.64401288	-22.01304636
2.27	227	0.556	-1.622	0.448	-303.7250358	61.9940556	-32.085648	48.81029202	4.22270046	-21.7437561
2.28	228	0.652	-1.338	0.58	-293.2399044	48.6441342	-43.6593996	45.83091042	4.81857678	-21.68073072
2.29	229	0.681	-1.149	0.649	-276.165756	35.1223254	-55.003968	43.01195706	5.40299394	-21.82397022
2.3	230	0.58	-0.838	0.651	-265.7952162	24.0069402	-61.0773228	40.29613614	5.95303362	-22.12190838
2.31	231	0.416	-0.501	0.622	-258.0029874	12.4331886	-55.9779966	37.63761102	6.3598338	-22.47714234
2.32	232	0.146	-0.169	0.512	-247.4605602	0.8021412	-42.1697088	35.08794792	6.58328742	-22.80945798
2.33	233	-0.103	0.075	0.387	-231.4177362	-9.6256944	-25.7258142	32.71017222	6.6176649	-23.07874824
2.34	234	-0.413	0.265	0.416	-208.3848246	-15.5271618	-9.5111028	30.57876846	6.50880288	-23.24490606
2.35	235	-0.603	0.48	0.493	-182.8308978	-12.7769634	6.8182002	28.71665496	6.32545632	-23.24490606
2.36	236	-0.671	0.602	0.437	-158.422887	-7.5057498	21.1421502	27.12383172	6.13638018	-23.0902074
2.37	237	-0.647	0.675	0.372	-141.6352176	1.6615782	29.9084076	25.71435504	5.99887026	-22.81518756
2.38	238	-0.593	0.715	0.33	-129.7176912	10.7716104	32.7159018	24.4366587	5.94157446	-22.46568318
2.39	239	-0.593	0.781	0.06	-111.3830352	16.5011904	29.7365202	23.33657934	5.95303362	-22.12190838
2.4	240	-0.613	0.829	-0.298	-98.7779592	10.7716104	25.1528562	22.32817326	5.91292656	-21.84115896
2.41	241	-0.558	0.95	-0.567	-81.8184024	-1.432395	23.3193906	21.52030248	5.80406454	-21.6291645
2.42	242	-0.458	1.107	-0.757	-66.463128	-8.7662574	22.7464326	20.86713036	5.63217714	-21.45154752
2.43	243	-0.235	1.128	-0.944	-48.8160216	-16.4438946	22.91832	20.38584564	5.39153478	-21.29684886
2.44	244	-0.016	0.972	-1.193	-35.7525792	-24.1215318	22.1734746	20.03634126	5.08786704	-21.17652768
2.45	245	0.073	0.832	-1.426	-21.0275586	-19.4232762	21.6578124	19.83007638	4.83576552	-21.04474734
2.46	246	0.142	0.734	-1.72	12.2040054	2.1772404	22.058883	19.9675863	4.77846972	-20.83275288
2.47	247	0.286	0.597	-1.837	49.9619376	19.5378678	25.78311	20.50043724	4.87587258	-20.51762598
2.48	248	0.378	0.502	-1.666	50.420304	14.32395	25.6112226	21.03901776	4.9274388	-20.2254174
2.49	249	0.503	0.406	-1.511	35.7525792	11.9175264	26.642547	21.42289962	4.94462754	-19.9389384
2.5	250	0.545	0.292	-1.377	7.8495246	17.5898106	27.5592798	21.5145729	5.0133825	-19.61808192
2.51	251	0.497	0.136	-1.176	-13.2353298	20.1681216	33.4034514	21.41144046	5.0706783	-19.22847048
2.52	252	0.453	0.038	-0.926	-19.0222056	18.4492476	36.8411994	21.25101222	5.10505578	-18.81594072
2.53	253	0.394	-0.05	-0.66	-11.5737516	15.0114996	42.5707794	21.17652768	5.08213746	-18.35757432
2.54	254	0.335	-0.05	-0.548	2.6356068	3.6669312	44.8626114	21.23955306	4.9560867	-17.92785582
2.55	255	0.365	-0.07	-0.603	18.621135	-25.4393352	41.825934	21.44581794	4.59512316	-17.64137682
2.56	256	0.388	-0.027	-0.645	17.2460358	-46.6387812	35.8671708	21.64062366	4.0393539	-17.49240774
2.57	257	0.52	0.125	-0.727	13.0061466	-58.728195	26.5852512	21.78386316	3.4091001	-17.48094858
2.58	258	0.583	0.241	-0.886	8.021412	-72.7083702	15.2979786	21.86407728	2.6929026	-17.62418808
2.59	259	0.498	0.34	-1.005	2.9220858	-88.2928278	4.2398892	21.89845476	1.87930224	-17.9335854
2.6	260	0.331	0.282	-1.078	-12.4331886	-90.7565472	-3.3231564	21.74948568	1.07143146	-18.32319684
2.61	261	-0.062	0.158	-1.52	-51.6808116	-66.3485364	-8.6516658	21.2280939	0.49274388	-18.66124206
2.62	262	-0.35	-0.086	-2.181	-94.6526616	-29.3354496	-17.0741484	20.27125404	0.27501984	-18.92480274
2.63	263	-0.33	-0.337	-2.809	-139.9736394	-4.9847346	-30.4240698	18.8503182	0.30939732	-19.2227409
2.64	264	-0.202	-0.356	-3.515	-150.8598414	4.5263682	-41.7113424	17.31479076	0.46409598	-19.5951636
2.65	265	0.172	0.042	-3.961	-105.8253426	5.5576926	-34.0337052	16.23190014	0.6016059	-19.89310176
2.66	266	0.346	0.158	-3.355	-111.2111478	-26.1841806	-12.7196676	15.10890246	0.3724227	-20.08790748
2.67	267	0.242	0.238	-2.661	-193.086846	-25.496631	4.9274388	13.1493861	0.09167328	-20.09936664
2.68	268	0.431	0.236	-2.127	-203.9157522	-12.318597	1.0886202	11.08100772	-0.05156622	-20.10509622
2.69	269	0.424	0.218	-1.67	-154.3548852	-1.3178034	-15.469866	9.51683238	-0.0572958	-20.2540653
2.7	270	0.277	0.23	-1.554	-123.6443364	9.167328	-24.5226024	8.25632478	0.05156622	-20.47178934
2.71	271	0.117	0.206	-1.614	-121.180617	15.3552744	-15.2406828	7.02446508	0.21199446	-20.58638094
2.72	272	-0.052	0.177	-1.598	-113.6748672	23.204799	-2.7501984	5.86708992	0.42398892	-20.57492178
2.73	273	-0.225	0.137	-1.51	-94.251591	34.7785506	8.1360036	4.90452048	0.75057498	-20.44887102
2.74	274	-0.334	0.087	-1.409	-72.5364828	44.6334282	14.9542038	4.16540466	1.16883432	-20.24833572
2.75	275	-0.398	0.102	-1.321	-55.576926	51.56622	14.8396122	3.59817624	1.64438946	-20.04780042
2.76	276	-0.363	0.193	-1.294	-41.252976	54.2591226	10.4851314	3.17418732	2.17151082	-19.89310176
2.77	277	-0.233	0.257	-1.215	-29.0489706	50.4775998	4.4117766	2.87624916	2.6642547	-19.80715806
2.78	278	-0.034	0.311	-1.135	-23.0329116	41.825934	-2.7501984	2.6356068	3.07105488	-19.80142848
2.79	279	0.111	0.327	-1.048	-24.4653066	29.1062664	-8.6516658	2.38350528	3.36326346	-19.86445386
2.8	280	0.178	0.285	-0.96	-24.064236	22.2307704	-11.4018642	2.0912967	3.59244666	-19.96185672
2.81	281	0.183	0.218	-0.885	-20.8556712	20.6837838	-12.9488508	1.86784308	3.79871154	-20.07644832
2.82	282	0.233	0.136	-0.819	-18.334656	19.767051	-14.2093584	1.67303736	3.99924684	-20.20822866
2.83	283	0.283	0.059	-0.807	-16.042824	18.9649098	-14.0947668	1.49542038	4.18832298	-20.33427942
2.84	284	0.319	-0.006	-0.815	-18.2200644	17.5325148	-12.891555	1.30061466	4.36593996	-20.4546006
2.85	285	0.299	-0.014	-0.812	-22.8610242	15.756345	-11.1153852	1.05424272	4.54928652	-20.55773304
2.86	286	0.247	0.05	-0.825	-26.0122932	13.750992	-7.9068204	0.77922288	4.68106686	-20.63221758
2.87	287	0.194	0.094	-0.869	-24.8090814	12.2613012	-4.870143	0.52139178	4.80138804	-20.67232464
2.88	288	0.148	0.112	-0.886	-22.058883	10.886202	-3.0939732	0.29793816	4.90452048	-20.70097254
2.89	289	0.118	0.119	-0.883	-18.5065434	6.0733548	-1.8334656	0.10313244	4.96754586	-20.7124317
2.9	290	0.111	0.111	-0.858	-16.5011904	3.3804522	-0.4010706	-0.09167328	5.00192334	-20.71816128
2.91	291	0.093	0.106	-0.854	-14.610429	5.0420304	0.9740286	-0.24064236	5.05348956	-20.70670212
2.92	292	0.092	0.092	-0.854	-14.4958374	5.5576926	1.5469866	-0.38388186	5.10505578	-20.68951338
2.93	293	0.073	0.085	-0.881	-12.4904844	3.437748	1.0313244	-0.50993262	5.13943326	-20.67805422
2.94	294	0.082	0.069	-0.924	-5.2712136	1.7761698	-0.286479	-0.56722842	5.156622	-20.67805422
2.95	295	0.1	0.064	-0.944	1.7761698	1.718874	-0.286479	-0.62452422	5.19099948	-20.68951338
2.96	296	0.124	0.084	-0.971	8.1360036	2.6356068	1.0886202	-0.53858052	5.2139178	-20.67805422
2.97	297	0.142	0.112	-1.024	16.5011904	2.6356068	3.4950438	-0.36669312	5.2425657	-20.64367674
2.98	298	0.141	0.14	-1.064	25.2674478	3.3804522	6.1306506	-0.10886202	5.28267276	-20.58638094
2.99	299	0.125	0.168	-1.104	32.8877892	5.3858052	8.1360036	0.2291832	5.33996856	-20.50616682
3	300	0.126	0.179	-1.144	37.4714532	7.9641162	9.3392154	0.6016059	5.42018268	-20.41449354
3.01	301	0.086	0.164	-1.163	37.5860448	10.0840608	10.313244	0.99121734	5.52331512	-20.3113611
3.02	302	0.088	0.117	-1.168	35.236917	8.9954406	11.8602306	1.35791046	5.6149884	-20.19103992
3.03	303	0.048	0.057	-1.135	33.1742682	8.2505952	11.9748222	1.70741484	5.69520252	-20.06498916
3.04	304	0.07	0.019	-1.14	30.8251404	13.464513	10.026765	2.02827132	5.83271244	-19.96185672
3.05	305	0.169	0.015	-1.121	30.1375908	14.1520626	8.59437	2.33193906	5.98168152	-19.87018344
3.06	306	0.2	0.044	-1.005	30.9970278	11.6883432	7.2765666	2.65852512	6.09627312	-19.78996932
3.07	307	0.186	0.087	-0.927	30.3094782	11.45916	4.2398892	2.96792244	6.21086472	-19.74413268
3.08	308	0.164	0.118	-0.879	24.2361234	8.7089616	1.2032118	3.21429438	6.29680842	-19.72694394
3.09	309	0.146	0.109	-0.881	15.5271618	5.2712136	0.572958	3.37472262	6.35410422	-19.71548478
3.1	310	0.123	0.059	-0.896	7.6776372	1.2032118	1.9480572	3.38618178	6.36556338	-19.70402562
3.11	311	0.057	-0.037	-0.912	-0.286479	-2.2345362	5.0993262	3.38618178	6.34264506	-19.6524594
3.12	312	0.083	-0.146	-0.932	-4.4690724	-2.0626488	7.2765666	3.3518043	6.31399716	-19.58370444
3.13	313	0.115	-0.235	-0.943	-8.3651868	-0.859437	8.307891	3.27159018	6.302538	-19.49776074
3.14	314	0.137	-0.284	-0.941	-10.9434978	-0.2291832	7.8495246	3.16845774	6.29107884	-19.4232762
3.15	315	0.172	-0.304	-0.956	-11.172681	-1.2032118	6.4171296	3.14553942	6.29680842	-19.35452124
3.16	316	0.19	-0.3	-0.972	-8.880849	-3.2085648	5.0420304	3.05959572	6.26243094	-19.30295502
3.17	317	0.193	-0.279	-0.978	-6.9900876	-4.297185	4.2398892	2.99084076	6.2165943	-19.26284796
3.18	318	0.171	-0.236	-0.99	-6.1306506	-3.2085648	3.8961144	2.93354496	6.18221682	-19.22847048
3.19	319	0.154	-0.177	-0.993	-4.5263682	0.286479	4.0680018	2.8934379	6.18221682	-19.18836342
3.2	320	0.131	-0.116	-0.986	-2.1772404	3.437748	4.1252976	2.88770832	6.22232388	-19.14252678
3.21	321	0.121	-0.06	-0.97	0.7448454	5.7868758	4.010706	2.89916748	6.2738901	-19.09669014
3.22	322	0.11	-0.024	-0.947	3.437748	6.8182002	3.7815228	2.93927454	6.34264506	-19.0508535
3.23	323	0.109	0.007	-0.936	5.2712136	7.2192708	3.724227	2.99657034	6.41140002	-19.01074644
3.24	324	0.107	0.026	-0.937	7.5057498	6.6463128	4.010706	3.07678446	6.4744254	-18.9649098
3.25	325	0.112	0.029	-0.948	10.026765	5.2712136	4.583664	3.151269	6.52599162	-18.91907316
3.26	326	0.116	0.014	-0.968	12.1467096	3.4950438	5.5003968	3.28304934	6.5603691	-18.86177736
3.27	327	0.119	-0.016	-0.991	13.8655836	1.145916	6.0733548	3.43201842	6.57182826	-18.79875198
3.28	328	0.117	-0.055	-1.005	14.3812458	-0.6875496	6.1306506	3.5809875	6.5603691	-18.74145618
3.29	329	0.116	-0.09	-1.009	13.6936962	-2.3491278	5.5003968	3.72995658	6.53745078	-18.68988996
3.3	330	0.118	-0.122	-1.007	12.5477802	-4.2398892	4.297185	3.87319608	6.49161414	-18.6497829
3.31	331	0.114	-0.141	-0.994	11.0007936	-6.7609044	2.7501984	3.98778768	6.42285918	-18.62686458
3.32	332	0.113	-0.152	-0.979	9.3392154	-9.0527364	0.9167328	4.08519054	6.3311859	-18.63259416
3.33	333	0.107	-0.152	-0.965	7.3911582	-10.1986524	-0.9740286	4.15967508	6.23378304	-18.6497829
3.34	334	0.099	-0.142	-0.957	5.5003968	-9.7975818	-2.86479	4.2112413	6.14210976	-18.68988996
3.35	335	0.088	-0.126	-0.953	3.5523396	-6.875496	-5.2139178	4.25707794	6.06762522	-18.74718576
3.36	336	0.079	-0.119	-0.959	2.1199446	-2.86479	-6.9900876	4.27426668	6.0447069	-18.81594072
3.37	337	0.077	-0.111	-0.983	0.6302538	1.7761698	-8.1932994	4.27426668	6.06762522	-18.89615484
3.38	338	0.078	-0.102	-1.011	0	6.302538	-8.7089616	4.26280752	6.13638018	-18.97636896
3.39	339	0.086	-0.095	-1.042	-0.286479	9.2819196	-8.2505952	4.25134836	6.23378304	-19.0508535
3.4	340	0.094	-0.085	-1.063	-1.3178034	10.2559482	-6.9900876	4.22270046	6.3311859	-19.1081493
3.41	341	0.107	-0.067	-1.062	-2.7501984	10.4851314	-5.3285094	4.18832298	6.44004792	-19.15398594
3.42	342	0.116	-0.043	-1.038	-4.6982556	10.4278356	-3.2658606	4.13675676	6.54318036	-19.17690426
3.43	343	0.126	-0.018	-1.002	-6.7609044	9.5111028	-1.718874	4.06227222	6.64058322	-19.18263384
3.44	344	0.132	0.003	-0.97	-8.021412	7.448454	-0.572958	3.9820581	6.70933818	-19.18263384
3.45	345	0.135	0.019	-0.942	-9.2819196	4.297185	0.1718874	3.83308902	6.7609044	-19.18263384
3.46	346	0.137	0.028	-0.933	-10.5424272	1.145916	0.859437	3.72995658	6.77236356	-19.17117468
3.47	347	0.133	0.034	-0.933	-10.7143146	-1.718874	1.4896908	3.62109456	6.74944524	-19.15971552
3.48	348	0.132	0.035	-0.938	-9.6829902	-3.4950438	2.0626488	3.5236917	6.71506776	-19.1367972
3.49	349	0.136	0.028	-0.96	-7.6203414	-3.4950438	2.4064236	3.44920716	6.6749607	-19.11960846
3.5	350	0.134	0.012	-0.979	-5.0993262	-4.1252976	2.3491278	3.34607472	6.64058322	-19.10241972
3.51	351	0.135	-0.003	-0.978	-2.1772404	-3.5523396	2.1199446	3.3231564	6.60620574	-19.08523098
3.52	352	0.135	-0.017	-0.968	0.0572958	-2.1772404	2.4064236	3.32888598	6.58328742	-19.06231266
3.53	353	0.137	-0.028	-0.956	1.8907614	-1.145916	3.2658606	3.3518043	6.56609868	-19.03366476
3.54	354	0.146	-0.033	-0.951	3.2658606	-0.1718874	4.5263682	3.38618178	6.56609868	-18.98782812
3.55	355	0.156	-0.031	-0.957	4.5263682	0.3437748	5.9587632	3.41482968	6.589017	-18.93053232
3.56	356	0.164	-0.029	-0.963	5.9587632	-0.2291832	7.0473834	3.48358464	6.58328742	-18.86177736
3.57	357	0.17	-0.027	-0.969	7.0473834	-2.005353	7.6776372	3.56379876	6.5603691	-18.78729282
3.58	358	0.173	-0.03	-0.967	7.2192708	-4.1825934	7.9641162	3.64974246	6.51453246	-18.71280828
3.59	359	0.171	-0.036	-0.967	6.7609044	-5.5003968	7.6203414	3.724227	6.45723666	-18.64405332
3.6	360	0.169	-0.045	-0.972	6.0733548	-5.72958	6.7036086	3.7815228	6.4171296	-18.58675752
3.61	361	0.163	-0.059	-0.978	5.156622	-5.5576926	5.443101	3.8388186	6.3598338	-18.5351913
3.62	362	0.151	-0.072	-0.986	4.4690724	-5.156622	4.1252976	3.89038482	6.302538	-18.50081382
3.63	363	0.134	-0.083	-0.988	4.3544808	-4.3544808	3.2658606	3.93622146	6.26243094	-18.47216592
3.64	364	0.121	-0.1	-0.991	4.0680018	-3.4950438	2.5210152	3.9820581	6.22232388	-18.4492476
3.65	365	0.105	-0.118	-0.994	3.5523396	-2.4064236	1.5469866	4.05081306	6.18221682	-18.43205886
3.66	366	0.11	-0.129	-0.993	2.86479	-0.286479	0.4583664	4.07946096	6.17648724	-18.42632928
3.67	367	0.114	-0.128	-0.998	0.9167328	4.4117766	-0.5156622	4.09092012	6.22232388	-18.42632928
3.68	368	0.108	-0.123	-0.986	-0.9167328	11.0580894	-1.718874	4.07946096	6.3311859	-18.43205886
3.69	369	0.136	-0.115	-0.982	-1.3750992	21.0275586	-3.9534102	4.05654264	6.54318036	-18.45497718
3.7	370	0.128	-0.114	-0.987	-0.7448454	28.4760126	-6.9327918	4.04508348	6.82392978	-18.49508424
3.71	371	0.123	-0.115	-0.966	1.8907614	34.3201842	-10.313244	4.05081306	7.17343416	-18.5638392
3.72	372	0.166	-0.118	-0.953	4.6982556	44.9199072	-13.6364004	4.07946096	7.62607098	-18.65551248
3.73	373	0.223	-0.122	-0.967	5.9587632	57.5249832	-15.8709366	4.11956802	8.20475856	-18.75864492
3.74	374	0.265	-0.117	-1.014	4.2398892	59.4157446	-14.8396122	4.14248634	8.80063488	-18.8503182
3.75	375	0.263	-0.085	-1.039	-0.6302538	36.8411994	-7.9068204	4.11956802	9.18451674	-18.89615484
3.76	376	0.246	-0.067	-0.993	-4.9274388	11.5164558	0.859437	4.0680018	9.29910834	-18.87323652
3.77	377	0.215	-0.066	-0.959	-7.448454	-2.86479	9.1100322	4.010706	9.25900128	-18.78729282
3.78	378	0.206	-0.072	-0.934	-6.875496	-8.8235532	15.0114996	3.96486936	9.16159842	-18.64405332
3.79	379	0.199	-0.088	-0.922	-3.724227	-10.7716104	17.3033316	3.9534102	9.04127724	-18.4778955
3.8	380	0.176	-0.102	-0.93	-0.0572958	-13.4072172	16.4438946	3.9820581	8.89803774	-18.32319684
3.81	381	0.129	-0.099	-0.939	0.572958	-16.902261	13.3499214	4.010706	8.72615034	-18.20860524
3.82	382	0.084	-0.086	-0.948	0.0572958	-19.7097552	9.8548776	4.02216516	8.52561504	-18.12839112
3.83	383	0.051	-0.08	-0.958	0.8021412	-21.772404	8.3651868	4.04508348	8.30216142	-18.06536574
3.84	384	0.037	-0.088	-0.968	3.151269	-21.5432208	7.6776372	4.09092012	8.08443738	-18.00806994
3.85	385	0.044	-0.105	-0.985	5.3285094	-18.7930224	7.3911582	4.15967508	7.87244292	-17.95077414
3.86	386	0.07	-0.115	-1.003	5.7868758	-14.7823164	7.161975	4.22843004	7.72347384	-17.89347834
3.87	387	0.102	-0.107	-1.016	3.9534102	-10.5424272	5.9014674	4.27426668	7.61461182	-17.8476417
3.88	388	0.135	-0.088	-1.025	1.0886202	-6.589017	3.4950438	4.29145542	7.54585686	-17.8189938
3.89	389	0.163	-0.07	-1.019	-0.9740286	-3.0939732	0.6302538	4.27999626	7.51720896	-17.81326422
3.9	390	0.182	-0.059	-1.004	-1.718874	0.572958	-2.0626488	4.22270046	7.56877518	-17.8476417
3.91	391	0.191	-0.063	-1.002	-1.0886202	4.010706	-3.4950438	4.20551172	7.60888224	-17.8762896
3.92	392	0.194	-0.072	-1.007	-0.6302538	4.2398892	-4.0680018	4.19405256	7.65471888	-17.91066708
3.93	393	0.195	-0.08	-1.007	-0.7448454	3.151269	-4.010706	4.1825934	7.68909636	-17.95077414
3.94	394	0.195	-0.08	-0.997	-1.6042824	2.578311	-3.8961144	4.15967508	7.71774426	-17.98515162
3.95	395	0.201	-0.07	-0.979	-2.1199446	3.151269	-3.8961144	4.11383844	7.79795838	-18.03098826
3.96	396	0.203	-0.054	-0.956	-1.9480572	4.7555514	-3.9534102	4.08519054	7.8495246	-18.06536574
3.97	397	0.201	-0.037	-0.937	-1.0313244	6.4171296	-4.3544808	4.0680018	7.91827956	-18.1054728
3.98	398	0.196	-0.02	-0.926	0.4010706	8.0787078	-4.7555514	4.0680018	7.99849368	-18.14557986
3.99	399	0.194	-0.008	-0.924	1.7761698	9.3965112	-5.0993262	4.07946096	8.09589654	-18.18568692
4	400	0.193	-0.001	-0.929	3.151269	10.6570188	-5.0993262	4.0680018	8.22767688	-18.23152356
4.01	401	0.201	0.002	-0.94	4.3544808	11.8029348	-4.870143	4.10810886	8.34799806	-18.27163062
4.02	402	0.206	0.001	-0.952	5.2712136	12.2613012	-4.4117766	4.1539455	8.46831924	-18.3060081
4.03	403	0.212	-0.004	-0.964	5.5003968	10.9434978	-3.437748	4.20551172	8.58291084	-18.32892642
4.04	404	0.215	-0.012	-0.974	5.3285094	8.1932994	-2.0626488	4.25707794	8.66312496	-18.34038558
4.05	405	0.217	-0.024	-0.983	4.7555514	4.297185	-0.3437748	4.24561878	8.76052782	-18.35757432
4.06	406	0.216	-0.038	-0.988	3.8388186	-0.7448454	1.8907614	4.28572584	8.75479824	-18.334656
4.07	407	0.207	-0.052	-0.991	3.0366774	-6.1879464	3.4950438	4.3258329	8.69177286	-18.3060081
4.08	408	0.192	-0.063	-0.986	2.3491278	-8.9954406	4.6409598	4.3544808	8.59437	-18.27163062
4.09	409	0.177	-0.074	-0.982	1.718874	-10.3705398	5.0993262	4.37739912	8.49123756	-18.23152356
4.1	410	0.164	-0.086	-0.981	1.2032118	-11.1153852	5.3858052	4.39458786	8.38237554	-18.18568692
4.11	411	0.147	-0.096	-0.98	0.5156622	-11.6310474	5.2139178	4.4117766	8.26205436	-18.14557986
4.12	412	0.127	-0.104	-0.98	0	-10.7143146	4.8128472	4.41750618	8.15319234	-18.11120238
4.13	413	0.108	-0.112	-0.968	-0.6302538	-8.7662574	4.1252976	4.41750618	8.06151906	-18.0768249
4.14	414	0.094	-0.118	-0.967	-1.4896908	-7.0473834	3.151269	4.40604702	7.98703452	-18.05390658
4.15	415	0.09	-0.121	-0.971	-1.8907614	-5.443101	2.0626488	4.4117766	7.88963166	-18.03098826
4.16	416	0.096	-0.117	-0.972	-1.9480572	-3.6096354	1.2605076	4.38885828	7.8495246	-18.0195291
4.17	417	0.105	-0.11	-0.972	-1.7761698	-1.0886202	0.572958	4.37166954	7.83806544	-18.01379952
4.18	418	0.111	-0.104	-0.977	-1.3178034	1.145916	0.0572958	4.36021038	7.8495246	-18.01379952
4.19	419	0.119	-0.101	-0.98	-0.7448454	2.6356068	-0.5156622	4.3544808	7.8781725	-18.0195291
4.2	420	0.125	-0.1	-0.977	-0.286479	3.3804522	-0.8021412	4.34875122	7.88963166	-18.0195291
4.21	421	0.136	-0.095	-0.972	-0.3437748	3.437748	-1.0313244	4.34302164	7.92400914	-18.02525868
4.22	422	0.143	-0.087	-0.968	-0.3437748	3.0939732	-0.9167328	4.34302164	7.95265704	-18.03098826
4.23	423	0.15	-0.076	-0.961	-0.5156622	2.6356068	-1.0313244	4.33156248	7.98130494	-18.04244742
4.24	424	0.155	-0.067	-0.958	-0.4010706	2.5210152	-1.0886202	4.3258329	8.00995284	-18.048177
4.25	425	0.159	-0.062	-0.956	0	2.7501984	-1.145916	4.2685371	8.06724864	-18.06536574
4.26	426	0.166	-0.059	-0.956	0.5156622	2.9220858	-1.0886202	4.27426668	8.09589654	-18.0768249
4.27	427	0.174	-0.059	-0.96	0.9740286	2.9793816	-1.145916	4.27999626	8.12454444	-18.08255448
4.28	428	0.18	-0.06	-0.963	1.3750992	2.7501984	-1.0313244	4.297185	8.15319234	-18.09401364
4.29	429	0.187	-0.063	-0.964	1.432395	2.578311	-1.0313244	4.30864416	8.18184024	-18.09974322
4.3	430	0.193	-0.066	-0.966	1.5469866	2.005353	-0.9740286	4.27426668	8.28497268	-18.12266154
4.31	431	0.205	-0.069	-0.966	1.3750992	1.4896908	-0.9740286	4.29145542	8.30216142	-18.1341207
4.32	432	0.212	-0.069	-0.969	1.145916	1.145916	-0.6875496	4.297185	8.31362058	-18.13985028
4.33	433	0.214	-0.07	-0.973	0.9740286	0.4010706	-0.4583664	4.30864416	8.31935016	-18.14557986
4.34	434	0.212	-0.068	-0.977	0.859437	-0.4010706	-0.1718874	4.32010332	8.31362058	-18.14557986
4.35	435	0.205	-0.068	-0.978	0.6875496	-1.2032118	-0.0572958	4.2398892	8.46258966	-18.17995734
4.36	436	0.195	-0.067	-0.977	0.7448454	-2.0626488	0.0572958	4.24561878	8.43967134	-18.17995734
4.37	437	0.184	-0.069	-0.976	0.6875496	-2.6356068	0.0572958	4.25134836	8.41675302	-18.17995734
4.38	438	0.176	-0.069	-0.976	0.8021412	-2.9793816	0.3437748	4.26280752	8.38237554	-18.17995734
4.39	439	0.169	-0.071	-0.974	0.7448454	-3.0366774	0.4583664	4.2685371	8.35372764	-18.17995734
4.4	440	0.162	-0.072	-0.974	0.6302538	-2.578311	0.4583664	4.22843004	8.34799806	-18.18568692
4.41	441	0.158	-0.072	-0.976	0.8021412	-1.8907614	0.4583664	4.2398892	8.32507974	-18.18568692
4.42	442	0.153	-0.073	-0.976	0.9740286	-1.3750992	0.4010706	4.25134836	8.31362058	-18.17995734
4.43	443	0.149	-0.076	-0.975	0.9167328	-0.7448454	0.2291832	4.25707794	8.307891	-18.17995734
4.44	444	0.148	-0.079	-0.974	0.7448454	-0.286479	0.0572958	4.2685371	8.30216142	-18.17995734
4.45	445	0.151	-0.08	-0.974	0.572958	0.3437748	-0.0572958	4.18832298	8.31362058	-18.1914165
4.46	446	0.155	-0.081	-0.974	0.5156622	0.9740286	-0.1718874	4.19405256	8.32507974	-18.1914165
4.47	447	0.159	-0.079	-0.974	0.4583664	1.2605076	-0.286479	4.19978214	8.3365389	-18.1914165
4.48	448	0.161	-0.078	-0.974	0.5156622	1.2605076	-0.4010706	4.20551172	8.34799806	-18.19714608
4.49	449	0.161	-0.079	-0.974	0.572958	1.3178034	-0.4010706	4.2112413	8.3651868	-18.19714608
4.5	450	0.162	-0.079	-0.975	0.6875496	1.0313244	-0.4010706	4.17113424	8.40529386	-18.21433482
4.51	451	0.162	-0.078	-0.976	0.6875496	0.7448454	-0.4583664	4.17686382	8.41102344	-18.21433482
4.52	452	0.162	-0.078	-0.975	0.572958	0.4583664	-0.3437748	4.1825934	8.41675302	-18.2200644
4.53	453	0.161	-0.078	-0.976	0.5156622	0.0572958	-0.3437748	4.18832298	8.4224826	-18.22579398
4.54	454	0.159	-0.08	-0.974	0.4010706	-0.1145916	-0.2291832	4.19405256	8.41675302	-18.22579398
4.55	455	0.16	-0.081	-0.974	0.286479	-0.1145916	-0.2291832	4.09092012	8.47404882	-18.2487123
4.56	456	0.158	-0.081	-0.976	0.3437748	-0.0572958	-0.1718874	4.09092012	8.47404882	-18.25444188
4.57	457	0.157	-0.081	-0.972	0.286479	0	-0.1718874	4.0966497	8.47404882	-18.25444188
4.58	458	0.157	-0.078	-0.972	0.3437748	0.4010706	-0.1718874	4.10237928	8.4797784	-18.25444188
4.59	459	0.157	-0.076	-0.97	0.5156622	0.7448454	-0.1718874	4.10810886	8.48550798	-18.26017146
4.6	460	0.163	-0.075	-0.972	0.572958	0.5156622	-0.1145916	4.02216516	8.55426294	-18.2773602
4.61	461	0.168	-0.076	-0.974	0.4583664	0.0572958	0.0572958	4.02789474	8.55426294	-18.2773602
4.62	462	0.171	-0.076	-0.973	0.1718874	0.286479	0.1718874	4.02789474	8.55426294	-18.27163062
4.63	463	0.169	-0.077	-0.963	-0.1718874	0.9740286	0.286479	4.02789474	8.5657221	-18.27163062
4.64	464	0.165	-0.078	-0.963	-0.6875496	0.859437	0.2291832	4.02216516	8.57145168	-18.26590104
4.65	465	0.165	-0.079	-0.967	-0.6302538	0.1718874	0.1145916	3.9247623	8.66885454	-18.28881936
4.66	466	0.169	-0.079	-0.968	-0.1145916	-0.1145916	0.1718874	3.9247623	8.66885454	-18.28308978
4.67	467	0.172	-0.077	-0.97	0.1145916	0.1718874	0.2291832	3.9247623	8.66885454	-18.28308978
4.68	468	0.172	-0.077	-0.977	0.286479	0.572958	0.1145916	3.93049188	8.67458412	-18.28308978
4.69	469	0.172	-0.076	-0.983	0.5156622	0.6875496	0	3.93622146	8.6803137	-18.2773602
4.7	470	0.17	-0.079	-0.986	0.5156622	0.5156622	-0.0572958	3.8961144	8.7376095	-18.29454894
4.71	471	0.171	-0.08	-0.985	0.5156622	0.5156622	-0.0572958	3.90184398	8.74333908	-18.29454894
4.72	472	0.173	-0.081	-0.982	0.6302538	0.286479	-0.0572958	3.90757356	8.74906866	-18.29454894
4.73	473	0.175	-0.079	-0.978	0.6302538	0.1718874	-0.1145916	3.91330314	8.74906866	-18.29454894
4.74	474	0.174	-0.076	-0.975	0.7448454	0	-0.1145916	3.9247623	8.74906866	-18.29454894
4.75	475	0.175	-0.074	-0.972	0.6875496	0	-0.1718874	3.84454818	8.84074194	-18.31746726
4.76	476	0.173	-0.072	-0.971	0.6875496	0.1718874	-0.1718874	3.85600734	8.84647152	-18.32319684
4.77	477	0.173	-0.071	-0.972	0.6302538	0.1145916	-0.0572958	3.86173692	8.84647152	-18.32319684
4.78	478	0.173	-0.072	-0.975	0.7448454	0.1145916	0	3.8674665	8.84647152	-18.32319684
4.79	479	0.172	-0.074	-0.975	0.7448454	0.0572958	0	3.87319608	8.84647152	-18.32319684
4.8	480	0.172	-0.076	-0.976	0.6875496	-0.1718874	0	3.83308902	8.89230816	-18.334656
4.81	481	0.171	-0.077	-0.975	0.6302538	-0.4010706	0.0572958	3.84454818	8.88657858	-18.334656
4.82	482	0.17	-0.078	-0.974	0.6302538	-0.5156622	0	3.85027776	8.880849	-18.334656
4.83	483	0.169	-0.08	-0.975	0.572958	-0.4010706	0	3.85600734	8.880849	-18.334656
4.84	484	0.168	-0.08	-0.977	0.6302538	-0.2291832	0	3.86173692	8.87511942	-18.334656
4.85	485	0.167	-0.081	-0.976	0.572958	-0.2291832	-0.1145916	3.82735944	8.90376732	-18.34611516
4.86	486	0.166	-0.083	-0.975	0.4583664	-0.1145916	-0.1718874	3.82735944	8.90376732	-18.34611516
4.87	487	0.166	-0.083	-0.975	0.4583664	-0.1145916	-0.1718874	3.83308902	8.90376732	-18.35184474
4.88	488	0.167	-0.083	-0.973	0.4583664	0	-0.1145916	3.8388186	8.90376732	-18.35184474
4.89	489	0.167	-0.082	-0.971	0	-0.0572958	-0.1145916	3.8388186	8.89803774	-18.35184474
4.9	490	0.168	-0.082	-0.969	0.0572958	-0.1145916	-0.0572958	3.76433406	9.01262934	-18.37476306
4.91	491	0.169	-0.082	-0.97	0	0	-0.0572958	3.76433406	9.01262934	-18.37476306
4.92	492	0.17	-0.081	-0.971	0.1145916	0.1718874	0	3.76433406	9.01835892	-18.37476306
4.93	493	0.169	-0.08	-0.973	0.2291832	0.1718874	-0.0572958	3.77006364	9.01835892	-18.38049264
4.94	494	0.169	-0.081	-0.973	0.5156622	0.1718874	0	3.77579322	9.01835892	-18.38049264
4.95	495	0.17	-0.082	-0.975	0.572958	0.0572958	0	3.7528749	9.06419556	-18.38622222
4.96	496	0.171	-0.081	-0.973	0.3437748	0.0572958	0	3.75860448	9.06992514	-18.38622222
4.97	497	0.171	-0.08	-0.974	0.3437748	-0.1145916	0	3.75860448	9.06419556	-18.38622222
4.98	498	0.169	-0.08	-0.973	0.286479	-0.2291832	-0.0572958	3.76433406	9.06419556	-18.38622222
4.99	499	0.169	-0.079	-0.971	0.1718874	-0.2291832	0	3.76433406	9.06419556	-18.38622222
5	500	0.169	-0.08	-0.97	0	-0.1718874	0	3.68411994	9.1386801	-18.40914054
5.01	501	0.169	-0.08	-0.971	0.0572958	0	0	3.68411994	9.1386801	-18.40914054
5.02	502	0.17	-0.078	-0.974	0.1718874	0.1718874	0.0572958	3.68984952	9.1386801	-18.40914054
5.03	503	0.171	-0.079	-0.976	0.0572958	0.2291832	0.0572958	3.68984952	9.14440968	-18.40914054
5.04	504	0.171	-0.079	-0.975	0.2291832	0	0.0572958	3.68984952	9.14440968	-18.40341096
5.05	505	0.171	-0.08	-0.974	0.1718874	-0.1718874	0.0572958	3.66120162	9.167328	-18.41487012
5.06	506	0.172	-0.08	-0.975	0.286479	-0.1145916	0	3.6669312	9.167328	-18.41487012
5.07	507	0.17	-0.081	-0.976	0.4010706	0.1145916	0	3.67266078	9.167328	-18.41487012
5.08	508	0.169	-0.081	-0.977	0.5156622	0.1718874	-0.1145916	3.67839036	9.17305758	-18.41487012
5.09	509	0.168	-0.082	-0.975	0.286479	0.3437748	-0.2291832	3.67839036	9.17305758	-18.41487012
5.1	510	0.167	-0.082	-0.973	0.0572958	0.572958	-0.286479	3.67266078	9.18451674	-18.4205997
5.11	511	0.169	-0.083	-0.973	0.1145916	0.6302538	-0.286479	3.67266078	9.19024632	-18.4205997
5.12	512	0.172	-0.083	-0.975	0	0.3437748	-0.286479	3.67266078	9.1959759	-18.42632928
5.13	513	0.175	-0.084	-0.977	0	0.0572958	-0.286479	3.67266078	9.1959759	-18.42632928
5.14	514	0.175	-0.084	-0.972	-0.286479	0.2291832	-0.286479	3.6669312	9.20170548	-18.43205886
5.15	515	0.174	-0.085	-0.962	-0.9167328	0.6302538	-0.3437748	3.66120162	9.21889422	-18.43778844
5.16	516	0.172	-0.084	-0.963	-1.2605076	0.6302538	-0.4010706	3.64974246	9.2246238	-18.43778844
5.17	517	0.172	-0.082	-0.966	-1.145916	0.1718874	-0.4583664	3.63255372	9.23035338	-18.44351802
5.18	518	0.172	-0.082	-0.965	-0.859437	-0.1718874	-0.5156622	3.62682414	9.2246238	-18.4492476
5.19	519	0.171	-0.083	-0.97	-0.6875496	0.2291832	-0.4010706	3.61536498	9.23035338	-18.45497718
5.2	520	0.171	-0.082	-0.974	-0.3437748	0.4010706	-0.286479	3.6096354	9.24754212	-18.46070676
5.21	521	0.17	-0.083	-0.979	0	0.572958	-0.2291832	3.60390582	9.2532717	-18.46070676
5.22	522	0.171	-0.083	-0.979	0	0.4010706	-0.1718874	3.60390582	9.2532717	-18.46070676
5.23	523	0.171	-0.085	-0.978	0.1145916	0.286479	-0.0572958	3.6096354	9.25900128	-18.46070676
5.24	524	0.173	-0.086	-0.979	0.1145916	0.0572958	0	3.6096354	9.25900128	-18.46070676
5.25	525	0.175	-0.087	-0.977	0.0572958	-0.0572958	0.1145916	3.63255372	9.3105675	-18.46070676
5.26	526	0.175	-0.086	-0.975	0	-0.4010706	0.2291832	3.6382833	9.30483792	-18.46070676
5.27	527	0.176	-0.085	-0.974	-0.2291832	-0.5156622	0.1718874	3.63255372	9.29910834	-18.45497718
5.28	528	0.176	-0.084	-0.973	-0.3437748	-0.5156622	0.0572958	3.63255372	9.29337876	-18.45497718
5.29	529	0.176	-0.082	-0.972	-0.3437748	-0.4010706	0.0572958	3.62682414	9.28764918	-18.45497718
5.3	530	0.177	-0.081	-0.974	-0.1145916	-0.4583664	0.1718874	3.6096354	9.31629708	-18.46070676
5.31	531	0.176	-0.079	-0.974	-0.0572958	-0.4583664	0.1718874	3.6096354	9.3105675	-18.45497718
5.32	532	0.177	-0.08	-0.973	-0.0572958	-0.5156622	0.1718874	3.6096354	9.30483792	-18.45497718
5.33	533	0.177	-0.08	-0.973	-0.286479	-0.5156622	0.2291832	3.6096354	9.29910834	-18.45497718
5.34	534	0.176	-0.08	-0.972	-0.1145916	-0.572958	0.286479	3.60390582	9.29337876	-18.4492476
5.35	535	0.174	-0.082	-0.973	-0.2291832	-0.572958	0.1718874	3.60390582	9.30483792	-18.4492476
5.36	536	0.173	-0.083	-0.974	-0.1718874	-0.4583664	0.2291832	3.59817624	9.29910834	-18.4492476
5.37	537	0.171	-0.084	-0.973	-0.286479	-0.3437748	0.1145916	3.59817624	9.29337876	-18.4492476
5.38	538	0.171	-0.084	-0.973	-0.3437748	-0.1145916	0	3.59244666	9.29337876	-18.4492476
5.39	539	0.172	-0.085	-0.974	-0.3437748	0.0572958	0	3.59244666	9.29337876	-18.4492476
5.4	540	0.174	-0.086	-0.974	-0.1145916	0.2291832	0.1145916	3.6096354	9.34494498	-18.44351802
5.41	541	0.175	-0.086	-0.972	0	0.1718874	0.0572958	3.6096354	9.34494498	-18.44351802
5.42	542	0.176	-0.086	-0.971	-0.0572958	0.1718874	0.2291832	3.6096354	9.34494498	-18.44351802
5.43	543	0.176	-0.086	-0.971	-0.0572958	0.0572958	0.2291832	3.6096354	9.35067456	-18.43778844
5.44	544	0.176	-0.086	-0.971	-0.1145916	0.1145916	0.1718874	3.6096354	9.35067456	-18.43778844
5.45	545	0.176	-0.084	-0.972	-0.0572958	0	0.1718874	3.61536498	9.3965112	-18.43778844
5.46	546	0.174	-0.085	-0.974	0.0572958	-0.0572958	0.1718874	3.61536498	9.39078162	-18.43778844
5.47	547	0.175	-0.087	-0.973	0.1145916	-0.1718874	0.1718874	3.61536498	9.39078162	-18.43205886
5.48	548	0.173	-0.088	-0.971	0	-0.286479	0.1718874	3.61536498	9.38505204	-18.43205886
5.49	549	0.173	-0.089	-0.97	-0.2291832	-0.3437748	0.2291832	3.61536498	9.38505204	-18.42632928
5.5	550	0.171	-0.088	-0.97	-0.1718874	-0.1145916	0.1718874	3.6382833	9.39078162	-18.4205997
5.51	551	0.172	-0.087	-0.971	-0.1145916	0	0.1145916	3.6382833	9.39078162	-18.4205997
5.52	552	0.173	-0.085	-0.971	-0.0572958	0	0.0572958	3.6382833	9.39078162	-18.4205997
5.53	553	0.173	-0.082	-0.971	-0.1145916	0	0	3.63255372	9.39078162	-18.4205997
5.54	554	0.174	-0.081	-0.971	-0.2291832	0.1145916	0	3.63255372	9.3965112	-18.4205997
5.55	555	0.174	-0.081	-0.972	-0.3437748	0.0572958	0	3.62109456	9.41942952	-18.42632928
5.56	556	0.174	-0.081	-0.971	-0.5156622	0	0	3.61536498	9.41942952	-18.42632928
5.57	557	0.174	-0.081	-0.973	-0.4583664	0.0572958	0	3.6096354	9.4251591	-18.42632928
5.58	558	0.174	-0.081	-0.973	-0.3437748	0	0	3.60390582	9.4251591	-18.42632928
5.59	559	0.175	-0.083	-0.974	-0.2291832	-0.0572958	0.1145916	3.60390582	9.41942952	-18.4205997
5.6	560	0.176	-0.083	-0.973	-0.0572958	0	0.1718874	3.60390582	9.4824549	-18.42632928
5.61	561	0.177	-0.085	-0.975	-0.0572958	0.1145916	0.1145916	3.60390582	9.48818448	-18.4205997
5.62	562	0.176	-0.087	-0.976	-0.1718874	0.1718874	0.1145916	3.59817624	9.48818448	-18.4205997
5.63	563	0.173	-0.087	-0.974	-0.3437748	0.2291832	0.0572958	3.59817624	9.48818448	-18.4205997
5.64	564	0.171	-0.089	-0.971	-0.572958	0.4583664	0	3.59244666	9.49391406	-18.4205997
5.65	565	0.168	-0.091	-0.971	-0.8021412	0.6875496	0.0572958	3.59817624	9.49391406	-18.41487012
5.66	566	0.166	-0.089	-0.971	-0.8021412	0.6875496	0	3.58671708	9.49964364	-18.41487012
5.67	567	0.168	-0.089	-0.976	-0.6875496	0.6302538	0	3.5809875	9.50537322	-18.41487012
5.68	568	0.171	-0.087	-0.974	-0.6302538	0.6302538	0	3.57525792	9.51683238	-18.41487012
5.69	569	0.172	-0.086	-0.968	-0.6875496	1.145916	0.1145916	3.56952834	9.52829154	-18.40914054
5.7	570	0.173	-0.085	-0.967	-0.9167328	1.6615782	0.1718874	3.55806918	9.5397507	-18.40914054
5.71	571	0.172	-0.082	-0.97	-0.8021412	1.145916	0.1718874	3.5523396	9.55120986	-18.40341096
5.72	572	0.174	-0.081	-0.967	-0.9167328	0.6875496	0.2291832	3.54088044	9.56266902	-18.40341096
5.73	573	0.178	-0.082	-0.966	-1.0886202	0.6302538	0.286479	3.52942128	9.5683986	-18.39768138
5.74	574	0.18	-0.083	-0.969	-1.0313244	0.6875496	0.3437748	3.5236917	9.57412818	-18.3919518
5.75	575	0.182	-0.085	-0.971	-0.6302538	0.8021412	0.4010706	3.51796212	9.5970465	-18.38622222
5.76	576	0.183	-0.084	-0.974	-0.4010706	0.572958	0.3437748	3.51223254	9.60277608	-18.38622222
5.77	577	0.185	-0.083	-0.977	-0.1718874	0.3437748	0.3437748	3.51223254	9.60277608	-18.38049264
5.78	578	0.184	-0.082	-0.981	0.0572958	0.1718874	0.2291832	3.51223254	9.60277608	-18.37476306
5.79	579	0.185	-0.08	-0.985	0.2291832	0	0.1718874	3.51796212	9.60277608	-18.37476306
5.8	580	0.186	-0.08	-0.986	0.286479	-0.4583664	0.1718874	3.51796212	9.61996482	-18.37476306
5.81	581	0.189	-0.083	-0.984	0.1145916	-1.0886202	0.1718874	3.51796212	9.60850566	-18.37476306
5.82	582	0.191	-0.084	-0.985	0	-1.6042824	0.1145916	3.51796212	9.5970465	-18.37476306
5.83	583	0.193	-0.084	-0.986	0.1718874	-2.1199446	0.1145916	3.5236917	9.57412818	-18.37476306
5.84	584	0.193	-0.083	-0.99	0.3437748	-2.4637194	0.1718874	3.5236917	9.55120986	-18.37476306
5.85	585	0.192	-0.082	-0.99	0.4583664	-2.8074942	0.0572958	3.52942128	9.53402112	-18.37476306
5.86	586	0.188	-0.082	-0.988	0.4010706	-3.151269	0	3.53515086	9.49964364	-18.38049264
5.87	587	0.186	-0.081	-0.986	0.1145916	-3.151269	0	3.53515086	9.47099574	-18.38622222
5.88	588	0.183	-0.081	-0.98	-0.0572958	-3.2085648	-0.1145916	3.53515086	9.43661826	-18.38622222
5.89	589	0.18	-0.079	-0.974	-0.3437748	-3.151269	-0.286479	3.52942128	9.40797036	-18.3919518
5.9	590	0.179	-0.077	-0.973	-0.5156622	-2.8074942	-0.3437748	3.51796212	9.38505204	-18.40341096
5.91	591	0.179	-0.077	-0.97	-0.3437748	-2.4064236	-0.4583664	3.51796212	9.36213372	-18.40914054
5.92	592	0.178	-0.077	-0.966	-0.2291832	-2.1199446	-0.4583664	3.51223254	9.34494498	-18.41487012
5.93	593	0.176	-0.078	-0.966	-0.1718874	-1.9480572	-0.4583664	3.50650296	9.32202666	-18.4205997
5.94	594	0.176	-0.079	-0.968	0	-1.8334656	-0.3437748	3.50650296	9.30483792	-18.42632928
5.95	595	0.176	-0.082	-0.967	0.1718874	-1.8334656	-0.2291832	3.51223254	9.29910834	-18.43205886
5.96	596	0.178	-0.084	-0.967	0.1718874	-1.9480572	0	3.51223254	9.2819196	-18.43205886
5.97	597	0.178	-0.085	-0.969	0.1145916	-2.1199446	0.1718874	3.51796212	9.25900128	-18.43205886
5.98	598	0.18	-0.084	-0.971	0.286479	-1.9480572	0.2291832	3.51796212	9.24181254	-18.43205886
5.99	599	0.177	-0.084	-0.974	0.3437748	-1.8907614	0.286479	3.5236917	9.21889422	-18.43205886
6	600	0.175	-0.083	-0.976	0.286479	-2.005353	0.286479	3.52942128	9.20743506	-18.43205886
6.01	601	0.173	-0.087	-0.976	0.4010706	-2.1772404	0.286479	3.53515086	9.18451674	-18.43205886
6.02	602	0.171	-0.09	-0.973	0.5156622	-2.4064236	0.286479	3.54088044	9.16159842	-18.42632928
6.03	603	0.17	-0.092	-0.973	0.572958	-2.4637194	0.1718874	3.54661002	9.1386801	-18.42632928
6.04	604	0.168	-0.093	-0.971	0.4010706	-2.2345362	0.1145916	3.5523396	9.11576178	-18.43205886
6.05	605	0.166	-0.091	-0.971	0.2291832	-2.1772404	0.1145916	3.56379876	9.09857304	-18.42632928
6.06	606	0.164	-0.088	-0.97	0.3437748	-2.0626488	0.1145916	3.56379876	9.07565472	-18.42632928
6.07	607	0.163	-0.087	-0.971	0.4583664	-1.8907614	0.0572958	3.56952834	9.05846598	-18.43205886
6.08	608	0.163	-0.086	-0.97	0.572958	-1.8334656	0	3.57525792	9.04127724	-18.43205886
6.09	609	0.163	-0.084	-0.971	0.6302538	-1.6042824	0.0572958	3.58671708	9.0240885	-18.43205886
6.1	610	0.165	-0.084	-0.971	0.6875496	-1.4896908	0.1718874	3.59244666	9.01262934	-18.43205886
6.11	611	0.167	-0.083	-0.974	0.6875496	-1.3750992	0.2291832	3.59817624	8.9954406	-18.43205886
6.12	612	0.168	-0.083	-0.974	0.6875496	-1.432395	0.286479	3.6096354	8.98398144	-18.42632928
6.13	613	0.17	-0.084	-0.975	0.5156622	-1.6042824	0.2291832	3.61536498	8.9667927	-18.42632928
6.14	614	0.168	-0.083	-0.973	0.3437748	-1.5469866	0.1718874	3.61536498	8.94960396	-18.42632928
6.15	615	0.167	-0.083	-0.974	0.286479	-1.432395	0.1718874	3.61536498	8.94387438	-18.42632928
6.16	616	0.167	-0.083	-0.975	0.286479	-1.145916	0.1718874	3.62109456	8.93241522	-18.42632928
6.17	617	0.168	-0.083	-0.974	0.4010706	-1.0313244	0.1145916	3.62682414	8.92095606	-18.42632928
6.18	618	0.17	-0.084	-0.975	0.4010706	-1.0886202	0.1718874	3.62682414	8.9094969	-18.42632928
6.19	619	0.169	-0.083	-0.976	0.2291832	-1.0313244	0.1145916	3.63255372	8.89803774	-18.42632928
6.2	620	0.17	-0.083	-0.975	0.1145916	-0.9740286	0.1145916	3.63255372	8.91522648	-18.42632928
6.21	621	0.172	-0.084	-0.976	0	-0.8021412	0	3.63255372	8.9094969	-18.42632928
6.22	622	0.173	-0.086	-0.975	-0.0572958	-0.9167328	0	3.63255372	8.89803774	-18.42632928
6.23	623	0.171	-0.087	-0.972	-0.1145916	-1.145916	0	3.63255372	8.88657858	-18.42632928
6.24	624	0.171	-0.088	-0.97	-0.286479	-0.8021412	0	3.62682414	8.880849	-18.42632928
6.25	625	0.174	-0.087	-0.971	-0.1145916	-0.6875496	0.0572958	3.6382833	8.9094969	-18.42632928
6.26	626	0.178	-0.087	-0.974	-0.1718874	-1.0886202	0.1718874	3.6382833	8.89803774	-18.42632928
6.27	627	0.18	-0.086	-0.975	-0.286479	-1.5469866	0.286479	3.63255372	8.88657858	-18.42632928
6.28	628	0.178	-0.087	-0.967	-0.6875496	-1.3750992	0.1718874	3.62682414	8.86938984	-18.42632928
6.29	629	0.172	-0.089	-0.958	-1.4896908	-1.0313244	0.1145916	3.6096354	8.85793068	-18.42632928
