TimeStamp(s)	FrameCounter	AccX	AccY	AccZ	GyrX	GyrY	GyrZ	EulerX	EulerY	EulerZ
0.01	1	-0.052	-0.996	0.127	-1.3178034	-2.005353	2.0626488	93.37496526	-2.21161788	-17.26895412
0.02	2	-0.06	-0.994	0.132	-2.2345362	-2.8074942	1.8907614	93.35204694	-2.22880662	-17.29760202
0.03	3	-0.061	-0.997	0.131	-2.3491278	-2.9793816	1.6042824	93.32912862	-2.24599536	-17.32624992
0.04	4	-0.067	-1	0.128	-2.5210152	-2.86479	1.2605076	93.3062103	-2.25745452	-17.3606274
0.05	5	-0.072	-1.003	0.122	-2.8074942	-2.4637194	0.859437	93.30048072	-2.27464326	-17.38354572
0.06	6	-0.075	-1.004	0.12	-3.0366774	-1.8907614	0.4010706	93.26610324	-2.28037284	-17.40073446
0.07	7	-0.077	-1.006	0.116	-3.0366774	-0.9740286	0.286479	93.23745534	-2.28037284	-17.41219362
0.08	8	-0.074	-1.007	0.109	-3.0366774	0	0.3437748	93.20880744	-2.28610242	-17.41219362
0.09	9	-0.071	-1.007	0.108	-3.0366774	0.572958	0.4010706	93.17442996	-2.291832	-17.40646404
0.1	10	-0.068	-1.008	0.107	-2.9220858	1.0886202	0.4583664	93.1629708	-2.30902074	-17.39500488
0.11	11	-0.066	-1.008	0.107	-2.86479	1.432395	0.572958	93.1343229	-2.3204799	-17.37781614
0.12	12	-0.064	-1.003	0.107	-2.8074942	1.718874	0.6875496	93.105675	-2.32620948	-17.36635698
0.13	13	-0.063	-0.999	0.109	-2.5210152	1.8334656	0.859437	93.0770271	-2.33766864	-17.34343866
0.14	14	-0.064	-0.997	0.109	-2.291832	2.1199446	0.859437	93.05410878	-2.3491278	-17.32624992
0.15	15	-0.066	-0.995	0.111	-2.1772404	2.3491278	0.9740286	93.0483792	-2.37204612	-17.3033316
0.16	16	-0.068	-0.995	0.113	-2.0626488	2.6356068	0.8021412	93.02546088	-2.38350528	-17.2746837
0.17	17	-0.072	-0.995	0.115	-2.1199446	3.0939732	0.6302538	93.00254256	-2.38923486	-17.2460358
0.18	18	-0.072	-0.995	0.115	-2.0626488	3.2658606	0.4583664	92.97962424	-2.40069402	-17.21165832
0.19	19	-0.072	-0.994	0.118	-2.1199446	3.3804522	0.3437748	92.95670592	-2.4064236	-17.18301042
0.2	20	-0.072	-0.992	0.121	-2.0626488	3.6096354	0.3437748	92.95670592	-2.42361234	-17.14290336
0.21	21	-0.069	-0.991	0.124	-2.0626488	3.9534102	0.286479	92.9337876	-2.42934192	-17.10852588
0.22	22	-0.066	-0.99	0.127	-2.0626488	4.1825934	0.286479	92.91086928	-2.4350715	-17.06268924
0.23	23	-0.062	-0.991	0.132	-2.291832	4.5263682	0.3437748	92.88222138	-2.44653066	-17.02258218
0.24	24	-0.057	-0.994	0.129	-2.578311	5.2712136	0.572958	92.85357348	-2.45798982	-16.97101596
0.25	25	-0.052	-0.999	0.129	-2.9793816	5.0420304	1.0313244	92.84211432	-2.46944898	-16.91944974
0.26	26	-0.05	-1.008	0.131	-3.6096354	4.3544808	1.6042824	92.80200726	-2.4923673	-16.87934268
0.27	27	-0.048	-1.018	0.133	-4.010706	3.437748	2.3491278	92.7619002	-2.51528562	-16.8449652
0.28	28	-0.048	-1.03	0.138	-4.583664	2.291832	3.0366774	92.71033398	-2.5496631	-16.82777646
0.29	29	-0.046	-1.038	0.143	-5.0420304	0.7448454	3.6096354	92.65876776	-2.58977016	-16.82204688
0.3	30	-0.042	-1.046	0.142	-5.7868758	-0.572958	4.1825934	92.6186607	-2.62414764	-16.83350604
0.31	31	-0.04	-1.054	0.141	-6.5317212	-2.005353	4.870143	92.55563532	-2.67571386	-16.85642436
0.32	32	-0.04	-1.056	0.138	-7.3911582	-4.5263682	6.0733548	92.48115078	-2.73300966	-16.902261
0.33	33	-0.039	-1.053	0.13	-7.9068204	-6.875496	7.161975	92.40666624	-2.79603504	-16.97674554
0.34	34	-0.04	-1.045	0.124	-8.4797784	-8.7662574	8.021412	92.32645212	-2.87051958	-17.06841882
0.35	35	-0.04	-1.033	0.117	-9.2819196	-10.313244	8.5370742	92.24050842	-2.9507337	-17.17728084
0.36	36	-0.042	-1.016	0.107	-10.3705398	-12.032118	8.5370742	92.14310556	-3.02521824	-17.29760202
0.37	37	-0.052	-0.999	0.105	-11.3445684	-14.037471	8.021412	92.03997312	-3.09970278	-17.44084152
0.38	38	-0.066	-0.985	0.108	-12.318597	-15.1260912	7.3338624	91.92538152	-3.16272816	-17.59554018
0.39	39	-0.085	-0.982	0.115	-13.1207382	-15.469866	6.5317212	91.80506034	-3.22002396	-17.75596842
0.4	40	-0.101	-0.982	0.123	-14.2093584	-14.0947668	6.016059	91.67328	-3.27731976	-17.89920792
0.41	41	-0.11	-0.983	0.124	-14.4385416	-12.318597	5.7868758	91.53577008	-3.32888598	-18.0195291
0.42	42	-0.112	-0.99	0.116	-14.6677248	-10.4851314	5.72958	91.39826016	-3.3804522	-18.12839112
0.43	43	-0.113	-0.996	0.113	-15.0687954	-9.453807	5.9014674	91.24929108	-3.437748	-18.22579398
0.44	44	-0.112	-1.003	0.114	-15.183387	-8.5370742	6.3598338	91.100322	-3.50077338	-18.31173768
0.45	45	-0.107	-1.004	0.111	-15.0114996	-7.5057498	6.9327918	90.96281208	-3.56952834	-18.3919518
0.46	46	-0.099	-1	0.108	-14.5531332	-7.3338624	7.2765666	90.81957258	-3.6382833	-18.46643634
0.47	47	-0.092	-0.989	0.112	-13.9801752	-7.734933	7.3911582	90.68779224	-3.71276784	-18.54665046
0.48	48	-0.087	-0.982	0.118	-12.9488508	-8.5370742	7.3338624	90.56174148	-3.7815228	-18.63259416
0.49	49	-0.085	-0.98	0.126	-12.4904844	-9.2246238	7.3338624	90.4414203	-3.85600734	-18.72999702
0.5	50	-0.086	-0.983	0.14	-12.318597	-9.3392154	7.3911582	90.33828786	-3.9247623	-18.82739988
0.51	51	-0.09	-0.99	0.15	-12.0894138	-8.7089616	7.6203414	90.22369626	-3.99924684	-18.91334358
0.52	52	-0.093	-0.997	0.154	-11.6310474	-6.9900876	7.7922288	90.10910466	-4.07946096	-18.98209854
0.53	53	-0.096	-1.003	0.153	-11.6310474	-5.3858052	7.9068204	90.00024264	-4.1539455	-19.03939434
0.54	54	-0.098	-1.004	0.149	-11.6310474	-4.1252976	8.1360036	89.88565104	-4.2398892	-19.08523098
0.55	55	-0.095	-1.001	0.142	-11.745639	-3.437748	8.3651868	89.78824818	-4.32010332	-19.11960846
0.56	56	-0.094	-0.988	0.146	-11.6310474	-2.86479	8.4224826	89.667927	-4.40604702	-19.14825636
0.57	57	-0.094	-0.982	0.15	-11.172681	-2.4064236	8.2505952	89.55906498	-4.49199072	-19.17690426
0.58	58	-0.093	-0.982	0.148	-10.8289062	-2.4064236	8.021412	89.45020296	-4.57220484	-19.19982258
0.59	59	-0.093	-0.984	0.146	-11.1153852	-3.0366774	7.8495246	89.34134094	-4.64668938	-19.22847048
0.6	60	-0.092	-0.986	0.146	-11.6310474	-3.6669312	7.6776372	89.24966766	-4.7269035	-19.26857754
0.61	61	-0.09	-0.982	0.148	-11.745639	-3.724227	7.5057498	89.12934648	-4.80138804	-19.3086846
0.62	62	-0.091	-0.976	0.148	-11.0007936	-2.9793816	6.9900876	89.02048446	-4.870143	-19.3373325
0.63	63	-0.098	-0.974	0.143	-9.7975818	-1.9480572	6.3598338	88.9230816	-4.93316838	-19.36025082
0.64	64	-0.107	-0.976	0.143	-8.4797784	0.1718874	5.6149884	88.8371379	-4.99046418	-19.35452124
0.65	65	-0.116	-0.974	0.147	-7.9068204	2.3491278	4.8128472	88.79130126	-5.04775998	-19.3373325
0.66	66	-0.124	-0.972	0.143	-7.5630456	4.9274388	4.0680018	88.70535756	-5.08786704	-19.28576628
0.67	67	-0.132	-0.973	0.136	-7.5630456	6.9900876	3.3231564	88.62514344	-5.12224452	-19.21701132
0.68	68	-0.138	-0.976	0.133	-7.6203414	8.59437	2.8074942	88.53919974	-5.15089242	-19.13106762
0.69	69	-0.139	-0.979	0.129	-8.021412	9.6829902	2.4064236	88.44752646	-5.17954032	-19.03366476
0.7	70	-0.137	-0.982	0.127	-8.59437	10.5424272	2.0626488	88.37304192	-5.20818822	-18.93053232
0.71	71	-0.134	-0.985	0.129	-8.59437	12.032118	1.6042824	88.26990948	-5.22537696	-18.81594072
0.72	72	-0.133	-0.987	0.132	-8.2505952	14.037471	0.6875496	88.17250662	-5.23110654	-18.67270122
0.73	73	-0.133	-0.986	0.133	-7.8495246	15.5271618	-0.1718874	88.07510376	-5.22537696	-18.52373214
0.74	74	-0.132	-0.985	0.139	-7.6776372	17.3606274	-1.145916	87.9777009	-5.2139178	-18.35184474
0.75	75	-0.131	-0.986	0.145	-7.5630456	19.194093	-2.005353	87.90321636	-5.20245864	-18.1627686
0.76	76	-0.134	-0.993	0.146	-7.734933	20.8556712	-2.8074942	87.8058135	-5.16808116	-17.95650372
0.77	77	-0.14	-1.006	0.15	-7.9641162	22.0015872	-3.437748	87.69695148	-5.13370368	-17.73877968
0.78	78	-0.145	-1.024	0.157	-8.3651868	22.7464326	-3.8388186	87.59381904	-5.09359662	-17.51532606
0.79	79	-0.152	-1.037	0.166	-9.167328	23.3766864	-4.2398892	87.47349786	-5.04775998	-17.28614286
0.8	80	-0.152	-1.04	0.164	-9.9694692	24.9809688	-4.870143	87.36463584	-5.00192334	-17.0455005
0.81	81	-0.153	-1.042	0.16	-10.026765	26.356068	-5.72958	87.23858508	-4.93889796	-16.7876694
0.82	82	-0.155	-1.045	0.159	-10.1413566	27.501984	-6.4171296	87.10680474	-4.870143	-16.51837914
0.83	83	-0.156	-1.045	0.159	-9.8548776	28.8197874	-6.9327918	86.98075398	-4.79565846	-16.23762972
0.84	84	-0.152	-1.045	0.166	-8.9381448	30.080295	-7.2765666	86.8604328	-4.71544434	-15.93969156
0.85	85	-0.149	-1.044	0.168	-8.0787078	31.0543236	-7.9641162	86.76302994	-4.63523022	-15.6417534
0.86	86	-0.148	-1.038	0.169	-6.9327918	31.7418732	-8.880849	86.66562708	-4.53782736	-15.33235608
0.87	87	-0.149	-1.032	0.171	-5.2712136	32.658606	-9.6829902	86.57968338	-4.42896534	-15.0114996
0.88	88	-0.148	-1.024	0.167	-3.151269	34.1482968	-10.7716104	86.516658	-4.31437374	-14.67918396
0.89	89	-0.142	-1.013	0.168	-0.859437	35.6379876	-11.9748222	86.47655094	-4.1825934	-14.33540916
0.9	90	-0.135	-0.997	0.177	1.6615782	36.669312	-13.178034	86.48228052	-4.04508348	-13.9801752
0.91	91	-0.13	-0.98	0.185	3.9534102	37.815228	-14.4958374	86.49373968	-3.88465524	-13.61348208
0.92	92	-0.123	-0.96	0.196	5.9587632	38.7319608	-15.5271618	86.52238758	-3.71849742	-13.2353298
0.93	93	-0.117	-0.948	0.211	8.0787078	39.4195104	-16.3865988	86.5739538	-3.54088044	-12.85717752
0.94	94	-0.112	-0.944	0.225	9.3965112	39.7632852	-17.0741484	86.64270876	-3.35753388	-12.47329566
0.95	95	-0.106	-0.955	0.221	8.880849	39.3622146	-17.3606274	86.72292288	-3.1799169	-12.0894138
0.96	96	-0.097	-0.983	0.197	6.3598338	37.8725238	-17.1314442	86.76302994	-2.99657034	-11.72272068
0.97	97	-0.064	-1.066	0.143	0.7448454	36.7839036	-16.3865988	86.7458412	-2.82468294	-11.36748672
0.98	98	0.006	-1.234	0.018	-10.1986524	35.6952834	-13.464513	86.61979044	-2.68144344	-11.02371192
0.99	99	0.072	-1.355	-0.037	-15.6417534	27.1582092	-8.2505952	86.44790304	-2.58977016	-10.76015124
1	100	0.088	-1.302	0.008	-6.7609044	12.5477802	-6.5317212	86.3734185	-2.50955604	-10.64555964
1.01	101	0.05	-1.112	0.056	4.0680018	2.1199446	-10.313244	86.41352556	-2.4064236	-10.6283709
1.02	102	-0.019	-0.91	0.097	17.4179232	-1.3750992	-16.3865988	86.59114254	-2.24599536	-10.65128922
1.03	103	-0.082	-0.767	0.133	26.6998428	2.8074942	-25.78311	86.8604328	-1.98243468	-10.63410048
1.04	104	-0.099	-0.775	0.156	22.8037284	13.0634424	-34.6066632	87.089616	-1.63865988	-10.51950888
1.05	105	-0.109	-0.845	0.134	14.896908	23.7204612	-40.6227222	87.23858508	-1.2318597	-10.30178484
1.06	106	-0.112	-0.951	0.101	9.9694692	31.8564648	-41.0810886	87.33025836	-0.81932994	-10.00384668
1.07	107	-0.139	-1.056	0.038	5.3858052	38.388186	-36.3255372	87.376095	-0.44690724	-9.63715356
1.08	108	-0.154	-1.105	-0.036	2.9793816	45.3209778	-27.3873924	87.39328374	-0.16615782	-9.20170548
1.09	109	-0.141	-1.087	-0.081	1.145916	51.3370368	-17.18874	87.39901332	0.00572958	-8.69750244
1.1	110	-0.151	-1.043	-0.122	-1.0313244	53.2277982	-7.3338624	87.376095	0.07448454	-8.17611066
1.11	111	-0.181	-0.986	-0.174	-5.8441716	49.3316838	4.0680018	87.30734004	0.04583664	-7.68336678
1.12	112	-0.2	-0.968	-0.166	-13.6364004	41.1383844	14.1520626	87.16410054	-0.0859437	-7.2765666
1.13	113	-0.188	-0.979	-0.105	-16.2720072	35.6952834	18.334656	86.99221314	-0.2578311	-6.91560306
1.14	114	-0.127	-1.008	-0.048	-17.18874	29.9084076	16.615782	86.81459616	-0.41825934	-6.61193532
1.15	115	-0.05	-1.029	-0.029	-15.756345	23.6058696	11.9175264	86.64843834	-0.53285094	-6.37129296
1.16	116	0.027	-1.03	-0.007	-9.740286	18.621135	5.6149884	86.5453059	-0.58441716	-6.1879464
1.17	117	0.092	-1.04	0.023	-0.859437	15.1260912	-0.9740286	86.53384674	-0.56722842	-6.03897732
1.18	118	0.124	-1.053	0.051	8.1360036	11.0580894	-7.6203414	86.61406086	-0.4870143	-5.9301153
1.19	119	0.12	-1.039	0.072	16.1001198	6.3598338	-13.464513	86.7744891	-0.34950438	-5.8728195
1.2	120	0.104	-1	0.093	23.2620948	1.0313244	-17.1314442	87.02659062	-0.16615782	-5.8728195
1.21	121	0.077	-0.966	0.11	24.5798982	-1.718874	-18.1054728	87.27296256	0.01145916	-5.89573782
1.22	122	0.047	-0.944	0.131	23.5485738	-3.3231564	-17.3033316	87.51360492	0.18334656	-5.93584488
1.23	123	0.029	-0.938	0.144	21.2567418	-3.8388186	-15.6417534	87.73132896	0.33804522	-5.97595194
1.24	124	0.021	-0.935	0.145	17.475219	-2.86479	-13.8655836	87.90894594	0.47555514	-6.00459984
1.25	125	0.026	-0.928	0.136	12.6623718	-0.8021412	-12.2613012	88.0636446	0.60733548	-6.02178858
1.26	126	0.045	-0.92	0.121	7.3911582	1.8907614	-10.7716104	88.13812914	0.7161975	-6.00459984
1.27	127	0.071	-0.912	0.103	1.8334656	4.297185	-9.6829902	88.15531788	0.81360036	-5.96449278
1.28	128	0.108	-0.91	0.088	-4.9274388	5.6722842	-8.8235532	88.10375166	0.89954406	-5.90719698
1.29	129	0.141	-0.904	0.075	-9.740286	5.156622	-8.5370742	88.0063488	0.98548776	-5.86136034
1.3	130	0.167	-0.898	0.06	-13.5791046	3.0939732	-8.4224826	87.88029804	1.09434978	-5.83844202
1.31	131	0.181	-0.894	0.049	-16.2720072	-0.572958	-8.1360036	87.71414022	1.1745639	-5.84990118
1.32	132	0.177	-0.885	0.046	-17.8189938	-6.4171296	-7.3911582	87.53079366	1.24331886	-5.91865614
1.33	133	0.164	-0.874	0.046	-18.7930224	-13.4072172	-5.9587632	87.33598794	1.30061466	-6.05616606
1.34	134	0.143	-0.861	0.049	-17.9908812	-19.5378678	-4.4117766	87.15264138	1.33499214	-6.25670136
1.35	135	0.12	-0.845	0.059	-15.1260912	-22.631841	-2.8074942	87.00940188	1.36936962	-6.48015498
1.36	136	0.097	-0.841	0.074	-9.6829902	-23.4339822	-1.9480572	86.90626944	1.38082878	-6.71506776
1.37	137	0.075	-0.844	0.094	-5.3858052	-23.8350528	-1.3178034	86.84897364	1.38655836	-6.95571012
1.38	138	0.05	-0.852	0.122	-0.9740286	-26.356068	0.2291832	86.83751448	1.38082878	-7.21354122
1.39	139	0.028	-0.866	0.152	2.7501984	-29.7365202	2.6929026	86.8604328	1.3464513	-7.5057498
1.4	140	0.01	-0.884	0.165	5.5576926	-32.1429438	5.5003968	86.93491734	1.28342592	-7.8208767
1.41	141	-0.001	-0.9	0.17	7.5057498	-32.3148312	7.734933	87.00940188	1.19748222	-8.1360036
1.42	142	-0.005	-0.924	0.158	9.453807	-29.0489706	9.0527364	87.10107516	1.10007936	-8.41675302
1.43	143	-0.014	-0.987	0.146	10.599723	-24.6944898	8.9381448	87.20993718	1.00840608	-8.65739538
1.44	144	-0.028	-1.071	0.151	9.3965112	-18.907614	8.0787078	87.30161046	0.92246238	-8.84074194
1.45	145	-0.031	-1.148	0.142	6.1879464	-12.891555	7.5057498	87.38182458	0.84224826	-8.9667927
1.46	146	-0.024	-1.194	0.14	2.9220858	-5.9014674	8.021412	87.41620206	0.76203414	-9.01835892
1.47	147	-0.011	-1.223	0.153	0.2291832	-2.4637194	10.026765	87.41620206	0.66463128	-9.04127724
1.48	148	0.015	-1.224	0.187	-1.432395	-1.3178034	13.1207382	87.4047429	0.53285094	-9.04700682
1.49	149	0.047	-1.227	0.22	-2.5210152	-6.1879464	16.902261	87.376095	0.36096354	-9.10430262
1.5	150	0.012	-1.344	-0.051	-12.4331886	-22.2307704	18.9649098	87.25004424	0.16615782	-9.31629708
1.51	151	-0.037	-1.467	0.096	-17.8189938	-20.8556712	11.6883432	87.07242726	0.04583664	-9.51683238
1.52	152	-0.05	-1.424	0.365	5.9587632	-3.2658606	7.3911582	87.13545264	-0.02291832	-9.54548028
1.53	153	0.028	-1.389	0.206	-12.3758928	-13.0061466	6.016059	87.00940188	-0.0859437	-9.67153104
1.54	154	0.073	-1.327	-0.032	-4.5263682	-18.6784308	7.0473834	86.96929482	-0.16042824	-9.8548776
1.55	155	0.075	-1.428	-0.033	10.0840608	-11.2872726	10.8289062	87.07242726	-0.26929026	-9.96373962
1.56	156	0.081	-1.52	0.002	3.3804522	-15.5271618	12.4331886	87.11253432	-0.39534102	-10.10697912
1.57	157	0.084	-1.442	-0.038	-1.3750992	-28.7624916	14.2666542	87.10107516	-0.5443101	-10.38772854
1.58	158	0.076	-1.325	-0.171	-2.0626488	-39.247623	19.9962342	87.089616	-0.75057498	-10.76588082
1.59	159	0.117	-1.182	-0.335	-4.0680018	-54.0872352	26.8717302	87.06669768	-1.0313244	-11.2872726
1.6	160	0.114	-0.937	-0.386	-6.1879464	-79.4692746	31.6272816	87.01513146	-1.35791046	-12.0607659
1.61	161	0.115	-0.71	-0.3	-6.0733548	-91.2149136	29.5646328	86.98648356	-1.67303736	-12.9488508
1.62	162	0.156	-0.544	-0.251	-12.318597	-92.3608296	21.4286292	86.90626944	-1.91367972	-13.84839486
1.63	163	0.189	-0.488	-0.174	-22.345362	-89.3241522	9.9694692	86.72292288	-2.03973048	-14.73075018
1.64	164	0.135	-0.573	-0.073	-30.366774	-81.0162612	-0.5156622	86.45363262	-2.05691922	-15.53862096
1.65	165	0.045	-0.718	-0.032	-39.820581	-69.1560306	-7.7922288	86.08120992	-2.01108258	-16.23190014
1.66	166	-0.07	-0.903	-0.034	-44.3469492	-54.0299394	-12.4904844	85.657221	-1.91367972	-16.77621024
1.67	167	-0.169	-1.066	-0.062	-41.1956802	-39.0184398	-14.037471	85.2561504	-1.79908812	-17.17728084
1.68	168	-0.26	-1.155	-0.06	-27.9030546	-30.2521824	-8.880849	84.98686014	-1.73033316	-17.48667816
1.69	169	-0.293	-1.141	-0.026	-16.902261	-28.9916748	-0.4010706	84.8264319	-1.74179232	-17.77888674
1.7	170	-0.301	-1.052	-0.005	-10.026765	-26.8717302	8.4224826	84.74621778	-1.87357266	-18.03098826
1.71	171	-0.32	-0.938	0.002	-4.3544808	-21.3713334	15.183387	84.7118403	-2.03973048	-18.23152356
1.72	172	-0.342	-0.862	0.018	0.5156622	-15.9282324	19.0222056	84.72329946	-2.2345362	-18.36903348
1.73	173	-0.339	-0.844	0.037	2.291832	-13.3499214	19.7097552	84.75194736	-2.44080108	-18.48362508
1.74	174	-0.321	-0.867	0.058	1.3750992	-11.9175264	17.8762896	84.77486568	-2.62414764	-18.58675752
1.75	175	-0.281	-0.905	0.074	0.1718874	-9.5111028	15.3552744	84.80924316	-2.83041252	-18.66124206
1.76	176	-0.228	-0.945	0.078	-0.7448454	-6.2452422	14.610429	84.80924316	-2.9793816	-18.71280828
1.77	177	-0.174	-0.977	0.092	-2.0626488	-4.2398892	15.0687954	84.78632484	-3.12835068	-18.74145618
1.78	178	-0.129	-0.973	0.106	-2.7501984	-2.8074942	14.9542038	84.76340652	-3.28304934	-18.75864492
1.79	179	-0.09	-0.941	0.102	-2.6356068	-2.3491278	13.6936962	84.73475862	-3.42055926	-18.77010408
1.8	180	-0.061	-0.893	0.09	-1.8907614	-2.4637194	10.7143146	84.75194736	-3.5236917	-18.78729282
1.81	181	-0.042	-0.849	0.08	-0.7448454	-2.9793816	6.589017	84.74621778	-3.59244666	-18.81021114
1.82	182	-0.036	-0.821	0.073	-0.1145916	-4.297185	1.7761698	84.75194736	-3.61536498	-18.8503182
1.83	183	-0.039	-0.804	0.068	-0.9740286	-5.3858052	-3.8388186	84.74621778	-3.5809875	-18.907614
1.84	184	-0.058	-0.807	0.062	-2.578311	-6.0733548	-8.1932994	84.72329946	-3.50077338	-18.97636896
1.85	185	-0.09	-0.82	0.058	-3.7815228	-6.7036086	-11.8602306	84.70611072	-3.39764094	-19.05658308
1.86	186	-0.13	-0.846	0.057	-4.4117766	-6.9327918	-15.1260912	84.66600366	-3.24867186	-19.1367972
1.87	187	-0.172	-0.875	0.066	-4.7555514	-6.016059	-17.8189938	84.62016702	-3.07678446	-19.21128174
1.88	188	-0.207	-0.899	0.076	-4.8128472	-4.297185	-20.1108258	84.57433038	-2.88197874	-19.27430712
1.89	189	-0.231	-0.915	0.083	-3.6669312	-1.6615782	-21.7151082	84.5399529	-2.66998428	-19.31441418
1.9	190	-0.243	-0.924	0.091	-1.6042824	1.0313244	-22.6891368	84.55714164	-2.48663772	-19.32014376
1.91	191	-0.241	-0.933	0.095	1.3178034	4.6982556	-23.1475032	84.5686008	-2.25172494	-19.29149586
1.92	192	-0.228	-0.943	0.114	5.3858052	8.6516658	-23.1475032	84.62016702	-2.01681216	-19.22847048
1.93	193	-0.209	-0.958	0.15	8.9381448	12.0894138	-23.3766864	84.70038114	-1.7761698	-19.12533804
1.94	194	-0.2	-0.98	0.176	11.3445684	15.0687954	-24.1788276	84.80924316	-1.52979786	-18.99928728
1.95	195	-0.212	-1.011	0.196	12.7769634	17.9335854	-25.0955604	84.95821224	-1.28342592	-18.83885904
1.96	196	-0.242	-1.044	0.205	13.3499214	21.8869956	-25.4393352	85.084263	-1.01986524	-18.64405332
1.97	197	-0.285	-1.083	0.215	13.6364004	27.6165756	-25.496631	85.21604334	-0.75057498	-18.3919518
1.98	198	-0.324	-1.116	0.23	13.464513	35.0077338	-25.3820394	85.34782368	-0.47555514	-18.06536574
1.99	199	-0.346	-1.134	0.244	13.464513	42.685371	-24.7517856	85.47387444	-0.20626488	-17.65856556
2	200	-0.34	-1.136	0.268	13.750992	49.6754586	-23.204799	85.61711394	0.0286479	-17.18301042
2.01	201	-0.308	-1.129	0.295	13.8082878	53.2277982	-20.8556712	85.75462386	0.26356068	-16.6730778
2.02	202	-0.26	-1.117	0.318	13.750992	54.8320806	-18.6784308	85.8864042	0.46982556	-16.14022686
2.03	203	-0.212	-1.11	0.327	13.4072172	55.2331512	-16.7876694	86.02391412	0.66463128	-15.60737592
2.04	204	-0.167	-1.119	0.319	13.2926256	54.2018268	-14.896908	86.15569446	0.83651868	-15.08025456
2.05	205	-0.126	-1.136	0.296	13.8655836	52.0818822	-12.4331886	86.3161227	0.9740286	-14.57032194
2.06	206	-0.088	-1.168	0.234	13.6936962	48.5868384	-9.3965112	86.4593622	1.08289062	-14.0947668
2.07	207	-0.041	-1.225	0.153	11.9175264	43.4875122	-5.2712136	86.57968338	1.15164558	-13.6650483
2.08	208	0.021	-1.281	0.068	8.59437	37.3568616	-1.2605076	86.67135666	1.1745639	-13.2926256
2.09	209	0.088	-1.311	0.015	5.8441716	32.2575354	1.7761698	86.73438204	1.16883432	-12.97176912
2.1	210	0.16	-1.278	-0.02	4.1252976	28.5333084	2.291832	86.78021868	1.16310474	-12.6910197
2.11	211	0.183	-1.198	-0.05	3.724227	24.5226024	3.2085648	86.81459616	1.14018642	-12.44464776
2.12	212	0.151	-1.096	-0.101	2.8074942	21.3140376	2.4637194	86.84897364	1.12299768	-12.2326533
2.13	213	0.091	-0.995	-0.156	3.0939732	17.8189938	-0.572958	86.87762154	1.13445684	-12.0607659
2.14	214	0.082	-0.954	-0.199	3.7815228	14.2093584	-5.6722842	86.9177286	1.19175264	-11.9175264
2.15	215	0.07	-0.951	-0.265	1.6615782	15.0114996	-10.1986524	86.88335112	1.30634424	-11.7742869
2.16	216	0.079	-0.972	-0.329	-0.9167328	23.0329116	-11.5737516	86.87762154	1.42666542	-11.55656286
2.17	217	0.087	-1.017	-0.385	-5.8441716	33.4607472	-10.0840608	86.82032574	1.53552744	-11.2299768
2.18	218	0.064	-1.068	-0.482	-12.4904844	42.2270046	-7.2192708	86.70000456	1.62147114	-10.81744704
2.19	219	0.015	-1.122	-0.539	-21.3140376	41.7686382	-1.8334656	86.49373968	1.65011904	-10.40491728
2.2	220	-0.033	-1.156	-0.536	-31.9710564	29.8511118	4.2398892	86.14996488	1.61001198	-10.1127087
2.21	221	-0.052	-1.131	-0.507	-37.8725238	11.9175264	9.3392154	85.76608302	1.5183387	-9.99238752
2.22	222	-0.036	-1.055	-0.457	-35.8671708	-7.734933	11.6883432	85.40511948	1.39801752	-10.06687206
2.23	223	0.009	-1.004	-0.403	-25.8404058	-29.8511118	9.7975818	85.1415588	1.28342592	-10.35335106
2.24	224	0.046	-0.993	-0.347	-13.8655836	-50.993262	4.1252976	84.99258972	1.20894138	-10.8575541
2.25	225	0.09	-1.003	-0.269	-4.297185	-64.3431834	-3.5523396	84.93529392	1.21467096	-11.49353748
2.26	226	0.121	-1.023	-0.184	4.4690724	-75.0002022	-12.4331886	84.9696714	1.2891555	-12.24411246
2.27	227	0.152	-1.031	-0.099	11.6310474	-81.073557	-21.3713334	85.07853342	1.45531332	-13.0634424
2.28	228	0.186	-1.018	-0.032	16.5584862	-80.8443738	-28.8770832	85.23896166	1.69595568	-13.88277234
2.29	229	0.214	-0.994	0.009	18.4492476	-75.343977	-33.5753388	85.41084906	1.99389384	-14.65053606
2.3	230	0.21	-0.994	0.03	15.9855282	-66.5777196	-35.1796212	85.55981814	2.31475032	-15.33235608
2.31	231	0.171	-0.994	0.039	8.5370742	-56.7801378	-33.6899304	85.6285731	2.62414764	-15.92250282
2.32	232	0.113	-0.984	0.045	-0.6875496	-46.982556	-30.4240698	85.60565478	2.90489706	-16.40951712
2.33	233	0.059	-0.971	0.044	-6.1879464	-41.1383844	-27.788463	85.51971108	3.15699858	-16.83350604
2.34	234	0.032	-0.948	0.036	-9.3392154	-38.2162986	-25.5539268	85.41084906	3.39191136	-17.23457664
2.35	235	0.004	-0.925	0.034	-10.3705398	-37.7579322	-23.4339822	85.29052788	3.59817624	-17.62418808
2.36	236	0.014	-0.903	0.028	-11.0007936	-39.1330314	-21.6578124	85.15874754	3.79298196	-18.03098826
2.37	237	0.035	-0.885	0.012	-11.6883432	-41.7113424	-20.1681216	85.01550804	3.96486936	-18.46070676
2.38	238	0.074	-0.879	-0.01	-13.0634424	-45.3782736	-19.5951636	84.8550798	4.13102718	-18.93053232
2.39	239	0.098	-0.888	-0.02	-14.4958374	-49.7327544	-19.3659804	84.67746282	4.29145542	-19.44046494
2.4	240	0.126	-0.894	-0.021	-15.1260912	-55.3477428	-18.9649098	84.48838668	4.44615408	-20.00769336
2.41	241	0.136	-0.895	-0.016	-15.8136408	-59.7595194	-18.3919518	84.28785138	4.583664	-20.61502884
2.42	242	0.144	-0.888	-0.007	-16.7876694	-62.2805346	-17.7044022	84.07585692	4.70971476	-21.25101222
2.43	243	0.149	-0.883	0.006	-13.9801752	-63.1972674	-16.7303736	83.88678078	4.83003594	-21.89845476
2.44	244	0.144	-0.895	0.026	-12.032118	-63.7129296	-15.9855282	83.71489338	4.93316838	-22.5458973
2.45	245	0.131	-0.911	0.041	-11.745639	-65.030733	-16.1574156	83.55446514	5.0420304	-23.204799
2.46	246	0.113	-0.928	0.059	-9.740286	-66.0047616	-16.329303	83.40549606	5.14516284	-23.88088944
2.47	247	0.091	-0.937	0.075	-6.9327918	-66.9214944	-15.8136408	83.2794453	5.2425657	-24.55697988
2.48	248	0.062	-0.954	0.101	-4.1825934	-66.5204238	-14.1520626	83.18777202	5.32277982	-25.23307032
2.49	249	0.053	-0.961	0.123	-1.9480572	-66.5204238	-11.8029348	83.11328748	5.38007562	-25.90343118
2.5	250	0.049	-0.964	0.135	-0.286479	-67.895523	-9.6256944	83.07318042	5.40872352	-26.5852512
2.51	251	0.044	-0.959	0.137	0.859437	-68.9268474	-7.3338624	83.0216142	5.42018268	-27.27853038
2.52	252	0.037	-0.947	0.118	2.6929026	-67.2079734	-4.5263682	82.99869588	5.40299394	-27.94889124
2.53	253	0.036	-0.936	0.098	4.5263682	-65.7182826	-1.2605076	82.9929663	5.35142772	-28.59633378
2.54	254	0.036	-0.926	0.098	5.7868758	-66.2912406	2.5210152	82.99869588	5.26548402	-29.2495059
2.55	255	0.035	-0.911	0.101	8.9381448	-67.7809314	7.161975	83.0502621	5.13370368	-29.9084076
2.56	256	0.045	-0.887	0.111	12.9488508	-71.2186794	11.6883432	83.1362058	4.95035712	-30.5959572
2.57	257	0.065	-0.871	0.12	16.615782	-76.0888224	15.6417534	83.2507974	4.73263308	-31.32934344
2.58	258	0.086	-0.852	0.129	19.6524594	-82.4486562	19.5951636	83.39976648	4.4690724	-32.12002548
2.59	259	0.105	-0.835	0.139	22.2307704	-89.5533354	23.3766864	83.57165388	4.15967508	-32.97946248
2.6	260	0.126	-0.837	0.163	26.6998428	-95.0537322	25.6685184	83.80656666	3.8388186	-33.88473612
2.61	261	0.149	-0.861	0.203	29.9657034	-98.4914802	25.8977016	84.06439776	3.50650296	-34.83011682
2.62	262	0.176	-0.903	0.253	31.4553942	-100.0957626	24.6944898	84.3394176	3.19137606	-35.78695668
2.63	263	0.191	-0.951	0.266	30.3094782	-100.6114248	23.1475032	84.60870786	2.89916748	-36.76098528
2.64	264	0.194	-0.995	0.273	28.4187168	-100.26765	22.4599536	84.86653896	2.61841806	-37.72355472
2.65	265	0.185	-1.032	0.274	27.7311672	-100.840608	22.9756158	85.13009964	2.33766864	-38.69758332
2.66	266	0.164	-1.057	0.267	26.9863218	-101.9292282	24.350715	85.38220116	2.03973048	-39.68307108
2.67	267	0.131	-1.079	0.238	25.0955604	-103.9345812	25.6112226	85.61711394	1.73606274	-40.69147716
2.68	268	0.086	-1.105	0.18	21.6005166	-106.570188	26.4133638	85.82337882	1.432395	-41.72280156
2.69	269	0.028	-1.153	0.116	17.3606274	-108.1744704	26.1268848	85.98953664	1.12299768	-42.7713147
2.7	270	-0.049	-1.216	0.074	13.5218088	-106.1118216	23.9496444	86.13277614	0.84224826	-43.8026391
2.71	271	-0.129	-1.259	0.065	12.7769634	-98.6633676	19.5378678	86.2588269	0.61306506	-44.75947896
2.72	272	-0.202	-1.277	0.043	14.610429	-88.522011	13.9801752	86.41352556	0.44117766	-45.62464554
2.73	273	-0.243	-1.267	0.024	16.7876694	-79.5265704	9.167328	86.59114254	0.32658606	-46.40386842
2.74	274	-0.238	-1.256	-0.037	19.5951636	-72.192708	5.5576926	86.79740742	0.25210152	-47.11433634
2.75	275	-0.209	-1.267	-0.055	18.4492476	-68.182002	4.297185	86.98648356	0.18907614	-47.7846972
2.76	276	-0.125	-1.221	-0.052	11.0580894	-64.9161414	5.2139178	87.10680474	0.12032118	-48.42068058
2.77	277	0	-1.187	-0.065	4.5263682	-63.5410422	9.9694692	87.16410054	0.00572958	-49.0452048
2.78	278	0.134	-1.159	-0.12	-2.9793816	-63.8275212	16.615782	87.14118222	-0.16615782	-49.66399944
2.79	279	0.203	-1.092	-0.178	-9.6256944	-69.900876	24.2361234	87.05523852	-0.42398892	-50.34581946
2.8	280	0.247	-1.035	-0.213	-13.178034	-80.4433032	30.5386614	86.93491734	-0.73338624	-51.13077192
2.81	281	0.24	-0.944	-0.236	-15.4125702	-90.9284346	35.6379876	86.803137	-1.11153852	-52.01312724
2.82	282	0.236	-0.872	-0.233	-17.8189938	-101.127087	37.3568616	86.6598975	-1.51260912	-52.99288542
2.83	283	0.227	-0.818	-0.166	-20.626488	-111.0965562	35.5806918	86.49946926	-1.90222056	-54.07577604
2.84	284	0.208	-0.787	-0.087	-24.637194	-119.0033766	30.7678446	86.30466354	-2.25172494	-55.2331512
2.85	285	0.174	-0.785	-0.043	-29.0489706	-125.477802	24.7517856	86.08120992	-2.54393352	-56.4650109
2.86	286	0.11	-0.821	-0.021	-33.231564	-129.202029	17.9908812	85.81764924	-2.7788463	-57.73697766
2.87	287	0.04	-0.887	-0.033	-37.7579322	-128.2852962	11.3445684	85.51971108	-2.95646328	-58.99748526
2.88	288	-0.02	-0.972	-0.067	-40.9092012	-123.0713784	6.6463128	85.18166586	-3.08824362	-60.21215622
2.89	289	-0.06	-1.043	-0.089	-40.680018	-116.9407278	4.7555514	84.84935022	-3.2085648	-61.36953138
2.9	290	-0.089	-1.076	-0.077	-35.6952834	-113.159205	6.2452422	84.56287122	-3.34607472	-62.48679948
2.91	291	-0.095	-1.056	-0.076	-29.3354496	-111.2111478	11.5164558	84.35087676	-3.54088044	-63.58114926
2.92	292	-0.103	-1.008	-0.082	-26.5279554	-111.8414016	19.5951636	84.16180062	-3.81590028	-64.66976946
2.93	293	-0.114	-0.939	-0.065	-26.642547	-113.1019092	28.1322378	83.98418364	-4.1825934	-65.75838966
2.94	294	-0.104	-0.861	-0.013	-27.501984	-114.1332336	35.7525792	83.80656666	-4.62377106	-66.85273944
2.95	295	-0.093	-0.836	0.047	-26.929026	-115.9666992	40.8519054	83.64613842	-5.1279741	-67.95854838
2.96	296	-0.065	-0.821	0.098	-28.074942	-117.45639	42.4561878	83.48571018	-5.6436363	-69.08154606
2.97	297	-0.033	-0.813	0.138	-29.2781538	-119.1179682	42.2843004	83.31955236	-6.16502808	-70.2160029
2.98	298	-0.025	-0.812	0.159	-31.1689152	-118.1439396	41.1956802	83.14766496	-6.68069028	-71.33900058
2.99	299	-0.002	-0.802	0.152	-29.6792244	-117.45639	39.7632852	82.99869588	-7.18489332	-72.46199826
3	300	0.023	-0.77	0.143	-27.7311672	-118.5450102	38.4454818	82.88983386	-7.67190762	-73.5964551
3.01	301	0.023	-0.71	0.144	-25.7258142	-119.461743	37.7006364	82.79816058	-8.1646515	-74.7423711
3.02	302	-0.012	-0.639	0.115	-22.91832	-118.6596018	38.5027776	82.75232394	-8.65739538	-75.87682794
3.03	303	-0.046	-0.573	0.088	-18.8503182	-115.0499664	41.252976	82.74659436	-9.17878716	-76.97117772
3.04	304	-0.079	-0.514	0.074	-14.8396122	-111.3830352	44.404245	82.78097184	-9.72882684	-78.03115002
3.05	305	-0.113	-0.469	0.077	-10.3705398	-108.6328368	47.7274014	82.8783747	-10.30751442	-79.05674484
3.06	306	-0.149	-0.428	0.146	-5.6722842	-107.0285544	50.8786704	83.0216142	-10.90912032	-80.06515092
3.07	307	-0.189	-0.386	0.21	-1.0886202	-106.283709	54.0872352	83.2221495	-11.53937412	-81.073557
3.08	308	-0.203	-0.337	0.232	2.8074942	-104.9659056	57.4103916	83.46852144	-12.19827582	-82.05904476
3.09	309	-0.184	-0.302	0.24	7.9641162	-99.694692	58.8427866	83.7664596	-12.8629071	-82.99869588
3.1	310	-0.155	-0.301	0.252	11.745639	-90.6992514	58.2125328	84.1102344	-13.51034964	-83.85813288
3.11	311	-0.115	-0.323	0.222	15.6417534	-76.4325972	55.290447	84.44827962	-14.10622596	-84.58005996
3.12	312	-0.067	-0.359	0.188	18.907614	-66.176649	51.9672906	84.80924316	-14.66199522	-85.20458418
3.13	313	-0.042	-0.415	0.177	21.4286292	-59.4157446	48.987909	85.17593628	-15.183387	-85.76608302
3.14	314	-0.017	-0.48	0.123	22.0015872	-56.4936588	47.1544434	85.55408856	-15.67613088	-86.30466354
3.15	315	0.03	-0.546	0.099	20.626488	-55.2331512	46.2950064	85.92078168	-16.14595644	-86.83751448
3.16	316	0.07	-0.643	0.092	18.3919518	-52.9413192	45.7793442	86.26455648	-16.62151158	-87.3474471
3.17	317	0.124	-0.765	0.024	13.2926256	-50.4775998	46.2950064	86.55103548	-17.09706672	-87.84019098
3.18	318	0.167	-0.89	-0.023	5.0420304	-53.8007562	48.3003594	86.76302994	-17.5898106	-88.36731234
3.19	319	0.11	-0.977	0.074	2.7501984	-69.900876	52.8840234	87.01513146	-18.1341207	-89.0663211
3.2	320	0.022	-0.946	0.116	6.4744254	-84.3394176	57.1812084	87.37036542	-18.70134912	-89.91429894
3.21	321	0.033	-0.904	0.067	5.7868758	-88.0636446	59.6449278	87.73705854	-19.3086846	-90.813843
3.22	322	0.137	-0.823	-0.008	-0.3437748	-84.2821218	56.3790672	88.0349967	-19.87591302	-91.67900958
3.23	323	0.211	-0.819	-0.056	-5.2712136	-83.07891	47.3263308	88.28709822	-20.35146816	-92.53844658
3.24	324	0.249	-0.836	-0.058	-10.6570188	-88.4074194	37.2995658	88.51628142	-20.71816128	-93.46090896
3.25	325	0.272	-0.836	-0.091	-11.9175264	-98.6633676	28.8770832	88.77411252	-20.97599238	-94.49796294
3.26	326	0.278	-0.796	-0.09	-12.032118	-108.7474284	21.485925	89.07778026	-21.17652768	-95.64960852
3.27	327	0.257	-0.731	-0.061	-13.464513	-114.305121	13.6936962	89.39863674	-21.29684886	-96.86427948
3.28	328	0.187	-0.679	-0.08	-15.0114996	-111.440331	5.9587632	89.69084532	-21.33695592	-98.04457296
3.29	329	0.066	-0.669	-0.079	-21.9442914	-105.0232014	-0.4010706	89.88565104	-21.30830802	-99.16184106
3.3	330	-0.07	-0.684	-0.076	-26.8144344	-100.7260164	-5.6149884	90.0117018	-21.22236432	-100.2332725
3.31	331	-0.166	-0.699	-0.117	-26.2414764	-95.4548028	-10.7716104	90.12056382	-21.09058398	-101.2474082
3.32	332	-0.233	-0.741	-0.157	-26.929026	-87.4906866	-16.2147114	90.19504836	-20.90723742	-102.1756001
3.33	333	-0.274	-0.776	-0.136	-32.0283522	-78.6098376	-20.7410796	90.17213004	-20.67805422	-103.0121188
3.34	334	-0.35	-0.754	-0.133	-34.5493674	-71.5051584	-21.9442914	90.0976455	-20.44314144	-103.7684234
3.35	335	-0.41	-0.706	-0.167	-38.2735944	-60.9627312	-19.4232762	89.93148768	-20.24260614	-104.4101363
3.36	336	-0.405	-0.658	-0.132	-39.9351726	-58.0979412	-14.896908	89.74241154	-20.0821779	-105.028931
3.37	337	-0.36	-0.623	-0.129	-39.3049188	-65.0880288	-8.3651868	89.58771288	-19.99050462	-105.7164806
3.38	338	-0.273	-0.636	-0.195	-41.4248634	-64.744254	-2.6929026	89.4100959	-19.95039756	-106.4040302
3.39	339	-0.159	-0.715	-0.267	-47.3836266	-49.6754586	1.145916	89.11788732	-19.96185672	-106.9311515
3.4	340	-0.048	-0.795	-0.234	-49.1025006	-41.1383844	5.3285094	88.75692378	-19.9962342	-107.3665996
3.41	341	0.029	-0.878	-0.227	-47.0971476	-50.8786704	13.0061466	88.47044478	-20.12801454	-107.9051801
3.42	342	0.125	-0.932	-0.254	-47.555514	-63.4264506	22.2307704	88.22980242	-20.35146816	-108.575541
3.43	343	0.259	-1.026	-0.32	-42.8572584	-78.6098376	30.9970278	88.0922925	-20.66659506	-109.4006005
3.44	344	0.328	-0.933	-0.236	-35.1796212	-97.8039306	38.961144	88.11521082	-21.06193608	-110.4261953
3.45	345	0.335	-0.91	-0.119	-17.3606274	-119.9774052	49.274388	88.41314898	-21.53176164	-111.6867029
3.46	346	0.372	-0.814	0.001	-18.7930224	-138.4266528	62.2232388	88.78557168	-22.1448267	-113.1477458
3.47	347	0.401	-0.685	0.048	-19.9962342	-159.5115072	77.8076964	89.25539724	-22.90113126	-114.8437015
3.48	348	0.395	-0.568	0.045	-21.8296998	-181.2266154	94.5953658	89.82835524	-23.8064049	-116.7917587
3.49	349	0.367	-0.464	0.052	-23.0902074	-200.7071874	111.7841058	90.527364	-24.86064762	-118.9804583
3.5	350	0.25	-0.377	0.036	-22.631841	-219.0991392	132.5824812	91.36961226	-26.069589	-121.4098002
3.51	351	-0.045	-0.315	0.091	-2.578311	-240.4704726	161.4595644	92.60720154	-27.52490232	-124.1313507
3.52	352	-0.393	-0.376	0.286	22.9756158	-227.2924386	188.0448156	94.14272898	-29.1922101	-126.801335
3.53	353	-0.746	-0.452	0.418	42.2270046	-192.9722544	209.2442616	95.80430718	-31.04286444	-129.202029
3.54	354	-1.032	-0.564	0.512	50.1911208	-164.2670586	225.1151982	97.50599244	-33.02529912	-131.4021877
3.55	355	-1.301	-0.689	0.597	47.2117392	-144.3281202	233.193906	99.19048896	-35.07075918	-133.5106732
3.56	356	-1.57	-0.809	0.648	48.5295426	-139.4579772	237.8348658	100.9953067	-37.11621924	-135.6936431
3.57	357	-1.693	-0.828	0.787	49.3316838	-147.1929102	242.647713	103.023578	-39.12730182	-138.1287146
3.58	358	-1.509	-0.659	0.895	53.6288688	-155.2143222	258.0602832	105.3669762	-41.18995062	-140.878913
3.59	359	-1.331	-0.521	0.891	77.9795838	-152.2349406	273.4155576	108.1916591	-43.30989522	-143.8640242
3.6	360	-1.639	-0.488	0.874	97.5174516	-147.9950514	286.8227748	111.4804381	-45.44702856	-147.1126961
3.61	361	-1.943	-0.466	0.9	112.7008386	-149.7139254	297.5943852	115.2906088	-47.53259568	-150.756709
3.62	362	-2.411	-0.445	1.081	118.315827	-138.4839486	293.5263834	119.3700697	-49.45200498	-154.5668797
3.63	363	-2.665	-0.535	1.142	119.6909262	-114.6488958	269.003781	123.4151532	-51.11358318	-158.2166221
3.64	364	-3.237	-0.834	1.003	111.6122184	-74.1407652	230.7874824	126.9732224	-52.54597818	-161.287677
3.65	365	-2.994	-0.84	0.813	63.6556338	-0.9167328	196.811073	129.2478656	-54.07577604	-163.3159483
3.66	366	-2.533	0.187	0.804	21.3713334	74.771019	231.3604404	130.7891227	-56.3217714	-164.9374195
3.67	367	-2.148	0.423	1.468	162.0325224	-10.5424272	267.0557238	135.3441388	-58.1838849	-168.380897
3.68	368	-2.133	0.125	1.257	218.7553644	-54.5456016	255.6538596	141.2398766	-59.46158124	-172.6608933
3.69	369	-1.777	0.017	1.246	206.1502884	-76.7190762	241.215318	147.3877159	-60.23507454	-177.3362306
3.7	370	-1.859	0.038	1.138	189.7063938	-76.776372	229.4123832	153.4209637	-60.69917052	177.9550252
3.71	371	-1.727	-0.048	1.102	173.606274	-69.614397	223.5109158	159.2708648	-60.95700162	173.2911471
3.72	372	-1.55	-0.117	1.018	140.5465974	-67.0933818	214.1144046	164.6681292	-60.98564952	168.7647789
3.73	373	-1.377	-0.021	0.827	112.1278806	-50.8786704	210.562065	169.6471342	-60.95700162	164.3816502
3.74	374	-1.162	0.033	0.809	105.5388636	-55.863405	210.7339524	174.5401955	-60.7049001	160.0271694
3.75	375	-1.098	0.004	0.863	118.602306	-67.3798608	206.0356968	179.3645019	-60.14913084	155.8732239
3.76	376	-1.157	0.06	0.858	86.0009958	-65.1453246	198.3007638	-176.4309569	-59.46158124	152.0401349
3.77	377	-1.159	0.258	0.889	68.182002	-65.2026204	193.659804	-172.6723525	-58.6422513	148.4820657
3.78	378	-1.238	-0.012	0.951	68.6403684	-63.9421128	184.0341096	-169.2517932	-57.73697766	145.2906896
3.79	379	-1.241	-0.209	0.942	52.2537696	-59.2438572	177.3877968	-166.2552229	-56.79159696	142.3743334
3.8	380	-1.12	0.014	0.844	19.767051	-64.9734372	169.5382722	-163.8889063	-55.73735424	139.7845633
3.81	381	-0.989	-0.024	0.648	-1.5469866	-71.5051584	156.990492	-162.078359	-54.60862698	137.5729454
3.82	382	-0.476	0.325	0.589	-25.78311	-81.646515	149.4274464	-160.7720148	-53.3710377	135.6535361
3.83	383	-0.628	0.479	0.373	-23.1475032	-106.1691174	152.6360112	-159.6260988	-51.87561732	133.9346621
3.84	384	-0.47	0.287	0.464	-16.5584862	-116.3677698	144.2708244	-158.6635294	-50.29425324	132.5022671
3.85	385	-0.557	0.218	0.473	-22.8610242	-124.7329566	136.8223704	-157.958791	-48.64986378	131.3047849
3.86	386	-0.466	0.555	0.475	-25.2674478	-132.066819	128.7436626	-157.4717767	-46.96536726	130.3307563
3.87	387	-0.476	0.441	0.508	-27.2728008	-134.1294678	117.169911	-157.1795681	-45.30378906	129.5687221
3.88	388	-0.415	0.68	0.471	-20.6837838	-137.6245116	111.0965562	-156.9274666	-43.6307517	128.9384683
3.89	389	-0.503	0.508	0.566	-16.4438946	-141.4633302	92.9910834	-156.8300638	-41.99209182	128.5775048
3.9	390	-0.53	0.354	0.628	-17.4179232	-141.8644008	71.5624542	-156.921737	-40.43364606	128.4801019
3.91	391	-0.53	0.385	0.704	-15.3552744	-135.8483418	51.1078536	-157.1337315	-39.00698064	128.6004231
3.92	392	-0.546	0.335	0.769	-15.0687954	-129.4312122	35.7525792	-157.4259401	-37.7006364	128.8525246
3.93	393	-0.531	0.291	0.774	-20.6837838	-119.6336304	29.2781538	-157.7754445	-36.50888376	129.1218149
3.94	394	-0.52	0.321	0.803	-19.2513888	-112.3570638	22.91832	-158.1249488	-35.40307482	129.4082939
3.95	395	-0.497	0.307	0.79	-25.0382646	-100.9551996	18.2773602	-158.5260194	-34.4061279	129.6833137
3.96	396	-0.453	0.298	0.744	-21.485925	-94.7672532	14.8396122	-158.8812534	-33.4893951	129.9583336
3.97	397	-0.481	0.307	0.746	-21.485925	-92.246238	13.1207382	-159.2364874	-32.59558062	130.2276238
3.98	398	-0.492	0.293	0.801	-23.491278	-87.7198698	10.7143146	-159.6031805	-31.75333236	130.4911845
3.99	399	-0.507	0.284	0.835	-29.793816	-79.5838662	7.8495246	-160.0271694	-30.99129822	130.7490156
4	400	-0.523	0.29	0.885	-33.8618178	-75.0002022	4.870143	-160.496995	-30.27510072	131.0068467
4.01	401	-0.512	0.276	0.923	-34.2055926	-67.4371566	2.6356068	-160.9610909	-29.63911734	131.2532186
4.02	402	-0.516	0.254	0.976	-33.3461556	-59.1292656	0.572958	-161.4022686	-29.08334808	131.4766723
4.03	403	-0.523	0.238	1.014	-31.51269	-52.3683612	-0.5156622	-161.8147984	-28.59633378	131.6829371
4.04	404	-0.521	0.223	1.039	-30.5959572	-47.0971476	-1.6615782	-162.2101394	-28.1608857	131.8777429
4.05	405	-0.539	0.224	1.036	-28.4187168	-40.7373138	-2.2345362	-162.5825621	-27.78273342	132.0553598
4.06	406	-0.532	0.217	1.038	-27.0436176	-35.0650296	-2.5210152	-162.9263369	-27.45614736	132.2100585
4.07	407	-0.519	0.197	1.018	-25.8977016	-28.0176462	-2.578311	-163.2414638	-27.19831626	132.3361093
4.08	408	-0.502	0.206	0.946	-25.0955604	-21.4286292	-2.7501984	-163.5394019	-26.99778096	132.4392417
4.09	409	-0.509	0.211	0.982	-23.1475032	-16.5011904	-2.291832	-163.8086922	-26.84881188	132.5194558
4.1	410	-0.454	0.204	1	-20.912967	-9.453807	-3.2085648	-164.0665233	-26.76286818	132.5939404
4.11	411	-0.483	0.195	0.976	-20.3973048	-3.8961144	-3.5523396	-164.2957065	-26.7284907	132.6455066
4.12	412	-0.476	0.197	0.971	-19.5378678	0.572958	-3.724227	-164.5134305	-26.74567944	132.6798841
4.13	413	-0.477	0.202	0.993	-18.1054728	3.437748	-3.8961144	-164.7082363	-26.7857865	132.708532
4.14	414	-0.488	0.196	1.011	-16.7876694	7.448454	-4.2398892	-164.8915828	-26.86600062	132.7314503
4.15	415	-0.468	0.187	0.972	-15.2979786	12.6623718	-4.6982556	-165.0691998	-26.99205138	132.748639
4.16	416	-0.466	0.181	0.943	-14.2093584	14.3812458	-4.6409598	-165.2181689	-27.13529088	132.7543686
4.17	417	-0.472	0.184	0.94	-12.6623718	14.4385416	-4.3544808	-165.3499492	-27.28425996	132.7543686
4.18	418	-0.477	0.183	0.951	-11.5737516	16.042824	-4.4690724	-165.4702704	-27.4446882	132.7543686
4.19	419	-0.477	0.18	0.936	-11.2299768	18.3919518	-4.870143	-165.584862	-27.63376434	132.748639
4.2	420	-0.481	0.18	0.93	-11.2872726	20.1681216	-5.6722842	-165.7166423	-27.83429964	132.7543686
4.21	421	-0.483	0.181	0.923	-11.3445684	21.3713334	-6.5317212	-165.8369635	-28.05202368	132.7600982
4.22	422	-0.496	0.178	0.934	-11.5737516	21.4286292	-7.3338624	-165.9630143	-28.2754773	132.7772869
4.23	423	-0.503	0.189	0.948	-11.5164558	21.7151082	-9.167328	-166.1005242	-28.49893092	132.8116644
4.24	424	-0.503	0.175	0.946	-11.5737516	21.8296998	-9.3965112	-166.2380341	-28.72811412	132.8460419
4.25	425	-0.519	0.176	0.957	-12.1467096	21.4286292	-10.6570188	-166.4041919	-28.95729732	132.9033377
4.26	426	-0.527	0.179	0.973	-12.891555	22.1161788	-11.8029348	-166.5703498	-29.1922101	132.9720926
4.27	427	-0.53	0.18	0.976	-13.8082878	24.2361234	-13.5791046	-166.7536963	-29.45577078	133.0523068
4.28	428	-0.523	0.18	0.954	-14.6677248	26.5852512	-15.756345	-166.9542316	-29.74224978	133.1497096
4.29	429	-0.525	0.165	0.957	-15.183387	28.5906042	-17.9908812	-167.1719557	-30.05737668	133.2643012
4.3	430	-0.526	0.16	0.959	-14.3812458	32.2002396	-19.480572	-167.3896797	-30.40115148	133.3960816
4.31	431	-0.526	0.161	0.954	-12.1467096	39.3622146	-21.6578124	-167.5844854	-30.8251404	133.5278619
4.32	432	-0.531	0.156	0.939	-10.886202	45.0917946	-24.0069402	-167.7792911	-31.3121547	133.676831
4.33	433	-0.54	0.17	0.939	-8.8235532	49.560867	-26.929026	-167.9683673	-31.83927606	133.8429888
4.34	434	-0.548	0.157	0.949	-7.0473834	53.7434604	-29.6219286	-168.1459843	-32.41796364	134.0377945
4.35	435	-0.561	0.161	0.967	-2.4637194	59.587632	-33.6899304	-168.3064125	-33.0596766	134.2669777
4.36	436	-0.575	0.16	0.981	2.4637194	68.2392978	-39.820581	-168.449652	-33.79306284	134.5477271
4.37	437	-0.587	0.19	0.991	12.891555	76.1461182	-49.560867	-168.5413253	-34.62958152	134.9258794
4.38	438	-0.611	0.177	1.02	22.91832	85.4853336	-54.2591226	-168.558514	-35.56350306	135.3384092
4.39	439	-0.6	0.286	1.005	38.5027776	99.8092836	-60.0459984	-168.4439224	-36.65212326	135.7853164
4.4	440	-0.587	0.317	1.007	69.4425096	117.1126152	-65.8328742	-168.0428518	-37.91836044	136.2608716
4.41	441	-0.542	0.251	1.013	94.824549	131.0354946	-68.0674104	-167.3839501	-39.3335667	136.7135084
4.42	442	-0.589	0.316	0.978	100.0384668	137.223441	-68.3538894	-166.662023	-40.81179834	137.1374973
4.43	443	-0.626	0.26	0.943	110.294415	138.4266528	-70.5884256	-165.8484227	-42.3129483	137.5729454
4.44	444	-0.675	0.147	0.877	90.4127724	137.8536948	-75.8023434	-165.2811943	-43.82555742	138.0599597
4.45	445	-0.694	0.151	0.724	67.2652692	137.796399	-83.4226848	-165.0348223	-45.35535528	138.6501064
4.46	446	-0.709	0.09	0.663	63.311859	129.3739164	-93.2775624	-164.9603378	-46.83358692	139.4178701
4.47	447	-0.7	0.099	0.664	58.441716	116.4250656	-101.2989744	-165.0921181	-48.20868612	140.37471
4.48	448	-0.662	0.143	0.661	54.2018268	103.13244	-101.5281576	-165.3442196	-49.45200498	141.4174936
4.49	449	-0.647	0.214	0.68	51.7954032	87.7198698	-94.8818448	-165.6364282	-50.52916602	142.4660067
4.5	450	-0.694	0.18	0.686	59.6449278	80.6724864	-91.1576178	-165.8656114	-51.52611294	143.525979
4.51	451	-0.66	0.135	0.65	65.8328742	81.1881486	-94.3661826	-166.1005242	-52.5402486	144.6547063
4.52	452	-0.659	0.173	0.614	65.0880288	76.0888224	-91.7305758	-166.3698145	-53.49135888	145.8006223
4.53	453	-0.689	0.244	0.608	55.3477428	68.1247062	-85.084263	-166.7078597	-54.35079588	146.9007016
4.54	454	-0.831	0.237	0.634	49.5035712	66.0047616	-79.068204	-167.0688232	-55.17012582	147.9434852
4.55	455	-1.066	0.092	0.573	52.1964738	67.2079734	-79.1254998	-167.4355163	-56.00091492	149.0206462
4.56	456	-1.117	-0.049	0.582	64.2285918	67.7236356	-92.3035338	-167.9053419	-56.85462234	150.3499088
4.57	457	-0.995	0.102	0.596	58.441716	74.3699484	-88.80849	-168.4038154	-57.75989598	151.6390643
4.58	458	-0.799	0.082	0.558	53.9726436	80.3287116	-74.7137232	-168.7590493	-58.68808794	152.6875774
4.59	459	-0.71	-0.046	0.478	55.1185596	81.7611066	-62.165943	-168.9309367	-59.60482074	153.5240961
4.6	460	-0.733	-0.189	0.351	51.3370368	82.4486562	-57.2958	-169.1200129	-60.52728312	154.3147781
4.61	461	-0.751	-0.156	0.298	42.0551172	70.2446508	-51.3943326	-169.3377369	-61.306506	155.0481644
4.62	462	-0.727	-0.12	0.289	34.8358464	60.3897732	-45.8939358	-169.595568	-61.98259644	155.7299844
4.63	463	-0.749	-0.131	0.248	32.4294228	50.2484166	-39.3049188	-169.813292	-62.54409528	156.3430495
4.64	464	-0.719	-0.147	0.245	31.2835068	40.5081306	-32.4867186	-169.9679907	-62.9967321	156.8644412
4.65	465	-0.751	-0.169	0.243	26.5279554	33.231564	-25.8404058	-170.1284189	-63.38634354	157.3285372
4.66	466	-0.742	-0.199	0.243	19.9962342	35.6379876	-22.6891368	-170.2430105	-63.7702254	157.672312
4.67	467	-0.73	-0.175	0.229	9.5683986	40.5081306	-20.2254174	-170.3977092	-64.1999439	157.9473319
4.68	468	-0.701	-0.149	0.237	3.437748	38.4454818	-18.4492476	-170.5925149	-64.60674408	158.1994334
4.69	469	-0.727	-0.129	0.251	2.2345362	27.215505	-16.2147114	-170.7987798	-64.89895266	158.4515349
4.7	470	-0.756	-0.12	0.28	3.0939732	12.6623718	-13.4072172	-171.1024475	-65.06511048	158.7953097
4.71	471	-0.802	-0.117	0.303	4.010706	-1.718874	-8.7089616	-171.2571462	-65.06511048	159.0073042
4.72	472	-0.824	-0.112	0.327	4.1252976	-7.7922288	-4.4117766	-171.3373603	-64.99635552	159.1448141
4.73	473	-0.847	-0.105	0.347	3.3804522	-10.1986524	0	-171.3373603	-64.89895266	159.1849211
4.74	474	-0.865	-0.104	0.37	2.1772404	-10.4278356	4.0680018	-171.2686054	-64.79009064	159.1333549
4.75	475	-0.874	-0.093	0.384	-0.2291832	-9.6829902	8.307891	-171.2800645	-64.69841736	159.1104366
4.76	476	-0.878	-0.081	0.396	-4.297185	-9.167328	13.0634424	-171.0852588	-64.58955534	158.8526055
4.77	477	-0.889	-0.057	0.393	-8.6516658	-9.1100322	17.475219	-170.8446164	-64.47496374	158.4859124
4.78	478	-0.897	-0.029	0.394	-11.6883432	-9.5111028	20.7410796	-170.5695966	-64.3431834	158.0561939
4.79	479	-0.893	-0.015	0.387	-13.3499214	-9.5683986	22.631841	-170.2831176	-64.21140306	157.5863683
4.8	480	-0.87	-0.005	0.363	-15.3552744	-10.8289062	24.2934192	-170.0138273	-64.07389314	157.1108132
4.81	481	-0.827	0.013	0.339	-17.8762896	-13.178034	25.3247436	-169.7388075	-63.90200574	156.6008806
4.82	482	-0.806	0.046	0.321	-20.1681216	-17.1314442	26.2414764	-169.486706	-63.6842817	156.1024071
4.83	483	-0.826	0.058	0.338	-20.7983754	-24.5798982	24.4080108	-169.3148186	-63.3978027	155.6784182
4.84	484	-0.812	0.062	0.384	-23.5485738	-27.6738714	21.0275586	-169.2575228	-63.08840538	155.3461025
4.85	485	-0.805	0.074	0.448	-29.2781538	-25.8977016	19.7097552	-169.2804411	-62.79046722	155.0424348
4.86	486	-0.842	0.088	0.488	-31.799169	-22.2307704	19.8816426	-169.309089	-62.53263612	154.7158487
4.87	487	-0.866	0.07	0.499	-32.4867186	-16.5011904	19.2513888	-169.3377369	-62.3378304	154.3835331
4.88	488	-0.882	0.051	0.508	-32.085648	-14.1520626	18.334656	-169.377844	-62.16021342	154.056947
4.89	489	-0.908	0.044	0.527	-31.799169	-16.1001198	18.5638392	-169.4122214	-61.9654077	153.7360906
4.9	490	-0.932	0.05	0.537	-30.8251404	-20.4546006	20.1108258	-169.4465989	-61.72476534	153.4209637
4.91	491	-0.935	0.057	0.545	-27.9603504	-26.5279554	21.8296998	-169.4294102	-61.4210976	153.0829184
4.92	492	-0.923	0.062	0.56	-25.210152	-33.9191136	22.5745452	-169.4064919	-61.0486749	152.7677915
4.93	493	-0.911	0.07	0.582	-23.7204612	-38.8465524	22.4599536	-169.3893031	-60.63041556	152.4813125
4.94	494	-0.882	0.082	0.586	-22.7464326	-38.4454818	21.199446	-169.3893031	-60.2178858	152.2234814
4.95	495	-0.863	0.097	0.579	-21.0848544	-34.2055926	19.3659804	-169.3950327	-59.83973352	151.9885687
4.96	496	-0.862	0.104	0.578	-19.2513888	-31.7418732	17.3033316	-169.4122214	-59.49595872	151.7823038
4.97	497	-0.87	0.105	0.574	-16.9595568	-31.8564648	15.3552744	-169.4351398	-59.1579135	151.616146
4.98	498	-0.869	0.1	0.575	-14.4385416	-33.0023808	14.2093584	-169.4580581	-58.80840912	151.478636
4.99	499	-0.869	0.094	0.575	-11.6883432	-34.5493674	14.037471	-169.4637877	-58.44744558	151.3525853
5	500	-0.861	0.09	0.581	-8.4797784	-35.4088044	13.9801752	-169.4465989	-58.07502288	151.2379937
5.01	501	-0.845	0.075	0.589	-6.4744254	-36.4401288	12.9488508	-169.4294102	-57.6968706	151.1405908
5.02	502	-0.835	0.071	0.6	-5.72958	-36.1536498	12.891555	-169.4007623	-57.3244479	151.043188
5.03	503	-0.817	0.083	0.605	-4.2398892	-33.231564	12.4331886	-169.3606552	-56.9806731	150.9457851
5.04	504	-0.81	0.088	0.604	-3.151269	-29.6792244	11.172681	-169.3148186	-56.67127578	150.8598414
5.05	505	-0.822	0.101	0.613	-2.7501984	-26.6998428	9.5683986	-169.2919003	-56.3790672	150.8025456
5.06	506	-0.831	0.109	0.623	-1.7761698	-23.777757	7.5057498	-169.2689819	-56.13269526	150.756709
5.07	507	-0.833	0.109	0.633	-1.3178034	-21.5432208	5.2712136	-169.2689819	-55.91497122	150.7452498
5.08	508	-0.833	0.108	0.634	-1.2605076	-19.5951636	3.2658606	-169.2919003	-55.7201655	150.7624385
5.09	509	-0.833	0.105	0.626	-1.5469866	-18.334656	1.7761698	-169.3377369	-55.54254852	150.8025456
5.1	510	-0.836	0.103	0.618	-1.4896908	-18.4492476	0.4583664	-169.417951	-55.3477428	150.8713006
5.11	511	-0.839	0.09	0.61	-0.8021412	-18.9649098	-1.0886202	-169.4924356	-55.17012582	150.9629738
5.12	512	-0.832	0.079	0.605	0	-18.5638392	-2.9793816	-169.5898384	-54.99250884	151.083295
5.13	513	-0.82	0.079	0.596	0.3437748	-18.1627686	-4.010706	-169.6929709	-54.82635102	151.2150754
5.14	514	-0.81	0.08	0.589	0.6302538	-18.5065434	-4.583664	-169.8018329	-54.65446362	151.3583149
5.15	515	-0.807	0.077	0.593	1.2605076	-19.194093	-5.3285094	-169.9336132	-54.47111706	151.5302023
5.16	516	-0.805	0.075	0.6	2.005353	-18.907614	-6.1306506	-170.0424752	-54.29922966	151.6963601
5.17	517	-0.808	0.072	0.612	2.005353	-18.3919518	-6.7609044	-170.1627964	-54.13307184	151.8739771
5.18	518	-0.811	0.071	0.622	1.5469866	-17.7044022	-7.3911582	-170.2945768	-53.97837318	152.0573236
5.19	519	-0.817	0.071	0.629	1.3750992	-15.6417534	-8.1360036	-170.4263571	-53.84086326	152.2406702
5.2	520	-0.822	0.067	0.635	1.6042824	-13.1207382	-8.8235532	-170.5925149	-53.72054208	152.4526646
5.21	521	-0.828	0.065	0.64	1.8334656	-10.7143146	-9.3392154	-170.7242953	-53.6288688	152.6417408
5.22	522	-0.824	0.062	0.642	2.2345362	-9.167328	-9.3965112	-170.850346	-53.55438426	152.8308169
5.23	523	-0.819	0.058	0.64	2.6929026	-8.307891	-9.2819196	-170.9649376	-53.49135888	153.0084339
5.24	524	-0.815	0.053	0.639	3.2085648	-8.1360036	-8.9954406	-171.0680701	-53.42260392	153.1803213
5.25	525	-0.809	0.048	0.635	3.151269	-8.307891	-8.59437	-171.2113096	-53.34811938	153.3865862
5.26	526	-0.801	0.043	0.634	2.9793816	-8.0787078	-8.2505952	-171.3087124	-53.285094	153.5470144
5.27	527	-0.795	0.039	0.631	2.9220858	-7.161975	-7.734933	-171.4003857	-53.22206862	153.6902539
5.28	528	-0.792	0.037	0.63	2.6929026	-6.3598338	-7.2765666	-171.4805998	-53.17623198	153.8334934
5.29	529	-0.793	0.034	0.629	2.4637194	-5.5576926	-6.6463128	-171.5550844	-53.13039534	153.9595442
5.3	530	-0.794	0.034	0.633	2.0626488	-4.7555514	-5.9014674	-171.6983239	-53.07309954	154.1314316
5.31	531	-0.794	0.036	0.635	1.8907614	-3.6096354	-5.2712136	-171.7556197	-53.05018122	154.2288344
5.32	532	-0.795	0.037	0.636	2.005353	-2.1772404	-4.7555514	-171.8014563	-53.03299248	154.3090486
5.33	533	-0.794	0.038	0.635	1.8334656	-1.3178034	-4.1825934	-171.8415634	-53.0272629	154.3835331
5.34	534	-0.791	0.04	0.634	1.8334656	-0.6875496	-3.4950438	-171.8702113	-53.0272629	154.4408289
5.35	535	-0.79	0.043	0.63	1.9480572	-0.2291832	-2.8074942	-172.0420987	-52.99288542	154.6127163
5.36	536	-0.789	0.045	0.627	1.8907614	-0.286479	-2.5210152	-172.0535578	-52.99288542	154.6585529
5.37	537	-0.79	0.045	0.631	1.8334656	-0.4010706	-2.291832	-172.065017	-52.99288542	154.6929304
5.38	538	-0.79	0.042	0.632	1.5469866	0.0572958	-2.005353	-172.0764761	-52.99288542	154.7273079
5.39	539	-0.79	0.04	0.633	1.3178034	1.0313244	-1.718874	-172.0822057	-53.00434458	154.7559558
5.4	540	-0.791	0.039	0.635	1.3750992	1.8907614	-1.2605076	-172.2598227	-52.98142626	154.9106545
5.41	541	-0.793	0.038	0.635	1.3750992	2.4064236	-0.6302538	-172.2483635	-53.01007416	154.916384
5.42	542	-0.796	0.037	0.634	1.2605076	3.0366774	0.1145916	-172.2254452	-53.03872206	154.9049249
5.43	543	-0.799	0.04	0.629	0.9740286	3.2658606	0.859437	-172.1967973	-53.06736996	154.8820066
5.44	544	-0.803	0.043	0.63	0.7448454	3.2085648	1.4896908	-172.1624198	-53.09601786	154.8476291
5.45	545	-0.807	0.045	0.631	0.4010706	3.5523396	1.9480572	-172.2369044	-53.1132066	154.8934657
5.46	546	-0.805	0.045	0.628	0.0572958	3.5523396	2.291832	-172.1967973	-53.1418545	154.8476291
5.47	547	-0.804	0.047	0.626	-0.3437748	3.5523396	2.6356068	-172.1566903	-53.17623198	154.7960629
5.48	548	-0.803	0.049	0.623	-0.5156622	3.8961144	2.9220858	-172.1165832	-53.21060946	154.7330375
5.49	549	-0.8	0.049	0.618	-0.6875496	4.1252976	3.0939732	-172.0764761	-53.24498694	154.6757417
5.5	550	-0.797	0.048	0.615	-0.859437	4.010706	3.2658606	-172.105124	-53.26790526	154.6700121
5.51	551	-0.799	0.049	0.616	-1.2605076	3.2085648	3.6096354	-172.065017	-53.29655316	154.6012571
5.52	552	-0.799	0.051	0.618	-1.4896908	2.3491278	3.8388186	-172.0249099	-53.3137419	154.5267726
5.53	553	-0.798	0.053	0.616	-1.2032118	2.2345362	3.9534102	-171.9790733	-53.33093064	154.4580176
5.54	554	-0.795	0.053	0.608	-0.859437	2.4637194	4.1252976	-171.9275071	-53.34811938	154.3835331
5.55	555	-0.793	0.054	0.604	-0.6302538	2.2345362	4.1825934	-171.9504254	-53.35957854	154.3663444
5.56	556	-0.791	0.056	0.6	-0.3437748	1.5469866	4.297185	-171.8931296	-53.36530812	154.2918598
5.57	557	-0.79	0.058	0.6	-0.2291832	0.5156622	4.3544808	-171.8358338	-53.36530812	154.2173753
5.58	558	-0.789	0.06	0.601	-0.4010706	-0.7448454	4.1252976	-171.7842676	-53.35384896	154.1486203
5.59	559	-0.79	0.063	0.604	-0.6875496	-1.718874	3.8961144	-171.7441605	-53.33093064	154.0913245
5.6	560	-0.791	0.065	0.608	-0.859437	-2.005353	3.4950438	-171.778538	-53.285094	154.0913245
5.61	561	-0.794	0.066	0.611	-1.145916	-1.6042824	2.9220858	-171.7556197	-53.26790526	154.0512175
5.62	562	-0.797	0.066	0.614	-1.2605076	-1.0313244	2.3491278	-171.7384309	-53.25071652	154.0111104
5.63	563	-0.798	0.066	0.617	-1.2605076	-0.572958	1.718874	-171.7327013	-53.24498694	153.9881921
5.64	564	-0.8	0.066	0.615	-1.145916	-0.5156622	1.145916	-171.7269718	-53.23925736	153.9652738
5.65	565	-0.8	0.065	0.615	-0.9167328	-0.9740286	0.6875496	-171.8988592	-53.19342072	154.0970541
5.66	566	-0.8	0.064	0.617	-0.7448454	-1.8334656	0.3437748	-171.9045887	-53.17623198	154.0970541
5.67	567	-0.798	0.063	0.618	-0.6302538	-2.6356068	0.0572958	-171.9160479	-53.15331366	154.1027837
5.68	568	-0.796	0.061	0.615	-0.8021412	-3.0366774	-0.0572958	-171.9332366	-53.11893618	154.1142428
5.69	569	-0.794	0.062	0.614	-0.9740286	-3.3231564	-0.286479	-171.956155	-53.09028828	154.125702
5.7	570	-0.794	0.062	0.615	-0.8021412	-3.724227	-0.5156622	-172.065017	-53.03872206	154.2116457
5.71	571	-0.793	0.061	0.615	-0.6302538	-4.0680018	-0.8021412	-172.0879353	-52.998615	154.2402936
5.72	572	-0.793	0.061	0.616	-0.5156622	-4.6409598	-0.9167328	-172.1165832	-52.95277836	154.2689415
5.73	573	-0.794	0.061	0.619	-0.572958	-4.7555514	-1.145916	-172.1452311	-52.90694172	154.2975894
5.74	574	-0.794	0.059	0.621	-0.4583664	-4.9274388	-1.3178034	-172.1796086	-52.86110508	154.3319669
5.75	575	-0.794	0.057	0.624	-0.6302538	-5.2139178	-1.2605076	-172.2770114	-52.7980797	154.4179106
5.76	576	-0.793	0.057	0.624	-0.8021412	-5.3858052	-1.2605076	-172.3113889	-52.74651348	154.4522881
5.77	577	-0.791	0.055	0.624	-0.6302538	-5.3858052	-1.0886202	-172.3400368	-52.69494726	154.4866655
5.78	578	-0.789	0.057	0.622	-0.5156622	-5.5003968	-1.0886202	-172.3744143	-52.64338104	154.5153134
5.79	579	-0.788	0.056	0.622	-0.4010706	-5.5576926	-1.0313244	-172.4030622	-52.59181482	154.5496909
5.8	580	-0.787	0.055	0.625	-0.6302538	-5.72958	-0.9740286	-172.4947355	-52.52305986	154.629905
5.81	581	-0.787	0.054	0.623	-0.5156622	-5.72958	-0.9740286	-172.5233834	-52.47149364	154.6642825
5.82	582	-0.789	0.054	0.625	-0.2291832	-6.1306506	-0.8021412	-172.5463017	-52.40846826	154.6929304
5.83	583	-0.787	0.053	0.629	-0.1718874	-6.5317212	-0.6875496	-172.56922	-52.34544288	154.7215783
5.84	584	-0.787	0.052	0.632	-0.0572958	-6.6463128	-0.5156622	-172.5921383	-52.2824175	154.7444966
5.85	585	-0.787	0.053	0.633	-0.1145916	-6.4744254	-0.4010706	-172.678082	-52.20220338	154.8247108
5.86	586	-0.788	0.053	0.636	-0.0572958	-6.2452422	-0.2291832	-172.6952708	-52.14490758	154.8418995
5.87	587	-0.789	0.053	0.64	0.1145916	-6.0733548	0	-172.7010004	-52.0818822	154.8590882
5.88	588	-0.79	0.054	0.641	0.3437748	-5.8441716	0.0572958	-172.7124595	-52.0245864	154.8705474
5.89	589	-0.788	0.054	0.642	0.4583664	-5.5003968	0.3437748	-172.7124595	-51.97302018	154.8820066
5.9	590	-0.787	0.055	0.642	0.6302538	-5.2712136	0.572958	-172.7697553	-51.90426522	154.9335728
5.91	591	-0.787	0.056	0.641	0.6875496	-5.0993262	0.572958	-172.7640257	-51.852699	154.9335728
5.92	592	-0.787	0.057	0.641	0.7448454	-4.9274388	0.6302538	-172.7525666	-51.80113278	154.9335728
5.93	593	-0.784	0.057	0.64	0.9167328	-4.9847346	0.6875496	-172.746837	-51.74956656	154.9393024
5.94	594	-0.783	0.056	0.641	0.9167328	-4.7555514	0.6875496	-172.7353778	-51.70372992	154.9393024
5.95	595	-0.782	0.057	0.642	0.9167328	-4.4690724	0.6875496	-172.7926736	-51.64070454	154.9908686
5.96	596	-0.781	0.057	0.644	0.9167328	-4.1825934	0.7448454	-172.7812145	-51.60059748	154.9908686
5.97	597	-0.784	0.058	0.647	0.859437	-3.724227	0.8021412	-172.7697553	-51.56049042	154.985139
5.98	598	-0.784	0.059	0.649	0.859437	-3.2085648	0.9167328	-172.7525666	-51.53184252	154.9794094
5.99	599	-0.781	0.059	0.647	0.859437	-2.7501984	0.9167328	-172.7353778	-51.50319462	154.9736798
6	600	-0.781	0.06	0.644	0.9740286	-2.5210152	0.9740286	-172.8041328	-51.4516284	155.0309756
6.01	601	-0.782	0.06	0.643	1.0886202	-2.3491278	1.0886202	-172.7812145	-51.42871008	155.0195165
6.02	602	-0.781	0.06	0.645	0.9167328	-2.3491278	0.9740286	-172.7640257	-51.40006218	155.0080573
6.03	603	-0.781	0.061	0.647	0.8021412	-1.9480572	0.9740286	-172.746837	-51.38287344	154.9965982
6.04	604	-0.781	0.061	0.644	0.9167328	-1.8334656	0.9167328	-172.7296483	-51.3656847	154.985139
6.05	605	-0.781	0.063	0.646	0.8021412	-1.8907614	0.9740286	-172.7984032	-51.31411848	155.0481644
6.06	606	-0.777	0.063	0.645	0.7448454	-1.9480572	0.7448454	-172.7869441	-51.29692974	155.0367052
6.07	607	-0.774	0.064	0.642	0.7448454	-1.4896908	0.572958	-172.7754849	-51.279741	155.0309756
6.08	608	-0.774	0.063	0.646	0.6302538	-1.2605076	0.3437748	-172.7640257	-51.26828184	155.0309756
6.09	609	-0.778	0.064	0.649	0.286479	-1.4896908	0.1718874	-172.7640257	-51.2510931	155.0309756
6.1	610	-0.781	0.06	0.649	0	-1.9480572	0.1145916	-172.9129948	-51.18806772	155.1512968
6.11	611	-0.78	0.061	0.651	-0.286479	-1.7761698	0.1718874	-172.9129948	-51.17087898	155.1512968
6.12	612	-0.779	0.061	0.648	-0.286479	-1.0886202	0.1718874	-172.9187244	-51.15941982	155.1512968
6.13	613	-0.777	0.063	0.643	-0.1145916	-0.6875496	0.1718874	-172.9187244	-51.15369024	155.1512968
6.14	614	-0.774	0.062	0.643	0.2291832	-0.4583664	0.286479	-172.9129948	-51.14796066	155.1455672
6.15	615	-0.773	0.062	0.643	0.2291832	-0.4010706	0.286479	-173.1822851	-51.06774654	155.3575617
6.16	616	-0.773	0.062	0.642	0	-0.3437748	0.286479	-173.1765555	-51.06201696	155.3575617
6.17	617	-0.775	0.063	0.643	-0.3437748	-0.3437748	0.1718874	-173.1765555	-51.05628738	155.3518321
6.18	618	-0.777	0.064	0.646	-0.7448454	-0.5156622	0.1718874	-173.1822851	-51.0505578	155.3518321
6.19	619	-0.778	0.066	0.646	-0.9740286	-0.572958	0.0572958	-173.1937442	-51.04482822	155.3518321
6.2	620	-0.779	0.064	0.647	-1.145916	-0.1718874	0	-173.3599021	-50.99899158	155.4721533
6.21	621	-0.781	0.063	0.647	-1.0886202	0.1145916	-0.1145916	-173.3713612	-50.99899158	155.4721533
6.22	622	-0.78	0.063	0.646	-0.7448454	0.6875496	-0.1718874	-173.3770908	-51.01045074	155.4721533
6.23	623	-0.777	0.061	0.641	-0.4010706	0.4583664	-0.1718874	-173.3828204	-51.01618032	155.4778829
6.24	624	-0.776	0.061	0.641	-0.4010706	0.0572958	-0.1145916	-173.3942795	-51.01618032	155.4778829
6.25	625	-0.776	0.062	0.643	-0.572958	-0.4010706	-0.0572958	-173.537519	-50.97034368	155.5924745
6.26	626	-0.777	0.062	0.645	-0.6875496	-0.5156622	-0.0572958	-173.5489782	-50.9646141	155.5924745
6.27	627	-0.778	0.062	0.647	-0.8021412	-0.4010706	-0.1145916	-173.5547078	-50.9646141	155.5982041
6.28	628	-0.779	0.062	0.649	-0.9167328	-0.1718874	-0.1145916	-173.5718965	-50.95888452	155.5982041
6.29	629	-0.779	0.063	0.651	-0.859437	0	-0.1145916	-173.5776261	-50.95888452	155.5982041
6.3	630	-0.778	0.063	0.65	-0.6875496	0.4010706	-0.1145916	-173.7265952	-50.9073183	155.7127957
6.31	631	-0.779	0.062	0.649	-0.6302538	0.6875496	-0.2291832	-173.7380543	-50.91877746	155.7185252
6.32	632	-0.778	0.064	0.647	-0.5156622	0.8021412	-0.286479	-173.7437839	-50.92450704	155.7185252
6.33	633	-0.778	0.061	0.647	-0.5156622	0.6875496	-0.3437748	-173.7552431	-50.9359662	155.7242548
6.34	634	-0.777	0.06	0.644	-0.4583664	0.4010706	-0.3437748	-173.7609727	-50.9359662	155.7299844
6.35	635	-0.776	0.06	0.646	-0.6302538	0.286479	-0.286479	-173.8870234	-50.91304788	155.8216577
6.36	636	-0.776	0.06	0.646	-0.6302538	0.4010706	-0.2291832	-173.8984826	-50.91877746	155.8273873
6.37	637	-0.776	0.06	0.646	-0.5156622	0.572958	-0.1718874	-173.9042122	-50.92450704	155.8273873
6.38	638	-0.779	0.061	0.645	-0.4010706	0.4583664	0	-173.9042122	-50.93023662	155.8273873
6.39	639	-0.777	0.06	0.647	-0.3437748	0.5156622	0	-173.9099417	-50.9359662	155.8273873
6.4	640	-0.778	0.063	0.649	-0.2291832	0.572958	0	-174.0302629	-50.88439998	155.9190605
6.41	641	-0.777	0.062	0.648	0	0.7448454	0.1145916	-174.0245333	-50.89585914	155.913331
6.42	642	-0.778	0.062	0.645	0	0.9167328	0.0572958	-174.0245333	-50.90158872	155.913331
6.43	643	-0.778	0.062	0.644	0	0.9740286	0.0572958	-174.0188038	-50.91304788	155.9076014
6.44	644	-0.778	0.061	0.643	0.1145916	0.8021412	0.0572958	-174.0188038	-50.91877746	155.9076014
6.45	645	-0.778	0.06	0.64	0.1718874	0.5156622	0.1145916	-174.1391249	-50.91877746	156.0050042
6.46	646	-0.778	0.062	0.641	0.286479	0.286479	0.2291832	-174.1333954	-50.91877746	155.9992747
6.47	647	-0.777	0.061	0.642	0.4010706	0.0572958	0.2291832	-174.1276658	-50.91877746	155.9935451
6.48	648	-0.777	0.062	0.641	0.4010706	-0.2291832	0.2291832	-174.1219362	-50.91877746	155.9935451
6.49	649	-0.777	0.062	0.64	0.3437748	-0.4583664	0.1718874	-174.1162066	-50.91304788	155.9878155
6.5	650	-0.777	0.062	0.64	0.286479	-0.4583664	0.2291832	-174.1735024	-50.90158872	156.0336521
6.51	651	-0.777	0.062	0.639	0.286479	-0.6875496	0.3437748	-174.1677728	-50.89012956	156.0336521
6.52	652	-0.777	0.062	0.641	0.2291832	-0.9167328	0.286479	-174.1620433	-50.88439998	156.0279226
6.53	653	-0.777	0.063	0.642	0.1718874	-0.9167328	0.3437748	-174.1563137	-50.87294082	156.022193
6.54	654	-0.777	0.064	0.645	0.1145916	-1.0886202	0.286479	-174.1563137	-50.86148166	156.022193
6.55	655	-0.776	0.064	0.646	0.0572958	-1.0313244	0.2291832	-174.2078799	-50.8213746	156.0680296
6.56	656	-0.776	0.065	0.646	0	-1.0313244	0.2291832	-174.2078799	-50.80991544	156.0623
6.57	657	-0.775	0.064	0.643	0	-0.9740286	0.1718874	-174.2021503	-50.79845628	156.0623
6.58	658	-0.776	0.064	0.644	-0.1718874	-0.9740286	0.0572958	-174.2078799	-50.7927267	156.0623
6.59	659	-0.776	0.063	0.644	-0.286479	-0.9740286	0.1145916	-174.2078799	-50.78126754	156.0623
6.6	660	-0.776	0.064	0.645	-0.286479	-1.0886202	0.1718874	-174.247987	-50.75834922	156.0909479
6.61	661	-0.776	0.064	0.646	-0.2291832	-1.0886202	0.2291832	-174.247987	-50.74689006	156.0909479
6.62	662	-0.777	0.064	0.648	-0.2291832	-0.9740286	0.1718874	-174.2537165	-50.7354309	156.0909479
6.63	663	-0.777	0.064	0.648	-0.2291832	-0.8021412	0.1718874	-174.2537165	-50.72397174	156.0909479
6.64	664	-0.776	0.064	0.65	-0.286479	-0.7448454	0.1718874	-174.2537165	-50.71824216	156.0852184
6.65	665	-0.775	0.064	0.649	-0.4583664	-0.4583664	0.1145916	-174.3052828	-50.6781351	156.1253254
6.66	666	-0.776	0.065	0.647	-0.5156622	-0.1718874	0.1145916	-174.3110123	-50.6781351	156.1195958
6.67	667	-0.776	0.065	0.647	-0.4010706	-0.1145916	0.0572958	-174.3110123	-50.67240552	156.1195958
6.68	668	-0.777	0.064	0.646	-0.5156622	0	0	-174.3167419	-50.67240552	156.1195958
6.69	669	-0.776	0.065	0.646	-0.5156622	0	0.0572958	-174.3224715	-50.6781351	156.1195958
6.7	670	-0.776	0.065	0.646	-0.5156622	-0.4010706	0	-174.3683081	-50.65521678	156.1539733
6.71	671	-0.775	0.063	0.647	-0.5156622	-0.5156622	-0.0572958	-174.3797673	-50.6494872	156.1539733
6.72	672	-0.774	0.064	0.645	-0.3437748	-0.286479	-0.1718874	-174.3854969	-50.6494872	156.1597029
6.73	673	-0.774	0.063	0.648	-0.2291832	-0.1718874	-0.1145916	-174.3854969	-50.64375762	156.1597029
6.74	674	-0.776	0.062	0.651	-0.3437748	-0.4010706	-0.1145916	-174.3912265	-50.64375762	156.1654325
6.75	675	-0.78	0.063	0.65	-0.6302538	-0.8021412	-0.0572958	-174.4256039	-50.6208393	156.1826212
6.76	676	-0.778	0.063	0.653	-0.9167328	-0.859437	0	-174.4370631	-50.60938014	156.1883508
6.77	677	-0.775	0.062	0.652	-0.7448454	-0.3437748	0.0572958	-174.4427927	-50.60365056	156.1826212
6.78	678	-0.774	0.063	0.646	-0.4583664	0.4010706	0.0572958	-174.4427927	-50.60938014	156.1826212
6.79	679	-0.773	0.063	0.643	-0.2291832	0.4583664	0.1145916	-174.4485223	-50.61510972	156.1768916
6.8	680	-0.772	0.063	0.643	0	0.286479	0.2291832	-174.4714406	-50.60938014	156.19981
6.81	681	-0.773	0.065	0.642	0.1145916	0.2291832	0.2291832	-174.465711	-50.60938014	156.1940804
6.82	682	-0.773	0.065	0.644	0.1145916	0	0.286479	-174.4599814	-50.60938014	156.1883508
6.83	683	-0.775	0.065	0.645	0	0.0572958	0.1718874	-174.4599814	-50.60938014	156.1883508
6.84	684	-0.777	0.065	0.647	0	0.0572958	0.2291832	-174.4542518	-50.60938014	156.1826212
6.85	685	-0.778	0.066	0.65	0	0.2291832	0.2291832	-174.4886293	-50.58073224	156.2112691
6.86	686	-0.778	0.066	0.65	0	0.2291832	0.2291832	-174.4886293	-50.58646182	156.2055395
6.87	687	-0.778	0.066	0.65	-0.0572958	0.286479	0.1145916	-174.4828997	-50.58646182	156.19981
6.88	688	-0.775	0.066	0.647	0	0.2291832	0.0572958	-174.4828997	-50.58646182	156.19981
6.89	689	-0.775	0.064	0.644	-0.1145916	0	0	-174.4828997	-50.58646182	156.19981
6.9	690	-0.775	0.065	0.645	-0.1718874	-0.286479	0	-174.5172772	-50.57500266	156.2227283
6.91	691	-0.775	0.065	0.646	-0.2291832	-0.4583664	0.0572958	-174.5230068	-50.56927308	156.2227283
6.92	692	-0.775	0.066	0.647	-0.4583664	-0.4583664	0	-174.5287364	-50.5635435	156.2227283
6.93	693	-0.774	0.066	0.649	-0.4010706	-0.286479	0	-174.534466	-50.5635435	156.2284579
6.94	694	-0.774	0.066	0.647	-0.4583664	0	-0.1718874	-174.5401955	-50.5635435	156.2284579
6.95	695	-0.775	0.066	0.647	-0.5156622	0	-0.2291832	-174.5459251	-50.55208434	156.2341874
6.96	696	-0.776	0.066	0.646	-0.4010706	0.1718874	-0.286479	-174.5573843	-50.55208434	156.239917
6.97	697	-0.775	0.064	0.646	-0.4583664	0.4010706	-0.3437748	-174.5631139	-50.55781392	156.2456466
6.98	698	-0.775	0.065	0.644	-0.4010706	0.2291832	-0.2291832	-174.574573	-50.55781392	156.2456466
6.99	699	-0.775	0.064	0.644	-0.5156622	-0.0572958	-0.1718874	-174.5803026	-50.55781392	156.2513762
7	700	-0.776	0.063	0.646	-0.572958	-0.4010706	-0.1145916	-174.6146801	-50.54635476	156.2742945
7.01	701	-0.777	0.065	0.65	-0.6875496	-0.5156622	-0.1145916	-174.6204097	-50.54062518	156.2742945
7.02	702	-0.777	0.065	0.653	-0.7448454	-0.2291832	-0.1145916	-174.6318688	-50.54062518	156.2800241
7.03	703	-0.776	0.065	0.65	-0.286479	0.1718874	-0.1718874	-174.6375984	-50.54062518	156.2800241
7.04	704	-0.776	0.064	0.647	-0.286479	0.286479	-0.1145916	-174.643328	-50.54635476	156.2800241
7.05	705	-0.776	0.065	0.647	-0.286479	0.1718874	-0.1718874	-174.6547871	-50.52916602	156.2914832
7.06	706	-0.775	0.063	0.646	-0.286479	0.0572958	-0.1145916	-174.6605167	-50.52916602	156.2972128
7.07	707	-0.775	0.063	0.647	-0.286479	-0.1145916	0	-174.6662463	-50.52916602	156.2972128
7.08	708	-0.776	0.064	0.647	-0.3437748	-0.1718874	0	-174.6662463	-50.52343644	156.2972128
7.09	709	-0.775	0.063	0.647	-0.286479	-0.2291832	0.0572958	-174.6719759	-50.52343644	156.2972128
7.1	710	-0.775	0.065	0.648	-0.1718874	-0.286479	0.1718874	-174.6891646	-50.49478854	156.308672
7.11	711	-0.775	0.064	0.648	0	-0.1145916	0.2291832	-174.683435	-50.49478854	156.3029424
7.12	712	-0.775	0.063	0.646	0	-0.2291832	0.2291832	-174.683435	-50.48905896	156.2972128
7.13	713	-0.776	0.064	0.646	0.0572958	-0.1718874	0.286479	-174.6777055	-50.48905896	156.2972128
7.14	714	-0.775	0.065	0.648	0	-0.1718874	0.286479	-174.6719759	-50.48332938	156.2914832
7.15	715	-0.775	0.064	0.648	0	0.0572958	0.286479	-174.6948942	-50.47187022	156.3029424
7.16	716	-0.775	0.065	0.647	0.1145916	0.286479	0.3437748	-174.6891646	-50.4775998	156.2972128
7.17	717	-0.776	0.064	0.645	0.1718874	0.1718874	0.286479	-174.683435	-50.4775998	156.2914832
7.18	718	-0.776	0.065	0.644	0	-0.1145916	0.2291832	-174.6777055	-50.4775998	156.2914832
7.19	719	-0.776	0.066	0.646	0.0572958	-0.3437748	0.3437748	-174.6777055	-50.47187022	156.2857537
7.2	720	-0.774	0.064	0.647	0.0572958	-0.4583664	0.286479	-174.6891646	-50.46041106	156.2914832
7.21	721	-0.773	0.065	0.648	0	-0.4010706	0.1718874	-174.683435	-50.45468148	156.2914832
7.22	722	-0.774	0.066	0.649	-0.0572958	-0.286479	0.286479	-174.683435	-50.45468148	156.2857537
7.23	723	-0.774	0.065	0.648	0	0	0.1718874	-174.6777055	-50.4489519	156.2857537
7.24	724	-0.774	0.066	0.646	0.1145916	0	0.1145916	-174.6777055	-50.4489519	156.2800241
7.25	725	-0.775	0.066	0.647	0.1145916	-0.3437748	0.1145916	-174.6719759	-50.43749274	156.2800241
7.26	726	-0.774	0.066	0.649	0.1145916	-0.5156622	0	-174.6719759	-50.43176316	156.2800241
7.27	727	-0.774	0.066	0.648	0	-0.5156622	0	-174.6719759	-50.42603358	156.2800241
7.28	728	-0.774	0.065	0.648	0.0572958	-0.4010706	0	-174.6719759	-50.42603358	156.2800241
7.29	729	-0.775	0.064	0.647	0	-0.286479	-0.0572958	-174.6719759	-50.420304	156.2800241
7.3	730	-0.774	0.066	0.649	0.0572958	-0.4583664	-0.0572958	-174.6719759	-50.40311526	156.2857537
7.31	731	-0.774	0.065	0.647	0.1718874	-0.6302538	0	-174.6719759	-50.3916561	156.2914832
7.32	732	-0.774	0.065	0.645	0.1718874	-0.572958	0	-174.6719759	-50.38592652	156.2914832
7.33	733	-0.774	0.064	0.646	0.1145916	-0.7448454	0.0572958	-174.6719759	-50.38019694	156.2914832
7.34	734	-0.774	0.064	0.649	0	-0.9167328	0	-174.6719759	-50.36873778	156.2914832
7.35	735	-0.775	0.066	0.651	0	-0.9167328	0.0572958	-174.6719759	-50.35154904	156.2914832
7.36	736	-0.775	0.067	0.653	0	-1.0313244	0.1718874	-174.6719759	-50.34008988	156.2914832
7.37	737	-0.774	0.065	0.651	0	-1.2032118	0.1145916	-174.6719759	-50.32863072	156.2914832
7.38	738	-0.773	0.065	0.65	-0.0572958	-1.145916	0.1145916	-174.6719759	-50.31717156	156.2914832
