TimeStamp(s)	FrameCounter	AccX	AccY	AccZ	GyrX	GyrY	GyrZ	EulerX	EulerY	EulerZ
0.01	1	-0.03	-0.998	-0.025	-0.2291832	0.1718874	-0.2291832	97.0017894	-0.7448454	-51.86988774
0.02	2	-0.033	-0.997	-0.11	0	0.3437748	-0.4010706	97.0017894	-0.73911582	-51.86415816
0.03	3	-0.031	-0.997	-0.11	0.0572958	0.4010706	-0.3437748	97.0017894	-0.73911582	-51.85842858
0.04	4	-0.031	-1	-0.111	0.2291832	0.3437748	-0.286479	97.00751898	-0.73338624	-51.85842858
0.05	5	-0.03	-1.001	-0.111	0.286479	0.4583664	-0.286479	96.0564087	-0.8307891	-52.29960624
0.06	6	-0.029	-1	-0.11	0.3437748	0.5156622	-0.3437748	96.06213828	-0.82505952	-52.29387666
0.07	7	-0.03	-1.002	-0.111	0.286479	0.6302538	-0.4010706	96.06213828	-0.82505952	-52.28814708
0.08	8	-0.029	-1.003	-0.111	0.2291832	0.4583664	-0.4010706	96.06786786	-0.81932994	-52.2824175
0.09	9	-0.03	-1.003	-0.11	0.1718874	0.4010706	-0.4010706	96.06786786	-0.81360036	-52.27668792
0.1	10	-0.03	-1.001	-0.108	0.2291832	0.6302538	-0.4583664	95.44334364	-0.87662574	-52.56316692
0.11	11	-0.028	-1.001	-0.111	0.3437748	0.859437	-0.4583664	95.44334364	-0.87089616	-52.55170776
0.12	12	-0.027	-1	-0.114	0.3437748	0.8021412	-0.4583664	95.44907322	-0.86516658	-52.54597818
0.13	13	-0.029	-1	-0.117	0.3437748	0.5156622	-0.5156622	95.4548028	-0.86516658	-52.5402486
0.14	14	-0.031	-1.001	-0.117	0.1718874	0.3437748	-0.3437748	95.4548028	-0.859437	-52.53451902
0.15	15	-0.03	-1.002	-0.115	0.1145916	0	-0.3437748	94.06824444	-0.99694692	-53.16477282
0.16	16	-0.032	-1.002	-0.113	0.0572958	-0.3437748	-0.3437748	94.06824444	-0.99694692	-53.1705024
0.17	17	-0.034	-1.002	-0.111	0	-0.4010706	-0.4010706	94.06824444	-0.99121734	-53.1705024
0.18	18	-0.033	-0.999	-0.111	0.0572958	-0.1145916	-0.3437748	94.06824444	-0.98548776	-53.17623198
0.19	19	-0.031	-0.997	-0.114	0.1145916	0	-0.3437748	94.06824444	-0.98548776	-53.1705024
0.2	20	-0.028	-1.001	-0.115	-0.1718874	0.1718874	-0.286479	92.69887482	-1.1172681	-53.7721083
0.21	21	-0.028	-1	-0.114	-0.3437748	0	-0.2291832	92.69314524	-1.11153852	-53.7721083
0.22	22	-0.032	-0.997	-0.112	-0.0572958	-0.1718874	-0.1145916	92.69314524	-1.11153852	-53.77783788
0.23	23	-0.034	-0.996	-0.111	-0.0572958	0	-0.1145916	92.69314524	-1.11153852	-53.7721083
0.24	24	-0.035	-0.996	-0.114	-0.1145916	0.2291832	-0.1145916	92.68741566	-1.11153852	-53.7721083
0.25	25	-0.034	-0.997	-0.114	0	0.1145916	-0.0572958	90.03462012	-1.42666542	-54.90083556
0.26	26	-0.034	-0.998	-0.112	0	0.1145916	-0.0572958	90.03462012	-1.42666542	-54.90083556
0.27	27	-0.032	-0.998	-0.111	0	0.1145916	-0.0572958	90.03462012	-1.42666542	-54.90083556
0.28	28	-0.032	-0.997	-0.112	-0.1145916	0.1145916	-0.1145916	90.03462012	-1.42666542	-54.89510598
0.29	29	-0.032	-0.996	-0.115	-0.1145916	0.1145916	-0.2291832	90.02889054	-1.42093584	-54.89510598
0.3	30	-0.033	-0.997	-0.115	-0.0572958	0.1718874	-0.1718874	89.27258598	-1.49542038	-55.19877372
0.31	31	-0.032	-0.997	-0.114	0.0572958	0.1718874	-0.1718874	89.27258598	-1.49542038	-55.19877372
0.32	32	-0.033	-0.997	-0.114	0.1145916	0.1145916	-0.1718874	89.27258598	-1.4896908	-55.19304414
0.33	33	-0.033	-0.996	-0.112	0.1145916	0.1145916	-0.1718874	89.27831556	-1.4896908	-55.19304414
0.34	34	-0.032	-0.996	-0.11	0.1145916	0.1718874	-0.1718874	89.27831556	-1.4896908	-55.19304414
0.35	35	-0.031	-0.996	-0.113	0.0572958	-0.0572958	0.0572958	88.09802208	-1.58136408	-55.65141054
0.36	36	-0.031	-0.998	-0.113	0	-0.1718874	0.0572958	88.09802208	-1.58136408	-55.65141054
0.37	37	-0.03	-0.999	-0.113	-0.1718874	-0.0572958	0.1145916	88.09802208	-1.58709366	-55.65141054
0.38	38	-0.031	-1	-0.114	-0.2291832	0	0.1718874	88.0922925	-1.58709366	-55.65141054
0.39	39	-0.029	-1.001	-0.115	-0.0572958	-0.1145916	0.1145916	88.0922925	-1.58709366	-55.65141054
0.4	40	-0.031	-1.001	-0.111	0	-0.2291832	0.1718874	87.53079366	-1.6329303	-55.863405
0.41	41	-0.033	-0.999	-0.11	0.1145916	-0.286479	0.1718874	87.53079366	-1.6329303	-55.86913458
0.42	42	-0.033	-0.999	-0.11	0.2291832	-0.286479	0.1718874	87.53652324	-1.6329303	-55.86913458
0.43	43	-0.033	-1.001	-0.111	0.1145916	-0.286479	0.2291832	87.53652324	-1.63865988	-55.87486416
0.44	44	-0.033	-1.001	-0.111	0	-0.1718874	0.1718874	87.53652324	-1.63865988	-55.87486416
0.45	45	-0.032	-0.999	-0.112	0.1145916	-0.0572958	0.0572958	86.89481028	-1.67876694	-56.10404736
0.46	46	-0.031	-0.999	-0.112	0.1145916	0	0	86.89481028	-1.67876694	-56.10404736
0.47	47	-0.032	-0.999	-0.11	0	0.1145916	0.0572958	86.89481028	-1.67876694	-56.10404736
0.48	48	-0.031	-1.001	-0.109	0	0.0572958	0.0572958	86.89481028	-1.67876694	-56.10404736
0.49	49	-0.031	-1.001	-0.109	0.0572958	0.0572958	0	86.89481028	-1.67876694	-56.10404736
0.5	50	-0.029	-1.001	-0.109	-0.0572958	0.1145916	0	86.44790304	-1.68449652	-56.25301644
0.51	51	-0.029	-1.002	-0.11	-0.1145916	0.2291832	0.0572958	86.44790304	-1.68449652	-56.24728686
0.52	52	-0.028	-1	-0.11	-0.1145916	0.2291832	0.1145916	86.44790304	-1.68449652	-56.24728686
0.53	53	-0.029	-1	-0.111	-0.0572958	0.3437748	0.0572958	86.44790304	-1.6902261	-56.24155728
0.54	54	-0.029	-1	-0.112	-0.0572958	0.2291832	0.0572958	86.44217346	-1.6902261	-56.24155728
0.55	55	-0.03	-1	-0.111	-0.0572958	0.1145916	0	85.77754218	-1.71314442	-56.45928132
0.56	56	-0.031	-1	-0.111	0	-0.0572958	-0.0572958	85.77754218	-1.71314442	-56.45928132
0.57	57	-0.031	-0.999	-0.111	-0.1145916	-0.0572958	0	85.77754218	-1.71314442	-56.45928132
0.58	58	-0.031	-0.999	-0.111	0	-0.2291832	0	85.77754218	-1.71314442	-56.45928132
0.59	59	-0.03	-0.998	-0.11	0.0572958	-0.286479	0.0572958	85.77754218	-1.71314442	-56.4650109
0.6	60	-0.03	-0.999	-0.109	0.0572958	-0.1718874	0	85.47387444	-1.70741484	-56.55668418
0.61	61	-0.031	-0.999	-0.108	0	-0.1718874	0	85.47387444	-1.70741484	-56.56241376
0.62	62	-0.031	-0.998	-0.11	0.0572958	-0.1145916	0.1145916	85.47960402	-1.70741484	-56.56241376
0.63	63	-0.03	-0.998	-0.111	0.2291832	-0.0572958	0.1718874	85.47960402	-1.71314442	-56.56241376
0.64	64	-0.031	-0.999	-0.111	0.1145916	0	0.0572958	85.47960402	-1.71314442	-56.56241376
0.65	65	-0.03	-1	-0.11	0.0572958	0.1145916	0.0572958	85.03269678	-1.70168526	-56.6941941
0.66	66	-0.028	-0.997	-0.113	0.1145916	0.286479	0.1145916	85.03269678	-1.70741484	-56.68846452
0.67	67	-0.028	-0.999	-0.114	0.1145916	0.1718874	0.1145916	85.03842636	-1.70741484	-56.68846452
0.68	68	-0.028	-0.999	-0.111	0	0	0.1145916	85.03842636	-1.70741484	-56.68846452
0.69	69	-0.029	-0.997	-0.109	0	-0.2291832	0.1145916	85.03842636	-1.70741484	-56.68846452
0.7	70	-0.029	-0.998	-0.111	0	-0.4010706	0.1718874	84.89518686	-1.70741484	-56.73430116
0.71	71	-0.029	-0.998	-0.112	-0.1718874	-0.4583664	0.1145916	84.89518686	-1.70741484	-56.74003074
0.72	72	-0.029	-0.998	-0.113	0	-0.4583664	0.0572958	84.89518686	-1.70741484	-56.74576032
0.73	73	-0.03	-1	-0.114	0.1718874	-0.4583664	0.1145916	84.90091644	-1.70741484	-56.74576032
0.74	74	-0.03	-1.001	-0.112	0	-0.5156622	0.1145916	84.90091644	-1.71314442	-56.7514899
0.75	75	-0.032	-1.002	-0.109	-0.1145916	-0.4583664	0.1718874	84.78059526	-1.718874	-56.79159696
0.76	76	-0.034	-1	-0.109	0.1145916	-0.4010706	0.1718874	84.78059526	-1.718874	-56.79732654
0.77	77	-0.033	-1	-0.11	0.1718874	-0.1145916	0.1718874	84.78632484	-1.72460358	-56.79732654
0.78	78	-0.033	-0.998	-0.113	0.0572958	0.2291832	0.1718874	84.78632484	-1.72460358	-56.79732654
0.79	79	-0.031	-0.997	-0.116	0.1718874	0.2291832	0.1718874	84.78632484	-1.72460358	-56.79159696
0.8	80	-0.03	-1	-0.117	0.0572958	0.2291832	0.1145916	84.55141206	-1.718874	-56.84889276
0.81	81	-0.03	-1	-0.116	0.0572958	0.1145916	0.1718874	84.55141206	-1.72460358	-56.84889276
0.82	82	-0.029	-1	-0.113	0.1145916	0.0572958	0.1718874	84.55714164	-1.72460358	-56.84889276
0.83	83	-0.029	-1	-0.11	0.2291832	-0.1145916	0.2291832	84.55714164	-1.73033316	-56.84889276
0.84	84	-0.029	-1.001	-0.108	0.0572958	-0.286479	0.2291832	84.55714164	-1.73033316	-56.85462234
0.85	85	-0.028	-0.998	-0.109	0.1145916	-0.4583664	0.1718874	84.4540092	-1.718874	-56.88327024
0.86	86	-0.027	-0.997	-0.112	-0.1145916	-0.286479	0.0572958	84.4540092	-1.718874	-56.88327024
0.87	87	-0.027	-1.001	-0.113	-0.4583664	-0.2291832	0	84.44827962	-1.72460358	-56.88899982
0.88	88	-0.03	-1.001	-0.112	-0.6875496	-0.5156622	0.0572958	84.44255004	-1.72460358	-56.8947294
0.89	89	-0.033	-1	-0.11	-0.286479	-0.6875496	0.1145916	84.43682046	-1.72460358	-56.90045898
0.9	90	-0.037	-0.998	-0.111	0	-0.5156622	0.1718874	84.33368802	-1.74179232	-56.93483646
0.91	91	-0.036	-0.998	-0.113	0	-0.5156622	0.1145916	84.33368802	-1.74179232	-56.94056604
0.92	92	-0.036	-0.999	-0.112	-0.1718874	-0.5156622	0	84.33368802	-1.74179232	-56.94629562
0.93	93	-0.035	-0.998	-0.11	0	-0.5156622	0.1718874	84.33368802	-1.7475219	-56.9520252
0.94	94	-0.034	-1	-0.112	0.0572958	-0.2291832	0.286479	84.33368802	-1.7475219	-56.9520252
0.95	95	-0.033	-1	-0.113	-0.1145916	-0.1145916	0.3437748	84.19044852	-1.75325148	-56.99213226
0.96	96	-0.034	-0.999	-0.11	0	0	0.1718874	84.19044852	-1.75325148	-56.99213226
0.97	97	-0.035	-0.998	-0.11	0.1718874	0.2291832	0.1145916	84.19044852	-1.75898106	-56.98640268
0.98	98	-0.035	-0.998	-0.11	0.0572958	0.4583664	0.1718874	84.19044852	-1.75898106	-56.98640268
0.99	99	-0.035	-0.996	-0.112	0	0.5156622	0.1718874	84.19044852	-1.75898106	-56.9806731
1	100	-0.033	-0.997	-0.114	0	0.4583664	0.1145916	84.0815865	-1.76471064	-56.99786184
1.01	101	-0.033	-0.997	-0.113	0	0.5156622	0.1145916	84.0815865	-1.76471064	-56.99213226
1.02	102	-0.032	-0.997	-0.116	0.0572958	0.4010706	0.1145916	84.0815865	-1.76471064	-56.98640268
1.03	103	-0.032	-0.997	-0.116	0	0.286479	0.0572958	84.0815865	-1.76471064	-56.98640268
1.04	104	-0.034	-0.999	-0.114	0.0572958	0.2291832	0.0572958	84.0815865	-1.76471064	-56.9806731
1.05	105	-0.034	-0.998	-0.114	0.0572958	0.1145916	0.0572958	83.8237554	-1.77044022	-57.04369848
1.06	106	-0.033	-1	-0.115	0.0572958	0.0572958	0.1145916	83.8237554	-1.7761698	-57.04369848
1.07	107	-0.033	-0.999	-0.113	-0.0572958	0	0.0572958	83.8237554	-1.7761698	-57.04369848
1.08	108	-0.035	-1.001	-0.112	0	0.1145916	0	83.8237554	-1.7761698	-57.04369848
1.09	109	-0.035	-1.002	-0.112	0.1145916	0.1718874	0	83.8237554	-1.7761698	-57.0379689
1.1	110	-0.035	-1.001	-0.112	0.0572958	0.3437748	0	83.70343422	-1.78189938	-57.0666168
1.11	111	-0.035	-1.001	-0.112	0	0.4010706	0	83.70343422	-1.78189938	-57.06088722
1.12	112	-0.035	-0.999	-0.111	0.0572958	0.5156622	-0.1145916	83.70343422	-1.7761698	-57.05515764
1.13	113	-0.035	-0.998	-0.11	0.0572958	0.6302538	-0.1718874	83.70343422	-1.7761698	-57.04942806
1.14	114	-0.034	-0.998	-0.113	0	0.7448454	-0.1718874	83.70343422	-1.7761698	-57.04369848
1.15	115	-0.033	-0.999	-0.112	-0.1718874	0.6875496	-0.286479	83.651868	-1.77044022	-57.04369848
1.16	116	-0.031	-0.999	-0.109	-0.1145916	0.8021412	-0.286479	83.651868	-1.76471064	-57.0379689
1.17	117	-0.03	-0.998	-0.111	0	0.8021412	-0.1718874	83.651868	-1.75898106	-57.02650974
1.18	118	-0.028	-0.998	-0.11	0.1145916	0.9167328	-0.1718874	83.651868	-1.75898106	-57.02078016
1.19	119	-0.028	-0.998	-0.111	-0.0572958	0.859437	-0.286479	83.651868	-1.75325148	-57.009321
1.2	120	-0.028	-0.995	-0.111	0	0.6875496	-0.1718874	83.60030178	-1.74179232	-57.01505058
1.21	121	-0.029	-0.996	-0.112	0	0.4583664	-0.1718874	83.60030178	-1.73606274	-57.009321
1.22	122	-0.03	-0.996	-0.111	0	0.1718874	-0.286479	83.60030178	-1.73606274	-57.009321
1.23	123	-0.031	-0.996	-0.109	0	0.1718874	-0.3437748	83.5945722	-1.73033316	-57.00359142
1.24	124	-0.032	-0.996	-0.109	0	0.1718874	-0.4583664	83.5945722	-1.72460358	-57.00359142
1.25	125	-0.032	-0.998	-0.111	0.0572958	0.1145916	-0.5156622	83.5372764	-1.718874	-57.01505058
1.26	126	-0.032	-0.999	-0.111	0.1145916	0.2291832	-0.5156622	83.5372764	-1.71314442	-57.01505058
1.27	127	-0.031	-0.999	-0.109	0.1145916	0.1145916	-0.5156622	83.5372764	-1.70741484	-57.01505058
1.28	128	-0.032	-0.999	-0.108	0.1718874	0.0572958	-0.4010706	83.54300598	-1.70168526	-57.01505058
1.29	129	-0.031	-0.997	-0.108	0.1718874	0	-0.3437748	83.54300598	-1.70168526	-57.01505058
1.3	130	-0.03	-0.996	-0.108	0.1145916	0	-0.4010706	83.49143976	-1.68449652	-57.02078016
1.31	131	-0.029	-0.998	-0.108	0.1145916	0	-0.4583664	83.49143976	-1.68449652	-57.02078016
1.32	132	-0.028	-0.998	-0.107	0.2291832	-0.3437748	-0.2291832	83.49143976	-1.67876694	-57.02650974
1.33	133	-0.027	-0.998	-0.107	0.286479	-0.3437748	-0.2291832	83.49716934	-1.67876694	-57.03223932
1.34	134	-0.026	-1	-0.11	0.1145916	-0.3437748	-0.1145916	83.49716934	-1.67876694	-57.0379689
1.35	135	-0.028	-1.003	-0.111	0.1718874	-0.5156622	-0.0572958	83.44560312	-1.66730778	-57.04942806
1.36	136	-0.029	-1.003	-0.11	0.2291832	-0.5156622	0	83.44560312	-1.66730778	-57.05515764
1.37	137	-0.029	-1.003	-0.111	0.286479	-0.6302538	0	83.4513327	-1.66730778	-57.06088722
1.38	138	-0.029	-1.003	-0.115	0.3437748	-0.7448454	0	83.45706228	-1.66730778	-57.0666168
1.39	139	-0.031	-1.005	-0.113	0.2291832	-0.859437	0	83.45706228	-1.66730778	-57.07807596
1.4	140	-0.033	-1.004	-0.112	0.1145916	-1.145916	0	83.42841438	-1.67303736	-57.0952647
1.41	141	-0.033	-1.002	-0.114	0.0572958	-1.145916	0	83.42841438	-1.67303736	-57.10672386
1.42	142	-0.033	-1.004	-0.113	-0.1145916	-1.2605076	0	83.42841438	-1.67303736	-57.11818302
1.43	143	-0.035	-1.002	-0.112	-0.1718874	-1.3750992	0	83.42841438	-1.67303736	-57.13537176
1.44	144	-0.036	-1	-0.113	-0.1145916	-1.432395	0.0572958	83.4226848	-1.67876694	-57.14683092
1.45	145	-0.036	-0.999	-0.114	-0.1145916	-1.3178034	0.1718874	83.3940369	-1.68449652	-57.16974924
1.46	146	-0.037	-0.999	-0.113	-0.2291832	-1.145916	0.2291832	83.38830732	-1.6902261	-57.1812084
1.47	147	-0.039	-0.997	-0.113	-0.1145916	-1.0886202	0.2291832	83.38830732	-1.6902261	-57.19266756
1.48	148	-0.039	-0.998	-0.113	-0.1145916	-0.572958	0.2291832	83.38830732	-1.69595568	-57.19839714
1.49	149	-0.037	-0.999	-0.113	-0.2291832	-0.3437748	0.1145916	83.38257774	-1.69595568	-57.19839714
1.5	150	-0.037	-0.997	-0.114	-0.3437748	-0.0572958	0.2291832	83.31955236	-1.70741484	-57.21558588
1.51	151	-0.036	-0.996	-0.115	-0.2291832	0.0572958	0.286479	83.31382278	-1.71314442	-57.2098563
1.52	152	-0.033	-0.998	-0.112	-0.4583664	0.1718874	0.286479	83.3080932	-1.71314442	-57.2098563
1.53	153	-0.033	-0.997	-0.11	-0.5156622	-0.0572958	0.286479	83.30236362	-1.718874	-57.2098563
1.54	154	-0.032	-0.996	-0.11	-0.572958	-0.2291832	0.286479	83.29663404	-1.72460358	-57.2098563
1.55	155	-0.03	-0.998	-0.113	-0.6302538	-0.1145916	0.286479	83.2507974	-1.718874	-57.22131546
1.56	156	-0.027	-0.998	-0.112	-0.7448454	0	0.2291832	83.24506782	-1.718874	-57.22131546
1.57	157	-0.024	-1.002	-0.114	-0.6875496	0.0572958	0.1145916	83.23360866	-1.72460358	-57.21558588
1.58	158	-0.024	-1.004	-0.113	-0.9167328	-0.2291832	0.1145916	83.22787908	-1.72460358	-57.22131546
1.59	159	-0.028	-1.001	-0.111	-0.5156622	-0.5156622	0.1718874	83.2221495	-1.72460358	-57.22704504
1.6	160	-0.03	-0.998	-0.109	-0.2291832	-0.572958	0.1718874	83.18204244	-1.72460358	-57.23277462
1.61	161	-0.033	-0.997	-0.109	-0.1718874	-0.6875496	0.1145916	83.18204244	-1.72460358	-57.24423378
1.62	162	-0.033	-0.998	-0.109	-0.2291832	-0.6302538	0.1718874	83.17631286	-1.72460358	-57.24996336
1.63	163	-0.033	-0.997	-0.109	-0.1145916	-0.6302538	0.286479	83.17631286	-1.73033316	-57.25569294
1.64	164	-0.035	-0.998	-0.109	0	-0.572958	0.286479	83.17631286	-1.73033316	-57.26142252
1.65	165	-0.037	-0.997	-0.11	-0.0572958	-0.6302538	0.286479	83.14193538	-1.7475219	-57.27288168
1.66	166	-0.04	-0.996	-0.109	-0.0572958	-0.572958	0.286479	83.14193538	-1.7475219	-57.27861126
1.67	167	-0.041	-0.995	-0.111	0	-0.572958	0.286479	83.14193538	-1.75325148	-57.28434084
1.68	168	-0.04	-0.994	-0.109	0.1145916	-0.5156622	0.286479	83.14193538	-1.75898106	-57.29007042
1.69	169	-0.038	-0.994	-0.108	0.1145916	-0.1718874	0.3437748	83.14766496	-1.75898106	-57.29007042
1.7	170	-0.036	-0.995	-0.107	0.2291832	0	0.4010706	83.11901706	-1.77044022	-57.2958
1.71	171	-0.034	-0.996	-0.106	0.4583664	0.1718874	0.3437748	83.12474664	-1.7761698	-57.2958
1.72	172	-0.034	-0.995	-0.107	0.572958	0.1718874	0.4010706	83.13047622	-1.7761698	-57.29007042
1.73	173	-0.034	-0.995	-0.109	0.7448454	0.286479	0.5156622	83.1362058	-1.78189938	-57.28434084
1.74	174	-0.033	-0.998	-0.112	0.572958	0.3437748	0.4583664	83.14193538	-1.78762896	-57.28434084
1.75	175	-0.032	-1	-0.112	0.572958	0.4010706	0.4583664	83.12474664	-1.78762896	-57.27861126
1.76	176	-0.031	-1.003	-0.109	0.5156622	0.286479	0.3437748	83.12474664	-1.79335854	-57.27861126
1.77	177	-0.029	-1.006	-0.105	0.4010706	0.4583664	0.286479	83.13047622	-1.79335854	-57.27288168
1.78	178	-0.026	-1.006	-0.108	0.3437748	0.572958	0.1145916	83.1362058	-1.79335854	-57.2671521
1.79	179	-0.025	-1.01	-0.112	0.2291832	0.4010706	0.1145916	83.1362058	-1.79908812	-57.26142252
1.8	180	-0.027	-1.011	-0.109	0	0	0.1145916	83.11328748	-1.76471064	-57.26142252
1.81	181	-0.024	-1.003	-0.098	0.4010706	-0.3437748	0.1145916	83.11901706	-1.76471064	-57.26142252
1.82	182	-0.024	-0.995	-0.102	0.9167328	-0.6302538	0.1145916	83.13047622	-1.77044022	-57.2671521
1.83	183	-0.022	-0.998	-0.115	0.5156622	-0.6875496	0.0572958	83.1362058	-1.77044022	-57.27288168
1.84	184	-0.026	-1.003	-0.121	0	-0.9167328	0	83.1362058	-1.77044022	-57.28434084
1.85	185	-0.03	-1.01	-0.115	-0.1718874	-1.3178034	-0.1145916	83.11901706	-1.76471064	-57.30152958
1.86	186	-0.031	-1.01	-0.105	0	-1.6615782	-0.2291832	83.11901706	-1.76471064	-57.31298874
1.87	187	-0.032	-1.006	-0.108	-0.0572958	-1.8334656	-0.2291832	83.11901706	-1.76471064	-57.33590706
1.88	188	-0.033	-1.006	-0.115	-0.4583664	-1.9480572	-0.1718874	83.11328748	-1.76471064	-57.3530958
1.89	189	-0.036	-0.999	-0.115	-0.859437	-1.8907614	0	83.1075579	-1.76471064	-57.37028454
1.9	190	-0.037	-0.994	-0.11	-0.572958	-1.9480572	0.2291832	83.09036916	-1.77044022	-57.39320286
1.91	191	-0.037	-0.995	-0.105	-0.8021412	-2.005353	0.286479	83.08463958	-1.7761698	-57.41612118
1.92	192	-0.039	-0.994	-0.107	-0.9740286	-2.1772404	0.3437748	83.07318042	-1.78189938	-57.43330992
1.93	193	-0.043	-0.994	-0.11	-0.9740286	-2.4637194	0.4010706	83.06172126	-1.78762896	-57.46195782
1.94	194	-0.045	-0.998	-0.11	-0.9167328	-2.4637194	0.4010706	83.05599168	-1.79908812	-57.48487614
1.95	195	-0.047	-1.002	-0.108	-0.9740286	-2.2345362	0.3437748	83.03880294	-1.81054728	-57.50779446
1.96	196	-0.047	-1.004	-0.107	-0.7448454	-1.9480572	0.286479	83.03307336	-1.81627686	-57.5249832
1.97	197	-0.048	-1.003	-0.108	-0.7448454	-1.4896908	0.286479	83.02734378	-1.82200644	-57.54217194
1.98	198	-0.046	-1.004	-0.107	-1.0886202	-0.6302538	0.3437748	83.01588462	-1.82773602	-57.54790152
1.99	199	-0.043	-1	-0.107	-1.0313244	-0.4010706	0.3437748	83.00442546	-1.82773602	-57.5536311
2	200	-0.038	-0.999	-0.108	-0.9167328	-0.2291832	0.4010706	82.98150714	-1.83919518	-57.5536311
2.01	201	-0.035	-1	-0.109	-1.145916	0	0.3437748	82.97004798	-1.83919518	-57.5536311
2.02	202	-0.031	-0.997	-0.111	-1.0886202	0.286479	0.4010706	82.95858882	-1.84492476	-57.5536311
2.03	203	-0.03	-0.998	-0.112	-1.0313244	0.4010706	0.572958	82.94712966	-1.85065434	-57.54790152
2.04	204	-0.029	-0.998	-0.111	-1.0886202	0.4010706	0.5156622	82.9356705	-1.85638392	-57.54217194
2.05	205	-0.031	-0.998	-0.112	-1.0886202	0.3437748	0.4583664	82.9070226	-1.85638392	-57.54217194
2.06	206	-0.033	-0.999	-0.111	-0.9740286	0.3437748	0.3437748	82.89556344	-1.85638392	-57.53644236
2.07	207	-0.034	-0.998	-0.108	-1.145916	0.1145916	0.1145916	82.88410428	-1.8621135	-57.53644236
2.08	208	-0.033	-0.998	-0.107	-1.2032118	0	0.0572958	82.87264512	-1.8621135	-57.53644236
2.09	209	-0.032	-0.998	-0.109	-1.0886202	0	-0.0572958	82.86118596	-1.8621135	-57.53644236
2.1	210	-0.033	-0.999	-0.11	-1.2032118	0	-0.1718874	82.83826764	-1.85638392	-57.53644236
2.11	211	-0.031	-0.998	-0.11	-1.0886202	0.0572958	-0.286479	82.82680848	-1.85065434	-57.53644236
2.12	212	-0.032	-0.998	-0.111	-1.0313244	0.1145916	-0.3437748	82.81534932	-1.85065434	-57.53071278
2.13	213	-0.031	-0.999	-0.111	-0.9740286	0	-0.4010706	82.80389016	-1.84492476	-57.53644236
2.14	214	-0.031	-0.999	-0.112	-1.145916	0	-0.3437748	82.792431	-1.83919518	-57.53644236
2.15	215	-0.034	-0.999	-0.113	-1.0313244	-0.0572958	-0.4010706	82.76951268	-1.8334656	-57.53644236
2.16	216	-0.035	-1	-0.113	-0.9167328	0	-0.4010706	82.75805352	-1.82773602	-57.53644236
2.17	217	-0.036	-0.998	-0.113	-0.859437	0.1718874	-0.4010706	82.74659436	-1.82200644	-57.53644236
2.18	218	-0.036	-0.997	-0.114	-0.6875496	0.3437748	-0.4583664	82.74086478	-1.82200644	-57.53071278
2.19	219	-0.036	-0.996	-0.117	-0.6875496	0.4583664	-0.572958	82.7351352	-1.81054728	-57.53071278
2.2	220	-0.037	-0.996	-0.119	-0.6875496	0.572958	-0.6302538	82.7064873	-1.81054728	-57.5249832
2.21	221	-0.039	-0.998	-0.122	-0.859437	0.8021412	-0.572958	82.69502814	-1.8048177	-57.51925362
2.22	222	-0.039	-0.999	-0.121	-1.2605076	0.7448454	-0.5156622	82.68356898	-1.79335854	-57.51352404
2.23	223	-0.037	-1	-0.121	-1.145916	0.6875496	-0.4583664	82.67210982	-1.79335854	-57.50779446
2.24	224	-0.035	-1	-0.122	-1.0886202	0.5156622	-0.4010706	82.66065066	-1.78762896	-57.50206488
2.25	225	-0.033	-1.001	-0.12	-1.3178034	0.572958	-0.4010706	82.63200276	-1.78189938	-57.4963353
2.26	226	-0.032	-0.998	-0.121	-1.3178034	0.9167328	-0.3437748	82.61481402	-1.7761698	-57.49060572
2.27	227	-0.029	-0.999	-0.123	-1.3178034	1.3178034	-0.286479	82.60335486	-1.77044022	-57.47341698
2.28	228	-0.028	-1.003	-0.126	-1.5469866	1.3750992	-0.1718874	82.58616612	-1.77044022	-57.46195782
2.29	229	-0.029	-1.002	-0.123	-1.718874	1.0886202	-0.1145916	82.56897738	-1.76471064	-57.45049866
2.3	230	-0.031	-0.998	-0.123	-1.2605076	0.8021412	0.0572958	82.5345999	-1.75898106	-57.44476908
2.31	231	-0.031	-0.995	-0.125	-0.9167328	1.145916	0.1718874	82.52314074	-1.76471064	-57.43330992
2.32	232	-0.029	-0.988	-0.127	-0.4010706	1.3750992	0.4010706	82.51741116	-1.76471064	-57.42185076
2.33	233	-0.029	-0.986	-0.129	0.0572958	1.5469866	0.4583664	82.51741116	-1.77044022	-57.40466202
2.34	234	-0.03	-0.983	-0.13	0.4583664	1.8334656	0.6875496	82.52314074	-1.7761698	-57.38747328
2.35	235	-0.03	-0.982	-0.132	0.7448454	1.718874	0.6875496	82.505952	-1.7761698	-57.37028454
2.36	236	-0.032	-0.98	-0.132	1.0313244	1.6042824	0.7448454	82.51168158	-1.78189938	-57.3530958
2.37	237	-0.033	-0.982	-0.134	1.2032118	1.2605076	0.8021412	82.52314074	-1.78762896	-57.33590706
2.38	238	-0.033	-0.983	-0.134	1.145916	0.859437	1.0313244	82.5345999	-1.79908812	-57.33017748
2.39	239	-0.031	-0.987	-0.137	0.859437	0.572958	1.145916	82.54605906	-1.81054728	-57.31871832
2.4	240	-0.03	-0.994	-0.135	0.286479	0.2291832	1.145916	82.49449284	-1.8048177	-57.31871832
2.41	241	-0.029	-1.001	-0.124	-0.4583664	-0.572958	1.0313244	82.48876326	-1.81627686	-57.3244479
2.42	242	-0.033	-0.999	-0.113	-0.5156622	-1.6042824	0.9167328	82.48303368	-1.82773602	-57.34163664
2.43	243	-0.037	-0.999	-0.113	-0.4010706	-1.8334656	0.859437	82.48303368	-1.83919518	-57.35882538
2.44	244	-0.039	-0.998	-0.117	-0.7448454	-1.145916	0.7448454	82.47157452	-1.85065434	-57.36455496
2.45	245	-0.039	-0.997	-0.119	-0.7448454	-0.6875496	0.572958	82.45438578	-1.85638392	-57.37601412
2.46	246	-0.04	-1	-0.119	-0.859437	-0.5156622	0.6875496	82.44292662	-1.86784308	-57.3817437
2.47	247	-0.04	-1.003	-0.119	-1.3178034	-0.1718874	0.7448454	82.43146746	-1.87357266	-57.3817437
2.48	248	-0.039	-1.006	-0.117	-1.3750992	0.1145916	1.0313244	82.41427872	-1.88503182	-57.37601412
2.49	249	-0.038	-1.012	-0.113	-1.432395	0.286479	1.2605076	82.39708998	-1.89649098	-57.37601412
2.5	250	-0.037	-1.018	-0.107	-1.718874	0.1718874	1.432395	82.3913604	-1.90795014	-57.37028454
2.51	251	-0.032	-1.02	-0.104	-1.718874	-0.1718874	1.8334656	82.36844208	-1.92513888	-57.37028454
2.52	252	-0.027	-1.019	-0.104	-1.5469866	-0.9167328	2.1199446	82.35698292	-1.9480572	-57.37601412
2.53	253	-0.022	-1.015	-0.105	-1.3750992	-1.9480572	2.4064236	82.33979418	-1.9767051	-57.39320286
2.54	254	-0.021	-1.01	-0.101	-1.2032118	-3.151269	2.4637194	82.32833502	-2.005353	-57.42185076
2.55	255	-0.022	-1.006	-0.098	-0.859437	-3.9534102	2.1199446	82.32833502	-2.02254174	-57.45622824
2.56	256	-0.027	-1.005	-0.098	-0.859437	-4.4117766	1.5469866	82.32260544	-2.03973048	-57.4963353
2.57	257	-0.031	-1.008	-0.093	-1.7761698	-4.6409598	0.9740286	82.3054167	-2.05691922	-57.54217194
2.58	258	-0.033	-1.009	-0.092	-2.578311	-4.7555514	0.572958	82.28249838	-2.06837838	-57.58800858
2.59	259	-0.035	-1.009	-0.094	-2.86479	-4.6982556	0.286479	82.25385048	-2.07410796	-57.63384522
2.6	260	-0.041	-1.017	-0.099	-2.86479	-4.1825934	0	82.23666174	-2.07983754	-57.67395228
2.61	261	-0.047	-1.023	-0.1	-2.7501984	-3.5523396	-0.3437748	82.20801384	-2.07983754	-57.70832976
2.62	262	-0.053	-1.028	-0.105	-1.8907614	-3.3231564	-0.6875496	82.1908251	-2.07983754	-57.74270724
2.63	263	-0.059	-1.034	-0.11	-0.5156622	-3.3231564	-0.6302538	82.18509552	-2.07410796	-57.77708472
2.64	264	-0.059	-1.043	-0.107	0.1718874	-3.4950438	-0.286479	82.1908251	-2.07410796	-57.8114622
2.65	265	-0.065	-1.05	-0.1	0.1718874	-3.724227	0.5156622	82.20228426	-2.09702628	-57.85156926
2.66	266	-0.066	-1.051	-0.096	-0.572958	-3.6096354	1.0886202	82.20228426	-2.11421502	-57.88594674
2.67	267	-0.066	-1.062	-0.1	0	-3.6669312	1.6615782	82.20228426	-2.13140376	-57.92032422
2.68	268	-0.052	-1.107	-0.087	1.5469866	-3.6669312	2.1772404	82.219473	-2.16005166	-57.9547017
2.69	269	-0.046	-1.109	-0.072	0.2291832	-3.2085648	2.4637194	82.22520258	-2.18869956	-57.9833496
2.7	270	-0.042	-1.092	-0.063	-1.6042824	-3.2085648	1.8334656	82.22520258	-2.2058883	-58.00626792
2.71	271	-0.036	-1.057	-0.057	-3.0939732	-3.6669312	0.9167328	82.19655468	-2.21734746	-58.04637498
2.72	272	-0.036	-1.031	-0.06	-5.3858052	-4.5263682	-0.1718874	82.14498846	-2.22307704	-58.09221162
2.73	273	-0.034	-1.005	-0.069	-8.6516658	-4.7555514	-1.145916	82.05904476	-2.21734746	-58.13804826
2.74	274	-0.032	-0.99	-0.072	-12.318597	-5.443101	-2.005353	81.93872358	-2.2058883	-58.19534406
2.75	275	-0.034	-0.984	-0.07	-16.3865988	-6.2452422	-2.8074942	81.77829534	-2.18296998	-58.26409902
2.76	276	-0.034	-0.987	-0.063	-20.7983754	-7.0473834	-3.4950438	81.57203046	-2.16005166	-58.33858356
2.77	277	-0.036	-0.994	-0.055	-24.8090814	-7.9068204	-3.8961144	81.32565852	-2.13140376	-58.42452726
2.78	278	-0.04	-1.005	-0.057	-28.8197874	-7.8495246	-4.010706	81.03917952	-2.10848544	-58.51047096
2.79	279	-0.046	-1.017	-0.055	-32.4867186	-7.0473834	-3.9534102	80.71259346	-2.07983754	-58.59068508
2.8	280	-0.049	-1.026	-0.059	-35.4088044	-6.0733548	-3.8388186	80.36308908	-2.05691922	-58.65944004
2.81	281	-0.052	-1.033	-0.051	-38.0444112	-5.2139178	-3.7815228	79.97920722	-2.02827132	-58.72246542
2.82	282	-0.054	-1.034	-0.046	-40.4508348	-5.2139178	-3.5523396	79.56667746	-2.005353	-58.7854908
2.83	283	-0.052	-1.027	-0.054	-41.7113424	-5.8441716	-3.2658606	79.14841812	-1.98816426	-58.84851618
2.84	284	-0.05	-1.027	-0.063	-43.0291458	-5.9014674	-3.0939732	78.71297004	-1.97097552	-58.91727114
2.85	285	-0.05	-1.029	-0.071	-44.1750618	-5.0420304	-2.86479	78.27752196	-1.95378678	-58.98029652
2.86	286	-0.052	-1.035	-0.09	-44.5188366	-3.437748	-2.6356068	77.82488514	-1.94232762	-59.02040358
2.87	287	-0.056	-1.042	-0.108	-45.7220484	-0.9167328	-2.2345362	77.36078916	-1.92513888	-59.03759232
2.88	288	-0.058	-1.047	-0.12	-46.9252602	1.8334656	-1.8334656	76.88523402	-1.90795014	-59.03186274
2.89	289	-0.062	-1.05	-0.133	-47.3836266	3.8388186	-1.5469866	76.4039493	-1.8907614	-59.00321484
2.9	290	-0.06	-1.047	-0.145	-47.555514	5.156622	-1.3178034	75.92266458	-1.87357266	-58.9573782
2.91	291	-0.055	-1.042	-0.163	-47.3836266	5.2139178	-1.0886202	75.43565028	-1.85638392	-58.91154156
2.92	292	-0.05	-1.038	-0.181	-47.4982182	4.4690724	-0.7448454	74.95436556	-1.84492476	-58.87716408
2.93	293	-0.047	-1.024	-0.195	-47.841993	3.3804522	-0.4583664	74.46735126	-1.8334656	-58.84851618
2.94	294	-0.043	-1.009	-0.206	-47.3836266	1.3178034	-0.2291832	73.98606654	-1.8334656	-58.8427866
2.95	295	-0.04	-0.998	-0.214	-46.982556	0.1145916	-0.286479	73.5105114	-1.83919518	-58.8427866
2.96	296	-0.036	-0.989	-0.214	-47.269035	-0.286479	-0.4583664	73.03495626	-1.83919518	-58.85424576
2.97	297	-0.034	-0.982	-0.216	-48.0138804	-0.4583664	-0.9740286	72.54794196	-1.83919518	-58.86570492
2.98	298	-0.037	-0.976	-0.218	-48.3576552	-0.1718874	-1.5469866	72.05519808	-1.82773602	-58.87716408
2.99	299	-0.039	-0.971	-0.222	-49.0452048	1.0313244	-1.9480572	71.55672462	-1.81054728	-58.87716408
3	300	-0.04	-0.966	-0.233	-49.9046418	2.5210152	-2.1199446	71.05252158	-1.78762896	-58.86570492
3.01	301	-0.038	-0.959	-0.246	-50.4775998	3.724227	-2.291832	70.54258896	-1.76471064	-58.83705702
3.02	302	-0.036	-0.957	-0.258	-51.1078536	4.6982556	-2.3491278	70.02119718	-1.73033316	-58.80840912
3.03	303	-0.033	-0.956	-0.269	-51.6808116	5.2712136	-2.1772404	69.49407582	-1.70168526	-58.76830206
3.04	304	-0.026	-0.955	-0.28	-52.5402486	5.9014674	-2.0626488	68.9554953	-1.66730778	-58.72246542
3.05	305	-0.021	-0.952	-0.293	-53.4569814	6.302538	-1.8907614	68.41691478	-1.6329303	-58.67662878
3.06	306	-0.02	-0.95	-0.305	-53.6861646	6.4744254	-1.7761698	67.8668751	-1.59855282	-58.62506256
3.07	307	-0.017	-0.946	-0.315	-54.144531	6.3598338	-1.718874	67.31683542	-1.56990492	-58.57922592
3.08	308	-0.014	-0.942	-0.324	-54.43101	5.8441716	-1.8334656	66.76106616	-1.53552744	-58.53338928
3.09	309	-0.01	-0.935	-0.332	-54.6028974	5.443101	-2.2345362	66.2052969	-1.50114996	-58.4990118
3.1	310	-0.003	-0.935	-0.352	-55.4623344	4.583664	-2.8074942	65.64379806	-1.46677248	-58.4703639
3.11	311	-0.001	-0.935	-0.365	-56.0925882	2.578311	-2.8074942	65.07656964	-1.43812458	-58.46463432
3.12	312	-0.001	-0.928	-0.367	-56.2071798	0.9740286	-2.6929026	64.50361164	-1.41520626	-58.4703639
3.13	313	0.002	-0.92	-0.368	-56.149884	0.1718874	-2.7501984	63.93638322	-1.39228794	-58.48182306
3.14	314	0.007	-0.912	-0.381	-57.0666168	0.1718874	-2.9793816	63.35196606	-1.3750992	-58.4990118
3.15	315	0.009	-0.904	-0.395	-58.0979412	0.2291832	-3.2085648	62.7675489	-1.35218088	-58.51620054
3.16	316	0.012	-0.898	-0.403	-58.155237	0.572958	-3.5523396	62.17740216	-1.32353298	-58.5276597
3.17	317	-0.006	-0.901	-0.415	-58.0406454	1.6615782	-3.7815228	61.58725542	-1.2891555	-58.53338928
3.18	318	-0.005	-0.904	-0.439	-59.1865614	2.8074942	-4.1825934	60.98564952	-1.24904844	-58.53338928
3.19	319	-0.016	-0.907	-0.463	-60.0459984	3.151269	-4.4117766	60.37831404	-1.2032118	-58.53338928
3.2	320	-0.023	-0.913	-0.48	-60.7908438	2.578311	-4.4690724	59.7595194	-1.15737516	-58.53338928
3.21	321	-0.025	-0.911	-0.475	-61.4210976	1.3178034	-4.4690724	59.13499518	-1.12299768	-58.55057802
3.22	322	-0.022	-0.907	-0.476	-61.592985	0.4010706	-4.4117766	58.51047096	-1.0886202	-58.57349634
3.23	323	-0.014	-0.903	-0.486	-61.8221682	-0.3437748	-4.297185	57.88594674	-1.06570188	-58.60214424
3.24	324	-0.002	-0.901	-0.511	-62.165943	-1.5469866	-4.2398892	57.25569294	-1.04278356	-58.6422513
3.25	325	0.008	-0.898	-0.535	-62.5097178	-2.4064236	-4.0680018	56.61970956	-1.02559482	-58.68808794
3.26	326	0.013	-0.892	-0.558	-62.2805346	-2.291832	-4.3544808	55.98945576	-1.01413566	-58.73392458
3.27	327	0.013	-0.895	-0.582	-62.0513514	-2.6929026	-4.297185	55.35920196	-0.99694692	-58.77976122
3.28	328	0.01	-0.895	-0.601	-62.6816052	-3.4950438	-4.2398892	54.72894816	-0.99121734	-58.83705702
3.29	329	0.004	-0.893	-0.614	-63.2545632	-3.9534102	-4.1825934	54.0872352	-0.99121734	-58.9000824
3.3	330	0	-0.89	-0.626	-63.3691548	-3.5523396	-4.3544808	53.44552224	-0.97975818	-58.9573782
3.31	331	-0.001	-0.886	-0.65	-62.9680842	-3.7815228	-4.6982556	52.80380928	-0.9740286	-59.014674
3.32	332	-0.003	-0.881	-0.667	-62.0513514	-4.4690724	-4.870143	52.17928506	-0.96829902	-59.08342896
3.33	333	-0.007	-0.878	-0.672	-60.9627312	-5.443101	-4.8128472	51.56049042	-0.9740286	-59.16364308
3.34	334	-0.01	-0.88	-0.692	-58.8427866	-6.7036086	-4.4117766	50.9646141	-0.98548776	-59.2438572
3.35	335	-0.009	-0.884	-0.71	-56.6655462	-7.448454	-4.297185	50.3916561	-1.0026765	-59.3298009
3.36	336	-0.002	-0.877	-0.713	-54.2591226	-8.7662574	-4.297185	49.84161642	-1.0313244	-59.42720376
3.37	337	0	-0.854	-0.719	-52.3683612	-10.6570188	-4.1825934	49.31449506	-1.07716104	-59.54179536
3.38	338	-0.001	-0.814	-0.706	-52.139178	-11.2872726	-3.3231564	48.7873737	-1.12872726	-59.65065738
3.39	339	0.004	-0.778	-0.727	-51.9672906	-10.313244	-1.0886202	48.26598192	-1.19175264	-59.73660108
3.4	340	0.008	-0.758	-0.759	-51.3943326	-9.167328	2.0626488	47.73886056	-1.27196676	-59.79389688
3.41	341	0.022	-0.729	-0.784	-50.0192334	-8.021412	4.297185	47.23465752	-1.36364004	-59.82827436
3.42	342	0.025	-0.701	-0.789	-48.0711762	-7.3338624	4.870143	46.74764322	-1.45531332	-59.85119268
3.43	343	0.008	-0.69	-0.783	-46.5241896	-6.4744254	4.7555514	46.27781766	-1.53552744	-59.86838142
3.44	344	-0.018	-0.692	-0.781	-44.690724	-6.1306506	4.6982556	45.82518084	-1.61574156	-59.87984058
3.45	345	-0.049	-0.702	-0.79	-42.9145542	-7.0473834	4.6982556	45.38400318	-1.70741484	-59.9027589
3.46	346	-0.074	-0.702	-0.791	-41.252976	-7.9641162	4.7555514	44.96574384	-1.79908812	-59.92567722
3.47	347	-0.086	-0.694	-0.786	-38.674665	-7.7922288	4.870143	44.5761324	-1.8907614	-59.94859554
3.48	348	-0.084	-0.69	-0.79	-35.9817624	-6.8182002	4.297185	44.21516886	-1.9767051	-59.96578428
3.49	349	-0.09	-0.682	-0.791	-33.3461556	-5.2712136	2.86479	43.87712364	-2.0340009	-59.98297302
3.5	350	-0.105	-0.671	-0.783	-29.9657034	-3.2658606	1.3750992	43.56199674	-2.07983754	-60.00016176
3.51	351	-0.109	-0.661	-0.789	-27.8457588	-1.6615782	0.9167328	43.28124732	-2.10275586	-60.00589134
3.52	352	-0.105	-0.652	-0.794	-26.069589	-1.2032118	0.9167328	43.01768664	-2.1199446	-60.01162092
3.53	353	-0.096	-0.642	-0.802	-23.8350528	-1.0313244	0.9167328	42.7713147	-2.13713334	-60.01162092
3.54	354	-0.086	-0.64	-0.823	-21.772404	-0.1145916	0.5156622	42.55359066	-2.1485925	-60.00589134
3.55	355	-0.07	-0.646	-0.836	-20.05353	-0.0572958	0	42.33013704	-2.15432208	-60.01162092
3.56	356	-0.055	-0.65	-0.836	-17.9908812	-0.9167328	-0.5156622	42.14679048	-2.16005166	-60.0173505
3.57	357	-0.04	-0.658	-0.844	-15.9855282	-1.6615782	-0.859437	41.98636224	-2.17151082	-60.04026882
3.58	358	-0.037	-0.657	-0.831	-13.2926256	-3.3231564	-1.0313244	41.84885232	-2.18869956	-60.06891672
3.59	359	-0.037	-0.654	-0.828	-10.5424272	-3.6096354	-1.432395	41.74571988	-2.2058883	-60.1032942
3.6	360	-0.042	-0.655	-0.836	-8.4224826	-4.010706	-1.4896908	41.63685786	-2.22880662	-60.14340126
3.61	361	-0.043	-0.654	-0.835	-6.875496	-4.8128472	-1.2032118	41.5681029	-2.25745452	-60.1892379
3.62	362	-0.044	-0.642	-0.828	-4.870143	-4.870143	-0.8021412	41.52226626	-2.28610242	-60.22361538
3.63	363	-0.047	-0.638	-0.828	-2.7501984	-4.1825934	-0.572958	41.49361836	-2.31475032	-60.25799286
3.64	364	-0.048	-0.64	-0.816	-0.859437	-3.6669312	-0.4010706	41.48788878	-2.33766864	-60.28664076
3.65	365	-0.05	-0.638	-0.806	1.0313244	-3.5523396	-0.3437748	41.44778172	-2.36631654	-60.31528866
3.66	366	-0.061	-0.642	-0.813	2.7501984	-3.8961144	-0.572958	41.47642962	-2.38923486	-60.34966614
3.67	367	-0.078	-0.649	-0.806	4.010706	-4.297185	-0.7448454	41.52226626	-2.41788276	-60.38404362
3.68	368	-0.081	-0.647	-0.78	5.3285094	-4.5263682	-0.9740286	41.57383248	-2.44080108	-60.4184211
3.69	369	-0.072	-0.645	-0.782	6.1879464	-3.9534102	-1.3178034	41.64258744	-2.4637194	-60.45852816
3.7	370	-0.063	-0.64	-0.782	6.9900876	-3.151269	-1.4896908	41.68842408	-2.48090814	-60.49290564
3.71	371	-0.056	-0.631	-0.76	8.5370742	-2.4064236	-1.4896908	41.78009736	-2.48663772	-60.52155354
3.72	372	-0.055	-0.626	-0.751	10.1413566	-2.1199446	-1.145916	41.8832298	-2.4923673	-60.54447186
3.73	373	-0.052	-0.62	-0.751	11.172681	-1.8334656	-0.8021412	41.9978214	-2.49809688	-60.5616606
3.74	374	-0.056	-0.615	-0.733	12.3758928	-1.4896908	-0.9740286	42.12387216	-2.50382646	-60.57884934
3.75	375	-0.061	-0.613	-0.718	13.9228794	-0.6875496	-1.3750992	42.2556525	-2.50382646	-60.59603808
3.76	376	-0.064	-0.612	-0.714	15.5271618	0.4010706	-1.9480572	42.41035116	-2.48090814	-60.60749724
3.77	377	-0.065	-0.617	-0.699	17.3033316	1.9480572	-2.5210152	42.58796814	-2.45226024	-60.60749724
3.78	378	-0.068	-0.624	-0.687	18.7357266	2.9793816	-3.151269	42.77704428	-2.4064236	-60.61322682
3.79	379	-0.07	-0.631	-0.692	19.5378678	3.3231564	-3.5523396	42.97757958	-2.35485738	-60.61322682
3.8	380	-0.075	-0.634	-0.685	20.626488	3.4950438	-4.010706	43.17811488	-2.30329116	-60.6189564
3.81	381	-0.077	-0.637	-0.669	21.6005166	3.9534102	-4.5263682	43.4015685	-2.24599536	-60.62468598
3.82	382	-0.065	-0.642	-0.673	21.8869956	4.6982556	-5.2139178	43.61929254	-2.17151082	-60.62468598
3.83	383	-0.052	-0.646	-0.66	23.204799	5.3858052	-5.6149884	43.85420532	-2.0912967	-60.63041556
3.84	384	-0.036	-0.658	-0.651	24.064236	6.9327918	-6.4171296	44.10057726	-1.99389384	-60.62468598
3.85	385	-0.026	-0.67	-0.65	24.1788276	8.6516658	-7.0473834	44.3469492	-1.88503182	-60.61322682
3.86	386	-0.029	-0.675	-0.643	24.6944898	10.2559482	-7.3338624	44.59332114	-1.75898106	-60.5903085
3.87	387	-0.034	-0.681	-0.636	25.78311	10.9434978	-7.0473834	44.85115224	-1.62720072	-60.5616606
3.88	388	-0.037	-0.686	-0.641	26.5279554	11.5164558	-6.6463128	45.1204425	-1.50114996	-60.52728312
3.89	389	-0.032	-0.693	-0.636	27.8457588	11.6883432	-6.302538	45.40119192	-1.3750992	-60.48144648
3.9	390	-0.028	-0.705	-0.626	28.5333084	11.8602306	-5.9014674	45.68767092	-1.24904844	-60.43560984
3.91	391	-0.024	-0.716	-0.614	29.1062664	12.5477802	-5.8441716	45.9798795	-1.1172681	-60.38404362
3.92	392	-0.018	-0.724	-0.61	29.3354496	12.6623718	-6.0733548	46.27781766	-0.98548776	-60.3324774
3.93	393	-0.009	-0.733	-0.595	30.080295	12.6623718	-6.589017	46.5814854	-0.84797784	-60.28664076
3.94	394	-0.005	-0.743	-0.594	30.7678446	13.2353298	-7.0473834	46.89088272	-0.70473834	-60.23507454
3.95	395	0.002	-0.745	-0.591	31.4553942	13.9228794	-7.161975	47.2117392	-0.55576926	-60.17777874
3.96	396	0.009	-0.744	-0.582	32.3148312	13.5218088	-7.0473834	47.53832526	-0.41252976	-60.12621252
3.97	397	0.016	-0.742	-0.575	33.1169724	13.5218088	-6.9327918	47.8706409	-0.26929026	-60.06891672
3.98	398	0.025	-0.748	-0.57	33.6326346	13.3499214	-6.9900876	48.20868612	-0.13178034	-60.01162092
3.99	399	0.03	-0.759	-0.565	33.7472262	11.8029348	-7.2192708	48.55246092	0	-59.97151386
4	400	0.032	-0.771	-0.555	33.8618178	9.740286	-7.2765666	48.9019653	0.12032118	-59.94286596
4.01	401	0.037	-0.784	-0.546	33.8618178	7.6203414	-7.3338624	49.2457401	0.2291832	-59.9314068
4.02	402	0.039	-0.793	-0.542	33.5753388	5.72958	-7.6203414	49.58378532	0.32658606	-59.9314068
4.03	403	0.041	-0.8	-0.528	33.9191136	4.5263682	-8.1932994	49.92756012	0.42398892	-59.94859554
4.04	404	0.055	-0.805	-0.506	34.4920716	3.2658606	-8.6516658	50.2770645	0.5156622	-59.97724344
4.05	405	0.066	-0.806	-0.486	34.663959	0.859437	-8.9954406	50.63802804	0.6016059	-60.02308008
4.06	406	0.06	-0.809	-0.491	34.7212548	-2.86479	-9.2246238	50.993262	0.6589017	-60.1032942
4.07	407	0.052	-0.811	-0.476	35.2942128	-6.5317212	-9.0527364	51.34849596	0.69327918	-60.21215622
4.08	408	0.049	-0.811	-0.465	35.523396	-8.4797784	-9.0527364	51.7094595	0.72192708	-60.3324774
4.09	409	0.054	-0.812	-0.471	35.809875	-9.453807	-9.167328	52.07615262	0.7448454	-60.46425774
4.1	410	0.061	-0.813	-0.464	36.8411994	-10.599723	-9.167328	52.4543049	0.76203414	-60.60176766
4.11	411	0.066	-0.81	-0.448	38.388186	-12.5477802	-8.880849	52.84391634	0.76776372	-60.75073674
4.12	412	0.063	-0.8	-0.432	39.1330314	-13.8082878	-8.307891	53.24498694	0.75630456	-60.91116498
4.13	413	0.063	-0.787	-0.42	40.393539	-14.610429	-7.3911582	53.65178712	0.73911582	-61.07159322
4.14	414	0.066	-0.783	-0.408	41.1383844	-16.1574156	-6.4171296	54.07004646	0.70473834	-61.24348062
4.15	415	0.065	-0.782	-0.406	41.3102718	-16.042824	-5.72958	54.49976496	0.67036086	-61.40390886
4.16	416	0.054	-0.781	-0.386	41.539455	-16.042824	-4.8128472	54.9180243	0.6302538	-61.55860752
4.17	417	0.036	-0.778	-0.357	42.0551172	-16.8449652	-3.9534102	55.3477428	0.57868758	-61.71903576
4.18	418	0.021	-0.78	-0.382	42.112413	-16.6730778	-2.9793816	55.7774613	0.5156622	-61.87373442
4.19	419	0.01	-0.79	-0.377	42.398892	-17.9335854	-1.9480572	56.2071798	0.44117766	-62.03416266
4.2	420	0.006	-0.802	-0.351	42.7426668	-19.9962342	-1.0886202	56.65408704	0.35523396	-62.20605006
4.21	421	0.013	-0.815	-0.35	43.0291458	-20.2827132	-0.286479	57.08953512	0.2578311	-62.37220788
4.22	422	0.017	-0.823	-0.335	43.4875122	-18.9649098	0.1718874	57.53644236	0.16615782	-62.53263612
4.23	423	0.017	-0.824	-0.318	44.690724	-17.2460358	0.4010706	57.98907918	0.08021412	-62.67587562
4.24	424	0.009	-0.824	-0.308	46.0085274	-16.3865988	0.7448454	58.45890474	0	-62.80765596
4.25	425	-0.001	-0.825	-0.304	45.7793442	-15.4125702	1.3750992	58.94018946	-0.08021412	-62.92797714
4.26	426	-0.011	-0.81	-0.288	46.409598	-14.7823164	1.9480572	59.4157446	-0.16042824	-63.04256874
4.27	427	-0.014	-0.793	-0.284	48.0711762	-14.5531332	2.4637194	59.9027589	-0.24637194	-63.15716034
4.28	428	-0.012	-0.782	-0.286	49.3889796	-13.750992	2.9220858	60.40696194	-0.33231564	-63.26029278
4.29	429	-0.009	-0.785	-0.266	50.2484166	-12.6623718	3.437748	60.92262414	-0.41252976	-63.35196606
4.3	430	-0.01	-0.786	-0.248	50.706783	-10.8289062	4.0680018	61.44401592	-0.49274388	-63.42072102
4.31	431	-0.024	-0.79	-0.267	50.5348956	-9.5683986	4.6982556	61.95967812	-0.56722842	-63.4837464
4.32	432	-0.035	-0.78	-0.251	51.1078536	-9.167328	5.2139178	62.4810699	-0.64744254	-63.53531262
4.33	433	-0.042	-0.771	-0.229	54.3164184	-8.9954406	5.0420304	63.03683916	-0.72765666	-63.58687884
4.34	434	-0.043	-0.765	-0.234	55.9779966	-7.5057498	4.3544808	63.60406758	-0.79068204	-63.63271548
4.35	435	-0.036	-0.753	-0.229	57.6395748	-5.9014674	3.0939732	64.1999439	-0.83651868	-63.66709296
4.36	436	-0.029	-0.744	-0.185	58.3844202	-3.4950438	2.005353	64.79582022	-0.859437	-63.69001128
4.37	437	-0.022	-0.751	-0.174	58.7854908	-0.7448454	1.0886202	65.39169654	-0.86516658	-63.6842817
4.38	438	-0.027	-0.767	-0.213	58.155237	2.86479	0.7448454	65.98184328	-0.85370742	-63.6556338
4.39	439	-0.043	-0.776	-0.191	59.014674	3.7815228	0.7448454	66.5777196	-0.84224826	-63.60979716
4.4	440	-0.059	-0.779	-0.156	61.3638018	3.0366774	0.7448454	67.2079734	-0.8307891	-63.57541968
4.41	441	-0.055	-0.772	-0.159	62.738901	3.151269	0.5156622	67.84395678	-0.81932994	-63.5410422
4.42	442	-0.046	-0.758	-0.152	65.030733	3.724227	-0.1718874	68.50285848	-0.79641162	-63.50093514
4.43	443	-0.047	-0.749	-0.101	68.2965936	3.724227	-1.8907614	69.19613766	-0.76203414	-63.46655766
4.44	444	-0.026	-0.746	-0.076	71.7916374	3.3804522	-3.2085648	69.92379432	-0.71046792	-63.43790976
4.45	445	0.004	-0.758	-0.093	74.3126526	3.8961144	-3.7815228	70.68582846	-0.65317212	-63.40926186
4.46	446	0.014	-0.77	-0.088	78.0368796	3.2658606	-3.2085648	71.4765105	-0.6016059	-63.38061396
4.47	447	0.025	-0.78	-0.04	80.6724864	1.3178034	-2.005353	72.29584044	-0.572958	-63.3691548
4.48	448	0.033	-0.794	-0.003	83.3080932	-0.286479	-0.9167328	73.14381828	-0.55576926	-63.3691548
4.49	449	0.043	-0.805	0.004	84.7404882	0	0.3437748	74.00325528	-0.55003968	-63.35769564
4.5	450	0.045	-0.812	0.001	85.8291084	0.9167328	2.0626488	74.8856106	-0.55576926	-63.33477732
4.51	451	0.037	-0.801	0.015	86.5739538	2.86479	3.9534102	75.76223634	-0.57868758	-63.28894068
4.52	452	0.021	-0.785	0.034	87.3187992	7.448454	6.7609044	76.64459166	-0.61879464	-63.19153782
4.53	453	-0.028	-0.776	0.035	87.662574	12.4904844	8.7662574	77.53267656	-0.67036086	-63.04256874
4.54	454	-0.054	-0.773	0.051	87.6052782	17.9908812	9.1100322	78.41503188	-0.7161975	-62.84203344
4.55	455	-0.082	-0.779	0.078	85.8291084	25.8977016	9.6256944	79.29165762	-0.76203414	-62.56128402
4.56	456	-0.129	-0.781	0.07	85.5426294	34.2055926	10.599723	80.15109462	-0.80787078	-62.20032048
4.57	457	-0.166	-0.796	0.075	86.0582916	39.8778768	11.5164558	81.01053162	-0.859437	-61.78206114
4.58	458	-0.179	-0.821	0.081	86.230179	41.4248634	13.6936962	81.8756982	-0.93392154	-61.34661306
4.59	459	-0.182	-0.845	0.038	86.6312496	40.9092012	17.8189938	82.74086478	-1.0599723	-60.91116498
4.6	460	-0.16	-0.86	-0.043	88.7511942	41.825934	21.1421502	83.62894968	-1.22613012	-60.46998732
4.61	461	-0.112	-0.869	-0.093	89.4387438	42.1697088	20.6837838	84.52276416	-1.39228794	-60.02308008
4.62	462	-0.06	-0.889	-0.121	83.1362058	38.4454818	17.475219	85.34782368	-1.53552744	-59.6162799
4.63	463	-0.012	-0.876	-0.095	74.0834694	34.37748	13.8655836	86.0869395	-1.65011904	-59.26104594
4.64	464	0.028	-0.843	-0.033	64.5150708	35.4661002	10.9434978	86.72865246	-1.74179232	-58.89435282
4.65	465	0.08	-0.811	-0.035	53.8007562	40.4508348	6.7609044	87.25577382	-1.78762896	-58.48755264
4.66	466	0.137	-0.768	-0.078	40.680018	43.8885828	0.4583664	87.64538526	-1.78189938	-58.04637498
4.67	467	0.191	-0.724	-0.089	26.4133638	41.9978214	-5.5576926	87.89748678	-1.718874	-57.63384522
4.68	468	0.226	-0.66	-0.123	12.1467096	35.0650296	-8.4224826	88.0063488	-1.6329303	-57.28434084
4.69	469	0.236	-0.593	-0.149	1.6615782	24.2361234	-8.2505952	88.01207838	-1.5469866	-57.04942806
4.7	470	0.201	-0.533	-0.115	-5.156622	10.1986524	-6.7036086	87.949053	-1.46677248	-56.94629562
4.71	471	0.157	-0.519	-0.03	-8.7089616	3.8961144	-4.6409598	87.85737972	-1.42093584	-56.91191814
4.72	472	0.092	-0.551	0.018	-15.183387	6.1879464	-3.6096354	87.70268106	-1.38655836	-56.85462234
4.73	473	0.014	-0.548	0.039	-26.1841806	11.9175264	-4.3544808	87.4333908	-1.34072172	-56.74003074
4.74	474	-0.058	-0.54	0.016	-34.3201842	16.1574156	-6.6463128	87.07815684	-1.27769634	-56.58533208
4.75	475	-0.147	-0.554	-0.042	-39.4768062	15.9282324	-8.9954406	86.66562708	-1.19748222	-56.436363
4.76	476	-0.224	-0.603	-0.073	-42.8572584	11.1153852	-10.3705398	86.230179	-1.09434978	-56.33896014
4.77	477	-0.266	-0.697	-0.095	-49.4462754	7.734933	-9.2819196	85.72597596	-1.0026765	-56.27593476
4.78	478	-0.252	-0.882	-0.155	-62.2232388	11.0580894	-7.5057498	85.08999258	-0.92819196	-56.1785319
4.79	479	-0.221	-1.178	-0.226	-87.662574	21.3140376	-5.72958	84.19044852	-0.86516658	-55.9779966
4.8	480	-0.187	-1.644	-0.384	-127.9988172	41.825934	-5.6149884	82.88410428	-0.78495246	-55.58838516
4.81	481	-0.203	-2.177	-0.467	-176.4137682	57.3530958	-8.59437	81.07928658	-0.65317212	-55.05553422
4.82	482	-0.331	-2.41	-0.401	-197.8996932	56.4936588	-13.9801752	79.05674484	-0.45263682	-54.5456016
4.83	483	-0.508	-2.634	-0.351	-173.9500488	48.9306132	-22.8610242	77.28057504	-0.16615782	-54.13307184
4.84	484	-0.496	-2.635	-0.471	-130.920903	52.1964738	-22.2307704	75.9455829	0.13750992	-53.69189418
4.85	485	-0.265	-2.487	-0.634	-120.6649548	50.7640788	-20.3973048	74.7137232	0.43544808	-53.26217568
4.86	486	-0.084	-2.369	-0.815	-132.8116644	54.43101	-21.199446	73.36154232	0.75630456	-52.80953886
4.87	487	0.121	-2.417	-0.871	-134.8170174	57.4676874	-24.6944898	71.99790228	1.12872726	-52.34544288
4.88	488	0.348	-2.451	-0.815	-133.9002846	47.6128098	-27.1009134	70.63999182	1.50687954	-51.9959385
4.89	489	0.579	-2.323	-0.675	-132.1241148	36.1536498	-27.0436176	69.2992701	1.85638392	-51.75529614
4.9	490	0.682	-2.071	-0.476	-133.9575804	22.1161788	-28.0176462	67.94135964	2.1772404	-51.65789328
4.91	491	0.582	-1.836	-0.369	-132.8689602	8.1932994	-29.9657034	66.58917876	2.4637194	-51.7094595
4.92	492	0.373	-1.609	-0.345	-124.2745902	2.6929026	-30.080295	65.32294158	2.73300966	-51.81259194
4.93	493	0.198	-1.383	-0.112	-114.018642	-1.6615782	-28.5906042	64.15410726	2.96792244	-51.95583144
4.94	494	0.091	-1.244	0.093	-101.2989744	-9.2246238	-27.1009134	63.11705328	3.16272816	-52.1678259
4.95	495	0.105	-1.171	0.077	-88.522011	-8.0787078	-24.6944898	62.22896838	3.33461556	-52.35117246
4.96	496	0.191	-1.07	0.155	-80.787078	-10.3705398	-22.1161788	61.39817928	3.47212548	-52.55170776
4.97	497	0.202	-0.914	0.218	-80.0995284	-12.8342592	-21.1421502	60.57311976	3.59244666	-52.77516138
4.98	498	0.222	-0.791	0.125	-79.5265704	-12.7769634	-21.1421502	59.75378982	3.70130868	-52.99288542
4.99	499	0.24	-0.671	0.145	-81.932994	-16.329303	-19.9962342	58.91154156	3.78725238	-53.24498694
5	500	0.216	-0.573	0.233	-90.0117018	-17.4179232	-17.8762896	58.00053834	3.85027776	-53.4856293
5.01	501	0.156	-0.475	0.257	-102.1584114	-13.0634424	-13.5218088	56.9520252	3.87892566	-53.67470544
5.02	502	0.091	-0.343	0.286	-117.0553194	-11.4018642	-9.7975818	55.75454298	3.89038482	-53.8294041
5.03	503	0.028	-0.249	0.254	-117.169911	-6.7036086	-7.2192708	54.56279034	3.8961144	-53.93253654
5.04	504	-0.053	-0.183	0.259	-117.9720522	-2.6929026	-5.5003968	53.35957854	3.90757356	-53.99556192
5.05	505	-0.106	-0.112	0.283	-120.8368422	2.86479	-3.7815228	52.14490758	3.93622146	-53.99556192
5.06	506	-0.146	-0.057	0.258	-121.6389834	4.4690724	-2.5210152	50.91304788	3.96486936	-53.97837318
5.07	507	-0.155	-0.056	0.243	-123.758928	6.2452422	-1.4896908	49.65826986	3.99924684	-53.9439957
5.08	508	-0.124	-0.059	0.244	-125.8788726	9.2819196	-1.2032118	48.38057352	4.04508348	-53.8866999
5.09	509	-0.061	-0.111	0.226	-127.5977466	8.7662574	-3.5523396	47.09141802	4.11383844	-53.84659284
5.1	510	0.001	-0.199	0.256	-129.3739164	5.5003968	-6.9327918	45.79080336	4.1825934	-53.858052
5.11	511	0.061	-0.294	0.215	-128.4571836	0.5156622	-9.5111028	44.48445912	4.23415962	-53.92107738
5.12	512	0.105	-0.382	0.17	-127.3112676	-2.9793816	-11.6883432	43.18384446	4.27999626	-54.0299394
5.13	513	0.136	-0.448	0.189	-125.9934642	-6.875496	-12.605076	41.89468896	4.297185	-54.1731789
5.14	514	0.113	-0.476	0.149	-123.472449	-9.9694692	-13.0634424	40.62845178	4.29145542	-54.33933672
5.15	515	0.089	-0.486	0.139	-119.6909262	-13.0634424	-12.7769634	39.4195104	4.26280752	-54.52268328
5.16	516	0.055	-0.474	0.148	-115.2791496	-16.5584862	-10.9434978	38.23921692	4.19405256	-54.71175942
5.17	517	0.019	-0.43	0.131	-109.8360486	-19.4232762	-7.0473834	37.11621924	4.07373138	-54.8893764
5.18	518	-0.031	-0.345	0.121	-109.2057948	-26.642547	-3.6669312	35.99322156	3.8674665	-55.08418212
5.19	519	-0.078	-0.244	0.112	-107.9452872	-31.2835068	-0.859437	34.8931422	3.61536498	-55.27898784
5.2	520	-0.083	-0.132	0.137	-105.0232014	-30.3094782	0.859437	33.82744032	3.34607472	-55.44514566
5.21	521	-0.067	-0.017	0.117	-103.8772854	-27.5592798	0.8021412	32.76746802	3.10543236	-55.59411474
5.22	522	-0.098	0.122	-0.023	-101.127087	-22.1161788	0.4583664	31.7418732	2.90489706	-55.70870634
5.23	523	-0.174	0.278	-0.155	-93.9078162	-7.9068204	0.6302538	30.78503334	2.81895336	-55.7488134
5.24	524	-0.315	0.49	-0.326	-84.4540092	3.6096354	-0.1718874	29.93132592	2.84187168	-55.73162466
5.25	525	-0.416	0.717	-0.597	-75.2866812	6.302538	-2.2345362	29.1062664	2.87051958	-55.7201655
5.26	526	-0.4	0.888	-0.756	-78.5525418	2.6929026	-6.4744254	28.3041252	2.91062664	-55.76600214
5.27	527	-0.349	0.929	-0.811	-94.1369994	1.5469866	-13.8655836	27.34155576	2.9793816	-55.87486416
5.28	528	-0.221	0.764	-0.861	-111.6695142	21.8869956	-22.631841	26.20136934	3.25440144	-55.97226702
5.29	529	-0.061	0.486	-0.853	-114.7061916	40.6227222	-24.6944898	25.02680544	3.70130868	-56.0066445
5.3	530	-0.084	0.178	-1.123	-99.2363256	35.2942128	-20.3973048	23.99548104	4.07946096	-56.0352924
5.31	531	-0.105	-0.144	-1.646	-107.8306956	29.5646328	-17.4179232	22.89540168	4.40031744	-56.06966988
5.32	532	-0.048	-0.744	-2.748	-163.9805796	23.2620948	-19.2513888	21.22236432	4.66387812	-56.149884
5.33	533	0.365	-1.038	-3.945	-240.0121062	-21.7151082	-23.0329116	18.77010408	4.50917946	-56.43063342
5.34	534	0.829	-0.511	-3.996	-155.4435054	-29.9084076	-23.3766864	17.17155126	4.27999626	-56.74576032
5.35	535	1.123	-0.363	-3.996	-113.5602756	-11.6883432	-13.8082878	16.00844652	4.19405256	-56.91191814
5.36	536	0.96	0.119	-3.996	-160.714719	-21.4286292	-5.72958	14.36978664	3.98778768	-57.02078016
5.37	537	0.764	0.437	-3.996	-181.627686	-12.318597	-5.2139178	12.52486188	3.85600734	-57.08953512
5.38	538	0.657	0.097	-3.939	-160.8293106	-29.793816	-14.32395	10.88047242	3.57525792	-57.29007042
5.39	539	0.412	0.368	-3.323	-146.1615858	-59.3584488	-18.8503182	9.39078162	3.01948866	-57.582279
5.4	540	0.263	0.616	-2.426	-122.5557162	-48.3003594	-12.3758928	8.1360036	2.5496631	-57.7828143
5.41	541	0.228	0.642	-1.874	-56.2071798	-24.7517856	3.0366774	7.56877518	2.29756158	-57.79427346
5.42	542	0.263	0.566	-1.38	-19.7097552	-19.9389384	16.1001198	7.37969904	2.07983754	-57.66249312
5.43	543	0.309	0.451	-1.03	-10.9434978	-21.0848544	25.7258142	7.2765666	1.83919518	-57.4390395
5.44	544	0.343	0.478	-0.821	-9.6256944	-18.8503182	24.350715	7.1906229	1.62147114	-57.22704504
5.45	545	0.308	0.472	-0.604	-8.7662574	-19.1367972	19.0795014	7.04165382	1.43812458	-57.07234638
5.46	546	0.238	0.472	-0.467	-4.3544808	-18.7930224	14.4958374	7.00154676	1.23758928	-56.95775478
5.47	547	0.191	0.459	-0.437	-8.1932994	-18.1054728	13.6364004	6.92133264	1.04278356	-56.84889276
5.48	548	0.092	0.405	-0.441	-15.8709366	-20.626488	14.7250206	6.76663398	0.81932994	-56.72857158
5.49	549	0.033	0.318	-0.484	-19.6524594	-22.91832	17.18874	6.57182826	0.572958	-56.59106166
5.5	550	0.042	0.213	-0.516	-16.5584862	-25.6112226	20.6837838	6.3884817	0.29793816	-56.42490384
5.51	551	0.056	0.151	-0.56	-12.4331886	-24.4080108	22.9756158	6.26816052	0.03437748	-56.23009812
5.52	552	0.069	0.13	-0.62	-9.3392154	-24.8090814	20.340009	6.17648724	-0.2291832	-56.05821072
5.53	553	0.045	0.087	-0.685	-8.59437	-24.6944898	17.8762896	6.09054354	-0.49274388	-55.91497122
5.54	554	-0.033	0.051	-0.766	-6.4171296	-20.4546006	14.8396122	6.02751816	-0.71046792	-55.79465004
5.55	555	-0.077	0.031	-0.844	-5.0993262	-13.8082878	10.4278356	5.94730404	-0.87089616	-55.71443592
5.56	556	-0.092	-0.009	-0.891	-1.8334656	-6.589017	6.8182002	5.9301153	-0.9453807	-55.65141054
5.57	557	-0.109	-0.038	-0.933	5.9587632	-0.0572958	3.437748	5.9874111	-0.95111028	-55.61703306
5.58	558	-0.104	-0.064	-0.994	13.1207382	7.161975	0.7448454	6.11919144	-0.87662574	-55.6055739
5.59	559	-0.079	-0.086	-1.043	17.8189938	11.6310474	-1.0313244	6.302538	-0.76203414	-55.59984432
5.6	560	-0.071	-0.099	-1.079	19.3086846	12.318597	-2.7501984	6.48588456	-0.64171296	-55.61130348
5.61	561	-0.079	-0.099	-1.126	18.3919518	11.6883432	-3.6096354	6.6749607	-0.52139178	-55.6342218
5.62	562	-0.078	-0.102	-1.143	17.2460358	10.7143146	-2.7501984	6.8468481	-0.41252976	-55.64568096
5.63	563	-0.106	-0.115	-1.128	16.1001198	10.4851314	-1.3178034	7.01300592	-0.30366774	-55.64568096
5.64	564	-0.144	-0.139	-1.122	14.4385416	8.5370742	-0.5156622	7.15624542	-0.21772404	-55.63995138
5.65	565	-0.18	-0.167	-1.143	12.3758928	4.4690724	0	7.28229618	-0.20626488	-55.6342218
5.66	566	-0.193	-0.209	-1.142	11.172681	2.2345362	0.572958	7.39688778	-0.18334656	-55.62276264
5.67	567	-0.184	-0.233	-1.078	10.0840608	2.9220858	0.6875496	7.50002022	-0.15469866	-55.61703306
5.68	568	-0.162	-0.255	-1.031	9.5111028	4.9274388	0.286479	7.59742308	-0.10313244	-55.6055739
5.69	569	-0.119	-0.268	-1.018	8.7662574	7.9068204	-0.8021412	7.68336678	-0.02291832	-55.59984432
5.7	570	-0.068	-0.268	-0.997	7.6203414	11.8602306	-2.7501984	7.7922288	0.07448454	-55.6055739
5.71	571	-0.013	-0.266	-0.972	7.0473834	16.7303736	-4.297185	7.86098376	0.24637194	-55.62276264
5.72	572	0.045	-0.273	-0.968	6.4171296	19.9389384	-5.2139178	7.92400914	0.44690724	-55.64568096
5.73	573	0.086	-0.283	-0.977	4.9274388	19.480572	-5.3285094	7.96984578	0.64744254	-55.6628697
5.74	574	0.097	-0.298	-0.97	3.0366774	16.7303736	-4.583664	7.99849368	0.81932994	-55.68005844
5.75	575	0.111	-0.315	-0.952	2.3491278	12.5477802	-3.8961144	8.09016696	0.99121734	-55.6915176
5.76	576	0.13	-0.314	-0.946	0.1145916	5.9587632	-2.9793816	8.09016696	1.05424272	-55.71443592
5.77	577	0.134	-0.301	-0.94	-1.6042824	-1.2605076	-1.8334656	8.07297822	1.04278356	-55.73162466
5.78	578	0.128	-0.26	-0.939	-2.3491278	-6.9900876	-1.0886202	8.0500599	0.9740286	-55.75454298
5.79	579	0.111	-0.209	-0.952	-1.9480572	-9.167328	-1.2032118	8.03287116	0.8880849	-55.78319088
5.8	580	0.077	-0.145	-0.969	-1.5469866	-10.026765	-1.8907614	7.9927641	0.81360036	-55.81756836
5.81	581	0.055	-0.093	-0.974	-0.3437748	-10.7716104	-2.7501984	7.9927641	0.71046792	-55.863405
5.82	582	0.04	-0.055	-0.944	-0.9740286	-8.1360036	-2.7501984	7.98130494	0.63598338	-55.90351206
5.83	583	0.031	-0.03	-0.933	-1.0886202	-4.4117766	-1.7761698	7.96984578	0.59587632	-55.92643038
5.84	584	0.017	-0.038	-0.932	0.286479	-3.3231564	-0.6875496	7.97557536	0.56149884	-55.93788954
5.85	585	0.01	-0.078	-0.934	0.9167328	-2.1772404	0.1718874	7.87244292	0.53285094	-55.9493487
5.86	586	0.012	-0.116	-0.961	0.9167328	0.859437	0.8021412	7.88390208	0.53858052	-55.93788954
5.87	587	0.018	-0.149	-0.97	1.8334656	4.2398892	1.145916	7.90109082	0.57868758	-55.9207008
5.88	588	0.026	-0.178	-0.948	3.3804522	7.3338624	1.145916	7.9354683	0.65317212	-55.89778248
5.89	589	0.029	-0.194	-0.928	5.3858052	9.8548776	0.6875496	7.9927641	0.7448454	-55.87486416
5.9	590	0.036	-0.2	-0.932	6.5317212	12.5477802	-0.286479	8.07297822	0.87662574	-55.85767542
5.91	591	0.041	-0.197	-0.954	5.7868758	14.7823164	-1.432395	8.13027402	1.02559482	-55.84621626
5.92	592	0.054	-0.188	-0.971	3.7815228	17.8762896	-2.1199446	8.1646515	1.2032118	-55.8347571
5.93	593	0.072	-0.172	-1.001	1.2605076	21.2567418	-2.7501984	8.17611066	1.41520626	-55.82902752
5.94	594	0.082	-0.167	-1.025	-0.6302538	23.5485738	-3.2085648	8.1646515	1.65011904	-55.82329794
5.95	595	0.087	-0.166	-1.037	-3.2658606	24.7517856	-3.5523396	8.13027402	1.90222056	-55.81756836
5.96	596	0.084	-0.159	-1.04	-6.016059	24.4080108	-3.6669312	8.06151906	2.1485925	-55.81183878
5.97	597	0.08	-0.151	-1.033	-7.7922288	23.777757	-3.4950438	7.98130494	2.38350528	-55.8061092
5.98	598	0.071	-0.138	-1.019	-8.1360036	20.9702628	-2.9220858	7.89536124	2.58977016	-55.80037962
5.99	599	0.058	-0.125	-0.997	-8.0787078	16.329303	-2.0626488	7.80941754	2.7501984	-55.79465004
6	600	0.041	-0.115	-0.984	-8.4224826	11.172681	-1.3178034	7.7062851	2.85333084	-55.78892046
6.01	601	0.025	-0.106	-0.97	-9.1100322	7.3338624	-0.6875496	7.61461182	2.9220858	-55.78319088
6.02	602	0.015	-0.094	-0.956	-9.740286	5.2139178	-0.3437748	7.51720896	2.97365202	-55.7774613
6.03	603	0.012	-0.085	-0.939	-9.9121734	3.5523396	-0.286479	7.41407652	3.0080295	-55.77173172
6.04	604	0.018	-0.078	-0.921	-9.6829902	1.432395	-0.4583664	7.31667366	3.02521824	-55.7774613
6.05	605	0.032	-0.075	-0.913	-9.453807	-0.8021412	-0.6875496	7.1906229	3.0080295	-55.78892046
6.06	606	0.048	-0.072	-0.914	-9.2819196	-3.2658606	-1.0313244	7.09322004	2.97365202	-55.80037962
6.07	607	0.06	-0.071	-0.919	-9.9694692	-6.016059	-1.2605076	6.9900876	2.91635622	-55.82329794
6.08	608	0.066	-0.072	-0.923	-10.9434978	-10.7716104	-1.2605076	6.88122558	2.81322378	-55.85194584
6.09	609	0.071	-0.078	-0.931	-11.5737516	-15.756345	-1.0313244	6.7609044	2.65852512	-55.88059374
6.1	610	0.076	-0.086	-0.939	-11.6310474	-19.5951636	-0.7448454	6.63485364	2.46944898	-55.9207008
6.11	611	0.081	-0.095	-0.942	-10.886202	-22.2307704	-0.572958	6.52599162	2.25172494	-55.95507828
6.12	612	0.088	-0.104	-0.936	-9.3392154	-23.491278	-0.572958	6.43431834	2.02254174	-55.99518534
6.13	613	0.087	-0.115	-0.941	-7.161975	-23.0329116	-0.8021412	6.36556338	1.79335854	-56.0352924
6.14	614	0.079	-0.13	-0.95	-5.156622	-22.631841	-1.0313244	6.31399716	1.5756345	-56.07539946
6.15	615	0.066	-0.144	-0.96	-3.4950438	-21.8869956	-1.0886202	6.28534926	1.36936962	-56.11550652
6.16	616	0.054	-0.159	-0.967	-1.8334656	-19.8816426	-1.0313244	6.26816052	1.1745639	-56.149884
6.17	617	0.046	-0.168	-0.971	-0.0572958	-16.2147114	-1.0313244	6.26816052	1.01986524	-56.18426148
6.18	618	0.044	-0.169	-0.969	2.6356068	-10.313244	-1.3178034	6.29680842	0.9167328	-56.21290938
6.19	619	0.043	-0.165	-0.963	5.9587632	-4.010706	-1.9480572	6.3598338	0.88235532	-56.2358277
6.2	620	0.042	-0.157	-0.954	9.3965112	1.0886202	-2.86479	6.46296624	0.90527364	-56.2644756
6.21	621	0.044	-0.152	-0.949	12.2613012	5.3285094	-4.0680018	6.58328742	0.96256944	-56.29885308
6.22	622	0.049	-0.149	-0.95	13.8082878	8.6516658	-5.156622	6.72652692	1.05424272	-56.33323056
6.23	623	0.059	-0.151	-0.962	13.9228794	10.8289062	-5.9587632	6.86403684	1.1745639	-56.3790672
6.24	624	0.074	-0.153	-0.979	12.8342592	12.1467096	-6.302538	6.9900876	1.30061466	-56.42490384
6.25	625	0.091	-0.158	-0.999	11.5737516	12.605076	-6.6463128	7.11040878	1.44958374	-56.47074048
6.26	626	0.095	-0.166	-1.018	10.0840608	12.2040054	-6.589017	7.20781164	1.5756345	-56.5223067
6.27	627	0.09	-0.171	-1.033	8.1932994	10.9434978	-6.1306506	7.28802576	1.69595568	-56.56241376
6.28	628	0.075	-0.174	-1.039	7.2192708	8.8235532	-5.0993262	7.3625103	1.78762896	-56.60252082
6.29	629	0.058	-0.176	-1.04	6.589017	6.1879464	-3.437748	7.42553568	1.85065434	-56.62543914
6.3	630	0.04	-0.173	-1.035	5.8441716	3.6096354	-1.6615782	7.49429064	1.88503182	-56.6368983
6.31	631	0.02	-0.169	-1.029	4.7555514	1.4896908	0	7.54012728	1.90222056	-56.6368983
6.32	632	0.002	-0.161	-1.022	3.3804522	-0.1718874	1.5469866	7.57450476	1.89649098	-56.61970956
6.33	633	-0.011	-0.151	-1.013	2.2345362	-1.6042824	3.2085648	7.60315266	1.87930224	-56.59106166
6.34	634	-0.021	-0.136	-1.002	1.6615782	-2.578311	4.6982556	7.6203414	1.84492476	-56.5509546
6.35	635	-0.028	-0.126	-0.995	1.432395	-3.2085648	6.016059	7.61461182	1.76471064	-56.49938838
6.36	636	-0.032	-0.114	-0.987	1.432395	-3.6669312	7.1046792	7.63180056	1.718874	-56.436363
6.37	637	-0.033	-0.106	-0.979	1.2032118	-3.4950438	7.5057498	7.6489893	1.67303736	-56.36760804
6.38	638	-0.026	-0.1	-0.974	0.8021412	-2.578311	7.2192708	7.66044846	1.63865988	-56.29885308
6.39	639	-0.024	-0.097	-0.971	0.286479	-1.4896908	6.302538	7.66617804	1.61574156	-56.24155728
6.4	640	-0.018	-0.095	-0.971	-0.4010706	-0.8021412	5.3858052	7.59742308	1.54125702	-56.19572064
6.41	641	-0.012	-0.092	-0.97	-0.9740286	-0.4010706	4.5263682	7.5916935	1.52979786	-56.149884
6.42	642	-0.005	-0.096	-0.97	-1.432395	0	3.724227	7.57450476	1.52406828	-56.11550652
6.43	643	0	-0.096	-0.969	-1.8334656	0.8021412	3.0939732	7.55731602	1.52979786	-56.08112904
6.44	644	0.009	-0.101	-0.97	-2.005353	2.005353	2.6929026	7.54012728	1.5469866	-56.05248114
6.45	645	0.018	-0.109	-0.971	-1.8907614	3.3231564	2.1199446	7.48283148	1.56417534	-56.02956282
6.46	646	0.027	-0.118	-0.971	-1.5469866	4.6409598	1.718874	7.46564274	1.61001198	-56.00091492
6.47	647	0.04	-0.124	-0.971	-1.2032118	5.5576926	1.3750992	7.45418358	1.6615782	-55.9779966
6.48	648	0.054	-0.13	-0.97	-0.7448454	6.5317212	0.9167328	7.448454	1.72460358	-55.96080786
6.49	649	0.069	-0.137	-0.971	-0.286479	7.5057498	0.4583664	7.44272442	1.79335854	-55.94361912
6.5	650	0.083	-0.142	-0.973	0.1718874	8.0787078	0	7.44272442	1.9194093	-55.93215996
6.51	651	0.095	-0.145	-0.973	0.859437	8.4797784	-0.572958	7.448454	1.99962342	-55.9207008
6.52	652	0.106	-0.15	-0.972	1.432395	8.7089616	-1.0886202	7.45991316	2.08556712	-55.9207008
6.53	653	0.114	-0.156	-0.973	2.005353	8.6516658	-1.4896908	7.48283148	2.1772404	-55.9207008
6.54	654	0.121	-0.163	-0.975	2.1772404	7.9641162	-1.8334656	7.50002022	2.25745452	-55.92643038
6.55	655	0.127	-0.169	-0.976	1.9480572	6.9900876	-1.9480572	7.5343977	2.38923486	-55.93215996
6.56	656	0.13	-0.174	-0.978	1.3750992	5.6722842	-1.7761698	7.55158644	2.44653066	-55.93788954
6.57	657	0.13	-0.178	-0.98	0.8021412	4.297185	-1.5469866	7.55731602	2.4923673	-55.9493487
6.58	658	0.128	-0.179	-0.983	0.4010706	3.0366774	-1.3178034	7.5630456	2.5210152	-55.95507828
6.59	659	0.123	-0.177	-0.986	0.0572958	1.8334656	-0.9740286	7.5630456	2.53820394	-55.96653744
6.6	660	0.116	-0.173	-0.989	-0.0572958	0.572958	-0.5156622	7.71201468	3.08824362	-55.92643038
6.61	661	0.105	-0.167	-0.987	-0.2291832	-0.6875496	-0.1718874	7.7062851	3.08251404	-55.93215996
6.62	662	0.097	-0.16	-0.986	-0.5156622	-1.8907614	0.1718874	7.70055552	3.05959572	-55.93215996
6.63	663	0.091	-0.155	-0.984	-0.6302538	-3.0366774	0.4010706	7.69482594	3.03094782	-55.93215996
6.64	664	0.086	-0.147	-0.981	-0.8021412	-4.010706	0.6302538	7.68909636	2.99084076	-55.93215996
6.65	665	0.083	-0.139	-0.981	-0.9167328	-4.583664	0.7448454	7.66044846	2.97365202	-55.93215996
6.66	666	0.08	-0.13	-0.981	-0.6875496	-4.7555514	0.8021412	7.65471888	2.9220858	-55.93215996
6.67	667	0.072	-0.127	-0.977	-0.2291832	-4.3544808	0.7448454	7.6489893	2.88197874	-55.93215996
6.68	668	0.067	-0.124	-0.969	-0.0572958	-4.010706	0.5156622	7.6489893	2.84187168	-55.93215996
6.69	669	0.062	-0.124	-0.967	-0.0572958	-3.8388186	0.286479	7.6489893	2.80176462	-55.93215996
6.7	670	0.06	-0.125	-0.967	-0.1718874	-3.8388186	0.2291832	7.60315266	2.77311672	-55.94361912
6.71	671	0.057	-0.125	-0.967	-0.3437748	-3.5523396	0	7.60315266	2.73873924	-55.9493487
6.72	672	0.054	-0.128	-0.97	-0.4010706	-2.9220858	0	7.59742308	2.71009134	-55.95507828
6.73	673	0.05	-0.129	-0.976	-0.2291832	-2.3491278	-0.2291832	7.5916935	2.68717302	-55.96080786
6.74	674	0.046	-0.131	-0.984	-0.0572958	-2.0626488	-0.4010706	7.5916935	2.6642547	-55.96653744
6.75	675	0.041	-0.134	-0.987	0.1145916	-1.8907614	-0.5156622	7.54585686	2.61841806	-55.98372618
6.76	676	0.04	-0.133	-0.989	0.1718874	-1.718874	-0.4583664	7.55158644	2.60122932	-55.98945576
6.77	677	0.04	-0.134	-0.987	0.286479	-1.432395	-0.4583664	7.55158644	2.58977016	-55.99518534
6.78	678	0.041	-0.136	-0.985	0.3437748	-0.7448454	-0.4583664	7.55731602	2.578311	-56.00091492
6.79	679	0.04	-0.137	-0.983	0.3437748	-0.5156622	-0.5156622	7.55731602	2.578311	-56.0066445
6.8	680	0.039	-0.138	-0.98	0.2291832	-0.5156622	-0.6302538	7.5057498	2.5210152	-56.02383324
6.81	681	0.038	-0.139	-0.979	0.1145916	-0.5156622	-0.6302538	7.5057498	2.51528562	-56.02956282
6.82	682	0.038	-0.14	-0.978	0.2291832	-0.0572958	-0.6875496	7.5057498	2.51528562	-56.0352924
6.83	683	0.038	-0.141	-0.978	0.286479	0.3437748	-0.6302538	7.51147938	2.5210152	-56.04102198
6.84	684	0.038	-0.143	-0.977	0.286479	0.572958	-0.572958	7.51147938	2.52674478	-56.04675156
6.85	685	0.038	-0.145	-0.978	0.0572958	0.6302538	-0.4583664	7.49429064	2.48663772	-56.05821072
6.86	686	0.039	-0.148	-0.977	-0.286479	0.4583664	-0.286479	7.48856106	2.48663772	-56.05821072
6.87	687	0.041	-0.151	-0.977	-0.4583664	0.286479	-0.0572958	7.48283148	2.4923673	-56.05821072
6.88	688	0.043	-0.151	-0.978	-0.6875496	0.1718874	0	7.4771019	2.4923673	-56.05821072
6.89	689	0.044	-0.15	-0.978	-0.8021412	0.286479	0.2291832	7.47137232	2.49809688	-56.05821072
6.9	690	0.047	-0.148	-0.979	-0.6875496	0.4010706	0.286479	7.45418358	2.4923673	-56.05248114
6.91	691	0.049	-0.147	-0.978	-0.6302538	0.8021412	0.286479	7.448454	2.49809688	-56.04675156
6.92	692	0.053	-0.145	-0.979	-0.3437748	0.9740286	0.4010706	7.44272442	2.50382646	-56.04102198
6.93	693	0.058	-0.144	-0.979	-0.1145916	0.9740286	0.3437748	7.44272442	2.51528562	-56.0352924
6.94	694	0.061	-0.143	-0.979	-0.0572958	1.0313244	0.3437748	7.44272442	2.52674478	-56.02956282
6.95	695	0.062	-0.142	-0.978	-0.0572958	1.0886202	0.3437748	7.40834694	2.578311	-56.02956282
6.96	696	0.065	-0.142	-0.977	0	1.0886202	0.4010706	7.40834694	2.58977016	-56.02383324
6.97	697	0.066	-0.141	-0.978	0.1145916	1.0886202	0.3437748	7.41407652	2.60122932	-56.01810366
6.98	698	0.068	-0.14	-0.98	0.1718874	1.0313244	0.4010706	7.41407652	2.6069589	-56.01237408
6.99	699	0.07	-0.14	-0.982	0.3437748	0.9167328	0.4583664	7.4198061	2.61841806	-56.0066445
7	700	0.071	-0.139	-0.986	0.5156622	0.8021412	0.5156622	7.3911582	2.67571386	-56.00091492
7.01	701	0.073	-0.14	-0.987	0.7448454	0.572958	0.5156622	7.40261736	2.68144344	-55.98945576
7.02	702	0.076	-0.141	-0.985	0.6875496	0.3437748	0.572958	7.40834694	2.68717302	-55.98372618
7.03	703	0.077	-0.141	-0.986	0.5156622	0	0.572958	7.41407652	2.68144344	-55.9779966
7.04	704	0.079	-0.141	-0.986	0.4583664	-0.3437748	0.5156622	7.4198061	2.68144344	-55.9779966
7.05	705	0.079	-0.142	-0.986	0.5156622	-0.4010706	0.4010706	7.3911582	2.76738714	-55.97226702
7.06	706	0.078	-0.141	-0.987	0.6302538	-0.4583664	0.286479	7.39688778	2.76165756	-55.96653744
7.07	707	0.076	-0.14	-0.987	0.9740286	-0.5156622	0.286479	7.40834694	2.75592798	-55.96653744
7.08	708	0.074	-0.14	-0.987	1.2032118	-0.572958	0.1718874	7.4198061	2.7501984	-55.96653744
7.09	709	0.073	-0.138	-0.986	1.2605076	-0.7448454	0.1145916	7.43699484	2.74446882	-55.96653744
7.1	710	0.073	-0.14	-0.984	1.145916	-0.9167328	0.0572958	7.4198061	2.78457588	-55.96653744
7.11	711	0.071	-0.14	-0.983	1.0313244	-1.2032118	0.0572958	7.43126526	2.77311672	-55.96653744
7.12	712	0.07	-0.139	-0.983	0.9167328	-1.3178034	0.0572958	7.44272442	2.75592798	-55.96653744
7.13	713	0.067	-0.141	-0.981	0.9167328	-1.5469866	0	7.448454	2.74446882	-55.97226702
7.14	714	0.063	-0.141	-0.981	0.7448454	-1.5469866	0.0572958	7.45991316	2.72728008	-55.97226702
7.15	715	0.061	-0.143	-0.98	0.8021412	-1.6615782	0.0572958	7.448454	2.72728008	-55.9779966
7.16	716	0.06	-0.143	-0.978	0.7448454	-1.7761698	0	7.45991316	2.71009134	-55.9779966
7.17	717	0.059	-0.143	-0.978	0.6875496	-1.718874	0.0572958	7.46564274	2.6929026	-55.9779966
7.18	718	0.057	-0.144	-0.977	0.572958	-1.6615782	-0.0572958	7.47137232	2.67571386	-55.98372618
7.19	719	0.057	-0.145	-0.978	0.6302538	-1.4896908	-0.1145916	7.4771019	2.65852512	-55.98945576
7.2	720	0.056	-0.145	-0.979	0.7448454	-1.432395	-0.1718874	7.47137232	2.65279554	-55.99518534
7.21	721	0.055	-0.147	-0.978	0.8021412	-1.4896908	-0.2291832	7.48283148	2.64133638	-56.00091492
7.22	722	0.054	-0.148	-0.978	0.859437	-1.2032118	-0.286479	7.48856106	2.62987722	-56.00091492
7.23	723	0.054	-0.147	-0.977	0.9167328	-1.145916	-0.286479	7.50002022	2.61841806	-56.0066445
7.24	724	0.055	-0.148	-0.976	0.9167328	-1.0313244	-0.286479	7.51147938	2.6069589	-56.01237408
7.25	725	0.057	-0.146	-0.978	0.8021412	-1.145916	-0.286479	7.5057498	2.6069589	-56.01810366
7.26	726	0.056	-0.147	-0.979	0.859437	-1.0313244	-0.2291832	7.51720896	2.60122932	-56.02383324
7.27	727	0.055	-0.147	-0.979	0.7448454	-0.8021412	-0.1718874	7.52293854	2.58977016	-56.02383324
7.28	728	0.055	-0.149	-0.974	0.5156622	-0.4583664	-0.1718874	7.52866812	2.58977016	-56.02956282
7.29	729	0.056	-0.15	-0.968	0.1145916	-0.5156622	0	7.52866812	2.58404058	-56.02956282
7.3	730	0.057	-0.15	-0.967	-0.2291832	-0.6875496	0.0572958	7.51720896	2.60122932	-56.02956282
7.31	731	0.058	-0.149	-0.969	-0.3437748	-0.9740286	0.1145916	7.51720896	2.59549974	-56.02956282
7.32	732	0.056	-0.146	-0.972	-0.4583664	-0.8021412	0.1718874	7.51147938	2.58404058	-56.02956282
7.33	733	0.055	-0.144	-0.975	-0.2291832	-0.6875496	0.2291832	7.5057498	2.578311	-56.02956282
7.34	734	0.052	-0.143	-0.983	0	-0.6875496	0.286479	7.51147938	2.57258142	-56.02383324
7.35	735	0.051	-0.143	-0.986	0.286479	-0.6302538	0.2291832	7.47137232	2.56112226	-56.02956282
7.36	736	0.053	-0.146	-0.987	0.572958	-0.5156622	0.2291832	7.4771019	2.55539268	-56.02383324
7.37	737	0.054	-0.146	-0.986	0.6875496	-0.286479	0.2291832	7.48856106	2.55539268	-56.02383324
7.38	738	0.056	-0.146	-0.982	0.7448454	-0.1718874	0.1718874	7.49429064	2.5496631	-56.02383324
7.39	739	0.058	-0.147	-0.979	0.6302538	-0.1145916	0.1718874	7.50002022	2.5496631	-56.01810366
7.4	740	0.059	-0.145	-0.976	0.5156622	-0.1718874	0.1145916	7.47137232	2.58977016	-56.02383324
7.41	741	0.06	-0.143	-0.974	0.3437748	-0.2291832	0.1145916	7.47137232	2.58977016	-56.01810366
7.42	742	0.061	-0.141	-0.976	0.5156622	-0.1718874	0.1718874	7.4771019	2.58404058	-56.01810366
7.43	743	0.061	-0.141	-0.978	0.6875496	-0.1718874	0.2291832	7.48856106	2.58404058	-56.01810366
7.44	744	0.062	-0.141	-0.977	0.7448454	-0.1145916	0.2291832	7.49429064	2.58404058	-56.01237408
7.45	745	0.064	-0.143	-0.977	0.7448454	-0.286479	0.1718874	7.46564274	2.6356068	-56.01237408
7.46	746	0.063	-0.147	-0.977	0.572958	-0.5156622	0.2291832	7.47137232	2.62987722	-56.01237408
7.47	747	0.063	-0.149	-0.975	0.3437748	-0.6302538	0.1145916	7.4771019	2.62414764	-56.01237408
7.48	748	0.061	-0.15	-0.975	0.2291832	-0.4583664	0.1718874	7.48283148	2.61841806	-56.01237408
7.49	749	0.062	-0.149	-0.977	0.3437748	-0.2291832	0.1145916	7.48283148	2.61268848	-56.0066445
7.5	750	0.062	-0.15	-0.98	0.4010706	0	0.1145916	7.4771019	2.68717302	-56.0066445
7.51	751	0.063	-0.149	-0.979	0.5156622	-0.286479	0.1145916	7.48283148	2.68717302	-56.0066445
7.52	752	0.063	-0.148	-0.978	0.5156622	-0.4583664	0.1145916	7.48856106	2.68144344	-56.00091492
7.53	753	0.064	-0.149	-0.978	0.4583664	-0.5156622	0.1145916	7.49429064	2.67571386	-56.00091492
7.54	754	0.065	-0.15	-0.976	0.3437748	-0.2291832	0.0572958	7.50002022	2.66998428	-56.00091492
7.55	755	0.066	-0.148	-0.977	0.4010706	0	0	7.48283148	2.76165756	-56.00091492
7.56	756	0.067	-0.148	-0.978	0.572958	-0.0572958	0.0572958	7.48856106	2.76165756	-56.00091492
7.57	757	0.066	-0.147	-0.976	0.6302538	-0.6875496	0.1145916	7.49429064	2.75592798	-56.00091492
7.58	758	0.065	-0.148	-0.978	0.572958	-1.0886202	0.2291832	7.50002022	2.74446882	-56.00091492
7.59	759	0.064	-0.147	-0.978	0.6302538	-1.2605076	0.2291832	7.51147938	2.72728008	-56.00091492
7.6	760	0.063	-0.148	-0.978	0.5156622	-1.0313244	0.1718874	7.50002022	2.7501984	-56.00091492
7.61	761	0.061	-0.148	-0.976	0.4010706	-0.7448454	0.0572958	7.5057498	2.74446882	-56.00091492
7.62	762	0.06	-0.148	-0.975	0.4010706	-0.9167328	0	7.51147938	2.73300966	-56.00091492
7.63	763	0.057	-0.148	-0.975	0.4010706	-1.145916	0	7.51720896	2.7215505	-56.00091492
7.64	764	0.054	-0.149	-0.977	0.2291832	-1.3750992	0	7.51720896	2.71009134	-56.0066445
7.65	765	0.052	-0.149	-0.979	0.0572958	-1.3750992	0	7.51720896	2.68717302	-56.0066445
7.66	766	0.049	-0.152	-0.979	0	-1.0313244	0	7.51720896	2.67571386	-56.01237408
7.67	767	0.047	-0.152	-0.979	0	-0.6875496	-0.0572958	7.51720896	2.66998428	-56.01237408
7.68	768	0.046	-0.153	-0.977	0	-0.4010706	-0.1718874	7.51720896	2.6642547	-56.01810366
7.69	769	0.048	-0.153	-0.975	0	-0.1718874	-0.2291832	7.51147938	2.6642547	-56.01810366
7.7	770	0.049	-0.153	-0.975	-0.1145916	0.0572958	-0.2291832	7.51720896	2.64133638	-56.02383324
7.71	771	0.051	-0.151	-0.978	-0.3437748	0.3437748	-0.286479	7.51147938	2.64706596	-56.02383324
7.72	772	0.053	-0.149	-0.978	-0.3437748	0.5156622	-0.3437748	7.51147938	2.65279554	-56.02383324
7.73	773	0.055	-0.149	-0.981	-0.3437748	0.8021412	-0.286479	7.5057498	2.65852512	-56.02956282
7.74	774	0.055	-0.15	-0.983	-0.4583664	0.6302538	-0.4010706	7.50002022	2.6642547	-56.02956282
7.75	775	0.055	-0.151	-0.982	-0.5156622	0.8021412	-0.4583664	7.49429064	2.68144344	-56.0352924
7.76	776	0.057	-0.15	-0.981	-0.5156622	1.0313244	-0.4010706	7.48856106	2.6929026	-56.0352924
7.77	777	0.059	-0.151	-0.979	-0.572958	1.0313244	-0.4583664	7.48283148	2.70436176	-56.04102198
7.78	778	0.06	-0.149	-0.978	-0.4010706	0.6875496	-0.286479	7.4771019	2.71009134	-56.04102198
7.79	779	0.058	-0.148	-0.975	-0.5156622	0.2291832	-0.2291832	7.47137232	2.71009134	-56.04102198
7.8	780	0.058	-0.147	-0.976	-0.6302538	0.1718874	-0.1145916	7.45418358	2.73300966	-56.04675156
7.81	781	0.057	-0.146	-0.977	-0.572958	0.2291832	0	7.448454	2.73300966	-56.04675156
7.82	782	0.057	-0.145	-0.977	-0.3437748	-0.0572958	0.0572958	7.44272442	2.73300966	-56.04675156
7.83	783	0.054	-0.146	-0.974	-0.2291832	-0.2291832	0.0572958	7.44272442	2.73300966	-56.04675156
7.84	784	0.055	-0.148	-0.974	-0.286479	-0.2291832	0.0572958	7.43699484	2.72728008	-56.04102198
7.85	785	0.056	-0.149	-0.975	-0.2291832	-0.286479	0.0572958	7.43126526	2.74446882	-56.04102198
7.86	786	0.06	-0.152	-0.975	-0.572958	-0.0572958	0.0572958	7.42553568	2.73873924	-56.04102198
7.87	787	0.061	-0.153	-0.975	-0.6875496	0.1145916	0.0572958	7.4198061	2.74446882	-56.04102198
7.88	788	0.06	-0.154	-0.977	-0.859437	0.3437748	-0.0572958	7.41407652	2.74446882	-56.04102198
7.89	789	0.059	-0.155	-0.976	-0.8021412	0.9167328	-0.286479	7.40261736	2.75592798	-56.04102198
7.9	790	0.061	-0.155	-0.97	-0.9740286	1.0886202	-0.4010706	7.40834694	2.7788463	-56.04102198
7.91	791	0.062	-0.156	-0.969	-1.3178034	0.8021412	-0.4010706	7.3911582	2.78457588	-56.04675156
7.92	792	0.064	-0.154	-0.973	-1.5469866	0.5156622	-0.3437748	7.37396946	2.79030546	-56.04675156
7.93	793	0.066	-0.152	-0.975	-1.432395	0.286479	-0.2291832	7.3625103	2.79603504	-56.05248114
7.94	794	0.064	-0.149	-0.979	-1.145916	0.1718874	-0.1145916	7.35105114	2.79603504	-56.05248114
7.95	795	0.062	-0.148	-0.982	-0.7448454	0.1145916	-0.1145916	7.34532156	2.81895336	-56.05248114
7.96	796	0.061	-0.148	-0.983	-0.4010706	0	-0.1145916	7.33959198	2.81895336	-56.05248114
7.97	797	0.06	-0.147	-0.984	-0.286479	-0.0572958	-0.0572958	7.33959198	2.81895336	-56.05248114
7.98	798	0.06	-0.147	-0.982	-0.3437748	-0.1718874	0	7.3338624	2.81895336	-56.05248114
7.99	799	0.061	-0.146	-0.979	-0.4583664	-0.2291832	0	7.32813282	2.81322378	-56.05248114
8	800	0.06	-0.145	-0.977	-0.5156622	-0.2291832	0	7.29948492	2.84187168	-56.05821072
8.01	801	0.06	-0.142	-0.976	-0.5156622	-0.3437748	0	7.29375534	2.8361421	-56.05821072
8.02	802	0.059	-0.141	-0.975	-0.5156622	-0.3437748	0	7.28802576	2.8361421	-56.05821072
8.03	803	0.059	-0.142	-0.976	-0.286479	-0.286479	0	7.28802576	2.83041252	-56.05821072
8.04	804	0.059	-0.143	-0.977	-0.1718874	-0.286479	0	7.28229618	2.83041252	-56.05821072
8.05	805	0.057	-0.145	-0.978	-0.0572958	-0.286479	0	7.26510744	2.8361421	-56.05821072
8.06	806	0.057	-0.147	-0.978	-0.1718874	-0.4010706	0	7.26510744	2.8361421	-56.05821072
8.07	807	0.055	-0.149	-0.977	-0.286479	-0.6302538	0	7.25937786	2.83041252	-56.0639403
8.08	808	0.055	-0.151	-0.976	-0.4010706	-0.6875496	0.0572958	7.25937786	2.81895336	-56.0639403
8.09	809	0.056	-0.152	-0.976	-0.572958	-0.6302538	0.2291832	7.25364828	2.81322378	-56.05821072
8.1	810	0.056	-0.151	-0.976	-0.572958	-0.572958	0.286479	7.25364828	2.8074942	-56.05821072
8.11	811	0.057	-0.15	-0.977	-0.572958	-0.7448454	0.3437748	7.2479187	2.79603504	-56.05248114
8.12	812	0.057	-0.152	-0.975	-0.572958	-0.8021412	0.3437748	7.24218912	2.79030546	-56.05248114
8.13	813	0.057	-0.153	-0.974	-0.7448454	-0.859437	0.4010706	7.23645954	2.7788463	-56.04675156
8.14	814	0.058	-0.155	-0.973	-0.8021412	-0.859437	0.3437748	7.22500038	2.77311672	-56.04675156
8.15	815	0.057	-0.156	-0.972	-0.9167328	-0.859437	0.2291832	7.23645954	2.76738714	-56.04102198
8.16	816	0.057	-0.156	-0.973	-0.9740286	-0.7448454	0.1145916	7.23072996	2.75592798	-56.04102198
8.17	817	0.055	-0.155	-0.973	-0.9167328	-0.3437748	0	7.2192708	2.75592798	-56.04102198
8.18	818	0.055	-0.154	-0.974	-0.8021412	0	-0.2291832	7.20781164	2.75592798	-56.04675156
8.19	819	0.053	-0.152	-0.974	-0.8021412	0.2291832	-0.4583664	7.20208206	2.75592798	-56.05248114
8.2	820	0.053	-0.151	-0.975	-0.6302538	0.572958	-0.572958	7.20781164	2.76165756	-56.05248114
8.21	821	0.053	-0.149	-0.974	-0.572958	0.7448454	-0.6302538	7.20208206	2.76738714	-56.05821072
8.22	822	0.054	-0.148	-0.974	-0.572958	0.9167328	-0.7448454	7.1906229	2.7788463	-56.0639403
8.23	823	0.055	-0.146	-0.974	-0.572958	0.9167328	-0.6875496	7.18489332	2.79030546	-56.06966988
8.24	824	0.056	-0.145	-0.974	-0.4583664	0.859437	-0.6302538	7.17916374	2.80176462	-56.07539946
8.25	825	0.057	-0.145	-0.974	-0.4583664	0.6875496	-0.5156622	7.17343416	2.8074942	-56.08112904
8.26	826	0.056	-0.145	-0.975	-0.4010706	0.5156622	-0.4010706	7.17343416	2.81322378	-56.08112904
8.27	827	0.053	-0.145	-0.976	-0.3437748	0.4010706	-0.286479	7.16770458	2.81895336	-56.08685862
8.28	828	0.051	-0.144	-0.975	-0.286479	0.3437748	-0.2291832	7.161975	2.82468294	-56.08685862
8.29	829	0.05	-0.145	-0.976	-0.3437748	0.1145916	-0.2291832	7.161975	2.82468294	-56.0925882
8.3	830	0.052	-0.146	-0.976	-0.4010706	0.1145916	-0.1145916	7.16770458	2.81322378	-56.0925882
8.31	831	0.052	-0.146	-0.976	-0.4583664	0.1145916	-0.1145916	7.161975	2.81895336	-56.0925882
8.32	832	0.055	-0.147	-0.977	-0.4583664	0.1145916	-0.0572958	7.15624542	2.81895336	-56.0925882
8.33	833	0.054	-0.147	-0.976	-0.4583664	0.1718874	0	7.15624542	2.81895336	-56.0925882
8.34	834	0.055	-0.147	-0.977	-0.4010706	0.1145916	0	7.15051584	2.81895336	-56.0925882
8.35	835	0.057	-0.148	-0.978	-0.4583664	0.1718874	-0.0572958	7.161975	2.8361421	-56.08685862
8.36	836	0.059	-0.148	-0.978	-0.4010706	0.1718874	0	7.161975	2.8361421	-56.08685862
8.37	837	0.06	-0.149	-0.978	-0.4583664	0.1718874	-0.1145916	7.15624542	2.84187168	-56.0925882
8.38	838	0.061	-0.152	-0.979	-0.5156622	0.4010706	-0.0572958	7.15051584	2.84760126	-56.0925882
8.39	839	0.062	-0.153	-0.98	-0.5156622	0.572958	-0.1145916	7.14478626	2.85333084	-56.0925882
8.4	840	0.061	-0.154	-0.979	-0.572958	0.572958	-0.2291832	7.15624542	2.87051958	-56.0925882
8.41	841	0.063	-0.152	-0.98	-0.5156622	0.572958	-0.2291832	7.15051584	2.87624916	-56.0925882
8.42	842	0.063	-0.151	-0.98	-0.4583664	0.286479	-0.2291832	7.14478626	2.88197874	-56.0925882
8.43	843	0.062	-0.149	-0.98	-0.3437748	0	-0.1718874	7.14478626	2.88197874	-56.09831778
8.44	844	0.061	-0.147	-0.976	-0.3437748	0	-0.2291832	7.13905668	2.88197874	-56.09831778
8.45	845	0.062	-0.148	-0.975	-0.1718874	-0.2291832	-0.1145916	7.15624542	2.90489706	-56.09831778
8.46	846	0.064	-0.148	-0.975	-0.2291832	-0.3437748	0	7.15051584	2.90489706	-56.09831778
8.47	847	0.064	-0.149	-0.973	-0.4583664	-0.2291832	0	7.14478626	2.89916748	-56.09831778
8.48	848	0.061	-0.148	-0.975	-0.6302538	-0.1145916	0	7.13905668	2.89916748	-56.09831778
8.49	849	0.058	-0.15	-0.978	-0.6302538	0	-0.0572958	7.1333271	2.89916748	-56.09831778
8.5	850	0.056	-0.151	-0.975	-0.6875496	0.1145916	-0.1718874	7.15051584	2.90489706	-56.09831778
8.51	851	0.058	-0.153	-0.968	-1.0886202	0.0572958	-0.1145916	7.13905668	2.90489706	-56.09831778
8.52	852	0.057	-0.153	-0.97	-1.4896908	-0.1145916	-0.1145916	7.12186794	2.90489706	-56.10404736
8.53	853	0.055	-0.151	-0.976	-1.432395	-0.1718874	-0.0572958	7.11040878	2.90489706	-56.10404736
8.54	854	0.053	-0.147	-0.98	-1.3178034	-0.0572958	-0.0572958	7.09322004	2.89916748	-56.10404736
8.55	855	0.051	-0.147	-0.982	-0.859437	-0.0572958	-0.1145916	7.09894962	2.88197874	-56.10404736
8.56	856	0.05	-0.149	-0.987	-0.3437748	0	-0.1145916	7.09322004	2.88197874	-56.10404736
8.57	857	0.05	-0.149	-0.987	0.1718874	-0.0572958	0	7.09894962	2.88197874	-56.10404736
8.58	858	0.051	-0.149	-0.986	0.2291832	0	-0.0572958	7.09894962	2.88197874	-56.10977694
8.59	859	0.053	-0.147	-0.982	0.1718874	0.0572958	-0.1145916	7.1046792	2.88197874	-56.10977694
8.6	860	0.055	-0.144	-0.976	0.1718874	0.1145916	-0.0572958	7.1046792	2.88197874	-56.10977694
8.61	861	0.057	-0.144	-0.975	0	0.1145916	-0.1718874	7.1046792	2.88197874	-56.10977694
8.62	862	0.057	-0.142	-0.974	-0.1145916	0.2291832	-0.0572958	7.09894962	2.88770832	-56.10977694
8.63	863	0.058	-0.14	-0.974	-0.1718874	0.3437748	-0.0572958	7.09894962	2.88770832	-56.10977694
8.64	864	0.058	-0.143	-0.975	-0.0572958	0.4010706	0	7.09894962	2.8934379	-56.10977694
8.65	865	0.059	-0.144	-0.979	0.0572958	0.3437748	0	7.1046792	2.91062664	-56.10977694
8.66	866	0.059	-0.148	-0.979	0.1145916	0.4010706	-0.0572958	7.1046792	2.91062664	-56.10977694
8.67	867	0.06	-0.148	-0.98	0.2291832	0.286479	-0.0572958	7.11040878	2.91635622	-56.10977694
8.68	868	0.058	-0.152	-0.98	0.1718874	0.1718874	-0.0572958	7.11040878	2.91635622	-56.10977694
8.69	869	0.059	-0.152	-0.98	0.1718874	0	0	7.11040878	2.91635622	-56.10977694
8.7	870	0.058	-0.152	-0.979	0.1145916	0	0	7.1906229	2.92781538	-56.10404736
8.71	871	0.059	-0.151	-0.977	0.0572958	0.1145916	0.0572958	7.1906229	2.92781538	-56.10404736
8.72	872	0.06	-0.15	-0.978	0	0.1145916	0	7.19635248	2.92781538	-56.10404736
8.73	873	0.059	-0.149	-0.978	0	0	0.0572958	7.19635248	2.92781538	-56.10404736
8.74	874	0.059	-0.148	-0.978	0	0	0.0572958	7.19635248	2.92781538	-56.09831778
8.75	875	0.059	-0.147	-0.977	0	-0.0572958	0.0572958	7.25937786	2.96792244	-56.0925882
8.76	876	0.058	-0.149	-0.976	0	0.0572958	0	7.25937786	2.96792244	-56.0925882
8.77	877	0.059	-0.15	-0.976	-0.0572958	0.0572958	0.0572958	7.25937786	2.96792244	-56.0925882
