TimeStamp(s)	FrameCounter	AccX	AccY	AccZ	GyrX	GyrY	GyrZ	EulerX	EulerY	EulerZ
0.01	1	-0.003	-1.001	0.001	0.6875496	-1.2032118	0.2291832	90.24661458	0.15469866	-32.95654416
0.02	2	-0.002	-1.002	0	0.8021412	-1.8334656	0.1718874	90.25807374	0.15469866	-32.9737329
0.03	3	-0.003	-1.006	0	1.2032118	-1.7761698	0	90.2695329	0.15469866	-32.99092164
0.04	4	-0.003	-1.007	0.001	1.6042824	-1.718874	0.0572958	90.28672164	0.15469866	-33.00811038
0.05	5	-0.004	-1.006	0.002	1.8334656	-1.8334656	0.0572958	90.28099206	0.15469866	-33.02529912
0.06	6	-0.006	-1.006	0.005	1.9480572	-1.7761698	0.0572958	90.2981808	0.15469866	-33.04821744
0.07	7	-0.007	-1.005	0.008	1.8907614	-1.7761698	0.1145916	90.32109912	0.14896908	-33.06540618
0.08	8	-0.007	-1.005	0.008	1.9480572	-1.5469866	0.1145916	90.33828786	0.14896908	-33.07686534
0.09	9	-0.006	-1.005	0.009	2.005353	-1.145916	0.1145916	90.36120618	0.14896908	-33.0883245
0.1	10	-0.007	-1.007	0.01	2.1199446	-0.859437	0.2291832	90.36120618	0.13750992	-33.09405408
0.11	11	-0.007	-1.01	0.01	2.0626488	-0.6302538	0.286479	90.3841245	0.13178034	-33.09978366
0.12	12	-0.009	-1.01	0.009	1.9480572	-0.572958	0.1718874	90.40131324	0.13178034	-33.10551324
0.13	13	-0.007	-1.009	0.008	1.9480572	-0.6875496	0.1718874	90.42423156	0.13178034	-33.11124282
0.14	14	-0.007	-1.011	0.011	1.7761698	-0.7448454	0.1718874	90.4414203	0.13178034	-33.12270198
0.15	15	-0.006	-1.01	0.011	1.3750992	-0.7448454	0.3437748	90.42423156	0.12032118	-33.12843156
0.16	16	-0.004	-1.007	0.011	1.145916	-0.859437	0.286479	90.43569072	0.1145916	-33.13416114
0.17	17	-0.003	-1.007	0.011	1.3178034	-1.0886202	0.4010706	90.44714988	0.10886202	-33.1456203
0.18	18	-0.004	-1.008	0.013	1.3178034	-1.3178034	0.4010706	90.46433862	0.10886202	-33.15707946
0.19	19	-0.006	-1.009	0.015	1.0313244	-1.6042824	0.5156622	90.47579778	0.10313244	-33.1742682
0.2	20	-0.007	-1.009	0.015	1.0313244	-1.8334656	0.572958	90.46433862	0.0859437	-33.19145694
0.21	21	-0.008	-1.008	0.012	0.9740286	-1.8334656	0.4583664	90.47579778	0.0859437	-33.20864568
0.22	22	-0.007	-1.009	0.013	0.859437	-2.005353	0.4010706	90.48152736	0.08021412	-33.22583442
0.23	23	-0.008	-1.009	0.014	1.0313244	-2.0626488	0.286479	90.49298652	0.08021412	-33.24875274
0.24	24	-0.007	-1.008	0.015	0.9740286	-2.005353	0.0572958	90.50444568	0.08021412	-33.27167106
0.25	25	-0.007	-1.006	0.016	1.145916	-1.8334656	0	90.49298652	0.07448454	-33.28313022
0.26	26	-0.006	-1.005	0.013	1.4896908	-1.7761698	-0.1718874	90.51017526	0.07448454	-33.30031896
0.27	27	-0.008	-1.006	0.015	2.1199446	-2.0626488	-0.2291832	90.53309358	0.08021412	-33.32323728
0.28	28	-0.008	-1.008	0.02	2.6356068	-2.5210152	-0.286479	90.56174148	0.0859437	-33.3461556
0.29	29	-0.005	-1.011	0.022	2.4637194	-2.7501984	-0.1718874	90.5846598	0.0859437	-33.3748035
0.3	30	-0.001	-1.013	0.026	2.2345362	-3.0366774	-0.0572958	90.60184854	0.09740286	-33.40918098
0.31	31	0.003	-1.013	0.026	2.0626488	-3.0939732	0	90.62476686	0.09740286	-33.43782888
0.32	32	0.006	-1.011	0.021	1.2605076	-3.437748	0	90.63622602	0.09740286	-33.47220636
0.33	33	0.009	-1.008	0.017	0.286479	-4.1825934	-0.286479	90.6419556	0.10313244	-33.51231342
0.34	34	0.009	-1.005	0.012	0	-5.0993262	-0.8021412	90.6419556	0.1145916	-33.56387964
0.35	35	0.007	-1.002	0.012	-0.1145916	-5.8441716	-1.2605076	90.63049644	0.13750992	-33.62690502
0.36	36	0.003	-0.999	0.011	-0.1145916	-6.3598338	-1.718874	90.63049644	0.15469866	-33.6899304
0.37	37	0	-0.999	0.012	-0.286479	-6.6463128	-1.9480572	90.62476686	0.17761698	-33.75868536
0.38	38	-0.003	-0.998	0.012	-0.286479	-6.7609044	-2.005353	90.62476686	0.2005353	-33.82171074
0.39	39	-0.004	-0.998	0.011	-0.1718874	-6.4744254	-2.005353	90.62476686	0.22345362	-33.88473612
0.4	40	-0.005	-0.999	0.012	0.1145916	-5.9014674	-2.005353	90.6133077	0.24064236	-33.9477615
0.41	41	-0.003	-0.999	0.012	0.4583664	-5.3285094	-2.0626488	90.61903728	0.26356068	-33.99932772
0.42	42	-0.003	-1.003	0.012	0.6875496	-4.9847346	-2.0626488	90.62476686	0.286479	-34.04516436
0.43	43	-0.006	-1.007	0.016	0.8021412	-4.6409598	-1.9480572	90.63622602	0.30939732	-34.091001
0.44	44	-0.005	-1.008	0.019	0.9167328	-4.010706	-1.8334656	90.64768518	0.33231564	-34.13110806
0.45	45	-0.008	-1.008	0.016	0.9740286	-3.6669312	-1.7761698	90.6419556	0.33804522	-34.16548554
0.46	46	-0.009	-1.009	0.016	0.9740286	-3.5523396	-1.6615782	90.65341476	0.35523396	-34.19986302
0.47	47	-0.011	-1.01	0.019	0.9167328	-3.3804522	-1.6615782	90.66487392	0.37815228	-34.2342405
0.48	48	-0.012	-1.011	0.02	0.6302538	-3.5523396	-1.6615782	90.6706035	0.39534102	-34.26861798
0.49	49	-0.011	-1.013	0.023	0.1145916	-3.724227	-1.718874	90.6706035	0.41252976	-34.30299546
0.5	50	-0.01	-1.013	0.026	-0.1718874	-3.7815228	-1.6042824	90.66487392	0.41825934	-34.33737294
0.51	51	-0.008	-1.012	0.026	-0.6875496	-3.8388186	-1.3750992	90.65914434	0.43544808	-34.37748
0.52	52	-0.008	-1.01	0.023	-1.2032118	-3.6096354	-1.2032118	90.64768518	0.44690724	-34.41185748
0.53	53	-0.01	-1.009	0.019	-1.3750992	-2.9793816	-1.0886202	90.63049644	0.4583664	-34.44050538
0.54	54	-0.01	-1.007	0.018	-1.6615782	-2.1199446	-0.9167328	90.6133077	0.46982556	-34.4634237
0.55	55	-0.011	-1.006	0.018	-2.005353	-1.3178034	-0.7448454	90.57893022	0.4583664	-34.46915328
0.56	56	-0.01	-1.006	0.023	-2.5210152	-0.9740286	-0.5156622	90.5560119	0.46409598	-34.48061244
0.57	57	-0.01	-1.009	0.025	-2.9793816	-0.3437748	-0.4583664	90.527364	0.46982556	-34.48061244
0.58	58	-0.005	-1.016	0.03	-3.437748	0.1718874	-0.5156622	90.48725694	0.47555514	-34.48061244
0.59	59	0.005	-1.024	0.034	-4.5263682	0.1145916	-0.6875496	90.4414203	0.48128472	-34.48061244
0.6	60	0.009	-1.033	0.036	-7.2192708	-0.1145916	-0.6875496	90.37266534	0.4870143	-34.48061244
0.61	61	0.003	-1.038	0.044	-10.026765	-0.4583664	-0.6302538	90.2695329	0.49274388	-34.4920716
0.62	62	-0.016	-1.045	0.046	-13.2926256	-1.0886202	-0.572958	90.13775256	0.49847346	-34.50353076
0.63	63	-0.049	-1.052	0.046	-16.7876694	-0.1718874	-0.8021412	89.96586516	0.50993262	-34.50353076
0.64	64	-0.081	-1.056	0.038	-20.626488	3.8961144	-1.3750992	89.7538707	0.5156622	-34.46915328
0.65	65	-0.095	-1.052	0.028	-24.2361234	10.1413566	-2.1199446	89.50749876	0.52139178	-34.36602084
0.66	66	-0.092	-1.045	0.027	-26.6998428	16.4438946	-2.8074942	89.2382085	0.5443101	-34.2055926
0.67	67	-0.062	-1.04	0.03	-28.0176462	20.7410796	-3.5523396	88.9517295	0.572958	-34.0050573
0.68	68	-0.028	-1.04	0.034	-29.3354496	24.064236	-3.4950438	88.65379134	0.60733548	-33.77014452
0.69	69	0.008	-1.039	0.029	-29.7365202	25.210152	-2.86479	88.3501236	0.6302538	-33.52377258
0.7	70	0.039	-1.037	0.018	-30.0229992	25.1528562	-2.005353	88.04645586	0.65317212	-33.28313022
0.71	71	0.057	-1.038	0.002	-30.7678446	24.637194	-1.2605076	87.73705854	0.66463128	-33.04248786
0.72	72	0.063	-1.038	-0.014	-31.6272816	23.8923486	-0.9740286	87.41047248	0.67609044	-32.80757508
0.73	73	0.067	-1.039	-0.025	-31.7418732	22.7464326	-1.0886202	87.089616	0.6875496	-32.58985104
0.74	74	0.065	-1.036	-0.026	-31.4553942	21.0848544	-1.5469866	86.76875952	0.71046792	-32.38358616
0.75	75	0.063	-1.032	-0.024	-31.226211	19.8816426	-2.4064236	86.45363262	0.7448454	-32.19451002
0.76	76	0.063	-1.031	-0.02	-31.5699858	19.3086846	-3.0366774	86.13277614	0.77922288	-32.00543388
0.77	77	0.064	-1.027	-0.025	-33.3461556	19.5951636	-2.9793816	85.79473092	0.81360036	-31.82208732
0.78	78	0.067	-1.025	-0.041	-35.523396	20.626488	-2.8074942	85.43376738	0.84797784	-31.62155202
0.79	79	0.076	-1.021	-0.062	-37.2995658	21.0848544	-2.3491278	85.0556151	0.87662574	-31.42101672
0.8	80	0.091	-1.013	-0.08	-38.6173692	20.912967	-1.8334656	84.66027408	0.9167328	-31.22048142
0.81	81	0.104	-1.001	-0.1	-39.1903272	20.1108258	-1.3178034	84.26493306	0.93965112	-31.03140528
0.82	82	0.112	-0.988	-0.121	-38.5600734	19.3086846	-0.4583664	83.87532162	0.95683986	-30.84232914
0.83	83	0.109	-0.975	-0.142	-37.9298196	18.7357266	0.5156622	83.49143976	0.96256944	-30.66471216
0.84	84	0.101	-0.957	-0.163	-35.6379876	18.5638392	1.3178034	83.13047622	0.96256944	-30.4813656
0.85	85	0.092	-0.948	-0.176	-33.4034514	18.3919518	1.6615782	82.78097184	0.96829902	-30.30374862
0.86	86	0.08	-0.94	-0.189	-31.0543236	18.048177	1.6042824	82.46584494	0.96829902	-30.13186122
0.87	87	0.067	-0.933	-0.193	-28.3041252	18.334656	1.432395	82.17936594	0.96829902	-29.94851466
0.88	88	0.053	-0.928	-0.203	-25.2674478	18.7930224	1.3178034	81.92153484	0.9740286	-29.7651681
0.89	89	0.041	-0.925	-0.21	-21.485925	20.2254174	1.3178034	81.7038108	0.97975818	-29.5646328
0.9	90	0.036	-0.921	-0.21	-17.475219	22.4599536	1.2032118	81.52046424	0.99694692	-29.34690876
0.91	91	0.036	-0.92	-0.209	-13.5218088	24.4653066	1.145916	81.38295432	1.01413566	-29.1062664
0.92	92	0.034	-0.92	-0.208	-8.6516658	25.496631	1.0313244	81.29128104	1.0313244	-28.85989446
0.93	93	0.026	-0.927	-0.212	-5.2139178	25.9549974	1.4896908	81.23971482	1.04851314	-28.60206336
0.94	94	0.014	-0.931	-0.203	-1.5469866	26.2414764	2.291832	81.22825566	1.0599723	-28.33850268
0.95	95	0.007	-0.937	-0.181	0.8021412	26.5852512	3.2085648	81.22825566	1.0599723	-28.074942
0.96	96	0.006	-0.941	-0.156	0.9167328	26.356068	4.1825934	81.23971482	1.04851314	-27.80565174
0.97	97	0.004	-0.937	-0.151	-0.2291832	25.3820394	5.2139178	81.23971482	1.0313244	-27.55355022
0.98	98	0.001	-0.933	-0.16	-1.6042824	24.064236	6.1879464	81.22252608	0.99694692	-27.30717828
0.99	99	-0.017	-0.916	-0.183	-1.2605076	20.1681216	7.161975	81.21106692	0.95111028	-27.09518382
1	100	-0.048	-0.905	-0.18	0.286479	11.8029348	7.7922288	81.19960776	0.86516658	-26.96340348
1.01	101	-0.073	-0.915	-0.158	4.1252976	3.0366774	8.0787078	81.2454444	0.79068204	-26.91756684
1.02	102	-0.084	-0.951	-0.061	7.9641162	-3.3231564	7.9068204	81.32565852	0.71046792	-26.94048516
1.03	103	-0.029	-0.988	0.066	0.286479	-1.8334656	6.1306506	81.3313881	0.64744254	-26.94621474
1.04	104	0.046	-1.016	0.128	-16.4438946	4.4690724	2.86479	81.1595007	0.62452422	-26.9003781
1.05	105	0.072	-1.014	0.066	-26.6998428	8.2505952	-1.2605076	80.91312876	0.6589017	-26.83162314
1.06	106	0.073	-1.09	0.007	-26.1841806	7.0473834	-3.6096354	80.64956808	0.69900876	-26.76859776
1.07	107	0.061	-1.176	-0.012	-24.4653066	3.8961144	-3.3231564	80.39746656	0.73338624	-26.73994986
1.08	108	0.026	-1.204	-0.022	-20.8556712	1.3750992	-0.859437	80.1854721	0.7448454	-26.7284907
1.09	109	0.015	-1.208	-0.036	-15.0114996	0.0572958	2.8074942	80.03650302	0.7161975	-26.72276112
1.1	110	0.01	-1.183	-0.041	-10.3705398	-0.9167328	6.8182002	79.95055932	0.64744254	-26.72276112
1.11	111	-0.012	-1.141	-0.033	-7.2192708	-0.6302538	9.9694692	79.87607478	0.5443101	-26.71130196
1.12	112	-0.032	-1.106	-0.018	-5.0993262	0.572958	11.8029348	79.82450856	0.4297185	-26.68838364
1.13	113	-0.034	-1.083	-0.025	-3.8388186	0.1145916	12.5477802	79.7844015	0.30939732	-26.66546532
1.14	114	-0.017	-1.069	-0.041	-3.3231564	-2.6929026	12.605076	79.75002402	0.17761698	-26.6711949
1.15	115	0.005	-1.062	-0.061	-3.437748	-7.2765666	12.2613012	79.73856486	0.05156622	-26.72276112
1.16	116	0.025	-1.055	-0.074	-3.6669312	-14.6677248	12.032118	79.6984578	-0.08021412	-26.8430823
1.17	117	0.038	-1.037	-0.068	-4.1252976	-20.9702628	11.9748222	79.66408032	-0.2291832	-27.02642886
1.18	118	0.044	-1.008	-0.062	-4.870143	-26.5852512	11.6310474	79.61824368	-0.38388186	-27.26707122
1.19	119	0.041	-0.969	-0.062	-5.9587632	-31.226211	11.0580894	79.56094788	-0.5443101	-27.55355022
1.2	120	0.016	-0.928	-0.065	-7.3338624	-34.7785506	9.6256944	79.50365208	-0.6875496	-27.88013628
1.21	121	-0.012	-0.893	-0.06	-7.161975	-36.2109456	7.9641162	79.4406267	-0.81932994	-28.2181815
1.22	122	-0.052	-0.875	-0.056	-7.3911582	-36.2682414	6.4744254	79.37760132	-0.93965112	-28.5619563
1.23	123	-0.091	-0.875	-0.055	-7.5630456	-35.4661002	5.3285094	79.30884636	-1.04851314	-28.90000152
1.24	124	-0.13	-0.895	-0.054	-7.6776372	-33.7472262	4.2398892	79.24582098	-1.145916	-29.22658758
1.25	125	-0.156	-0.918	-0.061	-8.0787078	-31.4553942	3.3804522	79.1827956	-1.25477802	-29.51879616
1.26	126	-0.168	-0.94	-0.061	-7.9641162	-28.5906042	2.2345362	79.11404064	-1.32353298	-29.793816
1.27	127	-0.167	-0.952	-0.057	-8.0787078	-25.210152	0.5156622	79.0395561	-1.36936962	-30.04018794
1.28	128	-0.157	-0.956	-0.056	-7.9068204	-22.1734746	-1.2032118	78.96507156	-1.39228794	-30.25791198
1.29	129	-0.141	-0.952	-0.056	-7.1046792	-19.8816426	-2.86479	78.90204618	-1.39801752	-30.45844728
1.3	130	-0.125	-0.946	-0.051	-5.9587632	-17.8189938	-4.4117766	78.87339828	-1.40947668	-30.63033468
1.31	131	-0.111	-0.946	-0.049	-4.9274388	-15.5844576	-5.6149884	78.82756164	-1.38082878	-30.7964925
1.32	132	-0.098	-0.947	-0.038	-3.8388186	-13.6936962	-6.875496	78.79318416	-1.33499214	-30.94546158
1.33	133	-0.089	-0.949	-0.026	-3.437748	-12.4904844	-7.734933	78.76453626	-1.27769634	-31.0829715
1.34	134	-0.075	-0.954	-0.014	-3.6096354	-11.5164558	-8.6516658	78.73015878	-1.21467096	-31.20902226
1.35	135	-0.059	-0.957	-0.008	-3.724227	-10.886202	-9.740286	78.73015878	-1.145916	-31.33507302
1.36	136	-0.042	-0.963	-0.004	-4.0680018	-10.599723	-10.9434978	78.69005172	-1.0599723	-31.4553942
1.37	137	-0.027	-0.966	-0.005	-4.4690724	-11.1153852	-11.9175264	78.64994466	-0.96256944	-31.58717454
1.38	138	-0.019	-0.972	-0.003	-4.870143	-12.4904844	-12.5477802	78.60410802	-0.859437	-31.73614362
1.39	139	-0.019	-0.981	0.003	-5.5003968	-14.0947668	-12.7196676	78.5525418	-0.76203414	-31.89657186
1.4	140	-0.022	-0.993	0.011	-5.72958	-15.2979786	-12.4904844	78.52962348	-0.67036086	-32.07418884
1.41	141	-0.04	-1.005	0.015	-6.589017	-15.756345	-12.2613012	78.4665981	-0.572958	-32.25180582
1.42	142	-0.056	-1.014	0.011	-6.6463128	-15.6417534	-12.318597	78.39784314	-0.48128472	-32.4294228
1.43	143	-0.071	-1.02	0.006	-6.1306506	-14.896908	-12.2040054	78.34054734	-0.38961144	-32.59558062
1.44	144	-0.084	-1.023	-0.002	-5.443101	-13.8655836	-12.0894138	78.28898112	-0.29793816	-32.75600886
1.45	145	-0.097	-1.025	0	-4.6409598	-12.9488508	-11.5737516	78.27752196	-0.2291832	-32.89924836
1.46	146	-0.112	-1.026	0.001	-4.2398892	-11.45916	-10.6570188	78.2374149	-0.14896908	-33.0310287
1.47	147	-0.121	-1.029	-0.002	-3.8388186	-10.3705398	-8.9954406	78.19730784	-0.08021412	-33.15134988
1.48	148	-0.129	-1.032	-0.007	-3.3804522	-9.5111028	-7.2765666	78.16865994	-0.02291832	-33.2602119
1.49	149	-0.136	-1.034	-0.015	-2.7501984	-9.0527364	-5.443101	78.14001204	0.00572958	-33.35761476
1.5	150	-0.143	-1.037	-0.019	-2.005353	-8.1932994	-3.5523396	78.19157826	-0.04010706	-33.41491056
1.51	151	-0.151	-1.039	-0.023	-0.9740286	-6.7609044	-1.718874	78.1801191	-0.04010706	-33.48366552
1.52	152	-0.157	-1.039	-0.028	0.3437748	-4.8128472	-0.1718874	78.18584868	-0.04583664	-33.53523174
1.53	153	-0.164	-1.031	-0.029	1.8907614	-2.4064236	0.9740286	78.20303742	-0.0572958	-33.55242048
1.54	154	-0.173	-1.022	-0.032	3.9534102	0.5156622	1.9480572	78.24314448	-0.07448454	-33.5466909
1.55	155	-0.175	-1.024	-0.041	6.4171296	3.724227	2.9220858	78.35773608	-0.1718874	-33.47220636
1.56	156	-0.174	-1.021	-0.044	9.8548776	5.0993262	4.010706	78.45513894	-0.2005353	-33.41491056
1.57	157	-0.161	-1.038	-0.045	12.4331886	5.5576926	5.0993262	78.5811897	-0.24064236	-33.35188518
1.58	158	-0.131	-1.095	-0.071	11.5164558	6.5317212	6.4171296	78.70151088	-0.29220858	-33.27167106
1.59	159	-0.097	-1.156	-0.131	8.0787078	5.5576926	8.021412	78.781725	-0.36096354	-33.2029161
1.6	160	-0.052	-1.181	-0.161	9.453807	2.005353	9.9694692	78.87912786	-0.45263682	-33.16280904
1.61	161	-0.01	-1.2	-0.134	13.5218088	-1.6615782	11.1153852	79.02236736	-0.56722842	-33.15707946
1.62	162	0.025	-1.231	-0.085	14.8396122	-2.005353	10.9434978	79.17133644	-0.67609044	-33.15134988
1.63	163	0.053	-1.248	-0.078	10.886202	-2.2345362	10.7716104	79.28019846	-0.77922288	-33.15707946
1.64	164	0.061	-1.242	-0.132	4.6982556	-4.8128472	10.0840608	79.33176468	-0.8880849	-33.18572736
1.65	165	0.053	-1.236	-0.207	2.4637194	-7.734933	9.9121734	79.354683	-0.98548776	-33.24302316
1.66	166	0.048	-1.24	-0.244	1.9480572	-11.4018642	10.1413566	79.3833309	-1.10580894	-33.34042602
1.67	167	0.035	-1.234	-0.28	2.7501984	-14.2666542	10.1986524	79.4119788	-1.22613012	-33.4607472
1.68	168	0.017	-1.198	-0.303	3.151269	-14.6677248	9.7975818	79.45208586	-1.3464513	-33.58679796
1.69	169	-0.021	-1.127	-0.312	2.9220858	-13.464513	8.307891	79.48646334	-1.44385416	-33.70138956
1.7	170	-0.076	-1.039	-0.329	2.4637194	-7.161975	5.2139178	79.41770838	-1.55844576	-33.7472262
1.71	171	-0.136	-0.96	-0.349	-0.5156622	4.9274388	0.4583664	79.4119788	-1.55271618	-33.69565998
1.72	172	-0.193	-0.901	-0.351	-3.2658606	18.5065434	-3.5523396	79.37187174	-1.4896908	-33.52377258
1.73	173	-0.237	-0.87	-0.322	-3.5523396	26.8144344	-5.8441716	79.3260351	-1.39228794	-33.27167106
1.74	174	-0.266	-0.866	-0.289	-2.7501984	31.6272816	-5.9587632	79.28592804	-1.28342592	-32.9737329
1.75	175	-0.255	-0.877	-0.265	-1.6042824	34.091001	-4.2398892	79.2400914	-1.2318597	-32.63568768
1.76	176	-0.192	-0.899	-0.253	0.1145916	33.8618178	-1.3750992	79.22863224	-1.16310474	-32.30337204
1.77	177	-0.107	-0.917	-0.242	3.0939732	32.2575354	1.4896908	79.25155056	-1.12872726	-31.98824514
1.78	178	-0.008	-0.929	-0.228	6.4744254	28.9916748	3.3804522	79.30884636	-1.1172681	-31.69603656
1.79	179	0.087	-0.931	-0.216	8.5370742	24.7517856	2.9793816	79.38906048	-1.10580894	-31.44966462
1.8	180	0.159	-0.919	-0.212	8.9954406	21.0275586	0.0572958	79.45781544	-1.01986524	-31.26058848
1.81	181	0.203	-0.907	-0.226	7.448454	19.194093	-3.437748	79.5265704	-0.95683986	-31.07724192
1.82	182	0.234	-0.896	-0.234	4.9274388	18.048177	-6.875496	79.57240704	-0.859437	-30.9110841
1.83	183	0.261	-0.894	-0.236	1.9480572	16.5011904	-9.5683986	79.58959578	-0.7448454	-30.7678446
1.84	184	0.256	-0.899	-0.253	-2.005353	13.2353298	-11.0007936	79.56667746	-0.61306506	-30.65898258
1.85	185	0.225	-0.91	-0.269	-5.2139178	10.026765	-11.8029348	79.48073376	-0.42398892	-30.60741636
1.86	186	0.162	-0.939	-0.272	-7.3338624	7.448454	-11.8602306	79.40624922	-0.29220858	-30.55585014
1.87	187	0.08	-0.975	-0.266	-9.2819196	6.1306506	-11.2299768	79.30884636	-0.17761698	-30.51574308
1.88	188	-0.004	-0.99	-0.248	-10.313244	5.3285094	-10.4851314	79.20571392	-0.06875496	-30.4813656
1.89	189	-0.08	-0.984	-0.223	-8.9381448	5.0993262	-9.9694692	79.10831106	0.03437748	-30.4527177
1.9	190	-0.128	-0.957	-0.195	-6.1306506	6.5317212	-9.6256944	79.0395561	0.09167328	-30.38969232
1.91	191	-0.152	-0.919	-0.173	-3.3804522	9.6829902	-9.167328	79.00517862	0.19480572	-30.31520778
1.92	192	-0.149	-0.882	-0.156	-1.145916	14.1520626	-8.8235532	78.99371946	0.30366774	-30.18915702
1.93	193	-0.115	-0.858	-0.139	1.145916	19.5951636	-8.3651868	78.99944904	0.41825934	-30.01726962
1.94	194	-0.057	-0.853	-0.12	3.3804522	24.2934192	-7.5630456	79.03382652	0.53285094	-29.793816
1.95	195	0.001	-0.871	-0.104	4.6982556	28.1322378	-5.72958	79.08539274	0.63598338	-29.53025532
1.96	196	0.052	-0.894	-0.094	5.0420304	31.1116194	-3.9534102	79.13695896	0.72192708	-29.23231716
1.97	197	0.09	-0.915	-0.089	5.3285094	33.1169724	-2.291832	79.19425476	0.8021412	-28.91146068
1.98	198	0.118	-0.931	-0.077	5.0993262	34.0337052	-0.6302538	79.24582098	0.859437	-28.57914504
1.99	199	0.133	-0.93	-0.069	4.7555514	34.0337052	0.5156622	79.2973872	0.91100322	-28.2468294
2	200	0.137	-0.921	-0.059	4.583664	33.7472262	1.432395	79.354683	0.9740286	-27.92024334
2.01	201	0.132	-0.9	-0.045	4.8128472	32.4867186	1.8907614	79.40624922	1.0026765	-27.59938686
2.02	202	0.125	-0.878	-0.032	5.2139178	30.366774	2.4064236	79.46354502	1.02559482	-27.3014487
2.03	203	0.119	-0.854	-0.018	6.0733548	28.3041252	3.0366774	79.5265704	1.04278356	-27.0149697
2.04	204	0.12	-0.84	-0.014	7.2765666	26.069589	4.1252976	79.60105494	1.04278356	-26.7571386
2.05	205	0.123	-0.838	-0.019	8.1932994	23.7204612	5.5576926	79.6984578	1.04278356	-26.51649624
2.06	206	0.129	-0.837	-0.031	9.6256944	21.0275586	7.8495246	79.80159024	0.99694692	-26.2987722
2.07	207	0.136	-0.838	-0.051	12.0894138	17.6471064	10.5424272	79.92191142	0.92246238	-26.10969606
2.08	208	0.147	-0.835	-0.064	15.9855282	14.5531332	13.4072172	80.08806924	0.81360036	-25.93780866
2.09	209	0.169	-0.83	-0.058	21.6578124	12.1467096	15.756345	80.30579328	0.68182002	-25.79456916
2.1	210	0.181	-0.832	-0.037	26.356068	8.1360036	17.475219	80.5865427	0.5443101	-25.69143672
2.11	211	0.168	-0.845	-0.027	28.8197874	1.6042824	17.9335854	80.87875128	0.3724227	-25.6398705
2.12	212	0.14	-0.874	-0.024	29.6792244	-4.2398892	16.7876694	81.18241902	0.20626488	-25.65705924
2.13	213	0.103	-0.924	-0.029	28.934379	-7.734933	14.7250206	81.4746276	0.0572958	-25.70862546
2.14	214	0.07	-0.995	-0.028	27.0436176	-9.6256944	11.8029348	81.74964744	-0.06302538	-25.78311
2.15	215	0.044	-1.065	-0.02	25.496631	-7.5630456	8.021412	82.03039686	-0.13750992	-25.84613538
2.16	216	0.031	-1.127	0.009	26.069589	-4.297185	4.3544808	82.29395754	-0.18334656	-25.88051286
2.17	217	0.023	-1.176	0.033	25.3820394	-0.4010706	0.7448454	82.55178864	-0.18907614	-25.88051286
2.18	218	0.025	-1.197	0.041	24.5226024	1.7761698	-1.7761698	82.80389016	-0.1718874	-25.86332412
2.19	219	0.031	-1.185	0.039	24.4653066	0.859437	-2.578311	83.0502621	-0.1432395	-25.85186496
2.2	220	0.039	-1.165	0	27.2728008	-4.4690724	-2.4064236	83.3367411	-0.10886202	-25.90343118
2.21	221	0.057	-1.176	-0.049	31.1689152	-8.8235532	-3.3231564	83.651868	-0.08021412	-25.98937488
2.22	222	0.088	-1.206	-0.062	35.9817624	-9.5111028	-6.3598338	84.01856112	-0.02291832	-26.08677774
2.23	223	0.13	-1.239	-0.085	37.528749	-11.5737516	-10.4278356	84.40244298	0.06875496	-26.20709892
2.24	224	0.156	-1.277	-0.139	33.9191136	-18.5638392	-15.1260912	84.75194736	0.21199446	-26.40190464
2.25	225	0.116	-1.339	-0.16	33.1169724	-23.9496444	-21.3140376	85.084263	0.41252976	-26.65400616
2.26	226	0.042	-1.395	-0.152	32.7159018	-24.2361234	-29.1635622	85.41657864	0.69327918	-26.91183726
2.27	227	0.006	-1.394	-0.177	28.1895336	-23.7204612	-38.674665	85.70305764	1.06570188	-27.16966836
2.28	228	0	-1.347	-0.212	24.2361234	-24.7517856	-46.2377106	85.9437	1.51260912	-27.4446882
2.29	229	0.031	-1.255	-0.259	18.3919518	-28.4187168	-46.5814854	86.12704656	1.96524594	-27.75408552
2.3	230	0.089	-1.139	-0.282	11.6310474	-32.085648	-43.2010332	86.21871984	2.38923486	-28.1035899
2.31	231	0.157	-1.045	-0.27	5.0993262	-33.9764094	-38.5027776	86.2588269	2.75592798	-28.45882386
2.32	232	0.218	-1.023	-0.26	-2.8074942	-34.0337052	-35.4088044	86.21871984	3.09970278	-28.8197874
2.33	233	0.261	-1.056	-0.268	-8.9954406	-35.2942128	-33.3461556	86.10985782	3.41482968	-29.1922101
2.34	234	0.274	-1.12	-0.261	-13.0634424	-37.8725238	-30.2521824	85.95515916	3.6955791	-29.58755112
2.35	235	0.249	-1.156	-0.245	-15.2979786	-40.680018	-23.8350528	85.76608302	3.9247623	-30.01154004
2.36	236	0.18	-1.142	-0.217	-14.5531332	-42.7426668	-13.8082878	85.59419562	4.0393539	-30.44698812
2.37	237	0.104	-1.099	-0.2	-12.1467096	-43.6593996	-4.1825934	85.44522654	4.05654264	-30.8824362
2.38	238	0.024	-1.036	-0.186	-9.740286	-44.5761324	4.1825934	85.31917578	3.99351726	-31.32361386
2.39	239	-0.047	-0.969	-0.176	-7.6203414	-44.1750618	10.2559482	85.22177292	3.8674665	-31.75333236
2.4	240	-0.108	-0.909	-0.156	-6.1306506	-43.0291458	13.8082878	85.12437006	3.67839036	-32.16013254
2.41	241	-0.159	-0.875	-0.123	-6.1879464	-41.0237928	15.9855282	85.04415594	3.4950438	-32.55547356
2.42	242	-0.198	-0.865	-0.109	-9.5683986	-37.0130868	17.5898106	84.92956434	3.30023808	-32.91070752
2.43	243	-0.217	-0.876	-0.126	-14.2666542	-31.8564648	18.907614	84.77486568	3.0939732	-33.20864568
2.44	244	-0.222	-0.898	-0.161	-19.3659804	-28.5906042	20.1681216	84.5686008	2.87051958	-33.47793594
2.45	245	-0.222	-0.918	-0.191	-22.9756158	-27.501984	19.7097552	84.31649928	2.62414764	-33.72430788
2.46	246	-0.217	-0.923	-0.195	-26.0122932	-24.923673	18.1054728	84.04147944	2.42361234	-33.95349108
2.47	247	-0.201	-0.917	-0.199	-29.3927454	-20.1681216	14.9542038	83.7378117	2.25745452	-34.14256722
2.48	248	-0.171	-0.903	-0.197	-31.1689152	-14.610429	11.1153852	83.4226848	2.13713334	-34.27434756
2.49	249	-0.13	-0.886	-0.187	-32.2575354	-8.2505952	6.9900876	83.09036916	2.05691922	-34.35456168
2.5	250	-0.087	-0.88	-0.17	-33.1169724	-2.1199446	4.1252976	82.74086478	1.98816426	-34.36602084
2.51	251	-0.052	-0.888	-0.146	-31.9710564	2.4064236	2.9220858	82.4200083	1.95951636	-34.34310252
2.52	252	-0.022	-0.89	-0.121	-29.6219286	6.5317212	3.8961144	82.12207014	1.92513888	-34.27434756
2.53	253	0.009	-0.899	-0.102	-25.5539268	8.6516658	6.1879464	81.86423904	1.87357266	-34.18840386
2.54	254	0.036	-0.908	-0.087	-21.9442914	8.9954406	8.1932994	81.64078542	1.79908812	-34.08527142
2.55	255	0.059	-0.928	-0.071	-18.334656	6.7036086	9.1100322	81.46889802	1.72460358	-34.01078688
2.56	256	0.074	-0.946	-0.054	-14.896908	2.4637194	8.1360036	81.31992894	1.65011904	-33.9764094
2.57	257	0.072	-0.948	-0.045	-12.0894138	-3.0366774	5.5576926	81.19387818	1.58709366	-33.99932772
2.58	258	0.052	-0.933	-0.032	-10.1413566	-10.2559482	2.0626488	81.09074574	1.55271618	-34.10246016
2.59	259	0.025	-0.908	-0.026	-8.6516658	-17.8189938	-1.0313244	80.99907246	1.54125702	-34.28007714
2.6	260	0	-0.876	-0.031	-6.3598338	-23.777757	-3.0939732	80.94177666	1.53552744	-34.51498992
2.61	261	-0.021	-0.835	-0.033	-3.2085648	-27.0436176	-4.870143	80.90739918	1.5469866	-34.78428018
2.62	262	-0.044	-0.792	-0.028	1.2605076	-27.9030546	-6.5317212	80.91885834	1.5756345	-35.07075918
2.63	263	-0.07	-0.753	-0.014	6.875496	-26.356068	-8.2505952	80.98188372	1.62147114	-35.34004944
2.64	264	-0.097	-0.738	0.02	10.026765	-21.5432208	-9.6829902	81.07928658	1.6902261	-35.56923264
2.65	265	-0.119	-0.742	0.043	8.7662574	-13.5791046	-10.886202	81.1881486	1.75898106	-35.70674256
2.66	266	-0.126	-0.762	0.034	7.6776372	-3.6096354	-11.6883432	81.26263314	1.87357266	-35.75830878
2.67	267	-0.115	-0.815	0.014	10.599723	6.7609044	-11.6310474	81.37149516	1.99389384	-35.70674256
2.68	268	-0.092	-0.904	-0.025	14.4958374	13.5791046	-10.0840608	81.52046424	2.11421502	-35.58642138
2.69	269	-0.068	-1.008	-0.067	16.7876694	13.0634424	-7.1046792	81.69808122	2.20015872	-35.4661002
2.7	270	-0.048	-1.11	-0.091	17.3033316	6.5317212	-2.578311	81.88142778	2.21161788	-35.39734524
2.71	271	-0.014	-1.174	-0.064	16.902261	-2.4064236	2.291832	82.05331518	2.18869956	-35.42026356
2.72	272	0.026	-1.179	-0.026	15.5271618	-9.5683986	6.302538	82.20801384	2.1199446	-35.50047768
2.73	273	0.058	-1.127	-0.007	12.4904844	-14.8396122	8.4797784	82.3340646	2.02254174	-35.6379876
2.74	274	0.054	-1.043	0.02	9.7975818	-19.480572	8.59437	82.43146746	1.9194093	-35.81560458
2.75	275	0.013	-1.008	0.022	5.5003968	-19.8816426	7.1046792	82.51168158	1.81627686	-35.99895114
2.76	276	-0.029	-1.035	-0.04	0.1145916	-13.5791046	5.7868758	82.51168158	1.74179232	-36.1250019
2.77	277	-0.063	-1.102	-0.102	-0.0572958	-4.583664	4.7555514	82.51168158	1.6902261	-36.16510896
2.78	278	-0.109	-1.165	-0.084	3.8961144	0.286479	3.7815228	82.55178864	1.65584862	-36.1536498
2.79	279	-0.143	-1.218	-0.043	7.161975	2.86479	3.151269	82.62627318	1.62720072	-36.11927232
2.8	280	-0.139	-1.275	-0.059	7.6776372	7.734933	3.4950438	82.71221688	1.58709366	-36.03332862
2.81	281	-0.084	-1.335	-0.127	5.0993262	12.4904844	4.9274388	82.7637831	1.55271618	-35.90727786
2.82	282	0.014	-1.39	-0.229	0.7448454	14.037471	7.5630456	82.77524226	1.4896908	-35.75830878
2.83	283	0.094	-1.437	-0.264	-1.4896908	11.45916	12.4904844	82.75805352	1.3750992	-35.62652844
2.84	284	0.148	-1.462	-0.271	-1.2032118	6.2452422	18.334656	82.75232394	1.2032118	-35.54631432
2.85	285	0.151	-1.381	-0.288	-0.4010706	1.6615782	23.0902074	82.7351352	0.98548776	-35.50047768
2.86	286	0.072	-1.21	-0.303	1.3750992	-2.578311	24.923673	82.75232394	0.73911582	-35.50047768
2.87	287	-0.04	-1.044	-0.304	1.3178034	-3.151269	23.6631654	82.76951268	0.49847346	-35.50047768
2.88	288	-0.124	-0.925	-0.278	-0.859437	0.5156622	19.8243468	82.75805352	0.30366774	-35.47182978
2.89	289	-0.172	-0.882	-0.257	-5.6149884	8.1360036	14.5531332	82.70075772	0.16615782	-35.37442692
2.9	290	-0.199	-0.901	-0.264	-10.7716104	16.8449652	9.5111028	82.55751822	0.04583664	-35.18535078
2.91	291	-0.2	-0.944	-0.274	-13.5791046	25.210152	5.72958	82.4200083	0.01718874	-34.93324926
2.92	292	-0.154	-0.987	-0.267	-14.7823164	31.6272816	2.578311	82.26530964	0.02291832	-34.61812236
2.93	293	-0.064	-1.003	-0.245	-14.8396122	34.7212548	-0.6875496	82.11061098	0.06302538	-34.28007714
2.94	294	0.04	-0.988	-0.23	-13.9801752	35.6379876	-4.9847346	81.9616419	0.14896908	-33.93630234
2.95	295	0.138	-0.973	-0.225	-12.3758928	34.4347758	-8.9381448	81.8184024	0.30366774	-33.62117544
2.96	296	0.212	-0.967	-0.231	-11.3445684	30.4813656	-11.6883432	81.69808122	0.45263682	-33.34042602
2.97	297	0.257	-0.958	-0.227	-10.5424272	24.8090814	-13.1207382	81.5892192	0.60733548	-33.1169724
2.98	298	0.271	-0.947	-0.203	-9.5111028	18.8503182	-14.2093584	81.49181634	0.7734933	-32.95081458
2.99	299	0.255	-0.936	-0.174	-8.1360036	12.9488508	-15.2979786	81.41160222	0.93392154	-32.84768214
3	300	0.22	-0.931	-0.147	-8.6516658	8.3651868	-16.902261	81.31419936	1.16310474	-32.80757508
3.01	301	0.183	-0.934	-0.13	-10.6570188	5.72958	-18.5638392	81.20533734	1.35218088	-32.77892718
3.02	302	0.145	-0.941	-0.119	-13.6364004	4.6982556	-20.2254174	81.06782742	1.55271618	-32.76173844
3.03	303	0.11	-0.954	-0.114	-17.2460358	4.870143	-21.485925	80.89021044	1.77044022	-32.75027928
3.04	304	0.081	-0.962	-0.113	-21.3140376	5.8441716	-21.772404	80.6724864	1.98816426	-32.72736096
3.05	305	0.053	-0.968	-0.112	-25.2674478	7.2192708	-21.0848544	80.42038488	2.2058883	-32.69298348
3.06	306	0.036	-0.962	-0.126	-29.0489706	7.9641162	-18.9649098	80.1281763	2.40069402	-32.65287642
3.07	307	0.019	-0.951	-0.145	-31.3980984	8.9954406	-15.6417534	79.80731982	2.56112226	-32.58985104
3.08	308	0.011	-0.937	-0.164	-32.0283522	10.1986524	-12.4904844	79.48646334	2.69863218	-32.5153665
3.09	309	0.01	-0.927	-0.168	-30.939732	11.2299768	-10.1986524	79.17133644	2.81322378	-32.4294228
3.1	310	0.006	-0.913	-0.168	-29.1062664	13.6364004	-8.880849	78.87912786	2.91062664	-32.3148312
3.11	311	0.024	-0.908	-0.168	-26.356068	17.0168526	-8.7089616	78.61556718	3.02521824	-32.16586212
3.12	312	0.058	-0.906	-0.167	-24.2934192	20.5691922	-8.9381448	78.37492482	3.13980984	-31.98251556
3.13	313	0.103	-0.906	-0.167	-22.5172494	22.8610242	-8.9954406	78.15720078	3.2658606	-31.78198026
3.14	314	0.153	-0.907	-0.174	-20.7410796	23.1475032	-8.7089616	77.95666548	3.39191136	-31.57571538
3.15	315	0.195	-0.905	-0.179	-18.4492476	21.6578124	-7.8495246	77.77331892	3.53515086	-31.39236882
3.16	316	0.229	-0.889	-0.183	-16.7876694	17.7044022	-6.3598338	77.6071611	3.62682414	-31.23194058
3.17	317	0.251	-0.871	-0.18	-15.0687954	12.2040054	-4.5263682	77.4639216	3.6955791	-31.12880814
3.18	318	0.257	-0.849	-0.164	-12.9488508	4.9847346	-2.6929026	77.33214126	3.72995658	-31.0829715
3.19	319	0.256	-0.829	-0.146	-11.3445684	-2.8074942	-1.2605076	77.21754966	3.73568616	-31.11734898
3.2	320	0.248	-0.812	-0.121	-8.9954406	-10.5424272	-0.1145916	77.13160596	3.77006364	-31.23767016
3.21	321	0.231	-0.806	-0.114	-6.1879464	-16.8449652	0.4583664	77.05712142	3.73568616	-31.3980984
3.22	322	0.21	-0.802	-0.107	-3.3231564	-20.626488	0.7448454	77.01128478	3.68411994	-31.5986337
3.23	323	0.191	-0.8	-0.065	1.2032118	-25.2674478	1.0886202	77.01128478	3.62682414	-31.83927606
3.24	324	0.173	-0.807	-0.042	4.4690724	-28.934379	1.4896908	77.04566226	3.55806918	-32.12002548
3.25	325	0.157	-0.814	-0.024	7.161975	-31.7418732	2.1772404	77.12587638	3.4950438	-32.42369322
3.26	326	0.158	-0.823	-0.017	8.3651868	-33.804522	3.0366774	77.19463134	3.39764094	-32.7445497
3.27	327	0.153	-0.849	-0.004	9.8548776	-35.4088044	3.9534102	77.28057504	3.2945085	-33.08259492
3.28	328	0.164	-0.875	0.018	11.3445684	-35.0650296	4.9274388	77.38370748	3.1799169	-33.40918098
3.29	329	0.162	-0.928	0.009	10.313244	-35.9817624	6.016059	77.47538076	3.05386614	-33.7472262
3.3	330	0.133	-1.016	0.002	6.2452422	-34.4920716	6.1879464	77.56132446	2.94500412	-34.06808268
3.31	331	0.123	-1.107	0.023	3.151269	-24.4653066	3.7815228	77.58424278	2.85906042	-34.29726588
3.32	332	0.143	-1.152	0.064	1.6615782	-15.5271618	2.578311	77.59570194	2.8074942	-34.44623496
3.33	333	0.129	-1.173	-0.057	-4.1825934	-19.480572	4.0680018	77.54413572	2.73300966	-34.62385194
3.34	334	0.08	-1.232	-0.258	-8.7089616	-27.3300966	5.443101	77.44673286	2.62414764	-34.88168304
3.35	335	0.01	-1.333	-0.358	-8.4224826	-34.4920716	3.9534102	77.34933	2.5210152	-35.2082691
3.36	336	-0.06	-1.493	-0.299	-9.1100322	-34.950438	-2.0626488	77.24619756	2.46944898	-35.5520439
3.37	337	-0.094	-1.594	-0.15	-12.8342592	-23.5485738	-11.5737516	77.10868764	2.53820394	-35.809875
3.38	338	-0.041	-1.46	-0.127	-18.048177	-9.8548776	-17.5325148	76.9196115	2.68717302	-35.94165534
3.39	339	0.059	-1.245	-0.257	-19.7097552	-6.9327918	-11.9175264	76.71334662	2.78457588	-36.0390582
3.4	340	0.132	-1.055	-0.319	-13.5218088	-14.037471	0.8021412	76.55291838	2.77311672	-36.1822977
3.41	341	0.157	-0.928	-0.278	-9.5683986	-21.485925	13.9228794	76.44978594	2.58977016	-36.35991468
3.42	342	0.185	-0.889	-0.211	-9.2819196	-26.5852512	21.8869956	76.35238308	2.32620948	-36.57190914
3.43	343	0.224	-0.905	-0.186	-12.605076	-29.3927454	23.0902074	76.21487316	2.03973048	-36.80109234
3.44	344	0.249	-0.924	-0.174	-14.7823164	-32.7159018	19.0795014	76.0601745	1.78762896	-37.07611218
3.45	345	0.25	-0.935	-0.165	-15.6990492	-36.382833	12.318597	75.90547584	1.62147114	-37.40842782
3.46	346	0.194	-0.931	-0.155	-15.756345	-41.3675676	6.1306506	75.73931802	1.46677248	-37.79230968
3.47	347	0.093	-0.904	-0.135	-17.4179232	-48.3003594	3.9534102	75.55597146	1.32353298	-38.25067608
3.48	348	0.024	-0.86	-0.138	-18.5638392	-52.8267276	5.5576926	75.36689532	1.15164558	-38.74914954
3.49	349	-0.038	-0.84	-0.132	-17.9908812	-55.290447	7.6203414	75.17781918	0.95111028	-39.26481174
3.5	350	-0.08	-0.839	-0.134	-17.5898106	-54.144531	8.3651868	75.01166136	0.73338624	-39.7632852
3.51	351	-0.12	-0.835	-0.121	-17.475219	-51.0505578	7.9068204	74.83404438	0.53858052	-40.23311076
3.52	352	-0.151	-0.832	-0.116	-18.334656	-47.7846972	7.2765666	74.65069782	0.35523396	-40.67428842
3.53	353	-0.168	-0.832	-0.128	-19.5378678	-44.8053156	7.161975	74.4558921	0.17761698	-41.08681818
3.54	354	-0.174	-0.849	-0.12	-19.2513888	-41.3675676	7.6203414	74.26681596	0	-41.46497046
3.55	355	-0.157	-0.883	-0.135	-18.2200644	-36.8411994	8.6516658	74.09492856	-0.18907614	-41.79155652
3.56	356	-0.129	-0.918	-0.13	-15.8709366	-35.0650296	9.8548776	73.9402299	-0.3724227	-42.10095384
3.57	357	-0.106	-0.942	-0.128	-15.2979786	-33.804522	10.886202	73.7969904	-0.56149884	-42.398892
3.58	358	-0.086	-0.941	-0.132	-14.2666542	-34.1482968	10.9434978	73.65948048	-0.75630456	-42.69683016
3.59	359	-0.081	-0.937	-0.116	-12.9488508	-33.231564	9.9694692	73.53342972	-0.93392154	-42.98903874
3.6	360	-0.092	-0.926	-0.104	-12.3758928	-31.6272816	8.5370742	73.44175644	-1.11153852	-43.26405858
3.61	361	-0.104	-0.911	-0.118	-11.1153852	-30.8251404	6.8182002	73.338624	-1.2605076	-43.53907842
3.62	362	-0.1	-0.901	-0.125	-9.7975818	-32.085648	5.5003968	73.24695072	-1.39801752	-43.831287
3.63	363	-0.091	-0.895	-0.112	-10.1413566	-34.091001	5.156622	73.16100702	-1.53552744	-44.14068432
3.64	364	-0.075	-0.88	-0.126	-10.599723	-35.523396	5.7868758	73.06360416	-1.68449652	-44.46727038
3.65	365	-0.062	-0.867	-0.122	-6.9327918	-36.7839036	6.4744254	73.02922668	-1.85065434	-44.79385644
3.66	366	-0.06	-0.861	-0.116	-3.0366774	-36.2109456	7.3338624	73.01203794	-2.01681216	-45.1204425
3.67	367	-0.05	-0.856	-0.125	0.1718874	-35.0650296	8.3651868	73.02922668	-2.18869956	-45.42983982
3.68	368	-0.029	-0.847	-0.139	3.6096354	-35.809875	9.7975818	73.08652248	-2.37204612	-45.74496672
3.69	369	-0.005	-0.838	-0.15	7.9068204	-39.4195104	11.3445684	73.18965492	-2.58404058	-46.08874152
3.7	370	0.019	-0.833	-0.128	11.5164558	-43.0291458	12.8342592	73.338624	-2.8074942	-46.46116422
3.71	371	0.04	-0.822	-0.11	13.6936962	-47.0398518	13.750992	73.50478182	-3.05959572	-46.87369398
3.72	372	0.051	-0.808	-0.078	16.6730778	-50.3057124	13.750992	73.70531712	-3.31169724	-47.31487164
3.73	373	0.054	-0.805	-0.045	18.907614	-53.571573	13.5791046	73.93450032	-3.57525792	-47.79042678
3.74	374	0.049	-0.8	-0.011	19.194093	-56.6082504	13.3499214	74.1694131	-3.8388186	-48.29462982
3.75	375	0.047	-0.803	-0.005	19.4232762	-58.9573782	13.6364004	74.4272442	-4.10237928	-48.82748076
3.76	376	0.028	-0.817	0	19.0795014	-63.311859	14.2666542	74.67361614	-4.3831287	-49.39470918
3.77	377	0.001	-0.845	0.022	17.5898106	-65.5463952	15.0687954	74.90852892	-4.68106686	-49.98485592
3.78	378	-0.014	-0.875	0.015	16.329303	-67.2652692	15.9282324	75.13198254	-4.9847346	-50.5921914
3.79	379	-0.034	-0.906	0.001	16.7303736	-72.5937786	16.5011904	75.3726249	-5.30559108	-51.2510931
3.8	380	-0.043	-0.92	-0.003	18.4492476	-77.1774426	16.7876694	75.65337432	-5.63217714	-51.95583144
3.81	381	-0.054	-0.917	-0.002	22.1734746	-80.6151906	16.9595568	75.96850122	-5.97022236	-52.69494726
3.82	382	-0.06	-0.899	0.007	27.3873924	-83.1362058	17.5325148	76.33519434	-6.30826758	-53.4569814
3.83	383	-0.084	-0.866	0.011	32.085648	-84.1102344	18.2773602	76.76491284	-6.65204238	-54.23620428
3.84	384	-0.086	-0.813	0.011	37.1276784	-83.07891	19.4232762	77.24046798	-7.00154676	-54.99823842
3.85	385	-0.096	-0.743	-0.04	39.5913978	-77.4066258	20.7410796	77.74467102	-7.34532156	-55.70870634
3.86	386	-0.115	-0.628	-0.133	42.2843004	-70.473834	20.5691922	78.27179238	-7.66617804	-56.3504193
3.87	387	-0.132	-0.458	-0.182	47.4982182	-57.1812084	18.6784308	78.83329122	-7.94119788	-56.87181108
3.88	388	-0.147	-0.28	-0.233	55.6342218	-48.1857678	15.8709366	79.46354502	-8.1646515	-57.31298874
3.89	389	-0.24	-0.129	-0.251	67.4944524	-50.993262	13.464513	80.22557916	-8.3651868	-57.78854388
3.9	390	-0.341	-0.032	-0.194	68.8122558	-48.70143	10.0840608	80.9876133	-8.54853336	-58.2411807
3.91	391	-0.328	-0.033	-0.129	49.6181628	-33.804522	6.5317212	81.54338256	-8.6516658	-58.56203718
3.92	392	-0.215	-0.094	-0.032	16.7303736	-27.3873924	6.016059	81.75537702	-8.7376095	-58.82559786
3.93	393	-0.079	-0.212	0.108	-8.9381448	-30.8251404	7.1046792	81.71526996	-8.84647152	-59.12353602
3.94	394	0.041	-0.308	0.174	-20.1681216	-29.1062664	9.6829902	81.55484172	-8.97825186	-59.39855586
3.95	395	0.115	-0.327	0.068	-26.8144344	-26.9863218	16.1001198	81.3313881	-9.15586884	-59.65065738
3.96	396	0.165	-0.309	-0.075	-31.51269	-28.934379	21.772404	81.05636826	-9.40797036	-59.90848848
3.97	397	0.224	-0.256	-0.188	-35.2942128	-29.5646328	25.4393352	80.74697094	-9.70017894	-60.16631958
3.98	398	0.247	-0.19	-0.215	-42.398892	-31.6272816	28.361421	80.36881866	-10.026765	-60.44133942
3.99	399	0.222	-0.159	-0.159	-52.425657	-33.9764094	31.0543236	79.89326352	-10.38199896	-60.72781842
4	400	0.148	-0.194	-0.076	-68.8695516	-31.799169	34.663959	79.2400914	-10.76588082	-60.9913791
4.01	401	0.053	-0.254	-0.059	-89.381448	-25.78311	39.534102	78.37492482	-11.2013289	-61.18045524
4.02	402	-0.057	-0.335	-0.105	-103.8199896	-21.6005166	43.1437374	77.34933	-11.67115446	-61.31796516
4.03	403	-0.176	-0.43	-0.086	-120.3784758	-19.767051	46.3523022	76.15184778	-12.16962792	-61.41536802
4.04	404	-0.27	-0.502	-0.07	-134.931609	-13.9228794	48.70143	74.79393732	-12.68529012	-61.44401592
4.05	405	-0.367	-0.61	-0.14	-150.401475	-7.1046792	50.0765292	73.25840988	-13.2066819	-61.38672012
4.06	406	-0.478	-0.745	-0.238	-164.2670586	-0.5156622	48.3576552	71.5624542	-13.68796662	-61.26066936
4.07	407	-0.603	-0.985	-0.362	-177.1013178	10.0840608	43.0864416	69.70607028	-14.07757806	-61.03148616
4.08	408	-0.712	-1.371	-0.533	-198.1288764	26.8717302	35.1796212	67.60331442	-14.34113874	-60.65906346
4.09	409	-0.773	-1.772	-0.75	-225.172494	46.4668938	26.1841806	65.17970208	-14.43281202	-60.12621252
4.1	410	-0.808	-2.057	-1	-246.2000526	59.9314068	17.9908812	62.52117696	-14.37551622	-59.50741788
4.11	411	-0.845	-2.265	-1.254	-279.2024334	86.9177286	9.453807	59.4730404	-14.10049638	-58.69381752
4.12	412	-0.814	-2.5	-1.538	-319.6532682	123.2432658	1.8334656	55.95507828	-13.53326796	-57.62238606
4.13	413	-0.801	-2.738	-1.749	-351.9108036	161.5168602	-7.9641162	52.07042304	-12.61653516	-56.33323056
4.14	414	-0.712	-2.349	-2.028	-372.1935168	203.3427942	-10.886202	47.95085502	-11.33310924	-54.80916228
4.15	415	-0.561	-1.475	-2.351	-346.2958152	212.0517558	4.4117766	44.11203642	-9.9981171	-53.21633904
4.16	416	-0.201	-0.885	-2.201	-259.9510446	195.2640864	21.6578124	41.20140978	-8.7949053	-51.69227076
4.17	417	0.147	-0.793	-1.429	-177.1586136	159.6833946	40.0497642	39.18459762	-7.90109082	-50.32863072
4.18	418	0.586	-1.423	0.143	-197.8423974	148.5107136	80.787078	36.95006142	-7.29375534	-48.74726664
4.19	419	0.656	-1.508	0.449	-281.1504906	104.2210602	125.6496894	33.87900654	-7.23645954	-47.0971476
4.2	420	0.58	-1.184	0.426	-265.566033	86.8604328	147.5939808	30.9683799	-7.33959198	-45.36681444
4.21	421	0.417	-1.016	0.247	-240.4704726	87.8344614	142.093584	28.29839562	-7.3338624	-43.67658834
4.22	422	0.11	-1.312	0.516	-218.6407728	46.9252602	59.1865614	25.9836453	-7.23072996	-42.92028378
4.23	423	0.016	-1.041	0.65	-270.2069928	-8.5370742	0.4583664	23.24490606	-7.34532156	-42.94893168
4.24	424	0.206	-0.275	0.374	-307.6211502	-27.3873924	-11.0580894	20.15093286	-7.59742308	-43.1437374
4.25	425	0.211	-0.026	0.238	-304.1261064	-41.0237928	-14.8396122	17.10852588	-7.9641162	-43.41875724
4.26	426	0.297	0.11	0.175	-292.1512842	-63.7129296	-15.5844576	14.19789924	-8.55999252	-43.7453433
4.27	427	0.394	0.279	-0.137	-272.2696416	-75.8023434	-14.4385416	11.49353748	-9.28764918	-44.0604702
4.28	428	0.379	0.484	-0.278	-248.8929552	-92.4181254	-9.9121734	9.02981808	-10.1986524	-44.33549004
4.29	429	0.241	0.685	-0.406	-225.0006066	-126.337239	15.3552744	6.76663398	-11.47634874	-44.3755971
4.3	430	-0.185	0.722	-0.704	-199.5039756	-159.1677324	52.0818822	4.68106686	-13.1207382	-44.0318223
4.31	431	-0.363	0.803	-0.88	-169.5382722	-196.7537772	74.5418358	2.84187168	-15.1260912	-43.44167556
4.32	432	-0.115	1.042	-1.111	-126.623718	-239.5537398	70.473834	1.42666542	-17.5325148	-42.86298798
4.33	433	0.299	1.229	-1.137	-71.333271	-262.6439472	48.0138804	0.61306506	-20.14520328	-42.47910612
4.34	434	0.575	1.079	-0.892	-40.4508348	-253.4193234	21.6578124	0.18907614	-22.65475932	-42.33586662
4.35	435	0.57	0.903	-0.731	-1.718874	-260.409411	1.6615782	0.20626488	-25.20442242	-42.398892
4.36	436	0.271	0.708	-0.533	39.4195104	-287.1665496	0.8021412	0.69327918	-28.03483494	-42.50775402
4.37	437	-0.278	0.59	-0.499	55.7488134	-294.0993414	1.6042824	1.36936962	-30.93400242	-42.64526394
4.38	438	-0.902	0.584	-0.624	37.528749	-262.9304262	-2.86479	1.89649098	-33.52377258	-42.8572584
4.39	439	-1.616	0.653	-0.788	6.7036086	-192.3992964	-7.2765666	2.12567418	-35.42026356	-43.09217118
4.4	440	-2.658	0.71	-1.207	9.2246238	-119.0606724	-13.5791046	2.38923486	-36.58909788	-43.35573186
4.41	441	-3.513	0.42	-2.065	55.290447	-38.101707	-18.1054728	3.11116194	-36.95006142	-43.61929254
4.42	442	-3.999	0.015	-2.596	121.0660254	64.6869582	20.912967	4.14248634	-36.31407804	-43.29843606
4.43	443	-3.989	0.506	-2.172	94.0224078	134.358651	79.8703452	4.41750618	-35.04211128	-42.15824964
4.44	444	-3.022	1.287	-2.831	36.096354	231.188553	101.986524	3.91903272	-32.84195256	-40.66855884
4.45	445	-1.358	1.737	-2.281	19.1367972	252.0442242	123.9308154	3.18564648	-30.43552896	-38.961144
4.46	446	-0.32	1.391	-1.753	52.6548402	189.649098	132.8116644	2.87051958	-28.63071126	-37.28237706
4.47	447	-1.187	0.595	-1.854	79.8130494	146.7918396	116.023995	2.99657034	-27.23842332	-35.85571164
4.48	448	-1.36	-0.768	-1.738	38.9038482	140.4893016	43.6021038	3.09970278	-25.87478328	-35.24837616
4.49	449	-1.603	-0.604	-1.344	6.0733548	146.4480648	-13.750992	3.151269	-24.42519954	-35.27129448
4.5	450	-1.129	0.251	-0.846	1.5469866	144.7291908	-2.9220858	3.08824362	-23.02145244	-35.16243246
4.51	451	-0.686	0.695	-0.577	17.8762896	126.9674928	26.7571386	3.10543236	-21.78386316	-34.76709144
4.52	452	-0.58	0.848	-0.383	22.8037284	136.8796662	41.1383844	3.11689152	-20.4546006	-34.21132218
4.53	453	-0.53	0.704	-0.237	26.6998428	153.7246314	31.1116194	3.21429438	-18.95345064	-33.75295578
4.54	454	-0.494	0.477	-0.187	37.1276784	171.1425546	22.2880662	3.44920716	-17.28041328	-33.36907392
4.55	455	-0.408	0.259	-0.179	45.83664	186.3259416	20.5691922	3.77006364	-15.469866	-32.97946248
4.56	456	-0.251	0.117	-0.231	46.0085274	196.3527066	23.6631654	4.10237928	-13.5504567	-32.54974398
4.57	457	-0.055	0.042	-0.345	47.9565846	194.5765368	27.9030546	4.46334282	-11.65396572	-32.06845926
4.58	458	0.086	-0.046	-0.502	46.6387812	179.335854	32.5440144	4.8128472	-9.9121734	-31.54706748
4.59	459	0.19	-0.052	-0.652	32.945085	140.088231	35.236917	5.04775998	-8.55999252	-31.03713486
4.6	460	0.247	0.049	-0.792	24.064236	109.0339074	39.0184398	5.19672906	-7.50002022	-30.52720224
4.61	461	0.321	0.164	-0.886	22.631841	88.4647152	41.5967508	5.35142772	-6.66923112	-30.00581046
4.62	462	0.386	0.264	-0.876	13.8655836	68.75496	38.6173692	5.43164184	-6.02751816	-29.54171448
4.63	463	0.379	0.328	-0.913	0	56.3790672	34.6066632	5.3858052	-5.50612638	-29.12918472
4.64	464	0.335	0.348	-0.966	-14.4385416	52.6548402	29.0489706	5.19672906	-5.01911208	-28.77395076
4.65	465	0.256	0.356	-1.028	-24.8663772	58.4990118	20.7983754	4.88733174	-4.44615408	-28.5046605
4.66	466	0.23	0.348	-1.14	-27.4446882	66.5777196	10.5424272	4.583664	-3.80444112	-28.32131394
4.67	467	0.201	0.328	-1.212	-27.3873924	73.2240324	1.2605076	4.29145542	-3.08824362	-28.22964066
4.68	468	0.277	0.255	-1.186	-29.6219286	93.5067456	-4.5263682	3.97632852	-2.16578124	-28.18380402
4.69	469	0.417	0.206	-1.372	-23.1475032	90.6992514	-5.0993262	3.724227	-1.27196676	-28.14942654
4.7	470	0.333	0.004	-1.245	-17.9335854	68.75496	-5.5003968	3.53515086	-0.572958	-28.14369696
4.71	471	0.302	-0.125	-1.122	-24.6944898	68.2392978	-4.6982556	3.27159018	0.09740286	-28.1322378
4.72	472	0.167	-0.184	-1.124	-28.074942	64.4004792	-4.1825934	2.9793816	0.72765666	-28.11504906
4.73	473	0.013	-0.217	-1.087	-25.78311	64.5150708	-6.1306506	2.71009134	1.36364004	-28.12650822
4.74	474	-0.184	-0.219	-1.002	-23.7204612	68.0674104	-12.605076	2.45226024	2.03973048	-28.20099276
4.75	475	-0.292	-0.191	-0.944	-17.761698	75.1147938	-19.3086846	2.26891368	2.7501984	-28.3327731
4.76	476	-0.367	-0.134	-0.932	-11.8029348	79.6984578	-25.3247436	2.12567418	3.54661002	-28.5333084
4.77	477	-0.364	-0.089	-0.903	-7.734933	83.9956428	-32.7159018	2.01681216	4.38885828	-28.80259866
4.78	478	-0.349	-0.07	-0.877	-7.161975	87.8344614	-38.5027776	1.90222056	5.26548402	-29.1349143
4.79	479	-0.251	-0.147	-0.915	-3.6096354	87.3187992	-37.0703826	1.82200644	6.14210976	-29.4500412
4.8	480	-0.095	-0.199	-0.917	1.9480572	82.6778394	-25.9549974	1.82200644	6.94998054	-29.65630608
4.81	481	0.09	-0.194	-0.985	5.5003968	73.2813282	-13.0634424	1.85638392	7.68336678	-29.74224978
4.82	482	0.287	-0.191	-1.009	8.021412	57.6968706	-3.9534102	1.93086846	8.2505952	-29.74797936
4.83	483	0.475	-0.193	-1.068	-1.718874	38.0444112	0.2291832	1.91367972	8.62874748	-29.72506104
4.84	484	0.548	-0.148	-1.058	-8.9381448	23.6058696	0.3437748	1.82200644	8.85793068	-29.7078723
4.85	485	0.62	-0.123	-1.05	-17.0741484	13.6936962	-4.6409598	1.65011904	9.05846598	-29.75943852
4.86	486	0.658	-0.14	-1.013	-17.7044022	7.9068204	-8.9381448	1.45531332	9.1386801	-29.83965264
4.87	487	0.639	-0.161	-0.955	-16.9595568	8.1360036	-11.9175264	1.2605076	9.21889422	-29.95424424
4.88	488	0.589	-0.194	-0.944	-16.9595568	10.9434978	-12.9488508	1.06570188	9.32775624	-30.080295
4.89	489	0.523	-0.229	-0.949	-16.615782	10.313244	-11.45916	0.87662574	9.43088868	-30.18915702
4.9	490	0.421	-0.227	-0.945	-15.8709366	8.0787078	-7.1046792	0.76776372	9.5970465	-30.26364156
4.91	491	0.344	-0.2	-0.922	-13.1207382	7.8495246	-2.8074942	0.6302538	9.67153104	-30.29228946
4.92	492	0.284	-0.144	-0.917	-12.7196676	9.0527364	0.1718874	0.49847346	9.76320432	-30.28655988
4.93	493	0.253	-0.089	-0.924	-13.8082878	10.9434978	2.4637194	0.36669312	9.86633676	-30.2521824
4.94	494	0.221	-0.035	-0.932	-14.6677248	12.7769634	3.6669312	0.21772404	9.99238752	-30.21207534
4.95	495	0.183	-0.004	-0.944	-13.4072172	14.896908	3.8388186	0.08021412	10.13562702	-30.1662387
4.96	496	0.176	0.024	-0.956	-12.0894138	16.902261	2.9793816	-0.0286479	10.30178484	-30.13186122
4.97	497	0.19	0.048	-0.976	-11.3445684	17.761698	1.7761698	-0.1432395	10.47940182	-30.1089429
4.98	498	0.215	0.074	-0.995	-10.3705398	17.9908812	0.9740286	-0.25210152	10.65128922	-30.09175416
4.99	499	0.237	0.08	-0.998	-8.6516658	16.2147114	1.2605076	-0.33804522	10.81171746	-30.07456542
5	500	0.261	0.08	-1.004	-6.6463128	13.2353298	2.5210152	-0.44117766	10.97787528	-30.06310626
5.01	501	0.284	0.09	-1.01	-5.5003968	9.2246238	3.6669312	-0.49274388	11.06381898	-30.0229992
5.02	502	0.302	0.096	-1.012	-4.5263682	4.9847346	4.583664	-0.52712136	11.1153852	-29.97143298
5.03	503	0.313	0.11	-1.003	-4.1252976	0.3437748	4.9274388	-0.56149884	11.12111478	-29.91986676
5.04	504	0.307	0.127	-0.983	-4.5263682	-3.6669312	4.3544808	-0.59587632	11.08100772	-29.8797597
5.05	505	0.302	0.141	-0.966	-4.583664	-6.5317212	2.9793816	-0.7448454	11.09246688	-29.88548928
5.06	506	0.291	0.145	-0.949	-3.0939732	-7.9641162	0.859437	-0.7734933	11.01798234	-29.8797597
5.07	507	0.28	0.14	-0.941	-0.7448454	-7.8495246	-1.3178034	-0.78495246	10.93776822	-29.89121886
5.08	508	0.269	0.129	-0.936	0.6302538	-6.7609044	-3.151269	-0.78495246	10.86901326	-29.92559634
5.09	509	0.258	0.115	-0.936	1.6615782	-5.443101	-4.6409598	-0.7734933	10.81744704	-29.97716256
5.1	510	0.251	0.099	-0.946	2.5210152	-4.297185	-5.6149884	-0.83651868	10.82317662	-30.05737668
5.11	511	0.247	0.078	-0.956	3.0366774	-4.1825934	-6.4171296	-0.81932994	10.78306956	-30.12613164
5.12	512	0.241	0.052	-0.968	3.3231564	-4.6409598	-6.4744254	-0.79641162	10.73723292	-30.1948866
5.13	513	0.237	0.029	-0.969	3.2658606	-5.5576926	-5.8441716	-0.7734933	10.67993712	-30.2521824
5.14	514	0.223	0.004	-0.974	2.7501984	-6.5317212	-4.4690724	-0.75057498	10.61691174	-30.29801904
5.15	515	0.203	-0.008	-0.977	2.6929026	-7.5630456	-2.9793816	-0.72765666	10.5424272	-30.33239652
5.16	516	0.184	-0.015	-0.976	2.86479	-8.307891	-2.005353	-0.69900876	10.46221308	-30.35531484
5.17	517	0.16	-0.019	-0.978	2.9793816	-8.6516658	-1.3178034	-0.67036086	10.37626938	-30.366774
5.18	518	0.14	-0.017	-0.978	3.3804522	-8.4797784	-0.859437	-0.63598338	10.29032568	-30.37823316
5.19	519	0.121	-0.019	-0.976	3.6096354	-7.9641162	-0.6302538	-0.6016059	10.21011156	-30.38969232
5.2	520	0.107	-0.025	-0.977	3.437748	-7.5630456	-0.4583664	-0.55003968	10.06114248	-30.37823316
5.21	521	0.101	-0.029	-0.977	2.9220858	-6.9327918	-0.4583664	-0.52139178	9.99238752	-30.38396274
5.22	522	0.102	-0.035	-0.98	2.1199446	-6.0733548	-0.572958	-0.49847346	9.93509172	-30.38969232
5.23	523	0.108	-0.041	-0.983	1.3750992	-4.7555514	-0.9167328	-0.4870143	9.8835255	-30.40115148
5.24	524	0.117	-0.046	-0.985	1.2032118	-3.6096354	-1.2605076	-0.47555514	9.84914802	-30.41261064
5.25	525	0.127	-0.05	-0.985	1.2605076	-2.6356068	-1.6615782	-0.39534102	9.71736768	-30.3954219
5.26	526	0.136	-0.054	-0.986	1.2605076	-1.6042824	-2.005353	-0.38961144	9.70590852	-30.41834022
5.27	527	0.142	-0.054	-0.987	1.145916	-0.5156622	-2.1772404	-0.37815228	9.70017894	-30.44125854
5.28	528	0.147	-0.051	-0.983	0.9740286	0.286479	-2.291832	-0.3724227	9.70017894	-30.46417686
5.29	529	0.155	-0.042	-0.978	0.3437748	0.6875496	-2.1199446	-0.3724227	9.70590852	-30.48709518
5.3	530	0.161	-0.031	-0.976	0	0.6875496	-1.8907614	-0.32658606	9.6543423	-30.4813656
5.31	531	0.167	-0.02	-0.974	-0.1145916	0.572958	-1.8334656	-0.32658606	9.66007188	-30.49855434
5.32	532	0.175	-0.012	-0.975	-0.286479	0.4010706	-1.6615782	-0.33231564	9.66580146	-30.51574308
5.33	533	0.178	-0.003	-0.974	-0.5156622	0.1718874	-1.4896908	-0.3437748	9.66580146	-30.53293182
5.34	534	0.181	0.003	-0.97	-0.572958	0.1718874	-1.3750992	-0.34950438	9.67153104	-30.54439098
5.35	535	0.184	0.008	-0.967	-0.859437	0.3437748	-1.2605076	-0.44690724	9.7116381	-30.58449804
5.36	536	0.185	0.013	-0.969	-1.3178034	0.4583664	-1.2032118	-0.46409598	9.71736768	-30.5959572
5.37	537	0.188	0.021	-0.971	-1.6042824	0.859437	-1.0313244	-0.48128472	9.72309726	-30.60741636
5.38	538	0.189	0.029	-0.971	-1.145916	1.3750992	-1.0313244	-0.49274388	9.740286	-30.61887552
5.39	539	0.193	0.03	-0.966	-1.9480572	2.005353	-0.9740286	-0.5156622	9.75747474	-30.6246051
5.4	540	0.197	0.031	-0.964	-2.5210152	2.2345362	-0.859437	-0.61879464	9.8262297	-30.65898258
5.41	541	0.2	0.032	-0.972	-2.2345362	2.4637194	-0.7448454	-0.64171296	9.84914802	-30.66471216
5.42	542	0.203	0.032	-0.978	-1.4896908	2.5210152	-0.572958	-0.6589017	9.87206634	-30.67044174
5.43	543	0.207	0.031	-0.98	-1.0313244	2.4637194	-0.572958	-0.67036086	9.89498466	-30.67617132
5.44	544	0.21	0.029	-0.978	-0.9740286	2.1772404	-0.5156622	-0.68182002	9.91790298	-30.6819009
5.45	545	0.214	0.025	-0.976	-0.7448454	1.8907614	-0.4583664	-0.79641162	10.0554129	-30.72773754
5.46	546	0.216	0.022	-0.978	-0.5156622	1.3178034	-0.1718874	-0.8021412	10.07260164	-30.72773754
5.47	547	0.216	0.02	-0.976	-0.4010706	0.859437	0.1718874	-0.80787078	10.07833122	-30.72773754
5.48	548	0.216	0.018	-0.97	-0.3437748	0.572958	0.4583664	-0.80787078	10.0840608	-30.72200796
5.49	549	0.217	0.016	-0.967	-0.4583664	0.0572958	0.5156622	-0.81360036	10.0840608	-30.71627838
5.5	550	0.219	0.014	-0.966	-0.6302538	-0.1145916	0.572958	-0.92819196	10.29032568	-30.77357418
5.51	551	0.217	0.013	-0.97	-0.7448454	-0.1718874	0.7448454	-0.93965112	10.29032568	-30.7678446
5.52	552	0.213	0.01	-0.972	-0.572958	-0.286479	0.7448454	-0.93965112	10.2845961	-30.76211502
5.53	553	0.207	0.004	-0.971	-0.4583664	-0.4583664	0.572958	-0.9453807	10.2845961	-30.75638544
5.54	554	0.2	-0.001	-0.972	-0.4583664	-0.4583664	0.4583664	-0.95111028	10.27886652	-30.75065586
5.55	555	0.198	-0.006	-0.974	-0.7448454	-0.4583664	0.3437748	-0.9453807	10.33043274	-30.75638544
5.56	556	0.193	-0.009	-0.975	-1.0313244	-0.2291832	0.1718874	-0.95683986	10.32470316	-30.75065586
5.57	557	0.19	-0.009	-0.977	-0.859437	-0.2291832	0.1145916	-0.96256944	10.32470316	-30.75065586
5.58	558	0.187	-0.009	-0.977	-0.572958	-0.2291832	0	-0.96829902	10.32470316	-30.75065586
5.59	559	0.185	-0.008	-0.978	-0.5156622	-0.0572958	0	-0.9740286	10.31897358	-30.75065586
5.6	560	0.182	-0.007	-0.976	-0.4583664	-0.1718874	-0.0572958	-0.95111028	10.26740736	-30.73346712
5.61	561	0.18	-0.005	-0.975	-0.6302538	-0.286479	-0.1145916	-0.95683986	10.26167778	-30.7391967
5.62	562	0.181	-0.004	-0.975	-0.6875496	-0.286479	-0.1145916	-0.96256944	10.2559482	-30.7391967
5.63	563	0.183	-0.002	-0.974	-0.572958	-0.4583664	0	-0.96829902	10.2559482	-30.7391967
5.64	564	0.184	-0.001	-0.976	-0.5156622	-0.4010706	0	-0.9740286	10.25021862	-30.7391967
5.65	565	0.185	0.001	-0.977	-0.3437748	-0.572958	0	-1.01986524	10.25021862	-30.74492628
5.66	566	0.187	0.001	-0.975	-0.2291832	-0.8021412	0	-1.01986524	10.23875946	-30.74492628
5.67	567	0.191	0.002	-0.971	-0.1145916	-0.9167328	0	-1.01986524	10.23302988	-30.74492628
5.68	568	0.193	0.003	-0.971	-0.1145916	-0.9740286	0	-1.02559482	10.22157072	-30.74492628
5.69	569	0.196	0.006	-0.97	-0.3437748	-1.2032118	-0.1145916	-1.02559482	10.21011156	-30.75065586
5.7	570	0.199	0.01	-0.968	-0.4583664	-1.0313244	-0.1145916	-1.09434978	10.27313694	-30.77930376
5.71	571	0.202	0.013	-0.968	-0.4583664	-1.0313244	-0.1145916	-1.10007936	10.26167778	-30.77930376
5.72	572	0.202	0.015	-0.968	-0.3437748	-1.145916	0	-1.10580894	10.25021862	-30.77930376
5.73	573	0.203	0.016	-0.97	0	-1.0886202	0	-1.10580894	10.23875946	-30.77930376
5.74	574	0.203	0.016	-0.973	0.1145916	-1.0886202	0	-1.10007936	10.2273003	-30.77930376
5.75	575	0.202	0.014	-0.971	0.1145916	-0.859437	0	-1.20894138	10.3418919	-30.8251404
5.76	576	0.202	0.014	-0.973	0	-0.6875496	0	-1.20894138	10.33616232	-30.8251404
5.77	577	0.2	0.013	-0.974	0.1718874	-0.6302538	0	-1.20894138	10.32470316	-30.8251404
5.78	578	0.199	0.013	-0.975	0.3437748	-0.8021412	-0.1718874	-1.2032118	10.31897358	-30.8251404
5.79	579	0.2	0.011	-0.973	0.4010706	-0.7448454	-0.1145916	-1.2032118	10.313244	-30.8251404
5.8	580	0.201	0.01	-0.973	0.286479	-0.6302538	0	-1.2605076	10.41064686	-30.85951788
5.81	581	0.201	0.009	-0.972	0.1718874	-0.6875496	0	-1.25477802	10.3991877	-30.85951788
5.82	582	0.2	0.008	-0.971	0.286479	-0.9740286	-0.0572958	-1.25477802	10.39345812	-30.85951788
5.83	583	0.199	0.006	-0.97	0.286479	-1.0886202	-0.2291832	-1.24904844	10.38199896	-30.86524746
5.84	584	0.199	0.007	-0.971	0.4583664	-1.2032118	-0.4583664	-1.24904844	10.3705398	-30.87097704
5.85	585	0.2	0.006	-0.971	0.4583664	-1.2605076	-0.6875496	-1.25477802	10.38772854	-30.8824362
5.86	586	0.199	0.004	-0.971	0.4583664	-1.2605076	-0.7448454	-1.25477802	10.37626938	-30.89389536
5.87	587	0.198	0.002	-0.973	0.4010706	-1.3178034	-0.8021412	-1.24904844	10.35908064	-30.89962494
5.88	588	0.196	0	-0.974	0.4583664	-1.2605076	-0.8021412	-1.24331886	10.34762148	-30.9110841
5.89	589	0.193	0	-0.974	0.5156622	-1.145916	-0.7448454	-1.24331886	10.33616232	-30.91681368
5.9	590	0.192	-0.001	-0.971	0.3437748	-0.9740286	-0.6302538	-1.2318597	10.3418919	-30.92827284
5.91	591	0.19	-0.002	-0.97	0.1718874	-0.6875496	-0.572958	-1.2318597	10.33616232	-30.93400242
5.92	592	0.188	-0.002	-0.969	-0.1145916	-0.4583664	-0.4583664	-1.2318597	10.33043274	-30.939732
5.93	593	0.186	0	-0.969	-0.3437748	-0.286479	-0.4010706	-1.23758928	10.33043274	-30.939732
5.94	594	0.187	0.002	-0.972	-0.5156622	-0.2291832	-0.1718874	-1.24331886	10.32470316	-30.94546158
5.95	595	0.187	0.002	-0.974	-0.572958	-0.2291832	-0.2291832	-1.26623718	10.32470316	-30.95119116
5.96	596	0.189	0.002	-0.977	-0.6302538	-0.2291832	-0.1718874	-1.27196676	10.32470316	-30.95119116
5.97	597	0.189	0.002	-0.977	-0.9740286	-0.4010706	0	-1.28342592	10.31897358	-30.95119116
5.98	598	0.188	0.003	-0.976	-0.9740286	0.0572958	0.3437748	-1.29488508	10.31897358	-30.95119116
5.99	599	0.187	0.004	-0.975	-0.9740286	0.5156622	0.4583664	-1.30061466	10.32470316	-30.94546158
6	600	0.187	0.006	-0.974	-0.9740286	0.9167328	0.4583664	-1.32353298	10.33616232	-30.939732
6.01	601	0.186	0.006	-0.972	-1.0886202	0.9740286	0.5156622	-1.33499214	10.34762148	-30.93400242
6.02	602	0.187	0.006	-0.971	-1.0313244	0.572958	0.4010706	-1.3464513	10.35335106	-30.93400242
6.03	603	0.187	0.007	-0.972	-0.8021412	0.286479	0.3437748	-1.35218088	10.35908064	-30.92827284
6.04	604	0.187	0.008	-0.974	-0.4010706	0.0572958	0.4010706	-1.35791046	10.35908064	-30.92254326
6.05	605	0.188	0.008	-0.974	-0.1718874	0.1718874	0.4583664	-1.39228794	10.35908064	-30.92254326
6.06	606	0.188	0.007	-0.974	-0.2291832	0.3437748	0.4583664	-1.39228794	10.36481022	-30.91681368
6.07	607	0.189	0.008	-0.973	-0.286479	0.4010706	0.3437748	-1.39801752	10.36481022	-30.91681368
6.08	608	0.19	0.008	-0.973	-0.286479	0.4583664	0.3437748	-1.39801752	10.3705398	-30.9110841
6.09	609	0.193	0.008	-0.973	-0.2291832	0.4583664	0.3437748	-1.4037471	10.37626938	-30.90535452
6.1	610	0.194	0.008	-0.974	-0.1145916	0.5156622	0.3437748	-1.432395	10.43929476	-30.92254326
6.11	611	0.198	0.007	-0.974	-0.2291832	0.4583664	0.3437748	-1.432395	10.44502434	-30.91681368
6.12	612	0.2	0.007	-0.974	-0.4010706	0.286479	0.3437748	-1.43812458	10.45075392	-30.9110841
6.13	613	0.2	0.007	-0.975	-0.4010706	0.4010706	0.4583664	-1.44385416	10.4564835	-30.90535452
6.14	614	0.202	0.007	-0.973	-0.4010706	0.6875496	0.4010706	-1.44385416	10.46221308	-30.90535452
6.15	615	0.202	0.007	-0.973	-0.572958	0.7448454	0.5156622	-1.4610429	10.50232014	-30.90535452
6.16	616	0.202	0.009	-0.974	-0.6302538	0.7448454	0.5156622	-1.46677248	10.5137793	-30.89962494
6.17	617	0.202	0.007	-0.972	-0.4010706	0.6302538	0.4010706	-1.47250206	10.51950888	-30.89389536
6.18	618	0.203	0.004	-0.972	-0.4010706	0.4010706	0.2291832	-1.47250206	10.52523846	-30.89389536
6.19	619	0.201	0.004	-0.971	-0.4583664	0.286479	0.1718874	-1.47823164	10.52523846	-30.89389536
6.2	620	0.201	0.003	-0.972	-0.4010706	0.1145916	0.1145916	-1.47823164	10.599723	-30.89962494
6.21	621	0.2	0.003	-0.972	-0.5156622	0	0	-1.48396122	10.599723	-30.89962494
6.22	622	0.2	0.003	-0.971	-0.5156622	-0.1145916	0.0572958	-1.4896908	10.599723	-30.89962494
6.23	623	0.2	0.003	-0.972	-0.572958	-0.2291832	0.0572958	-1.49542038	10.599723	-30.89962494
6.24	624	0.198	0.004	-0.971	-0.4583664	-0.1718874	0	-1.50114996	10.59399342	-30.89962494
6.25	625	0.198	0.005	-0.971	-0.3437748	-0.4010706	-0.0572958	-1.51260912	10.63410048	-30.9110841
6.26	626	0.198	0.005	-0.97	-0.3437748	-0.5156622	-0.1718874	-1.5183387	10.6283709	-30.9110841
6.27	627	0.196	0.005	-0.974	-0.286479	-0.6302538	-0.1718874	-1.5183387	10.62264132	-30.9110841
6.28	628	0.193	0.006	-0.975	-0.1145916	-0.572958	-0.1718874	-1.52406828	10.61691174	-30.91681368
6.29	629	0.192	0.006	-0.975	0.0572958	-0.3437748	-0.1718874	-1.52406828	10.61118216	-30.91681368
6.3	630	0.191	0.006	-0.973	0.1718874	-0.286479	-0.1718874	-1.52979786	10.60545258	-30.92254326
6.31	631	0.191	0.007	-0.974	0.1145916	-0.2291832	-0.1718874	-1.52406828	10.60545258	-30.92254326
6.32	632	0.19	0.007	-0.975	0.1145916	-0.1145916	-0.0572958	-1.52406828	10.599723	-30.92254326
6.33	633	0.189	0.007	-0.974	0.2291832	0	-0.0572958	-1.52406828	10.599723	-30.92827284
6.34	634	0.189	0.007	-0.973	0.1718874	-0.0572958	-0.0572958	-1.5183387	10.599723	-30.92827284
6.35	635	0.188	0.008	-0.971	0	-0.0572958	-0.0572958	-1.58136408	10.5710751	-30.93400242
6.36	636	0.191	0.01	-0.972	-0.2291832	-0.0572958	0	-1.58136408	10.5710751	-30.93400242
6.37	637	0.192	0.008	-0.973	-0.2291832	0	0.1145916	-1.58709366	10.56534552	-30.93400242
6.38	638	0.191	0.008	-0.973	0	-0.1145916	0.286479	-1.58709366	10.56534552	-30.92827284
6.39	639	0.191	0.007	-0.974	-0.0572958	-0.1145916	0.2291832	-1.58709366	10.56534552	-30.92827284
6.4	640	0.191	0.006	-0.973	-0.286479	-0.0572958	0.3437748	-1.58136408	10.55961594	-30.92254326
6.41	641	0.191	0.004	-0.97	-0.3437748	0	0.3437748	-1.58709366	10.55961594	-30.91681368
6.42	642	0.19	0.004	-0.968	-0.6302538	0.286479	0.4010706	-1.59282324	10.55961594	-30.9110841
6.43	643	0.189	0.006	-0.971	-0.5156622	0.4583664	0.2291832	-1.59855282	10.56534552	-30.9110841
6.44	644	0.189	0.007	-0.973	-0.286479	0.7448454	0.1718874	-1.59855282	10.57680468	-30.90535452
6.45	645	0.19	0.008	-0.976	-0.1718874	0.9740286	0.1145916	-1.61001198	10.58253426	-30.90535452
6.46	646	0.19	0.009	-0.977	-0.0572958	1.0886202	0.0572958	-1.61001198	10.58826384	-30.90535452
6.47	647	0.192	0.008	-0.978	0.0572958	0.8021412	0	-1.61001198	10.599723	-30.90535452
6.48	648	0.193	0.008	-0.976	0	0.8021412	0	-1.61001198	10.60545258	-30.90535452
6.49	649	0.194	0.005	-0.973	0	0.9740286	0.0572958	-1.61001198	10.61691174	-30.90535452
6.5	650	0.192	0.002	-0.971	-0.1145916	1.145916	0.1145916	-1.6042824	10.6283709	-30.89962494
6.51	651	0.192	0.003	-0.971	-0.4010706	1.2032118	0	-1.6042824	10.63983006	-30.89962494
6.52	652	0.193	0.006	-0.971	-0.286479	1.3750992	-0.1145916	-1.61001198	10.6570188	-30.90535452
6.53	653	0.195	0.008	-0.97	-0.286479	1.718874	-0.3437748	-1.61574156	10.67420754	-30.90535452
6.54	654	0.199	0.007	-0.97	-0.3437748	1.718874	-0.3437748	-1.62147114	10.69139628	-30.9110841
6.55	655	0.203	0.005	-0.969	-0.572958	1.3178034	-0.1718874	-1.62147114	10.73150334	-30.91681368
6.56	656	0.203	0.003	-0.97	-0.4583664	0.9167328	-0.1145916	-1.62720072	10.73723292	-30.91681368
6.57	657	0.203	0.004	-0.971	-0.2291832	0.6302538	0	-1.6329303	10.7429625	-30.91681368
6.58	658	0.205	0.004	-0.971	-0.286479	0.4583664	0.0572958	-1.6329303	10.74869208	-30.91681368
6.59	659	0.204	0.004	-0.97	-0.5156622	0.1718874	0.0572958	-1.63865988	10.75442166	-30.91681368
6.6	660	0.202	0.006	-0.973	-0.6302538	-0.286479	0.0572958	-1.64438946	10.7716104	-30.91681368
6.61	661	0.197	0.008	-0.973	-0.3437748	-0.572958	0.1718874	-1.64438946	10.76588082	-30.91681368
6.62	662	0.195	0.009	-0.972	-0.0572958	-0.6302538	0.1718874	-1.65011904	10.76015124	-30.91681368
6.63	663	0.192	0.008	-0.971	0	-0.4010706	0.2291832	-1.64438946	10.75442166	-30.9110841
6.64	664	0.19	0.009	-0.972	0	-0.4010706	0.2291832	-1.64438946	10.74869208	-30.9110841
6.65	665	0.19	0.008	-0.974	0	-0.286479	0.1145916	-1.6615782	10.7143146	-30.90535452
6.66	666	0.191	0.01	-0.976	0	-0.286479	0.1145916	-1.6615782	10.70858502	-30.90535452
6.67	667	0.191	0.01	-0.974	0.0572958	-0.1718874	0	-1.65584862	10.70858502	-30.90535452
6.68	668	0.191	0.01	-0.973	0	-0.1145916	-0.0572958	-1.65584862	10.70858502	-30.90535452
6.69	669	0.193	0.009	-0.973	0.1145916	0	-0.1145916	-1.65584862	10.70858502	-30.90535452
6.7	670	0.192	0.008	-0.972	-0.0572958	0.1145916	-0.286479	-1.66730778	10.70285544	-30.9110841
6.71	671	0.192	0.008	-0.972	-0.0572958	0.2291832	-0.2291832	-1.66730778	10.70285544	-30.9110841
6.72	672	0.195	0.009	-0.973	0	0.3437748	-0.2291832	-1.67303736	10.70858502	-30.91681368
6.73	673	0.198	0.009	-0.973	0.0572958	0.4010706	-0.0572958	-1.66730778	10.7143146	-30.91681368
6.74	674	0.199	0.01	-0.975	0.1145916	0.4010706	0	-1.66730778	10.72004418	-30.91681368
6.75	675	0.198	0.009	-0.974	0.1718874	0.286479	0.1145916	-1.67876694	10.7429625	-30.92254326
6.76	676	0.199	0.007	-0.972	0.1145916	0.2291832	0.1718874	-1.67876694	10.7429625	-30.91681368
6.77	677	0.197	0.007	-0.973	-0.0572958	0.1145916	0.1718874	-1.67876694	10.74869208	-30.91681368
6.78	678	0.193	0.005	-0.973	-0.0572958	-0.0572958	0.0572958	-1.67876694	10.74869208	-30.91681368
6.79	679	0.192	0.005	-0.973	-0.286479	-0.0572958	0.0572958	-1.67876694	10.7429625	-30.91681368
6.8	680	0.192	0.003	-0.972	-0.4010706	-0.286479	0	-1.6615782	10.73150334	-30.9110841
6.81	681	0.191	0.003	-0.972	-0.3437748	-0.5156622	0.1145916	-1.66730778	10.73150334	-30.90535452
6.82	682	0.192	0.005	-0.972	-0.2291832	-0.4583664	0.1145916	-1.66730778	10.72577376	-30.90535452
6.83	683	0.192	0.007	-0.974	-0.1718874	-0.286479	0.1145916	-1.67303736	10.72004418	-30.90535452
6.84	684	0.192	0.008	-0.975	-0.2291832	-0.1145916	0	-1.67303736	10.72004418	-30.90535452
6.85	685	0.192	0.007	-0.974	-0.1718874	0	0.0572958	-1.67876694	10.70285544	-30.89962494
6.86	686	0.192	0.006	-0.973	-0.1718874	0	0	-1.68449652	10.70285544	-30.89962494
6.87	687	0.194	0.005	-0.973	-0.0572958	0	-0.0572958	-1.68449652	10.70285544	-30.90535452
6.88	688	0.195	0.008	-0.972	0	0	0	-1.68449652	10.70285544	-30.90535452
6.89	689	0.196	0.009	-0.974	0	0	0	-1.68449652	10.70285544	-30.90535452
6.9	690	0.197	0.01	-0.974	0.0572958	0.0572958	0.1145916	-1.71314442	10.75442166	-30.91681368
6.91	691	0.196	0.009	-0.972	0.0572958	0	0.0572958	-1.71314442	10.75442166	-30.9110841
6.92	692	0.196	0.009	-0.973	0.0572958	0	0.0572958	-1.71314442	10.75442166	-30.9110841
6.93	693	0.195	0.01	-0.972	0.0572958	0.0572958	0.0572958	-1.71314442	10.75442166	-30.9110841
6.94	694	0.195	0.01	-0.971	0	0	0.1145916	-1.71314442	10.75442166	-30.9110841
6.95	695	0.195	0.01	-0.971	-0.0572958	-0.0572958	0.0572958	-1.73033316	10.7429625	-30.9110841
6.96	696	0.194	0.011	-0.972	-0.0572958	-0.0572958	0.1145916	-1.73033316	10.7429625	-30.9110841
6.97	697	0.195	0.01	-0.972	0.0572958	-0.1718874	0.1145916	-1.73033316	10.7429625	-30.9110841
6.98	698	0.194	0.01	-0.972	0	-0.1145916	0.1718874	-1.73033316	10.7429625	-30.90535452
6.99	699	0.195	0.011	-0.973	0.0572958	0	0.1718874	-1.73033316	10.7429625	-30.90535452
7	700	0.195	0.011	-0.972	0	0.1718874	0.0572958	-1.75325148	10.7429625	-30.9110841
7.01	701	0.193	0.01	-0.973	-0.0572958	0.2291832	0.0572958	-1.75325148	10.7429625	-30.90535452
7.02	702	0.191	0.009	-0.972	-0.0572958	0.4010706	0	-1.75325148	10.74869208	-30.90535452
7.03	703	0.19	0.009	-0.971	-0.0572958	0.6302538	0	-1.75325148	10.75442166	-30.90535452
7.04	704	0.19	0.007	-0.972	-0.0572958	0.6875496	0	-1.75325148	10.76015124	-30.90535452
7.05	705	0.19	0.007	-0.973	0.0572958	0.572958	-0.0572958	-1.75325148	10.75442166	-30.90535452
7.06	706	0.191	0.008	-0.975	0.3437748	0.4010706	-0.0572958	-1.7475219	10.76015124	-30.90535452
7.07	707	0.193	0.008	-0.976	0.4010706	0.2291832	-0.1145916	-1.7475219	10.76015124	-30.9110841
7.08	708	0.195	0.009	-0.976	0.4010706	0.2291832	-0.1718874	-1.74179232	10.76588082	-30.9110841
7.09	709	0.196	0.008	-0.975	0.4010706	0.0572958	-0.1145916	-1.73606274	10.76588082	-30.9110841
7.1	710	0.196	0.006	-0.975	0.3437748	0	0	-1.73033316	10.77733998	-30.9110841
7.11	711	0.197	0.004	-0.974	0.1718874	0.286479	-0.0572958	-1.73033316	10.77733998	-30.91681368
7.12	712	0.192	0.003	-0.973	0	0.286479	0	-1.73033316	10.78306956	-30.91681368
7.13	713	0.188	0.006	-0.973	-0.1145916	0.1718874	-0.1145916	-1.73033316	10.78306956	-30.91681368
7.14	714	0.188	0.009	-0.976	-0.286479	0.1718874	-0.3437748	-1.73606274	10.78879914	-30.91681368
7.15	715	0.19	0.009	-0.977	-0.286479	0.5156622	-0.4010706	-1.73606274	10.78306956	-30.92254326
7.16	716	0.193	0.008	-0.975	-0.4583664	0.6302538	-0.3437748	-1.74179232	10.78879914	-30.92827284
7.17	717	0.196	0.006	-0.97	-1.0313244	0.6302538	-0.0572958	-1.75325148	10.79452872	-30.92827284
7.18	718	0.197	0.004	-0.968	-1.3178034	0.859437	0	-1.77044022	10.8002583	-30.92827284
7.19	719	0.196	0.005	-0.969	-1.3178034	1.2032118	0.1145916	-1.78189938	10.81744704	-30.92254326
7.2	720	0.196	0.008	-0.971	-1.3178034	1.2605076	0.2291832	-1.79335854	10.8289062	-30.92254326
7.21	721	0.195	0.009	-0.97	-1.432395	1.0313244	0.2291832	-1.81054728	10.84036536	-30.91681368
7.22	722	0.194	0.012	-0.97	-1.432395	0.572958	0.2291832	-1.82200644	10.84609494	-30.91681368
7.23	723	0.192	0.014	-0.972	-0.9740286	0.286479	0.2291832	-1.8334656	10.84609494	-30.91681368
7.24	724	0.189	0.013	-0.971	-0.4583664	0.286479	0.2291832	-1.83919518	10.85182452	-30.9110841
7.25	725	0.19	0.012	-0.971	-0.2291832	0.3437748	0.2291832	-1.84492476	10.83463578	-30.90535452
7.26	726	0.19	0.01	-0.971	-0.1718874	0.2291832	0.1145916	-1.84492476	10.84036536	-30.90535452
7.27	727	0.192	0.009	-0.971	-0.2291832	0.286479	0.1145916	-1.85065434	10.84036536	-30.90535452
7.28	728	0.192	0.011	-0.971	-0.2291832	0.286479	0.1718874	-1.85065434	10.84609494	-30.90535452
7.29	729	0.193	0.012	-0.973	0	0.286479	0.1718874	-1.85065434	10.85182452	-30.89962494
7.3	730	0.193	0.013	-0.974	0.1718874	0.2291832	0	-1.86784308	10.83463578	-30.90535452
7.31	731	0.193	0.012	-0.974	0.1145916	0.2291832	0	-1.8621135	10.83463578	-30.90535452
7.32	732	0.196	0.012	-0.975	0	0.3437748	-0.1145916	-1.8621135	10.84036536	-30.90535452
7.33	733	0.197	0.012	-0.974	-0.0572958	0.5156622	-0.1145916	-1.86784308	10.84609494	-30.90535452
7.34	734	0.201	0.01	-0.972	-0.0572958	0.572958	-0.0572958	-1.86784308	10.85182452	-30.90535452
7.35	735	0.202	0.01	-0.971	-0.0572958	0.5156622	0	-1.86784308	10.88047242	-30.9110841
7.36	736	0.203	0.01	-0.973	0	0.572958	0.1145916	-1.86784308	10.886202	-30.90535452
7.37	737	0.204	0.01	-0.972	-0.0572958	0.5156622	0.1145916	-1.86784308	10.89193158	-30.90535452
7.38	738	0.201	0.009	-0.971	0	0.3437748	0.2291832	-1.86784308	10.89193158	-30.90535452
7.39	739	0.199	0.009	-0.972	0	0.2291832	0.2291832	-1.86784308	10.89766116	-30.89962494
7.4	740	0.196	0.009	-0.972	0	0	0.0572958	-1.85638392	10.89193158	-30.89389536
7.41	741	0.195	0.009	-0.973	0	-0.286479	0	-1.85638392	10.886202	-30.89389536
7.42	742	0.196	0.01	-0.973	0.0572958	-0.5156622	0	-1.85638392	10.88047242	-30.89389536
7.43	743	0.196	0.008	-0.972	0.0572958	-0.572958	0.0572958	-1.85638392	10.87474284	-30.89389536
7.44	744	0.196	0.008	-0.971	0.1145916	-0.572958	0.1718874	-1.85065434	10.86901326	-30.89389536
7.45	745	0.196	0.01	-0.969	0	-0.286479	0.0572958	-1.85065434	10.87474284	-30.89389536
7.46	746	0.197	0.01	-0.972	-0.0572958	-0.2291832	0	-1.85065434	10.87474284	-30.89389536
7.47	747	0.196	0.011	-0.973	0	-0.4010706	-0.0572958	-1.85638392	10.86901326	-30.89389536
7.48	748	0.195	0.012	-0.975	0.286479	-0.7448454	-0.1145916	-1.85065434	10.8575541	-30.89389536
7.49	749	0.196	0.011	-0.975	0.4010706	-0.6875496	-0.1145916	-1.84492476	10.85182452	-30.89962494
7.5	750	0.197	0.014	-0.974	0.572958	-0.6302538	-0.0572958	-1.85065434	10.84609494	-30.89962494
7.51	751	0.195	0.013	-0.974	0.4583664	-0.4010706	-0.0572958	-1.84492476	10.84036536	-30.89962494
7.52	752	0.194	0.013	-0.973	0.3437748	-0.286479	-0.1145916	-1.83919518	10.84036536	-30.89962494
7.53	753	0.192	0.011	-0.971	0.3437748	-0.286479	-0.1718874	-1.83919518	10.83463578	-30.90535452
7.54	754	0.194	0.011	-0.971	0.4010706	0	0	-1.8334656	10.83463578	-30.90535452
7.55	755	0.193	0.012	-0.97	0.4010706	-0.1145916	0	-1.83919518	10.82317662	-30.90535452
7.56	756	0.192	0.013	-0.973	0.4010706	-0.1145916	0	-1.8334656	10.82317662	-30.90535452
7.57	757	0.192	0.012	-0.973	0.572958	-0.2291832	0.0572958	-1.82773602	10.82317662	-30.90535452
7.58	758	0.191	0.012	-0.975	0.6302538	-0.1145916	0.2291832	-1.82200644	10.81744704	-30.90535452
7.59	759	0.189	0.01	-0.976	0.572958	-0.1145916	0.2291832	-1.81627686	10.81744704	-30.89962494
7.6	760	0.189	0.009	-0.976	0.572958	0	0.2291832	-1.8048177	10.8002583	-30.89389536
7.61	761	0.188	0.006	-0.974	0.286479	0	0.2291832	-1.79908812	10.8002583	-30.89389536
7.62	762	0.189	0.007	-0.971	-0.0572958	0.2291832	0.286479	-1.79908812	10.8002583	-30.88816578
7.63	763	0.191	0.008	-0.972	-0.0572958	0.286479	0.286479	-1.79908812	10.80598788	-30.88816578
7.64	764	0.19	0.009	-0.971	-0.1145916	0.4583664	0.1718874	-1.79908812	10.81171746	-30.8824362
7.65	765	0.191	0.01	-0.971	-0.0572958	0.572958	0.1145916	-1.8048177	10.80598788	-30.8824362
7.66	766	0.191	0.009	-0.973	0	0.572958	0.0572958	-1.8048177	10.81171746	-30.8824362
7.67	767	0.192	0.01	-0.974	0	0.572958	0.0572958	-1.8048177	10.81744704	-30.8824362
7.68	768	0.193	0.009	-0.974	-0.0572958	0.572958	0.0572958	-1.8048177	10.82317662	-30.87670662
7.69	769	0.195	0.008	-0.974	-0.0572958	0.4010706	0	-1.8048177	10.8289062	-30.87670662
7.7	770	0.197	0.007	-0.973	0	0.3437748	0	-1.79335854	10.84609494	-30.87670662
7.71	771	0.198	0.008	-0.971	0	0.3437748	0	-1.79908812	10.84609494	-30.87670662
7.72	772	0.201	0.009	-0.971	-0.0572958	0.286479	0	-1.79908812	10.85182452	-30.87670662
7.73	773	0.2	0.01	-0.972	0	0.4010706	-0.0572958	-1.79908812	10.8575541	-30.8824362
7.74	774	0.201	0.013	-0.972	0	0.4010706	-0.0572958	-1.79908812	10.8575541	-30.8824362
7.75	775	0.201	0.013	-0.973	0	0.1145916	-0.0572958	-1.83919518	10.9148499	-30.89389536
7.76	776	0.203	0.013	-0.971	0	0.0572958	-0.1145916	-1.83919518	10.9148499	-30.89389536
7.77	777	0.202	0.01	-0.973	0	0.1145916	-0.1145916	-1.83919518	10.9148499	-30.89389536
7.78	778	0.199	0.008	-0.972	-0.2291832	0	-0.1718874	-1.83919518	10.9148499	-30.89962494
7.79	779	0.198	0.009	-0.973	-0.3437748	-0.1145916	-0.2291832	-1.84492476	10.9148499	-30.89962494
7.8	780	0.198	0.01	-0.972	-0.3437748	0	-0.3437748	-1.85065434	10.92057948	-30.90535452
7.81	781	0.2	0.01	-0.972	-0.4583664	0	-0.4010706	-1.85638392	10.92057948	-30.9110841
7.82	782	0.201	0.01	-0.969	-0.572958	0	-0.3437748	-1.8621135	10.92057948	-30.9110841
7.83	783	0.2	0.01	-0.968	-0.6302538	-0.2291832	-0.2291832	-1.86784308	10.9148499	-30.91681368
7.84	784	0.199	0.01	-0.971	-0.286479	-0.1145916	-0.1145916	-1.87357266	10.9148499	-30.91681368
7.85	785	0.197	0.012	-0.974	0	-0.1718874	0	-1.88503182	10.90912032	-30.91681368
7.86	786	0.196	0.011	-0.973	-0.1145916	-0.4010706	0	-1.88503182	10.90912032	-30.91681368
7.87	787	0.195	0.009	-0.974	-0.1718874	-0.5156622	0	-1.8907614	10.90339074	-30.91681368
7.88	788	0.191	0.009	-0.974	-0.0572958	-0.859437	-0.0572958	-1.8907614	10.89193158	-30.91681368
7.89	789	0.191	0.007	-0.974	0	-0.9167328	-0.0572958	-1.8907614	10.886202	-30.92254326
7.9	790	0.19	0.007	-0.972	0.0572958	-0.7448454	-0.1145916	-1.87930224	10.8575541	-30.91681368
7.91	791	0.19	0.009	-0.972	0	-0.572958	-0.2291832	-1.87930224	10.85182452	-30.92254326
7.92	792	0.191	0.01	-0.971	-0.0572958	-0.5156622	-0.286479	-1.87930224	10.84609494	-30.92254326
7.93	793	0.19	0.011	-0.972	-0.1145916	-0.4583664	-0.286479	-1.87930224	10.84036536	-30.92827284
7.94	794	0.192	0.014	-0.973	0	-0.3437748	-0.1718874	-1.88503182	10.83463578	-30.92827284
7.95	795	0.191	0.013	-0.974	0.1145916	-0.286479	-0.0572958	-1.8907614	10.81171746	-30.92827284
7.96	796	0.191	0.013	-0.975	0.2291832	-0.3437748	-0.0572958	-1.8907614	10.81171746	-30.92827284
7.97	797	0.191	0.012	-0.975	0.0572958	-0.1718874	-0.1145916	-1.8907614	10.80598788	-30.93400242
7.98	798	0.189	0.011	-0.974	0	-0.1145916	-0.1145916	-1.8907614	10.80598788	-30.93400242
7.99	799	0.189	0.011	-0.972	-0.1718874	-0.0572958	-0.1145916	-1.8907614	10.80598788	-30.93400242
8	800	0.19	0.011	-0.973	-0.286479	0.1145916	-0.0572958	-1.89649098	10.78879914	-30.93400242
8.01	801	0.192	0.013	-0.975	-0.0572958	0.286479	0	-1.89649098	10.78879914	-30.93400242
8.02	802	0.194	0.013	-0.976	0.1718874	0.2291832	0.1145916	-1.89649098	10.79452872	-30.93400242
8.03	803	0.193	0.012	-0.973	0.0572958	0.286479	0.1718874	-1.8907614	10.79452872	-30.93400242
8.04	804	0.195	0.009	-0.971	0.0572958	0.3437748	0.286479	-1.8907614	10.8002583	-30.92827284
8.05	805	0.194	0.009	-0.972	0	0.4583664	0.3437748	-1.88503182	10.8002583	-30.92254326
8.06	806	0.193	0.007	-0.972	0	0.5156622	0.1718874	-1.88503182	10.80598788	-30.92254326
8.07	807	0.193	0.007	-0.973	-0.1145916	0.4010706	0.0572958	-1.88503182	10.80598788	-30.91681368
8.08	808	0.195	0.006	-0.974	-0.0572958	0.2291832	0.1145916	-1.88503182	10.81171746	-30.91681368
8.09	809	0.194	0.006	-0.973	-0.0572958	0.1718874	0.1718874	-1.88503182	10.81171746	-30.91681368
8.1	810	0.195	0.008	-0.972	0	0.1718874	0.2291832	-1.87930224	10.81171746	-30.9110841
8.11	811	0.196	0.009	-0.972	-0.1145916	0.1145916	0.286479	-1.87930224	10.81171746	-30.9110841
8.12	812	0.197	0.011	-0.973	-0.1718874	0.1718874	0.1718874	-1.88503182	10.81744704	-30.90535452
8.13	813	0.196	0.011	-0.973	-0.1145916	0.1145916	0.1718874	-1.88503182	10.81744704	-30.90535452
8.14	814	0.197	0.01	-0.974	0	0.0572958	0.1145916	-1.88503182	10.81744704	-30.90535452
8.15	815	0.196	0.011	-0.972	0.0572958	0.0572958	0.1145916	-1.89649098	10.82317662	-30.90535452
8.16	816	0.195	0.013	-0.973	0.1145916	0.0572958	0.0572958	-1.89649098	10.82317662	-30.90535452
8.17	817	0.196	0.012	-0.973	0.2291832	0.1145916	0.0572958	-1.8907614	10.8289062	-30.90535452
8.18	818	0.196	0.011	-0.971	0.1718874	0.1718874	0.0572958	-1.8907614	10.8289062	-30.90535452
8.19	819	0.197	0.012	-0.972	0.0572958	0.2291832	0.1718874	-1.8907614	10.83463578	-30.89962494
8.2	820	0.195	0.012	-0.971	0.1145916	0.3437748	0.0572958	-1.8907614	10.8289062	-30.89962494
8.21	821	0.194	0.012	-0.971	0.1145916	0.3437748	0	-1.8907614	10.83463578	-30.89962494
8.22	822	0.194	0.012	-0.972	0.1145916	0.1145916	0	-1.8907614	10.83463578	-30.89962494
8.23	823	0.195	0.012	-0.972	0.1145916	0.0572958	0	-1.8907614	10.83463578	-30.89962494
8.24	824	0.195	0.011	-0.973	0.1718874	0	0	-1.88503182	10.83463578	-30.89962494
8.25	825	0.195	0.01	-0.973	0.2291832	-0.1718874	0	-1.87930224	10.8289062	-30.89962494
8.26	826	0.196	0.01	-0.973	0.1145916	-0.2291832	0	-1.87930224	10.8289062	-30.89962494
8.27	827	0.194	0.01	-0.973	0.0572958	-0.1145916	0	-1.87930224	10.8289062	-30.89962494
