TimeStamp(s)	FrameCounter	AccX	AccY	AccZ	GyrX	GyrY	GyrZ	EulerX	EulerY	EulerZ
0.01	1	0.061	-0.991	-0.156	-0.0572958	-0.3437748	-0.1145916	88.13239956	1.55271618	-11.1153852
0.02	2	0.061	-0.989	-0.156	-0.1718874	-0.1718874	-0.1145916	88.13239956	1.55271618	-11.1153852
0.03	3	0.06	-0.991	-0.154	-0.0572958	-0.286479	0	88.12666998	1.55271618	-11.12111478
0.04	4	0.061	-0.991	-0.155	-0.286479	-0.2291832	0	88.12666998	1.55271618	-11.12111478
0.05	5	0.059	-0.991	-0.155	-0.286479	-0.0572958	0	85.82337882	1.82200644	-10.61118216
0.06	6	0.058	-0.992	-0.155	-0.286479	0.0572958	0	85.82337882	1.82200644	-10.61118216
0.07	7	0.056	-0.991	-0.155	-0.286479	0.4583664	0	85.81764924	1.82200644	-10.60545258
0.08	8	0.057	-0.993	-0.156	-0.3437748	0.6875496	0	85.81191966	1.82200644	-10.599723
0.09	9	0.058	-0.993	-0.157	-0.3437748	0.9740286	0	85.81191966	1.82773602	-10.58826384
0.1	10	0.06	-0.993	-0.157	-0.1718874	1.0313244	0	85.26187998	1.93086846	-10.46221308
0.11	11	0.061	-0.997	-0.158	-0.1718874	0.9740286	0	85.26187998	1.93086846	-10.45075392
0.12	12	0.062	-0.996	-0.155	-0.2291832	0.8021412	0	85.2561504	1.93086846	-10.44502434
0.13	13	0.064	-0.995	-0.155	-0.0572958	0.572958	0.1718874	85.2561504	1.93086846	-10.43929476
0.14	14	0.066	-0.994	-0.154	0	0.4583664	0	85.2561504	1.93086846	-10.43356518
0.15	15	0.064	-0.994	-0.154	0	0.1718874	-0.1145916	83.89251036	2.26891368	-10.15854534
0.16	16	0.063	-0.991	-0.152	0	0	-0.2291832	83.89251036	2.26891368	-10.15854534
0.17	17	0.063	-0.991	-0.151	0.1718874	-0.0572958	-0.3437748	83.89823994	2.27464326	-10.16427492
0.18	18	0.062	-0.99	-0.15	0.2291832	-0.0572958	-0.5156622	83.89823994	2.28037284	-10.16427492
0.19	19	0.061	-0.99	-0.148	0.286479	-0.1145916	-0.6875496	83.90396952	2.28610242	-10.16427492
0.2	20	0.061	-0.991	-0.148	0.3437748	0	-0.572958	83.5659243	2.38923486	-10.10124954
0.21	21	0.06	-0.993	-0.148	0.2291832	-0.0572958	-0.572958	83.5659243	2.39496444	-10.10124954
0.22	22	0.062	-0.994	-0.149	0.2291832	0	-0.4583664	83.57165388	2.40069402	-10.10124954
0.23	23	0.063	-0.996	-0.151	0.2291832	0.0572958	-0.4010706	83.57165388	2.40069402	-10.10124954
0.24	24	0.065	-0.995	-0.154	0.1718874	-0.0572958	-0.2291832	83.57165388	2.4064236	-10.10124954
0.25	25	0.063	-0.995	-0.152	0.1718874	-0.4010706	-0.1718874	83.18777202	2.51528562	-10.03822416
0.26	26	0.063	-0.992	-0.152	0.1718874	-0.3437748	-0.1718874	83.18777202	2.51528562	-10.03822416
0.27	27	0.062	-0.993	-0.151	0.1145916	-0.5156622	-0.2291832	83.18777202	2.5210152	-10.04395374
0.28	28	0.061	-0.992	-0.152	0.1718874	-0.6875496	-0.2291832	83.1935016	2.5210152	-10.0554129
0.29	29	0.061	-0.993	-0.153	0.0572958	-0.572958	-0.4010706	83.1935016	2.5210152	-10.06114248
0.3	30	0.062	-0.995	-0.153	0.1145916	-0.4010706	-0.4583664	82.92421134	2.6069589	-10.01530584
0.31	31	0.061	-0.994	-0.152	0.0572958	-0.4583664	-0.4010706	82.92421134	2.61268848	-10.02103542
0.32	32	0.061	-0.993	-0.152	0.1145916	-0.7448454	-0.4583664	82.92421134	2.61268848	-10.026765
0.33	33	0.063	-0.992	-0.149	0.0572958	-0.859437	-0.572958	82.92421134	2.61841806	-10.03822416
0.34	34	0.064	-0.991	-0.151	0	-0.8021412	-0.5156622	82.92421134	2.62414764	-10.04968332
0.35	35	0.064	-0.991	-0.153	0	-1.0313244	-0.4583664	82.76951268	2.68144344	-10.03249458
0.36	36	0.062	-0.99	-0.151	0	-1.2605076	-0.572958	82.76951268	2.68144344	-10.04395374
0.37	37	0.061	-0.992	-0.151	0	-1.0313244	-0.7448454	82.76951268	2.6929026	-10.0554129
0.38	38	0.062	-0.994	-0.153	0	-0.859437	-0.8021412	82.7637831	2.69863218	-10.06687206
0.39	39	0.064	-0.994	-0.152	-0.0572958	-0.9740286	-0.7448454	82.7637831	2.70436176	-10.07833122
0.4	40	0.067	-0.992	-0.152	-0.1145916	-1.0886202	-0.572958	82.6491915	2.76165756	-10.07260164
0.41	41	0.067	-0.991	-0.151	0.2291832	-1.4896908	-0.5156622	82.6491915	2.76738714	-10.0840608
0.42	42	0.066	-0.993	-0.149	0.3437748	-1.6615782	-0.6302538	82.65492108	2.76738714	-10.10124954
0.43	43	0.067	-0.995	-0.152	0.286479	-1.6615782	-0.6875496	82.65492108	2.77311672	-10.11843828
0.44	44	0.067	-0.995	-0.149	0.2291832	-1.6615782	-0.6875496	82.65492108	2.7788463	-10.13562702
0.45	45	0.064	-0.995	-0.149	0.3437748	-1.8907614	-0.6302538	82.5918957	2.8074942	-10.14708618
0.46	46	0.06	-0.993	-0.146	0.4583664	-1.8907614	-0.572958	82.59762528	2.81322378	-10.16427492
0.47	47	0.057	-0.992	-0.145	0.572958	-1.6615782	-0.4583664	82.60335486	2.81322378	-10.18146366
0.48	48	0.055	-0.991	-0.145	0.7448454	-1.3178034	-0.572958	82.60908444	2.81895336	-10.1986524
0.49	49	0.055	-0.992	-0.146	0.859437	-1.0886202	-0.572958	82.6205436	2.82468294	-10.21011156
0.5	50	0.058	-0.992	-0.147	0.6875496	-0.9167328	-0.6302538	82.54032948	2.84760126	-10.20438198
0.51	51	0.06	-0.991	-0.148	0.859437	-0.8021412	-0.5156622	82.55178864	2.85333084	-10.21584114
0.52	52	0.064	-0.991	-0.15	0.859437	-0.9740286	-0.5156622	82.55751822	2.85906042	-10.2273003
0.53	53	0.063	-0.991	-0.15	0.9167328	-1.145916	-0.572958	82.56897738	2.86479	-10.23875946
0.54	54	0.062	-0.991	-0.148	0.859437	-1.145916	-0.572958	82.57470696	2.86479	-10.25021862
0.55	55	0.062	-0.992	-0.149	0.8021412	-1.145916	-0.572958	82.51168158	2.8934379	-10.25021862
0.56	56	0.061	-0.991	-0.149	0.8021412	-0.9740286	-0.572958	82.51741116	2.89916748	-10.26167778
0.57	57	0.062	-0.993	-0.147	0.7448454	-0.8021412	-0.572958	82.52314074	2.90489706	-10.26740736
0.58	58	0.062	-0.993	-0.147	0.6875496	-0.6302538	-0.4583664	82.52887032	2.91062664	-10.27886652
0.59	59	0.062	-0.993	-0.149	0.7448454	-0.6302538	-0.3437748	82.54032948	2.91062664	-10.2845961
0.6	60	0.06	-0.994	-0.148	0.6875496	-0.6875496	-0.3437748	82.44292662	2.93927454	-10.27313694
0.61	61	0.059	-0.994	-0.146	0.6875496	-0.6302538	-0.286479	82.45438578	2.94500412	-10.27886652
0.62	62	0.059	-0.992	-0.146	0.6302538	-0.4583664	-0.3437748	82.46011536	2.94500412	-10.2845961
0.63	63	0.061	-0.993	-0.146	0.5156622	-0.286479	-0.4583664	82.46584494	2.9507337	-10.29032568
0.64	64	0.061	-0.994	-0.147	0.6302538	-0.3437748	-0.4583664	82.47157452	2.95646328	-10.29605526
0.65	65	0.062	-0.995	-0.146	0.6875496	-0.4583664	-0.4583664	82.38563082	2.99084076	-10.2845961
0.66	66	0.063	-0.993	-0.142	0.7448454	-0.4583664	-0.4583664	82.3913604	2.99084076	-10.29032568
0.67	67	0.064	-0.994	-0.141	0.859437	-0.5156622	-0.5156622	82.40281956	2.99657034	-10.29605526
0.68	68	0.064	-0.995	-0.141	0.8021412	-0.572958	-0.572958	82.40854914	3.00229992	-10.30178484
0.69	69	0.065	-0.995	-0.141	0.7448454	-0.572958	-0.572958	82.4200083	3.0080295	-10.313244
0.7	70	0.066	-0.994	-0.143	0.7448454	-0.5156622	-0.6302538	82.35125334	3.04813656	-10.30751442
0.71	71	0.066	-0.994	-0.14	0.8021412	-0.4583664	-0.572958	82.3627125	3.05386614	-10.313244
0.72	72	0.066	-0.993	-0.141	0.7448454	-0.6302538	-0.5156622	82.36844208	3.05959572	-10.31897358
0.73	73	0.066	-0.993	-0.142	0.7448454	-0.7448454	-0.5156622	82.37417166	3.0653253	-10.33043274
0.74	74	0.066	-0.992	-0.143	0.8021412	-0.859437	-0.4583664	82.38563082	3.0653253	-10.33616232
0.75	75	0.066	-0.995	-0.142	0.8021412	-1.0313244	-0.2291832	82.32260544	3.09970278	-10.33616232
0.76	76	0.067	-0.992	-0.143	0.7448454	-1.2032118	-0.286479	82.32833502	3.10543236	-10.35335106
0.77	77	0.067	-0.996	-0.144	0.859437	-1.3750992	-0.4583664	82.33979418	3.10543236	-10.36481022
0.78	78	0.068	-0.995	-0.142	0.8021412	-1.4896908	-0.572958	82.34552376	3.11116194	-10.38199896
0.79	79	0.069	-0.993	-0.141	0.859437	-1.4896908	-0.8021412	82.35125334	3.11689152	-10.3991877
0.8	80	0.068	-0.994	-0.14	0.859437	-1.8334656	-0.859437	82.32260544	3.14553942	-10.41064686
0.81	81	0.067	-0.996	-0.138	0.7448454	-1.8907614	-0.7448454	82.32833502	3.151269	-10.43356518
0.82	82	0.066	-0.996	-0.137	0.7448454	-2.0626488	-0.6875496	82.3340646	3.15699858	-10.45075392
0.83	83	0.063	-0.997	-0.136	0.6875496	-1.8334656	-0.859437	82.33979418	3.16272816	-10.47367224
0.84	84	0.061	-0.998	-0.137	0.572958	-1.6615782	-0.8021412	82.34552376	3.16845774	-10.49086098
0.85	85	0.061	-0.999	-0.137	0.572958	-1.718874	-0.8021412	82.31114628	3.18564648	-10.50232014
0.86	86	0.062	-0.999	-0.136	0.572958	-1.8334656	-0.6875496	82.31687586	3.19137606	-10.51950888
0.87	87	0.063	-0.998	-0.136	0.4583664	-1.8334656	-0.6875496	82.32260544	3.19710564	-10.5424272
0.88	88	0.064	-0.997	-0.134	0.4583664	-1.8334656	-0.6302538	82.32833502	3.20283522	-10.55961594
0.89	89	0.064	-0.995	-0.135	0.3437748	-1.8907614	-0.6302538	82.32833502	3.2085648	-10.58253426
0.9	90	0.063	-0.995	-0.132	0.286479	-1.9480572	-0.6302538	82.29395754	3.22575354	-10.599723
0.91	91	0.062	-0.996	-0.134	0.1718874	-1.7761698	-0.572958	82.29968712	3.23148312	-10.61691174
0.92	92	0.062	-0.996	-0.134	0.1145916	-1.8907614	-0.572958	82.29968712	3.2372127	-10.63410048
0.93	93	0.061	-0.997	-0.131	0.0572958	-1.7761698	-0.5156622	82.29968712	3.2372127	-10.65128922
0.94	94	0.061	-0.997	-0.133	-0.1145916	-1.6615782	-0.4010706	82.29395754	3.24294228	-10.66847796
0.95	95	0.063	-0.997	-0.134	-0.2291832	-1.5469866	-0.4010706	82.24239132	3.2658606	-10.67993712
0.96	96	0.064	-0.997	-0.137	-0.3437748	-1.432395	-0.4583664	82.23666174	3.27159018	-10.69712586
0.97	97	0.066	-0.996	-0.136	-0.4583664	-1.3178034	-0.4583664	82.23093216	3.27159018	-10.70858502
0.98	98	0.067	-0.996	-0.134	-0.4010706	-1.432395	-0.286479	82.22520258	3.27159018	-10.72577376
0.99	99	0.068	-0.996	-0.133	-0.4010706	-1.6615782	-0.1718874	82.219473	3.27159018	-10.7429625
1	100	0.069	-0.995	-0.134	-0.572958	-1.8334656	-0.1145916	82.17363636	3.30023808	-10.75442166
1.01	101	0.068	-0.995	-0.133	-0.6302538	-2.2345362	0	82.16790678	3.2945085	-10.77733998
1.02	102	0.065	-0.996	-0.133	-0.6875496	-2.3491278	0.2291832	82.1621772	3.28877892	-10.8002583
1.03	103	0.063	-0.995	-0.134	-0.7448454	-2.4637194	0.286479	82.15071804	3.28304934	-10.82317662
1.04	104	0.06	-0.995	-0.134	-0.8021412	-2.3491278	0.0572958	82.13925888	3.27731976	-10.85182452
1.05	105	0.058	-0.999	-0.134	-0.859437	-1.8334656	0	82.09915182	3.28304934	-10.86328368
1.06	106	0.059	-0.995	-0.136	-1.0313244	-1.718874	-0.0572958	82.08769266	3.28304934	-10.88047242
1.07	107	0.06	-0.997	-0.136	-0.9740286	-1.6042824	-0.1718874	82.0762335	3.28304934	-10.89766116
1.08	108	0.062	-1.002	-0.133	-1.2032118	-1.145916	-0.286479	82.05904476	3.28304934	-10.90912032
1.09	109	0.066	-1.003	-0.136	-1.3750992	-0.7448454	-0.1718874	82.0475856	3.28877892	-10.9148499
1.1	110	0.069	-1.001	-0.14	-1.5469866	-0.7448454	-0.1718874	81.98456022	3.31169724	-10.92057948
1.11	111	0.069	-1.003	-0.137	-1.6615782	-1.2605076	-0.1145916	81.96737148	3.31169724	-10.93203864
1.12	112	0.069	-1	-0.137	-1.8334656	-1.6615782	0	81.95018274	3.31169724	-10.94922738
1.13	113	0.07	-0.998	-0.136	-1.7761698	-1.8334656	-0.1145916	81.92726442	3.31169724	-10.96641612
1.14	114	0.069	-0.998	-0.137	-2.005353	-1.8907614	-0.286479	81.91007568	3.31169724	-10.98933444
1.15	115	0.069	-0.999	-0.138	-2.0626488	-2.005353	-0.2291832	81.86996862	3.3231564	-11.00652318
1.16	116	0.066	-0.996	-0.138	-2.005353	-2.4064236	-0.1718874	81.8470503	3.3231564	-11.0294415
1.17	117	0.061	-0.994	-0.138	-1.8334656	-2.5210152	-0.2291832	81.82413198	3.3231564	-11.0580894
1.18	118	0.057	-0.994	-0.138	-1.8334656	-2.2345362	-0.286479	81.80694324	3.3231564	-11.08100772
1.19	119	0.056	-0.993	-0.139	-1.8334656	-1.8907614	-0.4010706	81.78402492	3.3231564	-11.09819646
1.2	120	0.055	-0.994	-0.138	-1.718874	-1.8334656	-0.4583664	81.74391786	3.32888598	-11.1153852
1.21	121	0.056	-0.992	-0.14	-1.5469866	-1.8334656	-0.6875496	81.72672912	3.33461556	-11.13830352
1.22	122	0.057	-0.994	-0.142	-1.4896908	-1.718874	-0.6875496	81.70954038	3.34034514	-11.15549226
1.23	123	0.058	-0.996	-0.141	-1.3750992	-1.718874	-0.572958	81.69808122	3.34034514	-11.172681
1.24	124	0.058	-0.998	-0.144	-1.3750992	-1.6042824	-0.5156622	81.68089248	3.34607472	-11.18986974
1.25	125	0.057	-0.997	-0.143	-1.2605076	-1.5469866	-0.4010706	81.63505584	3.3518043	-11.2013289
1.26	126	0.054	-0.997	-0.14	-1.145916	-1.3178034	-0.286479	81.62359668	3.3518043	-11.21851764
1.27	127	0.052	-0.996	-0.141	-1.0313244	-1.0886202	-0.2291832	81.61213752	3.3518043	-11.2299768
1.28	128	0.05	-0.997	-0.139	-1.145916	-0.8021412	-0.2291832	81.60067836	3.35753388	-11.23570638
1.29	129	0.05	-0.995	-0.14	-1.2605076	-0.572958	-0.1718874	81.5892192	3.35753388	-11.24143596
1.3	130	0.051	-0.995	-0.139	-1.2605076	-0.4010706	-0.1145916	81.53765298	3.3518043	-11.24143596
1.31	131	0.052	-0.995	-0.139	-1.3750992	-0.1718874	-0.1145916	81.52046424	3.3518043	-11.24716554
1.32	132	0.053	-0.996	-0.141	-1.5469866	0.1145916	-0.1145916	81.5032755	3.3518043	-11.24143596
1.33	133	0.055	-0.996	-0.146	-1.6615782	0.4583664	-0.1145916	81.48608676	3.3518043	-11.24143596
1.34	134	0.057	-0.994	-0.145	-1.8334656	0.6302538	0	81.46889802	3.3518043	-11.23570638
1.35	135	0.057	-0.993	-0.145	-1.7761698	0.4010706	0.0572958	81.4173318	3.35753388	-11.22424722
1.36	136	0.058	-0.991	-0.145	-1.7761698	0.286479	0.1718874	81.40014306	3.35753388	-11.22424722
1.37	137	0.059	-0.991	-0.143	-1.8334656	0.2291832	0.1145916	81.37722474	3.35753388	-11.21851764
1.38	138	0.06	-0.99	-0.144	-2.005353	0.286479	0	81.360036	3.35753388	-11.21851764
1.39	139	0.06	-0.991	-0.146	-2.0626488	0.286479	0	81.33711768	3.35753388	-11.21278806
1.4	140	0.062	-0.992	-0.148	-2.005353	0.1718874	-0.1145916	81.2740923	3.36899304	-11.20705848
1.41	141	0.06	-0.994	-0.148	-2.1199446	0	-0.1718874	81.25690356	3.37472262	-11.20705848
1.42	142	0.059	-0.992	-0.149	-2.1199446	0	-0.2291832	81.23398524	3.37472262	-11.20705848
1.43	143	0.059	-0.992	-0.148	-2.0626488	0	-0.1718874	81.21106692	3.37472262	-11.21278806
1.44	144	0.061	-0.99	-0.148	-2.005353	-0.1718874	-0.286479	81.19387818	3.3804522	-11.21278806
1.45	145	0.062	-0.99	-0.147	-2.005353	-0.2291832	-0.3437748	81.14231196	3.39191136	-11.21278806
1.46	146	0.062	-0.989	-0.147	-1.9480572	-0.3437748	-0.4010706	81.11939364	3.39764094	-11.21851764
1.47	147	0.063	-0.991	-0.148	-1.8907614	-0.5156622	-0.4583664	81.1022049	3.40337052	-11.22424722
1.48	148	0.062	-0.992	-0.15	-1.8907614	-0.572958	-0.4583664	81.07928658	3.40337052	-11.2299768
1.49	149	0.06	-0.992	-0.149	-1.718874	-0.6302538	-0.4010706	81.06209784	3.4091001	-11.23570638
1.5	150	0.058	-0.991	-0.147	-1.5469866	-0.7448454	-0.4583664	81.02199078	3.41482968	-11.24143596
1.51	151	0.058	-0.992	-0.146	-1.3750992	-0.6302538	-0.3437748	81.01053162	3.42055926	-11.25289512
1.52	152	0.059	-0.992	-0.147	-1.2605076	-0.6875496	-0.286479	80.99334288	3.42055926	-11.2586247
1.53	153	0.058	-0.994	-0.147	-1.2032118	-0.6875496	-0.286479	80.98188372	3.42055926	-11.27008386
1.54	154	0.058	-0.993	-0.147	-1.3178034	-0.6302538	-0.286479	80.97042456	3.42628884	-11.27581344
1.55	155	0.06	-0.994	-0.149	-1.3178034	-0.5156622	-0.4583664	80.91885834	3.437748	-11.27581344
1.56	156	0.061	-0.992	-0.148	-1.2605076	-0.4010706	-0.4583664	80.90739918	3.437748	-11.28154302
1.57	157	0.061	-0.992	-0.148	-1.2032118	-0.286479	-0.5156622	80.89594002	3.44347758	-11.2872726
1.58	158	0.062	-0.993	-0.147	-1.2032118	-0.4010706	-0.572958	80.88448086	3.44920716	-11.29300218
1.59	159	0.064	-0.993	-0.15	-1.2605076	-0.4010706	-0.5156622	80.86729212	3.45493674	-11.29873176
1.6	160	0.065	-0.993	-0.149	-1.145916	-0.572958	-0.3437748	80.82718506	3.47785506	-11.29873176
1.61	161	0.066	-0.992	-0.149	-1.2605076	-0.7448454	-0.3437748	80.8157259	3.48358464	-11.31019092
1.62	162	0.064	-0.991	-0.148	-1.3178034	-0.8021412	-0.3437748	80.79853716	3.48358464	-11.3159205
1.63	163	0.064	-0.991	-0.149	-1.3178034	-0.8021412	-0.4010706	80.787078	3.48931422	-11.32737966
1.64	164	0.063	-0.99	-0.151	-1.2605076	-0.859437	-0.4583664	80.76988926	3.48931422	-11.33883882
1.65	165	0.062	-0.992	-0.149	-1.2605076	-1.0313244	-0.4583664	80.74124136	3.50077338	-11.35029798
1.66	166	0.062	-0.991	-0.147	-1.2605076	-1.145916	-0.4583664	80.7297822	3.50650296	-11.36175714
1.67	167	0.062	-0.991	-0.147	-1.2605076	-1.0313244	-0.4010706	80.71832304	3.50650296	-11.3732163
1.68	168	0.062	-0.994	-0.148	-1.2032118	-0.9740286	-0.2291832	80.7011343	3.50650296	-11.37894588
1.69	169	0.061	-0.994	-0.148	-1.3750992	-1.2032118	-0.1718874	80.68967514	3.51223254	-11.39613462
1.7	170	0.059	-0.994	-0.148	-1.3178034	-1.3178034	-0.2291832	80.66102724	3.51223254	-11.40759378
1.71	171	0.061	-0.997	-0.149	-1.3750992	-1.2605076	-0.286479	80.6438385	3.51223254	-11.41905294
1.72	172	0.063	-0.993	-0.15	-1.3750992	-1.4896908	-0.1718874	80.63237934	3.51223254	-11.43624168
1.73	173	0.064	-0.993	-0.15	-1.3750992	-2.0626488	-0.0572958	80.6151906	3.51223254	-11.45343042
1.74	174	0.065	-0.993	-0.148	-1.432395	-2.3491278	-0.0572958	80.59800186	3.51223254	-11.47634874
1.75	175	0.062	-0.995	-0.147	-1.6042824	-2.3491278	-0.2291832	80.57508354	3.51223254	-11.50499664
1.76	176	0.06	-0.996	-0.15	-1.718874	-1.8907614	-0.3437748	80.55216522	3.51223254	-11.52218538
1.77	177	0.059	-0.995	-0.151	-1.8334656	-1.432395	-0.4010706	80.53497648	3.51223254	-11.53937412
1.78	178	0.056	-0.995	-0.151	-1.7761698	-1.432395	-0.4010706	80.51778774	3.51796212	-11.55083328
1.79	179	0.056	-0.995	-0.153	-1.718874	-1.4896908	-0.3437748	80.49486942	3.51796212	-11.56802202
1.8	180	0.055	-0.995	-0.154	-1.5469866	-1.2605076	-0.4583664	80.46622152	3.51796212	-11.57948118
1.81	181	0.058	-0.995	-0.153	-1.5469866	-0.8021412	-0.4010706	80.44903278	3.51796212	-11.59094034
1.82	182	0.06	-0.994	-0.153	-1.6042824	-0.6875496	-0.4583664	80.43184404	3.5236917	-11.59666992
1.83	183	0.06	-0.992	-0.151	-1.5469866	-0.9167328	-0.5156622	80.4146553	3.52942128	-11.60812908
1.84	184	0.06	-0.992	-0.147	-1.432395	-0.8021412	-0.5156622	80.39746656	3.52942128	-11.61958824
1.85	185	0.058	-0.991	-0.147	-1.3750992	-0.6875496	-0.572958	80.37454824	3.53515086	-11.62531782
1.86	186	0.057	-0.993	-0.148	-1.3750992	-0.4583664	-0.572958	80.36308908	3.54088044	-11.6310474
1.87	187	0.057	-0.993	-0.149	-1.3178034	-0.4583664	-0.5156622	80.34590034	3.54661002	-11.63677698
1.88	188	0.058	-0.994	-0.15	-1.2605076	-0.286479	-0.4583664	80.33444118	3.5523396	-11.64250656
1.89	189	0.06	-0.994	-0.152	-1.0313244	-0.6875496	-0.3437748	80.32298202	3.5523396	-11.64823614
1.9	190	0.059	-0.991	-0.15	-0.9740286	-0.9167328	-0.4010706	80.30579328	3.55806918	-11.6596953
1.91	191	0.06	-0.993	-0.149	-0.859437	-0.8021412	-0.4010706	80.29433412	3.55806918	-11.66542488
1.92	192	0.061	-0.992	-0.148	-0.9167328	-0.572958	-0.572958	80.28287496	3.56379876	-11.67115446
1.93	193	0.061	-0.993	-0.149	-0.9740286	-0.4583664	-0.572958	80.2714158	3.56952834	-11.67688404
1.94	194	0.062	-0.994	-0.153	-0.9740286	-0.4583664	-0.6302538	80.26568622	3.57525792	-11.68261362
1.95	195	0.061	-0.993	-0.154	-1.0313244	-0.6302538	-0.5156622	80.23703832	3.58671708	-11.69407278
1.96	196	0.059	-0.992	-0.155	-0.9167328	-0.6302538	-0.4010706	80.22557916	3.59244666	-11.69980236
1.97	197	0.059	-0.992	-0.154	-0.9167328	-0.572958	-0.4010706	80.21984958	3.59244666	-11.70553194
1.98	198	0.059	-0.992	-0.154	-1.0886202	-0.5156622	-0.5156622	80.20839042	3.59817624	-11.71126152
1.99	199	0.058	-0.992	-0.155	-1.145916	-0.4583664	-0.4583664	80.19693126	3.60390582	-11.7169911
2	200	0.058	-0.992	-0.158	-1.2032118	-0.4583664	-0.4583664	80.1568242	3.60390582	-11.72272068
2.01	201	0.058	-0.99	-0.158	-1.2605076	-0.3437748	-0.4010706	80.14536504	3.60390582	-11.72845026
2.02	202	0.056	-0.989	-0.156	-1.2032118	-0.3437748	-0.4010706	80.1281763	3.6096354	-11.72845026
2.03	203	0.056	-0.988	-0.155	-1.2032118	-0.4010706	-0.4583664	80.11671714	3.61536498	-11.73417984
2.04	204	0.055	-0.988	-0.156	-1.2032118	-0.1718874	-0.5156622	80.10525798	3.62109456	-11.73990942
2.05	205	0.056	-0.988	-0.156	-1.2032118	0.1145916	-0.6302538	80.07661008	3.62109456	-11.73417984
2.06	206	0.057	-0.99	-0.159	-1.145916	0.4010706	-0.572958	80.06515092	3.62682414	-11.73417984
2.07	207	0.058	-0.991	-0.162	-1.0886202	0.4010706	-0.4583664	80.05369176	3.63255372	-11.72845026
2.08	208	0.06	-0.991	-0.162	-0.9167328	0.4010706	-0.4583664	80.0422326	3.6382833	-11.72845026
2.09	209	0.058	-0.99	-0.159	-0.7448454	0.572958	-0.4583664	80.03650302	3.64401288	-11.72272068
2.1	210	0.059	-0.989	-0.157	-0.6302538	0.7448454	-0.4583664	80.01931428	3.64974246	-11.71126152
2.11	211	0.059	-0.987	-0.155	-0.572958	0.9167328	-0.4583664	80.0135847	3.65547204	-11.70553194
2.12	212	0.06	-0.988	-0.155	-0.5156622	0.9167328	-0.4583664	80.00785512	3.66120162	-11.69980236
2.13	213	0.062	-0.986	-0.155	-0.4583664	0.7448454	-0.4010706	80.00212554	3.6669312	-11.6883432
2.14	214	0.064	-0.987	-0.156	-0.3437748	0.859437	-0.286479	79.99639596	3.6669312	-11.68261362
2.15	215	0.065	-0.988	-0.158	-0.3437748	0.9167328	-0.2291832	79.96774806	3.68984952	-11.67115446
2.16	216	0.066	-0.988	-0.157	-0.3437748	0.8021412	-0.286479	79.96774806	3.6955791	-11.66542488
2.17	217	0.066	-0.988	-0.156	-0.286479	0.6302538	-0.2291832	79.96201848	3.6955791	-11.6596953
2.18	218	0.065	-0.99	-0.158	-0.1145916	0.1718874	-0.1145916	79.96201848	3.6955791	-11.6596953
2.19	219	0.065	-0.99	-0.158	-0.1145916	-0.2291832	-0.0572958	79.96201848	3.70130868	-11.6596953
2.2	220	0.063	-0.989	-0.157	0.0572958	-0.6302538	0	79.927641	3.71276784	-11.66542488
2.21	221	0.064	-0.991	-0.159	0.1718874	-1.0313244	0	79.927641	3.71276784	-11.67688404
2.22	222	0.062	-0.99	-0.159	0.286479	-1.4896908	-0.0572958	79.93337058	3.70703826	-11.6883432
2.23	223	0.059	-0.991	-0.161	0.5156622	-1.8907614	-0.2291832	79.93337058	3.70703826	-11.71126152
2.24	224	0.056	-0.989	-0.16	0.572958	-2.1199446	-0.4583664	79.93910016	3.71276784	-11.72845026
2.25	225	0.055	-0.989	-0.162	0.8021412	-2.291832	-0.572958	79.93337058	3.70703826	-11.75136858
2.26	226	0.053	-0.99	-0.16	0.8021412	-2.2345362	-0.8021412	79.93910016	3.71276784	-11.7742869
2.27	227	0.055	-0.991	-0.164	0.859437	-2.1772404	-0.8021412	79.95055932	3.71849742	-11.79720522
2.28	228	0.059	-0.995	-0.168	0.859437	-2.3491278	-0.6875496	79.9562889	3.71849742	-11.82585312
2.29	229	0.06	-0.994	-0.169	0.859437	-2.9220858	-0.286479	79.96201848	3.71849742	-11.85450102
2.3	230	0.057	-0.99	-0.166	0.859437	-3.5523396	0	79.9562889	3.71276784	-11.8888785
2.31	231	0.056	-0.987	-0.161	0.7448454	-3.724227	0.1718874	79.96201848	3.70130868	-11.92325598
2.32	232	0.054	-0.986	-0.16	0.8021412	-3.8388186	0.3437748	79.96774806	3.6955791	-11.96336304
2.33	233	0.053	-0.985	-0.159	0.572958	-3.8961144	0.1718874	79.97347764	3.68411994	-11.99774052
2.34	234	0.052	-0.983	-0.157	0.572958	-3.724227	0	79.97920722	3.67839036	-12.03784758
2.35	235	0.053	-0.984	-0.158	0.6875496	-3.6096354	0	79.97347764	3.67266078	-12.07222506
2.36	236	0.053	-0.985	-0.156	0.7448454	-3.6096354	-0.0572958	79.97920722	3.6669312	-12.10660254
2.37	237	0.052	-0.985	-0.156	0.859437	-3.2658606	-0.2291832	79.9849368	3.66120162	-12.14098002
2.38	238	0.058	-0.99	-0.155	1.0886202	-3.0366774	-0.2291832	79.99639596	3.66120162	-12.16962792
2.39	239	0.058	-0.992	-0.151	1.4896908	-2.9793816	0.0572958	80.00785512	3.65547204	-12.19827582
2.4	240	0.061	-0.993	-0.148	1.6042824	-2.6929026	0.286479	80.03077344	3.65547204	-12.22692372
2.41	241	0.062	-0.991	-0.148	2.0626488	-2.6929026	0.3437748	80.04796218	3.64401288	-12.24984204
2.42	242	0.06	-0.995	-0.15	2.3491278	-2.9220858	0.3437748	80.0708805	3.6382833	-12.27848994
2.43	243	0.059	-0.995	-0.15	2.1772404	-3.0366774	0.1718874	80.09379882	3.63255372	-12.30713784
2.44	244	0.059	-0.994	-0.154	2.291832	-2.7501984	-0.1718874	80.11098756	3.63255372	-12.33578574
2.45	245	0.059	-0.998	-0.156	2.578311	-2.86479	-0.4583664	80.13390588	3.63255372	-12.36443364
2.46	246	0.059	-0.998	-0.153	2.7501984	-3.0939732	-0.8021412	80.1568242	3.63255372	-12.39881112
2.47	247	0.058	-1	-0.15	3.0366774	-2.9220858	-1.2605076	80.19120168	3.64401288	-12.42745902
2.48	248	0.058	-1.004	-0.152	2.86479	-2.291832	-1.4896908	80.21412	3.65547204	-12.45037734
2.49	249	0.052	-1.003	-0.153	2.578311	-1.9480572	-1.7761698	80.2427679	3.67266078	-12.47329566
2.5	250	0.044	-1	-0.154	2.6356068	-1.3178034	-1.9480572	80.25995664	3.67266078	-12.4904844
2.51	251	0.035	-1.004	-0.159	2.8074942	-0.4583664	-2.3491278	80.28860454	3.6955791	-12.49621398
2.52	252	0.033	-1.007	-0.162	2.4064236	1.432395	-2.6929026	80.31725244	3.724227	-12.4904844
2.53	253	0.036	-1.001	-0.163	1.8334656	3.437748	-2.5210152	80.33444118	3.75860448	-12.45610692
2.54	254	0.042	-0.997	-0.164	2.0626488	4.1825934	-1.9480572	80.3573595	3.7815228	-12.42172944
2.55	255	0.05	-0.99	-0.164	2.005353	4.6409598	-1.2032118	80.36881866	3.79871154	-12.3758928
2.56	256	0.056	-0.984	-0.161	2.2345362	4.6982556	-0.572958	80.39173698	3.8101707	-12.33005616
2.57	257	0.06	-0.977	-0.159	2.2345362	4.583664	-0.4010706	80.42038488	3.82162986	-12.28421952
2.58	258	0.064	-0.973	-0.157	2.2345362	4.6409598	-0.6875496	80.4433032	3.83308902	-12.23838288
2.59	259	0.062	-0.968	-0.161	2.0626488	5.0420304	-1.2605076	80.46622152	3.85027776	-12.19254624
2.6	260	0.062	-0.968	-0.164	2.005353	5.8441716	-1.8334656	80.47768068	3.87892566	-12.13525044
2.61	261	0.055	-0.967	-0.162	2.4064236	6.016059	-1.8907614	80.50632858	3.90757356	-12.07795464
2.62	262	0.04	-0.966	-0.154	3.3804522	6.2452422	-1.6615782	80.54643564	3.93049188	-12.02065884
2.63	263	0.031	-0.974	-0.15	4.0680018	7.5057498	-1.6042824	80.59227228	3.95913978	-11.9461743
2.64	264	0.029	-0.98	-0.15	4.6409598	9.167328	-1.3750992	80.6438385	3.9820581	-11.8602306
2.65	265	0.037	-0.986	-0.15	5.443101	10.2559482	-1.2032118	80.7011343	4.00497642	-11.76282774
2.66	266	0.044	-0.984	-0.146	6.1306506	10.4851314	-0.859437	80.76988926	4.02789474	-11.6596953
2.67	267	0.053	-0.98	-0.144	7.2192708	10.313244	-0.6875496	80.85010338	4.05081306	-11.55656286
2.68	268	0.058	-0.978	-0.143	8.0787078	10.0840608	-0.6302538	80.93604708	4.0680018	-11.45916
2.69	269	0.061	-0.979	-0.143	8.4797784	10.5424272	-0.9740286	81.02772036	4.09092012	-11.35602756
2.7	270	0.067	-0.979	-0.15	8.7662574	11.0580894	-1.3178034	81.11939364	4.11956802	-11.24716554
2.71	271	0.071	-0.99	-0.159	9.167328	11.9175264	-1.8334656	81.2167965	4.1539455	-11.13257394
2.72	272	0.078	-1	-0.17	9.3392154	12.0894138	-2.0626488	81.31992894	4.19405256	-11.01225276
2.73	273	0.076	-1.004	-0.164	9.740286	10.886202	-1.7761698	81.42879096	4.22270046	-10.90912032
2.74	274	0.076	-1.02	-0.178	10.9434978	9.6256944	-1.3750992	81.54338256	4.25134836	-10.81171746
2.75	275	0.082	-1.03	-0.183	10.7143146	9.167328	-0.6875496	81.646515	4.2685371	-10.72004418
2.76	276	0.089	-1.025	-0.167	11.172681	8.8235532	-0.1145916	81.76683618	4.28572584	-10.63410048
2.77	277	0.094	-1.021	-0.145	12.4331886	8.021412	0	81.89861652	4.29145542	-10.55388636
2.78	278	0.088	-1.006	-0.14	12.4904844	6.875496	-0.0572958	82.02466728	4.30291458	-10.4851314
2.79	279	0.089	-1.008	-0.16	12.605076	6.0733548	-0.4010706	82.1621772	4.31437374	-10.42210602
2.8	280	0.086	-1.005	-0.179	11.5737516	5.8441716	-0.572958	82.25958006	4.33156248	-10.36481022
2.81	281	0.088	-0.99	-0.194	11.1153852	5.0993262	-0.4583664	82.37417166	4.34302164	-10.313244
2.82	282	0.093	-0.977	-0.199	10.9434978	2.5210152	-0.1718874	82.48876326	4.34875122	-10.2845961
2.83	283	0.092	-0.96	-0.189	10.4851314	-0.1718874	-0.2291832	82.59762528	4.34875122	-10.29032568
2.84	284	0.097	-0.937	-0.174	10.1413566	-2.005353	-0.9167328	82.69502814	4.36021038	-10.30751442
2.85	285	0.105	-0.923	-0.182	8.7662574	-2.6356068	-2.3491278	82.75232394	4.39458786	-10.33616232
2.86	286	0.12	-0.912	-0.199	7.161975	-2.291832	-3.7815228	82.82680848	4.42896534	-10.36481022
2.87	287	0.123	-0.896	-0.209	5.9587632	-3.6096354	-4.9847346	82.88410428	4.47480198	-10.40491728
2.88	288	0.106	-0.885	-0.209	5.7868758	-6.016059	-5.3858052	82.9356705	4.5263682	-10.46794266
2.89	289	0.075	-0.873	-0.209	4.4117766	-7.5057498	-5.3858052	82.97577756	4.57220484	-10.54815678
2.9	290	0.052	-0.864	-0.222	2.4637194	-6.9900876	-5.443101	82.95858882	4.6123119	-10.62264132
2.91	291	0.047	-0.862	-0.258	0.572958	-6.0733548	-5.0420304	82.95858882	4.65814854	-10.69139628
2.92	292	0.046	-0.859	-0.296	-1.432395	-5.7868758	-4.9847346	82.94140008	4.70398518	-10.75442166
2.93	293	0.046	-0.861	-0.314	-1.9480572	-5.0993262	-5.156622	82.91848176	4.74982182	-10.81171746
2.94	294	0.057	-0.851	-0.318	-3.2658606	-4.3544808	-5.9014674	82.8783747	4.80138804	-10.86328368
2.95	295	0.071	-0.838	-0.32	-3.724227	-3.724227	-7.1046792	82.77524226	4.870143	-10.90339074
2.96	296	0.083	-0.828	-0.314	-4.010706	-3.4950438	-7.8495246	82.7351352	4.94462754	-10.94922738
2.97	297	0.092	-0.816	-0.321	-3.6096354	-4.297185	-7.9641162	82.68929856	5.0133825	-11.0007936
2.98	298	0.094	-0.814	-0.341	-3.3804522	-5.7868758	-7.2765666	82.65492108	5.08213746	-11.06954856
2.99	299	0.08	-0.813	-0.342	-3.2658606	-6.875496	-6.2452422	82.61481402	5.13943326	-11.1440331
3	300	0.051	-0.817	-0.325	-2.4064236	-7.2192708	-5.0993262	82.52314074	5.17381074	-11.22424722
3.01	301	0.03	-0.828	-0.329	-0.6875496	-6.9900876	-3.9534102	82.505952	5.20245864	-11.29873176
3.02	302	0.02	-0.843	-0.342	-0.286479	-6.2452422	-3.7815228	82.50022242	5.23683612	-11.36175714
3.03	303	0.022	-0.856	-0.35	0.286479	-4.6982556	-3.9534102	82.50022242	5.2712136	-11.41332336
3.04	304	0.041	-0.855	-0.36	0.572958	-3.4950438	-4.1252976	82.50022242	5.30559108	-11.45343042
3.05	305	0.058	-0.84	-0.363	1.4896908	-4.1825934	-4.010706	82.41427872	5.33423898	-11.49926706
3.06	306	0.062	-0.839	-0.376	2.7501984	-5.3285094	-3.3231564	82.43719704	5.36288688	-11.55656286
3.07	307	0.066	-0.846	-0.376	2.9793816	-4.583664	-2.6929026	82.46584494	5.3858052	-11.6023995
3.08	308	0.085	-0.853	-0.382	2.6929026	-2.86479	-2.578311	82.48876326	5.40872352	-11.63677698
3.09	309	0.111	-0.863	-0.411	0.9740286	-1.8334656	-2.86479	82.49449284	5.43737142	-11.6596953
3.1	310	0.124	-0.858	-0.422	-0.3437748	-1.0313244	-3.2658606	82.20801384	5.5003968	-11.66542488
3.11	311	0.127	-0.828	-0.423	-1.0886202	-0.9740286	-3.4950438	82.19655468	5.53477428	-11.68261362
3.12	312	0.106	-0.813	-0.427	-0.5156622	-0.5156622	-4.1252976	82.1908251	5.57488134	-11.6883432
3.13	313	0.094	-0.787	-0.427	0.572958	-0.1718874	-3.8961144	82.19655468	5.6149884	-11.69980236
3.14	314	0.074	-0.734	-0.422	2.86479	0.6302538	-2.578311	82.22520258	5.63790672	-11.69407278
3.15	315	0.049	-0.718	-0.397	7.0473834	2.0626488	-0.9740286	82.23666174	5.6436363	-11.67115446
3.16	316	0.046	-0.707	-0.386	10.4278356	3.151269	0.4583664	82.34552376	5.6436363	-11.63677698
3.17	317	0.047	-0.685	-0.371	15.1260912	3.724227	2.005353	82.50022242	5.63217714	-11.59666992
3.18	318	0.056	-0.665	-0.355	19.0222056	3.9534102	2.1199446	82.70075772	5.6149884	-11.55656286
3.19	319	0.065	-0.642	-0.34	23.0329116	4.1252976	1.6042824	82.9356705	5.60352924	-11.51072622
3.2	320	0.071	-0.624	-0.319	27.5592798	4.4117766	0.4583664	83.19923118	5.60925882	-11.45916
3.21	321	0.083	-0.607	-0.295	31.7418732	4.583664	-0.4010706	83.52581724	5.62071798	-11.41332336
3.22	322	0.092	-0.585	-0.281	35.5806918	4.870143	-0.6875496	83.89251036	5.63217714	-11.36175714
3.23	323	0.1	-0.55	-0.263	38.961144	5.0993262	0	84.29358096	5.63790672	-11.30446134
3.24	324	0.091	-0.5	-0.233	42.5707794	5.0993262	1.5469866	84.72902904	5.63217714	-11.24716554
3.25	325	0.069	-0.443	-0.202	47.1544434	5.5576926	4.1252976	85.20458418	5.59779966	-11.18414016
3.26	326	0.046	-0.397	-0.182	50.7640788	7.3911582	6.2452422	85.72597596	5.54623344	-11.09819646
3.27	327	0.032	-0.358	-0.17	54.2018268	9.8548776	8.3651868	86.2874748	5.4717489	-10.98933444
3.28	328	0.025	-0.321	-0.152	58.4990118	11.6310474	10.026765	86.8890807	5.38007562	-10.86328368
3.29	329	0.019	-0.291	-0.127	62.9680842	13.0061466	11.2299768	87.54225282	5.27694318	-10.72004418
3.3	330	0.014	-0.275	-0.104	67.4371566	13.750992	12.2613012	88.235532	5.16235158	-10.5710751
3.31	331	0.002	-0.253	-0.08	70.9894962	13.8082878	13.1207382	88.96318866	5.03630082	-10.42210602
3.32	332	-0.013	-0.231	-0.061	74.8283148	13.4072172	14.037471	89.73668196	4.8987909	-10.27886652
3.33	333	-0.011	-0.202	-0.048	78.2660628	13.750992	15.0114996	90.53882316	4.7555514	-10.13562702
3.34	334	0.006	-0.182	-0.027	81.9902898	14.6677248	15.8136408	91.38107142	4.59512316	-9.98665794
3.35	335	0.019	-0.163	-0.002	85.4280378	15.2406828	16.1574156	92.25769716	4.43469492	-9.8262297
3.36	336	0.009	-0.145	0.021	88.6938984	13.750992	16.329303	93.16870038	4.2685371	-9.68871978
3.37	337	0.002	-0.122	0.037	92.0170548	13.0061466	16.7876694	94.11408108	4.0966497	-9.56266902
3.38	338	0.007	-0.11	0.082	96.829902	12.7196676	17.2460358	95.09956884	3.91903272	-9.43661826
3.39	339	0.013	-0.112	0.093	97.2882684	13.750992	17.0168526	96.09651576	3.74141574	-9.3105675
3.4	340	0.06	-0.118	-0.034	94.251591	19.3086846	17.475219	97.05335562	3.5523396	-9.12722094
3.41	341	0.092	0.081	-0.109	90.8711388	23.8350528	23.204799	97.98727716	3.2945085	-8.91522648
3.42	342	0.014	0.388	-0.034	106.1118216	23.3766864	24.6944898	99.07589736	3.01375908	-8.7089616
3.43	343	-0.059	-0.012	0.234	143.4113874	25.8404058	25.496631	100.5369403	2.7215505	-8.48550798
3.44	344	-0.08	-0.877	0.589	181.9714608	25.6112226	19.0795014	102.3933242	2.4923673	-8.2505952
3.45	345	0.086	-1.961	0.864	193.2587334	18.5638392	18.2200644	104.3585701	2.28037284	-8.09016696
3.46	346	0.163	-3.245	1.72	247.1167854	11.5164558	30.7678446	106.8681262	1.95951636	-8.03287116
3.47	347	0.005	-1.99	1.766	192.800367	9.3392154	6.0733548	108.8219129	1.87930224	-7.9354683
3.48	348	0.133	-1.559	2.119	266.1962868	1.145916	-3.8388186	111.5262747	1.92513888	-7.8781725
3.49	349	-0.033	-1.969	2.685	322.288875	-19.4232762	13.5218088	114.7978649	1.8907614	-8.06151906
3.5	350	-0.143	-1.735	2.79	304.5844728	-21.1421502	38.3308902	117.8803789	1.65584862	-8.37664596
3.51	351	-0.018	-1.555	2.696	298.8548928	-4.010706	36.8984952	120.9113267	1.35791046	-8.54853336
3.52	352	0.006	-3.076	2.335	282.2964066	10.7143146	22.1734746	123.7761167	1.1172681	-8.5370742
3.53	353	-0.137	-3.412	1.902	282.8120688	3.3804522	10.9434978	126.6466363	1.00840608	-8.53134462
3.54	354	-0.373	-1.143	0.865	227.4070302	-6.016059	6.9900876	128.9499275	0.99121734	-8.58864042
3.55	355	-0.378	-0.49	1.58	545.8570866	-30.1948866	-3.2658606	134.4961609	1.20894138	-8.7089616
3.56	356	0.07	0.138	1.106	690.3570942	-16.6730778	-14.1520626	141.5091668	1.4037471	-8.61728832
3.57	357	0.132	0.05	1.286	479.5085502	12.9488508	-14.037471	146.3793098	1.35791046	-8.37091638
3.58	358	0.016	-0.137	0.748	253.4193234	16.902261	3.151269	148.9461617	1.18029348	-8.2792431
3.59	359	-0.076	-0.301	0.399	145.0156698	-7.734933	5.6149884	150.4186637	1.21467096	-8.34799806
3.6	360	0.063	-0.31	0.789	162.433593	-20.912967	0.6302538	152.0802419	1.38655836	-8.42821218
3.61	361	0.041	-0.122	0.764	155.4435054	8.8235532	6.302538	153.6558764	1.27196676	-8.42821218
3.62	362	0.041	-0.155	0.687	162.6054804	9.1100322	3.3231564	155.3059955	1.16310474	-8.39956428
3.63	363	0.018	-0.117	1.007	199.102905	4.9847346	6.2452422	157.3228076	1.07716104	-8.41675302
3.64	364	0.029	-0.177	1.347	218.296998	-1.718874	8.9954406	159.5401551	1.04278356	-8.4797784
3.65	365	-0.047	-0.151	1.531	203.973048	0.8021412	10.7143146	161.6085335	0.97975818	-8.55426294
3.66	366	-0.13	-0.144	1.794	190.9669014	0.1718874	9.6256944	163.5451315	0.93392154	-8.6230179
3.67	367	-0.069	-0.176	1.921	172.5749496	2.578311	4.583664	165.298383	0.88235532	-8.64020664
3.68	368	-0.034	-0.051	1.94	163.4649174	-0.2291832	2.9793816	166.9542316	0.86516658	-8.65739538
3.69	369	-0.006	-0.239	2.009	144.4427118	-0.8021412	0.9167328	168.4210041	0.85370742	-8.6516658
3.7	370	0.029	-0.153	1.851	125.9361684	-1.6615782	1.2605076	169.6987004	0.859437	-8.6516658
3.71	371	-0.004	-0.266	1.825	100.3822416	-4.3544808	0.4010706	170.7185657	0.8880849	-8.6516658
3.72	372	0.008	-0.188	1.682	64.8588456	-4.870143	-0.859437	171.383197	0.93392154	-8.64593622
3.73	373	0.034	-0.175	1.503	38.101707	-7.6776372	-1.2032118	171.7670788	1.00840608	-8.64020664
3.74	374	0.059	-0.355	1.316	37.1276784	-10.0840608	0.1718874	172.1452311	1.10007936	-8.64593622
3.75	375	0.03	-0.52	1.258	69.2133264	-19.5378678	0.1718874	172.8442399	1.2891555	-8.66312496
3.76	376	0.068	-0.526	1.487	104.9086098	-12.1467096	6.016059	173.9099417	1.39228794	-8.72042076
3.77	377	-0.034	-0.238	1.49	106.856667	-0.6302538	8.1932994	174.9871028	1.3750992	-8.7949053
3.78	378	-0.006	-0.075	1.324	88.522011	-8.021412	9.167328	175.8866468	1.43812458	-8.880849
3.79	379	0.023	-0.077	1.174	66.5204238	-19.5951636	6.1306506	176.5627373	1.62147114	-8.94387438
3.8	380	-0.008	-0.088	1.041	55.5196302	-25.0955604	4.010706	177.1242361	1.8621135	-8.98398144
3.81	381	0.004	-0.02	0.888	42.2843004	-23.0902074	2.9220858	177.5596842	2.08556712	-9.01835892
3.82	382	0.022	0.092	0.805	20.9702628	-22.0015872	1.8334656	177.7716787	2.29756158	-9.03554766
3.83	383	0.004	0.116	0.712	1.3750992	-21.1421502	1.718874	177.7888674	2.50955604	-9.0527364
3.84	384	0	0.127	0.643	-8.5370742	-19.6524594	1.6042824	177.7029237	2.70436176	-9.07565472
3.85	385	0.015	0.242	0.534	-12.891555	-18.5065434	1.718874	177.5940617	2.88770832	-9.09284346
3.86	386	0.001	0.288	0.473	-14.896908	-19.0795014	2.3491278	177.4450926	3.07678446	-9.12149136
3.87	387	-0.009	0.376	0.496	-17.1314442	-19.0795014	1.9480572	177.2732052	3.2658606	-9.15013926
3.88	388	0.009	0.389	0.563	-17.7044022	-17.1314442	1.432395	177.0898586	3.437748	-9.167328
3.89	389	-0.006	0.357	0.678	-18.4492476	-12.2613012	1.3750992	176.9065121	3.55806918	-9.18451674
3.9	390	-0.001	0.314	0.808	-19.0222056	-7.448454	0	176.7861909	3.62682414	-9.19024632
3.91	391	0.039	0.161	0.973	-17.0168526	-3.3231564	-0.572958	176.6143035	3.66120162	-9.18451674
3.92	392	0.054	0.019	1.15	-16.615782	-1.4896908	-0.2291832	176.4424161	3.67839036	-9.18451674
3.93	393	0.046	0.015	1.224	-16.6730778	-0.8021412	0	176.2762583	3.68984952	-9.18451674
3.94	394	0.044	0.006	1.224	-16.1001198	0.1145916	0	176.1101005	3.68984952	-9.19024632
3.95	395	0.063	-0.015	1.206	-14.6677248	1.7761698	-0.0572958	175.9725905	3.67266078	-9.19024632
3.96	396	0.042	-0.016	1.163	-12.4904844	2.2345362	0	175.8465398	3.64974246	-9.19024632
3.97	397	0.051	-0.017	1.157	-9.2819196	2.5210152	0	175.7491369	3.62682414	-9.19024632
3.98	398	0.045	-0.089	1.145	-7.5630456	3.2085648	0.2291832	175.6746524	3.59244666	-9.19024632
3.99	399	0.044	-0.021	1.099	-2.7501984	2.3491278	-0.2291832	175.6460045	3.56952834	-9.18451674
4	400	0.055	0.009	1.078	1.3750992	1.8334656	-0.2291832	175.5944383	3.54661002	-9.17878716
4.01	401	0.035	-0.096	1.059	2.2345362	2.291832	0.3437748	175.6173566	3.5236917	-9.18451674
4.02	402	0.038	0.022	1.031	5.3858052	2.1199446	0.0572958	175.6746524	3.50077338	-9.18451674
4.03	403	0.071	-0.024	0.996	9.5111028	5.0993262	-0.6302538	175.7720552	3.44920716	-9.17305758
4.04	404	0.057	-0.086	0.924	6.9900876	2.4637194	0.572958	175.8408102	3.42628884	-9.17878716
4.05	405	0.034	-0.014	0.926	8.5370742	-0.1145916	1.2605076	175.9554018	3.39191136	-9.19024632
4.06	406	0.018	0.13	0.972	11.172681	2.86479	-1.0886202	176.0699934	3.36326346	-9.17305758
4.07	407	0.037	-0.21	0.973	8.8235532	6.9327918	-1.0886202	176.1559371	3.28877892	-9.16159842
4.08	408	0.048	0.001	0.894	6.8182002	6.1879464	-1.2605076	176.2304216	3.23148312	-9.14440968
4.09	409	0.023	-0.01	0.843	6.7609044	4.9847346	-1.0313244	176.2991766	3.1799169	-9.13295052
4.1	410	0.06	0.007	0.92	6.1879464	4.297185	-1.2032118	176.3908499	3.15699858	-9.12149136
4.11	411	0.052	-0.033	0.98	3.3804522	3.151269	0.572958	176.4252274	3.12835068	-9.12149136
4.12	412	0.035	-0.01	0.993	0.2291832	3.5523396	0.1145916	176.4252274	3.08824362	-9.12149136
4.13	413	0.017	-0.009	1.019	-1.8907614	5.2712136	-0.0572958	176.4080386	3.0366774	-9.12149136
4.14	414	0.028	-0.024	1.059	-3.724227	5.0420304	0.1718874	176.3679316	2.99084076	-9.12149136
4.15	415	0.03	-0.014	1.082	-5.5576926	4.8128472	0.0572958	176.3278245	2.93354496	-9.12149136
4.16	416	0.028	-0.018	1.085	-7.2765666	4.5263682	-0.1718874	176.25334	2.88770832	-9.12149136
4.17	417	0.025	0.011	1.075	-7.5630456	3.2658606	0	176.1731258	2.85906042	-9.11576178
4.18	418	0.035	-0.042	1.08	-7.7922288	2.4637194	-0.1145916	176.0929117	2.8361421	-9.11576178
4.19	419	0.024	-0.036	1.052	-6.5317212	1.4896908	-0.0572958	176.0298863	2.81895336	-9.11576178
4.2	420	0.025	-0.031	1.028	-4.6982556	1.0886202	-0.1718874	176.0356159	2.78457588	-9.11576178
4.21	421	0.023	-0.017	1.011	-3.6096354	1.2032118	-0.3437748	175.9955089	2.77311672	-9.1100322
4.22	422	0.028	-0.031	1	-2.1199446	1.2605076	-0.5156622	175.9725905	2.76165756	-9.10430262
4.23	423	0.029	-0.023	0.99	-1.3178034	0.9740286	-0.3437748	175.9611314	2.75592798	-9.09857304
4.24	424	0.03	-0.029	0.975	-1.3750992	1.4896908	-0.4010706	175.9496722	2.73873924	-9.09857304
4.25	425	0.024	-0.021	0.975	-1.3750992	2.0626488	-0.5156622	175.9840497	2.6929026	-9.09284346
4.26	426	0.026	-0.02	0.977	-1.3178034	3.0939732	-0.6875496	175.9725905	2.6642547	-9.0813843
4.27	427	0.026	-0.02	0.98	-1.8907614	4.7555514	-0.8021412	175.9496722	2.61841806	-9.07565472
4.28	428	0.023	-0.019	0.988	-2.4064236	5.443101	-0.859437	175.9267539	2.56685184	-9.06419556
4.29	429	0.021	-0.018	0.999	-2.9793816	5.8441716	-0.859437	175.8923764	2.50955604	-9.0527364
4.3	430	0.019	-0.018	1.005	-3.4950438	6.016059	-0.859437	175.8866468	2.4350715	-9.04127724
4.31	431	0.019	-0.018	1.008	-4.010706	5.6722842	-0.9167328	175.8465398	2.38350528	-9.02981808
4.32	432	0.018	-0.02	1.01	-4.1252976	5.2712136	-0.859437	175.8064327	2.33193906	-9.01835892
4.33	433	0.017	-0.018	1.013	-4.2398892	4.8128472	-0.859437	175.7605961	2.28037284	-9.00689976
4.34	434	0.016	-0.021	1.016	-4.1252976	4.1252976	-0.859437	175.720489	2.24599536	-8.9954406
4.35	435	0.016	-0.02	1.021	-4.0680018	3.6096354	-0.8021412	175.7147594	2.19442914	-8.98971102
4.36	436	0.016	-0.021	1.023	-3.724227	3.0366774	-0.8021412	175.680382	2.16578124	-8.97825186
4.37	437	0.015	-0.021	1.025	-3.437748	2.4637194	-0.859437	175.6402749	2.14286292	-8.97252228
4.38	438	0.014	-0.021	1.023	-3.2658606	1.9480572	-0.7448454	175.611627	2.1199446	-8.96106312
4.39	439	0.014	-0.021	1.022	-2.9220858	1.432395	-0.6875496	175.5772495	2.10848544	-8.95533354
4.4	440	0.014	-0.021	1.019	-2.578311	0.8021412	-0.572958	175.6345453	2.06837838	-8.95533354
4.41	441	0.013	-0.021	1.017	-2.2345362	0.1718874	-0.4583664	175.611627	2.06837838	-8.94960396
4.42	442	0.013	-0.021	1.019	-1.8334656	-0.2291832	-0.4010706	175.5944383	2.06837838	-8.94387438
4.43	443	0.012	-0.02	1.021	-1.6042824	-0.6302538	-0.3437748	175.5772495	2.07983754	-8.9381448
4.44	444	0.013	-0.019	1.021	-1.432395	-1.0313244	-0.3437748	175.5657904	2.0912967	-8.9381448
4.45	445	0.012	-0.021	1.017	-1.3178034	-1.145916	-0.3437748	175.6517341	2.05118964	-8.9381448
4.46	446	0.012	-0.022	1.012	-1.2605076	-1.2032118	-0.3437748	175.6402749	2.06837838	-8.9381448
4.47	447	0.014	-0.021	1.013	-1.145916	-1.145916	-0.3437748	175.6288157	2.07983754	-8.93241522
4.48	448	0.013	-0.022	1.013	-0.9167328	-1.2032118	-0.286479	175.6173566	2.0912967	-8.93241522
4.49	449	0.013	-0.022	1.015	-0.7448454	-1.0886202	-0.3437748	175.611627	2.10275586	-8.92668564
4.5	450	0.013	-0.022	1.018	-0.4010706	-1.0313244	-0.3437748	175.7548665	2.05118964	-8.92668564
4.51	451	0.016	-0.022	1.019	-0.286479	-1.145916	-0.286479	175.7548665	2.0626488	-8.92668564
4.52	452	0.015	-0.023	1.02	-0.286479	-1.2032118	-0.2291832	175.7491369	2.07410796	-8.92668564
4.53	453	0.014	-0.024	1.017	-0.1145916	-1.145916	-0.2291832	175.7491369	2.08556712	-8.92095606
4.54	454	0.015	-0.026	1.015	0.0572958	-0.9740286	-0.286479	175.7491369	2.09702628	-8.92095606
4.55	455	0.016	-0.025	1.017	0.2291832	-0.8021412	-0.286479	175.9038356	2.0340009	-8.92095606
4.56	456	0.016	-0.024	1.022	0.286479	-0.6875496	-0.286479	175.9095652	2.03973048	-8.92095606
4.57	457	0.014	-0.025	1.024	0.2291832	-0.8021412	-0.4010706	175.9095652	2.04546006	-8.91522648
4.58	458	0.014	-0.025	1.026	0.2291832	-0.9167328	-0.286479	175.9152947	2.05691922	-8.91522648
4.59	459	0.015	-0.023	1.023	0.1718874	-0.9167328	-0.2291832	175.9152947	2.06837838	-8.9094969
4.6	460	0.014	-0.028	1.023	0.1145916	-0.859437	-0.286479	176.0699934	1.99389384	-8.91522648
4.61	461	0.017	-0.022	1.02	-0.1145916	-0.6302538	-0.3437748	176.0699934	1.99962342	-8.9094969
4.62	462	0.015	-0.024	1.016	-0.2291832	-0.4010706	-0.286479	176.0642638	2.005353	-8.9094969
4.63	463	0.015	-0.025	1.01	-0.4583664	-0.3437748	-0.3437748	176.0642638	2.005353	-8.90376732
4.64	464	0.014	-0.031	1.01	-0.5156622	-0.4010706	-0.286479	176.0585342	2.01108258	-8.90376732
4.65	465	0.016	-0.023	1.009	-0.5156622	-0.2291832	-0.3437748	176.2304216	1.9480572	-8.90376732
4.66	466	0.014	-0.021	1.006	-1.2032118	-0.1718874	-0.4010706	176.2189625	1.9480572	-8.90376732
4.67	467	0.015	-0.029	1.008	-1.145916	-0.1145916	-0.4010706	176.2075033	1.9480572	-8.89803774
4.68	468	0.013	-0.032	1.012	-1.6042824	-0.286479	-0.4010706	176.1903146	1.95378678	-8.89230816
4.69	469	0.016	-0.02	1.015	-1.3178034	-0.572958	-0.3437748	176.1788554	1.95951636	-8.89230816
4.7	470	0.013	-0.021	1.012	-1.9480572	-0.4583664	-0.4010706	176.2246921	1.91367972	-8.88657858
4.71	471	0.015	-0.029	1.015	-1.5469866	-0.5156622	-0.4010706	176.2075033	1.9194093	-8.88657858
4.72	472	0.012	-0.029	1.017	-1.8907614	-0.7448454	-0.3437748	176.1903146	1.93086846	-8.880849
4.73	473	0.015	-0.023	1.022	-1.2032118	-0.9167328	-0.3437748	176.1788554	1.93659804	-8.880849
4.74	474	0.014	-0.016	1.016	-1.7761698	-0.9167328	-0.3437748	176.1559371	1.9480572	-8.87511942
4.75	475	0.016	-0.027	1.019	-1.3750992	-0.9167328	-0.4010706	176.2075033	1.93086846	-8.87511942
4.76	476	0.013	-0.028	1.021	-1.8334656	-0.9740286	-0.3437748	176.1903146	1.94232762	-8.86938984
4.77	477	0.016	-0.023	1.023	-1.2032118	-0.9740286	-0.3437748	176.1788554	1.9480572	-8.86938984
4.78	478	0.014	-0.018	1.017	-1.718874	-0.859437	-0.4010706	176.1616667	1.95951636	-8.86366026
4.79	479	0.015	-0.029	1.016	-1.145916	-0.8021412	-0.4583664	176.1502075	1.96524594	-8.85793068
4.8	480	0.015	-0.023	1.018	-1.6615782	-0.8021412	-0.4010706	176.2017737	1.94232762	-8.85793068
4.81	481	0.014	-0.025	1.02	-1.2605076	-0.9167328	-0.4010706	176.184585	1.95378678	-8.8522011
4.82	482	0.013	-0.029	1.021	-1.0886202	-0.9167328	-0.4010706	176.1731258	1.95951636	-8.8522011
4.83	483	0.016	-0.017	1.017	-1.3178034	-0.8021412	-0.4010706	176.1616667	1.97097552	-8.84647152
4.84	484	0.015	-0.029	1.02	-0.8021412	-0.8021412	-0.4583664	176.1559371	1.9767051	-8.84074194
4.85	485	0.015	-0.024	1.019	-1.145916	-1.0313244	-0.4010706	176.2189625	1.9480572	-8.84074194
4.86	486	0.015	-0.026	1.02	-0.9167328	-1.0886202	-0.4583664	176.2075033	1.95951636	-8.83501236
4.87	487	0.015	-0.026	1.018	-0.8021412	-0.9167328	-0.4010706	176.2017737	1.97097552	-8.83501236
4.88	488	0.015	-0.024	1.017	-0.6875496	-0.8021412	-0.4010706	176.1903146	1.9767051	-8.82928278
4.89	489	0.016	-0.03	1.018	-0.5156622	-0.6875496	-0.4010706	176.184585	1.98816426	-8.8235532
4.9	490	0.016	-0.021	1.018	-0.4010706	-0.7448454	-0.4010706	176.3163653	1.9480572	-8.82928278
4.91	491	0.015	-0.026	1.018	-0.6302538	-0.6875496	-0.4010706	176.3106358	1.95378678	-8.8235532
4.92	492	0.017	-0.026	1.017	-0.4583664	-0.6302538	-0.4010706	176.3049062	1.95951636	-8.81782362
4.93	493	0.014	-0.025	1.019	-0.6302538	-0.6302538	-0.4010706	176.2991766	1.96524594	-8.81782362
4.94	494	0.017	-0.027	1.019	-0.4010706	-0.572958	-0.3437748	176.293447	1.97097552	-8.81209404
4.95	495	0.016	-0.026	1.018	-0.5156622	-0.4010706	-0.3437748	176.4137682	1.91367972	-8.81209404
4.96	496	0.015	-0.028	1.017	-0.4583664	-0.4583664	-0.4010706	176.4080386	1.9194093	-8.80636446
4.97	497	0.016	-0.023	1.018	-0.2291832	-0.4583664	-0.4010706	176.4080386	1.92513888	-8.80636446
4.98	498	0.014	-0.025	1.017	-0.5156622	-0.4010706	-0.4010706	176.402309	1.92513888	-8.80063488
4.99	499	0.016	-0.027	1.018	-0.286479	-0.286479	-0.4010706	176.3965795	1.93086846	-8.7949053
5	500	0.016	-0.026	1.018	-0.572958	-0.3437748	-0.4010706	176.5226302	1.86784308	-8.7949053
5.01	501	0.015	-0.028	1.016	-0.4583664	-0.1145916	-0.4010706	176.5169006	1.86784308	-8.7949053
5.02	502	0.016	-0.028	1.017	-0.4583664	0	-0.4583664	176.5111711	1.86784308	-8.78917572
5.03	503	0.017	-0.021	1.015	-0.8021412	0.1145916	-0.5156622	176.5054415	1.86784308	-8.78344614
5.04	504	0.015	-0.03	1.016	-0.572958	0.2291832	-0.4583664	176.4997119	1.86784308	-8.77771656
5.05	505	0.015	-0.026	1.016	-0.9740286	0.1145916	-0.4583664	176.5741964	1.81627686	-8.77771656
5.06	506	0.015	-0.03	1.019	-0.7448454	0.1718874	-0.4583664	176.5627373	1.81054728	-8.77198698
5.07	507	0.014	-0.022	1.014	-0.9740286	0.1718874	-0.4583664	176.5512781	1.81054728	-8.7662574
5.08	508	0.016	-0.03	1.018	-0.6875496	0.3437748	-0.4583664	176.5455485	1.81054728	-8.76052782
5.09	509	0.012	-0.021	1.016	-0.9167328	0.286479	-0.5156622	176.5340894	1.8048177	-8.75479824
5.1	510	0.013	-0.026	1.018	-0.9167328	0.1718874	-0.5156622	176.6085739	1.75898106	-8.75479824
5.11	511	0.014	-0.028	1.016	-0.859437	0.1718874	-0.5156622	176.5971148	1.75898106	-8.74906866
5.12	512	0.013	-0.026	1.017	-0.9740286	0.1718874	-0.5156622	176.5913852	1.75898106	-8.74333908
5.13	513	0.013	-0.028	1.017	-0.859437	0.0572958	-0.4583664	176.579926	1.75898106	-8.7376095
5.14	514	0.014	-0.028	1.017	-0.859437	-0.0572958	-0.4583664	176.5741964	1.75898106	-8.73187992
5.15	515	0.013	-0.028	1.018	-0.5156622	-0.1718874	-0.5156622	176.6601401	1.69595568	-8.73187992
5.16	516	0.013	-0.02	1.018	-0.6302538	-0.6302538	-0.4583664	176.6544106	1.70741484	-8.72615034
5.17	517	0.013	-0.027	1.018	-0.4583664	-0.6875496	-0.4583664	176.6544106	1.71314442	-8.72042076
5.18	518	0.013	-0.027	1.016	-0.7448454	-0.6302538	-0.4010706	176.6429514	1.718874	-8.71469118
5.19	519	0.014	-0.026	1.016	-0.6875496	-0.5156622	-0.4583664	176.6372218	1.72460358	-8.71469118
5.2	520	0.014	-0.03	1.015	-0.6302538	-0.4583664	-0.4010706	176.7117064	1.67876694	-8.7089616
5.21	521	0.013	-0.028	1.016	-0.4583664	-0.4010706	-0.4583664	176.7117064	1.68449652	-8.70323202
5.22	522	0.012	-0.02	1.017	-0.6875496	-0.572958	-0.4010706	176.7002472	1.6902261	-8.70323202
5.23	523	0.013	-0.029	1.02	-0.5156622	-0.5156622	-0.4010706	176.6945176	1.69595568	-8.69750244
5.24	524	0.013	-0.026	1.021	-0.859437	-0.4010706	-0.4010706	176.688788	1.70168526	-8.69177286
5.25	525	0.013	-0.027	1.022	-0.7448454	-0.4010706	-0.4010706	176.7518134	1.6615782	-8.69177286
5.26	526	0.014	-0.026	1.02	-0.859437	-0.4010706	-0.4010706	176.7460838	1.66730778	-8.68604328
5.27	527	0.013	-0.026	1.017	-0.4010706	-0.286479	0	176.7403543	1.66730778	-8.68604328
5.28	528	0.013	-0.027	1.016	-0.1145916	-0.286479	0.0572958	176.7403543	1.67303736	-8.69177286
5.29	529	0.014	-0.026	1.016	-0.2291832	-0.3437748	0.0572958	176.7346247	1.67303736	-8.69177286
5.3	530	0.012	-0.027	1.014	-0.2291832	-0.286479	0.0572958	176.8835938	1.58709366	-8.69750244
5.31	531	0.012	-0.026	1.015	-0.2291832	-0.4010706	0.0572958	176.8778642	1.59282324	-8.69750244
5.32	532	0.013	-0.027	1.013	-0.1718874	-0.3437748	0	176.8778642	1.59282324	-8.69750244
5.33	533	0.013	-0.027	1.015	0	-0.4010706	0.0572958	176.8778642	1.59855282	-8.69750244
5.34	534	0.013	-0.026	1.019	0.0572958	-0.3437748	0.0572958	176.8778642	1.6042824	-8.69750244
5.35	535	0.014	-0.027	1.018	0.1145916	-0.3437748	0	177.0153741	1.52406828	-8.70323202
5.36	536	0.013	-0.026	1.019	0.1718874	-0.4010706	0	177.0153741	1.52979786	-8.70323202
5.37	537	0.013	-0.027	1.019	0.286479	-0.286479	0	177.0153741	1.53552744	-8.70323202
5.38	538	0.013	-0.027	1.02	0.286479	-0.1718874	0	177.0211037	1.53552744	-8.70323202
5.39	539	0.013	-0.026	1.02	0.3437748	-0.1718874	0	177.0268333	1.53552744	-8.70323202
5.4	540	0.013	-0.026	1.018	0.286479	-0.1718874	0	177.1987207	1.432395	-8.7089616
5.41	541	0.014	-0.026	1.018	0.2291832	-0.1718874	0	177.1987207	1.43812458	-8.7089616
5.42	542	0.013	-0.026	1.019	0.1718874	-0.1718874	0	177.2044502	1.43812458	-8.7089616
5.43	543	0.013	-0.026	1.019	0.0572958	-0.1145916	0	177.2044502	1.43812458	-8.7089616
5.44	544	0.013	-0.026	1.017	-0.0572958	-0.1145916	0	177.2044502	1.44385416	-8.7089616
5.45	545	0.013	-0.026	1.015	0	-0.1145916	0	177.3877968	1.32926256	-8.71469118
5.46	546	0.013	-0.027	1.014	0.0572958	-0.2291832	0	177.3877968	1.33499214	-8.71469118
5.47	547	0.014	-0.027	1.015	0	0	0	177.3877968	1.33499214	-8.71469118
5.48	548	0.012	-0.027	1.017	0	0	0	177.3877968	1.33499214	-8.71469118
5.49	549	0.015	-0.029	1.018	0	0	0	177.3877968	1.33499214	-8.71469118
5.5	550	0.013	-0.024	1.017	-0.0572958	0	0	177.4966588	1.2605076	-8.71469118
5.51	551	0.013	-0.028	1.018	0	-0.0572958	0	177.4966588	1.26623718	-8.71469118
5.52	552	0.014	-0.029	1.019	0.1718874	0	0	177.5023884	1.2605076	-8.71469118
5.53	553	0.011	-0.021	1.02	0.2291832	0	0	177.5023884	1.2605076	-8.71469118
5.54	554	0.013	-0.025	1.018	0.1718874	0	0	177.5023884	1.2605076	-8.71469118
5.55	555	0.014	-0.028	1.019	0.286479	0.1145916	0	177.5711434	1.22040054	-8.71469118
5.56	556	0.013	-0.026	1.021	0	0.3437748	0	177.5711434	1.21467096	-8.71469118
5.57	557	0.013	-0.028	1.018	0	0.3437748	0	177.5711434	1.20894138	-8.71469118
5.58	558	0.014	-0.031	1.017	0.1145916	0.2291832	0	177.5768729	1.20894138	-8.71469118
5.59	559	0.011	-0.021	1.016	0.1145916	0.0572958	0	177.5768729	1.20894138	-8.71469118
5.6	560	0.013	-0.026	1.016	0.1145916	0	0.0572958	177.6398983	1.15164558	-8.72042076
5.61	561	0.012	-0.029	1.016	0.1145916	0	0.0572958	177.6398983	1.15164558	-8.72042076
5.62	562	0.013	-0.027	1.019	0	0.0572958	0	177.6398983	1.15164558	-8.72042076
5.63	563	0.015	-0.031	1.018	0.0572958	0.1145916	0	177.6398983	1.15164558	-8.72042076
5.64	564	0.01	-0.021	1.017	0.1718874	0	0	177.6398983	1.15164558	-8.72042076
5.65	565	0.014	-0.024	1.015	0.2291832	-0.286479	0	177.6800054	1.145916	-8.72042076
5.66	566	0.013	-0.029	1.018	0.286479	-0.1145916	0	177.6800054	1.145916	-8.72042076
5.67	567	0.012	-0.025	1.022	0.0572958	0	-0.0572958	177.6800054	1.145916	-8.72042076
5.68	568	0.015	-0.032	1.021	0.2291832	0.0572958	0	177.685735	1.145916	-8.72042076
5.69	569	0.01	-0.02	1.016	0.2291832	0	0	177.685735	1.145916	-8.72042076
5.7	570	0.013	-0.024	1.015	0.286479	-0.2291832	0	177.7086533	1.14018642	-8.72042076
5.71	571	0.014	-0.029	1.019	0.286479	-0.1718874	0	177.7143829	1.14018642	-8.72042076
5.72	572	0.013	-0.027	1.022	0	0.1145916	-0.0572958	177.7143829	1.14018642	-8.72042076
5.73	573	0.012	-0.029	1.019	0.2291832	0	0	177.7143829	1.14018642	-8.72042076
5.74	574	0.011	-0.019	1.012	-0.1145916	-0.1145916	-0.0572958	177.7143829	1.14018642	-8.72042076
5.75	575	0.014	-0.029	1.014	0.1145916	-0.0572958	0	177.7373012	1.10007936	-8.72042076
5.76	576	0.012	-0.029	1.019	-0.1145916	0.1145916	-0.0572958	177.7373012	1.10007936	-8.71469118
5.77	577	0.013	-0.028	1.023	-0.0572958	0.5156622	-0.0572958	177.7373012	1.09434978	-8.71469118
5.78	578	0.015	-0.03	1.022	0.3437748	0.5156622	0	177.7373012	1.0886202	-8.71469118
5.79	579	0.009	-0.013	1.009	-0.1718874	0.3437748	-0.0572958	177.7373012	1.0886202	-8.71469118
5.8	580	0.013	-0.031	1.013	0.286479	0.2291832	0	177.7774082	1.05424272	-8.71469118
5.81	581	0.01	-0.028	1.019	-0.3437748	0.286479	-0.0572958	177.7716787	1.04851314	-8.71469118
5.82	582	0.013	-0.029	1.024	0.286479	0.5156622	-0.0572958	177.7774082	1.04278356	-8.71469118
5.83	583	0.013	-0.017	1.017	-0.1145916	0.9167328	0	177.7774082	1.03705398	-8.71469118
5.84	584	0.013	-0.034	1.017	0.286479	0.859437	0	177.7774082	1.02559482	-8.71469118
5.85	585	0.01	-0.017	1.017	-0.1145916	0.3437748	0	177.8232449	1.00840608	-8.71469118
5.86	586	0.011	-0.036	1.02	0.286479	0.2291832	0	177.8232449	1.0026765	-8.71469118
5.87	587	0.013	-0.016	1.013	0.1145916	0.4583664	0	177.8232449	0.99694692	-8.71469118
5.88	588	0.013	-0.029	1.014	0.2291832	0.859437	0	177.8289745	0.99121734	-8.71469118
5.89	589	0.012	-0.028	1.016	-0.0572958	0.572958	0	177.8289745	0.98548776	-8.71469118
5.9	590	0.009	-0.035	1.024	0.286479	0.2291832	0	177.8461632	0.9740286	-8.71469118
5.91	591	0.017	-0.019	1.021	0.0572958	0.1145916	0	177.8461632	0.9740286	-8.71469118
5.92	592	0.008	-0.02	1.016	0.0572958	0.1718874	0	177.8461632	0.96829902	-8.71469118
5.93	593	0.014	-0.026	1.017	-0.1145916	0.1145916	0.0572958	177.8461632	0.96829902	-8.71469118
5.94	594	0.01	-0.03	1.02	-0.3437748	0	0	177.8404336	0.96829902	-8.71469118
5.95	595	0.009	-0.028	1.019	-0.286479	0.1145916	0.1145916	177.8289745	0.93965112	-8.71469118
5.96	596	0.011	-0.021	1.015	-0.3437748	0.1145916	0.1145916	177.8232449	0.93392154	-8.71469118
5.97	597	0.009	-0.029	1.013	-0.1718874	0.0572958	0	177.8232449	0.93392154	-8.71469118
5.98	598	0.012	-0.026	1.014	-0.3437748	-0.1718874	0	177.8175153	0.93965112	-8.71469118
5.99	599	0.008	-0.027	1.018	-0.2291832	-0.4583664	0	177.8175153	0.93965112	-8.71469118
6	600	0.011	-0.026	1.018	-0.1718874	-0.4583664	0	177.834704	0.93392154	-8.71469118
6.01	601	0.01	-0.027	1.017	-0.1145916	-0.3437748	0	177.834704	0.93392154	-8.71469118
6.02	602	0.01	-0.026	1.019	-0.1145916	-0.286479	0.0572958	177.834704	0.93965112	-8.72042076
6.03	603	0.01	-0.026	1.021	-0.0572958	-0.3437748	0	177.834704	0.9453807	-8.72042076
6.04	604	0.011	-0.026	1.02	0	-0.4583664	0	177.8289745	0.95111028	-8.72042076
6.05	605	0.01	-0.025	1.02	-0.0572958	-0.5156622	0	177.8461632	0.93965112	-8.72042076
6.06	606	0.01	-0.027	1.019	-0.0572958	-0.4583664	0	177.8461632	0.9453807	-8.72042076
6.07	607	0.011	-0.025	1.019	-0.1145916	-0.5156622	0	177.8461632	0.95111028	-8.72042076
6.08	608	0.011	-0.026	1.018	-0.1718874	-0.4583664	0	177.8404336	0.95683986	-8.72042076
6.09	609	0.011	-0.026	1.019	-0.1145916	-0.4583664	0	177.8404336	0.96256944	-8.72042076
6.1	610	0.01	-0.027	1.019	-0.0572958	-0.572958	0	177.8518928	0.95111028	-8.72042076
6.11	611	0.01	-0.024	1.019	-0.3437748	-0.6302538	-0.0572958	177.8518928	0.95683986	-8.72042076
6.12	612	0.011	-0.026	1.016	-0.3437748	-0.5156622	0	177.8461632	0.96256944	-8.72042076
6.13	613	0.01	-0.026	1.014	-0.1718874	-0.5156622	0	177.8461632	0.96829902	-8.72042076
6.14	614	0.011	-0.026	1.014	-0.1145916	-0.5156622	0	177.8461632	0.9740286	-8.72042076
6.15	615	0.011	-0.027	1.017	-0.1145916	-0.5156622	0	177.8576224	0.96256944	-8.72042076
6.16	616	0.01	-0.027	1.018	-0.1718874	-0.572958	0	177.8518928	0.96829902	-8.72042076
6.17	617	0.012	-0.026	1.02	-0.2291832	-0.6302538	0	177.8518928	0.9740286	-8.72042076
6.18	618	0.011	-0.026	1.019	-0.1718874	-0.6875496	0.0572958	177.8518928	0.98548776	-8.72042076
6.19	619	0.01	-0.027	1.017	-0.1718874	-0.5156622	0	177.8461632	0.99121734	-8.72042076
6.2	620	0.011	-0.026	1.019	-0.0572958	-0.2291832	0	177.8805407	0.96256944	-8.72042076
6.21	621	0.011	-0.026	1.02	0	-0.286479	0	177.8805407	0.96256944	-8.72042076
6.22	622	0.011	-0.026	1.021	0	-0.1145916	0	177.8805407	0.96829902	-8.72042076
6.23	623	0.012	-0.026	1.02	0	-0.0572958	0	177.8805407	0.96829902	-8.72042076
6.24	624	0.011	-0.026	1.019	-0.0572958	-0.1145916	0	177.8748111	0.96829902	-8.72042076
6.25	625	0.011	-0.026	1.019	-0.1145916	-0.0572958	0	177.8977294	0.93965112	-8.72042076
6.26	626	0.011	-0.027	1.017	-0.1718874	0	0	177.8977294	0.93965112	-8.72042076
6.27	627	0.012	-0.027	1.017	-0.1718874	0.1145916	0	177.8919998	0.93965112	-8.72042076
6.28	628	0.011	-0.026	1.016	-0.1718874	0.1718874	0	177.8919998	0.93965112	-8.72042076
6.29	629	0.011	-0.027	1.017	-0.1145916	0.1718874	0	177.8919998	0.93965112	-8.72042076
6.3	630	0.011	-0.026	1.017	-0.1145916	0.2291832	-0.0572958	177.9091886	0.92246238	-8.72042076
6.31	631	0.011	-0.027	1.016	0	0.2291832	0	177.903459	0.92246238	-8.72042076
6.32	632	0.011	-0.026	1.017	0	0.1718874	0	177.903459	0.92246238	-8.72042076
6.33	633	0.011	-0.027	1.017	0	0.1145916	-0.0572958	177.903459	0.9167328	-8.72042076
6.34	634	0.011	-0.026	1.019	0	0.1718874	-0.0572958	177.903459	0.9167328	-8.72042076
6.35	635	0.01	-0.026	1.018	0	0.1718874	0	177.9263773	0.89954406	-8.72042076
6.36	636	0.011	-0.027	1.021	-0.1145916	0.1718874	-0.0572958	177.9263773	0.89381448	-8.72042076
6.37	637	0.01	-0.027	1.02	-0.1145916	0.1718874	-0.1145916	177.9263773	0.89381448	-8.72042076
6.38	638	0.011	-0.026	1.021	-0.0572958	0.286479	0	177.9206477	0.8880849	-8.72042076
6.39	639	0.011	-0.027	1.019	-0.0572958	0.286479	0	177.9206477	0.8880849	-8.72042076
6.4	640	0.01	-0.027	1.018	-0.0572958	0.1718874	0	177.9321069	0.87089616	-8.72042076
6.41	641	0.011	-0.028	1.018	-0.1718874	0.286479	0	177.9263773	0.87089616	-8.71469118
6.42	642	0.011	-0.027	1.019	-0.1145916	0.1718874	-0.0572958	177.9263773	0.86516658	-8.71469118
6.43	643	0.011	-0.027	1.019	-0.2291832	0.2291832	0	177.9263773	0.86516658	-8.71469118
6.44	644	0.01	-0.027	1.017	-0.2291832	0.1145916	0	177.9206477	0.86516658	-8.71469118
6.45	645	0.011	-0.027	1.015	-0.1718874	0.0572958	0	177.9263773	0.85370742	-8.71469118
6.46	646	0.01	-0.027	1.015	-0.3437748	0.1145916	0	177.9263773	0.85370742	-8.71469118
6.47	647	0.01	-0.028	1.016	-0.2291832	0	0	177.9206477	0.85370742	-8.71469118
6.48	648	0.01	-0.026	1.016	-0.1145916	0.0572958	0	177.9206477	0.85370742	-8.71469118
6.49	649	0.01	-0.026	1.017	-0.0572958	0.1718874	0	177.9206477	0.85370742	-8.71469118
6.5	650	0.01	-0.027	1.018	0.0572958	0	0	177.9550252	0.82505952	-8.72042076
6.51	651	0.01	-0.028	1.016	-0.1145916	-0.1145916	0	177.9492956	0.82505952	-8.72042076
6.52	652	0.011	-0.028	1.017	-0.0572958	-0.0572958	0	177.9492956	0.82505952	-8.72042076
6.53	653	0.011	-0.028	1.015	0.0572958	0	0.0572958	177.9492956	0.82505952	-8.72042076
6.54	654	0.01	-0.029	1.016	0.8021412	0.0572958	0.0572958	177.9607548	0.82505952	-8.72042076
6.55	655	0.01	-0.021	1.017	0.1718874	-0.286479	0.0572958	177.9607548	0.8307891	-8.72042076
6.56	656	0.011	-0.032	1.021	0.5156622	-0.4583664	0.0572958	177.9664844	0.83651868	-8.72042076
6.57	657	0.01	-0.027	1.021	0.1145916	-0.3437748	0.1145916	177.9664844	0.83651868	-8.72042076
6.58	658	0.011	-0.029	1.019	0.286479	-0.2291832	0	177.972214	0.84224826	-8.72615034
6.59	659	0.011	-0.029	1.014	0	-0.2291832	0.0572958	177.972214	0.84224826	-8.72615034
6.6	660	0.011	-0.027	1.016	0.0572958	-0.286479	0.0572958	177.9894027	0.8307891	-8.72615034
6.61	661	0.012	-0.032	1.017	0	-0.1718874	0.0572958	177.9894027	0.8307891	-8.72615034
6.62	662	0.008	-0.02	1.014	-0.2291832	-0.1718874	0.0572958	177.9836731	0.83651868	-8.72615034
6.63	663	0.011	-0.03	1.014	-0.1145916	-0.1718874	0	177.9836731	0.83651868	-8.72615034
6.64	664	0.011	-0.029	1.014	-0.1718874	-0.1145916	0	177.9836731	0.83651868	-8.72615034
6.65	665	0.01	-0.028	1.016	-0.0572958	0	0	177.9836731	0.82505952	-8.72615034
6.66	666	0.011	-0.029	1.019	0	0	0	177.9836731	0.82505952	-8.72615034
6.67	667	0.011	-0.027	1.019	-0.0572958	0.1145916	-0.0572958	177.9836731	0.82505952	-8.72615034
6.68	668	0.011	-0.028	1.02	0.0572958	0	0	177.9836731	0.82505952	-8.72615034
6.69	669	0.01	-0.028	1.02	0.1145916	0	-0.0572958	177.9836731	0.82505952	-8.72615034
6.7	670	0.01	-0.029	1.02	0.2291832	0.1145916	0	177.9836731	0.81360036	-8.72615034
6.71	671	0.011	-0.028	1.019	0.2291832	0.2291832	-0.0572958	177.9894027	0.80787078	-8.72615034
6.72	672	0.011	-0.028	1.019	0.286479	0.2291832	0	177.9894027	0.80787078	-8.72042076
6.73	673	0.01	-0.029	1.019	0.2291832	0.1145916	0	177.9951323	0.80787078	-8.72042076
6.74	674	0.011	-0.028	1.017	0.2291832	0.1145916	0	177.9951323	0.8021412	-8.72042076
6.75	675	0.01	-0.028	1.016	0.2291832	0.1145916	0	178.0008619	0.79641162	-8.72042076
6.76	676	0.01	-0.027	1.016	0.286479	0.1145916	0	178.0008619	0.79068204	-8.72042076
6.77	677	0.011	-0.029	1.017	0.2291832	0.1145916	0	178.0065914	0.79068204	-8.72042076
6.78	678	0.011	-0.027	1.016	0.2291832	0.1145916	0	178.0065914	0.79068204	-8.72042076
6.79	679	0.011	-0.028	1.014	0.2291832	0.2291832	0	178.012321	0.79068204	-8.72042076
6.8	680	0.011	-0.028	1.014	0.3437748	0.1145916	0	178.0180506	0.78495246	-8.72042076
6.81	681	0.01	-0.028	1.019	0.1718874	0	0	178.0180506	0.78495246	-8.72042076
6.82	682	0.01	-0.028	1.019	0.0572958	0	0	178.0180506	0.78495246	-8.72042076
6.83	683	0.011	-0.029	1.021	0.0572958	0	0.0572958	178.0180506	0.78495246	-8.72042076
6.84	684	0.009	-0.028	1.019	0	-0.0572958	0	178.0180506	0.78495246	-8.72042076
6.85	685	0.01	-0.028	1.019	0	-0.0572958	0	178.0237802	0.77922288	-8.72042076
6.86	686	0.011	-0.028	1.019	0	0	0	178.0237802	0.77922288	-8.72042076
6.87	687	0.01	-0.028	1.018	0	0	0	178.0237802	0.77922288	-8.72042076
6.88	688	0.01	-0.027	1.018	0	0.0572958	0.0572958	178.0237802	0.77922288	-8.72042076
6.89	689	0.01	-0.027	1.017	0	0	0	178.0237802	0.77922288	-8.72042076
6.9	690	0.01	-0.028	1.017	0	0.0572958	-0.0572958	178.0237802	0.7734933	-8.72042076
6.91	691	0.011	-0.028	1.017	0	0	0	178.0237802	0.7734933	-8.72042076
6.92	692	0.011	-0.028	1.017	0	0	0	178.0237802	0.7734933	-8.72042076
6.93	693	0.011	-0.028	1.019	0	0.0572958	0	178.0237802	0.7734933	-8.72042076
6.94	694	0.01	-0.028	1.019	0	-0.0572958	-0.0572958	178.0237802	0.7734933	-8.72042076
6.95	695	0.01	-0.028	1.019	0	-0.0572958	0	178.0180506	0.76203414	-8.72042076
6.96	696	0.01	-0.028	1.018	0	0	0	178.0180506	0.76203414	-8.72042076
6.97	697	0.01	-0.027	1.018	0.0572958	0	0	178.0237802	0.76203414	-8.72042076
