TimeStamp(s)	FrameCounter	AccX	AccY	AccZ	GyrX	GyrY	GyrZ	EulerX	EulerY	EulerZ
0.01	1	-0.035	-1.026	0.028	-15.5844576	56.436363	0.8021412	83.50289892	4.93316838	-56.0925882
0.02	2	-0.031	-1.02	0.041	-8.4797784	16.615782	2.4064236	83.42841438	4.92170922	-55.92643038
0.03	3	-0.038	-1.027	0.046	-8.307891	20.912967	3.151269	83.35965942	4.90452048	-55.71443592
0.04	4	-0.038	-1.035	0.044	-8.1932994	24.9809688	3.6096354	83.29090446	4.89306132	-55.46806398
0.05	5	-0.036	-1.041	0.032	-8.1360036	29.5646328	3.8388186	83.26798614	4.83576552	-55.13574834
0.06	6	-0.026	-1.042	0.021	-8.307891	34.1482968	3.7815228	83.21069034	4.83003594	-54.79770312
0.07	7	-0.013	-1.028	0.008	-8.5370742	39.1903272	3.8388186	83.15339454	4.82430636	-54.40809168
0.08	8	0.004	-1.009	-0.006	-8.1360036	43.1437374	4.0680018	83.10182832	4.82430636	-53.9726436
0.09	9	0.022	-0.995	-0.007	-6.5317212	46.2377106	4.1252976	83.06745084	4.82430636	-53.5142772
0.1	10	0.038	-0.987	-0.01	-5.8441716	47.0971476	4.1825934	83.05599168	4.8128472	-53.03299248
0.11	11	0.056	-0.977	-0.011	-4.870143	47.3263308	4.0680018	83.03880294	4.8128472	-52.56316692
0.12	12	0.069	-0.973	-0.01	-4.6982556	46.982556	3.8388186	83.0216142	4.81857678	-52.09334136
0.13	13	0.079	-0.97	-0.011	-4.4117766	45.9512316	3.437748	83.01015504	4.83003594	-51.63497496
0.14	14	0.089	-0.971	-0.007	-3.4950438	44.690724	2.9793816	83.00442546	4.8414951	-51.18806772
0.15	15	0.097	-0.976	-0.004	-2.8074942	43.2010332	2.4637194	83.02734378	4.85295426	-50.75261964
0.16	16	0.11	-0.983	0	-2.1772404	41.4248634	1.8334656	83.03307336	4.87587258	-50.34008988
0.17	17	0.125	-0.989	-0.001	-0.9167328	38.9038482	1.3178034	83.0502621	4.8987909	-49.95620802
0.18	18	0.139	-0.995	-0.001	0	36.8984952	0.8021412	83.07891	4.92170922	-49.5895149
0.19	19	0.148	-0.994	0	0.4583664	33.9764094	0.4583664	83.1075579	4.95035712	-49.25146968
0.2	20	0.156	-0.991	0	0.5156622	30.4813656	0	83.15339454	4.99619376	-48.95353152
0.21	21	0.159	-0.989	-0.001	0.6302538	26.6998428	-0.2291832	83.18204244	5.02484166	-48.68997084
0.22	22	0.159	-0.992	-0.003	1.2605076	22.6891368	-0.286479	83.21069034	5.04775998	-48.46651722
0.23	23	0.155	-0.994	-0.003	1.4896908	18.7930224	-0.4583664	83.23933824	5.0706783	-48.28317066
0.24	24	0.15	-1.001	-0.003	1.3178034	15.0687954	-0.8021412	83.26225656	5.09359662	-48.13420158
0.25	25	0.143	-1.006	-0.005	0.8021412	10.1986524	-1.432395	83.33101152	5.156622	-48.03679872
0.26	26	0.135	-1.013	-0.006	0.3437748	6.875496	-2.1772404	83.34247068	5.1852699	-47.96804376
0.27	27	0.125	-1.016	-0.007	-0.2291832	4.010706	-2.9793816	83.34247068	5.21964738	-47.93366628
0.28	28	0.115	-1.02	-0.009	-0.8021412	1.3750992	-3.6669312	83.33101152	5.25402486	-47.92220712
0.29	29	0.109	-1.021	-0.011	-1.3178034	-1.0886202	-4.2398892	83.31955236	5.29413192	-47.93939586
0.3	30	0.105	-1.023	-0.016	-1.6042824	-3.2658606	-4.6409598	83.35392984	5.33423898	-47.9565846
0.31	31	0.095	-1.02	-0.02	-1.4896908	-5.5003968	-4.6982556	83.3367411	5.38007562	-48.0138804
0.32	32	0.08	-1.02	-0.02	-1.9480572	-7.5057498	-4.870143	83.3080932	5.42018268	-48.09409452
0.33	33	0.072	-1.015	-0.024	-2.4637194	-9.2246238	-4.9274388	83.27371572	5.46028974	-48.19149738
0.34	34	0.062	-1.009	-0.026	-2.4064236	-10.0840608	-4.870143	83.23933824	5.5003968	-48.3003594
0.35	35	0.054	-1.008	-0.026	-2.3491278	-10.7143146	-5.156622	83.2507974	5.49466722	-48.37484394
0.36	36	0.046	-1.007	-0.028	-2.7501984	-11.172681	-5.3858052	83.21069034	5.54050386	-48.49516512
0.37	37	0.042	-1.003	-0.032	-2.6929026	-11.745639	-5.5003968	83.17631286	5.58061092	-48.6154863
0.38	38	0.036	-1.002	-0.034	-2.4064236	-12.2613012	-5.9014674	83.1362058	5.63217714	-48.74726664
0.39	39	0.037	-1.003	-0.034	-2.2345362	-12.4904844	-6.2452422	83.10182832	5.67801378	-48.87904698
0.4	40	0.037	-1.005	-0.035	-2.6356068	-12.5477802	-6.4171296	83.10182832	5.68374336	-48.97644984
0.41	41	0.036	-1.009	-0.036	-2.578311	-12.891555	-6.5317212	83.06172126	5.74103916	-49.11395976
0.42	42	0.035	-1.011	-0.037	-2.8074942	-13.1207382	-6.4171296	83.0216142	5.79260538	-49.25146968
0.43	43	0.033	-1.011	-0.037	-3.2658606	-13.1207382	-6.4171296	82.97577756	5.8441716	-49.3889796
0.44	44	0.031	-1.009	-0.037	-3.4950438	-12.605076	-6.302538	82.92994092	5.89000824	-49.52075994
0.45	45	0.033	-1.01	-0.037	-3.6669312	-11.745639	-6.2452422	82.91848176	5.89000824	-49.61243322
0.46	46	0.034	-1.009	-0.036	-4.0680018	-10.7716104	-6.2452422	82.86691554	5.94157446	-49.72702482
0.47	47	0.033	-1.007	-0.039	-4.3544808	-9.740286	-6.1306506	82.80961974	5.99314068	-49.83015726
0.48	48	0.034	-1.001	-0.044	-4.1825934	-8.4224826	-6.0733548	82.75805352	6.0447069	-49.92183054
0.49	49	0.039	-0.993	-0.039	-2.9793816	-7.2765666	-5.6149884	82.72367604	6.09054354	-50.00204466
0.5	50	0.045	-0.995	-0.027	-2.2345362	-6.4744254	-5.2139178	82.7637831	6.06189564	-50.01350382
0.51	51	0.048	-1.003	-0.021	-2.7501984	-5.8441716	-4.583664	82.72940562	6.1020027	-50.0765292
0.52	52	0.05	-1.009	-0.018	-4.3544808	-5.3858052	-3.7815228	82.6778394	6.13638018	-50.13955458
0.53	53	0.053	-1.013	-0.017	-5.72958	-5.5576926	-2.9220858	82.61481402	6.1592985	-50.19685038
0.54	54	0.052	-1.018	-0.016	-5.72958	-6.1879464	-2.1199446	82.55178864	6.17075766	-50.25987576
0.55	55	0.052	-1.022	-0.008	-5.156622	-7.1046792	-1.432395	82.57470696	6.1020027	-50.27133492
0.56	56	0.047	-1.025	0.003	-4.6982556	-8.307891	-0.9167328	82.52314074	6.1020027	-50.35727862
0.57	57	0.042	-1.024	0.008	-5.156622	-9.5683986	-0.4010706	82.46011536	6.09627312	-50.4489519
0.58	58	0.039	-1.02	0.003	-5.5003968	-10.886202	0	82.39708998	6.08481396	-50.55781392
0.59	59	0.037	-1.017	-0.003	-5.9587632	-11.8029348	0.1145916	82.32260544	6.06762522	-50.6781351
0.6	60	0.033	-1.015	-0.005	-6.4171296	-11.9748222	0.1145916	82.31687586	5.9874111	-50.74116048
0.61	61	0.032	-1.011	-0.004	-6.9327918	-11.9748222	0.0572958	82.23093216	5.97595194	-50.86148166
0.62	62	0.03	-1.01	-0.003	-7.448454	-12.1467096	-0.0572958	82.14498846	5.9587632	-50.98180284
0.63	63	0.027	-1.011	-0.003	-8.307891	-12.318597	-0.1145916	82.0475856	5.94730404	-51.1078536
0.64	64	0.025	-1.013	-0.007	-8.9381448	-12.5477802	-0.1145916	81.95018274	5.93584488	-51.23390436
0.65	65	0.02	-1.013	-0.01	-8.8235532	-13.1207382	0	81.9043461	5.85563076	-51.31411848
0.66	66	0.015	-1.013	-0.013	-8.307891	-13.8082878	0	81.80694324	5.83844202	-51.4516284
0.67	67	0.01	-1.012	-0.011	-7.9641162	-14.3812458	0	81.71526996	5.82125328	-51.5948679
0.68	68	0.007	-1.012	-0.007	-7.7922288	-15.0687954	-0.286479	81.62359668	5.80406454	-51.74383698
0.69	69	0.005	-1.013	-0.005	-7.6776372	-15.5271618	-0.572958	81.5319234	5.79260538	-51.89853564
0.7	70	0.002	-1.016	-0.005	-7.6776372	-15.5271618	-0.9167328	81.5032755	5.71239126	-52.00739766
0.71	71	0	-1.019	-0.006	-8.1360036	-14.9542038	-1.4896908	81.40587264	5.71239126	-52.15636674
0.72	72	0.002	-1.017	-0.009	-8.9954406	-14.0947668	-2.005353	81.3027402	5.71239126	-52.29960624
0.73	73	0.003	-1.012	-0.014	-9.453807	-12.8342592	-2.4637194	81.19387818	5.71812084	-52.43138658
0.74	74	0.006	-1.009	-0.017	-8.9954406	-12.2613012	-2.6929026	81.09074574	5.72958	-52.55743734
0.75	75	0.005	-1.007	-0.02	-8.3651868	-11.9748222	-2.6356068	81.06209784	5.6722842	-52.6261923
0.76	76	0.007	-1.003	-0.02	-8.0787078	-11.6310474	-2.5210152	80.97042456	5.68374336	-52.74651348
0.77	77	0.008	-1	-0.018	-8.1360036	-11.0580894	-2.3491278	80.8730217	5.68947294	-52.86110508
0.78	78	0.009	-0.998	-0.017	-8.021412	-10.4851314	-2.291832	80.78134842	5.7009321	-52.9699671
0.79	79	0.01	-0.997	-0.018	-7.8495246	-9.9121734	-2.3491278	80.69540472	5.70666168	-53.07309954
0.8	80	0.011	-0.997	-0.021	-7.6776372	-9.5111028	-2.4637194	80.68394556	5.6436363	-53.1132066
0.81	81	0.012	-0.998	-0.021	-7.5630456	-9.5111028	-2.6356068	80.59800186	5.65509546	-53.21060946
0.82	82	0.012	-0.998	-0.018	-7.5630456	-9.2246238	-2.6356068	80.51205816	5.6722842	-53.30801232
0.83	83	0.011	-0.997	-0.018	-7.3338624	-8.7089616	-2.5210152	80.43184404	5.68374336	-53.3996856
0.84	84	0.01	-0.998	-0.019	-6.9900876	-8.021412	-2.5210152	80.35162992	5.69520252	-53.4856293
0.85	85	0.01	-1	-0.02	-6.4171296	-7.2192708	-2.4637194	80.38027782	5.60925882	-53.4856293
0.86	86	0.011	-1.002	-0.012	-5.8441716	-6.9327918	-2.4064236	80.31152286	5.62644756	-53.56011384
0.87	87	0.011	-1.005	-0.014	-5.5576926	-6.7036086	-2.578311	80.24849748	5.6436363	-53.6288688
0.88	88	0.009	-1.008	-0.02	-5.3858052	-5.9014674	-2.8074942	80.19120168	5.66082504	-53.69189418
0.89	89	0.011	-1.007	-0.024	-5.3285094	-4.7555514	-2.6356068	80.13390588	5.67801378	-53.7434604
0.9	90	0.011	-1.006	-0.022	-5.156622	-4.4690724	-2.5210152	80.20839042	5.56915176	-53.69762376
0.91	91	0.01	-1.006	-0.017	-4.9847346	-4.4117766	-2.3491278	80.15109462	5.5863405	-53.7434604
0.92	92	0.012	-1.007	-0.01	-4.9274388	-4.7555514	-2.291832	80.0995284	5.60352924	-53.79502662
0.93	93	0.014	-1.008	0	-5.0993262	-5.6149884	-2.3491278	80.0422326	5.62071798	-53.85232242
0.94	94	0.015	-1.011	0.008	-5.6722842	-5.9587632	-2.6356068	79.97920722	5.63790672	-53.9153478
0.95	95	0.017	-1.016	0.01	-6.4171296	-5.156622	-3.2085648	80.03650302	5.5576926	-53.8866999
0.96	96	0.024	-1.019	0.014	-7.5630456	-3.7815228	-4.0680018	79.95055932	5.59207008	-53.93253654
0.97	97	0.027	-1.021	0.013	-8.6516658	-2.005353	-4.9274388	79.86461562	5.63790672	-53.96118444
0.98	98	0.029	-1.021	0.009	-9.453807	-0.859437	-5.443101	79.76148318	5.68947294	-53.98410276
0.99	99	0.038	-1.018	0.001	-9.6829902	0.859437	-5.5576926	79.66408032	5.74103916	-53.98410276
1	100	0.05	-1.004	-0.01	-8.9954406	3.0366774	-5.2712136	79.66408032	5.74103916	-53.90961822
1.01	101	0.057	-0.992	-0.026	-8.3651868	3.7815228	-4.6409598	79.5838662	5.79260538	-53.88097032
1.02	102	0.052	-0.986	-0.035	-7.5057498	3.724227	-3.9534102	79.50938166	5.83271244	-53.85232242
1.03	103	0.039	-0.983	-0.035	-6.589017	3.6669312	-3.2085648	79.44635628	5.8728195	-53.82367452
1.04	104	0.024	-0.979	-0.031	-6.302538	4.010706	-2.5210152	79.3833309	5.9014674	-53.78929704
1.05	105	0.013	-0.975	-0.028	-5.7868758	5.5003968	-2.2345362	79.4406267	5.82698286	-53.6575167
1.06	106	0.008	-0.977	-0.029	-5.2712136	7.2192708	-2.5210152	79.38906048	5.86136034	-53.58876174
1.07	107	0.002	-0.98	-0.032	-4.9847346	9.2246238	-2.86479	79.34895342	5.90719698	-53.50281804
1.08	108	-0.003	-0.986	-0.036	-4.583664	11.2299768	-2.86479	79.30884636	5.95303362	-53.3996856
1.09	109	-0.004	-0.996	-0.036	-4.297185	13.2353298	-2.4637194	79.27446888	5.99314068	-53.27363484
1.1	110	0.001	-1.003	-0.038	-4.3544808	15.1260912	-1.8907614	79.32030552	5.96449278	-53.07309954
1.11	111	0.01	-1.009	-0.042	-4.4117766	16.5011904	-1.2032118	79.29165762	5.99887026	-52.9126713
1.12	112	0.022	-1.016	-0.048	-4.6982556	17.18874	-0.286479	79.25728014	6.02751816	-52.74651348
1.13	113	0.031	-1.022	-0.055	-5.443101	16.7876694	0.9740286	79.21717308	6.0447069	-52.58035566
1.14	114	0.037	-1.025	-0.061	-6.1879464	15.756345	2.1772404	79.17133644	6.0447069	-52.41992742
1.15	115	0.038	-1.033	-0.067	-6.589017	14.32395	3.2658606	79.16560686	5.99314068	-52.24231044
1.16	116	0.04	-1.039	-0.068	-6.875496	12.3758928	4.297185	79.10831106	5.97022236	-52.1105301
1.17	117	0.042	-1.053	-0.068	-7.6776372	10.0840608	5.156622	79.0395561	5.93584488	-52.00166808
1.18	118	0.043	-1.067	-0.072	-8.9381448	7.1046792	5.9014674	78.9536124	5.88427866	-51.92145396
1.19	119	0.045	-1.074	-0.083	-10.4278356	3.2658606	6.5317212	78.85047996	5.82698286	-51.8813469
1.2	120	0.048	-1.072	-0.089	-11.6883432	-0.6302538	7.2192708	78.77599542	5.71812084	-51.84123984
1.21	121	0.048	-1.057	-0.09	-12.2613012	-4.9847346	7.5057498	78.64994466	5.63217714	-51.87561732
1.22	122	0.044	-1.037	-0.081	-12.891555	-8.021412	7.3338624	78.51243474	5.54623344	-51.94437228
1.23	123	0.033	-1.012	-0.072	-13.750992	-10.886202	6.6463128	78.36346566	5.46028974	-52.04177514
1.24	124	0.016	-0.992	-0.067	-15.4125702	-12.6623718	5.5003968	78.19730784	5.3858052	-52.15636674
1.25	125	0	-0.98	-0.062	-17.5325148	-13.0634424	4.3544808	78.05406834	5.2712136	-52.24231044
1.26	126	-0.008	-0.98	-0.058	-19.4232762	-12.605076	3.2658606	77.84780346	5.2139178	-52.36263162
1.27	127	-0.014	-0.991	-0.05	-20.6837838	-11.9175264	2.1199446	77.63007942	5.17381074	-52.47722322
1.28	128	-0.018	-1.017	-0.036	-22.4026578	-10.599723	0.9740286	77.39516664	5.13943326	-52.58035566
1.29	129	-0.014	-1.039	-0.029	-25.3820394	-8.59437	-0.1145916	77.13160596	5.12224452	-52.66629936
1.3	130	-0.003	-1.064	-0.028	-29.3354496	-8.021412	-0.6302538	76.87377486	5.0706783	-52.71786558
1.31	131	0.017	-1.075	-0.032	-33.6899304	-8.4224826	-0.3437748	76.52427048	5.05348956	-52.80380928
1.32	132	0.034	-1.069	-0.042	-35.6952834	-10.3705398	0.5156622	76.15757736	5.02484166	-52.90694172
1.33	133	0.044	-1.06	-0.05	-35.9817624	-13.2926256	1.718874	75.77942508	4.97327544	-53.03299248
1.34	134	0.053	-1.053	-0.05	-35.6379876	-15.8709366	2.8074942	75.40700238	4.91025006	-53.18196156
1.35	135	0.053	-1.037	-0.041	-35.0077338	-17.5325148	3.4950438	75.08041632	4.8128472	-53.32520106
1.36	136	0.047	-1.023	-0.036	-33.804522	-17.761698	3.7815228	74.72518236	4.73263308	-53.49135888
1.37	137	0.035	-1.006	-0.037	-32.7159018	-17.9335854	3.9534102	74.38140756	4.64668938	-53.6575167
1.38	138	0.031	-0.992	-0.041	-31.8564648	-18.2773602	3.7815228	74.04909192	4.56647526	-53.8294041
1.39	139	0.031	-0.983	-0.045	-31.1689152	-18.334656	3.437748	73.71677628	4.48053156	-53.99556192
1.4	140	0.03	-0.981	-0.043	-30.1948866	-18.048177	3.0366774	73.44748602	4.3831287	-54.13880142
1.41	141	0.029	-0.983	-0.037	-28.7051958	-17.5898106	2.5210152	73.14954786	4.30864416	-54.30495924
1.42	142	0.029	-0.989	-0.034	-28.4187168	-17.1314442	1.6615782	72.8516097	4.24561878	-54.46538748
1.43	143	0.029	-0.997	-0.037	-28.7051958	-16.1574156	0.7448454	72.54794196	4.18832298	-54.62008614
1.44	144	0.024	-1.005	-0.039	-28.074942	-15.1260912	0.1145916	72.25573338	4.14248634	-54.76332564
1.45	145	0.01	-1.003	-0.031	-27.3300966	-14.4385416	-0.4010706	72.03800934	4.0680018	-54.86645808
1.46	146	0	-0.996	-0.025	-26.7571386	-13.8655836	-0.4583664	71.75725992	4.02789474	-55.003968
1.47	147	-0.008	-0.987	-0.025	-25.8977016	-13.5218088	-0.3437748	71.48796966	3.98778768	-55.13574834
1.48	148	-0.012	-0.983	-0.028	-25.2674478	-12.7196676	0	71.22440898	3.94768062	-55.2617991
1.49	149	-0.013	-0.978	-0.027	-24.5798982	-11.3445684	0.3437748	70.97230746	3.91330314	-55.36493154
1.5	150	-0.009	-0.97	-0.033	-22.8610242	-10.0840608	0.572958	70.82333838	3.82162986	-55.41076818
1.51	151	-0.001	-0.961	-0.035	-21.0275586	-8.59437	0.572958	70.60561434	3.78725238	-55.4909823
1.52	152	0.009	-0.95	-0.039	-18.5638392	-7.0473834	0.572958	70.4165382	3.75860448	-55.55973726
1.53	153	0.016	-0.944	-0.038	-14.7823164	-5.72958	0.6875496	70.26183954	3.72995658	-55.61130348
1.54	154	0.023	-0.939	-0.04	-12.3758928	-5.6722842	0.6875496	70.13578878	3.70703826	-55.6628697
1.55	155	0.021	-0.93	-0.046	-9.7975818	-6.8182002	1.0313244	70.17016626	3.6096354	-55.65714012
1.56	156	0.009	-0.921	-0.04	-6.875496	-8.1360036	1.4896908	70.1014113	3.56952834	-55.72589508
1.57	157	-0.003	-0.92	-0.035	-4.5263682	-9.453807	2.005353	70.04984508	3.51796212	-55.81183878
1.58	158	-0.022	-0.921	-0.035	-3.8961144	-11.2872726	2.3491278	70.00400844	3.46066632	-55.90924164
1.59	159	-0.042	-0.916	-0.028	-2.7501984	-12.6623718	2.4637194	69.96963096	3.39764094	-56.02383324
1.6	160	-0.061	-0.927	-0.034	-2.578311	-12.6623718	2.1772404	70.1014113	3.21429438	-56.0352924
1.61	161	-0.077	-0.94	-0.059	-3.5523396	-12.3758928	1.0313244	70.06130424	3.16845774	-56.149884
1.62	162	-0.095	-0.954	-0.082	-3.4950438	-10.8289062	-0.5156622	70.02119718	3.13980984	-56.25301644
1.63	163	-0.11	-0.965	-0.1	-2.6356068	-8.9954406	-2.2345362	69.9868197	3.13408026	-56.3504193
1.64	164	-0.122	-0.97	-0.109	-1.5469866	-6.5317212	-3.5523396	69.96963096	3.14553942	-56.41917426
1.65	165	-0.138	-0.962	-0.077	1.0886202	-4.010706	-4.2398892	70.3019466	2.85333084	-56.25874602
1.66	166	-0.154	-0.956	-0.035	2.5210152	0.5156622	-4.4117766	70.3305945	2.89916748	-56.2644756
1.67	167	-0.16	-1.005	-0.076	-1.432395	7.5057498	-4.010706	70.31340576	2.96219286	-56.2071798
1.68	168	-0.091	-1.247	-0.361	-22.7464326	20.7983754	-2.4064236	70.08995214	3.04240698	-56.02383324
1.69	169	-0.022	-1.206	-0.324	-16.7303736	15.0114996	3.437748	69.9295239	3.05386614	-55.86913458
1.7	170	0.022	-1.144	-0.116	16.5011904	4.870143	9.5683986	70.16443668	2.96219286	-55.76600214
1.71	171	0.066	-1.164	-0.041	11.3445684	9.9121734	11.4018642	70.28475786	2.88770832	-55.62849222
1.72	172	0.085	-1.236	-0.222	-5.0420304	18.5065434	11.8029348	70.2446508	2.83041252	-55.41649776
1.73	173	0.069	-1.295	-0.352	-7.0473834	16.6730778	12.1467096	70.17589584	2.76738714	-55.22169204
1.74	174	0.012	-1.32	-0.348	-3.6096354	8.2505952	10.3705398	70.14724794	2.69863218	-55.10710044
1.75	175	-0.006	-1.325	-0.27	-3.2658606	2.1772404	6.4744254	70.13578878	2.62987722	-55.05553422
1.76	176	0.014	-1.339	-0.273	-3.9534102	2.1772404	1.5469866	70.09568172	2.62414764	-55.0326159
1.77	177	-0.016	-1.295	-0.325	-5.6722842	3.3804522	-0.572958	70.03838592	2.64133638	-54.99823842
1.78	178	-0.118	-1.175	-0.356	-3.4950438	1.6042824	-0.286479	70.00400844	2.64706596	-54.98677926
1.79	179	-0.238	-1.026	-0.328	3.7815228	3.6669312	-0.8021412	70.03838592	2.6642547	-54.95240178
1.8	180	-0.308	-0.911	-0.31	7.3911582	12.4904844	-2.291832	70.1587071	2.55539268	-54.76905522
1.81	181	-0.326	-0.837	-0.304	7.448454	26.069589	-3.8961144	70.23892122	2.67571386	-54.53987202
1.82	182	-0.293	-0.787	-0.3	5.0993262	41.7113424	-4.8128472	70.30767618	2.84760126	-54.16171974
1.83	183	-0.239	-0.747	-0.297	1.8907614	52.998615	-4.583664	70.34205366	3.05386614	-53.68043502
1.84	184	-0.153	-0.716	-0.29	-2.4637194	59.6449278	-4.0680018	70.34205366	3.27731976	-53.13039534
1.85	185	-0.03	-0.718	-0.291	-8.307891	64.0567044	-3.8961144	70.2732987	3.50650296	-52.5402486
1.86	186	0.107	-0.771	-0.318	-12.4904844	63.2545632	-2.86479	70.17589584	3.72995658	-51.95583144
1.87	187	0.235	-0.872	-0.355	-15.5271618	57.6395748	-0.4010706	70.0441155	3.90757356	-51.41725092
1.88	188	0.317	-0.974	-0.373	-16.902261	50.0765292	1.8907614	69.900876	4.04508348	-50.94169578
1.89	189	0.342	-1.03	-0.367	-17.2460358	42.0551172	2.3491278	69.74617734	4.1539455	-50.54062518
1.9	190	0.318	-1.019	-0.344	-15.4125702	34.950438	1.0313244	69.60293784	4.30291458	-50.23122786
1.91	191	0.242	-0.985	-0.31	-10.8289062	29.5646328	-1.2032118	69.51126456	4.40604702	-49.95620802
1.92	192	0.148	-0.965	-0.269	-5.8441716	26.8717302	-4.5263682	69.46542792	4.53782736	-49.72129524
1.93	193	0.08	-0.947	-0.228	-1.8907614	26.8717302	-6.9327918	69.45969834	4.68679644	-49.49211204
1.94	194	0.033	-0.932	-0.203	-0.1145916	29.2781538	-8.4224826	69.47688708	4.85868384	-49.25146968
1.95	195	0.013	-0.926	-0.19	0.286479	33.6899304	-8.8235532	69.5284533	5.01911208	-48.94207236
1.96	196	0.015	-0.927	-0.19	-0.5156622	38.388186	-8.1932994	69.55137162	5.21964738	-48.60975672
1.97	197	0.024	-0.93	-0.2	-2.005353	42.7426668	-6.8182002	69.5571012	5.42018268	-48.23160444
1.98	198	0.033	-0.926	-0.219	-3.8388186	46.1804148	-4.7555514	69.55137162	5.6149884	-47.8133451
1.99	199	0.051	-0.908	-0.234	-5.5003968	48.1857678	-2.5210152	69.53418288	5.79260538	-47.37216744
2	200	0.069	-0.883	-0.245	-6.302538	49.1597964	-0.4010706	69.52272372	5.94157446	-46.90234188
2.01	201	0.088	-0.865	-0.246	-6.1879464	49.274388	0.7448454	69.4998054	6.09627312	-46.4382459
2.02	202	0.111	-0.86	-0.241	-5.7868758	48.9306132	0.9167328	69.48261666	6.23951262	-45.97414992
2.03	203	0.141	-0.869	-0.237	-5.7868758	48.0138804	0.5156622	69.4711575	6.3884817	-45.5215131
2.04	204	0.165	-0.88	-0.236	-6.1306506	46.2377106	-0.0572958	69.44823918	6.53745078	-45.08606502
2.05	205	0.183	-0.887	-0.234	-6.4171296	43.0864416	-0.286479	69.43105044	6.69787902	-44.690724
2.06	206	0.19	-0.887	-0.23	-5.7868758	38.388186	-0.2291832	69.4138617	6.82392978	-44.32976046
2.07	207	0.184	-0.884	-0.218	-3.6669312	32.6013102	0.1718874	69.40813212	6.92706222	-44.02036314
2.08	208	0.163	-0.882	-0.205	-0.6302538	26.4706596	1.0886202	69.42532086	7.00154676	-43.76826162
2.09	209	0.143	-0.872	-0.189	2.5210152	20.626488	2.0626488	69.47688708	7.0473834	-43.56772632
2.1	210	0.118	-0.874	-0.167	5.3285094	17.475219	2.578311	69.59147868	7.07030172	-43.3729206
2.11	211	0.099	-0.876	-0.138	6.875496	14.9542038	2.4637194	69.68315196	7.09894962	-43.22395152
2.12	212	0.084	-0.88	-0.117	8.9954406	13.4072172	1.3178034	69.7862844	7.12759752	-43.09217118
2.13	213	0.07	-0.881	-0.099	11.8602306	14.0947668	-0.4010706	69.92379432	7.17916374	-42.96039084
2.14	214	0.074	-0.885	-0.086	13.750992	15.6417534	-2.291832	70.07849298	7.2479187	-42.81715134
2.15	215	0.087	-0.893	-0.081	15.2406828	17.7044022	-3.6096354	70.3019466	7.32240324	-42.63953436
2.16	216	0.106	-0.914	-0.08	16.615782	18.6784308	-4.297185	70.48529316	7.42553568	-42.47337654
2.17	217	0.125	-0.942	-0.075	16.7303736	17.3606274	-4.0680018	70.6743693	7.51720896	-42.32440746
2.18	218	0.149	-0.961	-0.056	15.8709366	14.32395	-2.7501984	70.85198628	7.58596392	-42.19262712
2.19	219	0.174	-0.975	-0.037	14.037471	9.9121734	-0.8021412	71.00668494	7.62607098	-42.10095384
2.2	220	0.203	-0.976	-0.031	12.4904844	5.3858052	1.4896908	71.26451604	7.66617804	-42.02073972
2.21	221	0.233	-0.988	-0.036	12.2040054	0.859437	3.2085648	71.3905668	7.64325972	-42.00355098
2.22	222	0.265	-1.017	-0.042	12.5477802	-3.2658606	4.0680018	71.51661756	7.5916935	-42.02073972
2.23	223	0.295	-1.07	-0.039	12.2613012	-7.6203414	4.010706	71.63693874	7.5343977	-42.07803552
2.24	224	0.312	-1.124	-0.033	11.1153852	-13.464513	3.6096354	71.7343416	7.46564274	-42.1983567
2.25	225	0.321	-1.175	-0.037	9.740286	-20.8556712	3.151269	71.84320362	7.40261736	-42.38743284
2.26	226	0.329	-1.212	-0.061	9.740286	-27.6738714	3.151269	71.91768816	7.29375534	-42.63953436
2.27	227	0.325	-1.239	-0.085	11.5164558	-33.518043	2.291832	71.99790228	7.17916374	-42.94893168
2.28	228	0.312	-1.261	-0.121	12.318597	-37.9298196	0.4010706	72.08384598	7.07030172	-43.30989522
2.29	229	0.284	-1.278	-0.171	13.8655836	-41.539455	-2.9793816	72.18124884	6.98435802	-43.7166954
2.3	230	0.232	-1.306	-0.226	17.1314442	-44.0604702	-7.2765666	72.31302918	6.93852138	-44.15787306
2.31	231	0.173	-1.308	-0.246	21.0848544	-45.7793442	-11.45916	72.479187	6.92706222	-44.62769862
2.32	232	0.139	-1.268	-0.204	25.0955604	-47.6701056	-13.6936962	72.6797223	6.92706222	-45.12617208
2.33	233	0.141	-1.179	-0.158	26.7571386	-48.5295426	-12.318597	72.89744634	6.92133264	-45.62464554
2.34	234	0.179	-1.094	-0.152	28.5906042	-49.5035712	-8.1932994	73.13235912	6.86976642	-46.123119
2.35	235	0.219	-1.036	-0.175	29.4500412	-51.5089242	-2.9793816	73.38446064	6.78382272	-46.62732204
2.36	236	0.245	-0.992	-0.217	28.9916748	-54.8320806	2.005353	73.625103	6.62912406	-47.14298424
2.37	237	0.253	-0.971	-0.256	28.5906042	-60.2751816	6.2452422	73.86001578	6.42285918	-47.70448308
2.38	238	0.248	-0.973	-0.254	26.929026	-65.1453246	7.6776372	74.07773982	6.1879464	-48.31181856
2.39	239	0.223	-0.985	-0.3	22.5745452	-68.75496	6.0733548	74.24962722	5.96449278	-48.95353152
2.4	240	0.16	-0.978	-0.414	14.7823164	-74.8283148	2.578311	74.3126526	5.76968706	-49.6754586
2.41	241	0.053	-0.947	-0.508	9.7975818	-87.376095	-1.432395	74.3413005	5.57488134	-50.52343644
2.42	242	-0.028	-0.934	-0.507	6.589017	-96.1996482	-4.7555514	74.32984134	5.39153478	-51.46308756
2.43	243	-0.07	-0.942	-0.502	1.0313244	-97.1736768	-8.59437	74.26681596	5.2425657	-52.41992742
2.44	244	-0.076	-0.975	-0.484	-3.7815228	-92.1889422	-13.2353298	74.15795394	5.14516284	-53.3423898
2.45	245	-0.065	-1.018	-0.461	-7.9068204	-84.1675302	-18.1627686	73.9975257	5.0993262	-54.2018268
2.46	246	-0.069	-1.055	-0.447	-11.172681	-75.630456	-22.4599536	73.8256383	5.12224452	-54.99250884
2.47	247	-0.064	-1.061	-0.407	-11.172681	-69.614397	-23.9496444	73.6537509	5.17954032	-55.72589508
2.48	248	-0.044	-1.035	-0.361	-6.4744254	-65.317212	-21.0275586	73.53342972	5.2139178	-56.41344468
2.49	249	-0.019	-0.998	-0.308	0.6875496	-60.8481396	-14.5531332	73.49332266	5.19672906	-57.0379689
2.5	250	-0.01	-0.979	-0.256	7.1046792	-58.728195	-7.7922288	73.52770014	5.10505578	-57.61665648
2.51	251	-0.02	-0.979	-0.202	11.0580894	-59.3584488	-1.145916	73.5964551	4.96754586	-58.1838849
2.52	252	-0.042	-0.985	-0.15	12.3758928	-61.3638018	4.1252976	73.6823988	4.77274014	-58.76257248
2.53	253	-0.063	-0.976	-0.12	11.0580894	-63.7129296	7.448454	73.75688334	4.54355694	-59.35271922
2.54	254	-0.087	-0.955	-0.107	8.307891	-65.4890994	8.6516658	73.80271998	4.297185	-59.95432512
2.55	255	-0.104	-0.92	-0.109	5.6722842	-65.2026204	8.4224826	73.8542862	4.02216516	-60.53874228
2.56	256	-0.109	-0.878	-0.117	4.583664	-62.452422	6.9327918	73.87147494	3.80444112	-61.11742986
2.57	257	-0.11	-0.835	-0.118	3.9534102	-57.2385042	4.6409598	73.8829341	3.61536498	-61.65601038
2.58	258	-0.113	-0.799	-0.116	2.8074942	-50.8213746	2.4637194	73.88866368	3.4663959	-62.1372951
2.59	259	-0.114	-0.771	-0.115	1.3178034	-43.7166954	0.7448454	73.8829341	3.3518043	-62.54982486
2.6	260	-0.122	-0.752	-0.11	-0.1718874	-35.523396	-0.3437748	73.90012284	3.22002396	-62.87068134
2.61	261	-0.137	-0.749	-0.103	-1.6042824	-26.7571386	-0.5156622	73.87147494	3.15699858	-63.12851244
2.62	262	-0.162	-0.755	-0.096	-2.6929026	-17.6471064	0.3437748	73.83709746	3.11116194	-63.29467026
2.63	263	-0.18	-0.771	-0.098	-3.0366774	-9.453807	2.5210152	73.80271998	3.05959572	-63.38061396
2.64	264	-0.18	-0.798	-0.091	-3.5523396	-1.4896908	5.3285094	73.7683425	3.0080295	-63.38061396
2.65	265	-0.169	-0.829	-0.082	-4.1825934	5.7868758	7.8495246	73.80271998	2.84187168	-63.24883362
2.66	266	-0.15	-0.867	-0.073	-5.3858052	11.5737516	9.740286	73.75688334	2.7788463	-63.1113237
2.67	267	-0.136	-0.904	-0.076	-6.4171296	15.9282324	10.5424272	73.69958754	2.71582092	-62.92797714
2.68	268	-0.126	-0.938	-0.078	-5.6722842	19.7097552	10.026765	73.64802132	2.66998428	-62.7102531
2.69	269	-0.122	-0.963	-0.085	-4.8128472	22.058883	8.5370742	73.60791426	2.64706596	-62.4810699
2.7	270	-0.112	-0.967	-0.085	-1.7761698	24.0069402	6.589017	73.67666922	2.56685184	-62.18313174
2.71	271	-0.082	-0.964	-0.072	2.4637194	26.4133638	4.8128472	73.7110467	2.58977016	-61.91384148
2.72	272	-0.054	-0.949	-0.063	7.2192708	28.361421	3.3231564	73.79126082	2.62987722	-61.63309206
2.73	273	-0.024	-0.918	-0.053	14.1520626	29.5646328	1.718874	73.94595948	2.68717302	-61.34661306
2.74	274	-0.01	-0.894	-0.03	20.5691922	31.0543236	-0.0572958	74.16368352	2.76738714	-61.04294532
2.75	275	0.001	-0.884	0.011	23.777757	33.3461556	-2.0626488	74.46735126	2.85333084	-60.7049001
2.76	276	0.017	-0.89	0.04	24.1215318	35.4661002	-3.7815228	74.72518236	2.97365202	-60.37258446
2.77	277	0.028	-0.908	0.04	23.6058696	36.669312	-4.870143	74.97728388	3.11116194	-60.02880966
2.78	278	0.03	-0.939	0.041	23.5485738	36.8411994	-5.3285094	75.2293854	3.24867186	-59.68503486
2.79	279	0.018	-0.992	0.032	24.0069402	35.9817624	-5.0993262	75.4872165	3.3804522	-59.35271922
2.8	280	-0.008	-1.045	0.016	24.350715	31.9710564	-3.6096354	75.8023434	3.45493674	-59.02040358
2.81	281	-0.05	-1.098	0.013	25.210152	24.9809688	-0.5156622	76.07163366	3.51796212	-58.77976122
2.82	282	-0.089	-1.132	0.015	24.1788276	17.8189938	2.9793816	76.32373518	3.52942128	-58.59641466
2.83	283	-0.101	-1.143	0.031	22.4026578	13.5218088	5.9587632	76.55864796	3.50077338	-58.45317516
2.84	284	-0.083	-1.135	0.055	20.2827132	14.1520626	7.3338624	76.77064242	3.46066632	-58.29274692
2.85	285	-0.057	-1.116	0.059	17.7044022	17.18874	7.0473834	77.0342031	3.38618178	-58.07502288
2.86	286	-0.047	-1.096	0.045	15.4125702	20.1681216	5.5003968	77.20036092	3.36899304	-57.868758
2.87	287	-0.05	-1.095	-0.007	13.3499214	23.7204612	3.0939732	77.34360042	3.38618178	-57.62811564
2.88	288	-0.044	-1.105	-0.074	12.5477802	28.934379	0.5156622	77.48683992	3.437748	-57.34163664
2.89	289	-0.011	-1.12	-0.138	15.183387	35.5806918	-0.572958	77.65872732	3.51223254	-56.99786184
2.9	290	0.037	-1.126	-0.169	22.2307704	40.1643558	0.5156622	77.90509926	3.5809875	-56.59679124
2.91	291	0.081	-1.128	-0.171	30.5959572	39.247623	3.437748	78.2374149	3.62109456	-56.2071798
2.92	292	0.1	-1.108	-0.176	32.7159018	37.0703826	7.2192708	78.58691928	3.61536498	-55.82902752
2.93	293	0.079	-1.089	-0.198	29.1635622	36.7266078	11.45916	78.90204618	3.56952834	-55.44514566
2.94	294	0.053	-1.113	-0.217	21.1421502	36.382833	14.896908	79.13695896	3.48358464	-55.05553422
2.95	295	0.04	-1.153	-0.26	11.0007936	33.7472262	16.6730778	79.25728014	3.37472262	-54.70030026
2.96	296	0.04	-1.184	-0.301	3.0366774	32.945085	16.902261	79.30311678	3.26013102	-54.3450663
2.97	297	0.047	-1.197	-0.344	-4.6982556	34.8358464	16.2720072	79.27446888	3.15699858	-53.9726436
2.98	298	0.053	-1.17	-0.381	-10.1986524	39.3049188	14.7250206	79.18852518	3.07105488	-53.56584342
2.99	299	0.044	-1.127	-0.408	-12.9488508	46.5241896	12.7769634	79.07393358	3.01948866	-53.09028828
3	300	0.016	-1.088	-0.443	-15.8136408	53.6861646	11.8029348	78.91350534	2.99084076	-52.55170776
3.01	301	-0.024	-1.048	-0.468	-18.9649098	57.6968706	12.891555	78.74161794	2.95646328	-51.96156102
3.02	302	-0.073	-1.023	-0.467	-20.912967	56.8947294	15.1260912	78.5525418	2.90489706	-51.38287344
3.03	303	-0.103	-1.013	-0.399	-18.7357266	54.0299394	16.5011904	78.3806544	2.83041252	-50.8213746
3.04	304	-0.098	-1.023	-0.356	-15.2406828	49.9619376	15.5271618	78.24314448	2.76738714	-50.3057124
3.05	305	-0.059	-1.037	-0.334	-11.8602306	45.0344988	11.8029348	78.1228233	2.71582092	-49.847346
3.06	306	-0.014	-1.061	-0.312	-7.2765666	41.1383844	6.1306506	78.0655275	2.72728008	-49.43481624
3.07	307	0.034	-1.095	-0.278	-2.291832	38.0444112	-0.286479	78.05406834	2.80176462	-49.06239354
3.08	308	0.094	-1.123	-0.235	0.8021412	36.4974246	-6.6463128	78.07698666	2.92781538	-48.71861874
3.09	309	0.158	-1.128	-0.199	0.8021412	36.7266078	-12.1467096	78.0941754	3.11116194	-48.3863031
3.1	310	0.211	-1.101	-0.183	-2.4064236	38.101707	-16.4438946	78.08271624	3.37472262	-48.05971704
3.11	311	0.241	-1.045	-0.185	-6.589017	39.9351726	-19.0795014	78.03115002	3.62682414	-47.71021266
3.12	312	0.251	-0.99	-0.185	-11.745639	40.9092012	-20.5118964	77.92801758	3.90184398	-47.3549787
3.13	313	0.254	-0.943	-0.186	-15.9282324	39.8778768	-20.6837838	77.78477808	4.17113424	-47.0112039
3.14	314	0.252	-0.916	-0.199	-19.480572	38.0444112	-20.3973048	77.6071611	4.43469492	-46.68461784
3.15	315	0.241	-0.902	-0.212	-22.7464326	35.4088044	-19.7097552	77.38370748	4.7269035	-46.39813884
3.16	316	0.215	-0.896	-0.229	-25.6685184	31.7418732	-19.1367972	77.13733554	4.96754586	-46.13457816
3.17	317	0.177	-0.889	-0.241	-27.6165756	28.1322378	-19.0795014	76.87377486	5.20818822	-45.90539496
3.18	318	0.135	-0.884	-0.24	-28.2468294	23.5485738	-19.7097552	76.6044846	5.443101	-45.7220484
3.19	319	0.08	-0.878	-0.225	-27.9603504	18.621135	-21.1421502	76.32946476	5.67801378	-45.59026806
3.2	320	0.043	-0.873	-0.197	-26.5279554	12.2613012	-23.491278	76.06590408	5.91292656	-45.5215131
3.21	321	0.01	-0.862	-0.17	-25.7258142	8.1360036	-24.923673	75.8023434	6.17075766	-45.51005394
3.22	322	0.003	-0.852	-0.147	-24.8663772	6.2452422	-25.210152	75.55024188	6.42285918	-45.51005394
3.23	323	0.008	-0.848	-0.121	-23.6631654	6.8182002	-24.1215318	75.30959952	6.66923112	-45.50432436
3.24	324	0.033	-0.86	-0.092	-22.6891368	9.3392154	-22.1161788	75.08041632	6.9041439	-45.47567646
3.25	325	0.08	-0.886	-0.072	-22.631841	13.2926256	-19.6524594	74.8856106	7.11040878	-45.38400318
3.26	326	0.135	-0.919	-0.062	-22.5172494	17.1314442	-16.7876694	74.67361614	7.31094408	-45.263682
3.27	327	0.188	-0.955	-0.058	-22.631841	19.194093	-14.2666542	74.4558921	7.48856106	-45.1204425
3.28	328	0.233	-0.975	-0.071	-23.3766864	20.1681216	-10.7716104	74.23816806	7.63753014	-44.95428468
3.29	329	0.257	-0.981	-0.088	-23.4339822	18.9649098	-8.6516658	74.02044402	7.7635809	-44.79958602
3.3	330	0.267	-0.975	-0.109	-23.204799	15.9282324	-6.9900876	73.8256383	7.9068204	-44.66780568
3.31	331	0.257	-0.96	-0.134	-21.7151082	12.2040054	-5.5003968	73.61364384	7.98703452	-44.57040282
3.32	332	0.23	-0.944	-0.144	-18.334656	8.3651868	-3.8961144	73.43602686	8.04433032	-44.50164786
3.33	333	0.191	-0.915	-0.144	-13.2926256	5.6149884	-2.1199446	73.3099761	8.0787078	-44.45581122
3.34	334	0.148	-0.88	-0.121	-6.016059	4.1825934	-0.0572958	73.2526803	8.09016696	-44.41570416
3.35	335	0.106	-0.856	-0.058	1.0886202	1.7761698	2.291832	73.38446064	8.03287116	-44.34121962
3.36	336	0.076	-0.858	-0.02	7.1046792	-2.1772404	4.4117766	73.45894518	7.98703452	-44.3469492
3.37	337	0.068	-0.875	-0.007	10.0840608	-4.1252976	5.6722842	73.55634804	7.92400914	-44.36986752
3.38	338	0.076	-0.906	0.001	12.032118	-4.2398892	6.4171296	73.67666922	7.85525418	-44.39278584
3.39	339	0.107	-0.96	0.02	13.178034	-2.6929026	6.5317212	73.80844956	7.78649922	-44.404245
3.4	340	0.166	-1.021	0.037	11.9748222	-1.0886202	6.589017	74.08919898	7.734933	-44.35267878
3.41	341	0.232	-1.072	0.026	8.59437	-1.2605076	6.7609044	74.18087226	7.66617804	-44.3469492
3.42	342	0.302	-1.111	-0.003	4.3544808	-4.3544808	7.1046792	74.22097932	7.58596392	-44.36986752
3.43	343	0.353	-1.135	-0.049	1.2605076	-9.8548776	7.2192708	74.2267089	7.49429064	-44.44435206
3.44	344	0.38	-1.15	-0.087	-3.0939732	-17.8762896	5.5576926	74.17514268	7.39688778	-44.59905072
3.45	345	0.382	-1.156	-0.088	-5.0420304	-23.3193906	2.8074942	74.12357646	7.35678072	-44.82823392
3.46	346	0.34	-1.154	-0.089	-7.8495246	-27.788463	-0.2291832	74.01471444	7.28802576	-45.09752418
3.47	347	0.258	-1.134	-0.091	-9.5683986	-30.5386614	-2.6356068	73.8829341	7.23645954	-45.40119192
3.48	348	0.172	-1.093	-0.092	-10.6570188	-31.2835068	-3.5523396	73.7396946	7.19635248	-45.71058924
3.49	349	0.105	-1.044	-0.086	-9.2819196	-29.6219286	-3.2658606	73.61364384	7.15051584	-46.0085274
3.5	350	0.066	-1	-0.074	-6.7609044	-25.210152	-1.8907614	73.59072552	7.05884256	-46.22052186
3.51	351	0.046	-0.957	-0.079	-4.2398892	-20.1681216	0.1145916	73.52197056	7.00727634	-46.41532758
3.52	352	0.062	-0.923	-0.086	-0.3437748	-13.3499214	2.578311	73.5105114	6.94998054	-46.53564876
3.53	353	0.098	-0.898	-0.088	1.8334656	-10.7143146	4.6409598	73.51624098	6.875496	-46.62732204
3.54	354	0.134	-0.882	-0.102	3.5523396	-10.886202	6.3598338	73.54488888	6.7895523	-46.71326574
3.55	355	0.173	-0.871	-0.13	4.8128472	-13.5791046	7.2765666	73.60791426	6.72079734	-46.82785734
3.56	356	0.212	-0.877	-0.168	6.875496	-19.480572	7.6203414	73.65948048	6.60047616	-46.99401516
3.57	357	0.249	-0.893	-0.206	8.1932994	-27.7311672	7.9068204	73.72250586	6.45150708	-47.2403871
3.58	358	0.263	-0.9	-0.199	7.9068204	-36.7839036	8.0787078	73.7683425	6.28534926	-47.57270274
3.59	359	0.253	-0.897	-0.188	6.4744254	-44.5188366	9.3392154	73.7969904	6.08481396	-47.97377334
3.6	360	0.23	-0.902	-0.198	5.443101	-53.6861646	12.4331886	73.81417914	5.86136034	-48.46078764
3.61	361	0.2	-0.901	-0.228	0.8021412	-56.8374336	15.2979786	73.77980166	5.56915176	-48.96499068
3.62	362	0.155	-0.894	-0.276	-4.4690724	-57.7541664	17.18874	73.69385796	5.25975444	-49.4749233
3.63	363	0.096	-0.911	-0.335	-8.021412	-60.16059	17.475219	73.57353678	4.94462754	-50.00777424
3.64	364	0.025	-0.953	-0.395	-13.0061466	-62.3378304	15.6990492	73.40164938	4.63523022	-50.55781392
3.65	365	-0.052	-0.988	-0.454	-18.9649098	-64.0567044	12.3758928	73.15527744	4.33156248	-51.1365015
3.66	366	-0.115	-1.019	-0.528	-25.4393352	-66.2339448	8.3651868	72.86306886	4.07373138	-51.74956656
3.67	367	-0.178	-1.045	-0.606	-32.658606	-68.8122558	3.7815228	72.49637574	3.85027776	-52.3970091
3.68	368	-0.217	-1.05	-0.65	-41.6540466	-71.5624542	-1.6042824	72.03800934	3.6669312	-53.09028828
3.69	369	-0.23	-1.048	-0.647	-45.83664	-69.2706222	-6.9327918	71.5338063	3.52942128	-53.7721083
3.7	370	-0.216	-1.056	-0.645	-49.6181628	-61.9367598	-12.7769634	70.9894962	3.44920716	-54.4023621
3.71	371	-0.173	-1.1	-0.671	-53.2277982	-52.712136	-17.8189938	70.42226778	3.45493674	-54.96386094
3.72	372	-0.147	-1.162	-0.694	-57.1812084	-43.8885828	-20.3973048	69.8149323	3.50077338	-55.44514566
3.73	373	-0.155	-1.199	-0.684	-61.6502808	-36.4401288	-19.3086846	69.16748976	3.55806918	-55.863405
3.74	374	-0.16	-1.227	-0.677	-65.4318036	-30.8251404	-13.6936962	68.48566974	3.57525792	-56.20145022
3.75	375	-0.147	-1.223	-0.676	-68.1247062	-27.6738714	-4.2398892	67.77520182	3.50077338	-56.48219964
3.76	376	-0.099	-1.206	-0.642	-74.0834694	-24.6944898	7.161975	67.01316768	3.34034514	-56.68846452
3.77	377	-0.043	-1.187	-0.603	-77.9795838	-25.2674478	16.8449652	66.21675606	3.08251404	-56.86035192
3.78	378	0.006	-1.158	-0.552	-81.646515	-27.5592798	25.5539268	65.38596696	2.73873924	-57.01505058
3.79	379	0.048	-1.108	-0.465	-83.8810512	-30.366774	30.9970278	64.53225954	2.32620948	-57.16401966
3.8	380	0.081	-1.066	-0.368	-88.0063488	-33.518043	34.2628884	63.64417464	1.87357266	-57.3244479
3.81	381	0.089	-0.996	-0.315	-94.53807	-40.4508348	35.6952834	62.68733478	1.3750992	-57.53071278
3.82	382	0.069	-0.904	-0.282	-97.2309726	-50.4775998	34.1482968	61.70184702	0.84224826	-57.82865094
3.83	383	0.049	-0.879	-0.285	-96.543423	-60.3324774	32.2575354	60.72208884	0.27501984	-58.2125328
3.84	384	-0.028	-0.925	-0.325	-100.4395374	-67.4371566	30.0229992	59.71368276	-0.30366774	-58.65944004
3.85	385	-0.104	-0.976	-0.379	-106.4555964	-66.749607	28.5333084	58.65944004	-0.89381448	-59.08915854
3.86	386	-0.17	-0.976	-0.373	-112.1278806	-63.7129296	29.3927454	57.53644236	-1.47250206	-59.49022914
3.87	387	-0.215	-0.928	-0.35	-116.4250656	-60.9627312	31.799169	56.3790672	-2.06837838	-59.83973352
3.88	388	-0.247	-0.881	-0.313	-116.310474	-56.8947294	35.8671708	55.21596246	-2.68144344	-60.12048294
3.89	389	-0.278	-0.828	-0.216	-116.8261362	-48.8733174	41.252976	54.04712814	-3.30023808	-60.29237034
3.9	390	-0.303	-0.746	-0.191	-113.5029798	-37.7579322	47.0971476	52.92413046	-3.93049188	-60.31528866
3.91	391	-0.334	-0.72	-0.231	-109.721457	-32.4294228	53.1705024	51.81259194	-4.5550161	-60.25799286
3.92	392	-0.361	-0.698	-0.318	-114.1332336	-23.8350528	59.6449278	50.64375762	-5.17381074	-60.08037588
3.93	393	-0.401	-0.661	-0.347	-113.7894588	-16.4438946	61.7075766	49.46346414	-5.76395748	-59.8168152
3.94	394	-0.408	-0.651	-0.319	-107.8879914	-4.6409598	60.733548	48.33473688	-6.26243094	-59.45585166
3.95	395	-0.393	-0.642	-0.285	-103.418919	9.8548776	58.9000824	47.25184626	-6.6749607	-58.98029652
3.96	396	-0.363	-0.637	-0.319	-98.2050012	23.5485738	54.6601932	46.19187396	-6.9327918	-58.43598642
3.97	397	-0.305	-0.651	-0.354	-94.7672532	31.9137606	48.6441342	45.15481998	-7.0760313	-57.86302842
3.98	398	-0.257	-0.657	-0.383	-92.3608296	37.9298196	41.8832298	44.14068432	-7.12186794	-57.2958
3.99	399	-0.211	-0.66	-0.453	-93.1629708	42.5134836	37.7579322	43.12081908	-7.09894962	-56.722842
4	400	-0.195	-0.687	-0.462	-93.105675	43.6021038	37.2995658	42.11814258	-7.06457214	-56.14415442
4.01	401	-0.205	-0.747	-0.449	-94.0224078	44.4615408	37.4714532	41.08681818	-7.00727634	-55.56546684
4.02	402	-0.193	-0.795	-0.459	-96.4288314	48.9306132	38.2735944	40.02684588	-6.90987348	-54.9466722
4.03	403	-0.182	-0.812	-0.46	-98.1477054	53.7434604	39.3622146	38.94395526	-6.77236356	-54.29350008
4.04	404	-0.23	-0.805	-0.43	-98.0331138	57.5249832	40.7946096	37.86106464	-6.60047616	-53.60595048
4.05	405	-0.299	-0.783	-0.401	-98.4914802	61.9940556	40.8519054	36.80109234	-6.40567044	-52.88975298
4.06	406	-0.363	-0.769	-0.383	-98.7779592	68.1247062	39.5913978	35.71247214	-6.12492102	-52.15063716
4.07	407	-0.408	-0.754	-0.381	-99.5801004	75.4012728	38.2735944	34.61239278	-5.7582279	-51.3943326
4.08	408	-0.418	-0.718	-0.396	-102.1011156	83.7091638	37.8725238	33.4893951	-5.31132066	-50.59792098
4.09	409	-0.4	-0.667	-0.407	-105.0804972	89.7252228	38.2735944	32.33774952	-4.80138804	-49.77286146
4.1	410	-0.363	-0.621	-0.406	-107.6588082	95.0537322	39.0184398	31.18610394	-4.26280752	-48.91342446
4.11	411	-0.275	-0.572	-0.433	-111.0965562	100.7833122	38.7319608	29.98289214	-3.63255372	-48.04825788
4.12	412	-0.149	-0.537	-0.527	-115.6229244	103.7626938	36.7839036	28.75103244	-2.94500412	-47.20028004
4.13	413	-0.055	-0.517	-0.603	-120.894138	103.8199896	34.0337052	27.4733361	-2.2345362	-46.38667968
4.14	414	0.011	-0.523	-0.661	-124.904844	102.1011156	30.7678446	26.16699186	-1.50114996	-45.6361047
4.15	415	0.083	-0.537	-0.682	-129.1447332	99.5228046	26.0122932	24.8377293	-0.75057498	-44.9485551
4.16	416	0.142	-0.551	-0.657	-132.8116644	97.7466348	18.1054728	23.47408926	0.02291832	-44.36413794
4.17	417	0.196	-0.568	-0.643	-135.3326796	99.121734	10.1986524	22.0875309	0.859437	-43.8599349
4.18	418	0.217	-0.576	-0.624	-137.50992	101.413566	1.9480572	20.68951338	1.75325148	-43.44740514
4.19	419	0.202	-0.575	-0.604	-138.942315	104.0491728	-5.2712136	19.2800367	2.71009134	-43.1150895
4.2	420	0.155	-0.587	-0.587	-140.4320058	107.3150334	-11.4018642	17.87056002	3.724227	-42.84579924
4.21	421	0.097	-0.569	-0.532	-141.4633302	112.4716554	-16.2720072	16.43816502	4.80711762	-42.63380478
4.22	422	0.053	-0.538	-0.535	-142.1508798	115.3364454	-20.8556712	14.98858128	5.93584488	-42.49056528
4.23	423	0	-0.489	-0.454	-140.4320058	114.4770084	-24.8090814	13.55618628	7.06457214	-42.41035116
4.24	424	0	-0.447	-0.396	-137.7391032	111.4976268	-29.1062664	12.1467096	8.18184024	-42.41035116
4.25	425	0.075	-0.388	-0.448	-135.4472712	106.3983006	-34.6066632	10.75442166	9.25900128	-42.49629486
4.26	426	0.159	-0.356	-0.31	-131.493861	93.2202666	-40.680018	9.37359288	10.21584114	-42.70828932
4.27	427	0.274	-0.337	-0.326	-128.342592	89.667927	-47.7274014	7.99849368	11.1440331	-43.01195706
4.28	428	0.391	-0.318	-0.296	-125.7069852	79.8703452	-54.2591226	6.62912406	11.9748222	-43.42448682
4.29	429	0.479	-0.329	-0.308	-122.2119414	66.5204238	-59.1865614	5.2712136	12.67956054	-43.92868986
4.3	430	0.528	-0.345	-0.24	-119.0606724	51.0505578	-60.5043648	3.94768062	13.25251854	-44.48445912
4.31	431	0.55	-0.361	-0.18	-116.310474	35.7525792	-58.4990118	2.62987722	13.62494124	-45.04022838
4.32	432	0.516	-0.357	-0.171	-114.5916	15.5271618	-53.3423898	1.34072172	13.78536948	-45.56162016
4.33	433	0.427	-0.328	-0.122	-111.3257394	0.3437748	-46.4668938	0.09740286	13.7796399	-46.03144572
4.34	434	0.316	-0.294	-0.083	-109.4922738	-11.8029348	-38.3308902	-1.10007936	13.64785956	-46.41532758
4.35	435	0.212	-0.251	-0.06	-106.4555964	-21.1421502	-30.5959572	-2.22880662	13.4358651	-46.71326574
4.36	436	0.134	-0.222	-0.017	-103.6481022	-27.0436176	-24.4080108	-3.32888598	13.14365652	-46.94817852
4.37	437	0.081	-0.195	-0.004	-101.9292282	-29.6219286	-19.194093	-4.40031744	12.82852962	-47.1257955
4.38	438	0.014	-0.155	-0.004	-100.6114248	-31.799169	-15.0114996	-5.443101	12.4904844	-47.24611668
4.39	439	-0.071	-0.109	-0.05	-100.1530584	-33.6326346	-11.1153852	-6.4744254	12.14098002	-47.3263308
4.4	440	-0.147	-0.069	-0.121	-102.6167778	-28.8770832	-6.3598338	-7.5057498	11.80866438	-47.34351954
4.41	441	-0.241	0.015	-0.259	-105.7680468	-19.6524594	-1.8907614	-8.57145168	11.6023995	-47.3263308
4.42	442	-0.369	0.136	-0.44	-106.7420754	-1.6615782	1.718874	-9.64861272	11.5737516	-47.2976829
4.43	443	-0.408	0.286	-0.601	-100.7833122	23.204799	4.1825934	-10.67420754	11.8029348	-47.28049416
4.44	444	-0.551	0.386	-0.795	-88.0636446	40.966497	5.3858052	-11.5737516	12.2040054	-47.28622374
4.45	445	-0.854	0.504	-1.019	-82.5632478	61.0773228	1.0886202	-12.44464776	12.75404508	-47.36643786
4.46	446	-0.967	0.582	-1.114	-73.911582	88.0063488	-4.5263682	-13.25251854	13.59056376	-47.57843232
4.47	447	-0.89	0.487	-1.102	-58.0406454	114.3624168	-10.1413566	-13.94006814	14.6677248	-47.91647754
4.48	448	-0.672	0.4	-1.052	-40.3362432	147.0783186	-11.9748222	-14.49010782	16.05428316	-48.36338478
4.49	449	-0.342	0.266	-1.032	-15.6990492	176.4137682	-6.8182002	-14.8109643	17.7330501	-48.8446695
4.5	450	-0.19	0.16	-0.868	-0.1718874	197.4986226	7.5630456	-14.9542038	19.61808192	-49.22855136
4.51	451	-0.164	0.092	-0.676	-1.4896908	208.0410498	28.1895336	-15.07452498	21.69218988	-49.4462754
4.52	452	-0.113	0.049	-0.473	-11.3445684	217.9532232	52.5975444	-15.21776448	23.9209965	-49.4462754
4.53	453	-0.044	0.074	-0.34	-19.3659804	231.3604404	77.9795838	-15.34954482	26.33887926	-49.2170922
4.54	454	-0.018	0.105	-0.208	-23.8350528	248.8356594	96.9444936	-15.4412181	28.98021564	-48.82748076
4.55	455	-0.07	0.015	-0.02	-22.345362	265.6233288	104.1637644	-15.48132516	31.78770984	-48.39203268
4.56	456	-0.137	-0.018	0.116	-16.6730778	289.8594522	96.7153104	-15.53289138	34.82438724	-48.11128326
4.57	457	-0.102	0.016	0.181	-16.5011904	314.6112378	79.7557536	-15.73915626	38.05014078	-48.09409452
4.58	458	0.042	0.064	0.161	-27.8457588	334.3782888	59.587632	-16.2720072	41.41340424	-48.42068058
4.59	459	0.295	0.204	-0.069	-39.7059894	345.9520404	45.263682	-17.14863294	44.8339635	-49.0452048
4.6	460	0.643	0.363	-0.341	-20.9702628	348.2438724	34.4920716	-18.08255448	48.25452276	-49.96766718
4.61	461	1.079	0.424	-0.294	-7.3338624	339.5922066	32.7731976	-18.9935577	51.56622	-51.00472116
4.62	462	1.559	0.486	-0.2	-24.637194	291.4637346	60.0459984	-19.69256646	54.50549454	-51.52038336
4.63	463	2.309	0.584	-0.558	-37.0130868	240.355881	121.4098002	-19.49776074	57.16401966	-50.79845628
4.64	464	2.686	0.382	-0.992	-51.7954032	223.5682116	192.800367	-18.14557986	59.88557016	-48.56964966
4.65	465	3.213	0.395	-1.005	-56.3217714	205.6346262	222.307704	-15.8709366	62.4810699	-45.29805948
4.66	466	3.16	0.41	-0.838	12.9488508	191.1960846	232.1625816	-12.0607659	64.88176392	-41.1670323
4.67	467	2.735	0.113	-1.154	39.3049188	192.6857754	227.0632554	-7.29375534	67.14494802	-36.36564426
4.68	468	1.935	-0.177	-1.251	20.9702628	216.4635324	212.280939	-2.1199446	69.45396876	-30.9970278
4.69	469	0.322	-0.174	-0.944	-15.5271618	261.6126228	194.80572	3.5236917	72.00936144	-24.81481098
4.7	470	0.236	0.876	-0.558	-60.1032942	316.2155202	104.0491728	7.66617804	75.0002022	-19.81288764
4.71	471	3.035	0.665	-0.505	-59.014674	307.7930376	-5.5576926	8.98971102	77.99677254	-17.78461632
4.72	472	3.723	1.262	-0.974	-145.531332	265.566033	-130.8063114	2.45226024	80.71832304	-22.8896721
4.73	473	3.947	1.266	0.665	-212.853897	304.6417686	-216.1197576	-17.22311748	83.4513327	-40.52531934
4.74	474	3.192	0.173	0.566	-9.3392154	340.050573	-198.0715806	-52.91840088	85.1988546	-76.23779148
4.75	475	3.917	-0.356	0.688	131.207382	251.7577452	-133.6138056	-84.44255004	84.91810518	-109.1771469
4.76	476	3.973	0.557	1.761	18.907614	175.0959648	-83.07891	-101.8432845	84.03574986	-126.8242533
4.77	477	3.99	1.433	0.276	14.9542038	49.2170922	-28.5333084	-105.5044861	83.65759758	-130.6516127
4.78	478	2.748	1.421	0.461	138.4839486	-76.4325972	26.1841806	-97.7752827	84.03002028	-124.3032381
4.79	479	0.919	0.448	0.504	118.4304186	-78.5525418	58.0406454	-89.19810144	84.62016702	-116.9063503
4.8	480	0.724	0.024	-0.045	58.728195	-66.176649	43.4302164	-80.83291464	84.98686014	-109.1083919
4.81	481	0.607	-0.28	-0.333	43.7739912	-42.8572584	19.8243468	-75.22365582	85.07853342	-103.9288516
4.82	482	0.546	-0.37	-0.186	9.5683986	-7.6203414	-11.745639	-74.66788656	84.9410235	-103.4647556
4.83	483	0.553	-0.354	0.035	-22.7464326	9.9121734	-30.7678446	-76.7477241	84.67746282	-105.3211396
4.84	484	0.68	-0.279	0.063	-42.1697088	6.4744254	-35.809875	-78.57546012	84.34514718	-106.7248867
4.85	485	0.792	-0.098	0.004	-31.5699858	-9.5683986	-34.7212548	-78.5238939	84.00137238	-106.3467344
4.86	486	0.893	0.039	-0.002	-8.7662574	-26.5852512	-31.2835068	-76.85658612	83.63467926	-104.5877533
4.87	487	1.002	0.146	0.074	-5.72958	-35.6952834	-30.366774	-74.60486118	83.24506782	-102.2672734
4.88	488	0.967	0.252	0.064	-10.4851314	-39.3622146	-34.4920716	-72.47345742	82.79816058	-100.0155485
4.89	489	0.765	0.222	0.077	-8.7089616	-41.4248634	-33.0596766	-70.40507904	82.34552376	-97.84403766
4.9	490	0.588	0.207	0.081	-12.8342592	-40.7946096	-26.9863218	-68.64609798	81.932994	-95.94754668
4.91	491	0.379	0.158	0.132	-11.172681	-36.4974246	-22.1734746	-67.04181558	81.58348962	-94.21148394
4.92	492	0.31	0.095	0.272	-17.9908812	-19.8816426	-24.5798982	-66.6636633	81.2740923	-93.6499851
4.93	493	0.323	0.052	0.321	-26.6998428	5.0420304	-32.8877892	-68.01584418	80.99907246	-94.74433488
4.94	494	0.413	0.115	0.268	-32.2575354	26.5852512	-44.9199072	-70.81187922	80.67821598	-97.24243176
4.95	495	0.539	0.28	0.249	-32.658606	43.9458786	-55.1758554	-74.81112606	80.28860454	-100.9551996
4.96	496	0.602	0.497	0.308	-31.6845774	60.1032942	-61.0773228	-79.18852518	79.84742688	-105.069038
4.97	497	0.679	0.653	0.336	-28.5333084	67.036086	-59.874111	-83.52581724	79.37760132	-109.1714173
4.98	498	0.833	0.685	0.295	-21.6578124	65.1453246	-54.6028974	-87.3187992	78.90777576	-112.7982415
4.99	499	0.906	0.601	0.241	-19.5378678	60.6762522	-46.1804148	-90.56174148	78.47805726	-115.8922147
5	500	1.02	0.53	0.119	-23.3193906	48.4722468	-36.382833	-93.11713416	78.08844582	-118.2585312
5.01	501	1.112	0.527	0.133	-26.5852512	38.7319608	-30.939732	-95.07092094	77.76758934	-119.9716756
5.02	502	1.214	0.488	0.078	-29.3354496	33.5753388	-26.0122932	-96.75541746	77.48683992	-121.3811523
5.03	503	1.287	0.479	-0.074	-37.1849742	27.1009134	-20.5118964	-98.19354204	77.25765672	-122.4697725
5.04	504	1.302	0.569	-0.144	-51.2224452	22.2880662	-17.475219	-99.53999334	77.062851	-123.3120208
5.05	505	1.334	0.614	-0.209	-48.8733174	19.2513888	-14.1520626	-100.6458023	76.89669318	-123.936545
5.06	506	1.365	0.599	-0.238	-43.3729206	9.7975818	-12.3758928	-101.3791885	76.75918326	-124.2402127
5.07	507	1.365	0.574	-0.249	-35.9244666	-2.5210152	-11.5737516	-101.5281576	76.65605082	-124.0167591
5.08	508	1.353	0.54	-0.275	-28.0176462	-13.0061466	-10.1986524	-101.1843828	76.58156628	-123.3693166
5.09	509	1.33	0.483	-0.285	-15.2406828	-18.7357266	-7.1046792	-100.5140219	76.54145922	-122.5213387
5.1	510	1.257	0.406	-0.233	-0.859437	-17.5325148	-2.8074942	-99.54572292	76.53572964	-121.5186622
5.11	511	1.148	0.292	-0.139	11.5737516	-12.2613012	0.9167328	-98.93838744	76.56437754	-121.0144592
5.12	512	1.05	0.213	-0.111	22.345362	-9.6829902	3.2085648	-98.33678154	76.6044846	-120.6305773
5.13	513	0.986	0.154	-0.037	28.3041252	-9.3392154	2.9220858	-97.689339	76.63886208	-120.2638842
5.14	514	0.956	0.106	0.065	29.3354496	-10.2559482	-0.4583664	-96.9731415	76.64459166	-119.8341657
5.15	515	0.929	0.092	0.153	25.7258142	-10.4278356	-3.4950438	-96.5720709	76.63886208	-119.6966558
5.16	516	0.916	0.102	0.194	17.9908812	-9.3965112	-3.8388186	-95.98765374	76.61021418	-119.2898556
5.17	517	0.919	0.109	0.191	13.5218088	-7.5630456	-1.4896908	-95.53501692	76.59875502	-118.9632695
5.18	518	0.914	0.113	0.169	7.9641162	-6.5317212	1.4896908	-95.19124212	76.61594376	-118.6939793
5.19	519	0.903	0.126	0.122	3.2658606	-4.6409598	3.2085648	-94.97924766	76.65032124	-118.5049031
5.2	520	0.899	0.122	0.083	0.1718874	-2.291832	2.7501984	-95.24853792	76.76491284	-118.7913821
5.21	521	0.896	0.127	0.05	-2.3491278	-1.0313244	1.3750992	-95.23134918	76.78210158	-118.7512751
5.22	522	0.893	0.151	0.012	-3.8388186	0.4010706	0.2291832	-95.28864498	76.78783116	-118.7684638
5.23	523	0.912	0.189	-0.036	-2.4064236	5.6722842	0.1145916	-95.55220566	76.78210158	-119.0148358
5.24	524	0.934	0.215	-0.036	2.578311	9.167328	2.291832	-95.92462836	76.79929032	-119.4216359
5.25	525	0.95	0.216	-0.065	4.9847346	8.4224826	5.3285094	-95.83295508	76.85085654	-119.3700697
5.26	526	0.954	0.218	-0.089	8.307891	5.9014674	7.734933	-96.03921996	76.9196115	-119.6680079
5.27	527	0.977	0.209	-0.11	10.4278356	4.1825934	9.5111028	-96.15954114	77.01128478	-119.8971911
5.28	528	0.993	0.204	-0.126	11.0007936	1.6042824	9.740286	-96.16527072	77.10868764	-120.0232418
5.29	529	1.011	0.174	-0.133	11.9175264	-0.9167328	8.4797784	-96.04494954	77.18890176	-120.0232418
5.3	530	1.033	0.157	-0.12	11.45916	-2.86479	6.7609044	-95.36312952	77.30349336	-119.4273655
5.31	531	1.055	0.156	-0.106	10.4851314	-4.2398892	5.3858052	-95.09383926	77.35505958	-119.2612077
5.32	532	1.067	0.167	-0.088	10.1413566	-6.302538	4.4117766	-94.73287572	77.4066258	-118.997647
5.33	533	1.061	0.191	-0.088	11.0580894	-8.5370742	2.9220858	-94.25732058	77.4352737	-118.6252243
5.34	534	1.047	0.208	-0.095	12.605076	-11.1153852	0.6875496	-93.63852594	77.44673286	-118.1267509
5.35	535	1.036	0.21	-0.094	13.9801752	-13.4072172	-2.4637194	-92.66449734	77.42954412	-117.2730434
5.36	536	1.032	0.194	-0.077	16.1001198	-14.2666542	-4.6409598	-91.86235614	77.38370748	-116.6256009
5.37	537	1.015	0.168	-0.048	17.7044022	-14.1520626	-6.016059	-91.06021494	77.3206821	-115.9838879
5.38	538	0.991	0.14	-0.04	18.621135	-13.6364004	-6.7609044	-90.27526248	77.25192714	-115.3765525
5.39	539	0.971	0.12	-0.045	18.1627686	-13.1207382	-7.1046792	-89.53041708	77.1774426	-114.7978649
5.4	540	0.958	0.108	-0.041	15.9855282	-11.9175264	-7.7922288	-88.74546462	77.12587638	-114.1618815
5.41	541	0.955	0.104	-0.042	12.318597	-10.599723	-8.8235532	-88.1782362	77.02847352	-113.7092447
5.42	542	0.955	0.127	-0.043	8.6516658	-10.1413566	-10.026765	-87.67403316	76.92534108	-113.2852558
5.43	543	0.955	0.152	-0.042	7.3338624	-10.0840608	-11.172681	-87.19847802	76.8050199	-112.8784556
5.44	544	0.949	0.173	-0.042	6.5317212	-9.6256944	-12.3758928	-86.76302994	76.67323956	-112.4945737
5.45	545	0.957	0.175	-0.038	6.875496	-9.453807	-12.6623718	-86.25309732	76.55291838	-112.0419369
5.46	546	0.955	0.17	-0.037	6.1306506	-8.6516658	-12.4904844	-85.87494504	76.42113804	-111.7210804
5.47	547	0.958	0.166	-0.048	4.5263682	-6.875496	-12.3758928	-85.58846604	76.29508728	-111.4747085
5.48	548	0.965	0.164	-0.062	3.0939732	-5.0993262	-11.745639	-85.38793074	76.16903652	-111.3028211
5.49	549	0.962	0.186	-0.059	1.2032118	-3.8961144	-12.032118	-85.26187998	76.04871534	-111.1824999
5.5	550	0.97	0.199	-0.058	0.1718874	-3.2658606	-12.4904844	-84.9696714	75.92839416	-110.8845617
5.51	551	0.97	0.218	-0.058	-0.6875496	-3.3231564	-13.0061466	-84.89518686	75.79661382	-110.798618
5.52	552	0.982	0.22	-0.051	-1.0313244	-2.1772404	-12.5477802	-84.86653896	75.66483348	-110.758511
5.53	553	0.974	0.224	-0.063	-1.432395	-1.5469866	-12.2613012	-84.86080938	75.5445123	-110.7413222
5.54	554	0.988	0.22	-0.073	-1.2605076	-0.6875496	-11.8029348	-84.88945728	75.42419112	-110.7527814
5.55	555	0.983	0.229	-0.068	-1.432395	-0.9167328	-11.0580894	-84.6545445	75.32105868	-110.4892207
5.56	556	0.996	0.234	-0.07	-1.5469866	-1.3178034	-10.2559482	-84.6545445	75.21792624	-110.472032
5.57	557	0.988	0.25	-0.065	-1.2032118	-2.8074942	-9.740286	-84.5972487	75.1147938	-110.403277
5.58	558	0.996	0.251	-0.059	0.0572958	-4.9847346	-9.1100322	-84.44255004	75.02312052	-110.2428488
5.59	559	0.987	0.253	-0.053	0.8021412	-7.0473834	-8.5370742	-84.20763726	74.92571766	-110.007936
5.6	560	0.989	0.243	-0.057	0.9167328	-8.59437	-7.9068204	-83.77791876	74.83404438	-109.5724879
5.61	561	0.991	0.245	-0.063	0.1145916	-9.8548776	-7.6203414	-83.4513327	74.74810068	-109.2344427
5.62	562	0.99	0.238	-0.073	-0.4583664	-9.8548776	-6.9327918	-83.13047622	74.66215698	-108.9021271
5.63	563	0.985	0.242	-0.085	-2.0626488	-8.8235532	-6.4171296	-82.86118596	74.58767244	-108.6041889
5.64	564	0.977	0.246	-0.097	-3.3804522	-7.9641162	-5.6149884	-82.63773234	74.51891748	-108.3348986
5.65	565	0.97	0.254	-0.109	-4.297185	-7.161975	-5.0993262	-82.1335293	74.45016252	-107.7562111
5.66	566	0.959	0.255	-0.114	-4.2398892	-7.0473834	-4.5263682	-81.94445316	74.39286672	-107.5270279
5.67	567	0.947	0.251	-0.119	-3.6669312	-7.8495246	-4.010706	-81.72672912	74.3413005	-107.2577376
5.68	568	0.944	0.248	-0.109	-3.2658606	-8.9381448	-3.5523396	-81.46889802	74.28973428	-106.9540699
5.69	569	0.942	0.246	-0.102	-3.437748	-9.9121734	-3.3804522	-81.17668944	74.23816806	-106.6160246
5.7	570	0.958	0.238	-0.102	-4.583664	-9.9121734	-3.5523396	-80.66675682	74.18660184	-106.0373371
5.71	571	0.963	0.232	-0.097	-5.9587632	-9.2246238	-3.724227	-80.43184404	74.13503562	-105.7279397
5.72	572	0.969	0.229	-0.097	-7.448454	-7.9641162	-4.010706	-80.25422706	74.07773982	-105.4701086
5.73	573	0.978	0.23	-0.105	-8.6516658	-6.6463128	-4.2398892	-80.13390588	74.0261736	-105.2523846
5.74	574	0.982	0.234	-0.11	-9.3965112	-5.0420304	-3.7815228	-80.07661008	73.98033696	-105.0976859
5.75	575	0.99	0.234	-0.108	-10.1986524	-3.3804522	-2.5210152	-79.79586066	73.95741864	-104.6908858
5.76	576	0.976	0.241	-0.11	-9.9121734	-2.005353	-1.145916	-79.83023814	73.9402299	-104.6278604
5.77	577	0.969	0.25	-0.12	-7.9641162	-1.2605076	-0.1145916	-79.86461562	73.9402299	-104.5762942
5.78	578	0.963	0.253	-0.132	-6.6463128	0.2291832	0.286479	-79.93910016	73.9402299	-104.5820237
5.79	579	0.952	0.246	-0.141	-6.016059	1.5469866	0.5156622	-80.0422326	73.95168906	-104.6278604
5.8	580	0.943	0.238	-0.141	-5.2712136	2.2345362	0.286479	-79.34895342	73.95168906	-103.8429079
5.81	581	0.938	0.227	-0.145	-4.6982556	2.578311	-0.3437748	-79.48646334	73.95168906	-103.9288516
5.82	582	0.937	0.224	-0.141	-4.583664	2.86479	-0.572958	-79.62970284	73.95168906	-104.0377136
5.83	583	0.948	0.227	-0.132	-5.2139178	3.0939732	-0.4010706	-79.79013108	73.95168906	-104.1465757
5.84	584	0.961	0.236	-0.125	-5.443101	3.724227	0.0572958	-79.96774806	73.96314822	-104.2726264
5.85	585	0.97	0.244	-0.122	-4.8128472	4.297185	0.572958	-79.67553948	73.9688778	-103.9116629
5.86	586	0.978	0.25	-0.117	-4.010706	4.5263682	0.9167328	-79.86461562	73.99179612	-104.0663615
5.87	587	0.981	0.25	-0.11	-3.4950438	4.8128472	0.859437	-80.05369176	74.00898486	-104.2267898
5.88	588	0.975	0.249	-0.106	-3.4950438	6.016059	0	-80.29433412	74.02044402	-104.4387842
5.89	589	0.973	0.244	-0.107	-3.724227	7.448454	-0.6875496	-80.59227228	74.0261736	-104.7023449
5.9	590	0.956	0.239	-0.105	-4.1252976	8.59437	-0.9740286	-80.6151906	74.03763276	-104.6851562
5.91	591	0.954	0.234	-0.105	-4.5263682	9.0527364	-0.286479	-80.97042456	74.04909192	-105.0060127
5.92	592	0.951	0.235	-0.108	-5.0420304	9.3392154	0.4583664	-81.33711768	74.07201024	-105.3325987
5.93	593	0.952	0.241	-0.094	-5.0420304	8.7662574	1.3750992	-81.68089248	74.10065814	-105.6305369
5.94	594	0.961	0.245	-0.095	-6.0733548	8.3651868	2.005353	-82.0189377	74.13503562	-105.9170159
5.95	595	0.976	0.253	-0.08	-7.3911582	9.167328	2.4064236	-82.25385048	74.17514268	-106.0831737
5.96	596	0.988	0.257	-0.076	-8.1360036	9.5683986	2.7501984	-82.65492108	74.21524974	-106.4097598
5.97	597	0.997	0.257	-0.077	-8.1932994	9.453807	2.86479	-83.0502621	74.26108638	-106.7306162
5.98	598	0.999	0.247	-0.082	-7.5630456	9.740286	2.9220858	-83.4513327	74.30119344	-107.0686615
5.99	599	0.993	0.241	-0.083	-7.2192708	10.7716104	3.151269	-83.88678078	74.34703008	-107.4410842
6	600	0.977	0.241	-0.082	-7.3338624	12.032118	3.3804522	-84.20763726	74.40432588	-107.6989153
6.01	601	0.961	0.24	-0.076	-7.5630456	12.8342592	3.7815228	-84.72329946	74.4558921	-108.1515521
6.02	602	0.957	0.235	-0.067	-7.734933	13.4072172	4.297185	-85.26187998	74.5131879	-108.6271072
6.03	603	0.952	0.232	-0.061	-8.1932994	13.6936962	4.6409598	-85.81764924	74.57621328	-109.1141215
6.04	604	0.957	0.227	-0.062	-8.1360036	13.0061466	5.443101	-86.35050018	74.64496824	-109.5782175
6.05	605	0.96	0.231	-0.058	-7.7922288	12.1467096	5.9587632	-86.72865246	74.71945278	-109.8876148
6.06	606	0.967	0.231	-0.054	-7.2192708	11.2299768	5.9587632	-87.19847802	74.78820774	-110.294415
6.07	607	0.972	0.225	-0.054	-7.448454	10.7716104	5.72958	-87.65111484	74.85123312	-110.689756
6.08	608	0.974	0.221	-0.056	-8.2505952	11.6310474	5.0993262	-88.15531788	74.90852892	-111.1137449
6.09	609	0.976	0.223	-0.056	-9.167328	12.6623718	4.4117766	-88.70535756	74.96009514	-111.5893001
6.1	610	0.97	0.224	-0.053	-9.1100322	13.1207382	3.8961144	-89.13507606	75.01739094	-111.9330749
6.11	611	0.969	0.22	-0.05	-8.307891	13.178034	3.6669312	-89.70230448	75.057498	-112.4315483
6.12	612	0.969	0.214	-0.045	-7.2765666	12.7769634	3.5523396	-90.25234416	75.09760506	-112.9242922
6.13	613	0.977	0.208	-0.041	-6.016059	11.9175264	3.6669312	-90.7565472	75.13771212	-113.3826586
6.14	614	0.986	0.211	-0.033	-5.5003968	11.2872726	3.4950438	-91.23783192	75.1720896	-113.8181067
6.15	615	0.994	0.214	-0.027	-5.8441716	11.3445684	2.9220858	-91.59879546	75.22365582	-114.1332336
6.16	616	0.997	0.222	-0.018	-6.4744254	11.6883432	2.3491278	-92.10872808	75.24657414	-114.5858704
6.17	617	0.998	0.228	-0.015	-6.7036086	12.032118	1.5469866	-92.63011986	75.2580333	-115.055696
6.18	618	0.999	0.23	-0.02	-6.9327918	12.4331886	0.859437	-93.16870038	75.26949246	-115.5369807
6.19	619	0.997	0.228	-0.027	-6.7609044	12.891555	0.5156622	-93.72446964	75.26949246	-116.0354542
6.2	620	0.993	0.225	-0.032	-6.1306506	13.2926256	0.5156622	-94.1083515	75.2866812	-116.3620402
6.21	621	0.985	0.225	-0.034	-5.443101	13.2926256	0.6302538	-94.66412076	75.2866812	-116.8777024
6.22	622	0.978	0.223	-0.032	-4.6409598	12.4331886	0.572958	-95.18551254	75.2866812	-117.3647167
6.23	623	0.974	0.22	-0.026	-4.5263682	11.4018642	0.3437748	-95.66106768	75.28095162	-117.8058944
6.24	624	0.978	0.221	-0.015	-4.583664	10.4278356	0.286479	-96.09651576	75.27522204	-118.2126946
6.25	625	0.983	0.224	-0.007	-4.5263682	9.8548776	0.4010706	-96.3428877	75.29241078	-118.4132299
6.26	626	0.984	0.227	-0.004	-4.0680018	9.5111028	0.5156622	-96.7439583	75.29241078	-118.779923
6.27	627	0.984	0.225	-0.006	-3.724227	9.2246238	0.859437	-97.12784016	75.29241078	-119.1408865
6.28	628	0.979	0.223	-0.005	-3.4950438	9.167328	1.0313244	-97.5174516	75.29241078	-119.5018501
6.29	629	0.975	0.219	-0.008	-3.724227	9.5683986	1.145916	-97.9185222	75.29241078	-119.8800023
6.3	630	0.973	0.215	-0.007	-3.9534102	9.5111028	1.145916	-98.11332792	75.32105868	-120.034701
6.31	631	0.975	0.215	-0.007	-4.2398892	9.167328	1.145916	-98.50866894	75.32105868	-120.3956645
6.32	632	0.977	0.221	-0.006	-3.9534102	8.1360036	1.145916	-98.85817332	75.32678826	-120.716521
6.33	633	0.979	0.226	-0.003	-2.9220858	6.3598338	0.9740286	-99.13319316	75.32678826	-120.9686225
6.34	634	0.989	0.227	-0.003	-1.7761698	5.0420304	0.5156622	-99.34518762	75.32678826	-121.1691578
6.35	635	0.995	0.228	-0.001	-0.8021412	4.4117766	0.1718874	-98.9784945	75.37835448	-120.7680872
6.36	636	0.996	0.224	0.001	-0.1145916	4.6409598	0	-99.1503819	75.3726249	-120.9457042
6.37	637	0.99	0.219	0.003	0.3437748	5.0420304	-0.1145916	-99.33945804	75.36116574	-121.1405099
6.38	638	0.984	0.216	0.006	0.3437748	5.6149884	-0.1145916	-99.54572292	75.35543616	-121.358234
6.39	639	0.987	0.213	0.011	-0.8021412	5.9014674	-0.1718874	-99.77490612	75.343977	-121.5874172
6.4	640	0.991	0.216	0.008	-2.0626488	5.8441716	-0.0572958	-99.71188074	75.37835448	-121.4957439
6.41	641	0.996	0.224	0.01	-2.4064236	5.8441716	-0.1145916	-99.9525231	75.36689532	-121.7191975
6.42	642	1.003	0.23	0.013	-1.9480572	5.3285094	-0.286479	-100.1759767	75.35543616	-121.9254624
6.43	643	1.004	0.235	0.017	-0.6875496	4.1252976	-0.2291832	-100.336405	75.34970658	-122.0858906
6.44	644	1.005	0.236	0.024	0.286479	2.9793816	0	-100.445267	75.343977	-122.2004822
6.45	645	1.003	0.228	0.035	0.7448454	2.5210152	0.286479	-100.3306754	75.4012728	-122.0858906
6.46	646	0.994	0.219	0.039	0.2291832	3.2658606	0.5156622	-100.4567261	75.4012728	-122.217671
6.47	647	0.983	0.215	0.036	-0.859437	4.583664	0.6302538	-100.6400727	75.4012728	-122.395288
6.48	648	0.974	0.216	0.025	-2.1199446	5.443101	0.6875496	-100.8749855	75.4012728	-122.613012
6.49	649	0.97	0.215	0.018	-3.151269	5.3285094	0.7448454	-101.1098983	75.4012728	-122.8250065
6.5	650	0.971	0.213	0.014	-3.5523396	4.6409598	0.9167328	-101.0697912	75.44137986	-122.7390628
6.51	651	0.975	0.217	0.015	-3.8388186	3.2085648	1.0313244	-101.235949	75.44710944	-122.8708431
6.52	652	0.985	0.224	0.02	-3.9534102	1.5469866	1.0313244	-101.344811	75.45283902	-122.9395981
6.53	653	0.993	0.233	0.021	-3.4950438	-0.1145916	1.0313244	-101.3791885	75.46429818	-122.9395981
6.54	654	0.996	0.24	0.018	-2.6929026	-1.3750992	0.9740286	-101.3619998	75.47575734	-122.8937614
6.55	655	0.995	0.237	0.012	-1.6042824	-1.718874	0.9740286	-100.7260164	75.52159398	-122.2119414
6.56	656	0.988	0.228	0.011	-0.8021412	-2.005353	1.0313244	-100.662991	75.53305314	-122.1374569
6.57	657	0.982	0.219	0.009	-0.4583664	-2.1199446	0.9740286	-100.5885065	75.55024188	-122.0572427
6.58	658	0.973	0.211	0.008	-0.1718874	-2.1199446	0.9167328	-100.5197515	75.56170104	-121.9827582
6.59	659	0.97	0.203	0.009	-0.3437748	-2.1772404	1.0313244	-100.445267	75.5731602	-121.9025441
6.6	660	0.972	0.2	0.01	-0.4010706	-2.6356068	1.0886202	-99.86084982	75.6877518	-121.289479
6.61	661	0.976	0.201	0.009	-0.859437	-3.0366774	0.7448454	-99.75771738	75.69921096	-121.1748874
6.62	662	0.988	0.209	0.01	-1.6615782	-3.2085648	0.286479	-99.64885536	75.71067012	-121.0431071
6.63	663	0.992	0.216	0.006	-2.2345362	-3.2085648	-0.3437748	-99.54572292	75.71067012	-120.9113267
6.64	664	0.99	0.22	0.001	-2.291832	-2.7501984	-0.6875496	-99.45977922	75.70494054	-120.7967351
6.65	665	0.986	0.219	0	-2.1199446	-2.0626488	-0.7448454	-98.88682122	75.75077718	-120.1836701
6.66	666	0.982	0.215	0.001	-2.2345362	-1.718874	-0.6875496	-98.84098458	75.75077718	-120.1091855
6.67	667	0.976	0.21	0	-2.4637194	-0.9740286	-0.6302538	-98.82379584	75.7450476	-120.0633489
6.68	668	0.973	0.206	0	-2.6929026	-0.4583664	-0.572958	-98.82379584	75.73931802	-120.034701
6.69	669	0.972	0.204	0	-3.0366774	0.1145916	-0.4583664	-98.85817332	75.73358844	-120.0404306
6.7	670	0.971	0.203	0	-3.8388186	0.8021412	-0.5156622	-98.5201281	75.79088424	-119.63936
6.71	671	0.975	0.208	0	-5.3285094	1.145916	-0.4583664	-98.61180138	75.78515466	-119.679467
6.72	672	0.977	0.215	-0.002	-6.4744254	1.6042824	-0.5156622	-98.73212256	75.77942508	-119.7424924
6.73	673	0.976	0.223	-0.005	-6.8182002	1.6615782	-0.4010706	-98.8639029	75.7736955	-119.8055178
6.74	674	0.974	0.226	-0.005	-6.1879464	1.8907614	-0.2291832	-98.99568324	75.76796592	-119.8742728
6.75	675	0.976	0.226	-0.002	-5.2712136	2.1199446	0	-98.76077046	75.78515466	-119.570605
6.76	676	0.977	0.227	-0.001	-4.5263682	2.3491278	0.4583664	-98.90400996	75.78515466	-119.6680079
6.77	677	0.975	0.227	-0.004	-4.1825934	2.9220858	0.6875496	-99.0644382	75.79088424	-119.7883291
6.78	678	0.973	0.222	-0.005	-3.9534102	3.8388186	0.6302538	-99.25351434	75.79088424	-119.9430277
6.79	679	0.97	0.22	-0.005	-4.5263682	4.870143	0.6302538	-99.4941567	75.79661382	-120.143563
6.8	680	0.971	0.218	-0.001	-5.0420304	5.6722842	0.7448454	-99.5514525	75.81380256	-120.143563
6.81	681	0.974	0.217	0	-5.2139178	6.302538	0.859437	-99.85512024	75.81380256	-120.4013941
6.82	682	0.977	0.217	0.004	-5.2139178	6.875496	1.145916	-100.1817063	75.81380256	-120.6821435
6.83	683	0.98	0.22	0.007	-5.0420304	6.875496	1.6042824	-100.5082924	75.81953214	-120.9686225
6.84	684	0.985	0.225	0.011	-4.6982556	6.589017	1.9480572	-100.8234193	75.8309913	-121.2436424
6.85	685	0.988	0.225	0.014	-4.3544808	6.4171296	2.1772404	-100.9781179	75.85390962	-121.358234
6.86	686	0.992	0.224	0.019	-4.297185	6.1879464	2.3491278	-101.2817857	75.86536878	-121.6217947
6.87	687	0.989	0.222	0.017	-4.4117766	6.7609044	2.6356068	-101.6083717	75.88255752	-121.9082737
6.88	688	0.987	0.22	0.016	-4.583664	7.448454	2.86479	-101.9636057	75.89974626	-122.2291301
6.89	689	0.983	0.219	0.015	-4.9847346	8.0787078	3.2085648	-102.3532171	75.916935	-122.5786345
6.9	690	0.98	0.217	0.016	-5.156622	8.4797784	3.6096354	-102.6396961	75.9455829	-122.8135473
6.91	691	0.982	0.216	0.02	-4.9847346	9.0527364	4.010706	-103.0808738	75.96850122	-123.2146179
6.92	692	0.986	0.217	0.028	-4.583664	9.740286	4.4117766	-103.5449698	75.99141954	-123.6443364
6.93	693	0.987	0.221	0.031	-4.1825934	9.7975818	4.6982556	-104.0147953	76.02006744	-124.0797845
6.94	694	0.982	0.224	0.028	-3.4950438	9.6829902	5.0993262	-104.4731617	76.04871534	-124.5152326
6.95	695	0.971	0.219	0.026	-2.4064236	9.453807	5.3858052	-104.782559	76.0888224	-124.8074411
6.96	696	0.964	0.208	0.03	-2.0626488	9.2819196	5.3858052	-105.2237367	76.1174703	-125.2371596
6.97	697	0.967	0.199	0.035	-3.0939732	9.3392154	5.3858052	-105.6763735	76.1461182	-125.6668781
6.98	698	0.979	0.2	0.036	-4.4690724	9.167328	5.6149884	-106.1404695	76.18049568	-126.0965966
6.99	699	0.986	0.203	0.033	-5.0420304	9.1100322	5.6149884	-106.6102951	76.21487316	-126.5263151
7	700	0.989	0.208	0.029	-4.7555514	9.2819196	5.5003968	-106.9483403	76.25498022	-126.8242533
7.01	701	0.99	0.213	0.026	-4.1252976	9.5111028	5.5003968	-107.429625	76.28362812	-127.2711605
7.02	702	0.988	0.212	0.025	-3.151269	9.3392154	5.6149884	-107.893721	76.31227602	-127.7180678
7.03	703	0.986	0.21	0.028	-1.7761698	8.8235532	5.6149884	-108.3291691	76.34092392	-128.1477863
7.04	704	0.985	0.204	0.03	-1.145916	8.7089616	5.443101	-108.753158	76.36384224	-128.5660456
7.05	705	0.986	0.2	0.032	-0.8021412	8.6516658	5.2139178	-108.9880708	76.41540846	-128.7952288
7.06	706	0.984	0.199	0.033	-0.4010706	8.7662574	4.9847346	-109.4006005	76.4325972	-129.2192177
7.07	707	0.981	0.198	0.037	-0.0572958	9.167328	4.7555514	-109.830319	76.44978594	-129.6546658
7.08	708	0.98	0.195	0.042	-0.2291832	9.3392154	4.3544808	-110.2600375	76.4612451	-130.0958435
7.09	709	0.984	0.195	0.046	-0.7448454	9.453807	4.1825934	-110.6954856	76.47270426	-130.5370211
7.1	710	0.988	0.195	0.052	-0.9740286	9.6256944	4.0680018	-111.0048829	76.49562258	-130.8406889
7.11	711	0.988	0.194	0.056	-0.9167328	9.7975818	3.9534102	-111.4575197	76.50135216	-131.2933257
7.12	712	0.987	0.193	0.06	-0.7448454	9.2819196	4.010706	-111.8872382	76.50708174	-131.7230442
7.13	713	0.984	0.191	0.059	-0.4010706	8.880849	4.1252976	-112.299768	76.5185409	-132.1413035
7.14	714	0.983	0.191	0.055	-0.3437748	8.6516658	4.1825934	-112.7065682	76.52427048	-132.5538333
7.15	715	0.983	0.19	0.056	-0.286479	8.7662574	4.2398892	-112.9758584	76.55864796	-132.8231236
7.16	716	0.986	0.189	0.061	-0.572958	8.9954406	4.010706	-113.3941178	76.56437754	-133.2471125
7.17	717	0.988	0.188	0.068	-0.859437	9.453807	3.724227	-113.8295659	76.55864796	-133.6825606
7.18	718	0.99	0.188	0.07	-0.9167328	9.740286	3.4950438	-114.2764731	76.55864796	-134.1294678
7.19	719	0.992	0.187	0.073	-0.9740286	9.2819196	3.2085648	-114.6947324	76.55291838	-134.5534567
7.2	720	0.992	0.188	0.078	-0.859437	8.6516658	3.0939732	-114.9926706	76.57010712	-134.8399357
7.21	721	0.994	0.189	0.079	-0.4583664	7.6776372	3.3231564	-115.3479046	76.57010712	-135.2008993
7.22	722	0.996	0.191	0.08	0.1718874	6.7036086	3.437748	-115.6630315	76.57010712	-135.5274853
7.23	723	0.999	0.192	0.08	1.2032118	6.0733548	3.7815228	-115.9495105	76.58156628	-135.8368826
7.24	724	0.998	0.191	0.079	1.8334656	5.3285094	3.7815228	-116.2073416	76.59302544	-136.1176321
7.25	725	0.996	0.188	0.082	1.8907614	4.9847346	3.4950438	-116.3162036	76.6331325	-136.2436828
7.26	726	0.994	0.183	0.088	1.7761698	4.9274388	3.0366774	-116.5396572	76.63886208	-136.4957843
7.27	727	0.991	0.178	0.09	1.432395	4.9847346	2.578311	-116.7631108	76.63886208	-136.7421563
7.28	728	0.991	0.175	0.092	0.9740286	5.0420304	2.4637194	-116.992294	76.63886208	-136.9827986
7.29	729	0.991	0.172	0.093	0.6875496	4.870143	2.578311	-117.2214772	76.64459166	-137.223441
7.3	730	0.993	0.174	0.092	0.5156622	4.297185	2.6929026	-117.3074209	76.6904283	-137.3151143
7.31	731	0.994	0.18	0.089	0.5156622	3.4950438	2.9220858	-117.4907675	76.70188746	-137.50992
7.32	732	0.994	0.186	0.09	1.0313244	2.291832	2.86479	-117.6282774	76.7190762	-137.6588891
7.33	733	0.993	0.188	0.093	1.6042824	0.7448454	2.578311	-117.6913028	76.73626494	-137.7391032
7.34	734	0.996	0.181	0.095	2.1199446	-0.3437748	2.2345362	-117.6970324	76.75918326	-137.7734807
7.35	735	0.997	0.176	0.098	1.8907614	-1.0886202	1.8907614	-117.5767112	76.83939738	-137.6588891
7.36	736	0.999	0.172	0.099	1.0886202	-1.2605076	1.718874	-117.5537929	76.8623157	-137.6474299
7.37	737	0.997	0.172	0.095	0.6302538	-1.6042824	1.4896908	-117.5136858	76.87950444	-137.6130524
7.38	738	0.995	0.176	0.089	0.7448454	-1.8907614	1.3178034	-117.45639	76.90242276	-137.5672158
7.39	739	0.996	0.176	0.082	1.0313244	-2.5210152	0.9167328	-117.3647167	76.9196115	-137.4812721
7.4	740	0.997	0.175	0.08	1.0886202	-3.6096354	0.6302538	-116.992294	76.99982562	-137.1031198
7.41	741	0.997	0.173	0.085	1.0313244	-4.6409598	0.2291832	-116.8089475	77.02274394	-136.9255028
7.42	742	0.997	0.172	0.094	0.859437	-5.5576926	-0.0572958	-116.5797643	77.04566226	-136.6963196
7.43	743	0.994	0.17	0.093	0.572958	-5.6722842	-0.286479	-116.3448515	77.06858058	-136.4671364
7.44	744	0.993	0.172	0.087	0	-5.0420304	-0.3437748	-116.1385866	77.08576932	-136.255142
7.45	745	0.991	0.175	0.077	-0.1718874	-4.1252976	-0.4583664	-115.6458427	77.16598344	-135.7394798
7.46	746	0.992	0.174	0.072	-0.1718874	-3.8388186	-0.7448454	-115.4796849	77.17171302	-135.5675924
7.47	747	0.993	0.176	0.066	-0.1145916	-4.297185	-1.145916	-115.2848792	77.18317218	-135.3670571
7.48	748	0.993	0.182	0.062	0.4583664	-5.0420304	-1.4896908	-115.0499664	77.18890176	-135.1321443
7.49	749	0.989	0.184	0.06	1.3750992	-5.9587632	-1.718874	-114.7634874	77.19463134	-134.8571245
7.5	750	0.988	0.181	0.059	2.1199446	-6.4744254	-1.7761698	-114.2707435	77.22900882	-134.3643806
7.51	751	0.99	0.178	0.061	1.9480572	-6.589017	-1.6042824	-113.9556166	77.24046798	-134.0664424
7.52	752	0.992	0.179	0.069	1.718874	-5.8441716	-1.5469866	-113.6691376	77.24619756	-133.7914226
7.53	753	0.984	0.182	0.068	1.6615782	-5.156622	-1.6042824	-113.4170361	77.25192714	-133.5450506
7.54	754	0.975	0.178	0.061	1.432395	-3.8961144	-1.6615782	-113.2107712	77.25192714	-133.3559745
7.55	755	0.975	0.172	0.054	1.145916	-2.8074942	-1.6615782	-112.7122978	77.31495252	-132.8460419
7.56	756	0.977	0.172	0.049	0.5156622	-1.8907614	-1.8334656	-112.5919766	77.30349336	-132.7314503
7.57	757	0.982	0.179	0.045	-0.3437748	-1.7761698	-1.9480572	-112.4888441	77.2920342	-132.6225883
7.58	758	0.985	0.187	0.039	-0.572958	-2.2345362	-2.0626488	-112.368523	77.28057504	-132.4908079
7.59	759	0.985	0.192	0.042	-0.1145916	-3.3804522	-2.1199446	-112.1966356	77.27484546	-132.3131909
7.6	760	0.988	0.189	0.048	0.8021412	-3.7815228	-2.0626488	-111.7210804	77.29776378	-131.8319062
7.61	761	0.992	0.184	0.058	1.6042824	-3.8388186	-1.9480572	-111.5148155	77.2920342	-131.6371005
7.62	762	0.993	0.18	0.064	1.718874	-3.4950438	-1.718874	-111.3257394	77.2920342	-131.4594835
7.63	763	0.995	0.182	0.071	1.2032118	-3.0366774	-1.6042824	-111.1595816	77.28630462	-131.3047849
7.64	764	0.999	0.183	0.073	0.5156622	-2.6356068	-1.6615782	-111.0220717	77.28057504	-131.1672749
7.65	765	0.997	0.186	0.064	-0.1718874	-2.578311	-1.5469866	-110.6381898	77.30922294	-130.7719339
7.66	766	0.989	0.186	0.054	-0.2291832	-2.7501984	-1.432395	-110.5006799	77.30922294	-130.6286944
7.67	767	0.984	0.184	0.047	0.286479	-2.9220858	-1.3178034	-110.3574404	77.30349336	-130.4797253
7.68	768	0.982	0.186	0.042	0.572958	-3.724227	-1.2605076	-110.1740938	77.30349336	-130.3021084
7.69	769	0.983	0.187	0.041	0.8021412	-4.297185	-1.432395	-109.9620994	77.30349336	-130.0958435
7.7	770	0.985	0.189	0.044	1.3178034	-4.6982556	-1.6042824	-109.5209217	77.32641168	-129.6489362
7.71	771	0.987	0.186	0.053	1.9480572	-5.0420304	-1.8334656	-109.2630906	77.32641168	-129.4082939
7.72	772	0.988	0.18	0.057	2.1772404	-4.870143	-2.1772404	-108.9995299	77.31495252	-129.1619219
7.73	773	0.989	0.179	0.055	2.1199446	-4.297185	-2.3491278	-108.7646171	77.30922294	-128.9441979
7.74	774	0.991	0.181	0.053	1.9480572	-3.7815228	-2.3491278	-108.5526227	77.29776378	-128.7436626
7.75	775	0.992	0.183	0.051	1.432395	-3.5523396	-2.4637194	-108.1802	77.31495252	-128.3826991
7.76	776	0.993	0.186	0.049	1.0886202	-3.4950438	-2.2345362	-107.9911238	77.30349336	-128.1993525
7.77	777	0.99	0.188	0.044	0.9167328	-3.0366774	-2.005353	-107.824966	77.2920342	-128.0389243
7.78	778	0.988	0.19	0.04	0.6875496	-2.4064236	-1.8334656	-107.6931857	77.28057504	-127.9071439
7.79	779	0.989	0.189	0.037	0.7448454	-2.0626488	-1.7761698	-107.5728645	77.26911588	-127.7925523
7.8	780	0.989	0.188	0.035	0.859437	-1.8907614	-1.8907614	-107.074391	77.30349336	-127.2826197
7.81	781	0.989	0.188	0.033	1.2032118	-1.6042824	-2.1199446	-106.965529	77.28630462	-127.1852168
7.82	782	0.987	0.187	0.026	1.6042824	-0.7448454	-2.291832	-106.8853149	77.26911588	-127.1221915
7.83	783	0.986	0.19	0.027	1.8907614	-0.0572958	-2.1772404	-106.8337487	77.24619756	-127.0935436
7.84	784	0.987	0.193	0.028	2.4637194	0.286479	-1.9480572	-106.7993712	77.22327924	-127.0820844
7.85	785	0.989	0.196	0.026	3.2658606	0.1145916	-1.6042824	-106.3352752	77.24046798	-126.6351772
7.86	786	0.989	0.201	0.027	4.010706	0	-1.3178034	-106.2779794	77.22900882	-126.6179884
7.87	787	0.991	0.207	0.02	5.2712136	0.0572958	-0.9167328	-106.2206836	77.21754966	-126.6122588
7.88	788	0.991	0.214	0.021	7.5630456	0.5156622	-0.572958	-106.1633878	77.2060905	-126.6351772
7.89	789	0.989	0.214	0.03	9.9121734	0.4583664	-0.2291832	-106.0831737	77.2060905	-126.6523659
7.9	790	0.99	0.205	0.048	10.5424272	0.0572958	0.1718874	-105.9112863	77.2060905	-126.5893405
7.91	791	0.988	0.205	0.054	10.4278356	-1.145916	0.8021412	-105.7680468	77.21754966	-126.554963
7.92	792	0.986	0.2	0.051	11.172681	-2.291832	1.0886202	-105.5732411	77.2347384	-126.4690193
7.93	793	0.983	0.195	0.05	11.5737516	-3.151269	1.2032118	-105.3383283	77.25192714	-126.3486982
7.94	794	0.986	0.188	0.05	11.0007936	-3.6096354	1.0313244	-105.0919564	77.26911588	-126.2111882
7.95	795	0.992	0.186	0.049	9.6256944	-3.9534102	0.6875496	-104.782559	77.29776378	-125.9934642
7.96	796	0.994	0.188	0.046	8.5370742	-3.6669312	0.5156622	-104.5476463	77.30922294	-125.8387655
7.97	797	0.99	0.19	0.045	7.734933	-3.151269	0.2291832	-104.3356518	77.3206821	-125.7069852
7.98	798	0.985	0.187	0.044	7.161975	-2.2345362	0	-104.169494	77.3206821	-125.6095823
7.99	799	0.981	0.18	0.046	6.1879464	-1.432395	0	-104.0434432	77.32641168	-125.546557
8	800	0.982	0.177	0.041	5.3285094	-1.2032118	0.286479	-103.7970713	77.37224832	-125.3460217
8.01	801	0.986	0.179	0.035	4.4117766	-1.145916	0.6875496	-103.705398	77.38370748	-125.300185
8.02	802	0.989	0.185	0.029	3.5523396	-1.5469866	0.8021412	-103.6137247	77.39516664	-125.2428892
8.03	803	0.99	0.192	0.022	2.6356068	-2.1199446	0.7448454	-103.4991331	77.4066258	-125.1569455
8.04	804	0.989	0.197	0.02	2.0626488	-2.86479	0.4583664	-103.3616232	77.41808496	-125.0308948
8.05	805	0.983	0.196	0.023	1.6042824	-2.8074942	-0.0572958	-102.8631497	77.44673286	-124.5381509
8.06	806	0.978	0.187	0.024	0.9740286	-2.0626488	-0.286479	-102.7600173	77.44673286	-124.440748
8.07	807	0.977	0.18	0.021	0.3437748	-0.572958	-0.286479	-102.7256398	77.44673286	-124.4121001
8.08	808	0.976	0.177	0.016	0.1718874	0.0572958	-0.1718874	-102.7256398	77.44100328	-124.4121001
8.09	809	0.975	0.178	0.012	0	0.1145916	-0.1718874	-102.7313694	77.44100328	-124.4178297
8.1	810	0.976	0.183	0.014	-0.4010706	-0.2291832	-0.3437748	-101.7630704	77.53840614	-123.4094236
8.11	811	0.98	0.19	0.019	-1.145916	-0.8021412	-0.6875496	-101.7286929	77.53267656	-123.3693166
8.12	812	0.982	0.193	0.02	-1.4896908	-0.8021412	-0.9167328	-101.700045	77.52694698	-123.3177503
8.13	813	0.982	0.191	0.023	-1.6615782	-0.3437748	-1.2605076	-101.6885858	77.51548782	-123.2891024
8.14	814	0.981	0.186	0.026	-1.6615782	0.1145916	-1.3178034	-101.700045	77.49829908	-123.2833729
8.15	815	0.981	0.183	0.025	-2.005353	0.6875496	-1.2032118	-101.4422139	77.53267656	-122.9968939
8.16	816	0.979	0.183	0.02	-2.1199446	1.0886202	-1.0886202	-101.5052393	77.5212174	-123.0370009
8.17	817	0.979	0.188	0.018	-2.3491278	1.8334656	-0.9740286	-101.5969126	77.50975824	-123.1114855
8.18	818	0.98	0.194	0.015	-2.6929026	2.578311	-1.0313244	-101.7286929	77.4925695	-123.2146179
8.19	819	0.983	0.194	0.021	-2.9793816	3.0939732	-1.432395	-101.8833916	77.47538076	-123.3406687
8.2	820	0.986	0.193	0.029	-3.2658606	3.3804522	-1.6615782	-101.9349578	77.46965118	-123.3578574
8.21	821	0.989	0.189	0.033	-3.3804522	3.437748	-1.8907614	-102.1068452	77.44100328	-123.4953673
8.22	822	0.992	0.186	0.033	-3.0939732	3.2085648	-1.8907614	-102.2558143	77.41808496	-123.6214181
8.23	823	0.996	0.188	0.036	-2.6929026	3.3804522	-1.3178034	-102.4219721	77.40089622	-123.758928
8.24	824	0.995	0.192	0.038	-2.8074942	3.8961144	-0.8021412	-102.6110482	77.38370748	-123.9250858
8.25	825	0.993	0.198	0.037	-2.6929026	4.5263682	-0.1145916	-102.7027215	77.38370748	-123.9881112
8.26	826	0.99	0.201	0.032	-2.3491278	4.870143	0.2291832	-102.9433639	77.3779779	-124.2058352
8.27	827	0.992	0.202	0.03	-1.718874	4.9274388	0.4010706	-103.1782766	77.37224832	-124.4292889
8.28	828	0.995	0.203	0.032	-1.145916	4.6982556	0.4010706	-103.4017303	77.36651874	-124.6412833
8.29	829	0.998	0.204	0.036	-0.6302538	4.3544808	0.4010706	-103.6022656	77.36078916	-124.8418186
8.3	830	0.999	0.204	0.036	-0.1718874	3.9534102	0.4583664	-103.5220514	77.37224832	-124.7558749
8.31	831	0.997	0.203	0.035	0.8021412	2.6929026	0.6302538	-103.636643	77.37224832	-124.8819257
8.32	832	0.995	0.205	0.036	1.718874	1.3178034	0.859437	-103.6882093	77.3779779	-124.9506806
8.33	833	0.991	0.206	0.039	2.5210152	-0.0572958	1.2032118	-103.6710205	77.38943706	-124.9621398
8.34	834	0.989	0.205	0.048	3.0939732	-0.7448454	1.6615782	-103.6251839	77.4066258	-124.9449511
8.35	835	0.988	0.202	0.053	3.2085648	-1.0886202	2.1772404	-103.4991331	77.4352737	-124.8532778
8.36	836	0.986	0.196	0.048	2.9793816	-0.6875496	2.5210152	-103.4647556	77.45819202	-124.8532778
8.37	837	0.983	0.191	0.046	2.7501984	0.0572958	2.7501984	-103.4704852	77.48683992	-124.8876553
8.38	838	0.979	0.187	0.04	2.5210152	0.8021412	2.8074942	-103.5163219	77.50975824	-124.9564102
8.39	839	0.981	0.184	0.039	2.1772404	1.5469866	2.86479	-103.5908064	77.53267656	-125.0538131
8.4	840	0.983	0.181	0.04	1.6615782	1.6615782	3.0939732	-103.5793472	77.58997236	-125.0595427
8.41	841	0.985	0.183	0.046	0.6875496	1.8907614	3.3231564	-103.6939388	77.61862026	-125.1855934
8.42	842	0.985	0.188	0.047	0	1.8334656	3.4950438	-103.81426	77.64726816	-125.3059146
8.43	843	0.989	0.189	0.048	-0.3437748	1.6615782	3.3804522	-103.9288516	77.67591606	-125.4205062
8.44	844	0.994	0.187	0.044	-0.286479	1.2032118	3.2085648	-104.0205249	77.70456396	-125.5121795
8.45	845	0.992	0.183	0.036	-0.4010706	0.8021412	2.9793816	-103.8486375	77.77331892	-125.3288329
8.46	846	0.992	0.18	0.033	-0.2291832	1.0886202	2.86479	-103.9345812	77.79623724	-125.409047
8.47	847	0.993	0.18	0.029	-0.286479	1.0886202	2.578311	-104.0147953	77.81915556	-125.4892612
8.48	848	0.993	0.181	0.028	-0.572958	0.7448454	2.1772404	-104.0778207	77.84207388	-125.546557
8.49	849	0.994	0.18	0.032	-0.5156622	0.4010706	1.9480572	-104.1236573	77.85926262	-125.5923936
8.5	850	0.992	0.179	0.034	-0.5156622	0.1145916	1.718874	-103.7225867	77.94520632	-125.1741343
8.51	851	0.99	0.178	0.036	-0.3437748	-0.4583664	1.4896908	-103.7225867	77.96239506	-125.1684047
8.52	852	0.989	0.177	0.038	-0.3437748	-0.9167328	1.0886202	-103.6939388	77.97385422	-125.1340272
