TimeStamp(s)	FrameCounter	AccX	AccY	AccZ	GyrX	GyrY	GyrZ	EulerX	EulerY	EulerZ
0.01	1	0.03	-0.974	-0.248	-0.286479	-0.1145916	0	74.2553568	1.91367972	12.31286742
0.02	2	0.031	-0.974	-0.247	-0.3437748	-0.2291832	0	74.24962722	1.91367972	12.31286742
0.03	3	0.033	-0.975	-0.246	-0.4010706	-0.286479	-0.0572958	74.24962722	1.91367972	12.30713784
0.04	4	0.033	-0.976	-0.247	-0.4583664	-0.3437748	-0.0572958	74.24389764	1.91367972	12.30713784
0.05	5	0.03	-0.977	-0.249	-0.5156622	-0.3437748	-0.0572958	74.23816806	1.90795014	12.30140826
0.06	6	0.026	-0.975	-0.246	-0.5156622	-0.286479	0	74.23816806	1.90795014	12.29567868
0.07	7	0.023	-0.975	-0.246	-0.4010706	-0.0572958	0	74.23243848	1.90795014	12.29567868
0.08	8	0.024	-0.974	-0.247	-0.5156622	0.0572958	-0.0572958	74.2267089	1.90795014	12.29567868
0.09	9	0.024	-0.972	-0.248	-0.3437748	0.1145916	-0.1145916	74.22097932	1.91367972	12.29567868
0.1	10	0.026	-0.972	-0.248	-0.3437748	0.1145916	-0.2291832	74.21524974	1.90222056	12.30140826
0.11	11	0.029	-0.971	-0.249	-0.2291832	0.0572958	-0.1718874	74.20952016	1.90795014	12.30140826
0.12	12	0.03	-0.97	-0.249	-0.2291832	0	-0.1145916	74.20952016	1.90795014	12.30140826
0.13	13	0.031	-0.97	-0.25	-0.1718874	-0.0572958	-0.1145916	74.20952016	1.90795014	12.30140826
0.14	14	0.031	-0.97	-0.249	-0.286479	-0.1145916	0	74.20379058	1.90795014	12.29567868
0.15	15	0.03	-0.97	-0.249	-0.1718874	-0.1718874	-0.0572958	74.20379058	1.90795014	12.29567868
0.16	16	0.029	-0.972	-0.251	-0.1718874	-0.286479	-0.0572958	74.198061	1.90795014	12.29567868
0.17	17	0.027	-0.972	-0.25	-0.286479	-0.1718874	-0.1145916	74.198061	1.90795014	12.2899491
0.18	18	0.027	-0.973	-0.252	-0.2291832	-0.1145916	-0.0572958	74.19233142	1.90795014	12.2899491
0.19	19	0.026	-0.972	-0.252	-0.1145916	-0.1718874	0	74.19233142	1.90795014	12.2899491
0.2	20	0.024	-0.973	-0.249	-0.1145916	-0.3437748	-0.1145916	74.198061	1.8907614	12.28421952
0.21	21	0.025	-0.973	-0.249	0	-0.1718874	-0.0572958	74.198061	1.8907614	12.28421952
0.22	22	0.026	-0.972	-0.252	-0.0572958	0.0572958	-0.1145916	74.198061	1.89649098	12.28421952
0.23	23	0.028	-0.973	-0.253	0	0.2291832	-0.0572958	74.198061	1.89649098	12.28421952
0.24	24	0.028	-0.973	-0.25	0.0572958	0.1145916	0	74.198061	1.89649098	12.28421952
0.25	25	0.027	-0.973	-0.25	0.0572958	-0.0572958	0	74.18087226	1.87357266	12.2899491
0.26	26	0.028	-0.973	-0.25	0	0	0	74.18087226	1.87357266	12.2899491
0.27	27	0.029	-0.973	-0.25	0	0	-0.0572958	74.18087226	1.87357266	12.2899491
0.28	28	0.028	-0.972	-0.25	0	0	-0.1718874	74.17514268	1.87930224	12.2899491
0.29	29	0.028	-0.973	-0.25	0	0	-0.1718874	74.17514268	1.87930224	12.2899491
0.3	30	0.027	-0.973	-0.251	-0.0572958	0	-0.1145916	74.1694131	1.87930224	12.2899491
0.31	31	0.027	-0.97	-0.252	0	0	-0.0572958	74.1694131	1.87930224	12.2899491
0.32	32	0.028	-0.972	-0.252	0.1145916	0	0	74.1694131	1.87930224	12.2899491
0.33	33	0.028	-0.97	-0.251	0.0572958	0	0	74.1694131	1.87930224	12.2899491
0.34	34	0.028	-0.971	-0.251	0.1145916	0	0.0572958	74.1694131	1.87930224	12.2899491
0.35	35	0.028	-0.971	-0.249	0.1145916	-0.1145916	0.0572958	74.1694131	1.86784308	12.2899491
0.36	36	0.028	-0.972	-0.25	0.0572958	-0.1145916	0	74.17514268	1.86784308	12.28421952
0.37	37	0.027	-0.972	-0.249	0	-0.0572958	0.0572958	74.17514268	1.86784308	12.28421952
0.38	38	0.028	-0.972	-0.25	0.1145916	-0.1718874	0	74.17514268	1.86784308	12.28421952
0.39	39	0.027	-0.974	-0.248	0.1145916	-0.1145916	0	74.17514268	1.86784308	12.28421952
0.4	40	0.028	-0.974	-0.248	0.1718874	-0.0572958	0	74.18087226	1.85638392	12.28421952
0.41	41	0.027	-0.973	-0.249	0.2291832	0	0.0572958	74.18087226	1.85638392	12.28421952
0.42	42	0.026	-0.974	-0.249	0.1718874	0.1145916	0.1145916	74.18660184	1.85638392	12.28421952
0.43	43	0.027	-0.973	-0.249	0.0572958	0.1718874	0.1145916	74.18660184	1.85638392	12.28421952
0.44	44	0.027	-0.974	-0.249	0.0572958	0.286479	0.1718874	74.18660184	1.85065434	12.2899491
0.45	45	0.027	-0.974	-0.249	0.0572958	0.2291832	0.1718874	74.19233142	1.84492476	12.29567868
0.46	46	0.027	-0.973	-0.25	0.0572958	0.2291832	0.1145916	74.19233142	1.84492476	12.29567868
0.47	47	0.027	-0.973	-0.249	0.1145916	0.2291832	0.1718874	74.198061	1.83919518	12.30140826
0.48	48	0.027	-0.973	-0.249	0.1145916	0.1145916	0.1718874	74.198061	1.83919518	12.30140826
0.49	49	0.027	-0.973	-0.251	0.1718874	0.0572958	0.0572958	74.198061	1.83919518	12.30140826
0.5	50	0.027	-0.972	-0.25	0.1145916	0.0572958	0	74.198061	1.8334656	12.30140826
0.51	51	0.026	-0.972	-0.25	0.0572958	0.286479	0	74.198061	1.8334656	12.30713784
0.52	52	0.027	-0.971	-0.25	0	0.1718874	0	74.198061	1.8334656	12.30713784
0.53	53	0.027	-0.972	-0.25	0	0.2291832	0	74.198061	1.83919518	12.31286742
0.54	54	0.028	-0.972	-0.251	0.0572958	0.2291832	0	74.198061	1.83919518	12.31286742
0.55	55	0.027	-0.972	-0.252	0	0.1718874	0	74.1694131	1.83919518	12.318597
0.56	56	0.027	-0.972	-0.251	0	0.2291832	0.0572958	74.1694131	1.8334656	12.318597
0.57	57	0.026	-0.973	-0.252	0.1145916	0.0572958	0.0572958	74.17514268	1.8334656	12.318597
0.58	58	0.027	-0.974	-0.251	0.1145916	0.1718874	0	74.17514268	1.83919518	12.32432658
0.59	59	0.027	-0.974	-0.25	0	0.2291832	-0.1145916	74.17514268	1.83919518	12.32432658
0.6	60	0.027	-0.973	-0.25	0	0.1718874	-0.1718874	74.1694131	1.8334656	12.33005616
0.61	61	0.027	-0.973	-0.249	0	0.1145916	-0.1718874	74.1694131	1.8334656	12.33005616
0.62	62	0.027	-0.972	-0.251	-0.0572958	0.0572958	-0.1145916	74.1694131	1.8334656	12.33005616
0.63	63	0.026	-0.973	-0.252	-0.1718874	0.0572958	-0.0572958	74.1694131	1.83919518	12.33005616
0.64	64	0.029	-0.974	-0.253	-0.1145916	0.3437748	0.0572958	74.1694131	1.83919518	12.33578574
0.65	65	0.032	-0.973	-0.252	-0.1718874	0.286479	0.1718874	74.16368352	1.85065434	12.33578574
0.66	66	0.032	-0.973	-0.252	-0.2291832	0.0572958	0.286479	74.15795394	1.85065434	12.33578574
0.67	67	0.03	-0.971	-0.252	-0.1145916	-0.1145916	0.286479	74.15795394	1.84492476	12.33578574
0.68	68	0.03	-0.97	-0.253	-0.1145916	-0.1718874	0.1718874	74.15795394	1.84492476	12.33578574
0.69	69	0.029	-0.972	-0.254	-0.1145916	-0.0572958	0	74.15222436	1.84492476	12.33578574
0.7	70	0.029	-0.974	-0.252	0	-0.0572958	0	74.14649478	1.83919518	12.33578574
0.71	71	0.028	-0.974	-0.251	0.0572958	-0.4010706	0.0572958	74.14649478	1.83919518	12.33005616
0.72	72	0.027	-0.973	-0.251	0	-0.4583664	0.1145916	74.14649478	1.83919518	12.33005616
0.73	73	0.026	-0.973	-0.251	0	-0.3437748	0.1718874	74.14649478	1.8334656	12.32432658
0.74	74	0.025	-0.973	-0.248	0.0572958	0	0.2291832	74.14649478	1.8334656	12.32432658
0.75	75	0.025	-0.97	-0.248	0.0572958	0.0572958	0.2291832	74.14649478	1.81627686	12.33005616
0.76	76	0.026	-0.971	-0.249	0.0572958	0	0.1718874	74.14649478	1.81627686	12.33005616
0.77	77	0.026	-0.97	-0.249	0	0.1145916	0.0572958	74.14649478	1.81627686	12.33005616
0.78	78	0.028	-0.97	-0.25	0.0572958	0.1145916	0.1145916	74.14649478	1.81627686	12.33005616
0.79	79	0.028	-0.97	-0.251	0.0572958	0.0572958	0	74.15222436	1.81627686	12.33005616
0.8	80	0.028	-0.97	-0.25	0	0	0	74.14649478	1.81627686	12.33578574
0.81	81	0.027	-0.969	-0.249	0.0572958	-0.1145916	0	74.14649478	1.81627686	12.33005616
0.82	82	0.026	-0.97	-0.251	0.1145916	-0.0572958	-0.0572958	74.14649478	1.81627686	12.33005616
0.83	83	0.025	-0.972	-0.25	0.1145916	0	-0.1145916	74.15222436	1.81627686	12.33005616
0.84	84	0.025	-0.972	-0.253	0.1718874	0	0	74.15222436	1.81627686	12.33005616
0.85	85	0.024	-0.973	-0.251	0.2291832	0	0	74.15222436	1.79908812	12.33005616
0.86	86	0.023	-0.972	-0.251	0.286479	0	0	74.15795394	1.79908812	12.33005616
0.87	87	0.025	-0.974	-0.252	0.1145916	0.1718874	-0.1145916	74.15795394	1.79908812	12.33005616
0.88	88	0.025	-0.973	-0.253	0.1145916	0.3437748	-0.1145916	74.16368352	1.8048177	12.33578574
0.89	89	0.026	-0.974	-0.254	0.1718874	0.286479	0	74.16368352	1.8048177	12.34151532
0.9	90	0.025	-0.974	-0.252	0.2291832	0.2291832	-0.0572958	74.16368352	1.79908812	12.34151532
0.91	91	0.026	-0.973	-0.252	0.2291832	0.1718874	-0.0572958	74.16368352	1.79908812	12.34151532
0.92	92	0.026	-0.973	-0.252	0.1718874	0.1718874	0	74.1694131	1.79908812	12.3472449
0.93	93	0.027	-0.973	-0.253	0.1145916	0.1145916	-0.0572958	74.1694131	1.79908812	12.3472449
0.94	94	0.027	-0.972	-0.253	0	0.0572958	-0.1145916	74.1694131	1.8048177	12.3472449
0.95	95	0.026	-0.972	-0.254	0.1145916	-0.0572958	-0.0572958	74.15795394	1.79908812	12.3472449
0.96	96	0.027	-0.97	-0.253	0.1718874	-0.2291832	0	74.16368352	1.79908812	12.3472449
0.97	97	0.026	-0.968	-0.252	0.1718874	-0.0572958	0	74.16368352	1.79908812	12.34151532
0.98	98	0.026	-0.969	-0.252	0.2291832	-0.1145916	-0.1145916	74.16368352	1.79908812	12.34151532
0.99	99	0.027	-0.969	-0.25	0.2291832	-0.0572958	-0.1145916	74.1694131	1.79908812	12.34151532
1	100	0.027	-0.97	-0.251	0.286479	0	-0.1145916	74.16368352	1.79908812	12.34151532
1.01	101	0.025	-0.971	-0.251	0.286479	0	-0.1145916	74.1694131	1.8048177	12.34151532
1.02	102	0.025	-0.971	-0.251	0.286479	0.0572958	-0.1718874	74.17514268	1.8048177	12.34151532
1.03	103	0.025	-0.971	-0.251	0.2291832	0.1145916	-0.1145916	74.17514268	1.8048177	12.34151532
1.04	104	0.024	-0.972	-0.25	0.286479	0.1145916	-0.1145916	74.18087226	1.81054728	12.34151532
1.05	105	0.025	-0.972	-0.251	0.286479	0.1718874	-0.1145916	74.18087226	1.79908812	12.3472449
1.06	106	0.025	-0.973	-0.251	0.3437748	0.1718874	-0.1145916	74.18660184	1.8048177	12.3472449
1.07	107	0.026	-0.972	-0.251	0.3437748	0.1718874	-0.1145916	74.19233142	1.8048177	12.3472449
1.08	108	0.026	-0.973	-0.251	0.4010706	0.2291832	-0.0572958	74.19233142	1.8048177	12.35297448
1.09	109	0.026	-0.973	-0.25	0.4583664	0.4010706	-0.0572958	74.198061	1.8048177	12.35297448
1.1	110	0.026	-0.974	-0.249	0.4010706	0.5156622	-0.0572958	74.20379058	1.8048177	12.35870406
1.11	111	0.028	-0.974	-0.249	0.3437748	0.572958	-0.0572958	74.20952016	1.81054728	12.36443364
1.12	112	0.028	-0.974	-0.25	0.286479	0.6302538	-0.0572958	74.20952016	1.81054728	12.37016322
1.13	113	0.028	-0.974	-0.25	0.1718874	0.4583664	0	74.21524974	1.81054728	12.3758928
1.14	114	0.027	-0.974	-0.249	0.1718874	0.4583664	0.0572958	74.21524974	1.81054728	12.38162238
1.15	115	0.027	-0.973	-0.25	0.1718874	0.4010706	0.1145916	74.21524974	1.81627686	12.38735196
1.16	116	0.026	-0.973	-0.25	0.1145916	0.4583664	0	74.22097932	1.81627686	12.39308154
1.17	117	0.026	-0.972	-0.25	0.1718874	0.4010706	-0.0572958	74.22097932	1.81627686	12.39308154
1.18	118	0.024	-0.972	-0.249	0.1718874	0.5156622	0	74.22097932	1.81627686	12.39881112
1.19	119	0.026	-0.973	-0.25	0.2291832	0.5156622	-0.1145916	74.2267089	1.82200644	12.4045407
1.2	120	0.027	-0.972	-0.249	0.1718874	0.5156622	-0.1145916	74.2267089	1.82200644	12.41027028
1.21	121	0.028	-0.972	-0.248	0.2291832	0.572958	-0.0572958	74.23243848	1.82773602	12.41599986
1.22	122	0.029	-0.974	-0.249	0.1718874	0.5156622	-0.0572958	74.23243848	1.82773602	12.42172944
1.23	123	0.028	-0.976	-0.249	0	0.3437748	0	74.23243848	1.82773602	12.42172944
1.24	124	0.026	-0.975	-0.248	0	0.1718874	0	74.23243848	1.82773602	12.42745902
1.25	125	0.026	-0.976	-0.249	-0.1718874	0.286479	-0.1718874	74.23816806	1.82773602	12.42745902
1.26	126	0.026	-0.976	-0.249	-0.2291832	0.4010706	-0.1718874	74.23243848	1.82773602	12.4331886
1.27	127	0.026	-0.973	-0.248	-0.286479	0.4583664	-0.1718874	74.23243848	1.8334656	12.43891818
1.28	128	0.027	-0.973	-0.248	-0.3437748	0.4010706	-0.0572958	74.2267089	1.8334656	12.43891818
1.29	129	0.028	-0.974	-0.248	-0.286479	0.286479	-0.0572958	74.2267089	1.8334656	12.44464776
1.3	130	0.029	-0.974	-0.249	-0.3437748	0.1718874	-0.0572958	74.22097932	1.83919518	12.44464776
1.31	131	0.031	-0.975	-0.248	-0.3437748	0.1718874	0.1145916	74.21524974	1.83919518	12.44464776
1.32	132	0.029	-0.975	-0.248	-0.3437748	0	0.2291832	74.21524974	1.83919518	12.44464776
1.33	133	0.03	-0.974	-0.248	-0.4010706	-0.2291832	0.2291832	74.20952016	1.8334656	12.44464776
1.34	134	0.03	-0.975	-0.249	-0.572958	-0.4583664	0	74.20379058	1.8334656	12.43891818
1.35	135	0.028	-0.976	-0.249	-0.572958	-0.5156622	-0.0572958	74.198061	1.82773602	12.4331886
1.36	136	0.028	-0.976	-0.249	-0.6302538	-0.5156622	-0.1145916	74.19233142	1.8334656	12.42745902
1.37	137	0.027	-0.977	-0.248	-0.5156622	-0.572958	-0.0572958	74.18660184	1.82773602	12.42172944
1.38	138	0.025	-0.977	-0.248	-0.4583664	-0.5156622	0	74.18087226	1.82773602	12.41599986
1.39	139	0.024	-0.975	-0.248	-0.4583664	-0.4010706	0	74.17514268	1.82773602	12.41599986
1.4	140	0.023	-0.974	-0.248	-0.5156622	-0.2291832	0	74.17514268	1.81627686	12.41027028
1.41	141	0.024	-0.971	-0.249	-0.4583664	-0.0572958	0	74.1694131	1.81627686	12.41027028
1.42	142	0.025	-0.969	-0.249	-0.5156622	0	0	74.16368352	1.81627686	12.41027028
1.43	143	0.027	-0.968	-0.25	-0.4010706	-0.1145916	0	74.15795394	1.81627686	12.41027028
1.44	144	0.028	-0.967	-0.252	-0.1145916	-0.286479	-0.0572958	74.15795394	1.81627686	12.4045407
1.45	145	0.03	-0.967	-0.252	-0.1145916	-0.3437748	-0.0572958	74.15222436	1.82200644	12.4045407
1.46	146	0.03	-0.968	-0.252	-0.1145916	-0.5156622	-0.1145916	74.15222436	1.82200644	12.39881112
1.47	147	0.03	-0.968	-0.251	-0.1718874	-0.572958	-0.1145916	74.15222436	1.82200644	12.38735196
1.48	148	0.029	-0.97	-0.251	-0.1145916	-0.4583664	-0.0572958	74.14649478	1.82200644	12.38735196
1.49	149	0.028	-0.973	-0.252	-0.1718874	-0.572958	-0.1145916	74.14649478	1.82200644	12.38162238
1.5	150	0.025	-0.974	-0.253	-0.1718874	-0.572958	-0.0572958	74.1407652	1.81627686	12.3758928
1.51	151	0.024	-0.973	-0.252	-0.2291832	-0.6302538	-0.0572958	74.1407652	1.81627686	12.36443364
1.52	152	0.024	-0.974	-0.251	-0.1718874	-0.572958	-0.1145916	74.13503562	1.81627686	12.35870406
1.53	153	0.026	-0.975	-0.25	-0.1718874	-0.4010706	-0.1145916	74.13503562	1.81627686	12.35870406
1.54	154	0.028	-0.974	-0.253	-0.1145916	-0.1718874	-0.0572958	74.13503562	1.81627686	12.35297448
1.55	155	0.027	-0.973	-0.255	-0.1145916	-0.0572958	-0.1145916	74.1121173	1.82200644	12.35297448
1.56	156	0.027	-0.975	-0.253	0	-0.1145916	-0.0572958	74.1121173	1.82200644	12.35297448
1.57	157	0.027	-0.975	-0.251	-0.1145916	-0.286479	-0.0572958	74.1121173	1.82200644	12.3472449
1.58	158	0.027	-0.974	-0.25	-0.1718874	-0.1718874	-0.0572958	74.1121173	1.82200644	12.3472449
1.59	159	0.028	-0.973	-0.251	-0.2291832	0	-0.1145916	74.10638772	1.82200644	12.3472449
1.6	160	0.028	-0.974	-0.251	-0.286479	0	-0.0572958	74.10638772	1.82773602	12.3472449
1.61	161	0.03	-0.973	-0.251	-0.1718874	0	0	74.10638772	1.82773602	12.3472449
1.62	162	0.029	-0.972	-0.251	-0.1718874	0	0.0572958	74.10065814	1.82200644	12.3472449
1.63	163	0.028	-0.971	-0.251	-0.2291832	0.0572958	0	74.10065814	1.82200644	12.3472449
1.64	164	0.027	-0.97	-0.251	-0.0572958	0	0	74.09492856	1.82200644	12.3472449
1.65	165	0.027	-0.969	-0.25	0	0	-0.0572958	74.10065814	1.82200644	12.3472449
1.66	166	0.026	-0.97	-0.25	0	0	-0.1145916	74.10065814	1.82200644	12.3472449
1.67	167	0.028	-0.969	-0.251	0	0	-0.1718874	74.10065814	1.82200644	12.3472449
1.68	168	0.029	-0.97	-0.251	0.0572958	-0.0572958	0	74.10065814	1.82200644	12.3472449
1.69	169	0.029	-0.969	-0.251	0.1145916	-0.0572958	0	74.10065814	1.82200644	12.34151532
1.7	170	0.03	-0.97	-0.25	0.1145916	0	0	74.10638772	1.83919518	12.34151532
1.71	171	0.029	-0.971	-0.25	0.1718874	0	0	74.1121173	1.83919518	12.34151532
1.72	172	0.028	-0.972	-0.25	0.1145916	0	0	74.1121173	1.83919518	12.34151532
1.73	173	0.027	-0.971	-0.251	0.0572958	0.1145916	0	74.1121173	1.83919518	12.3472449
1.74	174	0.027	-0.971	-0.252	0.2291832	0.1145916	0	74.11784688	1.83919518	12.3472449
1.75	175	0.027	-0.972	-0.251	0.1145916	0.1718874	0	74.1121173	1.8334656	12.3472449
1.76	176	0.028	-0.971	-0.252	0.1145916	0.0572958	0.0572958	74.1121173	1.8334656	12.3472449
1.77	177	0.029	-0.971	-0.251	0.1145916	0	0	74.11784688	1.8334656	12.3472449
1.78	178	0.031	-0.973	-0.252	0.0572958	0.0572958	0	74.11784688	1.8334656	12.35297448
1.79	179	0.032	-0.972	-0.253	0	0	0	74.11784688	1.8334656	12.35297448
1.8	180	0.032	-0.971	-0.253	0.0572958	-0.0572958	0	74.08919898	1.85638392	12.35297448
1.81	181	0.03	-0.971	-0.252	0.0572958	-0.1718874	0.0572958	74.08919898	1.85638392	12.3472449
1.82	182	0.029	-0.97	-0.251	0.0572958	-0.2291832	0	74.08919898	1.85065434	12.3472449
1.83	183	0.028	-0.971	-0.251	0	-0.1718874	0	74.08919898	1.85065434	12.34151532
1.84	184	0.027	-0.971	-0.251	0	-0.1718874	0	74.08919898	1.85065434	12.34151532
1.85	185	0.028	-0.971	-0.252	0	-0.1145916	0	74.07773982	1.85065434	12.34151532
1.86	186	0.028	-0.972	-0.252	-0.0572958	0	0.0572958	74.07773982	1.85065434	12.34151532
1.87	187	0.027	-0.973	-0.254	0	0.0572958	0.1145916	74.07773982	1.85065434	12.34151532
1.88	188	0.026	-0.973	-0.253	-0.0572958	-0.1145916	0	74.07773982	1.85065434	12.34151532
1.89	189	0.024	-0.972	-0.253	-0.0572958	0	-0.0572958	74.07201024	1.85065434	12.34151532
1.9	190	0.025	-0.972	-0.254	0	0.1145916	-0.1145916	74.06055108	1.8334656	12.34151532
1.91	191	0.026	-0.97	-0.255	0	0	-0.1145916	74.06055108	1.8334656	12.34151532
1.92	192	0.027	-0.968	-0.252	-0.0572958	0	-0.0572958	74.06055108	1.8334656	12.34151532
1.93	193	0.027	-0.969	-0.25	-0.1718874	0.1145916	-0.0572958	74.0548215	1.83919518	12.34151532
1.94	194	0.029	-0.97	-0.253	-0.2291832	0.4010706	0	74.0548215	1.83919518	12.3472449
1.95	195	0.03	-0.97	-0.258	-0.1718874	0.4583664	0	74.03763276	1.84492476	12.35297448
1.96	196	0.031	-0.973	-0.255	-0.1145916	0.286479	0.1145916	74.03763276	1.84492476	12.35297448
1.97	197	0.029	-0.974	-0.253	-0.1718874	0	0.0572958	74.03763276	1.84492476	12.35870406
1.98	198	0.028	-0.975	-0.252	-0.1718874	-0.1145916	0.0572958	74.03190318	1.84492476	12.35297448
1.99	199	0.031	-0.976	-0.251	-0.2291832	-0.0572958	0	74.03190318	1.84492476	12.35297448
2	200	0.031	-0.975	-0.25	-0.286479	0	0.0572958	74.03763276	1.85065434	12.35297448
2.01	201	0.029	-0.975	-0.251	-0.286479	0	0.1145916	74.03190318	1.85065434	12.35297448
2.02	202	0.027	-0.973	-0.25	-0.2291832	0.0572958	0.1145916	74.0261736	1.85065434	12.35297448
2.03	203	0.025	-0.972	-0.25	-0.2291832	0.286479	0.1718874	74.0261736	1.84492476	12.35870406
2.04	204	0.027	-0.969	-0.252	-0.1718874	0.286479	0.1145916	74.0261736	1.84492476	12.36443364
2.05	205	0.028	-0.969	-0.25	-0.0572958	0.286479	0	74.0261736	1.85065434	12.36443364
2.06	206	0.03	-0.969	-0.251	0	0.2291832	-0.0572958	74.0261736	1.85638392	12.36443364
2.07	207	0.032	-0.969	-0.251	0	0.0572958	-0.0572958	74.0261736	1.85638392	12.37016322
2.08	208	0.033	-0.969	-0.251	0	0	0	74.0261736	1.85638392	12.37016322
2.09	209	0.032	-0.972	-0.251	0.0572958	-0.0572958	0	74.0261736	1.85638392	12.36443364
2.1	210	0.031	-0.972	-0.252	0	-0.1145916	0	74.03190318	1.86784308	12.36443364
2.11	211	0.03	-0.972	-0.252	0	-0.1145916	0.0572958	74.03190318	1.86784308	12.36443364
2.12	212	0.031	-0.974	-0.253	0.1145916	-0.2291832	0.0572958	74.03190318	1.86784308	12.36443364
2.13	213	0.03	-0.972	-0.254	0.0572958	-0.286479	0.1145916	74.03190318	1.8621135	12.35870406
2.14	214	0.029	-0.972	-0.255	0.1718874	-0.286479	0.2291832	74.03763276	1.8621135	12.35870406
2.15	215	0.027	-0.972	-0.254	0.2291832	-0.4010706	0.2291832	74.03763276	1.85065434	12.35297448
2.16	216	0.027	-0.973	-0.252	0.2291832	-0.4010706	0.1145916	74.03763276	1.85065434	12.35297448
2.17	217	0.025	-0.972	-0.254	0.2291832	-0.2291832	0.0572958	74.04336234	1.85065434	12.3472449
2.18	218	0.026	-0.972	-0.257	0.286479	-0.0572958	0.0572958	74.04336234	1.85065434	12.3472449
2.19	219	0.027	-0.972	-0.258	0.4583664	0	0.1145916	74.04909192	1.85065434	12.3472449
2.2	220	0.029	-0.97	-0.258	0.6302538	-0.1718874	0.286479	74.04336234	1.84492476	12.3472449
2.21	221	0.03	-0.972	-0.257	0.6302538	-0.2291832	0.4010706	74.0548215	1.83919518	12.3472449
2.22	222	0.032	-0.971	-0.255	0.6302538	-0.5156622	0.4010706	74.06055108	1.83919518	12.34151532
2.23	223	0.034	-0.971	-0.255	0.4010706	-0.572958	0.4583664	74.06628066	1.8334656	12.33578574
2.24	224	0.035	-0.972	-0.255	0.2291832	-0.6875496	0.4010706	74.06628066	1.82200644	12.33005616
2.25	225	0.034	-0.971	-0.254	0.0572958	-0.6302538	0.4583664	74.06055108	1.82773602	12.32432658
2.26	226	0.034	-0.973	-0.255	-0.286479	-0.572958	0.3437748	74.06055108	1.82200644	12.318597
2.27	227	0.034	-0.973	-0.255	-0.4583664	-0.8021412	0.2291832	74.0548215	1.82200644	12.31286742
2.28	228	0.033	-0.973	-0.253	-0.6302538	-0.859437	0.286479	74.04909192	1.81627686	12.30713784
2.29	229	0.035	-0.974	-0.25	-0.8021412	-0.9740286	0.286479	74.03763276	1.81054728	12.29567868
2.3	230	0.035	-0.975	-0.252	-1.0313244	-1.2032118	0.3437748	74.03190318	1.8048177	12.28421952
2.31	231	0.034	-0.976	-0.252	-1.3178034	-1.432395	0.2291832	74.01471444	1.79908812	12.27276036
2.32	232	0.032	-0.976	-0.25	-1.4896908	-1.5469866	0.1718874	74.00325528	1.79335854	12.2613012
2.33	233	0.031	-0.976	-0.25	-1.5469866	-1.6042824	0.1718874	73.98606654	1.78762896	12.24411246
2.34	234	0.028	-0.976	-0.25	-1.5469866	-1.718874	0	73.9688778	1.78189938	12.22692372
2.35	235	0.027	-0.975	-0.249	-1.5469866	-1.6042824	-0.0572958	73.95168906	1.78189938	12.20973498
2.36	236	0.025	-0.976	-0.249	-1.6615782	-1.5469866	-0.1718874	73.93450032	1.7761698	12.19254624
2.37	237	0.026	-0.975	-0.25	-1.6042824	-1.3750992	-0.286479	73.91731158	1.7761698	12.18108708
2.38	238	0.026	-0.975	-0.25	-1.4896908	-1.3178034	-0.286479	73.90585242	1.7761698	12.16962792
2.39	239	0.027	-0.975	-0.25	-1.432395	-1.3750992	-0.1145916	73.88866368	1.7761698	12.15243918
2.4	240	0.026	-0.972	-0.25	-1.3750992	-1.3750992	0	73.87720452	1.77044022	12.14098002
2.41	241	0.026	-0.971	-0.25	-1.2605076	-1.5469866	0	73.86574536	1.76471064	12.12379128
2.42	242	0.026	-0.97	-0.251	-1.2032118	-1.6615782	0	73.8542862	1.75898106	12.10660254
2.43	243	0.025	-0.968	-0.252	-1.145916	-1.6615782	0	73.83709746	1.75898106	12.09514338
2.44	244	0.025	-0.968	-0.255	-1.0313244	-1.8334656	0	73.83136788	1.75325148	12.07222506
2.45	245	0.023	-0.968	-0.256	-0.9167328	-1.8334656	-0.1145916	73.81990872	1.7475219	12.05503632
2.46	246	0.022	-0.968	-0.255	-0.9167328	-1.7761698	-0.3437748	73.80844956	1.7475219	12.03784758
2.47	247	0.023	-0.968	-0.257	-0.9740286	-1.3178034	-0.5156622	73.7969904	1.7475219	12.02065884
2.48	248	0.027	-0.97	-0.261	-1.0886202	-1.3750992	-0.4010706	73.78553124	1.7475219	12.00919968
2.49	249	0.03	-0.968	-0.262	-0.9740286	-1.718874	-0.286479	73.77980166	1.7475219	11.99201094
2.5	250	0.031	-0.968	-0.262	-0.8021412	-2.3491278	0.1718874	73.7683425	1.74179232	11.96909262
2.51	251	0.031	-0.968	-0.261	-0.8021412	-3.151269	0.4010706	73.75688334	1.73033316	11.94044472
2.52	252	0.03	-0.968	-0.261	-0.9167328	-3.3231564	0.4583664	73.74542418	1.71314442	11.91179682
2.53	253	0.028	-0.967	-0.262	-1.0313244	-3.3231564	0.4010706	73.73396502	1.70168526	11.87741934
2.54	254	0.025	-0.967	-0.263	-0.9740286	-3.3804522	0.1145916	73.72823544	1.6902261	11.84304186
2.55	255	0.021	-0.969	-0.261	-1.0313244	-3.3804522	-0.2291832	73.7110467	1.68449652	11.81439396
2.56	256	0.017	-0.972	-0.261	-1.2032118	-3.0939732	-0.572958	73.69958754	1.67876694	11.78001648
2.57	257	0.015	-0.975	-0.264	-1.3178034	-2.578311	-0.8021412	73.68812838	1.68449652	11.75136858
2.58	258	0.015	-0.976	-0.266	-1.3178034	-1.8907614	-0.8021412	73.67093964	1.68449652	11.73417984
2.59	259	0.017	-0.976	-0.265	-1.5469866	-1.4896908	-0.859437	73.6537509	1.6902261	11.7169911
2.6	260	0.02	-0.976	-0.267	-1.6615782	-1.3178034	-0.6302538	73.63656216	1.6902261	11.69980236
2.61	261	0.024	-0.973	-0.267	-1.6042824	-1.145916	-0.4010706	73.61937342	1.6902261	11.6883432
2.62	262	0.029	-0.972	-0.266	-1.718874	-1.0886202	-0.286479	73.60218468	1.6902261	11.67688404
2.63	263	0.032	-0.97	-0.267	-1.718874	-1.0313244	-0.286479	73.58499594	1.6902261	11.66542488
2.64	264	0.03	-0.969	-0.264	-1.7761698	-1.145916	-0.3437748	73.56207762	1.6902261	11.65396572
2.65	265	0.026	-0.969	-0.263	-1.8907614	-1.0313244	-0.4583664	73.5391593	1.6902261	11.64250656
2.66	266	0.022	-0.969	-0.262	-1.9480572	-0.859437	-0.572958	73.52197056	1.69595568	11.6310474
2.67	267	0.017	-0.968	-0.264	-2.0626488	-0.572958	-0.7448454	73.49905224	1.70168526	11.61958824
2.68	268	0.015	-0.969	-0.263	-2.0626488	-0.1145916	-0.9740286	73.47613392	1.70741484	11.61958824
2.69	269	0.014	-0.968	-0.263	-1.9480572	0.1145916	-0.9740286	73.45894518	1.718874	11.61385866
2.7	270	0.015	-0.968	-0.261	-1.8907614	0.572958	-1.0313244	73.44175644	1.72460358	11.61958824
2.71	271	0.019	-0.967	-0.261	-1.8334656	0.9167328	-0.9740286	73.41883812	1.73606274	11.62531782
2.72	272	0.02	-0.967	-0.262	-1.7761698	1.145916	-0.9740286	73.40164938	1.7475219	11.6310474
2.73	273	0.023	-0.967	-0.262	-1.8334656	1.3750992	-1.0313244	73.38446064	1.75898106	11.64250656
2.74	274	0.023	-0.967	-0.263	-1.7761698	1.6042824	-1.0313244	73.3672719	1.7761698	11.65396572
2.75	275	0.022	-0.967	-0.263	-1.9480572	1.8334656	-1.2605076	73.34435358	1.78762896	11.67115446
2.76	276	0.02	-0.97	-0.263	-2.0626488	2.2345362	-1.3750992	73.32716484	1.81054728	11.6883432
2.77	277	0.019	-0.969	-0.264	-2.1199446	2.578311	-1.3750992	73.30424652	1.82773602	11.70553194
2.78	278	0.018	-0.971	-0.263	-2.1772404	2.9793816	-1.432395	73.2813282	1.85065434	11.73417984
2.79	279	0.019	-0.971	-0.264	-2.291832	3.3231564	-1.432395	73.25840988	1.87357266	11.76282774
2.8	280	0.021	-0.971	-0.264	-2.291832	3.437748	-1.3750992	73.23549156	1.8907614	11.79147564
2.81	281	0.025	-0.971	-0.265	-2.1772404	3.724227	-1.2605076	73.21257324	1.91367972	11.82012354
2.82	282	0.029	-0.971	-0.264	-2.1199446	3.724227	-1.2032118	73.18965492	1.93659804	11.85450102
2.83	283	0.033	-0.969	-0.262	-2.1199446	3.724227	-1.2605076	73.17246618	1.95951636	11.88314892
2.84	284	0.035	-0.968	-0.261	-2.1772404	3.6096354	-1.4896908	73.14954786	1.98243468	11.9175264
2.85	285	0.034	-0.968	-0.26	-2.1199446	3.5523396	-1.6615782	73.12662954	2.005353	11.9461743
2.86	286	0.033	-0.971	-0.262	-2.5210152	3.5523396	-1.9480572	73.10371122	2.0340009	11.9748222
2.87	287	0.031	-0.972	-0.262	-3.0366774	3.151269	-2.0626488	73.07506332	2.0626488	11.99774052
2.88	288	0.029	-0.97	-0.254	-2.9220858	2.9793816	-2.3491278	73.04068584	2.0912967	12.02065884
2.89	289	0.029	-0.972	-0.247	-3.2658606	3.3804522	-2.8074942	73.01203794	2.12567418	12.04357716
2.9	290	0.032	-0.972	-0.243	-4.4117766	3.9534102	-3.3231564	72.97193088	2.16578124	12.07222506
2.91	291	0.032	-0.977	-0.246	-5.6149884	4.3544808	-3.7815228	72.91463508	2.21734746	12.10087296
2.92	292	0.03	-0.984	-0.252	-6.875496	4.1252976	-4.2398892	72.84588012	2.26891368	12.12952086
2.93	293	0.026	-0.99	-0.262	-8.021412	3.5523396	-4.5263682	72.765666	2.3204799	12.1467096
2.94	294	0.024	-0.995	-0.265	-8.880849	3.3231564	-4.6982556	72.67399272	2.37204612	12.16389834
2.95	295	0.029	-0.997	-0.268	-9.8548776	3.5523396	-4.6409598	72.57658986	2.42361234	12.18681666
2.96	296	0.032	-0.995	-0.266	-10.599723	3.5523396	-4.6982556	72.46772784	2.47517856	12.2040054
2.97	297	0.035	-0.99	-0.265	-10.886202	3.6669312	-4.7555514	72.35886582	2.53247436	12.22692372
2.98	298	0.036	-0.987	-0.266	-11.3445684	4.0680018	-4.870143	72.24427422	2.58404058	12.24984204
2.99	299	0.036	-0.986	-0.269	-11.9175264	4.2398892	-4.870143	72.12395304	2.64133638	12.27276036
3	300	0.036	-0.987	-0.273	-12.4331886	4.0680018	-4.7555514	71.99790228	2.69863218	12.29567868
3.01	301	0.039	-0.986	-0.278	-12.891555	3.724227	-4.5263682	71.86612194	2.7501984	12.318597
3.02	302	0.04	-0.98	-0.28	-13.1207382	3.2085648	-4.1252976	71.7343416	2.79603504	12.33578574
3.03	303	0.045	-0.976	-0.279	-13.2926256	2.578311	-3.9534102	71.59683168	2.84187168	12.3472449
3.04	304	0.051	-0.973	-0.28	-13.5218088	2.0626488	-3.9534102	71.45932176	2.88197874	12.35297448
3.05	305	0.057	-0.97	-0.281	-13.6364004	1.3750992	-3.9534102	71.32754142	2.9220858	12.35297448
3.06	306	0.06	-0.967	-0.284	-13.8082878	0.286479	-4.010706	71.18430192	2.96219286	12.34151532
3.07	307	0.059	-0.965	-0.282	-13.8082878	-0.859437	-3.8961144	71.04106242	2.99084076	12.318597
3.08	308	0.059	-0.964	-0.283	-14.2093584	-1.7761698	-3.8388186	70.89782292	3.01948866	12.2899491
3.09	309	0.06	-0.965	-0.286	-14.610429	-2.291832	-3.7815228	70.74885384	3.04813656	12.25557162
3.1	310	0.059	-0.966	-0.288	-15.0687954	-2.9220858	-3.7815228	70.59415518	3.07678446	12.20973498
3.11	311	0.059	-0.968	-0.289	-15.5271618	-3.3231564	-3.8388186	70.43372694	3.09970278	12.16389834
3.12	312	0.059	-0.968	-0.293	-15.9282324	-3.7815228	-3.7815228	70.2732987	3.1226211	12.1180617
3.13	313	0.058	-0.97	-0.298	-16.3865988	-4.1825934	-3.7815228	70.1014113	3.14553942	12.0607659
3.14	314	0.058	-0.97	-0.3	-16.8449652	-4.6409598	-3.7815228	69.9295239	3.16272816	12.0034701
3.15	315	0.059	-0.971	-0.3	-17.4179232	-4.9847346	-3.8388186	69.75190692	3.1799169	11.94044472
3.16	316	0.062	-0.975	-0.302	-18.048177	-5.3285094	-4.010706	69.56283078	3.20283522	11.87741934
3.17	317	0.063	-0.974	-0.307	-18.907614	-5.72958	-4.1252976	69.36802506	3.22002396	11.80866438
3.18	318	0.063	-0.973	-0.313	-19.5951636	-6.302538	-4.0680018	69.16748976	3.23148312	11.73417984
3.19	319	0.064	-0.975	-0.316	-20.4546006	-6.8182002	-4.0680018	68.9554953	3.24867186	11.65396572
3.2	320	0.065	-0.972	-0.313	-21.3713334	-7.161975	-4.0680018	68.73777126	3.26013102	11.56802202
3.21	321	0.064	-0.971	-0.31	-22.1734746	-7.3911582	-4.1252976	68.50858806	3.27159018	11.48207832
3.22	322	0.066	-0.971	-0.306	-22.9756158	-7.448454	-4.1252976	68.2679457	3.27731976	11.39613462
3.23	323	0.062	-0.97	-0.305	-24.2934192	-7.6203414	-4.2398892	68.02157376	3.28877892	11.31019092
3.24	324	0.06	-0.967	-0.307	-25.3820394	-7.9641162	-4.4117766	67.75801308	3.30023808	11.21851764
3.25	325	0.059	-0.971	-0.313	-26.356068	-7.6776372	-4.6409598	67.48872282	3.31169724	11.12684436
3.26	326	0.056	-0.973	-0.324	-27.9030546	-7.448454	-4.8128472	67.20224382	3.32888598	11.03517108
3.27	327	0.056	-0.975	-0.328	-28.9916748	-7.2192708	-4.870143	66.90430566	3.34607472	10.94922738
3.28	328	0.051	-0.972	-0.33	-29.9657034	-7.1046792	-4.7555514	66.59490834	3.35753388	10.86328368
3.29	329	0.049	-0.966	-0.332	-30.8251404	-7.0473834	-4.6982556	66.27405186	3.36899304	10.77733998
3.3	330	0.042	-0.961	-0.33	-31.6272816	-6.8182002	-4.6982556	65.95319538	3.38618178	10.69139628
3.31	331	0.036	-0.957	-0.334	-32.3148312	-5.9587632	-4.870143	65.62660932	3.40337052	10.61691174
3.32	332	0.034	-0.959	-0.342	-33.4034514	-4.9847346	-4.9847346	65.28283452	3.42055926	10.54815678
3.33	333	0.032	-0.959	-0.352	-34.950438	-4.297185	-4.9274388	64.92187098	3.44920716	10.4851314
3.34	334	0.03	-0.957	-0.352	-36.382833	-3.4950438	-4.6409598	64.54944828	3.47212548	10.4278356
3.35	335	0.034	-0.955	-0.35	-38.0444112	-2.9220858	-4.0680018	64.16556642	3.48931422	10.38199896
3.36	336	0.038	-0.948	-0.355	-39.7632852	-2.4064236	-3.4950438	63.75876624	3.50650296	10.3418919
3.37	337	0.039	-0.943	-0.367	-40.680018	-1.8334656	-3.0939732	63.34623648	3.51796212	10.30751442
3.38	338	0.045	-0.944	-0.386	-40.966497	-1.4896908	-3.0366774	62.92797714	3.53515086	10.27886652
3.39	339	0.041	-0.947	-0.392	-41.7686382	-0.859437	-3.151269	62.50398822	3.55806918	10.2559482
3.4	340	0.033	-0.952	-0.395	-42.3415962	0.1718874	-3.2085648	62.07426972	3.57525792	10.23875946
3.41	341	0.028	-0.96	-0.392	-43.258329	1.2605076	-3.6096354	61.63882164	3.6096354	10.2273003
3.42	342	0.034	-0.968	-0.391	-45.3209778	2.3491278	-4.4117766	61.17472566	3.65547204	10.2273003
3.43	343	0.044	-0.978	-0.393	-46.8679644	2.6929026	-5.6722842	60.69917052	3.70703826	10.22157072
3.44	344	0.058	-0.98	-0.399	-48.6441342	2.4064236	-6.1879464	60.20069706	3.77006364	10.21011156
3.45	345	0.075	-0.983	-0.42	-50.6494872	2.1772404	-6.1306506	59.69076444	3.82735944	10.19292282
3.46	346	0.097	-0.988	-0.432	-52.0818822	1.0886202	-5.5003968	59.16364308	3.87319608	10.17573408
3.47	347	0.107	-0.985	-0.433	-54.144531	-1.4896908	-4.5263682	58.60787382	3.8961144	10.13562702
3.48	348	0.104	-0.982	-0.446	-56.3217714	-4.5263682	-3.2085648	58.03491582	3.8961144	10.07833122
3.49	349	0.091	-0.967	-0.458	-58.2125328	-6.6463128	-1.7761698	57.4390395	3.8674665	10.00384668
3.5	350	0.062	-0.958	-0.467	-59.3584488	-7.6203414	-0.2291832	56.8374336	3.82162986	9.93509172
3.51	351	0.025	-0.954	-0.49	-59.9887026	-6.589017	0.859437	56.22436854	3.77579322	9.8835255
3.52	352	-0.002	-0.952	-0.508	-58.9000824	-4.4690724	1.145916	55.62849222	3.72995658	9.84914802
3.53	353	-0.023	-0.955	-0.515	-57.3530958	-1.3178034	0.7448454	55.04407506	3.71276784	9.83768886
3.54	354	-0.032	-0.97	-0.535	-57.1239126	1.6042824	-0.0572958	54.46538748	3.71276784	9.84914802
3.55	355	-0.037	-0.976	-0.541	-57.8114622	4.010706	-1.432395	53.88097032	3.73568616	9.87206634
3.56	356	-0.04	-0.983	-0.518	-58.3271244	5.9587632	-2.8074942	53.29082358	3.7815228	9.90071424
3.57	357	-0.033	-0.994	-0.528	-57.7541664	8.4224826	-3.8961144	52.70640642	3.85600734	9.94655088
3.58	358	-0.009	-1.01	-0.574	-58.0406454	12.2613012	-4.9847346	52.12198926	3.95913978	10.00957626
3.59	359	0.004	-1.004	-0.597	-58.2125328	14.1520626	-4.9274388	51.53184252	4.07373138	10.08979038
3.6	360	0.019	-0.982	-0.611	-57.3530958	15.5844576	-4.1825934	50.95888452	4.18832298	10.18719324
3.61	361	0.046	-0.963	-0.62	-55.6342218	16.5584862	-2.7501984	50.40311526	4.30291458	10.29605526
3.62	362	0.096	-0.944	-0.638	-54.3737142	15.0687954	-1.718874	49.85307558	4.40031744	10.3991877
3.63	363	0.139	-0.929	-0.657	-51.852699	10.1986524	0.286479	49.3316838	4.45761324	10.47940182
3.64	364	0.158	-0.921	-0.666	-48.8733174	5.5576926	2.4064236	48.83893992	4.46334282	10.53669762
3.65	365	0.173	-0.913	-0.668	-46.123119	3.4950438	3.6669312	48.38057352	4.45761324	10.58826384
3.66	366	0.193	-0.909	-0.671	-43.4875122	2.7501984	3.4950438	47.93939586	4.44615408	10.6283709
3.67	367	0.198	-0.911	-0.68	-41.9978214	2.7501984	2.7501984	47.51540694	4.43469492	10.66847796
3.68	368	0.173	-0.904	-0.711	-41.3675676	2.1199446	1.8907614	47.10287718	4.42896534	10.69712586
3.69	369	0.123	-0.898	-0.742	-40.2789474	1.9480572	1.0313244	46.69034742	4.42896534	10.7143146
3.7	370	0.074	-0.901	-0.749	-39.4768062	2.1199446	0	46.2950064	4.43469492	10.73150334
3.71	371	0.037	-0.911	-0.753	-38.961144	2.291832	-1.145916	45.89966538	4.45761324	10.73723292
3.72	372	0.026	-0.924	-0.744	-37.5860448	2.1199446	-2.005353	45.51578352	4.48053156	10.73723292
3.73	373	0.034	-0.921	-0.731	-36.7266078	2.0626488	-2.3491278	45.14336082	4.50344988	10.73723292
3.74	374	0.064	-0.908	-0.739	-35.809875	3.0366774	-2.4064236	44.78239728	4.53782736	10.7429625
3.75	375	0.103	-0.889	-0.743	-35.8671708	3.5523396	-2.2345362	44.42143374	4.57220484	10.74869208
3.76	376	0.124	-0.862	-0.739	-35.6379876	4.010706	-2.0626488	44.0604702	4.6123119	10.76588082
3.77	377	0.128	-0.842	-0.727	-35.4661002	4.9847346	-1.5469866	43.69950666	4.65241896	10.78879914
3.78	378	0.117	-0.822	-0.723	-35.1796212	5.72958	-1.3750992	43.3442727	4.6982556	10.81744704
3.79	379	0.101	-0.803	-0.723	-33.9764094	6.2452422	-1.6615782	43.0004979	4.74982182	10.84609494
3.8	380	0.086	-0.788	-0.709	-32.7159018	6.4744254	-2.3491278	42.67391184	4.80711762	10.87474284
3.81	381	0.074	-0.762	-0.686	-32.5440144	6.7036086	-3.5523396	42.34732578	4.870143	10.89193158
3.82	382	0.066	-0.728	-0.664	-31.6272816	6.8182002	-5.5003968	42.0264693	4.9560867	10.89766116
3.83	383	0.064	-0.694	-0.641	-30.366774	6.302538	-7.1046792	41.71707198	5.0420304	10.89193158
3.84	384	0.061	-0.651	-0.618	-29.3927454	6.0733548	-7.9068204	41.41340424	5.13370368	10.87474284
3.85	385	0.059	-0.614	-0.595	-28.4760126	6.1879464	-8.5370742	41.12692524	5.23110654	10.85182452
3.86	386	0.065	-0.584	-0.59	-27.5592798	6.7036086	-9.1100322	40.84044624	5.33423898	10.82317662
3.87	387	0.069	-0.553	-0.575	-26.5852512	7.734933	-9.2819196	40.57115598	5.44883058	10.80598788
3.88	388	0.074	-0.526	-0.569	-26.356068	8.9954406	-9.6256944	40.29613614	5.57488134	10.79452872
3.89	389	0.088	-0.504	-0.579	-24.6944898	10.0840608	-9.8548776	40.04403462	5.70666168	10.78306956
3.9	390	0.105	-0.494	-0.568	-23.491278	10.5424272	-9.9121734	39.80339226	5.84990118	10.77733998
3.91	391	0.118	-0.483	-0.567	-22.7464326	9.9694692	-9.167328	39.56847948	5.98168152	10.7716104
3.92	392	0.128	-0.476	-0.567	-22.8610242	8.3651868	-8.1932994	39.3335667	6.09054354	10.76588082
3.93	393	0.136	-0.473	-0.566	-23.1475032	6.1879464	-7.2192708	39.09865392	6.18221682	10.74869208
3.94	394	0.132	-0.472	-0.572	-23.6631654	3.724227	-6.2452422	38.85228198	6.2452422	10.72577376
3.95	395	0.127	-0.483	-0.575	-23.8350528	1.6042824	-5.8441716	38.60591004	6.29107884	10.69139628
3.96	396	0.122	-0.511	-0.577	-23.777757	-0.7448454	-6.1879464	38.3595381	6.31972674	10.63410048
3.97	397	0.114	-0.546	-0.586	-24.1215318	-2.9220858	-6.6463128	38.10743658	6.33691548	10.56534552
3.98	398	0.11	-0.565	-0.596	-23.8350528	-5.5003968	-6.6463128	37.85533506	6.3311859	10.47367224
3.99	399	0.1	-0.573	-0.611	-23.0902074	-7.2192708	-6.3598338	37.6146927	6.31399716	10.38199896
4	400	0.087	-0.574	-0.615	-22.8037284	-8.5370742	-5.5576926	37.37977992	6.27961968	10.2845961
4.01	401	0.075	-0.576	-0.626	-21.772404	-9.453807	-4.4690724	37.14486714	6.22805346	10.18719324
4.02	402	0.066	-0.578	-0.631	-21.2567418	-9.8548776	-3.3804522	36.92141352	6.17075766	10.10124954
4.03	403	0.067	-0.581	-0.639	-20.7410796	-9.3965112	-2.5210152	36.70368948	6.10773228	10.02103542
4.04	404	0.072	-0.588	-0.643	-19.5378678	-9.1100322	-1.8334656	36.4974246	6.0447069	9.94655088
4.05	405	0.075	-0.597	-0.641	-18.3919518	-8.9954406	-1.2032118	36.31407804	5.97595194	9.8835255
4.06	406	0.077	-0.609	-0.643	-16.5011904	-9.2246238	-0.5156622	36.14219064	5.90719698	9.8262297
4.07	407	0.076	-0.623	-0.645	-16.042824	-8.9381448	0.286479	35.97603282	5.83271244	9.7689339
4.08	408	0.071	-0.632	-0.646	-16.042824	-8.8235532	1.2605076	35.809875	5.75249832	9.72882684
4.09	409	0.066	-0.639	-0.656	-15.8136408	-8.2505952	2.2345362	35.64944676	5.6722842	9.69444936
4.1	410	0.056	-0.647	-0.659	-15.469866	-7.6203414	2.9793816	35.50620726	5.5863405	9.67726062
4.11	411	0.048	-0.649	-0.661	-14.2093584	-6.875496	3.7815228	35.36296776	5.51185596	9.66580146
4.12	412	0.045	-0.663	-0.668	-13.464513	-5.9014674	4.3544808	35.22545784	5.43737142	9.66580146
4.13	413	0.049	-0.668	-0.648	-13.9228794	-4.9847346	4.5263682	35.08794792	5.36861646	9.67153104
4.14	414	0.057	-0.672	-0.651	-13.4072172	-2.9793816	4.1825934	34.950438	5.31705024	9.68871978
4.15	415	0.059	-0.669	-0.652	-13.5218088	-1.3178034	3.8388186	34.84730556	5.27694318	9.71736768
4.16	416	0.062	-0.677	-0.645	-12.2613012	0	3.7815228	34.72698438	5.25402486	9.74601558
4.17	417	0.061	-0.691	-0.655	-12.3758928	1.5469866	3.7815228	34.6066632	5.2425657	9.78612264
4.18	418	0.054	-0.694	-0.646	-12.318597	2.2345362	3.4950438	34.48634202	5.2425657	9.83195928
4.19	419	0.042	-0.706	-0.624	-11.2872726	5.2139178	2.7501984	34.37175042	5.26548402	9.8835255
4.2	420	0.032	-0.72	-0.623	-11.1153852	8.7662574	2.1199446	34.30872504	5.31132066	9.95801004
4.21	421	0.015	-0.738	-0.636	-9.6256944	13.2926256	1.5469866	34.21705176	5.40872352	10.04968332
4.22	422	-0.003	-0.757	-0.625	-9.9121734	20.2827132	1.4896908	34.12537848	5.5576926	10.17573408
4.23	423	-0.027	-0.757	-0.591	-8.4224826	24.5226024	1.3178034	34.05089394	5.74676874	10.33043274
4.24	424	-0.04	-0.771	-0.578	-6.875496	32.8304934	0.7448454	33.99359814	6.00459984	10.52523846
4.25	425	-0.044	-0.789	-0.558	-5.3285094	41.6540466	1.2032118	33.98786856	6.32545632	10.78306956
4.26	426	-0.056	-0.791	-0.524	-2.1772404	51.7954032	3.2658606	33.99932772	6.72079734	11.10965562
4.27	427	-0.071	-0.793	-0.517	2.9220858	61.7648724	5.5576926	34.06808268	7.18489332	11.51072622
4.28	428	-0.069	-0.82	-0.458	4.1825934	73.2813282	9.1100322	34.16548554	7.72347384	12.01492926
4.29	429	-0.008	-0.822	-0.329	-1.2605076	88.8657858	13.8082878	34.22851092	8.35945722	12.65091264
4.3	430	0.105	-0.803	-0.365	-6.1879464	118.4304186	19.7097552	34.2915363	9.1959759	13.51034964
4.31	431	0.172	-0.808	-0.489	1.8334656	138.7704276	25.8977016	34.46915328	10.16427492	14.54167404
4.32	432	0.135	-0.817	-0.475	12.4331886	146.2188816	32.372127	34.78428018	11.1440331	15.67613088
4.33	433	0.019	-0.84	-0.433	21.2567418	149.5993338	37.9298196	35.23118742	12.1180617	16.89080184
4.34	434	-0.072	-0.87	-0.417	29.507337	152.7506028	43.0291458	35.79268626	13.08063114	18.17995734
4.35	435	-0.125	-0.856	-0.373	36.955791	155.3289138	47.841993	36.47450628	14.01455268	19.54359738
4.36	436	-0.102	-0.814	-0.342	41.0810886	160.7720148	50.9359662	37.23081084	14.95993338	20.98172196
4.37	437	-0.045	-0.711	-0.325	42.7999626	167.5329192	49.4462754	38.03868162	15.94542114	22.47141276
4.38	438	0.011	-0.614	-0.31	44.8053156	175.7835144	45.1490904	38.9038482	16.99966386	24.00121062
4.39	439	0.017	-0.551	-0.254	48.2430636	179.5077414	41.4248634	39.84349932	18.08828406	25.55965638
4.4	440	0.006	-0.521	-0.186	52.139178	182.200644	38.3308902	40.85763498	19.18263384	27.13529088
4.41	441	0.042	-0.495	-0.147	54.6028974	184.4351802	35.6952834	41.92906644	20.28844278	28.73957328
4.42	442	0.109	-0.463	-0.126	55.003968	184.4351802	33.2888598	43.04060496	21.38279256	30.36104442
4.43	443	0.163	-0.412	-0.133	50.3057124	178.9347834	31.1689152	44.12349558	22.42557612	31.95386766
4.44	444	0.183	-0.353	-0.14	44.1750618	170.168526	29.2781538	45.1490904	23.38814556	33.49512468
4.45	445	0.21	-0.323	-0.197	35.236917	161.6314518	28.074942	46.08874152	24.28196004	34.99054506
4.46	446	0.213	-0.313	-0.253	24.4080108	150.9171372	28.1895336	46.91953062	25.07837166	36.42866964
4.47	447	0.176	-0.29	-0.27	17.3606274	146.10429	28.0176462	47.68156476	25.82321706	37.8438759
4.48	448	0.124	-0.247	-0.288	14.7823164	146.10429	26.1268848	48.4435989	26.56806246	39.25908216
4.49	449	0.074	-0.214	-0.306	15.9855282	148.3388262	22.8037284	49.23428094	27.3300966	40.69720674
4.5	450	0.024	-0.198	-0.293	17.475219	150.6306582	19.3659804	50.06507004	28.11504906	42.14679048
4.51	451	-0.017	-0.206	-0.268	13.9228794	150.8598414	16.1574156	50.8786704	28.91146068	43.6021038
4.52	452	-0.057	-0.21	-0.252	4.1252976	146.2188816	13.0634424	51.5948679	29.6792244	45.01731006
4.53	453	-0.078	-0.195	-0.216	-5.2139178	140.2028226	9.453807	52.20220338	30.42979938	46.36949094
4.54	454	-0.037	-0.165	-0.153	-12.7769634	139.4579772	6.1879464	52.7407839	31.19183352	47.71594224
4.55	455	0.044	-0.145	-0.094	-18.334656	142.4946546	4.6409598	53.26217568	31.96532682	49.09677102
4.56	456	0.123	-0.101	-0.048	-22.9756158	147.823164	5.3858052	53.78356746	32.75600886	50.55208434
4.57	457	0.171	-0.06	-0.013	-28.0176462	156.0164634	6.6463128	54.33933672	33.56960922	52.11625968
4.58	458	0.196	-0.017	-0.044	-34.7212548	165.0691998	8.5370742	54.91229472	34.40039832	53.81221536
4.59	459	0.18	-0.011	-0.101	-41.1383844	171.1998504	10.5424272	55.49671188	35.236917	55.6055739
4.6	460	0.16	0.02	-0.141	-51.852699	174.75219	12.2613012	56.02956282	36.06197652	57.47341698
4.61	461	0.126	0.021	-0.264	-61.879464	181.2839112	13.5791046	56.5509546	36.89276562	59.45012208
4.62	462	0.021	-0.017	-0.32	-60.0459984	190.3366476	15.4125702	57.19839714	37.74074346	61.5643371
4.63	463	-0.008	-0.099	-0.344	-57.9260538	199.4466798	18.048177	57.98907918	38.59445088	63.83898036
4.64	464	-0.094	-0.129	-0.372	-53.6288688	205.2908514	20.5118964	58.9287303	39.42523998	66.2339448
4.65	465	-0.226	-0.236	-0.323	-41.3675676	201.681216	21.4286292	60.0173505	40.18727412	68.6403684
4.66	466	-0.385	-0.343	-0.142	-32.8877892	198.0715806	17.5898106	61.21483272	40.94357868	71.02960326
4.67	467	-0.533	-0.535	0.091	-24.923673	210.562065	2.005353	62.57847276	41.8545819	73.52197056
4.68	468	-0.376	-0.714	0.406	-31.6272816	242.5904172	-17.475219	64.1426481	43.02341622	76.35811266
4.69	469	-0.149	-0.642	0.48	-40.4508348	269.29026	-36.6120162	65.87871084	44.404245	79.5265704
4.7	470	-0.102	-0.469	0.414	-45.7793442	279.5462082	-65.317212	67.71790602	46.0085274	82.81534932
4.71	471	-0.03	-0.276	0.532	-42.7999626	279.9472788	-87.7771656	69.68888154	47.75031972	86.16142404
4.72	472	-0.019	-0.222	0.67	-34.950438	290.2605228	-95.2256196	72.0494685	49.50930078	89.83408482
4.73	473	0.045	0.007	0.584	-38.388186	307.9076292	-108.86202	74.79393732	51.33130722	93.95938242
4.74	474	0.485	0.082	0.489	-20.05353	330.7686534	-124.904844	78.31189944	53.21060946	98.7206634
4.75	475	1.194	0.079	0.547	-7.3911582	337.9306284	-152.1776448	82.43146746	55.17012582	103.9517699
4.76	476	2.111	-0.009	0.6	6.589017	346.066632	-188.503182	87.31306962	57.24996336	109.8016711
4.77	477	3.444	-0.19	0.842	45.4355694	343.9466874	-220.6461258	93.26037366	59.34126006	116.310474
4.78	478	3.976	-0.608	0.554	44.2323576	288.3697614	-240.4131768	99.09881568	61.32942432	122.5671754
4.79	479	3.996	-1.813	-0.282	85.370742	180.0234036	-154.5267726	103.7798825	62.44096284	126.9159266
4.8	480	3.996	-0.487	-1.319	-16.2720072	1.7761698	-135.8483418	104.3012743	63.7415775	127.6951495
4.81	481	3.629	1.972	-0.284	-327.0444264	-164.2097628	-330.883245	98.91546912	67.322565	125.4033175
4.82	482	2.963	1.121	3.415	-112.586247	111.6122184	-310.0848696	101.9005803	70.1300592	129.8380124
4.83	483	3.483	-0.04	1.055	276.5095308	84.4540092	-230.7301866	108.9193158	72.1067643	134.3070848
4.84	484	3.876	-0.395	0.201	229.469679	64.0567044	-222.2504082	116.0354542	73.88866368	139.3261969
4.85	485	3.118	0.308	1.399	56.436363	97.3455642	-232.334469	123.827683	75.38408406	146.8204875
4.86	486	2.599	0.515	1.138	109.4922738	171.027963	-195.7224528	134.7597216	75.78515466	156.990492
4.87	487	2.183	-0.052	1.084	101.7573408	166.9026654	-184.1487012	145.3766333	75.65337432	166.908395
4.88	488	2.1	0.121	1.091	49.6181628	165.4702704	-179.1066708	154.7788741	75.09187548	176.1272892
4.89	489	1.891	0.435	0.899	18.048177	165.3556788	-171.9446958	162.7487199	74.15795394	-175.7720552
4.9	490	1.653	0.126	0.693	8.6516658	142.4373588	-155.0424348	168.9595846	73.15527744	-169.3663848
4.91	491	1.576	-0.255	0.561	2.4064236	125.9934642	-139.6298646	173.8411868	72.11822346	-164.2555994
4.92	492	1.305	-0.286	0.377	31.226211	108.7474284	-126.4518306	178.0638872	71.12700612	-160.1245723
4.93	493	1.091	-0.209	0.26	64.2285918	97.0590852	-111.153852	-178.2071267	70.1587071	-156.8529821
4.94	494	0.983	-0.163	0.194	38.7319608	92.0743506	-91.7305758	-175.5657904	69.19613766	-154.4465585
4.95	495	0.764	0.167	0.21	9.5683986	91.3295052	-78.5525418	-173.7495135	68.22210906	-152.584445
4.96	496	0.642	0.279	0.287	22.4599536	90.4700682	-67.2652692	-172.2369044	67.25381004	-151.1864275
4.97	497	0.663	0.159	0.293	29.3927454	85.3134462	-53.285094	-171.0623405	66.34280682	-150.2181284
4.98	498	0.438	0.149	0.466	34.6066632	90.8711388	-40.5081306	-170.2143626	65.38596696	-149.6623592
4.99	499	0.343	0.103	0.491	33.8618178	90.8711388	-30.080295	-169.6356751	64.45204542	-149.3930689
5	500	0.32	0.148	0.427	22.4599536	94.9391406	-26.1841806	-169.2861707	63.47228724	-149.2440998
5.01	501	0.403	0.269	0.378	16.2720072	98.3195928	-22.7464326	-169.1085537	62.4810699	-149.2097224
5.02	502	0.386	0.331	0.387	7.2765666	111.3830352	-17.5898106	-169.1715791	61.36953138	-149.3529619
5.03	503	0.458	0.317	0.377	8.59437	118.4877144	-14.0947668	-169.3033594	60.20069706	-149.5821451
5.04	504	0.539	0.197	0.389	7.448454	121.8108708	-11.2299768	-169.486706	58.99748526	-149.8628945
5.05	505	0.5	0.182	0.398	-0.7448454	124.3891818	-12.1467096	-169.7273483	57.77135514	-150.1207256
5.06	506	0.528	0.109	0.39	-5.8441716	122.7848994	-11.2872726	-170.0195569	56.56241376	-150.3728271
5.07	507	0.557	0.134	0.367	-12.6623718	121.0087296	-10.5424272	-170.3576021	55.3763907	-150.6134695
5.08	508	0.635	0.157	0.409	-18.621135	121.6389834	-11.172681	-170.7357544	54.17890848	-150.8254639
5.09	509	0.563	0.217	0.556	-20.5118964	131.0927904	-10.8289062	-171.1482842	52.88975298	-151.0489175
5.1	510	0.565	0.218	0.649	-22.8037284	139.1714982	-7.9068204	-171.6066506	51.52038336	-151.3182078
5.11	511	0.61	0.212	0.665	-29.9084076	139.9163436	-1.718874	-172.1967973	50.15674332	-151.6619826
5.12	512	0.694	0.27	0.71	-22.2880662	136.3067082	-0.1718874	-172.6895412	48.83321034	-151.9885687
5.13	513	0.772	0.23	0.864	-36.669312	141.6925134	4.9274388	-173.3713612	47.45811114	-152.3781801
5.14	514	0.966	0.428	0.993	-49.1597964	158.6520702	13.4072172	-174.2651757	45.9225837	-152.8881127
5.15	515	0.815	0.202	1.042	-53.285094	166.7880738	17.0168526	-175.1990972	44.30684214	-153.4152341
5.16	516	0.816	0.124	0.937	-63.9994086	139.1142024	26.8144344	-176.2590695	42.96612042	-153.9824625
5.17	517	0.893	0.095	0.877	-82.8497268	111.3257394	33.518043	-177.508118	41.90041854	-154.5611501
5.18	518	0.805	0.128	0.963	-91.6159842	103.13244	34.4920716	-178.8144622	40.90347162	-155.1111898
5.19	519	0.774	0.069	0.98	-92.532717	96.6580146	36.1536498	179.8858937	39.9638205	-155.6383111
5.2	520	0.775	-0.101	0.966	-90.9857304	90.813843	35.0077338	178.6483044	39.07000602	-156.1195958
5.21	521	0.732	0.063	1.002	-76.1461182	87.376095	29.2781538	177.6284392	38.21056902	-156.4920185
5.22	522	0.724	0.103	1.012	-64.457775	84.3967134	22.5745452	176.7976501	37.36832076	-156.7613088
5.23	523	0.738	-0.136	0.98	-57.8114622	79.9849368	19.9389384	176.0699934	36.57763872	-156.9790328
5.24	524	0.618	-0.214	0.924	-52.0245864	77.7504006	21.2567418	175.3996325	35.79841584	-157.2024865
5.25	525	0.614	-0.056	0.903	-36.7266078	70.9322004	18.4492476	174.9126182	35.08794792	-157.385833
5.26	526	0.59	-0.054	0.874	-32.0283522	52.7694318	16.1574156	174.4943589	34.55509698	-157.5405317
5.27	527	0.581	-0.078	0.951	-29.6219286	48.2430636	15.4125702	174.1047475	34.06808268	-157.6895008
5.28	528	0.575	-0.068	1.013	-24.6944898	46.8679644	14.9542038	173.7667022	33.59252754	-157.8270107
5.29	529	0.582	-0.093	0.985	-22.4599536	40.2789474	14.2093584	173.4630345	33.17999778	-157.958791
5.3	530	0.568	-0.088	0.964	-21.199446	32.4867186	13.4072172	173.1708259	32.84195256	-158.0848418
5.31	531	0.555	-0.074	0.963	-16.8449652	27.788463	16.7303736	172.9072652	32.54974398	-158.2509996
5.32	532	0.53	-0.102	0.976	-10.886202	24.064236	26.2414764	172.6437046	32.2861833	-158.531749
5.33	533	0.551	-0.054	0.945	-8.5370742	16.4438946	31.799169	172.3686847	32.085648	-158.8812534
5.34	534	0.498	-0.098	0.941	-6.589017	1.8334656	42.398892	172.0420987	32.01116346	-159.3739973
5.35	535	0.493	-0.064	0.938	-5.6722842	-9.167328	42.5707794	171.7327013	32.03408178	-159.8724707
5.36	536	0.524	-0.138	0.924	-2.5210152	-17.1314442	44.690724	171.423304	32.13721422	-160.4110513
5.37	537	0.492	-0.065	0.945	8.9381448	-27.6738714	47.4982182	171.20558	32.33774952	-161.001198
5.38	538	0.516	-0.138	0.948	5.0993262	-35.3515086	42.1697088	170.9706672	32.62422852	-161.5455081
5.39	539	0.495	-0.037	0.923	4.6409598	-43.544808	39.247623	170.7357544	32.98519206	-162.0726295
5.4	540	0.544	0.001	0.892	10.0840608	-51.3943326	38.8465524	170.563867	33.42636972	-162.6054804
5.41	541	0.535	-0.063	0.891	24.5798982	-56.4936588	40.5081306	170.5065712	33.91338402	-163.1727088
5.42	542	0.552	-0.142	0.896	32.2575354	-62.3378304	37.9298196	170.5352191	34.45769412	-163.7170189
5.43	543	0.554	-0.092	0.877	21.6578124	-65.4318036	32.7159018	170.4836529	35.04784086	-164.2154924
5.44	544	0.552	-0.107	0.849	34.37748	-68.2965936	29.6219286	170.5695966	35.66090592	-164.6795884
5.45	545	0.556	-0.245	0.884	25.6112226	-72.1354122	27.7311672	170.5695966	36.31980762	-165.1379548
5.46	546	0.575	-0.201	0.871	12.0894138	-75.8596392	27.0436176	170.4320867	37.01881638	-165.5905916
5.47	547	0.55	-0.04	0.839	6.1306506	-78.7244292	20.5118964	170.2659289	37.75220262	-165.980203
5.48	548	0.6	-0.062	0.812	7.2192708	-82.3340646	15.0687954	170.1456077	38.53715508	-166.3182482
5.49	549	0.63	-0.229	0.763	14.5531332	-88.9803774	20.7410796	170.0424752	39.36794418	-166.7422372
5.5	550	0.634	-0.242	0.718	4.1252976	-91.959759	21.4286292	169.8018329	40.23311076	-167.1891444
5.51	551	0.622	-0.208	0.673	0.1145916	-86.3447706	16.9595568	169.5611905	41.04671112	-167.5787558
5.52	552	0.635	-0.189	0.675	0.9740286	-79.0109082	13.178034	169.3606552	41.7972861	-167.9168011
5.53	553	0.626	-0.146	0.695	4.3544808	-73.7396946	7.161975	169.2517932	42.50202444	-168.163173
5.54	554	0.653	-0.13	0.698	9.7975818	-74.8856106	2.86479	169.2231453	43.2296811	-168.3637083
5.55	555	0.699	-0.147	0.744	11.172681	-78.781725	0.572958	169.2288749	43.99171524	-168.5413253
5.56	556	0.729	-0.136	0.787	11.172681	-82.792431	0.0572958	169.2231453	44.79958602	-168.7246718
5.57	557	0.78	-0.1	0.823	15.0687954	-89.094969	0.1145916	169.2460636	45.6647526	-168.9252071
5.58	558	0.802	-0.083	0.847	21.8869956	-98.2050012	0.1145916	169.3262777	46.62159246	-169.1429312
5.59	559	0.818	-0.064	0.85	26.9863218	-101.5281576	-0.4583664	169.4523285	47.6128098	-169.3663848
5.6	560	0.81	-0.047	0.832	31.6845774	-100.3822416	-1.4896908	169.6414046	48.59256798	-169.5611905
5.61	561	0.808	-0.061	0.785	34.663959	-98.2050012	-2.4064236	169.8705878	49.54940784	-169.7445371
5.62	562	0.782	-0.093	0.738	33.518043	-96.543423	-1.2032118	170.0711231	50.49478854	-169.9393428
5.63	563	0.777	-0.108	0.702	29.9084076	-94.0224078	-0.859437	170.237281	51.41152134	-170.1284189
5.64	564	0.786	-0.099	0.649	26.1841806	-91.8451674	-1.2032118	170.3747909	52.3110654	-170.3117655
5.65	565	0.768	-0.116	0.62	22.345362	-89.2095606	-1.2032118	170.4664642	53.18196156	-170.4951121
5.66	566	0.767	-0.111	0.573	18.7357266	-82.3340646	-3.3231564	170.563867	53.99556192	-170.6211628
5.67	567	0.776	-0.113	0.56	18.5638392	-74.8283148	-4.9274388	170.6956474	54.73467774	-170.7071065
5.68	568	0.773	-0.111	0.532	10.6570188	-66.4058322	-6.9327918	170.7873206	55.39357944	-170.741484
5.69	569	0.778	-0.116	0.516	8.7089616	-60.8481396	-9.6829902	170.9076418	56.0066445	-170.7128361
5.7	570	0.796	-0.08	0.499	5.6722842	-55.0612638	-11.9748222	171.0451517	56.56814334	-170.6211628
5.71	571	0.79	-0.071	0.48	6.9900876	-52.0245864	-12.2613012	171.2113096	57.0952647	-170.52376
5.72	572	0.79	-0.064	0.455	9.1100322	-50.993262	-11.172681	171.383197	57.6109269	-170.4320867
5.73	573	0.806	-0.053	0.448	9.6256944	-50.8786704	-8.5370742	171.5264365	58.12085952	-170.38625
5.74	574	0.816	-0.051	0.449	9.2819196	-50.8213746	-6.016059	171.6295689	58.63079214	-170.38625
5.75	575	0.834	-0.055	0.448	10.0840608	-48.8733174	-4.1252976	171.7155126	59.11780644	-170.4091684
5.76	576	0.839	-0.054	0.465	10.8289062	-44.8626114	-3.151269	171.8014563	59.56471368	-170.4492754
5.77	577	0.848	-0.053	0.449	10.9434978	-41.7113424	-4.3544808	171.9103183	59.97724344	-170.455005
5.78	578	0.845	-0.059	0.453	11.6310474	-40.7946096	-5.7868758	172.0592874	60.38404362	-170.4263571
5.79	579	0.85	-0.067	0.462	12.032118	-37.9298196	-6.875496	172.2369044	60.76792548	-170.3690613
5.8	580	0.852	-0.066	0.463	11.745639	-34.7785506	-7.5057498	172.4317101	61.11742986	-170.2888472
5.81	581	0.85	-0.06	0.455	10.7143146	-31.799169	-7.9068204	172.6265158	61.43828634	-170.1914443
5.82	582	0.846	-0.062	0.459	9.9694692	-28.361421	-7.9641162	172.8270511	61.72476534	-170.0825823
5.83	583	0.851	-0.057	0.46	8.1932994	-24.1788276	-8.1360036	173.0218568	61.97686686	-169.9622611
5.84	584	0.857	-0.05	0.465	5.9014674	-19.9389384	-8.1932994	173.2052034	62.18313174	-169.8247512
5.85	585	0.862	-0.039	0.462	3.724227	-16.2720072	-7.734933	173.3770908	62.34928956	-169.6815117
5.86	586	0.871	-0.033	0.463	1.8334656	-13.750992	-6.7609044	173.5031416	62.49252906	-169.5611905
5.87	587	0.882	-0.023	0.466	-0.1718874	-10.8289062	-5.9014674	173.5948148	62.60712066	-169.4523285
5.88	588	0.883	-0.029	0.474	-2.3491278	-7.3338624	-5.3858052	173.6635698	62.68733478	-169.3549256
5.89	589	0.874	-0.03	0.473	-4.1252976	-3.151269	-4.7555514	173.7094064	62.72171226	-169.2575228
5.9	590	0.879	-0.025	0.454	-7.2192708	1.2032118	-5.0993262	173.7609727	62.72171226	-169.1200129
5.91	591	0.879	-0.026	0.448	-7.7922288	4.8128472	-4.8128472	173.7781614	62.6816052	-169.0111508
5.92	592	0.891	-0.029	0.439	-8.59437	9.3965112	-4.3544808	173.783891	62.58993192	-168.9022888
5.93	593	0.878	-0.015	0.424	-9.3392154	11.3445684	-3.2085648	173.7667022	62.4810699	-168.8163451
5.94	594	0.863	-0.004	0.408	-8.7662574	9.8548776	-1.432395	173.715136	62.38939662	-168.7705085
5.95	595	0.839	0.001	0.4	-7.1046792	6.6463128	1.145916	173.6692994	62.3378304	-168.7475902
5.96	596	0.841	-0.01	0.406	-4.870143	4.3544808	4.010706	173.5489782	62.29199376	-168.8278043
5.97	597	0.854	-0.024	0.428	-3.4950438	4.3544808	6.3598338	173.4000091	62.24615712	-168.953855
5.98	598	0.874	-0.036	0.468	-2.7501984	7.734933	7.2765666	173.2453105	62.16021342	-169.0970945
5.99	599	0.891	-0.048	0.492	-1.718874	11.2872726	6.7036086	173.1192597	62.03989224	-169.2174157
6	600	0.902	-0.05	0.504	-1.2605076	13.750992	5.3285094	173.0390456	61.89665274	-169.2919003
6.01	601	0.898	-0.054	0.514	-0.9740286	15.2979786	3.8961144	172.9817498	61.74195408	-169.3434665
6.02	602	0.893	-0.052	0.517	-0.4010706	16.2147114	2.6356068	172.9531019	61.57579626	-169.3721144
6.03	603	0.89	-0.047	0.517	-0.1718874	16.1574156	1.8907614	172.9416427	61.41536802	-169.377844
6.04	604	0.886	-0.046	0.522	-0.0572958	15.8136408	1.7761698	172.9359131	61.25493978	-169.3835735
6.05	605	0.886	-0.046	0.525	-0.7448454	14.4958374	1.9480572	172.9359131	61.1059707	-169.377844
6.06	606	0.89	-0.045	0.53	-2.005353	11.9748222	2.4637194	172.8900765	60.98564952	-169.4064919
6.07	607	0.886	-0.044	0.527	-3.151269	9.9121734	2.9220858	172.815592	60.88251708	-169.4465989
6.08	608	0.882	-0.043	0.521	-4.3544808	9.3392154	3.5523396	172.7239187	60.78511422	-169.5038947
6.09	609	0.88	-0.042	0.51	-5.5003968	10.026765	4.297185	172.6093271	60.68198178	-169.5726497
6.1	610	0.873	-0.042	0.502	-6.3598338	11.1153852	4.870143	172.4890059	60.56739018	-169.6356751
6.11	611	0.868	-0.043	0.5	-6.2452422	11.5737516	5.443101	172.351496	60.447069	-169.7216188
6.12	612	0.863	-0.047	0.499	-5.8441716	11.6310474	5.6149884	172.2139861	60.32674782	-169.8075625
6.13	613	0.856	-0.051	0.498	-5.0420304	11.9175264	5.2712136	172.0879353	60.20069706	-169.8877766
6.14	614	0.852	-0.056	0.495	-3.7815228	12.7196676	4.6409598	171.9905324	60.06891672	-169.9565315
6.15	615	0.851	-0.058	0.498	-3.151269	13.2353298	4.1825934	171.9217775	59.93713638	-169.9966386
6.16	616	0.856	-0.058	0.508	-2.4637194	13.3499214	3.8961144	171.8530225	59.79962646	-170.0482048
6.17	617	0.86	-0.059	0.521	-1.6615782	13.178034	3.8388186	171.7957267	59.66211654	-170.0940415
6.18	618	0.87	-0.059	0.535	-0.4010706	12.605076	3.7815228	171.7498901	59.53606578	-170.1398781
6.19	619	0.873	-0.06	0.548	0.859437	11.45916	3.7815228	171.7155126	59.4157446	-170.1857147
6.2	620	0.874	-0.064	0.556	1.4896908	10.313244	3.5523396	171.709783	59.301153	-170.2200922
6.21	621	0.876	-0.068	0.557	1.8907614	9.167328	2.9793816	171.6925943	59.20375014	-170.2544697
6.22	622	0.876	-0.069	0.56	2.1772404	7.8495246	2.0626488	171.6983239	59.12353602	-170.277388
6.23	623	0.872	-0.069	0.559	2.291832	6.8182002	1.145916	171.7155126	59.05478106	-170.2831176
6.24	624	0.87	-0.067	0.556	2.1772404	5.6149884	0.4010706	171.7384309	58.99748526	-170.277388
6.25	625	0.867	-0.062	0.553	2.4064236	3.9534102	-0.2291832	171.818645	58.94018946	-170.2315514
6.26	626	0.864	-0.06	0.551	2.6356068	2.1199446	-0.7448454	171.8644817	58.92300072	-170.2086331
6.27	627	0.863	-0.058	0.546	2.6356068	0.9740286	-0.9167328	171.9103183	58.91154156	-170.1857147
6.28	628	0.862	-0.058	0.541	2.578311	0.286479	-1.0886202	171.956155	58.91154156	-170.168526
6.29	629	0.857	-0.059	0.537	2.005353	0.1718874	-1.145916	171.996262	58.91154156	-170.1398781
6.3	630	0.859	-0.059	0.538	1.7761698	0.0572958	-1.3178034	172.1108536	58.89435282	-170.0482048
6.31	631	0.86	-0.056	0.536	1.7761698	0.0572958	-1.432395	172.1566903	58.89435282	-170.0195569
6.32	632	0.863	-0.056	0.534	2.4064236	0.1145916	-1.3750992	172.2025269	58.89435282	-169.9966386
6.33	633	0.863	-0.055	0.538	2.6929026	0	-1.2032118	172.2540931	58.89435282	-169.9679907
6.34	634	0.864	-0.054	0.541	2.6356068	-0.572958	-0.9167328	172.2942002	58.90581198	-169.950802
6.35	635	0.863	-0.054	0.544	2.4637194	-1.2605076	-0.6302538	172.3801439	58.9000824	-169.8935062
6.36	636	0.868	-0.055	0.545	2.005353	-1.7761698	-0.5156622	172.4087918	58.92300072	-169.8877766
6.37	637	0.866	-0.055	0.547	1.6042824	-2.0626488	-0.3437748	172.4317101	58.94018946	-169.882047
6.38	638	0.863	-0.056	0.545	1.2605076	-2.6356068	-0.5156622	172.4488988	58.96883736	-169.882047
6.39	639	0.862	-0.054	0.538	1.0313244	-3.0939732	-0.6302538	172.460358	58.99748526	-169.8705878
6.4	640	0.86	-0.054	0.534	1.0313244	-3.5523396	-0.6875496	172.5233834	59.03186274	-169.8304808
6.41	641	0.858	-0.053	0.532	0.9167328	-3.724227	-0.7448454	172.5405721	59.06624022	-169.8247512
6.42	642	0.858	-0.052	0.529	0.7448454	-3.6096354	-0.859437	172.5520313	59.10634728	-169.813292
6.43	643	0.858	-0.052	0.527	0.4583664	-3.437748	-0.8021412	172.56922	59.14072476	-169.8075625
6.44	644	0.857	-0.051	0.525	0.2291832	-3.3231564	-0.6302538	172.5749496	59.17510224	-169.7961033
6.45	645	0.859	-0.05	0.525	0.1145916	-2.9793816	-0.4010706	172.6608933	59.19802056	-169.7273483
6.46	646	0.858	-0.051	0.526	0.1145916	-2.4637194	-0.1718874	172.6608933	59.22093888	-169.7273483
6.47	647	0.861	-0.051	0.527	0	-2.005353	0	172.6551637	59.2438572	-169.7330779
6.48	648	0.866	-0.052	0.528	-0.286479	-1.718874	0	172.6494341	59.26104594	-169.7330779
6.49	649	0.864	-0.051	0.531	-0.5156622	-1.432395	0.2291832	172.637975	59.2725051	-169.7445371
6.5	650	0.868	-0.051	0.532	-0.9740286	-1.3178034	0.4010706	172.7067299	59.27823468	-169.6815117
6.51	651	0.867	-0.05	0.532	-1.2605076	-1.718874	0.6302538	172.678082	59.29542342	-169.6987004
6.52	652	0.863	-0.049	0.527	-1.2605076	-2.1199446	0.9167328	172.6494341	59.31261216	-169.7216188
6.53	653	0.858	-0.052	0.523	-0.8021412	-2.0626488	1.432395	172.6093271	59.33553048	-169.7502667
6.54	654	0.855	-0.054	0.517	-0.859437	-1.432395	1.6615782	172.56922	59.34698964	-169.7846441
6.55	655	0.855	-0.054	0.511	-0.8021412	-0.7448454	1.7761698	172.5978679	59.36417838	-169.7674554
6.56	656	0.854	-0.055	0.511	-0.4583664	0.1718874	1.8907614	172.5577609	59.3584488	-169.8075625
6.57	657	0.855	-0.054	0.512	-0.286479	1.2032118	1.7761698	172.529113	59.34698964	-169.8362104
6.58	658	0.852	-0.056	0.51	0.286479	2.0626488	1.4896908	172.5061946	59.32407132	-169.8648583
6.59	659	0.85	-0.056	0.512	0.859437	2.9793816	1.2605076	172.5004651	59.28969384	-169.882047
6.6	660	0.851	-0.058	0.512	1.0886202	3.7815228	1.0313244	172.529113	59.25531636	-169.8705878
6.61	661	0.855	-0.059	0.516	1.0886202	4.3544808	0.6875496	172.5348425	59.20947972	-169.8763174
6.62	662	0.858	-0.059	0.523	0.9167328	4.7555514	0.3437748	172.5463017	59.16364308	-169.8763174
6.63	663	0.862	-0.057	0.529	1.0313244	5.0993262	0.0572958	172.5634904	59.11207686	-169.8648583
6.64	664	0.866	-0.057	0.534	1.0886202	5.2139178	-0.1145916	172.5864088	59.06051064	-169.8533991
6.65	665	0.868	-0.058	0.538	1.145916	5.0420304	-0.1718874	172.637975	59.00321484	-169.8075625
6.66	666	0.869	-0.058	0.541	1.2032118	4.870143	-0.2291832	172.6608933	58.9573782	-169.7961033
6.67	667	0.865	-0.056	0.541	0.9740286	4.8128472	-0.2291832	172.6838116	58.91154156	-169.7789146
6.68	668	0.863	-0.054	0.537	0.859437	4.7555514	-0.1718874	172.7067299	58.86570492	-169.7674554
6.69	669	0.86	-0.055	0.536	0.9167328	4.5263682	0	172.7239187	58.81986828	-169.7559962
6.7	670	0.857	-0.053	0.534	0.6875496	4.7555514	0.0572958	172.7697553	58.76830206	-169.7158892
6.71	671	0.855	-0.053	0.533	0.6875496	4.870143	0.286479	172.7812145	58.71673584	-169.7158892
6.72	672	0.854	-0.054	0.533	0.859437	4.870143	0.4010706	172.7926736	58.6708992	-169.7158892
6.73	673	0.855	-0.054	0.535	0.9167328	4.8128472	0.5156622	172.7984032	58.61933298	-169.7158892
6.74	674	0.856	-0.054	0.538	1.0313244	4.4690724	0.6302538	172.8041328	58.57349634	-169.7216188
6.75	675	0.856	-0.055	0.54	1.3178034	4.297185	0.6875496	172.8442399	58.5276597	-169.6987004
6.76	676	0.857	-0.056	0.543	1.3750992	4.1252976	0.7448454	172.855699	58.48755264	-169.70443
6.77	677	0.854	-0.055	0.543	1.3750992	3.9534102	0.7448454	172.8614286	58.44744558	-169.7101596
6.78	678	0.854	-0.057	0.544	1.2032118	3.6096354	0.6875496	172.8671582	58.40733852	-169.7158892
6.79	679	0.853	-0.057	0.545	0.8021412	3.437748	0.4583664	172.8728878	58.37296104	-169.7216188
6.8	680	0.852	-0.057	0.547	0.5156622	3.0939732	0.4010706	172.924454	58.32139482	-169.6815117
6.81	681	0.851	-0.058	0.548	-0.5156622	2.9220858	0.3437748	172.9187244	58.29274692	-169.6815117
6.82	682	0.853	-0.058	0.551	-0.4583664	2.578311	0.2291832	172.9129948	58.2698286	-169.6815117
6.83	683	0.851	-0.056	0.55	-0.572958	2.291832	0.2291832	172.9072652	58.24691028	-169.6815117
6.84	684	0.851	-0.056	0.549	-0.859437	2.005353	0.286479	172.8958061	58.22399196	-169.6815117
6.85	685	0.851	-0.055	0.549	-0.9740286	1.6615782	0.2291832	172.9416427	58.18961448	-169.6414046
6.86	686	0.852	-0.057	0.545	-1.0886202	1.2605076	0.4010706	172.924454	58.17815532	-169.6471342
6.87	687	0.852	-0.056	0.546	-1.0886202	0.859437	0.286479	172.9072652	58.16669616	-169.6471342
6.88	688	0.852	-0.059	0.549	-1.145916	0.6875496	0.286479	172.8900765	58.16096658	-169.6528638
6.89	689	0.854	-0.058	0.549	-1.4896908	0.4010706	0.1145916	172.8728878	58.155237	-169.6585934
6.9	690	0.855	-0.057	0.548	-1.4896908	0.3437748	0.1145916	172.9416427	58.13231868	-169.5841088
6.91	691	0.855	-0.057	0.545	-0.9740286	0.286479	0.0572958	172.9301836	58.13231868	-169.5898384
6.92	692	0.855	-0.058	0.545	-0.6875496	0.1718874	0.0572958	172.924454	58.13231868	-169.5898384
6.93	693	0.857	-0.061	0.547	-0.859437	0.4010706	0.1145916	172.9129948	58.1265891	-169.5898384
6.94	694	0.858	-0.06	0.548	-1.145916	0.2291832	0	172.9015357	58.12085952	-169.5898384
6.95	695	0.856	-0.06	0.547	-1.0313244	0.0572958	-0.286479	172.9702906	58.10367078	-169.5210835
6.96	696	0.854	-0.06	0.547	-0.859437	0	-0.4583664	172.9702906	58.10940036	-169.5096243
6.97	697	0.852	-0.061	0.546	-0.7448454	-0.2291832	-0.8021412	172.9702906	58.10940036	-169.4981651
6.98	698	0.851	-0.059	0.544	-0.7448454	-0.6875496	-0.9740286	172.9817498	58.12085952	-169.4809764
6.99	699	0.85	-0.059	0.543	-0.5156622	-1.3750992	-1.0886202	172.9874794	58.13231868	-169.4637877
7	700	0.851	-0.06	0.544	-0.2291832	-1.8907614	-1.2032118	173.0390456	58.14950742	-169.4122214
7.01	701	0.852	-0.06	0.546	-0.4010706	-1.718874	-1.4896908	173.0562343	58.16669616	-169.3835735
7.02	702	0.853	-0.059	0.545	-0.6302538	-1.6042824	-1.6042824	173.0734231	58.1838849	-169.3606552
7.03	703	0.855	-0.056	0.547	-0.9167328	-1.5469866	-1.6615782	173.0906118	58.20107364	-169.3320073
7.04	704	0.856	-0.057	0.548	-1.2605076	-1.4896908	-1.5469866	173.0963414	58.21826238	-169.3033594
7.05	705	0.856	-0.054	0.546	-1.3178034	-1.5469866	-1.3750992	173.142178	58.22972154	-169.2460636
7.06	706	0.855	-0.056	0.545	-1.2605076	-1.718874	-1.2032118	173.1479076	58.24691028	-169.2288749
7.07	707	0.854	-0.057	0.544	-1.0886202	-1.9480572	-1.0886202	173.1479076	58.2698286	-169.2116861
7.08	708	0.855	-0.058	0.544	-1.0886202	-2.1772404	-1.0313244	173.1536372	58.29274692	-169.1944974
7.09	709	0.855	-0.057	0.542	-1.145916	-2.291832	-1.0313244	173.1536372	58.31566524	-169.1773087
7.1	710	0.854	-0.058	0.541	-1.2032118	-2.2345362	-1.145916	173.1822851	58.33858356	-169.1372016
7.11	711	0.854	-0.057	0.54	-1.0886202	-2.0626488	-1.2605076	173.1880147	58.3557723	-169.1200129
7.12	712	0.854	-0.057	0.54	-0.9167328	-2.0626488	-1.2032118	173.1937442	58.37869062	-169.0970945
7.13	713	0.854	-0.056	0.541	-0.9740286	-2.1199446	-1.2605076	173.2052034	58.40160894	-169.0799058
7.14	714	0.856	-0.056	0.541	-1.145916	-2.2345362	-1.145916	173.2052034	58.42452726	-169.0627171
7.15	715	0.858	-0.056	0.542	-1.432395	-2.2345362	-0.9167328	173.2281217	58.44744558	-169.02261
7.16	716	0.857	-0.054	0.539	-1.6615782	-2.0626488	-0.7448454	173.2223921	58.46463432	-169.0168804
7.17	717	0.856	-0.053	0.537	-1.2032118	-2.1199446	-0.4583664	173.2166626	58.48755264	-169.0111508
7.18	718	0.857	-0.053	0.534	-0.6875496	-2.1772404	-0.1718874	173.2052034	58.51047096	-169.0111508
7.19	719	0.857	-0.055	0.533	-0.4583664	-2.1199446	0	173.1994738	58.53338928	-169.0111508
7.2	720	0.857	-0.054	0.534	-0.3437748	-2.005353	0.1145916	173.2453105	58.5563076	-168.9710438
7.21	721	0.858	-0.056	0.534	-0.3437748	-1.718874	0.286479	173.2338513	58.57349634	-168.9767734
7.22	722	0.856	-0.056	0.535	-0.1718874	-1.5469866	0.3437748	173.2281217	58.5849555	-168.9882325
7.23	723	0.856	-0.056	0.535	-0.2291832	-1.2032118	0.4010706	173.2166626	58.59641466	-168.9996917
7.24	724	0.855	-0.055	0.535	-0.4583664	-1.0313244	0.4010706	173.1994738	58.60787382	-169.0111508
7.25	725	0.856	-0.057	0.534	-0.5156622	-0.7448454	0.5156622	173.2567696	58.60787382	-168.9595846
7.26	726	0.856	-0.057	0.532	-0.4583664	-0.4583664	0.5156622	173.2395809	58.6136034	-168.9710438
7.27	727	0.855	-0.058	0.533	-0.5156622	-0.1145916	0.572958	173.2281217	58.6136034	-168.9825029
7.28	728	0.856	-0.058	0.534	-0.572958	0.1145916	0.5156622	173.210933	58.6136034	-168.9939621
7.29	729	0.856	-0.059	0.534	-0.572958	0.286479	0.5156622	173.1994738	58.60787382	-169.0054213
7.3	730	0.858	-0.058	0.535	-0.6302538	0.5156622	0.4583664	173.2395809	58.59068508	-168.9653142
7.31	731	0.857	-0.059	0.536	-0.6875496	0.5156622	0.4583664	173.2281217	58.5849555	-168.9710438
7.32	732	0.857	-0.059	0.535	-0.859437	0.6302538	0.4010706	173.210933	58.57922592	-168.9825029
7.33	733	0.856	-0.059	0.536	-0.859437	0.6302538	0.4010706	173.1937442	58.56776676	-168.9882325
7.34	734	0.857	-0.061	0.537	-0.9167328	0.6875496	0.4010706	173.1765555	58.56203718	-168.9939621
7.35	735	0.857	-0.059	0.536	-1.0886202	0.6875496	0.1718874	173.210933	58.55057802	-168.9595846
7.36	736	0.857	-0.062	0.536	-1.0313244	0.7448454	0.1718874	173.1994738	58.54484844	-168.9595846
7.37	737	0.856	-0.062	0.536	-1.2605076	0.9167328	0	173.1880147	58.53338928	-168.9595846
7.38	738	0.856	-0.061	0.535	-1.2605076	1.2032118	-0.0572958	173.1765555	58.52193012	-168.953855
7.39	739	0.856	-0.062	0.534	-1.2605076	1.4896908	-0.1718874	173.1708259	58.51047096	-168.9481255
7.4	740	0.856	-0.06	0.536	-1.2032118	1.718874	-0.3437748	173.1880147	58.48755264	-168.9194776
7.41	741	0.855	-0.059	0.536	-1.0886202	1.8907614	-0.3437748	173.1880147	58.4703639	-168.9080184
7.42	742	0.855	-0.059	0.537	-0.9740286	2.0626488	-0.3437748	173.1880147	58.45317516	-168.8965592
7.43	743	0.856	-0.059	0.538	-1.0313244	1.9480572	-0.3437748	173.1822851	58.43025684	-168.8851001
7.44	744	0.856	-0.059	0.538	-0.859437	1.8334656	-0.3437748	173.1822851	58.4130681	-168.8736409
7.45	745	0.855	-0.059	0.538	-0.8021412	1.8334656	-0.286479	173.2166626	58.39014978	-168.8392634
7.46	746	0.855	-0.06	0.54	-0.859437	1.8907614	-0.286479	173.2166626	58.37296104	-168.8278043
7.47	747	0.855	-0.06	0.541	-1.0313244	1.7761698	-0.286479	173.210933	58.3557723	-168.8163451
7.48	748	0.854	-0.059	0.54	-1.3178034	1.6615782	-0.286479	173.2052034	58.33858356	-168.8106155
7.49	749	0.854	-0.06	0.538	-1.4896908	2.1199446	-0.1718874	173.1937442	58.31566524	-168.804886
7.5	750	0.852	-0.06	0.536	-1.145916	2.4064236	-0.1145916	173.210933	58.29274692	-168.7762381
7.51	751	0.854	-0.061	0.536	-0.9167328	2.578311	0	173.2052034	58.2698286	-168.7705085
7.52	752	0.855	-0.061	0.538	-0.9740286	2.6929026	-0.0572958	173.1994738	58.2411807	-168.7647789
7.53	753	0.856	-0.061	0.543	-0.9167328	2.291832	-0.1145916	173.1994738	58.21826238	-168.7590493
7.54	754	0.858	-0.061	0.548	-0.9167328	1.6615782	-0.0572958	173.1880147	58.20107364	-168.7533197
7.55	755	0.856	-0.06	0.548	-0.859437	0.7448454	0	173.25104	58.17242574	-168.6960239
7.56	756	0.855	-0.062	0.545	-0.7448454	-0.1718874	0	173.2395809	58.17242574	-168.6960239
7.57	757	0.854	-0.062	0.544	-0.7448454	-0.572958	0	173.2281217	58.1838849	-168.7017535
7.58	758	0.854	-0.064	0.543	-0.859437	-0.7448454	-0.1718874	173.2223921	58.18961448	-168.6960239
7.59	759	0.854	-0.065	0.542	-1.2032118	-0.6875496	-0.4583664	173.2166626	58.19534406	-168.6902944
7.6	760	0.853	-0.065	0.543	-1.718874	-0.4010706	-0.7448454	173.2223921	58.19534406	-168.667376
7.61	761	0.853	-0.065	0.547	-2.5210152	0	-0.859437	173.210933	58.19534406	-168.6501873
7.62	762	0.853	-0.063	0.548	-3.3231564	0.3437748	-0.9167328	173.1937442	58.19534406	-168.6329986
7.63	763	0.849	-0.059	0.542	-3.724227	0.2291832	-0.8021412	173.1650963	58.19534406	-168.6158098
7.64	764	0.849	-0.061	0.536	-3.7815228	0.2291832	-0.4583664	173.1364484	58.18961448	-168.6100802
7.65	765	0.85	-0.06	0.534	-3.724227	0.6302538	-0.2291832	173.1192597	58.18961448	-168.5871619
7.66	766	0.854	-0.062	0.536	-3.3231564	1.0313244	-0.1145916	173.0848822	58.17815532	-168.5871619
7.67	767	0.855	-0.063	0.537	-2.9793816	1.145916	-0.0572958	173.0562343	58.16669616	-168.5814323
7.68	768	0.855	-0.063	0.538	-2.4064236	0.859437	-0.1145916	173.0390456	58.16096658	-168.5814323
7.69	769	0.856	-0.063	0.54	-1.718874	0.6302538	-0.1718874	173.0218568	58.155237	-168.5757028
7.7	770	0.857	-0.064	0.541	-1.145916	0.4583664	-0.1718874	173.0447752	58.14950742	-168.5413253
7.71	771	0.859	-0.064	0.542	-0.6875496	0.1718874	-0.2291832	173.0447752	58.14950742	-168.5355957
7.72	772	0.859	-0.063	0.546	-0.4583664	0.1718874	-0.286479	173.0447752	58.14377784	-168.5298661
7.73	773	0.859	-0.062	0.546	-0.1145916	0	-0.1718874	173.0447752	58.14377784	-168.5298661
7.74	774	0.858	-0.062	0.543	0.0572958	-0.4010706	0	173.0447752	58.14950742	-168.5298661
7.75	775	0.856	-0.062	0.544	0.0572958	-0.572958	0.286479	173.102071	58.14377784	-168.4840295
7.76	776	0.855	-0.062	0.543	0.1145916	-0.859437	0.5156622	173.0963414	58.155237	-168.4954886
7.77	777	0.854	-0.064	0.54	0.2291832	-1.0313244	0.6875496	173.0848822	58.16669616	-168.5126774
7.78	778	0.852	-0.066	0.54	0.1718874	-1.145916	0.6875496	173.0734231	58.17242574	-168.5241365
7.79	779	0.852	-0.066	0.539	-0.0572958	-1.145916	0.5156622	173.0619639	58.1838849	-168.5413253
7.8	780	0.853	-0.064	0.541	-0.1145916	-1.0313244	0.4010706	173.0848822	58.1838849	-168.518407
7.81	781	0.853	-0.064	0.541	-0.286479	-0.9740286	0.286479	173.0791526	58.19534406	-168.5241365
7.82	782	0.854	-0.065	0.541	-0.4583664	-0.859437	0.2291832	173.0676935	58.20107364	-168.5355957
7.83	783	0.854	-0.065	0.541	-0.4583664	-0.8021412	0.2291832	173.0562343	58.20680322	-168.5413253
7.84	784	0.854	-0.064	0.54	-0.572958	-0.6875496	0.286479	173.0447752	58.21826238	-168.5470549
7.85	785	0.852	-0.065	0.538	-0.572958	-0.6875496	0.3437748	173.0447752	58.21826238	-168.5413253
7.86	786	0.85	-0.066	0.535	-0.5156622	-0.4010706	0.286479	173.033316	58.21826238	-168.5527844
7.87	787	0.851	-0.067	0.534	-0.4583664	0	0.1145916	173.0275864	58.21826238	-168.5527844
7.88	788	0.852	-0.067	0.535	-0.3437748	0.286479	0	173.0218568	58.21826238	-168.5527844
7.89	789	0.853	-0.067	0.537	-0.286479	0.5156622	-0.286479	173.0275864	58.2125328	-168.5470549
7.9	790	0.854	-0.067	0.537	-0.1718874	0.7448454	-0.572958	173.0505047	58.2125328	-168.518407
7.91	791	0.854	-0.066	0.54	0	0.859437	-0.6302538	173.0619639	58.20680322	-168.5069478
7.92	792	0.854	-0.064	0.539	0.2291832	0.9167328	-0.6875496	173.0791526	58.19534406	-168.4897591
7.93	793	0.855	-0.064	0.539	0.4010706	0.7448454	-0.6875496	173.0963414	58.18961448	-168.4725703
7.94	794	0.855	-0.065	0.539	0.6302538	0.8021412	-0.6875496	173.1135301	58.1838849	-168.4611112
7.95	795	0.855	-0.064	0.54	0.572958	0.859437	-0.6302538	173.1536372	58.17242574	-168.4267337
7.96	796	0.855	-0.065	0.54	0.4583664	1.0313244	-0.6302538	173.1708259	58.16096658	-168.4152745
7.97	797	0.856	-0.064	0.541	0.7448454	1.0313244	-0.572958	173.1880147	58.155237	-168.4038154
7.98	798	0.854	-0.064	0.541	0.859437	1.0886202	-0.5156622	173.2052034	58.14377784	-168.3923562
7.99	799	0.856	-0.063	0.544	0.859437	0.8021412	-0.5156622	173.2281217	58.13231868	-168.380897
8	800	0.856	-0.062	0.546	0.9167328	0.1145916	-0.4010706	173.2854175	58.12085952	-168.3350604
8.01	801	0.854	-0.062	0.543	1.0886202	-0.6302538	-0.286479	173.3026063	58.1265891	-168.3293308
8.02	802	0.852	-0.062	0.541	1.3750992	-1.0313244	-0.1145916	173.3140654	58.13804826	-168.3293308
8.03	803	0.852	-0.064	0.54	1.2032118	-0.9740286	0	173.3255246	58.14950742	-168.3293308
8.04	804	0.854	-0.065	0.539	1.0313244	-0.7448454	0	173.3369837	58.155237	-168.3293308
8.05	805	0.854	-0.064	0.539	0.9740286	-0.4010706	0	173.3713612	58.16096658	-168.3121421
8.06	806	0.854	-0.063	0.539	1.0313244	-0.1718874	0	173.3828204	58.16096658	-168.3121421
8.07	807	0.853	-0.061	0.541	1.145916	-0.2291832	0	173.3942795	58.16096658	-168.3121421
8.08	808	0.856	-0.062	0.542	1.2605076	-0.2291832	0.1145916	173.4057387	58.16669616	-168.3178717
8.09	809	0.857	-0.061	0.541	1.2605076	0	0.286479	173.4114683	58.16669616	-168.3236012
8.1	810	0.855	-0.062	0.54	1.3750992	0.1145916	0.5156622	173.428657	58.16096658	-168.3178717
8.11	811	0.855	-0.063	0.541	1.3750992	0.1145916	0.6875496	173.4343866	58.16096658	-168.3293308
8.12	812	0.854	-0.065	0.541	1.3178034	0	0.6875496	173.4343866	58.16096658	-168.3465196
8.13	813	0.856	-0.065	0.544	1.2032118	-0.3437748	0.6302538	173.4401162	58.16096658	-168.3579787
8.14	814	0.857	-0.065	0.546	1.3178034	-0.7448454	0.4583664	173.4458458	58.16669616	-168.3694379
8.15	815	0.856	-0.066	0.545	1.2032118	-0.9740286	0.2291832	173.4515753	58.17242574	-168.3751675
8.16	816	0.855	-0.065	0.543	1.2605076	-1.145916	0.1145916	173.4573049	58.1838849	-168.380897
8.17	817	0.854	-0.064	0.54	1.432395	-1.3178034	0	173.4744937	58.19534406	-168.380897
8.18	818	0.853	-0.064	0.538	1.4896908	-1.432395	-0.1718874	173.4916824	58.2125328	-168.380897
8.19	819	0.853	-0.063	0.539	1.5469866	-1.432395	-0.2291832	173.5088711	58.22972154	-168.3751675
8.2	820	0.853	-0.063	0.538	1.432395	-1.3750992	-0.286479	173.5317895	58.2411807	-168.3694379
8.21	821	0.854	-0.062	0.537	1.3178034	-1.3750992	-0.2291832	173.5489782	58.25263986	-168.3637083
8.22	822	0.855	-0.062	0.536	1.3178034	-1.145916	-0.1145916	173.5661669	58.2698286	-168.3637083
8.23	823	0.856	-0.062	0.538	1.3178034	-0.9740286	-0.1145916	173.5776261	58.27555818	-168.3637083
8.24	824	0.856	-0.062	0.538	1.432395	-0.8021412	0	173.5948148	58.28701734	-168.3637083
8.25	825	0.856	-0.061	0.539	1.4896908	-0.7448454	-0.0572958	173.6234627	58.29274692	-168.3522491
8.26	826	0.856	-0.061	0.537	1.6615782	-0.5156622	0	173.6406515	58.2984765	-168.3522491
8.27	827	0.855	-0.06	0.537	1.718874	-0.3437748	0	173.6578402	58.2984765	-168.3522491
8.28	828	0.856	-0.061	0.538	1.6615782	-0.286479	0.1145916	173.6692994	58.30420608	-168.3522491
8.29	829	0.857	-0.06	0.539	1.6042824	-0.4010706	0.1718874	173.6864881	58.30993566	-168.3579787
8.3	830	0.855	-0.061	0.538	1.6615782	-0.6302538	0.1718874	173.7036769	58.31566524	-168.3579787
8.31	831	0.856	-0.061	0.537	1.7761698	-0.7448454	0.2291832	173.7208656	58.32139482	-168.3637083
8.32	832	0.855	-0.06	0.537	1.6615782	-0.572958	0.286479	173.7323248	58.3271244	-168.3694379
8.33	833	0.856	-0.062	0.537	1.6615782	-0.5156622	0.2291832	173.7437839	58.33285398	-168.3751675
8.34	834	0.856	-0.062	0.536	1.432395	-0.7448454	0.0572958	173.7552431	58.33858356	-168.3751675
8.35	835	0.856	-0.061	0.537	1.3750992	-0.8021412	0	173.7781614	58.35004272	-168.3694379
8.36	836	0.855	-0.061	0.537	1.3750992	-0.8021412	0	173.7896206	58.3557723	-168.3694379
8.37	837	0.856	-0.06	0.537	1.6042824	-0.6875496	0	173.8068093	58.36723146	-168.3751675
8.38	838	0.856	-0.061	0.537	1.5469866	-0.572958	0	173.823998	58.37296104	-168.3751675
8.39	839	0.857	-0.061	0.539	1.3178034	-0.6302538	0.0572958	173.8354572	58.37869062	-168.3751675
8.4	840	0.858	-0.061	0.54	1.145916	-0.6875496	0	173.8583755	58.37296104	-168.3694379
8.41	841	0.858	-0.06	0.541	1.0313244	-0.6302538	0.0572958	173.8641051	58.37869062	-168.3694379
8.42	842	0.857	-0.061	0.539	0.9167328	-0.7448454	0	173.8755643	58.3844202	-168.3694379
8.43	843	0.855	-0.061	0.539	0.7448454	-0.9167328	0	173.8812938	58.39587936	-168.3694379
8.44	844	0.856	-0.061	0.535	0.6875496	-0.9167328	-0.0572958	173.892753	58.40160894	-168.3694379
8.45	845	0.856	-0.06	0.535	0.7448454	-1.0313244	-0.1718874	173.8984826	58.4130681	-168.3694379
8.46	846	0.857	-0.061	0.536	0.6875496	-1.0886202	-0.286479	173.9099417	58.42452726	-168.3637083
8.47	847	0.858	-0.06	0.536	0.6875496	-1.145916	-0.4010706	173.9214009	58.43598642	-168.3579787
8.48	848	0.858	-0.06	0.536	0.7448454	-1.2032118	-0.4583664	173.9385896	58.44744558	-168.3522491
8.49	849	0.858	-0.059	0.538	0.6875496	-0.9740286	-0.4583664	173.9500488	58.45890474	-168.34079
8.5	850	0.858	-0.059	0.537	0.286479	-0.5156622	-0.3437748	173.9729671	58.45890474	-168.3236012
8.51	851	0.857	-0.059	0.536	-0.6302538	-0.0572958	-0.1718874	173.9672375	58.46463432	-168.3236012
8.52	852	0.857	-0.058	0.536	-0.6875496	-0.2291832	-0.1718874	173.9672375	58.46463432	-168.3178717
8.53	853	0.859	-0.058	0.536	-0.3437748	-0.5156622	0	173.961508	58.4703639	-168.3178717
8.54	854	0.86	-0.058	0.538	-0.4010706	-0.8021412	0	173.9557784	58.47609348	-168.3236012
8.55	855	0.86	-0.06	0.537	-0.4010706	-1.2032118	-0.1145916	173.9557784	58.48755264	-168.3178717
8.56	856	0.859	-0.06	0.536	-0.286479	-1.4896908	-0.1718874	173.9557784	58.50474138	-168.3121421
8.57	857	0.859	-0.06	0.535	-0.4010706	-1.3750992	-0.1718874	173.9500488	58.51620054	-168.3121421
8.58	858	0.858	-0.06	0.534	-0.5156622	-1.145916	-0.1718874	173.9500488	58.53338928	-168.3121421
