TimeStamp(s)	FrameCounter	AccX	AccY	AccZ	GyrX	GyrY	GyrZ	EulerX	EulerY	EulerZ
0.01	1	-0.005	-1.012	-0.029	0.859437	-9.6256944	-0.2291832	90.30963996	3.48931422	-0.55576926
0.02	2	0.004	-1.004	-0.052	0.4583664	0	-0.0572958	90.31536954	3.48931422	-0.55576926
0.03	3	0.003	-1.006	-0.054	0.4010706	0.1145916	-0.0572958	90.32109912	3.4950438	-0.55003968
0.04	4	0.004	-1.006	-0.055	0.286479	-0.0572958	-0.1145916	90.3268287	3.4950438	-0.55576926
0.05	5	0.002	-1.007	-0.057	0.4583664	-0.5156622	0.0572958	89.85127356	3.10543236	-0.45263682
0.06	6	0.002	-1.007	-0.056	0.6302538	-0.7448454	0.1145916	89.85700314	3.10543236	-0.46409598
0.07	7	0.002	-1.006	-0.056	0.4010706	-1.0886202	0.1718874	89.86273272	3.10543236	-0.46982556
0.08	8	0.001	-1.006	-0.054	0.3437748	-1.3750992	0.2291832	89.8684623	3.09970278	-0.4870143
0.09	9	0.001	-1.004	-0.052	0.3437748	-1.2605076	0.1145916	89.8684623	3.09970278	-0.49847346
0.1	10	0.002	-1.004	-0.054	0.1145916	-1.0313244	0	89.381448	2.71009134	-0.4010706
0.11	11	0.001	-1.004	-0.054	0.1718874	-0.9167328	-0.1718874	89.381448	2.71009134	-0.41252976
0.12	12	0	-1.005	-0.055	0.3437748	-0.859437	-0.1718874	89.381448	2.71582092	-0.41825934
0.13	13	0	-1.009	-0.054	0.3437748	-0.8021412	-0.1718874	89.38717758	2.71582092	-0.4297185
0.14	14	0	-1.007	-0.056	0.1718874	-0.8021412	-0.1145916	89.38717758	2.71582092	-0.43544808
0.15	15	0	-1.006	-0.054	0.1145916	-0.859437	-0.1718874	88.8657858	2.29756158	-0.32658606
0.16	16	0	-1.004	-0.055	0.1145916	-0.9740286	-0.1145916	88.8657858	2.29756158	-0.33804522
0.17	17	0	-1.003	-0.057	0.0572958	-1.3750992	-0.1145916	88.8657858	2.29756158	-0.34950438
0.18	18	0.002	-0.999	-0.056	0.1145916	-1.8334656	0	88.8657858	2.29756158	-0.3724227
0.19	19	0	-0.999	-0.051	0.1145916	-1.9480572	0	88.8657858	2.29756158	-0.38961144
0.2	20	0	-1	-0.05	0	-1.4896908	0	88.68243924	2.15432208	-0.36096354
0.21	21	0.001	-1.002	-0.052	-0.1145916	-0.8021412	-0.1718874	88.67670966	2.15432208	-0.3724227
0.22	22	0.002	-1.005	-0.055	-0.1145916	-0.4010706	-0.1145916	88.67670966	2.15432208	-0.37815228
0.23	23	0.003	-1.007	-0.055	0.0572958	-0.6302538	-0.0572958	88.67670966	2.15432208	-0.38388186
0.24	24	0.005	-1.009	-0.054	0.2291832	-0.9740286	0	88.68243924	2.15432208	-0.38961144
0.25	25	0.004	-1.012	-0.055	0.1145916	-1.3750992	0.1145916	88.50482226	2.03973048	-0.3724227
0.26	26	0.004	-1.012	-0.053	0.1145916	-1.6042824	0.3437748	88.50482226	2.0340009	-0.38961144
0.27	27	0.001	-1.011	-0.051	0.0572958	-1.718874	0.4010706	88.50482226	2.02827132	-0.40680018
0.28	28	-0.003	-1.009	-0.049	0.0572958	-1.718874	0.4583664	88.50482226	2.02827132	-0.42398892
0.29	29	-0.006	-1.007	-0.051	0.0572958	-1.2605076	0.3437748	88.50482226	2.02254174	-0.43544808
0.3	30	-0.007	-1.004	-0.053	0	-0.6875496	0.1145916	88.09802208	1.66730778	-0.3437748
0.31	31	-0.007	-1.002	-0.055	0.1718874	-0.5156622	0	88.09802208	1.66730778	-0.34950438
0.32	32	-0.006	-1.002	-0.053	0.3437748	-0.5156622	0	88.10375166	1.6615782	-0.35523396
0.33	33	-0.004	-1.003	-0.056	0.3437748	-0.6302538	0	88.10375166	1.6615782	-0.36096354
0.34	34	-0.004	-1.004	-0.054	0.572958	-0.7448454	0.1145916	88.10948124	1.6615782	-0.36669312
0.35	35	-0.004	-1.004	-0.053	0.4010706	-0.9167328	0.1145916	87.96051216	1.54125702	-0.3437748
0.36	36	-0.005	-1.003	-0.053	0.3437748	-0.859437	0.1145916	87.96051216	1.54125702	-0.34950438
0.37	37	-0.005	-1.003	-0.055	0.3437748	-0.4583664	0.0572958	87.96624174	1.53552744	-0.35523396
0.38	38	-0.007	-1.002	-0.057	0.3437748	-0.1145916	0	87.96624174	1.53552744	-0.36096354
0.39	39	-0.006	-1.002	-0.057	0.4583664	0.1718874	0	87.97197132	1.54125702	-0.35523396
0.4	40	-0.006	-1.004	-0.056	0.572958	0.5156622	0	87.75997686	1.36936962	-0.30366774
0.41	41	-0.006	-1.004	-0.055	0.572958	0.6302538	0.0572958	87.76570644	1.36936962	-0.29793816
0.42	42	-0.006	-1.005	-0.056	0.4583664	0.8021412	0.1718874	87.77143602	1.36364004	-0.286479
0.43	43	-0.005	-1.006	-0.054	0.3437748	1.0886202	0.2291832	87.7771656	1.36364004	-0.27501984
0.44	44	-0.004	-1.006	-0.058	0.2291832	1.432395	0.2291832	87.7771656	1.36364004	-0.26356068
0.45	45	-0.002	-1.006	-0.058	0.286479	1.718874	0.3437748	87.68549232	1.30061466	-0.22345362
0.46	46	-0.001	-1.005	-0.058	0.4583664	1.8334656	0.2291832	87.6912219	1.29488508	-0.20626488
0.47	47	0	-1.006	-0.056	0.572958	1.8334656	0.1145916	87.69695148	1.29488508	-0.18907614
0.48	48	0.001	-1.005	-0.057	0.4010706	1.8907614	0	87.70268106	1.29488508	-0.1718874
0.49	49	0.002	-1.005	-0.057	0.286479	1.6615782	0.0572958	87.70841064	1.29488508	-0.15469866
0.5	50	0.002	-1.005	-0.059	0.286479	1.6615782	0.1145916	87.61100778	1.24904844	-0.12032118
0.51	51	0.002	-1.004	-0.057	0.4583664	1.6615782	0.0572958	87.61673736	1.24904844	-0.10313244
0.52	52	0.003	-1.004	-0.058	0.5156622	1.6042824	0.1145916	87.62246694	1.24331886	-0.0859437
0.53	53	0.003	-1.003	-0.057	0.572958	1.432395	0.1145916	87.62819652	1.24331886	-0.06875496
0.54	54	0.002	-1.002	-0.056	0.5156622	1.4896908	0.1145916	87.6339261	1.24331886	-0.0572958
0.55	55	0.002	-1.003	-0.057	0.4583664	1.432395	0.1718874	87.5479824	1.19748222	-0.0286479
0.56	56	0.001	-1.003	-0.057	0.3437748	1.4896908	0.1718874	87.5479824	1.19175264	-0.01145916
0.57	57	0.001	-1.004	-0.058	0.4010706	1.5469866	0.1718874	87.55371198	1.19175264	0
0.58	58	0.001	-1.005	-0.058	0.4010706	1.6042824	0.1718874	87.55944156	1.19175264	0.01718874
0.59	59	0	-1.004	-0.058	0.572958	1.6042824	0.1718874	87.56517114	1.19175264	0.0286479
0.6	60	0	-1.003	-0.057	0.7448454	1.5469866	0.2291832	87.50787534	1.15164558	0.0572958
0.61	61	0	-1.003	-0.058	0.8021412	1.3178034	0.2291832	87.51360492	1.145916	0.07448454
0.62	62	0	-1.003	-0.057	0.9167328	1.2032118	0.4010706	87.52506408	1.14018642	0.0859437
0.63	63	0	-1.004	-0.055	0.8021412	1.0886202	0.4010706	87.53079366	1.14018642	0.09740286
0.64	64	0	-1.004	-0.056	0.859437	0.9740286	0.4583664	87.54225282	1.13445684	0.10886202
0.65	65	-0.002	-1.005	-0.056	0.7448454	1.0313244	0.5156622	87.46776828	1.08289062	0.13178034
0.66	66	-0.002	-1.006	-0.056	0.7448454	0.9167328	0.5156622	87.47922744	1.08289062	0.1432395
0.67	67	-0.002	-1.006	-0.055	0.859437	0.9740286	0.4010706	87.48495702	1.07716104	0.15469866
0.68	68	-0.001	-1.004	-0.056	0.859437	1.0886202	0.286479	87.49641618	1.07143146	0.16042824
0.69	69	-0.001	-1.005	-0.058	0.859437	1.0886202	0.1145916	87.50214576	1.07143146	0.1718874
0.7	70	-0.001	-1.005	-0.057	0.9740286	1.0886202	0.1145916	87.42766122	1.02559482	0.2005353
0.71	71	0	-1.005	-0.057	1.0886202	1.0886202	0.1718874	87.43912038	1.02559482	0.21199446
0.72	72	0	-1.004	-0.058	1.0886202	1.0313244	0.286479	87.45057954	1.02559482	0.22345362
0.73	73	0	-1.003	-0.058	1.2605076	0.6875496	0.4010706	87.4620387	1.01986524	0.2291832
0.74	74	0	-1.005	-0.057	1.3750992	0.572958	0.4583664	87.47922744	1.01413566	0.23491278
0.75	75	0	-1.003	-0.057	1.3750992	0.3437748	0.4010706	87.4047429	0.9740286	0.25210152
0.76	76	0	-1.003	-0.056	1.5469866	0.1718874	0.2291832	87.42193164	0.96829902	0.2578311
0.77	77	0	-1.004	-0.056	1.432395	0	0.1145916	87.43912038	0.96829902	0.2578311
0.78	78	0	-1.005	-0.056	1.432395	-0.1145916	0.0572958	87.45057954	0.96829902	0.2578311
0.79	79	-0.001	-1.005	-0.056	1.2032118	-0.2291832	0.0572958	87.4620387	0.96829902	0.25210152
0.8	80	0	-1.005	-0.055	1.2032118	-0.2291832	0.0572958	87.3474471	0.91100322	0.26929026
0.81	81	-0.002	-1.006	-0.05	1.0886202	-0.1718874	0.0572958	87.35890626	0.91100322	0.26929026
0.82	82	-0.001	-1.006	-0.052	0.9167328	0	0.0572958	87.37036542	0.91100322	0.26929026
0.83	83	-0.002	-1.005	-0.054	0.7448454	0.2291832	0	87.376095	0.91100322	0.26929026
0.84	84	-0.003	-1.006	-0.055	0.9167328	0.4583664	0.1145916	87.38755416	0.91100322	0.27501984
0.85	85	-0.003	-1.007	-0.055	1.145916	0.572958	0.1718874	87.32452878	0.86516658	0.29793816
0.86	86	-0.002	-1.008	-0.054	1.0886202	0.6302538	0.1145916	87.33598794	0.86516658	0.30366774
0.87	87	-0.001	-1.008	-0.054	1.0313244	0.6875496	0	87.3474471	0.86516658	0.30939732
0.88	88	-0.001	-1.007	-0.054	0.9740286	0.286479	0	87.35317668	0.86516658	0.3151269
0.89	89	-0.001	-1.004	-0.052	0.9740286	0	0	87.36463584	0.86516658	0.3151269
0.9	90	-0.002	-1.003	-0.051	0.9167328	-0.2291832	-0.0572958	87.27296256	0.80787078	0.32658606
0.91	91	0	-1.003	-0.052	0.859437	0	-0.0572958	87.28442172	0.80787078	0.32658606
0.92	92	0	-1.004	-0.051	0.8021412	0.3437748	0	87.2901513	0.80787078	0.33231564
0.93	93	0.001	-1.005	-0.052	0.9167328	0.572958	0.1145916	87.30161046	0.80787078	0.33804522
0.94	94	0.002	-1.008	-0.054	1.0313244	0.4010706	0.0572958	87.31306962	0.80787078	0.3437748
0.95	95	0.003	-1.007	-0.053	1.0313244	0.0572958	0	87.19847802	0.7734933	0.36096354
0.96	96	0.004	-1.008	-0.054	0.9740286	-0.3437748	0	87.20993718	0.7734933	0.35523396
0.97	97	0.004	-1.008	-0.053	0.859437	-0.5156622	0.1145916	87.22139634	0.7734933	0.34950438
0.98	98	0.003	-1.007	-0.052	0.9740286	-0.6875496	0.3437748	87.22712592	0.76776372	0.3437748
0.99	99	0	-1.007	-0.051	0.9167328	-0.6302538	0.4583664	87.23858508	0.76203414	0.33804522
1	100	-0.003	-1.006	-0.051	0.9167328	-0.6302538	0.4583664	87.19274844	0.72192708	0.33804522
1.01	101	-0.007	-1.004	-0.052	0.8021412	-0.4583664	0.4010706	87.19847802	0.7161975	0.33804522
1.02	102	-0.009	-1.004	-0.051	0.7448454	-0.1145916	0.3437748	87.2042076	0.71046792	0.33804522
1.03	103	-0.008	-1.003	-0.052	0.6875496	0.1718874	0.2291832	87.21566676	0.71046792	0.33804522
1.04	104	-0.007	-1.002	-0.054	0.7448454	0.4010706	0.1718874	87.22139634	0.71046792	0.3437748
1.05	105	-0.006	-1.002	-0.054	0.859437	0.4010706	0	87.13545264	0.65317212	0.36096354
1.06	106	-0.003	-1.002	-0.055	0.859437	0.3437748	0	87.14118222	0.65317212	0.36669312
1.07	107	-0.001	-1.002	-0.055	0.9740286	0.286479	0	87.15264138	0.65317212	0.36669312
1.08	108	0	-1.002	-0.054	0.8021412	0.1718874	-0.0572958	87.16410054	0.65317212	0.3724227
1.09	109	0	-1.002	-0.053	0.8021412	0.1718874	0	87.16983012	0.65317212	0.3724227
1.1	110	-0.001	-1.002	-0.054	0.6875496	0.2291832	0	87.05523852	0.61306506	0.39534102
1.11	111	-0.003	-1.003	-0.054	0.7448454	0.1718874	0.1718874	87.06669768	0.61306506	0.39534102
1.12	112	-0.003	-1.006	-0.054	0.7448454	0.1145916	0.2291832	87.07242726	0.60733548	0.39534102
1.13	113	-0.004	-1.006	-0.053	0.6875496	0	0.3437748	87.07815684	0.60733548	0.39534102
1.14	114	-0.006	-1.006	-0.053	0.572958	0.1718874	0.1718874	87.08388642	0.6016059	0.4010706
1.15	115	-0.006	-1.007	-0.055	-0.0572958	0.5156622	0	86.93491734	0.52139178	0.4297185
1.16	116	-0.005	-1.007	-0.054	0	0.8021412	-0.0572958	86.92918776	0.52139178	0.43544808
1.17	117	-0.004	-1.007	-0.052	0.2291832	0.9167328	-0.1718874	86.93491734	0.52712136	0.44690724
1.18	118	-0.003	-1.008	-0.051	0.1718874	0.8021412	-0.1718874	86.93491734	0.52712136	0.45263682
1.19	119	-0.002	-1.007	-0.052	0	0.572958	-0.2291832	86.93491734	0.53285094	0.4583664
1.2	120	0	-1.005	-0.05	-0.1145916	0.1718874	-0.1718874	86.82032574	0.49847346	0.47555514
1.21	121	0	-1.004	-0.051	-0.2291832	0.1718874	-0.1145916	86.82032574	0.49847346	0.47555514
1.22	122	0	-1.005	-0.052	-0.3437748	0	-0.1718874	86.81459616	0.49847346	0.48128472
1.23	123	0.001	-1.005	-0.052	-0.286479	0	-0.1718874	86.80886658	0.49847346	0.47555514
1.24	124	0	-1.005	-0.053	-0.2291832	0	-0.286479	86.80886658	0.50420304	0.47555514
1.25	125	-0.001	-1.004	-0.054	-0.286479	0.1145916	-0.2291832	86.6885454	0.46982556	0.49274388
1.26	126	-0.003	-1.005	-0.051	-0.0572958	0.0572958	0	86.68281582	0.46982556	0.49847346
1.27	127	-0.002	-1.004	-0.051	0	0.1145916	0	86.6885454	0.46982556	0.49847346
1.28	128	-0.003	-1.005	-0.05	0	0.2291832	0.0572958	86.6885454	0.46982556	0.49847346
1.29	129	-0.004	-1.005	-0.048	-0.0572958	0.2291832	0.1145916	86.68281582	0.46409598	0.50420304
1.3	130	-0.003	-1.006	-0.049	-0.1718874	0.1718874	0.0572958	86.57968338	0.41825934	0.52139178
1.31	131	-0.003	-1.005	-0.05	-0.2291832	0.1718874	0	86.57968338	0.41825934	0.52139178
1.32	132	-0.003	-1.005	-0.05	-0.1145916	0.0572958	0	86.57968338	0.41825934	0.52139178
1.33	133	-0.003	-1.007	-0.051	-0.0572958	0.0572958	0	86.5739538	0.41825934	0.52139178
1.34	134	-0.003	-1.007	-0.051	-0.0572958	0.1718874	-0.1145916	86.5739538	0.41825934	0.52712136
1.35	135	-0.003	-1.006	-0.051	0	0.1718874	0	86.4307143	0.34950438	0.55003968
1.36	136	-0.004	-1.007	-0.051	-0.0572958	0.1145916	0	86.4307143	0.34950438	0.55003968
1.37	137	-0.004	-1.007	-0.051	-0.0572958	0.1145916	0	86.4307143	0.34950438	0.55003968
1.38	138	-0.004	-1.007	-0.05	-0.1145916	0	0	86.42498472	0.34950438	0.55003968
1.39	139	-0.004	-1.006	-0.051	-0.1145916	-0.2291832	0	86.42498472	0.34950438	0.55003968
1.4	140	-0.003	-1.006	-0.05	-0.1718874	-0.286479	0	86.36768892	0.32085648	0.55576926
1.41	141	-0.001	-1.006	-0.05	-0.2291832	-0.286479	0	86.36768892	0.32085648	0.55003968
1.42	142	-0.001	-1.007	-0.051	-0.4010706	-0.2291832	0	86.36195934	0.32658606	0.55003968
1.43	143	0	-1.008	-0.05	-0.3437748	-0.1145916	-0.0572958	86.35622976	0.32658606	0.55003968
1.44	144	0	-1.007	-0.05	-0.4583664	0.0572958	-0.0572958	86.35622976	0.32658606	0.55003968
1.45	145	0	-1.007	-0.053	-0.6302538	0	-0.1145916	86.30466354	0.3151269	0.55003968
1.46	146	-0.003	-1.007	-0.053	-0.5156622	-0.1718874	-0.1145916	86.29893396	0.32085648	0.55003968
1.47	147	-0.004	-1.006	-0.053	-0.4010706	-0.4583664	-0.0572958	86.29320438	0.32085648	0.5443101
1.48	148	-0.004	-1.006	-0.051	-0.5156622	-0.4583664	0	86.2874748	0.32085648	0.53858052
1.49	149	-0.004	-1.005	-0.052	-0.3437748	-0.4010706	0	86.2874748	0.32085648	0.53858052
1.5	150	-0.002	-1.004	-0.051	-0.4010706	-0.4010706	-0.0572958	86.24736774	0.30366774	0.53858052
1.51	151	-0.002	-1.004	-0.051	-0.3437748	-0.4010706	-0.0572958	86.24163816	0.30366774	0.53285094
1.52	152	-0.002	-1.006	-0.051	-0.286479	-0.3437748	-0.1145916	86.24163816	0.30366774	0.52712136
1.53	153	-0.001	-1.006	-0.053	-0.3437748	-0.0572958	-0.0572958	86.23590858	0.30366774	0.52712136
1.54	154	0	-1.006	-0.054	-0.3437748	-0.0572958	-0.1145916	86.230179	0.30366774	0.52712136
1.55	155	-0.002	-1.006	-0.053	-0.3437748	-0.1718874	-0.1145916	86.18434236	0.29220858	0.52712136
1.56	156	0	-1.005	-0.055	-0.4010706	-0.286479	-0.1718874	86.18434236	0.29793816	0.52712136
1.57	157	-0.001	-1.004	-0.054	-0.4010706	-0.6302538	-0.0572958	86.17861278	0.29793816	0.52139178
1.58	158	-0.004	-1.002	-0.052	-0.4583664	-0.9167328	-0.1145916	86.1728832	0.29793816	0.50993262
1.59	159	-0.005	-1.003	-0.05	-0.286479	-0.7448454	-0.1145916	86.16715362	0.29793816	0.50420304
1.6	160	-0.006	-1.005	-0.05	-0.4010706	-0.3437748	-0.1145916	86.1442353	0.26929026	0.50420304
1.61	161	-0.005	-1.005	-0.051	-0.5156622	0	-0.0572958	86.13850572	0.27501984	0.50420304
1.62	162	-0.003	-1.008	-0.049	-0.6302538	0	0	86.13277614	0.26929026	0.50420304
1.63	163	-0.003	-1.008	-0.051	-0.7448454	0	0	86.12131698	0.26929026	0.50420304
1.64	164	-0.001	-1.01	-0.049	-0.7448454	-0.2291832	-0.1145916	86.1155874	0.27501984	0.49847346
1.65	165	0	-1.01	-0.052	-0.8021412	-0.4583664	-0.2291832	86.09266908	0.27501984	0.49847346
1.66	166	0	-1.01	-0.052	-0.7448454	-0.4010706	-0.1718874	86.0869395	0.27501984	0.49274388
1.67	167	-0.001	-1.009	-0.052	-0.6302538	-0.3437748	-0.0572958	86.08120992	0.27501984	0.4870143
1.68	168	-0.002	-1.008	-0.051	-0.6302538	-0.1718874	0	86.06975076	0.27501984	0.4870143
1.69	169	-0.004	-1.006	-0.05	-0.5156622	0.1145916	0	86.06402118	0.27501984	0.4870143
1.7	170	-0.006	-1.005	-0.052	-0.4010706	0.572958	0.0572958	86.05256202	0.2578311	0.49274388
1.71	171	-0.008	-1.004	-0.052	-0.5156622	0.6302538	0.1718874	86.04683244	0.25210152	0.50420304
1.72	172	-0.007	-1.002	-0.054	-0.572958	0.8021412	0.1718874	86.03537328	0.25210152	0.50993262
1.73	173	-0.006	-1.002	-0.056	-0.3437748	0.6875496	0.2291832	86.03537328	0.25210152	0.5156622
1.74	174	-0.005	-1.001	-0.058	-0.286479	0.6302538	0.1718874	86.0296437	0.24637194	0.52139178
1.75	175	-0.004	-1	-0.058	0	0.6302538	0	85.98953664	0.2291832	0.53285094
1.76	176	-0.004	-0.999	-0.06	0	0.7448454	-0.1145916	85.98953664	0.2291832	0.5443101
1.77	177	-0.002	-0.998	-0.06	0.1145916	0.8021412	-0.286479	85.98953664	0.23491278	0.55003968
1.78	178	-0.003	-0.998	-0.06	0.3437748	0.7448454	-0.286479	85.99526622	0.23491278	0.56149884
1.79	179	-0.002	-0.998	-0.058	0.4583664	0.6302538	-0.2291832	85.99526622	0.24064236	0.56722842
1.8	180	-0.001	-1	-0.057	0.4010706	0.4010706	-0.0572958	85.96661832	0.24064236	0.572958
1.81	181	-0.001	-1.002	-0.057	0.4583664	0.1718874	0.0572958	85.9723479	0.24064236	0.572958
1.82	182	-0.002	-1.003	-0.057	0.4010706	0.286479	0.1145916	85.97807748	0.23491278	0.57868758
1.83	183	-0.004	-1.004	-0.058	0.4010706	0.5156622	0.0572958	85.98380706	0.23491278	0.58441716
1.84	184	-0.005	-1.007	-0.06	0.286479	0.7448454	-0.0572958	85.98380706	0.23491278	0.59014674
1.85	185	-0.005	-1.006	-0.061	0.4010706	0.9740286	-0.1718874	85.96661832	0.2291832	0.6016059
1.86	186	-0.006	-1.008	-0.059	0.6302538	1.0313244	-0.2291832	85.9723479	0.23491278	0.61306506
1.87	187	-0.005	-1.007	-0.06	0.7448454	0.9740286	-0.286479	85.97807748	0.23491278	0.62452422
1.88	188	-0.003	-1.007	-0.06	0.859437	0.859437	-0.286479	85.98953664	0.24064236	0.6302538
1.89	189	0	-1.007	-0.06	0.9167328	0.8021412	-0.286479	85.99526622	0.24064236	0.64171296
1.9	190	0.001	-1.004	-0.061	1.0313244	0.6875496	-0.286479	85.98380706	0.24637194	0.64744254
1.91	191	0.001	-1.004	-0.06	1.2605076	0.3437748	-0.1718874	85.99526622	0.25210152	0.65317212
1.92	192	0	-1.004	-0.059	1.432395	0	-0.0572958	86.01245496	0.25210152	0.65317212
1.93	193	-0.002	-1.004	-0.058	1.4896908	-0.2291832	0	86.02391412	0.25210152	0.64744254
1.94	194	-0.003	-1.003	-0.059	1.6615782	-0.286479	-0.0572958	86.04110286	0.25210152	0.64744254
1.95	195	-0.007	-1.001	-0.06	1.8334656	-0.2291832	-0.0572958	86.04110286	0.24064236	0.64744254
1.96	196	-0.007	-0.999	-0.058	2.1199446	-0.2291832	-0.0572958	86.06402118	0.24064236	0.64744254
1.97	197	-0.008	-0.999	-0.053	2.4064236	0	-0.0572958	86.0869395	0.24637194	0.64744254
1.98	198	-0.007	-0.999	-0.05	2.5210152	0.1718874	-0.0572958	86.1155874	0.24637194	0.64744254
1.99	199	-0.006	-0.999	-0.047	2.3491278	0.1718874	-0.0572958	86.13850572	0.24637194	0.64744254
2	200	-0.004	-1	-0.044	2.1772404	0.286479	-0.2291832	86.15569446	0.24637194	0.65317212
2.01	201	0	-1.001	-0.045	1.8907614	0.4583664	-0.2291832	86.17861278	0.24637194	0.6589017
2.02	202	0	-1.003	-0.048	1.4896908	0.4010706	-0.2291832	86.19580152	0.25210152	0.66463128
2.03	203	0.001	-1.005	-0.05	1.4896908	0.4010706	0	86.20726068	0.25210152	0.66463128
2.04	204	0.003	-1.007	-0.05	1.432395	0.5156622	0.1718874	86.22444942	0.25210152	0.67036086
2.05	205	0.002	-1.01	-0.053	1.2605076	0.7448454	0.5156622	86.22444942	0.24637194	0.68182002
2.06	206	0	-1.01	-0.052	1.2605076	0.6875496	0.572958	86.23590858	0.24064236	0.6875496
2.07	207	0	-1.011	-0.053	1.2605076	0.8021412	0.572958	86.24736774	0.23491278	0.69900876
2.08	208	-0.001	-1.009	-0.051	1.145916	0.9167328	0.4583664	86.2588269	0.23491278	0.70473834
2.09	209	-0.001	-1.007	-0.051	1.145916	1.0313244	0.2291832	86.27028606	0.2291832	0.7161975
2.1	210	-0.001	-1.006	-0.051	1.145916	0.9740286	0.0572958	86.27028606	0.23491278	0.72765666
2.11	211	0.002	-1.007	-0.051	1.2032118	0.859437	0	86.2874748	0.23491278	0.73911582
2.12	212	0.002	-1.009	-0.049	1.145916	0.8021412	0.0572958	86.29893396	0.23491278	0.7448454
2.13	213	0.004	-1.01	-0.05	1.0886202	0.4010706	0.1718874	86.31039312	0.2291832	0.75057498
2.14	214	0.002	-1.01	-0.049	0.9740286	0.0572958	0.286479	86.3161227	0.2291832	0.75057498
2.15	215	0.002	-1.008	-0.047	0.859437	-0.0572958	0.3437748	86.3161227	0.2291832	0.75057498
2.16	216	0.001	-1.007	-0.048	0.6875496	-0.0572958	0.286479	86.32185228	0.2291832	0.75057498
2.17	217	0.001	-1.006	-0.048	0.6302538	0	0.1718874	86.32758186	0.22345362	0.75057498
2.18	218	0.002	-1.003	-0.051	0.6302538	0.2291832	0.1145916	86.33331144	0.22345362	0.75630456
2.19	219	0.001	-1.003	-0.052	0.7448454	0.2291832	0.1145916	86.3447706	0.22345362	0.75630456
2.2	220	0	-1.004	-0.051	1.0313244	0	0.286479	86.32758186	0.21772404	0.76203414
2.21	221	-0.002	-1.003	-0.048	0.9740286	0	0.286479	86.33904102	0.21772404	0.76203414
2.22	222	-0.003	-1.002	-0.048	0.9740286	0	0.5156622	86.35050018	0.21199446	0.76203414
2.23	223	-0.004	-1.003	-0.047	0.9740286	-0.2291832	0.5156622	86.36195934	0.20626488	0.75630456
2.24	224	-0.006	-1.005	-0.047	0.859437	-0.1145916	0.572958	86.36768892	0.2005353	0.75630456
2.25	225	-0.006	-1.006	-0.047	0.859437	0.0572958	0.4583664	86.36195934	0.17761698	0.76203414
2.26	226	-0.008	-1.006	-0.05	0.9167328	0.1718874	0.4583664	86.36768892	0.17761698	0.76203414
2.27	227	-0.008	-1.004	-0.05	0.859437	0.286479	0.4010706	86.37914808	0.1718874	0.76776372
2.28	228	-0.007	-1.002	-0.049	0.859437	0.4010706	0.3437748	86.38487766	0.16615782	0.7734933
2.29	229	-0.005	-1.003	-0.051	0.9740286	0.7448454	0.5156622	86.39633682	0.16042824	0.77922288
2.3	230	-0.003	-1.003	-0.049	0.859437	1.0313244	0.6302538	86.39060724	0.15469866	0.79068204
2.31	231	-0.003	-1.005	-0.049	0.859437	1.0886202	0.8021412	86.4020664	0.14896908	0.8021412
2.32	232	-0.005	-1.007	-0.049	0.9167328	0.859437	0.9167328	86.41352556	0.13750992	0.81360036
2.33	233	-0.005	-1.011	-0.046	0.7448454	0.5156622	0.8021412	86.41925514	0.13178034	0.81932994
2.34	234	-0.005	-1.012	-0.046	0.572958	0.286479	0.7448454	86.42498472	0.12032118	0.82505952
2.35	235	-0.005	-1.014	-0.046	0.4010706	0.4010706	0.7448454	86.41352556	0.10886202	0.8307891
2.36	236	-0.005	-1.013	-0.046	0.4010706	0.572958	0.6875496	86.41925514	0.10313244	0.83651868
2.37	237	-0.006	-1.011	-0.048	0.4583664	1.2605076	0.6875496	86.42498472	0.09740286	0.84797784
2.38	238	-0.009	-1.008	-0.049	0.5156622	1.5469866	0.6302538	86.4307143	0.0859437	0.86516658
2.39	239	-0.011	-1.003	-0.05	0.6875496	1.6615782	0.5156622	86.43644388	0.0859437	0.88235532
2.4	240	-0.01	-1	-0.049	0.8021412	1.7761698	0.4583664	86.4307143	0.07448454	0.89954406
2.41	241	-0.007	-1	-0.048	0.6302538	1.5469866	0.3437748	86.43644388	0.06875496	0.9167328
2.42	242	-0.005	-0.998	-0.049	0.4583664	1.3178034	0.286479	86.44217346	0.06875496	0.92819196
2.43	243	-0.002	-0.999	-0.047	0.5156622	1.145916	0.286479	86.44790304	0.06302538	0.93965112
2.44	244	-0.001	-1	-0.049	0.6875496	1.0313244	0.286479	86.45363262	0.06302538	0.95111028
2.45	245	-0.001	-1.002	-0.047	0.572958	1.0313244	0.286479	86.44790304	0.0572958	0.96256944
2.46	246	-0.003	-1.004	-0.048	0.572958	1.0886202	0.2291832	86.45363262	0.0572958	0.9740286
2.47	247	-0.004	-1.003	-0.047	0.5156622	1.2032118	0.3437748	86.4593622	0.05156622	0.98548776
2.48	248	-0.005	-1.004	-0.047	0.4010706	1.3178034	0.5156622	86.46509178	0.05156622	1.0026765
2.49	249	-0.006	-1.007	-0.049	0.5156622	1.432395	0.6875496	86.47082136	0.04010706	1.01413566
2.5	250	-0.007	-1.006	-0.048	0.4583664	1.432395	0.6875496	86.46509178	0.0286479	1.0313244
2.51	251	-0.007	-1.005	-0.047	0.286479	1.4896908	0.4010706	86.47082136	0.0286479	1.04851314
2.52	252	-0.006	-1.007	-0.049	0.4010706	1.6615782	0.286479	86.47082136	0.02291832	1.06570188
2.53	253	-0.004	-1.007	-0.051	0.2291832	1.5469866	0.286479	86.47655094	0.02291832	1.08289062
2.54	254	-0.005	-1.006	-0.051	0.286479	1.145916	0.4583664	86.47655094	0.01718874	1.09434978
2.55	255	-0.004	-1.007	-0.052	0.1718874	0.6875496	0.5156622	86.45363262	0.01145916	1.10007936
2.56	256	-0.005	-1.008	-0.05	0.1718874	0.3437748	0.572958	86.45363262	0.00572958	1.10580894
2.57	257	-0.005	-1.008	-0.048	0.0572958	0.3437748	0.3437748	86.45363262	0.00572958	1.11153852
2.58	258	-0.005	-1.009	-0.049	-0.2291832	0.5156622	0.286479	86.45363262	0	1.1172681
2.59	259	-0.005	-1.009	-0.051	-0.2291832	0.5156622	0.1718874	86.44790304	0	1.1172681
2.6	260	-0.007	-1.009	-0.049	-0.0572958	0.3437748	0.1718874	86.4020664	-0.01145916	1.12872726
2.61	261	-0.006	-1.01	-0.048	-0.0572958	0.3437748	0.2291832	86.4020664	-0.01145916	1.12872726
2.62	262	-0.005	-1.009	-0.047	-0.3437748	0.4583664	0.1718874	86.4020664	-0.01718874	1.13445684
2.63	263	-0.005	-1.005	-0.048	-0.572958	0.5156622	0.2291832	86.39060724	-0.01718874	1.14018642
2.64	264	-0.004	-1.003	-0.046	-0.7448454	0.4583664	0.286479	86.38487766	-0.02291832	1.145916
2.65	265	-0.004	-1.001	-0.049	-0.9167328	0.1718874	0.4010706	86.35622976	-0.02291832	1.15164558
2.66	266	-0.004	-0.998	-0.05	-0.859437	-0.0572958	0.5156622	86.3447706	-0.0286479	1.15164558
2.67	267	-0.004	-0.999	-0.047	-0.9167328	-0.286479	0.4010706	86.33331144	-0.03437748	1.145916
2.68	268	-0.004	-0.998	-0.045	-1.145916	-0.5156622	0.3437748	86.32185228	-0.04010706	1.14018642
2.69	269	-0.005	-0.999	-0.045	-1.6615782	-0.4583664	0.2291832	86.30466354	-0.04010706	1.13445684
2.7	270	-0.007	-1	-0.048	-1.8907614	-0.4010706	0.1718874	86.27601564	-0.04583664	1.13445684
2.71	271	-0.008	-1.001	-0.048	-2.4064236	-0.4010706	0.1145916	86.25309732	-0.05156622	1.12872726
2.72	272	-0.009	-1.001	-0.049	-3.0939732	-0.6302538	0.0572958	86.21871984	-0.05156622	1.12299768
2.73	273	-0.011	-1.001	-0.049	-3.8388186	-0.859437	0.1145916	86.18434236	-0.05156622	1.11153852
2.74	274	-0.01	-1.002	-0.047	-4.6409598	-0.859437	0.1145916	86.13277614	-0.0572958	1.10007936
2.75	275	-0.01	-1.009	-0.045	-5.0993262	-0.7448454	0.1718874	86.0869395	-0.0572958	1.09434978
2.76	276	-0.01	-1.022	-0.041	-5.5576926	-0.2291832	0.286479	86.0296437	-0.06302538	1.09434978
2.77	277	-0.011	-1.034	-0.038	-6.2452422	0.572958	0.4010706	85.96661832	-0.06875496	1.10007936
2.78	278	-0.011	-1.047	-0.033	-6.7036086	1.2605076	0.4583664	85.89786336	-0.07448454	1.11153852
2.79	279	-0.006	-1.056	-0.028	-7.734933	1.8334656	0.572958	85.81764924	-0.08021412	1.12872726
2.8	280	-0.001	-1.058	-0.028	-8.59437	2.0626488	0.859437	85.73743512	-0.0859437	1.145916
2.81	281	0.001	-1.059	-0.029	-9.3965112	2.0626488	1.145916	85.64003226	-0.09740286	1.16883432
2.82	282	0.002	-1.056	-0.032	-9.8548776	1.718874	1.3178034	85.53689982	-0.10886202	1.18602306
2.83	283	0.002	-1.05	-0.033	-10.3705398	1.3178034	1.2032118	85.43376738	-0.12605076	1.19748222
2.84	284	0.003	-1.043	-0.04	-10.7143146	0.9167328	0.9740286	85.32490536	-0.13178034	1.20894138
2.85	285	0.002	-1.036	-0.046	-11.172681	0.5156622	0.572958	85.21604334	-0.13750992	1.20894138
2.86	286	0	-1.028	-0.052	-11.5737516	0.1718874	0.0572958	85.09572216	-0.13750992	1.20894138
2.87	287	0	-1.021	-0.056	-11.9748222	-0.4583664	-0.4010706	84.97540098	-0.13750992	1.2032118
2.88	288	-0.002	-1.014	-0.062	-12.4904844	-0.9167328	-0.8021412	84.84935022	-0.13178034	1.19175264
2.89	289	-0.003	-1.01	-0.067	-13.0061466	-1.4896908	-1.0886202	84.71756988	-0.12032118	1.1745639
2.9	290	-0.007	-1.007	-0.069	-13.2353298	-2.005353	-1.145916	84.58578954	-0.1145916	1.15164558
2.91	291	-0.009	-1.004	-0.067	-13.6364004	-2.2345362	-1.2032118	84.44255004	-0.10313244	1.12872726
2.92	292	-0.012	-0.999	-0.068	-14.0947668	-2.1772404	-1.2605076	84.29931054	-0.09167328	1.10580894
2.93	293	-0.016	-0.995	-0.076	-14.6677248	-1.7761698	-1.4896908	84.15034146	-0.08021412	1.08289062
2.94	294	-0.019	-0.993	-0.085	-14.9542038	-1.6042824	-1.6615782	84.00137238	-0.06875496	1.06570188
2.95	295	-0.023	-0.993	-0.089	-15.0114996	-1.432395	-1.8334656	83.84667372	-0.0572958	1.04851314
2.96	296	-0.023	-0.994	-0.089	-15.1260912	-1.3178034	-2.005353	83.69197506	-0.03437748	1.0313244
2.97	297	-0.023	-0.999	-0.088	-15.0687954	-1.0313244	-2.1772404	83.54300598	-0.01718874	1.01413566
2.98	298	-0.021	-1.002	-0.086	-15.3552744	-0.4583664	-2.1772404	83.38257774	0	1.00840608
2.99	299	-0.019	-1.005	-0.087	-15.756345	0.3437748	-2.005353	83.2221495	0.01718874	1.00840608
3	300	-0.018	-1.002	-0.089	-16.2147114	1.145916	-1.6615782	83.06172126	0.0286479	1.01413566
3.01	301	-0.015	-0.996	-0.088	-16.6730778	1.4896908	-1.3178034	82.88983386	0.04010706	1.02559482
3.02	302	-0.012	-0.992	-0.087	-17.1314442	1.5469866	-1.2032118	82.71794646	0.05156622	1.03705398
3.03	303	-0.006	-0.993	-0.091	-17.761698	1.0886202	-1.3178034	82.5345999	0.06875496	1.04278356
3.04	304	0	-0.994	-0.095	-18.621135	0.3437748	-1.4896908	82.34552376	0.08021412	1.04278356
3.05	305	0.003	-1.001	-0.101	-19.4232762	-0.286479	-1.5469866	82.15071804	0.09740286	1.03705398
3.06	306	0.005	-1.011	-0.105	-20.2827132	-0.9740286	-1.6042824	81.94445316	0.10886202	1.02559482
3.07	307	0.005	-1.021	-0.107	-21.0848544	-1.432395	-1.718874	81.7324587	0.12032118	1.0026765
3.08	308	0.006	-1.033	-0.111	-22.058883	-1.8334656	-1.7761698	81.50900508	0.13750992	0.97975818
3.09	309	0.003	-1.036	-0.113	-23.1475032	-2.005353	-1.7761698	81.2740923	0.14896908	0.95683986
3.1	310	0.002	-1.04	-0.119	-24.637194	-2.0626488	-1.9480572	81.02199078	0.16042824	0.92819196
3.11	311	0.002	-1.04	-0.123	-25.6112226	-2.3491278	-1.8907614	80.76415968	0.17761698	0.89954406
3.12	312	0	-1.039	-0.12	-26.6998428	-2.5210152	-1.7761698	80.49486942	0.18907614	0.87089616
3.13	313	0	-1.04	-0.12	-27.7311672	-2.5210152	-1.7761698	80.21412	0.2005353	0.84224826
3.14	314	-0.003	-1.042	-0.118	-29.1062664	-2.5210152	-1.7761698	79.91618184	0.21199446	0.80787078
3.15	315	-0.005	-1.043	-0.121	-30.8824362	-2.2345362	-1.8907614	79.60678452	0.22345362	0.77922288
3.16	316	-0.011	-1.043	-0.13	-32.3148312	-1.8334656	-2.0626488	79.28019846	0.23491278	0.75630456
3.17	317	-0.013	-1.041	-0.14	-34.4347758	-1.145916	-2.3491278	78.93069408	0.25210152	0.73911582
3.18	318	-0.015	-1.035	-0.146	-35.6952834	-0.4010706	-2.4064236	78.56400096	0.27501984	0.72765666
3.19	319	-0.012	-1.029	-0.144	-36.955791	0.286479	-2.3491278	78.19157826	0.29220858	0.72192708
3.2	320	-0.009	-1.023	-0.147	-38.7319608	1.0886202	-2.005353	77.80196682	0.30939732	0.72192708
3.21	321	-0.001	-1.019	-0.155	-40.5081306	1.3178034	-1.6042824	77.38943706	0.32658606	0.72765666
3.22	322	0.003	-1.017	-0.157	-42.112413	0.9740286	-1.3750992	76.95971856	0.33804522	0.73338624
3.23	323	0.008	-1.028	-0.159	-43.8885828	0	-1.6615782	76.5185409	0.34950438	0.72192708
3.24	324	0.012	-1.036	-0.16	-46.0085274	-0.9740286	-2.291832	76.04871534	0.36096354	0.70473834
3.25	325	0.002	-1.034	-0.166	-48.9306132	-1.3178034	-3.2085648	75.55597146	0.38388186	0.67609044
3.26	326	-0.002	-1.028	-0.173	-50.8213746	-0.9167328	-3.4950438	75.04030926	0.41252976	0.65317212
3.27	327	-0.011	-1.026	-0.177	-52.6548402	0.2291832	-3.6669312	74.50745832	0.44117766	0.64171296
3.28	328	-0.014	-1.026	-0.179	-54.4883058	1.432395	-3.6096354	73.95168906	0.47555514	0.64171296
3.29	329	-0.012	-1.02	-0.188	-55.7488134	1.7761698	-3.2658606	73.38446064	0.50420304	0.64744254
3.3	330	-0.012	-1.012	-0.204	-56.6655462	1.718874	-2.6929026	72.81723222	0.52712136	0.64744254
3.31	331	0.003	-1.012	-0.189	-58.4990118	0.6302538	-2.3491278	72.2213559	0.5443101	0.64171296
3.32	332	0.016	-0.99	-0.174	-61.7648724	-1.8907614	-1.0886202	71.59683168	0.5443101	0.61879464
3.33	333	0.028	-0.968	-0.173	-63.4264506	-4.9847346	-0.2291832	70.94938914	0.52712136	0.56149884
3.34	334	0.025	-0.96	-0.203	-62.0513514	-4.583664	0.1718874	70.31913534	0.49847346	0.5156622
3.35	335	0.01	-0.971	-0.253	-60.9627312	-3.724227	0.286479	69.70607028	0.48128472	0.47555514
3.36	336	-0.018	-0.995	-0.286	-59.4730404	-3.0939732	-0.4010706	69.10446438	0.46409598	0.44117766
3.37	337	-0.05	-1.018	-0.305	-59.7022236	-1.6615782	-2.0626488	68.4971289	0.47555514	0.41252976
3.38	338	-0.079	-1.032	-0.322	-59.587632	-0.4583664	-4.6409598	67.88979342	0.50993262	0.38961144
3.39	339	-0.084	-1.041	-0.333	-58.155237	0.286479	-6.9900876	67.29964668	0.56722842	0.36096354
3.4	340	-0.09	-1.03	-0.344	-57.2385042	1.718874	-8.59437	66.7209591	0.64171296	0.33804522
3.41	341	-0.061	-1.02	-0.348	-55.6915176	3.3231564	-8.9954406	66.15373068	0.72765666	0.33231564
3.42	342	-0.05	-0.983	-0.356	-54.3737142	3.3231564	-7.9641162	65.603691	0.80787078	0.32658606
3.43	343	-0.032	-0.951	-0.34	-54.3737142	3.724227	-6.7609044	65.04792174	0.87662574	0.32658606
3.44	344	-0.01	-0.919	-0.346	-55.576926	5.443101	-5.8441716	64.4864229	0.9453807	0.34950438
3.45	345	0.01	-0.897	-0.387	-56.8374336	7.8495246	-5.3858052	63.90773532	1.01413566	0.38961144
3.46	346	0.03	-0.879	-0.391	-58.0406454	7.3911582	-5.3285094	63.31758858	1.0886202	0.4297185
3.47	347	0.025	-0.851	-0.362	-57.7541664	4.8128472	-5.5003968	62.73317142	1.15164558	0.44690724
3.48	348	0.012	-0.815	-0.379	-58.6708992	3.8961144	-6.7036086	62.1372951	1.22040054	0.44690724
3.49	349	0.006	-0.789	-0.407	-60.2178858	4.297185	-8.1932994	61.52423004	1.30061466	0.44117766
3.5	350	-0.006	-0.783	-0.415	-60.16059	5.6722842	-8.880849	60.91116498	1.39801752	0.44690724
3.51	351	-0.02	-0.789	-0.419	-60.2178858	7.3338624	-9.3392154	60.29809992	1.50687954	0.4583664
3.52	352	-0.032	-0.809	-0.446	-60.5616606	9.5683986	-9.6829902	59.68503486	1.62720072	0.49274388
3.53	353	-0.027	-0.853	-0.483	-59.9314068	11.6883432	-10.313244	59.07769938	1.76471064	0.53858052
3.54	354	-0.024	-0.898	-0.523	-59.587632	13.464513	-10.8289062	58.4703639	1.91367972	0.59587632
3.55	355	-0.017	-0.94	-0.551	-58.6136034	15.469866	-10.7143146	57.87448758	2.07410796	0.67036086
3.56	356	0	-0.966	-0.55	-58.155237	17.5325148	-9.8548776	57.28434084	2.2345362	0.76203414
3.57	357	0.011	-0.992	-0.56	-56.2071798	18.7357266	-8.6516658	56.71711242	2.39496444	0.87089616
3.58	358	0.039	-0.995	-0.607	-54.4883058	20.1108258	-7.6776372	56.16707274	2.56112226	0.99694692
3.59	359	0.058	-1.006	-0.645	-52.3110654	21.199446	-7.3338624	55.63995138	2.72728008	1.12872726
3.6	360	0.074	-1.021	-0.656	-50.4775998	20.626488	-7.5630456	55.13001876	2.8934379	1.25477802
3.61	361	0.075	-1.036	-0.682	-49.6754586	19.9962342	-8.021412	54.62581572	3.05959572	1.36936962
3.62	362	0.085	-1.067	-0.697	-49.0452048	19.1367972	-8.6516658	54.13307184	3.23148312	1.47823164
3.63	363	0.098	-1.097	-0.695	-50.0765292	17.7044022	-9.2246238	53.6288688	3.39764094	1.56417534
3.64	364	0.117	-1.097	-0.691	-52.1964738	15.6990492	-9.6256944	53.10174744	3.55806918	1.6329303
3.65	365	0.113	-1.084	-0.692	-53.1705024	11.172681	-9.9121734	52.56316692	3.6955791	1.6615782
3.66	366	0.108	-1.073	-0.694	-52.425657	9.9121734	-10.3705398	52.03031598	3.82735944	1.67876694
3.67	367	0.122	-1.07	-0.712	-50.993262	10.3705398	-10.313244	51.5089242	3.96486936	1.6902261
3.68	368	0.138	-1.066	-0.73	-48.987909	9.9694692	-8.7662574	51.01618032	4.08519054	1.71314442
3.69	369	0.145	-1.065	-0.749	-48.0711762	10.4278356	-6.0733548	50.52916602	4.18832298	1.75898106
3.7	370	0.166	-1.042	-0.741	-48.2430636	11.745639	-1.3178034	50.04215172	4.2685371	1.83919518
3.71	371	0.184	-1.01	-0.765	-47.3263308	11.9748222	3.4950438	49.57232616	4.30864416	1.95378678
3.72	372	0.182	-0.984	-0.768	-45.3209778	9.8548776	8.3651868	49.11968934	4.297185	2.07983754
3.73	373	0.152	-0.978	-0.752	-44.117766	6.1306506	10.9434978	48.67851168	4.25134836	2.20015872
3.74	374	0.123	-0.965	-0.736	-44.0031744	5.3285094	10.7716104	48.2430636	4.19405256	2.30902074
3.75	375	0.101	-0.935	-0.731	-43.2010332	5.5003968	9.1100322	47.8133451	4.15967508	2.41215318
3.76	376	0.076	-0.92	-0.717	-41.9978214	5.3858052	7.2765666	47.38935618	4.13675676	2.49809688
3.77	377	0.045	-0.904	-0.715	-39.3622146	4.870143	5.3285094	46.99401516	4.11956802	2.57258142
3.78	378	0.018	-0.891	-0.693	-35.6952834	4.9274388	4.6409598	46.6387812	4.11383844	2.6356068
3.79	379	0.007	-0.888	-0.683	-32.945085	6.1306506	4.6982556	46.30646556	4.11956802	2.71582092
3.8	380	0.029	-0.877	-0.679	-30.653253	8.021412	5.443101	46.0085274	4.1252976	2.81322378
3.81	381	0.061	-0.85	-0.671	-30.080295	9.5111028	6.589017	45.71058924	4.13675676	2.92781538
3.82	382	0.074	-0.833	-0.662	-27.9603504	9.3392154	7.9641162	45.4355694	4.14248634	3.04813656
3.83	383	0.088	-0.801	-0.657	-26.4706596	8.880849	8.7089616	45.17200872	4.13675676	3.17418732
3.84	384	0.099	-0.772	-0.653	-24.7517856	8.307891	8.880849	44.93136636	4.1252976	3.2945085
3.85	385	0.1	-0.745	-0.645	-22.6891368	7.8495246	9.1100322	44.71364232	4.11383844	3.41482968
3.86	386	0.1	-0.717	-0.64	-21.1421502	7.5057498	9.1100322	44.50737744	4.10237928	3.53515086
3.87	387	0.1	-0.69	-0.64	-19.3086846	6.9900876	8.5370742	44.3183013	4.08519054	3.64401288
3.88	388	0.092	-0.671	-0.631	-16.5011904	5.3858052	7.3338624	44.15787306	4.0680018	3.73568616
3.89	389	0.084	-0.664	-0.616	-13.6936962	2.7501984	6.016059	44.02036314	4.04508348	3.79871154
3.9	390	0.078	-0.657	-0.617	-12.318597	1.432395	5.0420304	43.90577154	4.02216516	3.84454818
3.91	391	0.074	-0.646	-0.607	-10.7143146	0	4.0680018	43.79690952	3.99351726	3.87319608
3.92	392	0.07	-0.624	-0.585	-9.453807	-1.3750992	2.9793816	43.69950666	3.95913978	3.88465524
3.93	393	0.073	-0.6	-0.56	-8.7662574	-3.5523396	1.6615782	43.61356296	3.9247623	3.8674665
3.94	394	0.076	-0.579	-0.517	-8.4224826	-6.1879464	0.3437748	43.52188968	3.87319608	3.82735944
3.95	395	0.079	-0.557	-0.508	-9.1100322	-8.3651868	-0.286479	43.4302164	3.82162986	3.77006364
3.96	396	0.08	-0.538	-0.524	-9.167328	-9.5683986	-0.286479	43.33281354	3.7528749	3.6955791
3.97	397	0.078	-0.522	-0.548	-8.1360036	-10.1986524	-0.0572958	43.24686984	3.68411994	3.62682414
3.98	398	0.068	-0.515	-0.554	-7.2765666	-11.0580894	0	43.1723853	3.60390582	3.54661002
3.99	399	0.054	-0.516	-0.552	-7.3338624	-11.6883432	0	43.09217118	3.5236917	3.4663959
4	400	0.038	-0.529	-0.555	-6.302538	-12.6623718	-0.286479	43.02341622	3.43201842	3.37472262
4.01	401	0.014	-0.561	-0.546	-5.2139178	-13.3499214	-1.432395	42.96612042	3.34607472	3.27159018
4.02	402	0.004	-0.597	-0.543	-4.4117766	-13.5218088	-2.4064236	42.9145542	3.2658606	3.16272816
4.03	403	0	-0.651	-0.544	-3.6096354	-14.5531332	-3.437748	42.87444714	3.18564648	3.0366774
4.04	404	0.003	-0.694	-0.543	-2.6929026	-15.2406828	-3.8388186	42.84006966	3.10543236	2.89916748
4.05	405	0.002	-0.72	-0.531	-1.718874	-16.2720072	-4.0680018	42.84579924	3.0080295	2.75592798
4.06	406	0	-0.728	-0.529	-0.4010706	-17.475219	-3.7815228	42.84006966	2.91062664	2.6069589
4.07	407	-0.001	-0.719	-0.513	1.432395	-19.5951636	-3.9534102	42.84579924	2.79603504	2.44653066
4.08	408	-0.005	-0.711	-0.517	3.3231564	-22.0015872	-4.3544808	42.87444714	2.67571386	2.25745452
4.09	409	-0.003	-0.693	-0.514	4.6409598	-22.8037284	-4.583664	42.9145542	2.54393352	2.06837838
4.1	410	0.001	-0.672	-0.499	6.302538	-22.5172494	-4.4117766	42.98903874	2.41215318	1.87930224
4.11	411	0.007	-0.656	-0.48	7.161975	-21.6005166	-3.8961144	43.0577937	2.28610242	1.70168526
4.12	412	0.003	-0.642	-0.473	7.448454	-20.5691922	-3.0939732	43.13227824	2.16578124	1.53552744
4.13	413	-0.009	-0.629	-0.468	6.9900876	-19.6524594	-2.5210152	43.2010332	2.04546006	1.38082878
4.14	414	-0.023	-0.625	-0.46	7.9641162	-19.3086846	-2.1199446	43.27551774	1.92513888	1.2318597
4.15	415	-0.035	-0.626	-0.475	7.448454	-19.5951636	-2.2345362	43.36146144	1.79908812	1.07716104
4.16	416	-0.035	-0.625	-0.482	8.021412	-20.1108258	-2.7501984	43.44167556	1.67876694	0.9167328
4.17	417	-0.029	-0.628	-0.454	9.453807	-20.6837838	-3.437748	43.53334884	1.55844576	0.7448454
4.18	418	-0.025	-0.636	-0.435	10.0840608	-20.5118964	-4.010706	43.63648128	1.44385416	0.572958
4.19	419	-0.027	-0.645	-0.421	10.6570188	-20.05353	-4.4690724	43.7453433	1.33499214	0.4010706
4.2	420	-0.031	-0.641	-0.407	10.7716104	-20.05353	-4.6982556	43.86566448	1.22613012	0.22345362
4.21	421	-0.038	-0.626	-0.393	11.45916	-19.8816426	-4.870143	43.98598566	1.12299768	0.05156622
4.22	422	-0.045	-0.61	-0.383	12.1467096	-18.9649098	-4.6982556	44.10630684	1.02559482	-0.10886202
4.23	423	-0.047	-0.597	-0.382	11.745639	-17.8189938	-4.5263682	44.22662802	0.93392154	-0.26929026
4.24	424	-0.047	-0.582	-0.377	11.9175264	-16.1001198	-4.5263682	44.3469492	0.859437	-0.41825934
4.25	425	-0.044	-0.571	-0.367	12.318597	-13.6936962	-4.6409598	44.48445912	0.79641162	-0.5443101
4.26	426	-0.036	-0.567	-0.364	12.1467096	-12.9488508	-4.7555514	44.6047803	0.73911582	-0.67036086
4.27	427	-0.038	-0.547	-0.354	13.0634424	-14.3812458	-4.2398892	44.73656064	0.67609044	-0.80787078
4.28	428	-0.033	-0.536	-0.336	15.183387	-14.2666542	-3.6669312	44.8912593	0.60733548	-0.93392154
4.29	429	-0.018	-0.533	-0.323	15.3552744	-14.896908	-3.151269	45.05168754	0.52712136	-1.0599723
4.3	430	-0.006	-0.522	-0.294	15.3552744	-15.8136408	-3.0939732	45.21784536	0.44117766	-1.19748222
4.31	431	-0.005	-0.511	-0.273	14.7823164	-16.042824	-3.2085648	45.36681444	0.36096354	-1.33499214
4.32	432	-0.008	-0.514	-0.271	15.3552744	-14.4958374	-3.4950438	45.52724268	0.29220858	-1.46677248
4.33	433	-0.023	-0.539	-0.295	15.5271618	-10.313244	-4.6982556	45.68767092	0.2578311	-1.56990492
4.34	434	-0.038	-0.57	-0.303	15.183387	-6.5317212	-6.4744254	45.83664	0.2578311	-1.66730778
4.35	435	-0.055	-0.596	-0.261	17.9908812	-3.6669312	-8.4224826	46.04290488	0.29220858	-1.7475219
4.36	436	-0.05	-0.66	-0.28	20.626488	1.8907614	-10.4851314	46.24916976	0.38388186	-1.8048177
4.37	437	-0.045	-0.7	-0.33	22.8037284	6.7036086	-10.9434978	46.48408254	0.50993262	-1.8334656
4.38	438	-0.047	-0.721	-0.309	26.8144344	4.0680018	-10.1413566	46.7533728	0.61306506	-1.86784308
4.39	439	-0.038	-0.721	-0.317	30.5959572	1.6615782	-8.4224826	47.06277012	0.69327918	-1.91367972
4.4	440	0	-0.714	-0.325	35.9244666	0.8021412	-6.1306506	47.44665198	0.75057498	-1.9480572
4.41	441	0.041	-0.699	-0.324	41.6540466	-1.432395	-4.010706	47.8706409	0.7734933	-1.98243468
4.42	442	0.09	-0.674	-0.334	45.7793442	-4.0680018	-2.6929026	48.33473688	0.7734933	-2.0340009
4.43	443	0.147	-0.656	-0.339	50.0765292	-6.2452422	-2.3491278	48.8446695	0.76203414	-2.0912967
4.44	444	0.203	-0.625	-0.32	51.9672906	-8.880849	-3.437748	49.37179086	0.73911582	-2.18296998
4.45	445	0.228	-0.595	-0.285	53.0559108	-10.8289062	-5.5576926	49.92183054	0.73338624	-2.30329116
4.46	446	0.236	-0.566	-0.261	52.7694318	-10.2559482	-8.4224826	50.45468148	0.7448454	-2.42934192
4.47	447	0.222	-0.527	-0.251	52.998615	-8.59437	-11.8602306	50.993262	0.79068204	-2.57258142
4.48	448	0.186	-0.487	-0.242	54.5456016	-6.6463128	-16.1574156	51.54330168	0.88235532	-2.7215505
4.49	449	0.151	-0.445	-0.247	55.5196302	-3.4950438	-20.7983754	52.10480052	1.0313244	-2.87624916
4.5	450	0.124	-0.397	-0.266	56.2071798	-1.3750992	-24.4080108	52.67202894	1.2318597	-3.03094782
4.51	451	0.1	-0.333	-0.271	56.6655462	-1.432395	-24.8663772	53.24498694	1.42666542	-3.19137606
4.52	452	0.061	-0.284	-0.317	53.858052	-2.4064236	-21.1421502	53.78929704	1.59282324	-3.33461556
4.53	453	-0.002	-0.258	-0.407	48.8160216	-6.2452422	-14.3812458	54.27631134	1.67876694	-3.4663959
4.54	454	-0.11	-0.277	-0.427	43.3729206	-12.9488508	-5.9587632	54.717489	1.6615782	-3.60390582
4.55	455	-0.23	-0.308	-0.366	31.1689152	-11.6310474	1.432395	55.02688632	1.56990492	-3.68984952
4.56	456	-0.233	-0.334	-0.271	9.2819196	5.2712136	5.9014674	55.1185596	1.55271618	-3.6096354
4.57	457	-0.147	-0.361	-0.177	-19.0222056	25.0955604	7.5057498	54.92948346	1.62720072	-3.36326346
4.58	458	-0.046	-0.431	-0.148	-50.3057124	31.8564648	8.021412	54.42528042	1.73033316	-3.05386614
4.59	459	0.055	-0.57	-0.304	-79.2400914	26.8144344	9.6829902	53.6288688	1.78762896	-2.78457588
4.6	460	0.128	-0.89	-0.541	-108.86202	16.8449652	13.0061466	52.52878944	1.77044022	-2.57258142
4.61	461	0.152	-1.396	-0.782	-156.0164634	20.340009	12.7769634	50.94742536	1.77044022	-2.34339822
4.62	462	0.167	-1.73	-0.94	-200.8790748	50.3630082	4.9274388	48.91915404	2.01681216	-1.92513888
4.63	463	0.07	-1.644	-1.022	-214.3435878	68.4111852	0.6875496	46.7533728	2.41788276	-1.41520626
4.64	464	-0.153	-1.552	-1.013	-210.3328818	68.0674104	-0.0572958	44.6334282	2.84760126	-0.92819196
4.65	465	-0.324	-1.472	-0.966	-202.1968782	66.0620574	-0.286479	42.5994273	3.27731976	-0.46982556
4.66	466	-0.383	-1.521	-0.921	-191.654451	71.6770458	-3.3804522	40.66855884	3.79298196	-0.01145916
4.67	467	-0.303	-1.494	-0.865	-200.248821	83.0216142	-7.734933	38.66320584	4.42896534	0.46409598
4.68	468	-0.099	-1.341	-0.827	-212.6247138	96.6580146	-7.734933	36.53753166	5.19099948	1.00840608
4.69	469	0.111	-1.205	-0.838	-217.4948568	108.5182452	-5.2139178	34.37748	6.0447069	1.61574156
4.7	470	0.272	-1.068	-0.874	-211.0204314	105.7680468	-1.8907614	32.2861833	6.88695516	2.20015872
4.71	471	0.371	-0.919	-0.882	-189.8782812	82.1621772	-1.8907614	30.40688106	7.55158644	2.6356068
4.72	472	0.454	-0.906	-0.829	-147.6512766	51.3943326	-8.5370742	28.92291984	8.00422326	2.82468294
4.73	473	0.431	-0.896	-0.483	-147.4220934	18.3919518	-23.491278	27.41031072	8.2505952	2.71582092
4.74	474	0.335	-0.758	-0.282	-150.7452498	-0.6875496	-30.939732	25.8404058	8.3651868	2.4350715
4.75	475	0.227	-0.573	-0.127	-140.1455268	-7.2765666	-31.226211	24.38509248	8.41675302	2.12567418
4.76	476	0.214	-0.492	0.073	-131.3792694	-18.2773602	-34.37748	22.99853412	8.37664596	1.73606274
4.77	477	0.101	-0.178	0.325	-153.9538146	-21.8869956	-26.6998428	21.38852214	8.25632478	1.4037471
4.78	478	-0.054	0.13	0.345	-167.590215	-5.7868758	-6.5317212	19.6811073	8.20475856	1.32353298
4.79	479	-0.153	0.302	0.296	-160.8293106	8.1932994	5.443101	18.05963616	8.23913604	1.40947668
4.8	480	-0.217	0.506	0.166	-160.1990568	23.0902074	2.6929026	16.42670586	8.4224826	1.5183387
4.81	481	-0.138	0.806	-0.04	-162.147114	44.117766	-9.740286	14.77658682	8.84074194	1.56417534
4.82	482	-0.03	0.94	-0.26	-147.3075018	70.0727634	-22.7464326	13.26970728	9.54548028	1.53552744
4.83	483	-0.001	1	-0.668	-115.6229244	97.5747474	-28.934379	12.07795464	10.53096804	1.49542038
4.84	484	-0.109	1.15	-1.289	-67.609044	119.0606724	-37.815228	11.35602756	11.745639	1.4037471
4.85	485	-0.244	1.124	-1.772	-12.5477802	136.4785956	-47.555514	11.16695142	13.1493861	1.2318597
4.86	486	-0.532	0.873	-1.707	9.6256944	142.093584	-48.8160216	11.20705848	14.61615858	1.06570188
4.87	487	-0.668	0.62	-1.277	-1.6615782	132.2387064	-46.696077	11.12111478	15.97979862	0.89381448
4.88	488	-0.353	0.461	-0.971	-14.0947668	116.0812908	-32.4294228	10.9434978	17.1600921	0.82505952
4.89	489	-0.139	0.545	-0.895	-28.1895336	102.7886652	-16.1574156	10.66274838	18.17995734	0.8880849
4.9	490	0.192	0.687	-0.857	-45.0344988	89.4387438	-12.1467096	10.18719324	19.06804224	0.95683986
4.91	491	0.727	0.859	-0.913	-32.5440144	74.8283148	-17.0168526	9.83768886	19.81861722	0.93965112
4.92	492	1.296	1.022	-1.532	-14.4958374	41.0237928	-26.929026	9.61996482	20.25979488	0.7448454
4.93	493	1.674	0.645	-2.702	-0.0572958	-14.037471	-30.5386614	9.49964364	20.17385118	0.39534102
4.94	494	2.206	0.063	-3.647	27.1009134	-96.543423	-22.4026578	9.64288314	19.2800367	-0.0286479
4.95	495	3.302	-0.158	-3.683	-16.615782	-177.3877968	-40.2789474	9.2532717	17.62418808	-0.8021412
4.96	496	2.865	0.842	-3.712	-73.1094408	-217.8386316	-53.7434604	8.26778394	15.57872802	-1.7475219
4.97	497	1.974	0.664	-3.987	41.3675676	-251.4712662	-24.637194	8.54280378	13.17230442	-2.44653066
4.98	498	1.295	0.216	-3.221	-18.5065434	-178.3618254	-2.9220858	8.307891	11.43624168	-2.79030546
4.99	499	0.616	0.77	-2.664	-123.8735196	-88.522011	-26.5279554	6.98435802	10.59399342	-3.19137606
5	500	0.687	0.701	-2.544	-73.6823988	-49.5035712	-28.6479	6.17648724	10.13562702	-3.54661002
5.01	501	0.565	0.26	-1.903	-66.1193532	-47.841993	2.9220858	5.50612638	9.6543423	-3.57525792
5.02	502	0.5	0.094	-0.82	-94.4807742	-48.0138804	28.5333084	4.59512316	9.14440968	-3.34034514
5.03	503	0.379	0.237	-0.391	-99.2936214	-69.614397	37.528749	3.64401288	8.41675302	-3.02521824
5.04	504	0.233	0.31	-0.532	-77.062851	-82.792431	37.1849742	2.91635622	7.57450476	-2.71582092
5.05	505	0.108	0.289	-0.55	-61.1919144	-87.4333908	38.8465524	2.33766864	6.68641986	-2.38923486
5.06	506	0.094	0.292	-0.517	-63.0826758	-91.2149136	40.4508348	1.7475219	5.76395748	-2.0340009
5.07	507	0.07	0.312	-0.593	-66.3485364	-91.5586884	40.7946096	1.12299768	4.8414951	-1.67303736
5.08	508	0.018	0.249	-0.652	-56.7801378	-88.5793068	36.0390582	0.58441716	3.9534102	-1.3464513
5.09	509	-0.053	0.116	-0.621	-41.252976	-78.781725	25.8404058	0.18907614	3.16845774	-1.11153852
5.1	510	-0.102	0.061	-0.562	-29.0489706	-65.3745078	17.8189938	-0.0859437	2.50955604	-0.95111028
5.11	511	-0.146	0.096	-0.511	-18.334656	-58.3271244	14.32395	-0.2578311	1.93086846	-0.81932994
5.12	512	-0.208	0.226	-0.468	-9.453807	-55.290447	16.5011904	-0.3437748	1.38082878	-0.66463128
5.13	513	-0.224	0.35	-0.45	-4.870143	-52.2537696	22.7464326	-0.38388186	0.86516658	-0.45263682
5.14	514	-0.212	0.412	-0.47	-2.9220858	-50.7640788	29.6792244	-0.4010706	0.36669312	-0.16615782
5.15	515	-0.15	0.357	-0.564	2.0626488	-49.5035712	30.7105488	-0.39534102	-0.12605076	0.12605076
5.16	516	-0.106	0.265	-0.694	6.589017	-44.7480198	24.8663772	-0.32658606	-0.56722842	0.36096354
5.17	517	-0.071	0.145	-0.877	6.1879464	-36.8411994	13.750992	-0.2578311	-0.93392154	0.4870143
5.18	518	-0.047	0.055	-1.034	4.5263682	-34.950438	4.5263682	-0.20626488	-1.27769634	0.52712136
5.19	519	-0.054	-0.003	-1.172	5.2712136	-39.0184398	-0.6302538	-0.14896908	-1.6615782	0.50993262
5.2	520	-0.09	-0.04	-1.263	6.9900876	-44.6334282	-1.3178034	-0.06875496	-2.10848544	0.48128472
5.21	521	-0.142	-0.049	-1.299	4.8128472	-48.0711762	1.5469866	-0.01145916	-2.578311	0.4870143
5.22	522	-0.21	-0.03	-1.296	-1.3750992	-48.3003594	6.1879464	-0.02291832	-3.05959572	0.53285094
5.23	523	-0.283	0.016	-1.222	-7.5630456	-47.8992888	10.313244	-0.09740286	-3.53515086	0.62452422
5.24	524	-0.309	0.058	-1.183	-10.3705398	-43.4875122	12.032118	-0.20626488	-3.96486936	0.73338624
5.25	525	-0.325	0.097	-1.172	-9.3392154	-36.6120162	11.172681	-0.30939732	-4.34302164	0.84224826
5.26	526	-0.323	0.107	-1.17	-8.4797784	-31.3980984	8.9954406	-0.4010706	-4.65241896	0.92246238
5.27	527	-0.29	0.099	-1.157	-9.0527364	-30.2521824	6.589017	-0.49274388	-4.9560867	0.98548776
5.28	528	-0.273	0.072	-1.086	-9.2246238	-33.1169724	4.4117766	-0.58441716	-5.28267276	1.02559482
5.29	529	-0.256	0.038	-1.009	-11.0580894	-34.7785506	2.3491278	-0.69327918	-5.62644756	1.04278356
5.3	530	-0.268	0.011	-0.955	-12.2040054	-33.6326346	0.0572958	-0.81360036	-5.9874111	1.04278356
5.31	531	-0.286	0	-0.904	-10.6570188	-29.2781538	-1.9480572	-0.9167328	-6.27961968	1.01986524
5.32	532	-0.314	-0.002	-0.867	-7.448454	-23.6058696	-3.6669312	-0.98548776	-6.51453246	0.97975818
5.33	533	-0.346	0.003	-0.853	-5.156622	-17.3033316	-4.8128472	-1.0313244	-6.68641986	0.92819196
5.34	534	-0.355	0.011	-0.848	-3.8388186	-11.9175264	-5.7868758	-1.0599723	-6.80674104	0.87089616
5.35	535	-0.335	0.018	-0.857	-3.6096354	-5.9587632	-6.589017	-1.10007936	-6.9614397	0.80787078
5.36	536	-0.291	0.028	-0.905	-3.437748	-1.432395	-7.9068204	-1.12299768	-6.97862844	0.72765666
5.37	537	-0.246	0.035	-0.924	-3.3231564	1.145916	-9.2246238	-1.145916	-6.96716928	0.63598338
5.38	538	-0.2	0.044	-0.956	-3.6096354	3.7815228	-10.0840608	-1.1745639	-6.9327918	0.53858052
5.39	539	-0.158	0.044	-0.993	-2.291832	4.1825934	-10.313244	-1.18602306	-6.89268474	0.43544808
5.4	540	-0.132	0.05	-1.022	-0.4583664	4.1825934	-9.6829902	-1.2032118	-6.85257768	0.3437748
5.41	541	-0.124	0.053	-1.036	2.3491278	2.8074942	-7.8495246	-1.16883432	-6.82965936	0.26356068
5.42	542	-0.136	0.045	-1.03	4.010706	1.432395	-6.0733548	-1.12299768	-6.81247062	0.2005353
5.43	543	-0.144	0.045	-1.029	5.156622	1.6042824	-4.9274388	-1.06570188	-6.79528188	0.14896908
5.44	544	-0.137	0.048	-1.038	6.2452422	4.1825934	-3.9534102	-0.99694692	-6.75517482	0.10886202
5.45	545	-0.117	0.053	-1.037	7.2192708	6.302538	-3.3231564	-0.93965112	-6.69214944	0.08021412
5.46	546	-0.1	0.065	-1.033	6.5317212	7.3338624	-3.0366774	-0.87089616	-6.6176649	0.05156622
5.47	547	-0.072	0.087	-1.022	8.307891	7.448454	-2.4064236	-0.78495246	-6.54318036	0.0286479
5.48	548	-0.063	0.093	-1.029	10.7143146	6.4171296	-2.0626488	-0.67609044	-6.48015498	0.00572958
5.49	549	-0.07	0.093	-1.013	12.7196676	3.9534102	-2.3491278	-0.5443101	-6.44004792	-0.01145916
5.5	550	-0.069	0.095	-0.993	12.032118	4.5263682	-2.9793816	-0.45263682	-6.37702254	-0.04010706
5.51	551	-0.049	0.097	-0.981	12.4331886	6.875496	-3.6096354	-0.32658606	-6.30826758	-0.07448454
5.52	552	-0.025	0.089	-0.969	13.3499214	8.8235532	-3.2085648	-0.18907614	-6.22232388	-0.10313244
5.53	553	0	0.079	-0.96	13.9228794	10.313244	-1.8907614	-0.04583664	-6.11919144	-0.12032118
5.54	554	0.02	0.065	-0.948	12.891555	11.2299768	0.1145916	0.08021412	-6.00459984	-0.12032118
5.55	555	0.03	0.048	-0.96	10.599723	10.4851314	2.4064236	0.16615782	-5.86136034	-0.09167328
5.56	556	0.022	0.032	-0.974	9.6256944	7.448454	4.4117766	0.2578311	-5.7868758	-0.04583664
5.57	557	-0.018	0.018	-0.922	10.6570188	2.1772404	5.156622	0.36096354	-5.76395748	0
5.58	558	-0.066	-0.008	-0.887	10.4851314	0.3437748	4.870143	0.46409598	-5.76395748	0.04583664
5.59	559	-0.102	-0.033	-0.925	9.6256944	-0.2291832	4.2398892	0.55576926	-5.76395748	0.09167328
5.6	560	-0.124	-0.047	-0.99	9.9121734	-0.7448454	2.86479	0.66463128	-5.79260538	0.1145916
5.61	561	-0.136	-0.054	-1.023	9.3392154	0.859437	1.0313244	0.75630456	-5.78114622	0.12605076
5.62	562	-0.119	-0.055	-1.031	7.9068204	4.1252976	-0.0572958	0.83651868	-5.73530958	0.12605076
5.63	563	-0.083	-0.047	-1.028	6.9900876	6.589017	-0.0572958	0.91100322	-5.6722842	0.12605076
5.64	564	-0.05	-0.052	-1.023	5.156622	7.161975	0.6875496	0.95683986	-5.59779966	0.13750992
5.65	565	-0.034	-0.056	-0.999	3.0939732	6.8182002	1.2605076	1.0026765	-5.49466722	0.14896908
5.66	566	-0.027	-0.069	-0.982	0	5.5576926	1.3750992	1.0026765	-5.43737142	0.16615782
5.67	567	-0.027	-0.067	-0.97	-4.0680018	2.4637194	1.3178034	0.95683986	-5.4144531	0.18334656
5.68	568	-0.038	-0.055	-0.957	-7.448454	-1.145916	1.7761698	0.88235532	-5.42591226	0.2005353
5.69	569	-0.048	-0.04	-0.948	-9.3965112	-4.6409598	2.578311	0.78495246	-5.4717489	0.22345362
5.7	570	-0.069	-0.024	-0.952	-9.8548776	-7.448454	3.724227	0.67609044	-5.54623344	0.26356068
5.71	571	-0.091	-0.015	-0.949	-9.453807	-9.2819196	4.7555514	0.57868758	-5.6436363	0.30366774
5.72	572	-0.107	-0.011	-0.948	-9.6256944	-8.880849	5.5003968	0.47555514	-5.72958	0.36096354
5.73	573	-0.122	-0.011	-0.956	-10.026765	-7.6203414	5.8441716	0.3724227	-5.80979412	0.41825934
5.74	574	-0.133	-0.007	-0.973	-10.0840608	-6.4171296	5.7868758	0.26356068	-5.8728195	0.46982556
5.75	575	-0.143	-0.002	-0.982	-9.2246238	-5.3858052	5.3858052	0.15469866	-5.94730404	0.52712136
5.76	576	-0.149	0	-0.979	-7.8495246	-4.6982556	4.870143	0.06875496	-5.99314068	0.57868758
5.77	577	-0.151	0.002	-0.976	-7.5057498	-3.724227	4.4117766	-0.00572958	-6.03324774	0.61879464
5.78	578	-0.148	0.011	-0.977	-7.2765666	-2.578311	4.1825934	-0.08021412	-6.06189564	0.66463128
5.79	579	-0.144	0.028	-0.981	-6.9900876	-0.9167328	3.8961144	-0.15469866	-6.06762522	0.69900876
5.8	580	-0.136	0.043	-0.981	-6.5317212	1.3750992	3.3804522	-0.26356068	-6.0733548	0.7448454
5.81	581	-0.126	0.058	-0.975	-5.5003968	3.5523396	2.9793816	-0.32658606	-6.03897732	0.7734933
5.82	582	-0.112	0.062	-0.968	-4.4117766	5.5003968	2.578311	-0.3724227	-5.9874111	0.8021412
5.83	583	-0.098	0.065	-0.972	-3.4950438	7.3338624	2.291832	-0.41252976	-5.91292656	0.82505952
5.84	584	-0.081	0.067	-0.989	-2.291832	8.8235532	2.005353	-0.44117766	-5.82698286	0.84797784
5.85	585	-0.071	0.067	-1	-1.3178034	8.4224826	1.6042824	-0.50420304	-5.72958	0.87089616
5.86	586	-0.065	0.064	-0.993	-0.7448454	7.161975	1.2605076	-0.5156622	-5.65509546	0.8880849
5.87	587	-0.061	0.061	-0.992	-0.8021412	5.3858052	0.9740286	-0.52712136	-5.60352924	0.89954406
5.88	588	-0.058	0.062	-0.998	-0.5156622	3.5523396	1.0313244	-0.53285094	-5.56915176	0.91100322
5.89	589	-0.057	0.072	-1	0.1145916	2.1199446	1.0886202	-0.53285094	-5.54623344	0.92246238
5.9	590	-0.061	0.079	-0.997	0.6302538	0.9740286	1.145916	-0.7734933	-5.4717489	0.96256944
5.91	591	-0.064	0.082	-0.993	0.8021412	0.1145916	1.0886202	-0.76776372	-5.46601932	0.9740286
5.92	592	-0.071	0.083	-0.987	1.2032118	-1.0313244	0.8021412	-0.75630456	-5.47747848	0.97975818
5.93	593	-0.075	0.079	-0.986	1.3178034	-1.8334656	0.4010706	-0.7448454	-5.49466722	0.98548776
5.94	594	-0.078	0.078	-0.984	1.3178034	-2.2345362	0.2291832	-0.72765666	-5.51758554	0.98548776
5.95	595	-0.084	0.075	-0.979	1.432395	-2.1199446	0.1718874	-0.86516658	-5.54050386	1.00840608
5.96	596	-0.09	0.077	-0.988	1.9480572	-1.718874	0.0572958	-0.84224826	-5.5576926	1.00840608
5.97	597	-0.096	0.08	-0.994	3.3231564	-1.4896908	-0.1145916	-0.81360036	-5.57488134	1.00840608
5.98	598	-0.097	0.076	-0.992	4.0680018	-0.7448454	-0.4010706	-0.76776372	-5.58061092	1.0026765
5.99	599	-0.093	0.065	-0.993	3.6669312	0.1145916	-0.6302538	-0.73338624	-5.58061092	0.99694692
6	600	-0.084	0.051	-0.99	3.6096354	0.6302538	-0.7448454	-0.75630456	-5.5576926	0.99694692
6.01	601	-0.078	0.027	-0.977	3.2658606	0.572958	-0.859437	-0.72192708	-5.55196302	0.98548776
6.02	602	-0.074	0.009	-0.97	2.2345362	0.1145916	-0.9740286	-0.69900876	-5.55196302	0.9740286
6.03	603	-0.072	0.006	-0.981	1.432395	0	-1.0886202	-0.68182002	-5.55196302	0.96256944
6.04	604	-0.076	0.012	-0.988	1.2605076	-0.0572958	-1.0886202	-0.67036086	-5.55196302	0.95111028
6.05	605	-0.081	0.021	-0.993	0.859437	-0.0572958	-1.145916	-0.75630456	-5.53477428	0.95111028
6.06	606	-0.085	0.03	-0.995	0.859437	-0.572958	-0.9740286	-0.7448454	-5.54050386	0.9453807
6.07	607	-0.088	0.035	-0.983	0.9740286	-1.0886202	-0.8021412	-0.73338624	-5.55196302	0.93392154
6.08	608	-0.089	0.031	-0.977	0.7448454	-1.6615782	-0.6302538	-0.72192708	-5.56915176	0.92819196
6.09	609	-0.088	0.026	-0.982	0.1718874	-2.291832	-0.4010706	-0.72192708	-5.59207008	0.92246238
6.1	610	-0.09	0.022	-0.985	0.1718874	-2.86479	-0.2291832	-0.7734933	-5.62644756	0.92819196
6.11	611	-0.096	0.014	-0.984	0.2291832	-3.2658606	-0.0572958	-0.76776372	-5.65509546	0.92819196
6.12	612	-0.104	0.01	-0.98	0.1145916	-3.0939732	0	-0.76776372	-5.68947294	0.92246238
6.13	613	-0.109	0.005	-0.979	-0.2291832	-2.1772404	0.1145916	-0.7734933	-5.70666168	0.92819196
6.14	614	-0.11	0.006	-0.985	-0.5156622	-1.0313244	0.3437748	-0.77922288	-5.71812084	0.92819196
6.15	615	-0.111	0.009	-0.985	-0.7448454	0	0.6302538	-0.84224826	-5.78114622	0.9453807
6.16	616	-0.11	0.016	-0.99	-1.145916	0.8021412	0.9167328	-0.85370742	-5.76968706	0.95683986
6.17	617	-0.108	0.022	-0.99	-0.9167328	1.2032118	0.9740286	-0.86516658	-5.7582279	0.96256944
6.18	618	-0.105	0.022	-0.982	-0.8021412	1.6042824	0.9740286	-0.87089616	-5.74103916	0.9740286
6.19	619	-0.101	0.025	-0.98	-1.0886202	1.2605076	0.9740286	-0.8880849	-5.72958	0.98548776
6.2	620	-0.096	0.028	-0.974	-1.2032118	0.7448454	1.0886202	-0.96829902	-5.72958	1.0026765
6.21	621	-0.094	0.034	-0.974	-1.6615782	0.8021412	1.0886202	-0.98548776	-5.72385042	1.01413566
6.22	622	-0.09	0.041	-0.98	-1.7761698	1.5469866	1.3750992	-1.0026765	-5.70666168	1.0313244
6.23	623	-0.091	0.047	-0.988	-1.2605076	2.4637194	1.718874	-1.01986524	-5.68374336	1.04851314
6.24	624	-0.092	0.047	-0.987	-0.8021412	2.4637194	1.8907614	-1.0313244	-5.65509546	1.06570188
6.25	625	-0.093	0.044	-0.983	-1.145916	2.0626488	2.005353	-1.10007936	-5.63790672	1.09434978
6.26	626	-0.091	0.046	-0.986	-1.432395	1.9480572	2.1772404	-1.1172681	-5.62071798	1.1172681
6.27	627	-0.091	0.047	-0.985	-0.7448454	1.6615782	2.2345362	-1.12299768	-5.60352924	1.14018642
6.28	628	-0.09	0.048	-0.984	-0.4583664	1.718874	2.1199446	-1.13445684	-5.5863405	1.16310474
6.29	629	-0.087	0.052	-0.99	-0.572958	1.5469866	2.005353	-1.14018642	-5.56915176	1.18029348
6.3	630	-0.086	0.057	-0.999	-0.2291832	1.6615782	1.8334656	-1.24331886	-5.54623344	1.21467096
6.31	631	-0.087	0.061	-1.002	0	1.5469866	1.718874	-1.24904844	-5.5290447	1.2318597
6.32	632	-0.089	0.061	-1.001	0.0572958	1.4896908	1.6042824	-1.24904844	-5.51758554	1.24904844
6.33	633	-0.089	0.058	-0.996	0.1718874	1.5469866	1.6615782	-1.24904844	-5.5003968	1.26623718
6.34	634	-0.088	0.053	-0.99	0.1145916	1.7761698	1.718874	-1.24904844	-5.48320806	1.28342592
6.35	635	-0.086	0.048	-0.981	-0.1718874	2.1199446	1.8334656	-1.3178034	-5.46028974	1.30634424
6.36	636	-0.08	0.048	-0.981	-0.4010706	2.8074942	1.7761698	-1.32353298	-5.43164184	1.32353298
6.37	637	-0.074	0.052	-0.985	-0.859437	3.6096354	1.5469866	-1.33499214	-5.39153478	1.34072172
6.38	638	-0.07	0.056	-0.988	-0.9740286	3.9534102	1.2605076	-1.3464513	-5.35142772	1.35791046
6.39	639	-0.068	0.057	-0.984	-1.145916	4.010706	0.9167328	-1.36364004	-5.31132066	1.36364004
6.4	640	-0.069	0.054	-0.975	-1.2605076	3.724227	0.3437748	-1.432395	-5.25975444	1.3750992
6.41	641	-0.066	0.048	-0.973	-1.5469866	3.6096354	0.0572958	-1.44958374	-5.22537696	1.3750992
6.42	642	-0.065	0.047	-0.982	-1.5469866	3.724227	0.1718874	-1.46677248	-5.19099948	1.38082878
6.43	643	-0.067	0.048	-0.988	-0.9167328	3.4950438	0.2291832	-1.47823164	-5.156622	1.38082878
6.44	644	-0.072	0.047	-0.991	-0.8021412	2.5210152	0.286479	-1.48396122	-5.1279741	1.38655836
6.45	645	-0.079	0.047	-0.99	-1.145916	1.6615782	0.2291832	-1.58136408	-5.11078536	1.39801752
6.46	646	-0.084	0.047	-0.994	-0.9740286	0.859437	0.1145916	-1.59282324	-5.10505578	1.39801752
6.47	647	-0.085	0.046	-0.995	-0.4010706	0.5156622	0	-1.59855282	-5.0993262	1.39801752
6.48	648	-0.082	0.042	-0.991	0	0.286479	-0.0572958	-1.59855282	-5.09359662	1.39801752
6.49	649	-0.081	0.038	-0.983	-0.0572958	0	-0.2291832	-1.59855282	-5.09359662	1.39801752
6.5	650	-0.078	0.036	-0.977	-0.6302538	0.2291832	-0.3437748	-1.718874	-5.07640788	1.4037471
6.51	651	-0.075	0.035	-0.979	-0.8021412	0.1718874	-0.2291832	-1.72460358	-5.07640788	1.4037471
6.52	652	-0.078	0.033	-0.977	-0.9740286	-0.0572958	-0.4010706	-1.73606274	-5.07640788	1.39801752
6.53	653	-0.079	0.035	-0.984	-1.2605076	-0.1145916	-0.4583664	-1.7475219	-5.07640788	1.39228794
6.54	654	-0.079	0.039	-0.99	-0.9740286	-0.6302538	-0.4010706	-1.75898106	-5.08786704	1.39228794
6.55	655	-0.081	0.04	-0.991	-0.5156622	-1.3178034	-0.286479	-1.83919518	-5.10505578	1.39801752
6.56	656	-0.082	0.039	-0.992	-0.6302538	-1.6042824	-0.0572958	-1.84492476	-5.12224452	1.39801752
6.57	657	-0.081	0.039	-0.992	-0.4583664	-1.8334656	0.1145916	-1.85065434	-5.13943326	1.39801752
6.58	658	-0.082	0.038	-0.987	-0.5156622	-2.2345362	0.2291832	-1.85638392	-5.16235158	1.39801752
6.59	659	-0.084	0.041	-0.985	-0.572958	-2.3491278	0.286479	-1.8621135	-5.1852699	1.4037471
6.6	660	-0.089	0.047	-0.982	-0.3437748	-2.005353	0.2291832	-1.97097552	-5.22537696	1.41520626
6.61	661	-0.092	0.051	-0.98	-0.3437748	-1.2605076	0.2291832	-1.9767051	-5.2425657	1.42093584
6.62	662	-0.092	0.057	-0.981	-0.4583664	-0.6875496	0.1718874	-1.9767051	-5.24829528	1.42093584
6.63	663	-0.091	0.057	-0.982	-0.572958	-0.1718874	0.286479	-1.98243468	-5.24829528	1.42666542
6.64	664	-0.089	0.05	-0.978	-1.4896908	0.3437748	0.4010706	-1.99962342	-5.24829528	1.432395
6.65	665	-0.087	0.046	-0.972	-3.0939732	0.7448454	0.286479	-2.07410796	-5.2425657	1.43812458
6.66	666	-0.087	0.045	-0.972	-4.1825934	1.0313244	0.1145916	-2.11421502	-5.23683612	1.43812458
6.67	667	-0.089	0.044	-0.971	-4.5263682	1.2605076	0	-2.16005166	-5.22537696	1.43812458
6.68	668	-0.09	0.047	-0.979	-4.5263682	1.0886202	-0.3437748	-2.2058883	-5.2139178	1.43812458
6.69	669	-0.092	0.05	-0.984	-4.5263682	0.8021412	-0.5156622	-2.25172494	-5.20245864	1.432395
6.7	670	-0.09	0.056	-0.991	-4.583664	0.6875496	-0.6875496	-2.33766864	-5.20245864	1.432395
6.71	671	-0.084	0.065	-1	-4.5263682	1.3178034	-0.6875496	-2.38350528	-5.19099948	1.42093584
6.72	672	-0.081	0.07	-0.998	-3.6669312	1.0313244	-0.5156622	-2.42361234	-5.17954032	1.41520626
6.73	673	-0.082	0.072	-0.985	-3.2085648	0.286479	-0.4583664	-2.45798982	-5.17954032	1.41520626
6.74	674	-0.08	0.072	-0.98	-3.2658606	-0.1718874	-0.5156622	-2.48663772	-5.17954032	1.40947668
6.75	675	-0.077	0.074	-0.983	-3.3231564	-0.6875496	-0.5156622	-2.58977016	-5.17954032	1.40947668
6.76	676	-0.073	0.073	-0.984	-2.86479	-1.145916	-0.286479	-2.61841806	-5.19099948	1.40947668
6.77	677	-0.074	0.074	-0.987	-2.6929026	-1.3178034	-0.0572958	-2.64706596	-5.20818822	1.40947668
6.78	678	-0.071	0.074	-0.992	-2.291832	-1.3750992	0.1718874	-2.66998428	-5.21964738	1.40947668
6.79	679	-0.07	0.07	-0.997	-1.8334656	-1.2032118	0.4583664	-2.68717302	-5.23110654	1.41520626
6.8	680	-0.071	0.065	-0.992	-1.7761698	-1.5469866	0.572958	-2.76165756	-5.23110654	1.42666542
6.81	681	-0.072	0.058	-0.99	-2.0626488	-1.6042824	0.5156622	-2.7788463	-5.2425657	1.432395
6.82	682	-0.071	0.056	-0.997	-2.0626488	-1.432395	0.572958	-2.80176462	-5.25975444	1.43812458
6.83	683	-0.075	0.052	-0.996	-1.7761698	-1.5469866	0.4583664	-2.81895336	-5.27694318	1.44385416
6.84	684	-0.078	0.052	-0.991	-1.9480572	-1.8334656	0.2291832	-2.84187168	-5.29413192	1.44958374
6.85	685	-0.082	0.053	-0.988	-2.005353	-2.2345362	0.0572958	-2.8934379	-5.31705024	1.45531332
6.86	686	-0.084	0.054	-0.987	-1.8907614	-2.5210152	0	-2.91635622	-5.33996856	1.45531332
6.87	687	-0.086	0.057	-0.989	-1.6042824	-2.4064236	-0.0572958	-2.93354496	-5.36861646	1.45531332
6.88	688	-0.089	0.06	-0.986	-1.4896908	-2.1772404	0	-2.94500412	-5.3858052	1.45531332
6.89	689	-0.094	0.063	-0.985	-1.4896908	-1.9480572	0.0572958	-2.96219286	-5.40872352	1.45531332
6.9	690	-0.094	0.064	-0.986	-1.2032118	-1.9480572	0.1718874	-3.0366774	-5.443101	1.46677248
6.91	691	-0.094	0.064	-0.984	-0.8021412	-1.718874	0.1718874	-3.04240698	-5.46028974	1.47250206
6.92	692	-0.092	0.063	-0.984	-0.8021412	-1.432395	0.2291832	-3.05386614	-5.47747848	1.47250206
6.93	693	-0.091	0.063	-0.984	-0.8021412	-1.2605076	0.286479	-3.05959572	-5.48893764	1.47823164
6.94	694	-0.093	0.064	-0.984	-0.7448454	-1.2032118	0.4010706	-3.07105488	-5.5003968	1.47823164
6.95	695	-0.095	0.066	-0.985	-0.5156622	-1.0313244	0.4583664	-3.1799169	-5.53477428	1.50114996
6.96	696	-0.096	0.068	-0.985	-0.1718874	-1.0313244	0.4010706	-3.18564648	-5.54623344	1.50114996
6.97	697	-0.098	0.071	-0.982	0	-1.0313244	0.2291832	-3.18564648	-5.5576926	1.50687954
6.98	698	-0.097	0.072	-0.981	-0.1145916	-1.0313244	0.0572958	-3.18564648	-5.56342218	1.50687954
6.99	699	-0.096	0.076	-0.982	0	-1.145916	0	-3.18564648	-5.57488134	1.50687954
7	700	-0.094	0.079	-0.979	0.1145916	-0.6875496	0	-3.44347758	-5.60925882	1.54125702
7.01	701	-0.093	0.078	-0.979	0.286479	-0.286479	0	-3.437748	-5.6149884	1.54125702
7.02	702	-0.09	0.078	-0.982	0.3437748	0	0.0572958	-3.437748	-5.6149884	1.54125702
7.03	703	-0.089	0.074	-0.982	0.286479	0.3437748	0	-3.43201842	-5.60925882	1.54125702
7.04	704	-0.087	0.071	-0.981	0.286479	0.5156622	0.1145916	-3.43201842	-5.60352924	1.54125702
7.05	705	-0.087	0.067	-0.983	0.4010706	0.8021412	0.1718874	-3.51223254	-5.5863405	1.55271618
7.06	706	-0.086	0.064	-0.984	0.6302538	1.0313244	0.286479	-3.50650296	-5.57488134	1.55844576
7.07	707	-0.083	0.059	-0.984	0.6302538	1.3178034	0.2291832	-3.50077338	-5.56342218	1.55844576
7.08	708	-0.084	0.056	-0.983	0.1718874	1.3750992	0.286479	-3.50077338	-5.54623344	1.56417534
7.09	709	-0.085	0.057	-0.983	-0.0572958	1.3178034	0.286479	-3.50077338	-5.53477428	1.56417534
7.1	710	-0.084	0.059	-0.986	-0.1718874	1.0886202	0.2291832	-3.56379876	-5.51185596	1.5756345
7.11	711	-0.084	0.061	-0.986	-0.2291832	0.9740286	0.1718874	-3.56952834	-5.50612638	1.5756345
7.12	712	-0.086	0.062	-0.985	-0.572958	0.8021412	0	-3.57525792	-5.49466722	1.5756345
7.13	713	-0.087	0.067	-0.984	-0.572958	0.7448454	0	-3.5809875	-5.48893764	1.5756345
7.14	714	-0.087	0.069	-0.986	-0.3437748	0.8021412	0	-3.58671708	-5.47747848	1.5756345
7.15	715	-0.09	0.072	-0.988	-0.2291832	0.859437	0.0572958	-3.70703826	-5.48320806	1.58709366
7.16	716	-0.093	0.074	-0.99	-0.1718874	0.572958	0.1718874	-3.71276784	-5.47747848	1.59282324
7.17	717	-0.096	0.076	-0.988	-0.0572958	0	0.2291832	-3.71276784	-5.47747848	1.59282324
7.18	718	-0.098	0.076	-0.988	0	-0.2291832	0.286479	-3.71276784	-5.47747848	1.59855282
7.19	719	-0.097	0.076	-0.986	0	-0.3437748	0.286479	-3.71276784	-5.48320806	1.59855282
7.2	720	-0.091	0.072	-0.988	0	0.1145916	0.2291832	-4.00497642	-5.49466722	1.63865988
7.21	721	-0.085	0.07	-0.986	0	0.4583664	0.2291832	-4.00497642	-5.48893764	1.63865988
7.22	722	-0.084	0.066	-0.985	0	0.4010706	0.1718874	-4.00497642	-5.48320806	1.64438946
7.23	723	-0.083	0.065	-0.982	-0.1145916	0.4583664	0.0572958	-4.00497642	-5.48320806	1.64438946
7.24	724	-0.084	0.068	-0.983	0.0572958	0.4583664	0	-4.00497642	-5.47747848	1.64438946
7.25	725	-0.084	0.07	-0.988	0.286479	0.6302538	0	-4.09092012	-5.45456016	1.65011904
7.26	726	-0.082	0.072	-0.991	0.4583664	0.6302538	-0.1145916	-4.08519054	-5.44883058	1.65011904
7.27	727	-0.084	0.073	-0.991	0.572958	0.286479	-0.0572958	-4.07946096	-5.44883058	1.65011904
7.28	728	-0.084	0.072	-0.989	0.6302538	-0.1718874	-0.0572958	-4.07373138	-5.44883058	1.65011904
7.29	729	-0.082	0.07	-0.987	0.7448454	-0.3437748	0	-4.0680018	-5.45456016	1.65011904
7.3	730	-0.08	0.07	-0.989	0.9740286	-0.4010706	0.0572958	-4.11383844	-5.43737142	1.65584862
7.31	731	-0.08	0.068	-0.992	1.145916	-0.2291832	0.0572958	-4.10237928	-5.43737142	1.65584862
7.32	732	-0.08	0.069	-0.99	1.145916	-0.0572958	0	-4.09092012	-5.43737142	1.65584862
7.33	733	-0.082	0.07	-0.988	1.0886202	0	-0.0572958	-4.07946096	-5.43737142	1.65584862
7.34	734	-0.083	0.069	-0.983	0.859437	-0.3437748	-0.2291832	-4.0680018	-5.443101	1.65584862
7.35	735	-0.083	0.069	-0.983	0.6302538	-0.6302538	-0.2291832	-4.10810886	-5.43737142	1.65584862
7.36	736	-0.082	0.068	-0.982	0.859437	-0.6875496	-0.2291832	-4.0966497	-5.443101	1.65584862
7.37	737	-0.082	0.067	-0.982	0.9740286	-0.5156622	-0.1145916	-4.08519054	-5.44883058	1.65584862
7.38	738	-0.083	0.067	-0.982	0.6875496	-0.6302538	-0.1145916	-4.07946096	-5.45456016	1.65584862
7.39	739	-0.088	0.068	-0.985	0.572958	-0.859437	0	-4.07373138	-5.46601932	1.65584862
7.4	740	-0.091	0.072	-0.986	0.9167328	-1.0313244	0	-4.11383844	-5.48893764	1.6615782
7.41	741	-0.094	0.074	-0.99	1.432395	-0.7448454	-0.0572958	-4.0966497	-5.49466722	1.65584862
7.42	742	-0.096	0.074	-0.988	1.718874	-0.286479	-0.1718874	-4.07946096	-5.5003968	1.65584862
7.43	743	-0.097	0.072	-0.984	1.7761698	0.0572958	-0.2291832	-4.06227222	-5.49466722	1.65584862
7.44	744	-0.096	0.07	-0.986	1.432395	0.4010706	-0.3437748	-4.04508348	-5.49466722	1.65011904
7.45	745	-0.094	0.069	-0.988	1.3750992	0.8021412	-0.4010706	-4.06227222	-5.49466722	1.65011904
7.46	746	-0.092	0.069	-0.988	1.5469866	1.3750992	-0.4010706	-4.04508348	-5.47747848	1.64438946
7.47	747	-0.089	0.069	-0.985	1.7761698	1.4896908	-0.3437748	-4.02789474	-5.46601932	1.63865988
7.48	748	-0.09	0.069	-0.984	1.5469866	1.2605076	-0.2291832	-4.010706	-5.45456016	1.6329303
7.49	749	-0.089	0.07	-0.983	1.3178034	0.8021412	-0.1145916	-3.99924684	-5.443101	1.6329303
7.5	750	-0.087	0.071	-0.981	1.3178034	0.4010706	-0.1145916	-4.0393539	-5.43737142	1.63865988
7.51	751	-0.083	0.069	-0.979	1.432395	0.5156622	0	-4.02789474	-5.43164184	1.63865988
7.52	752	-0.081	0.064	-0.98	1.432395	0.6302538	0.1718874	-4.010706	-5.42591226	1.63865988
7.53	753	-0.082	0.063	-0.98	1.2032118	0.6302538	0.3437748	-3.99924684	-5.42018268	1.64438946
7.54	754	-0.086	0.063	-0.984	1.2032118	0.8021412	0.4583664	-3.98778768	-5.4144531	1.64438946
7.55	755	-0.087	0.06	-0.984	1.3178034	0.9167328	0.5156622	-3.99351726	-5.40299394	1.65584862
7.56	756	-0.087	0.057	-0.983	1.2605076	1.0886202	0.3437748	-3.97632852	-5.39153478	1.65584862
7.57	757	-0.086	0.056	-0.988	1.0886202	1.3178034	0.286479	-3.97059894	-5.38007562	1.6615782
7.58	758	-0.088	0.057	-0.989	1.2032118	1.2032118	0.286479	-3.9534102	-5.36861646	1.6615782
7.59	759	-0.088	0.059	-0.989	1.0886202	1.0313244	0.286479	-3.94195104	-5.3571573	1.6615782
7.6	760	-0.087	0.061	-0.988	1.0313244	1.0886202	0.286479	-3.95913978	-5.34569814	1.66730778
7.61	761	-0.086	0.065	-0.986	0.9740286	0.9740286	0.1145916	-3.94768062	-5.33996856	1.67303736
7.62	762	-0.085	0.066	-0.983	1.145916	0.8021412	0	-3.93622146	-5.3285094	1.66730778
7.63	763	-0.085	0.068	-0.982	1.0886202	0.6302538	-0.1718874	-3.9247623	-5.32277982	1.66730778
7.64	764	-0.085	0.071	-0.983	1.0313244	0.4010706	-0.286479	-3.91330314	-5.31705024	1.66730778
7.65	765	-0.086	0.072	-0.981	1.0313244	0.286479	-0.4010706	-3.96486936	-5.32277982	1.66730778
7.66	766	-0.086	0.07	-0.979	1.0313244	0.2291832	-0.5156622	-3.9534102	-5.31705024	1.6615782
7.67	767	-0.084	0.07	-0.98	0.859437	0.286479	-0.5156622	-3.94195104	-5.31705024	1.65584862
7.68	768	-0.084	0.069	-0.982	0.9167328	0.4010706	-0.4583664	-3.93622146	-5.31132066	1.65011904
7.69	769	-0.081	0.069	-0.986	1.2032118	0.4583664	-0.286479	-3.91903272	-5.30559108	1.65011904
7.7	770	-0.08	0.068	-0.99	1.3178034	0.572958	-0.2291832	-3.94768062	-5.29413192	1.65011904
7.71	771	-0.078	0.064	-0.99	1.432395	0.6302538	-0.1718874	-3.93049188	-5.28267276	1.64438946
7.72	772	-0.079	0.063	-0.987	1.3750992	0.5156622	-0.1145916	-3.91330314	-5.27694318	1.64438946
7.73	773	-0.08	0.06	-0.984	0.9167328	0.3437748	-0.1145916	-3.90757356	-5.27694318	1.64438946
7.74	774	-0.081	0.06	-0.982	0.572958	0	-0.0572958	-3.90184398	-5.27694318	1.63865988
7.75	775	-0.08	0.06	-0.98	0.4010706	0.0572958	-0.0572958	-3.97632852	-5.26548402	1.65011904
7.76	776	-0.082	0.062	-0.981	0.572958	0	-0.0572958	-3.97059894	-5.26548402	1.65011904
7.77	777	-0.082	0.062	-0.984	0.6302538	0	-0.1145916	-3.96486936	-5.26548402	1.65011904
7.78	778	-0.083	0.063	-0.985	0.6302538	0	-0.1718874	-3.95913978	-5.26548402	1.64438946
7.79	779	-0.083	0.064	-0.986	0.572958	-0.1145916	-0.0572958	-3.9534102	-5.26548402	1.64438946
7.8	780	-0.085	0.061	-0.983	0.6302538	-0.2291832	-0.0572958	-3.99924684	-5.28267276	1.65011904
7.81	781	-0.086	0.058	-0.985	0.5156622	-0.3437748	-0.1145916	-3.99351726	-5.28840234	1.65011904
7.82	782	-0.085	0.058	-0.985	0.5156622	-0.4010706	-0.1718874	-3.98778768	-5.29413192	1.64438946
7.83	783	-0.085	0.059	-0.984	0.5156622	-0.1718874	-0.2291832	-3.9820581	-5.29413192	1.64438946
7.84	784	-0.086	0.059	-0.984	0.4010706	-0.1718874	-0.1718874	-3.97632852	-5.29413192	1.64438946
7.85	785	-0.086	0.062	-0.986	0.4583664	-0.286479	-0.1718874	-4.02216516	-5.2998615	1.64438946
7.86	786	-0.085	0.065	-0.985	0.6302538	-0.4010706	-0.1718874	-4.010706	-5.30559108	1.64438946
7.87	787	-0.084	0.065	-0.986	0.7448454	-0.3437748	-0.1718874	-4.00497642	-5.30559108	1.63865988
7.88	788	-0.085	0.066	-0.983	0.7448454	-0.4583664	-0.1145916	-3.99924684	-5.31132066	1.63865988
7.89	789	-0.088	0.066	-0.984	0.6302538	-0.572958	-0.1145916	-3.98778768	-5.31705024	1.63865988
7.9	790	-0.088	0.068	-0.984	0.6875496	-0.6302538	-0.0572958	-4.0393539	-5.33423898	1.64438946
7.91	791	-0.088	0.066	-0.982	0.7448454	-0.4583664	0	-4.02789474	-5.33996856	1.64438946
7.92	792	-0.089	0.065	-0.981	0.6875496	-0.3437748	0.0572958	-4.02216516	-5.34569814	1.64438946
7.93	793	-0.089	0.066	-0.981	0.6302538	-0.4010706	0.0572958	-4.01643558	-5.34569814	1.64438946
7.94	794	-0.09	0.066	-0.979	0.6302538	-0.572958	0	-4.010706	-5.35142772	1.64438946
7.95	795	-0.091	0.067	-0.979	0.8021412	-0.7448454	0	-4.0393539	-5.37434604	1.65011904
7.96	796	-0.088	0.07	-0.982	1.0886202	-0.7448454	-0.0572958	-4.02789474	-5.3858052	1.65011904
7.97	797	-0.086	0.07	-0.983	1.2605076	-0.5156622	0	-4.01643558	-5.3858052	1.65011904
7.98	798	-0.086	0.07	-0.982	1.4896908	-0.5156622	0.0572958	-3.99924684	-5.39153478	1.65011904
7.99	799	-0.086	0.066	-0.984	1.3750992	-0.5156622	0.0572958	-3.98778768	-5.39726436	1.65011904
8	800	-0.089	0.065	-0.986	1.2605076	-0.4010706	0.1145916	-4.010706	-5.40872352	1.65584862
8.01	801	-0.09	0.064	-0.989	1.3750992	-0.2291832	0.0572958	-3.99924684	-5.4144531	1.6615782
8.02	802	-0.092	0.06	-0.988	1.6042824	-0.2291832	0.0572958	-3.9820581	-5.4144531	1.6615782
8.03	803	-0.092	0.06	-0.986	0.859437	0.0572958	0	-3.97059894	-5.4144531	1.6615782
8.04	804	-0.091	0.06	-0.986	0.4583664	0.4010706	0.1718874	-3.97059894	-5.40872352	1.6615782
8.05	805	-0.089	0.06	-0.986	0.5156622	0.3437748	0.2291832	-4.00497642	-5.4144531	1.66730778
8.06	806	-0.086	0.061	-0.985	0.4583664	0.3437748	0.286479	-3.99924684	-5.40872352	1.67303736
