TimeStamp(s)	FrameCounter	AccX	AccY	AccZ	GyrX	GyrY	GyrZ	EulerX	EulerY	EulerZ
0.01	1	0.03	-1.007	-0.018	-0.8021412	-1.145916	-1.0886202	89.42155506	3.51796212	-14.73647976
0.02	2	0.027	-1.012	-0.026	-2.0626488	-0.1145916	-1.0313244	89.39863674	3.52942128	-14.74220934
0.03	3	0.028	-1.015	-0.026	-2.3491278	-0.1145916	-0.9167328	89.37571842	3.53515086	-14.74220934
0.04	4	0.029	-1.016	-0.025	-2.5210152	-0.0572958	-0.859437	89.3528001	3.54661002	-14.74220934
0.05	5	0.028	-1.015	-0.024	-2.5210152	0.0572958	-0.6875496	89.26112682	3.46066632	-14.70210228
0.06	6	0.024	-1.011	-0.021	-2.4637194	0.4010706	-0.572958	89.2382085	3.4663959	-14.6963727
0.07	7	0.022	-1.009	-0.019	-2.3491278	0.8021412	-0.5156622	89.21529018	3.47212548	-14.69064312
0.08	8	0.02	-1.006	-0.017	-2.1772404	1.0886202	-0.4583664	89.19237186	3.47785506	-14.67918396
0.09	9	0.021	-1.006	-0.018	-2.0626488	1.0886202	-0.4010706	89.16945354	3.48358464	-14.6677248
0.1	10	0.023	-1.006	-0.018	-1.9480572	0.8021412	-0.3437748	89.08923942	3.3804522	-14.610429
0.11	11	0.025	-1.006	-0.016	-2.1772404	0.6302538	-0.286479	89.07205068	3.3804522	-14.60469942
0.12	12	0.03	-1.005	-0.015	-2.4064236	0.8021412	-0.286479	89.04340278	3.38618178	-14.59324026
0.13	13	0.032	-1.004	-0.015	-2.7501984	1.2032118	-0.286479	89.02048446	3.38618178	-14.5817811
0.14	14	0.032	-1.002	-0.016	-2.7501984	1.6042824	-0.2291832	88.99183656	3.39191136	-14.57032194
0.15	15	0.029	-1	-0.018	-2.5210152	1.8907614	-0.1145916	88.93454076	3.34034514	-14.5244853
0.16	16	0.027	-1	-0.019	-2.3491278	2.2345362	-0.0572958	88.91162244	3.34034514	-14.50156698
0.17	17	0.025	-1	-0.022	-2.1199446	2.1772404	0	88.88870412	3.34034514	-14.48437824
0.18	18	0.026	-1.001	-0.023	-2.0626488	1.9480572	0	88.87151538	3.34034514	-14.46145992
0.19	19	0.026	-1.002	-0.024	-2.005353	1.6615782	-0.0572958	88.84859706	3.34034514	-14.44427118
0.2	20	0.028	-1.003	-0.027	-1.8907614	1.2605076	-0.1145916	88.77411252	3.2658606	-14.39843454
0.21	21	0.029	-1.003	-0.027	-1.718874	0.6875496	-0.2291832	88.75692378	3.2658606	-14.39270496
0.22	22	0.032	-1.005	-0.027	-1.432395	0.4583664	-0.286479	88.73973504	3.27159018	-14.38697538
0.23	23	0.035	-1.005	-0.026	-1.2605076	0.3437748	-0.286479	88.72827588	3.27159018	-14.38697538
0.24	24	0.036	-1.006	-0.024	-1.3178034	0.286479	-0.1718874	88.71108714	3.27731976	-14.3812458
0.25	25	0.036	-1.005	-0.027	-1.3178034	0.1145916	-0.1718874	88.60222512	3.19137606	-14.34113874
0.26	26	0.035	-1.004	-0.027	-1.3178034	0	-0.0572958	88.58503638	3.19137606	-14.34113874
0.27	27	0.033	-1.004	-0.027	-1.3178034	0	0	88.57357722	3.19137606	-14.34113874
0.28	28	0.03	-1.003	-0.028	-1.2605076	-0.0572958	0.0572958	88.56211806	3.19137606	-14.34113874
0.29	29	0.028	-1.003	-0.029	-1.145916	-0.3437748	0.0572958	88.54492932	3.19137606	-14.34686832
0.3	30	0.026	-1.004	-0.029	-0.9167328	-0.4010706	-0.0572958	88.41887856	3.0366774	-14.27811336
0.31	31	0.026	-1.005	-0.03	-0.8021412	-0.5156622	-0.1718874	88.41314898	3.0366774	-14.28384294
0.32	32	0.028	-1.004	-0.032	-0.9167328	-0.5156622	-0.3437748	88.40168982	3.04240698	-14.28957252
0.33	33	0.031	-1.003	-0.032	-1.145916	-0.3437748	-0.4010706	88.39023066	3.04813656	-14.2953021
0.34	34	0.033	-1.003	-0.032	-1.0886202	-0.1718874	-0.2291832	88.3787715	3.04813656	-14.2953021
0.35	35	0.034	-1.003	-0.031	-0.9167328	0	-0.2291832	88.27563906	2.97365202	-14.26092462
0.36	36	0.034	-1.005	-0.03	-0.9740286	0.1718874	-0.1718874	88.2641799	2.9793816	-14.26092462
0.37	37	0.032	-1.005	-0.029	-0.9740286	0.1718874	-0.0572958	88.25272074	2.9793816	-14.25519504
0.38	38	0.028	-1.006	-0.027	-1.2032118	0.4010706	0.0572958	88.24126158	2.9793816	-14.25519504
0.39	39	0.026	-1.007	-0.026	-1.432395	0.6302538	0	88.22407284	2.9793816	-14.24373588
0.4	40	0.023	-1.011	-0.025	-1.9480572	1.2605076	-0.286479	88.18396578	2.93354496	-14.21508798
0.41	41	0.021	-1.013	-0.024	-2.6356068	2.1199446	-0.4583664	88.16104746	2.93927454	-14.19216966
0.42	42	0.02	-1.015	-0.025	-3.3231564	3.0366774	-0.8021412	88.12666998	2.9507337	-14.16352176
0.43	43	0.021	-1.019	-0.024	-4.010706	3.724227	-1.2032118	88.08656292	2.96219286	-14.12914428
0.44	44	0.023	-1.022	-0.023	-4.6982556	4.4117766	-1.4896908	88.04072628	2.97365202	-14.08330764
0.45	45	0.026	-1.023	-0.023	-5.5576926	5.156622	-1.6042824	87.9777009	2.9793816	-14.02601184
0.46	46	0.029	-1.02	-0.022	-6.1306506	5.7868758	-1.5469866	87.9204051	2.99657034	-13.97444562
0.47	47	0.034	-1.017	-0.021	-6.9900876	6.875496	-1.432395	87.85165014	3.0080295	-13.90569066
0.48	48	0.039	-1.011	-0.022	-7.734933	7.448454	-1.145916	87.7771656	3.01948866	-13.83120612
0.49	49	0.045	-1.008	-0.024	-8.1932994	7.7922288	-0.9740286	87.69695148	3.03094782	-13.75672158
0.5	50	0.052	-1.007	-0.023	-8.6516658	7.9068204	-0.6875496	87.61100778	3.04240698	-13.68223704
0.51	51	0.057	-1.006	-0.026	-8.8235532	7.8495246	-0.4010706	87.5193345	3.04813656	-13.60202292
0.52	52	0.061	-1.007	-0.029	-8.880849	7.1046792	-0.4583664	87.4333908	3.05386614	-13.53326796
0.53	53	0.063	-1.011	-0.027	-8.9381448	6.0733548	-0.5156622	87.3474471	3.05959572	-13.47597216
0.54	54	0.065	-1.016	-0.023	-9.167328	5.2139178	-0.6302538	87.25577382	3.0653253	-13.42440594
0.55	55	0.066	-1.016	-0.019	-9.6829902	4.4690724	-0.8021412	87.16410054	3.08251404	-13.38429888
0.56	56	0.065	-1.018	-0.015	-10.1986524	4.4117766	-0.859437	87.0609681	3.0939732	-13.34419182
0.57	57	0.063	-1.02	-0.013	-10.7716104	4.583664	-1.0313244	86.95210608	3.09970278	-13.29835518
0.58	58	0.058	-1.02	-0.015	-11.5164558	4.6982556	-1.145916	86.83751448	3.11116194	-13.25251854
0.59	59	0.056	-1.02	-0.02	-12.032118	4.9847346	-1.2032118	86.7171933	3.12835068	-13.2066819
0.6	60	0.054	-1.019	-0.026	-12.2613012	5.156622	-1.2605076	86.59687212	3.13980984	-13.16084526
0.61	61	0.053	-1.019	-0.032	-12.2040054	4.7555514	-1.2605076	86.47082136	3.15699858	-13.11500862
0.62	62	0.057	-1.019	-0.036	-12.0894138	3.7815228	-1.145916	86.35050018	3.16845774	-13.07490156
0.63	63	0.057	-1.017	-0.038	-12.6623718	3.3804522	-0.9167328	86.22444942	3.17418732	-13.04625366
0.64	64	0.057	-1.012	-0.041	-13.2926256	3.6669312	-0.6875496	86.09266908	3.1799169	-13.01187618
0.65	65	0.056	-1.006	-0.044	-13.8655836	4.4117766	-0.6302538	85.94942958	3.19137606	-12.97176912
0.66	66	0.054	-1.005	-0.047	-13.9801752	5.6722842	-0.6875496	85.81191966	3.20283522	-12.91447332
0.67	67	0.054	-1.003	-0.052	-13.8082878	6.6463128	-0.859437	85.67440974	3.2085648	-12.85144794
0.68	68	0.053	-1.003	-0.055	-13.750992	7.6203414	-0.9740286	85.53689982	3.22575354	-12.7769634
0.69	69	0.053	-1.004	-0.061	-13.8655836	8.3651868	-0.9740286	85.3993899	3.2372127	-12.69674928
0.7	70	0.055	-1.003	-0.066	-13.9801752	8.7089616	-1.0313244	85.26187998	3.25440144	-12.61653516
0.71	71	0.057	-1.003	-0.068	-14.0947668	8.880849	-0.9740286	85.11864048	3.2658606	-12.53059146
0.72	72	0.057	-1	-0.069	-14.2666542	9.1100322	-0.9740286	84.98113056	3.27731976	-12.43891818
0.73	73	0.055	-0.999	-0.071	-14.2093584	9.3965112	-1.0313244	84.83789106	3.2945085	-12.35297448
0.74	74	0.053	-0.997	-0.072	-14.1520626	9.6829902	-1.2605076	84.70038114	3.31169724	-12.25557162
0.75	75	0.054	-0.997	-0.071	-14.32395	9.9694692	-1.3178034	84.55714164	3.32888598	-12.16389834
0.76	76	0.054	-0.996	-0.072	-14.7250206	10.4278356	-1.5469866	84.41390214	3.3518043	-12.0607659
0.77	77	0.054	-0.993	-0.076	-14.7823164	10.886202	-1.6042824	84.26493306	3.37472262	-11.95763346
0.78	78	0.059	-0.991	-0.077	-14.8396122	11.1153852	-1.7761698	84.12169356	3.39764094	-11.84877144
0.79	79	0.062	-0.991	-0.079	-15.0687954	11.2872726	-1.8907614	83.97272448	3.42628884	-11.73990942
0.8	80	0.064	-0.993	-0.084	-15.2979786	11.3445684	-1.9480572	83.8237554	3.45493674	-11.6310474
0.81	81	0.069	-0.996	-0.087	-15.4125702	11.1153852	-2.005353	83.66905674	3.48358464	-11.52791496
0.82	82	0.071	-0.998	-0.093	-15.2979786	10.9434978	-1.9480572	83.52008766	3.50650296	-11.42478252
0.83	83	0.074	-0.999	-0.097	-14.8396122	10.886202	-1.7761698	83.37111858	3.53515086	-11.3159205
0.84	84	0.077	-0.997	-0.1	-14.2093584	10.9434978	-1.5469866	83.23360866	3.55806918	-11.21278806
0.85	85	0.076	-0.996	-0.103	-13.6936962	10.599723	-1.3178034	83.09609874	3.58671708	-11.1153852
0.86	86	0.075	-0.993	-0.104	-13.2926256	9.9694692	-1.0313244	82.97004798	3.60390582	-11.01798234
0.87	87	0.074	-0.994	-0.106	-13.4072172	9.2246238	-0.7448454	82.83826764	3.62109456	-10.92630906
0.88	88	0.076	-0.993	-0.107	-13.5791046	8.3651868	-0.6302538	82.70075772	3.63255372	-10.84609494
0.89	89	0.078	-0.994	-0.113	-13.8082878	7.5057498	-0.5156622	82.5632478	3.64401288	-10.77733998
0.9	90	0.081	-0.995	-0.119	-13.750992	6.302538	-0.4583664	82.42573788	3.6669312	-10.72004418
0.91	91	0.086	-0.99	-0.128	-13.0634424	4.6982556	-0.4583664	82.29395754	3.67266078	-10.67420754
0.92	92	0.09	-0.988	-0.139	-12.2040054	2.9793816	-0.286479	82.16790678	3.67839036	-10.64555964
0.93	93	0.087	-0.987	-0.151	-11.3445684	1.0886202	0	82.05331518	3.67839036	-10.63983006
0.94	94	0.082	-0.984	-0.156	-10.886202	-0.1718874	0.5156622	81.94445316	3.67266078	-10.63983006
0.95	95	0.075	-0.98	-0.162	-11.0580894	-2.5210152	1.3178034	81.81267282	3.66120162	-10.66847796
0.96	96	0.069	-0.975	-0.181	-12.1467096	-6.1306506	1.8334656	81.68662206	3.63255372	-10.72577376
0.97	97	0.064	-0.956	-0.21	-12.318597	-13.8655836	2.1199446	81.55484172	3.59244666	-10.8575541
0.98	98	0.056	-0.932	-0.218	-10.886202	-23.9496444	2.1199446	81.43452054	3.54661002	-11.09246688
0.99	99	0.035	-0.906	-0.219	-6.875496	-36.4401288	1.5469866	81.34284726	3.48358464	-11.44770084
1	100	-0.009	-0.886	-0.183	-2.7501984	-48.8733174	0.2291832	81.29128104	3.4091001	-11.92325598
1.01	101	-0.049	-0.881	-0.112	-2.2345362	-57.6395748	-2.1199446	81.23971482	3.35753388	-12.49621398
1.02	102	-0.067	-0.888	-0.049	-5.2712136	-59.4730404	-5.0993262	81.1595007	3.33461556	-13.08636072
1.03	103	-0.07	-0.917	0.01	-8.8235532	-55.003968	-9.167328	81.0449091	3.35753388	-13.64212998
1.04	104	-0.063	-0.961	0.017	-11.8602306	-50.0765292	-12.3758928	80.9016696	3.41482968	-14.15779218
1.05	105	-0.03	-1.022	-0.01	-14.5531332	-46.5241896	-15.0687954	80.74124136	3.48931422	-14.63334732
1.06	106	0.011	-1.088	-0.021	-16.2147114	-42.97185	-16.7876694	80.55216522	3.59817624	-15.08598414
1.07	107	0.055	-1.145	-0.024	-16.3865988	-39.1330314	-16.3865988	80.36308908	3.70130868	-15.4985139
1.08	108	0.077	-1.18	-0.018	-14.6677248	-37.3568616	-13.3499214	80.19693126	3.7815228	-15.88812534
1.09	109	0.06	-1.188	-0.004	-11.172681	-36.669312	-8.6516658	80.05942134	3.8101707	-16.26054804
1.1	110	0.029	-1.161	0.001	-7.6203414	-37.1276784	-4.1252976	79.97920722	3.79298196	-16.63297074
1.11	111	0.003	-1.114	-0.008	-4.5263682	-39.3049188	-0.7448454	79.91045226	3.74141574	-17.0168526
1.12	112	-0.011	-1.076	-0.003	-3.6096354	-42.2843004	0.0572958	79.85315646	3.67839036	-17.43511194
1.13	113	-0.02	-1.049	0.012	-4.2398892	-44.5188366	-0.1145916	79.79013108	3.61536498	-17.87056002
1.14	114	-0.027	-1.031	0.015	-5.9014674	-46.123119	-0.7448454	79.70991696	3.5523396	-18.32319684
1.15	115	-0.023	-1.02	0	-8.5370742	-47.7274014	-1.6042824	79.6125141	3.48358464	-18.78729282
1.16	116	-0.01	-1.012	-0.021	-11.1153852	-50.0192334	-2.3491278	79.47500418	3.43201842	-19.28576628
1.17	117	0.009	-1.007	-0.037	-12.891555	-52.5975444	-2.9793816	79.32030552	3.37472262	-19.80715806
1.18	118	0.028	-1.002	-0.048	-13.8082878	-55.0612638	-3.6096354	79.15987728	3.3231564	-20.35146816
1.19	119	0.037	-0.987	-0.061	-14.0947668	-58.2698286	-4.1825934	78.98798988	3.27159018	-20.93015574
1.2	120	0.028	-0.965	-0.054	-14.2666542	-60.1032942	-4.8128472	78.82756164	3.21429438	-21.52603206
1.21	121	0.002	-0.939	-0.047	-15.4125702	-60.1032942	-5.5576926	78.64421508	3.16845774	-22.12763796
1.22	122	-0.024	-0.916	-0.049	-16.8449652	-59.3584488	-6.1306506	78.44940936	3.1226211	-22.7177847
1.23	123	-0.061	-0.899	-0.046	-17.9908812	-57.5249832	-6.7609044	78.24314448	3.08824362	-23.29647228
1.24	124	-0.098	-0.896	-0.046	-18.334656	-54.4883058	-6.9900876	78.0368796	3.05959572	-23.84078238
1.25	125	-0.128	-0.905	-0.045	-18.2200644	-50.5348956	-7.1046792	77.84207388	3.01375908	-24.33925584
1.26	126	-0.149	-0.923	-0.047	-17.5325148	-46.0085274	-6.9900876	77.64153858	2.99657034	-24.80335182
1.27	127	-0.16	-0.943	-0.047	-15.9855282	-41.1383844	-6.8182002	77.4639216	2.98511118	-25.22161116
1.28	128	-0.157	-0.957	-0.053	-14.4385416	-37.7579322	-6.7036086	77.30349336	2.9793816	-25.60549302
1.29	129	-0.138	-0.959	-0.05	-12.9488508	-34.8931422	-7.2765666	77.16025386	2.9793816	-25.96072698
1.3	130	-0.111	-0.958	-0.043	-10.886202	-32.5440144	-8.1360036	77.05712142	2.96792244	-26.28158346
1.31	131	-0.081	-0.957	-0.033	-9.1100322	-30.4813656	-9.1100322	76.9482594	2.99657034	-26.60243994
1.32	132	-0.053	-0.958	-0.022	-7.9641162	-28.8197874	-9.7975818	76.85658612	3.03094782	-26.90610768
1.33	133	-0.028	-0.963	-0.021	-6.875496	-27.9030546	-9.9121734	76.776372	3.07105488	-27.19831626
1.34	134	-0.014	-0.971	-0.028	-5.0420304	-28.1322378	-9.2246238	76.70761704	3.10543236	-27.49052484
1.35	135	-0.012	-0.984	-0.032	-2.3491278	-29.0489706	-8.2505952	76.70188746	3.11116194	-27.78273342
1.36	136	-0.022	-0.995	-0.035	0.4010706	-30.1948866	-7.3338624	76.69615788	3.1226211	-28.09213074
1.37	137	-0.028	-1.008	-0.046	4.0680018	-31.6845774	-6.5317212	76.72480578	3.1226211	-28.41298722
1.38	138	-0.051	-1.017	-0.049	6.9327918	-33.2888598	-6.1306506	76.78210158	3.11689152	-28.75103244
1.39	139	-0.081	-1.017	-0.047	9.1100322	-34.2628884	-6.016059	76.85658612	3.10543236	-29.09480724
1.4	140	-0.11	-1.013	-0.05	10.7716104	-34.8358464	-5.7868758	76.97117772	3.0653253	-29.43285246
1.41	141	-0.143	-1.009	-0.041	13.178034	-34.3201842	-5.5003968	77.0914989	3.05386614	-29.77662726
1.42	142	-0.171	-1.019	-0.027	15.469866	-32.1429438	-4.8128472	77.24046798	3.04240698	-30.09748374
1.43	143	-0.19	-1.04	-0.037	16.1574156	-29.1062664	-3.6096354	77.38943706	3.02521824	-30.38969232
1.44	144	-0.212	-1.054	-0.039	19.480572	-27.5592798	-1.9480572	77.5785132	2.99084076	-30.65898258
1.45	145	-0.235	-1.064	-0.028	25.6112226	-25.78311	0.1145916	77.85353304	2.90489706	-30.88816578
1.46	146	-0.248	-1.082	-0.005	29.9084076	-22.91832	1.8907614	78.14574162	2.84760126	-31.10588982
1.47	147	-0.237	-1.134	-0.027	28.1322378	-17.9908812	3.3231564	78.42649104	2.78457588	-31.27204764
1.48	148	-0.188	-1.215	-0.101	23.0329116	-11.9748222	4.4690724	78.65567424	2.72728008	-31.38090966
1.49	149	-0.094	-1.275	-0.133	22.1734746	-5.8441716	5.6722842	78.87912786	2.6642547	-31.42101672
1.5	150	0.01	-1.274	-0.097	30.1375908	-4.8128472	7.6776372	79.19425476	2.578311	-31.44966462
1.51	151	0.076	-1.258	-0.072	38.2162986	-10.0840608	8.9954406	79.5838662	2.48090814	-31.52987874
1.52	152	0.084	-1.239	-0.088	35.3515086	-15.1260912	8.7089616	79.93910016	2.3777757	-31.66165908
1.53	153	0.063	-1.2	-0.108	27.9030546	-20.1108258	7.9068204	80.21412	2.27464326	-31.83927606
1.54	154	0.023	-1.144	-0.121	21.4286292	-26.2414764	6.875496	80.42611446	2.17151082	-32.085648
1.55	155	-0.019	-1.1	-0.139	17.8189938	-26.1841806	4.583664	80.60373144	2.07983754	-32.32629036
1.56	156	-0.041	-1.086	-0.161	13.8655836	-20.340009	1.6042824	80.74124136	2.03973048	-32.52109608
1.57	157	-0.052	-1.078	-0.199	8.59437	-13.0061466	-1.5469866	80.82718506	2.03973048	-32.65287642
1.58	158	-0.049	-1.051	-0.237	3.2085648	-1.7761698	-4.5263682	80.85583296	2.07983754	-32.67579474
1.59	159	-0.043	-1.007	-0.289	-1.4896908	11.0580894	-4.870143	80.8443738	2.14286292	-32.57839188
1.6	160	-0.046	-0.961	-0.318	-2.3491278	18.048177	-2.3491278	80.76988926	2.16005166	-32.39504532
1.61	161	-0.066	-0.934	-0.338	-2.578311	19.7097552	2.005353	80.74697094	2.16578124	-32.2002396
1.62	162	-0.071	-0.928	-0.346	-2.6929026	17.8189938	6.589017	80.72405262	2.12567418	-32.01689304
1.63	163	-0.039	-0.948	-0.329	-1.6615782	14.8396122	9.5111028	80.71259346	2.05118964	-31.8564648
1.64	164	0.032	-0.985	-0.307	-0.4010706	11.6310474	9.8548776	80.70686388	1.96524594	-31.72468446
1.65	165	0.117	-1.017	-0.279	0.4583664	8.0787078	7.7922288	80.66675682	1.97097552	-31.66738866
1.66	166	0.197	-1.015	-0.245	2.6356068	3.5523396	3.3804522	80.68967514	1.94232762	-31.6272816
1.67	167	0.246	-0.986	-0.21	6.302538	-1.6615782	-1.432395	80.7584301	1.95951636	-31.64447034
1.68	168	0.262	-0.959	-0.18	8.6516658	-5.9587632	-5.6722842	80.8443738	2.005353	-31.70749572
1.69	169	0.256	-0.945	-0.151	8.4797784	-9.7975818	-9.1100322	80.92458792	2.08556712	-31.82208732
1.7	170	0.239	-0.939	-0.126	6.4744254	-12.032118	-11.8029348	80.9876133	2.24599536	-31.97678598
1.71	171	0.211	-0.94	-0.098	3.8388186	-13.1207382	-13.5218088	81.02199078	2.36058696	-32.12575506
1.72	172	0.171	-0.952	-0.078	0.6875496	-13.6364004	-14.610429	81.02772036	2.48663772	-32.28045372
1.73	173	0.123	-0.969	-0.072	-2.6356068	-13.178034	-14.7823164	80.99334288	2.61268848	-32.43515238
1.74	174	0.071	-0.976	-0.077	-6.589017	-11.6883432	-14.1520626	80.91885834	2.73873924	-32.5726623
1.75	175	0.032	-0.968	-0.081	-9.5111028	-9.740286	-12.8342592	80.83291464	2.84187168	-32.6872539
1.76	176	0.01	-0.952	-0.086	-11.745639	-7.9641162	-11.3445684	80.70686388	2.94500412	-32.78465676
1.77	177	-0.001	-0.932	-0.088	-13.5218088	-6.8182002	-9.5683986	80.56362438	3.02521824	-32.86487088
1.78	178	0	-0.911	-0.09	-15.3552744	-6.0733548	-7.734933	80.40319614	3.0939732	-32.93935542
1.79	179	0.012	-0.891	-0.097	-17.3606274	-5.72958	-6.1306506	80.22557916	3.14553942	-33.00811038
1.8	180	0.029	-0.878	-0.108	-19.5951636	-5.3285094	-5.0993262	80.03077344	3.18564648	-33.07113576
1.81	181	0.051	-0.868	-0.124	-21.772404	-5.2712136	-4.4690724	79.80159024	3.21429438	-33.13416114
1.82	182	0.075	-0.866	-0.137	-23.8350528	-5.6722842	-4.2398892	79.56094788	3.24867186	-33.19718652
1.83	183	0.097	-0.873	-0.147	-24.923673	-6.016059	-4.010706	79.30311678	3.27731976	-33.26594148
1.84	184	0.117	-0.886	-0.151	-25.2674478	-6.7609044	-3.5523396	79.04528568	3.2945085	-33.34042602
1.85	185	0.12	-0.903	-0.15	-24.4653066	-7.9641162	-2.86479	78.79318416	3.32888598	-33.4320993
1.86	186	0.11	-0.917	-0.144	-22.8037284	-9.3392154	-2.1199446	78.5525418	3.32888598	-33.52950216
1.87	187	0.093	-0.924	-0.133	-20.5691922	-10.4851314	-1.2605076	78.34054734	3.3231564	-33.63836418
1.88	188	0.069	-0.924	-0.121	-18.048177	-11.2872726	0	78.1514712	3.30023808	-33.75295578
1.89	189	0.041	-0.92	-0.102	-15.5844576	-10.6570188	1.0886202	77.99104296	3.27159018	-33.85608822
1.9	190	0.021	-0.917	-0.084	-12.9488508	-9.1100322	2.1772404	77.88218094	3.21429438	-33.93057276
1.91	191	0.007	-0.915	-0.06	-10.026765	-7.0473834	3.2658606	77.7790485	3.16845774	-33.99359814
1.92	192	0.007	-0.916	-0.054	-8.1360036	-4.7555514	4.297185	77.6931048	3.11689152	-34.0337052
1.93	193	0.014	-0.913	-0.064	-6.7036086	-2.8074942	5.5576926	77.62434984	3.05959572	-34.05089394
1.94	194	0.029	-0.898	-0.082	-3.8961144	-1.2605076	7.448454	77.58424278	2.98511118	-34.04516436
1.95	195	0.046	-0.879	-0.105	0	0.1145916	9.5111028	77.6071611	2.8934379	-34.02224604
1.96	196	0.059	-0.855	-0.129	4.870143	1.9480572	11.4018642	77.65872732	2.79030546	-33.98213898
1.97	197	0.072	-0.826	-0.14	11.4018642	4.6982556	12.4331886	77.7790485	2.67571386	-33.90765444
1.98	198	0.074	-0.811	-0.122	17.4179232	4.9274388	12.5477802	77.95666548	2.56685184	-33.8331699
1.99	199	0.073	-0.812	-0.072	23.0329116	3.4950438	10.7716104	78.19157826	2.46944898	-33.77014452
2	200	0.058	-0.831	-0.044	27.0436176	1.8907614	7.6776372	78.48951642	2.4064236	-33.73576704
2.01	201	0.044	-0.876	-0.045	28.6479	0.6875496	3.7815228	78.781725	2.37204612	-33.7185783
2.02	202	0.024	-0.948	-0.049	28.934379	2.1199446	-0.4583664	79.07393358	2.38350528	-33.69565998
2.03	203	0.008	-1.041	-0.034	27.9030546	3.3231564	-4.297185	79.36041258	2.4350715	-33.66701208
2.04	204	0.003	-1.13	-0.014	24.064236	6.2452422	-8.021412	79.60105494	2.5210152	-33.62117544
2.05	205	0.013	-1.164	0.018	20.7983754	10.599723	-10.7143146	79.8416973	2.64133638	-33.52377258
2.06	206	0.029	-1.15	0.06	19.7097552	14.1520626	-12.2040054	80.04796218	2.78457588	-33.40918098
2.07	207	0.046	-1.122	0.085	17.0741484	14.9542038	-12.318597	80.22557916	2.92781538	-33.27740064
2.08	208	0.062	-1.137	0.023	11.4018642	13.5791046	-12.3758928	80.34590034	3.07105488	-33.16280904
2.09	209	0.088	-1.17	-0.07	6.589017	17.3606274	-13.9228794	80.4146553	3.23148312	-33.01956954
2.1	210	0.138	-1.179	-0.076	11.1153852	20.340009	-15.5844576	80.54643564	3.42055926	-32.84195256
2.11	211	0.205	-1.195	-0.033	20.2827132	15.8709366	-15.8709366	80.7584301	3.60390582	-32.71017222
2.12	212	0.267	-1.253	-0.046	25.2674478	6.8182002	-16.5584862	81.0162612	3.77579322	-32.66433558
2.13	213	0.308	-1.306	-0.08	25.4393352	-2.6356068	-18.8503182	81.26836272	3.95913978	-32.72163138
2.14	214	0.323	-1.333	-0.114	22.5745452	-10.0840608	-21.199446	81.49181634	4.15967508	-32.84768214
2.15	215	0.29	-1.367	-0.148	22.9756158	-15.2979786	-23.0329116	81.71526996	4.37739912	-33.0310287
2.16	216	0.201	-1.419	-0.177	25.3247436	-17.7044022	-24.4653066	81.95591232	4.60085274	-33.23729358
2.17	217	0.098	-1.44	-0.18	24.7517856	-19.1367972	-25.3247436	82.1908251	4.83003594	-33.45501762
2.18	218	0.056	-1.344	-0.183	21.8869956	-17.9908812	-23.4339822	82.39708998	5.0420304	-33.6612825
2.19	219	0.096	-1.172	-0.197	20.4546006	-16.8449652	-18.4492476	82.5918957	5.20818822	-33.85035864
2.2	220	0.139	-1.04	-0.22	18.2773602	-18.5065434	-12.2040054	82.74086478	5.3285094	-34.05662352
2.21	221	0.148	-0.938	-0.293	15.3552744	-24.064236	-7.3338624	82.8783747	5.38007562	-34.30299546
2.22	222	0.129	-0.905	-0.316	13.6936962	-31.7418732	-4.9274388	82.98723672	5.39726436	-34.61812236
2.23	223	0.131	-0.901	-0.283	11.1153852	-36.382833	-5.6149884	83.07318042	5.42018268	-34.98481548
2.24	224	0.159	-0.901	-0.267	6.0733548	-37.3568616	-7.9068204	83.10182832	5.46601932	-35.36296776
2.25	225	0.182	-0.896	-0.276	0.1145916	-37.9871154	-10.8289062	83.04453252	5.5576926	-35.76403836
2.26	226	0.17	-0.894	-0.268	-4.2398892	-39.5913978	-13.178034	82.9643184	5.64936588	-36.17083854
2.27	227	0.131	-0.907	-0.241	-7.734933	-40.5654264	-14.2666542	82.8497268	5.75249832	-36.58909788
2.28	228	0.078	-0.929	-0.221	-8.9954406	-40.680018	-13.1207382	82.72367604	5.8441716	-37.0130868
2.29	229	0.013	-0.941	-0.2	-6.4171296	-40.966497	-9.2246238	82.6205436	5.89000824	-37.43134614
2.3	230	-0.044	-0.936	-0.175	-0.5156622	-40.966497	-3.5523396	82.56897738	5.85563076	-37.82668716
2.31	231	-0.093	-0.912	-0.151	3.6669312	-39.7632852	1.2032118	82.56897738	5.79833496	-38.22202818
2.32	232	-0.125	-0.874	-0.129	5.3858052	-38.101707	3.6669312	82.5918957	5.72385042	-38.59445088
2.33	233	-0.139	-0.852	-0.105	6.302538	-35.6379876	4.297185	82.62627318	5.64936588	-38.93822568
2.34	234	-0.129	-0.855	-0.089	4.6409598	-31.799169	3.4950438	82.6491915	5.58061092	-39.247623
2.35	235	-0.098	-0.879	-0.086	1.3750992	-28.3041252	2.4064236	82.64346192	5.48320806	-39.5054541
2.36	236	-0.05	-0.914	-0.084	-1.6042824	-26.4706596	1.432395	82.60908444	5.443101	-39.76901478
2.37	237	-0.002	-0.951	-0.086	-4.6409598	-25.6685184	0.4010706	82.54032948	5.40872352	-40.0211163
2.38	238	0.033	-0.971	-0.095	-7.6776372	-24.6944898	-0.8021412	82.44292662	5.39153478	-40.26748824
2.39	239	0.052	-0.969	-0.109	-9.5683986	-23.5485738	-1.8334656	82.32260544	5.3858052	-40.50240102
2.4	240	0.044	-0.956	-0.119	-10.6570188	-22.2307704	-2.4064236	82.19655468	5.37434604	-40.72585464
2.41	241	0.014	-0.937	-0.121	-11.8029348	-20.912967	-2.578311	82.05904476	5.37434604	-40.9378491
2.42	242	-0.032	-0.923	-0.112	-12.9488508	-19.1367972	-2.5210152	81.91007568	5.37434604	-41.12692524
2.43	243	-0.077	-0.925	-0.105	-13.6936962	-16.042824	-2.005353	81.7611066	5.37434604	-41.29308306
2.44	244	-0.115	-0.94	-0.094	-14.2666542	-12.318597	-1.2605076	81.60067836	5.37434604	-41.41913382
2.45	245	-0.137	-0.958	-0.092	-14.7250206	-8.0787078	-0.3437748	81.46316844	5.26548402	-41.46497046
2.46	246	-0.133	-0.974	-0.083	-13.4072172	-3.9534102	0.7448454	81.32565852	5.24829528	-41.49934794
2.47	247	-0.112	-0.98	-0.066	-10.4851314	-0.8021412	1.7761698	81.2167965	5.23110654	-41.5108071
2.48	248	-0.08	-0.983	-0.049	-7.5630456	1.3178034	2.4637194	81.14231196	5.20818822	-41.49361836
2.49	249	-0.048	-0.98	-0.032	-5.6149884	2.4637194	2.9793816	81.09074574	5.17954032	-41.46497046
2.5	250	-0.021	-0.971	-0.015	-3.9534102	2.7501984	2.9220858	81.15377112	5.05921914	-41.37902676
2.51	251	0.001	-0.955	0.007	-2.4064236	3.0939732	2.6929026	81.1308528	5.03630082	-41.34464928
2.52	252	0.015	-0.934	0.027	-0.9167328	2.86479	2.4064236	81.12512322	5.0133825	-41.31600138
2.53	253	0.009	-0.9	0.047	0.1145916	3.0939732	1.9480572	81.12512322	5.00192334	-41.2816239
2.54	254	-0.01	-0.862	0.051	1.4896908	5.6149884	1.2032118	81.14804154	4.99619376	-41.2243281
2.55	255	-0.039	-0.822	0.049	4.870143	10.7716104	0.2291832	81.2454444	4.96754586	-41.09827734
2.56	256	-0.072	-0.796	0.042	9.1100322	17.5325148	-1.3750992	81.34857684	5.00765292	-40.92638994
2.57	257	-0.111	-0.781	0.023	13.750992	23.8923486	-2.8074942	81.5032755	5.06494872	-40.69147716
2.58	258	-0.153	-0.779	0.035	18.3919518	29.9084076	-3.8388186	81.71526996	5.13943326	-40.39926858
2.59	259	-0.187	-0.803	0.078	20.2254174	36.6120162	-4.297185	81.95018274	5.22537696	-40.04403462
2.6	260	-0.204	-0.868	0.086	17.8189938	43.4302164	-3.6669312	82.18509552	5.26548402	-39.59712738
2.61	261	-0.195	-0.977	0.03	12.318597	47.841993	-1.8907614	82.35125334	5.33423898	-39.12730182
2.62	262	-0.158	-1.09	-0.045	6.1879464	48.128472	1.2605076	82.45438578	5.37434604	-38.65174668
2.63	263	-0.08	-1.181	-0.093	3.8961144	43.9458786	5.0420304	82.52887032	5.36861646	-38.21056902
2.64	264	0.025	-1.222	-0.073	7.7922288	37.528749	8.0787078	82.63773234	5.3285094	-37.82668716
2.65	265	0.114	-1.209	-0.03	12.7196676	29.9084076	10.8289062	82.80389016	5.25402486	-37.51728984
2.66	266	0.148	-1.13	0.012	14.037471	22.4026578	11.8602306	82.9643184	5.156622	-37.27664748
2.67	267	0.121	-1.027	0.049	12.6623718	16.615782	10.5424272	83.1075579	5.0706783	-37.0990305
2.68	268	0.063	-0.981	0.069	9.2819196	14.2666542	8.6516658	83.21069034	5.00192334	-36.94433184
2.69	269	-0.001	-1.01	0.05	4.583664	16.329303	7.5630456	83.27371572	4.93889796	-36.77817402
2.7	270	-0.041	-1.092	0.018	2.4637194	24.637194	6.9900876	83.33101152	4.86441342	-36.51461334
2.71	271	-0.092	-1.156	-0.014	10.1413566	33.6326346	8.59437	83.46279186	4.80711762	-36.17083854
2.72	272	-0.144	-1.165	-0.026	26.4133638	40.1643558	12.6623718	83.76073002	4.72117392	-35.75830878
2.73	273	-0.196	-1.19	0.001	37.3568616	47.6128098	17.4179232	84.17325978	4.58939358	-35.2655649
2.74	274	-0.223	-1.2	0.033	35.8671708	56.4936588	19.9389384	84.57433038	4.43469492	-34.68114774
2.75	275	-0.174	-1.166	0.007	27.1009134	63.1399716	19.767051	84.89518686	4.26280752	-34.02797562
2.76	276	-0.069	-1.183	-0.075	17.7044022	67.2652692	20.05353	85.11864048	4.10810886	-33.3461556
2.77	277	0.136	-1.329	-0.185	9.1100322	67.609044	25.3820394	85.25042082	3.89038482	-32.65287642
2.78	278	0.375	-1.511	-0.264	0.9740286	61.020027	36.955791	85.29052788	3.55806918	-32.02262262
2.79	279	0.553	-1.552	-0.302	-2.5210152	56.5509546	49.4462754	85.29625746	3.09970278	-31.4267463
2.8	280	0.598	-1.398	-0.373	-9.5683986	57.5249832	55.863405	85.21604334	2.58977016	-30.81941082
2.81	281	0.475	-1.19	-0.48	-22.345362	54.717489	56.9520252	85.00404888	2.05691922	-30.22926408
2.82	282	0.237	-1.047	-0.509	-25.6685184	44.2323576	52.998615	84.75194736	1.55844576	-29.75370894
2.83	283	0.003	-1.001	-0.453	-20.4546006	35.4088044	44.0031744	84.55141206	1.14018642	-29.3640975
2.84	284	-0.164	-0.99	-0.375	-16.2147114	29.8511118	32.4867186	84.39098382	0.84224826	-29.04324102
2.85	285	-0.248	-0.977	-0.287	-14.037471	27.215505	20.1108258	84.224826	0.61306506	-28.73957328
2.86	286	-0.228	-0.968	-0.222	-9.1100322	28.8197874	8.9954406	84.12742314	0.5443101	-28.4473647
2.87	287	-0.132	-0.96	-0.163	-0.0572958	33.6326346	0.4583664	84.12742314	0.56149884	-28.12077864
2.88	288	-0.001	-0.959	-0.121	6.4744254	38.5027776	-6.7609044	84.19044852	0.6589017	-27.74262636
2.89	289	0.127	-0.96	-0.1	9.167328	42.0551172	-13.5218088	84.2821218	0.82505952	-27.34155576
2.9	290	0.223	-0.952	-0.099	8.9381448	42.8572584	-19.0222056	84.37379508	1.08289062	-26.94621474
2.91	291	0.289	-0.936	-0.105	7.3911582	39.7632852	-22.0015872	84.44827962	1.32926256	-26.57379204
2.92	292	0.318	-0.917	-0.121	4.9847346	32.945085	-22.345362	84.50557542	1.56990492	-26.2701243
2.93	293	0.322	-0.894	-0.131	2.1772404	24.9809688	-21.485925	84.52849374	1.79908812	-26.0409411
2.94	294	0.309	-0.873	-0.119	-1.0886202	14.8396122	-20.5691922	84.51703458	2.01681216	-25.91489034
2.95	295	0.287	-0.856	-0.093	-4.2398892	6.9327918	-20.3973048	84.47119794	2.29756158	-25.89197202
2.96	296	0.258	-0.842	-0.07	-7.2192708	1.145916	-20.5691922	84.3967134	2.49809688	-25.8977016
2.97	297	0.21	-0.838	-0.055	-9.8548776	-3.0366774	-20.9702628	84.29358096	2.70436176	-25.94926782
2.98	298	0.143	-0.846	-0.041	-12.6623718	-5.72958	-21.0848544	84.16180062	2.91062664	-26.02948194
2.99	299	0.091	-0.863	-0.032	-15.6417534	-6.8182002	-20.340009	83.9956428	3.10543236	-26.11542564
3	300	0.045	-0.878	-0.029	-18.6784308	-8.1932994	-18.048177	83.81229624	3.27159018	-26.21855808
3.01	301	0.014	-0.891	-0.028	-21.5432208	-9.5111028	-14.2093584	83.58311304	3.39764094	-26.3274201
3.02	302	0.001	-0.878	-0.032	-21.5432208	-10.1986524	-7.6203414	83.35965942	3.4663959	-26.4420117
3.03	303	0.002	-0.873	-0.033	-19.1367972	-10.3705398	-2.1772404	83.15912412	3.47785506	-26.54514414
3.04	304	0.011	-0.881	-0.032	-17.3033316	-9.6256944	2.005353	82.98150714	3.44347758	-26.642547
3.05	305	0.037	-0.905	-0.028	-16.4438946	-8.1360036	5.0993262	82.82680848	3.38618178	-26.71703154
3.06	306	0.066	-0.928	-0.019	-16.1001198	-6.1306506	6.9327918	82.66065066	3.30596766	-26.76859776
3.07	307	0.089	-0.94	-0.011	-14.6677248	-3.724227	8.021412	82.51168158	3.22575354	-26.79724566
3.08	308	0.103	-0.937	0.004	-11.745639	-1.3750992	8.880849	82.3913604	3.13408026	-26.80297524
3.09	309	0.098	-0.916	0.028	-7.7922288	0.2291832	9.6256944	82.31687586	3.0366774	-26.7857865
3.1	310	0.075	-0.897	0.048	-3.0366774	2.4637194	10.7143146	82.34552376	2.94500412	-26.74567944
3.11	311	0.049	-0.885	0.064	0	4.5263682	12.2613012	82.35125334	2.83041252	-26.68838364
3.12	312	0.036	-0.873	0.07	2.578311	6.302538	14.2093584	82.37990124	2.6929026	-26.60816952
3.13	313	0.033	-0.858	0.06	5.3285094	8.1360036	16.2720072	82.43719704	2.54393352	-26.50503708
3.14	314	0.041	-0.836	0.037	8.6516658	11.0580894	17.8762896	82.52887032	2.3777757	-26.37325674
3.15	315	0.06	-0.81	0.019	13.178034	15.0114996	18.7930224	82.68356898	2.21734746	-26.20136934
3.16	316	0.078	-0.8	0.016	16.3865988	16.4438946	18.9649098	82.85545638	2.04546006	-26.0122932
3.17	317	0.105	-0.809	0.011	16.6730778	16.1574156	18.1054728	83.02734378	1.88503182	-25.82894664
3.18	318	0.114	-0.851	-0.009	17.475219	14.2093584	15.1260912	83.21069034	1.75325148	-25.6685184
3.19	319	0.118	-0.921	-0.046	15.6417534	10.7143146	11.8029348	83.37111858	1.64438946	-25.54819722
3.2	320	0.119	-1.003	-0.089	13.178034	5.9587632	8.59437	83.50289892	1.6042824	-25.49090142
3.21	321	0.123	-1.078	-0.127	10.6570188	3.4950438	5.3285094	83.61176094	1.55844576	-25.45079436
3.22	322	0.114	-1.121	-0.131	10.0840608	2.1199446	1.718874	83.71489338	1.54125702	-25.42787604
3.23	323	0.084	-1.123	-0.122	12.5477802	0.5156622	-3.0939732	83.84094414	1.5756345	-25.42214646
3.24	324	0.042	-1.081	-0.099	17.1314442	-4.5263682	-9.0527364	84.01856112	1.6615782	-25.47371268
3.25	325	0.014	-1.03	-0.113	21.2567418	-14.7250206	-15.3552744	84.224826	1.8048177	-25.63414092
3.26	326	0.026	-1.027	-0.14	25.8404058	-27.9603504	-21.9442914	84.47692752	2.005353	-25.9263495
3.27	327	0.092	-1.034	-0.084	28.1322378	-25.2674478	-27.6165756	84.75767694	2.2631841	-26.20136934
3.28	328	0.21	-1.039	-0.044	28.7624916	-22.8037284	-30.8251404	85.04415594	2.55539268	-26.44774128
3.29	329	0.325	-1.067	-0.06	28.0176462	-28.934379	-31.226211	85.3134462	2.85333084	-26.7571386
3.3	330	0.36	-1.14	-0.067	29.6219286	-35.8671708	-31.799169	85.5999252	3.17418732	-27.13529088
3.31	331	0.27	-1.256	-0.101	26.356068	-37.8725238	-35.523396	85.84629714	3.50650296	-27.53636148
3.32	332	0.113	-1.414	-0.124	18.048177	-33.2888598	-44.8053156	86.01245496	3.94195104	-27.89159544
3.33	333	-0.034	-1.602	-0.129	14.037471	-25.3820394	-60.1032942	86.13850572	4.5263682	-28.18380402
3.34	334	-0.129	-1.618	-0.187	14.8396122	-19.8243468	-68.75496	86.27028606	5.20245864	-28.4187168
3.35	335	-0.116	-1.401	-0.289	13.1207382	-15.8136408	-61.592985	86.3734185	5.79833496	-28.61352252
3.36	336	0.004	-1.146	-0.33	13.8655836	-10.313244	-48.414951	86.49946926	6.2738901	-28.74530286
3.37	337	0.15	-0.975	-0.3	14.6677248	-7.3911582	-34.8931422	86.64270876	6.6176649	-28.83697614
3.38	338	0.264	-0.912	-0.268	11.45916	-7.5057498	-23.3193906	86.7458412	6.85257768	-28.92291984
3.39	339	0.347	-0.928	-0.231	6.302538	-8.1360036	-16.5584862	86.803137	7.01300592	-29.00886354
3.4	340	0.395	-0.975	-0.211	-0.8021412	-8.1932994	-14.2093584	86.72865246	7.2479187	-29.1349143
3.41	341	0.381	-1.016	-0.221	-6.7609044	-10.313244	-12.7769634	86.64843834	7.36823988	-29.2495059
3.42	342	0.272	-1.058	-0.211	-7.448454	-18.907614	-8.880849	86.55103548	7.448454	-29.44431162
3.43	343	0.14	-1.11	-0.203	-5.72958	-24.2934192	-2.86479	86.46509178	7.47137232	-29.68495398
3.44	344	0.016	-1.132	-0.2	-4.4690724	-25.8977016	4.1252976	86.38487766	7.4198061	-29.94278508
3.45	345	-0.089	-1.113	-0.187	-2.86479	-24.4653066	10.0840608	86.31039312	7.25364828	-30.1662387
3.46	346	-0.161	-1.074	-0.154	0.1145916	-19.9962342	13.2926256	86.2874748	7.11613836	-30.36104442
3.47	347	-0.194	-1.049	-0.125	2.0626488	-11.6310474	14.2666542	86.29893396	6.96716928	-30.46417686
3.48	348	-0.199	-1.023	-0.109	1.7761698	-1.8334656	14.5531332	86.3161227	6.82392978	-30.47563602
3.49	349	-0.175	-0.994	-0.082	1.6042824	5.5576926	15.2406828	86.33904102	6.6749607	-30.41261064
3.5	350	-0.148	-0.972	-0.055	0.3437748	11.2872726	16.2720072	86.35622976	6.42858876	-30.26364156
3.51	351	-0.114	-0.958	-0.047	-1.0886202	12.9488508	17.0741484	86.35622976	6.26243094	-30.12040206
3.52	352	-0.08	-0.949	-0.045	-3.2085648	13.5218088	18.2200644	86.33904102	6.09054354	-29.97716256
3.53	353	-0.05	-0.933	-0.04	-6.0733548	14.1520626	18.6784308	86.29320438	5.90719698	-29.82819348
3.54	354	-0.032	-0.907	-0.034	-10.026765	15.8709366	18.3919518	86.20726068	5.72958	-29.65630608
3.55	355	-0.028	-0.882	-0.034	-14.2666542	19.3086846	17.5325148	86.08120992	5.54050386	-29.4500412
3.56	356	-0.022	-0.865	-0.042	-18.3919518	23.1475032	16.1001198	85.9150521	5.39153478	-29.20939884
3.57	357	-0.025	-0.86	-0.059	-21.5432208	27.1582092	14.9542038	85.7145168	5.25402486	-28.934379
3.58	358	-0.022	-0.863	-0.067	-25.1528562	32.945085	13.8082878	85.4853336	5.1279741	-28.59633378
3.59	359	-0.014	-0.89	-0.07	-26.5852512	36.0390582	13.2353298	85.24469124	5.0133825	-28.23537024
3.6	360	-0.011	-0.921	-0.074	-27.8457588	37.3568616	12.7769634	84.98686014	4.89306132	-27.85148838
3.61	361	-0.002	-0.951	-0.075	-27.9603504	36.382833	11.5164558	84.72902904	4.80138804	-27.48479526
3.62	362	0.013	-0.967	-0.073	-25.9549974	33.5753388	9.9694692	84.48838668	4.72117392	-27.14675004
3.63	363	0.028	-0.966	-0.048	-22.6891368	30.3094782	8.0787078	84.2821218	4.65814854	-26.8430823
3.64	364	0.041	-0.955	-0.031	-20.5118964	27.5592798	5.9587632	84.09304566	4.61804148	-26.56233288
3.65	365	0.071	-0.927	0.002	-18.1054728	24.923673	3.0366774	83.938347	4.60658232	-26.31596094
3.66	366	0.081	-0.898	0.032	-13.1207382	22.91832	-0.3437748	83.8237554	4.62950064	-26.09250732
3.67	367	0.092	-0.873	0.046	-9.2819196	22.1734746	-3.2085648	83.74354128	4.67533728	-25.87478328
3.68	368	0.103	-0.852	0.047	-5.443101	21.3713334	-5.9014674	83.70343422	4.74982182	-25.6685184
3.69	369	0.106	-0.845	0.062	-1.432395	20.5118964	-7.9068204	83.69770464	4.84722468	-25.47371268
3.7	370	0.099	-0.859	0.075	0.9740286	19.5951636	-9.167328	83.76073002	4.96181628	-25.29036612
3.71	371	0.086	-0.874	0.075	2.291832	18.9649098	-9.8548776	83.7951075	5.07640788	-25.11274914
3.72	372	0.075	-0.888	0.067	2.9793816	18.6784308	-10.1413566	83.84094414	5.19099948	-24.94086174
3.73	373	0.059	-0.905	0.053	4.1252976	18.5638392	-10.1413566	83.89823994	5.30559108	-24.76324476
3.74	374	0.053	-0.933	0.044	5.0420304	19.3659804	-9.453807	83.96126532	5.4144531	-24.5798982
3.75	375	0.048	-0.962	0.019	5.9587632	17.3033316	-7.734933	84.06439776	5.48893764	-24.4080108
3.76	376	0.044	-0.982	0.007	7.3911582	13.5218088	-5.3858052	84.15034146	5.55196302	-24.28196004
3.77	377	0.044	-0.992	0.003	8.1360036	10.4851314	-3.2658606	84.24201474	5.59207008	-24.1788276
3.78	378	0.057	-0.98	0.007	9.453807	8.6516658	-1.718874	84.34514718	5.62071798	-24.0928839
3.79	379	0.072	-0.952	0.013	11.5737516	8.6516658	-0.9740286	84.47119794	5.63790672	-24.0069402
3.8	380	0.08	-0.951	0.021	11.4018642	11.4018642	-0.9740286	84.63162618	5.64936588	-23.88661902
3.81	381	0.091	-1.011	-0.007	4.297185	14.4958374	0	84.68892198	5.66082504	-23.74337952
3.82	382	0.09	-1.083	-0.059	-3.0939732	15.5271618	4.1252976	84.66600366	5.63217714	-23.58868086
3.83	383	0.082	-1.145	-0.116	-2.7501984	14.2666542	8.307891	84.6545445	5.5576926	-23.43971178
3.84	384	0.073	-1.148	-0.149	2.6356068	14.4958374	11.6883432	84.69465156	5.44883058	-23.28501312
3.85	385	0.043	-1.129	-0.143	8.5370742	20.3973048	12.8342592	84.79205442	5.32277982	-23.06728908
3.86	386	0.023	-1.152	-0.141	9.167328	28.2468294	13.750992	84.90664602	5.20818822	-22.7750805
3.87	387	0.017	-1.207	-0.187	2.578311	31.1689152	16.6730778	84.95821224	5.05921914	-22.44849444
3.88	388	0.017	-1.26	-0.258	-6.0733548	26.7571386	21.485925	84.91810518	4.86441342	-22.16774502
3.89	389	0.027	-1.329	-0.301	-5.72958	23.5485738	27.2728008	84.87799812	4.60658232	-21.90991392
3.9	390	0.024	-1.359	-0.301	4.870143	19.7097552	33.5753388	84.93529392	4.27999626	-21.6864603
3.91	391	-0.031	-1.291	-0.286	12.2040054	14.3812458	35.523396	85.06707426	3.94195104	-21.50884332
3.92	392	-0.143	-1.149	-0.246	15.0687954	12.5477802	33.2888598	85.2275025	3.62109456	-21.35987424
3.93	393	-0.228	-1.011	-0.199	13.6364004	14.5531332	27.7311672	85.37647158	3.3518043	-21.18798684
3.94	394	-0.241	-0.916	-0.147	10.8289062	21.6578124	20.2827132	85.49679276	3.16272816	-20.95880364
3.95	395	-0.21	-0.888	-0.105	7.9068204	33.0023808	13.6364004	85.58273646	2.99657034	-20.60929926
3.96	396	-0.152	-0.906	-0.08	3.3231564	44.5188366	9.2246238	85.63430268	2.92781538	-20.16239202
3.97	397	-0.031	-0.951	-0.13	-4.5263682	53.858052	6.302538	85.61138436	2.8934379	-19.6238115
3.98	398	0.066	-1.007	-0.155	-8.4797784	58.3844202	5.6722842	85.54835898	2.86479	-19.04512392
3.99	399	0.184	-1.049	-0.225	-18.5638392	56.9520252	4.0680018	85.37647158	2.84760126	-18.4778955
4	400	0.268	-1.065	-0.288	-20.6837838	50.0765292	3.6669312	85.16447712	2.86479	-17.9908812
4.01	401	0.313	-1.067	-0.328	-24.4653066	38.6173692	1.2605076	84.92956434	2.87051958	-17.61272892
4.02	402	0.337	-1.033	-0.345	-27.0436176	24.1788276	-1.6615782	84.66027408	2.89916748	-17.37781614
4.03	403	0.333	-0.987	-0.343	-25.5539268	8.8235532	-5.6149884	84.40244298	2.96219286	-17.29760202
4.04	404	0.301	-0.962	-0.322	-20.6837838	-4.870143	-10.0840608	84.19044852	3.05386614	-17.3606274
4.05	405	0.242	-0.976	-0.275	-15.6990492	-15.5271618	-14.7823164	83.9956428	3.22002396	-17.53824438
4.06	406	0.182	-1.014	-0.219	-11.5737516	-23.777757	-20.2827132	83.86386246	3.40337052	-17.79607548
4.07	407	0.113	-1.057	-0.171	-10.4278356	-27.788463	-24.064236	83.74354128	3.61536498	-18.09401364
4.08	408	0.053	-1.07	-0.136	-8.9381448	-28.6479	-25.6112226	83.63467926	3.84454818	-18.40914054
4.09	409	0.011	-1.063	-0.107	-7.6776372	-27.2728008	-25.496631	83.54300598	4.07373138	-18.7070787
4.1	410	-0.009	-1.032	-0.091	-6.4744254	-24.5798982	-24.2361234	83.45706228	4.27426668	-18.97063938
4.11	411	-0.014	-0.99	-0.09	-5.9587632	-20.912967	-23.2620948	83.38257774	4.48626114	-19.20555216
4.12	412	0.007	-0.952	-0.102	-5.6722842	-17.0741484	-22.8610242	83.31382278	4.6982556	-19.40035788
4.13	413	0.054	-0.919	-0.113	-5.5576926	-13.6936962	-23.4339822	83.24506782	4.91597964	-19.56078612
4.14	414	0.107	-0.91	-0.124	-5.5003968	-10.3705398	-24.637194	83.17631286	5.15089242	-19.69256646
4.15	415	0.166	-0.908	-0.143	-5.6722842	-8.9381448	-25.5539268	83.09036916	5.42018268	-19.8243468
4.16	416	0.218	-0.91	-0.162	-6.0733548	-9.3965112	-25.6685184	83.01588462	5.66655462	-19.94466798
4.17	417	0.254	-0.916	-0.179	-5.9014674	-11.8029348	-24.8090814	82.94712966	5.9014674	-20.09363706
4.18	418	0.27	-0.917	-0.19	-5.8441716	-16.4438946	-23.491278	82.86691554	6.11346186	-20.28844278
4.19	419	0.27	-0.918	-0.194	-5.443101	-21.5432208	-21.9442914	82.78670142	6.30826758	-20.52908514
4.2	420	0.264	-0.906	-0.199	-6.7036086	-27.788463	-20.340009	82.67210982	6.51453246	-20.83848246
4.21	421	0.249	-0.898	-0.188	-6.302538	-34.2628884	-18.621135	82.56897738	6.66350154	-21.199446
4.22	422	0.238	-0.896	-0.183	-6.016059	-43.4302164	-17.18874	82.46011536	6.7895523	-21.65208282
4.23	423	0.235	-0.898	-0.192	-5.3858052	-52.6548402	-15.469866	82.34552376	6.88695516	-22.19639292
4.24	424	0.241	-0.898	-0.186	-3.6669312	-60.9627312	-13.8655836	82.24239132	6.95571012	-22.82091714
4.25	425	0.259	-0.892	-0.182	-1.6615782	-68.6976642	-12.5477802	82.13925888	7.03019466	-23.52565548
4.26	426	0.267	-0.894	-0.169	0.6875496	-76.4325972	-11.0580894	82.06477434	7.05311298	-24.2934192
4.27	427	0.256	-0.903	-0.145	3.8388186	-84.4540092	-9.5111028	82.00747854	7.05884256	-25.14712662
4.28	428	0.235	-0.922	-0.11	6.1306506	-91.959759	-8.4797784	81.97310106	7.04165382	-26.06385942
4.29	429	0.201	-0.945	-0.081	4.8128472	-97.8039306	-7.3338624	81.91580526	7.00154676	-27.0436176
4.3	430	0.163	-0.958	-0.084	0.4010706	-101.413566	-6.016059	81.81267282	6.95571012	-28.05775326
4.31	431	0.128	-0.978	-0.092	-2.5210152	-100.3822416	-4.870143	81.6751629	6.88695516	-29.05470018
4.32	432	0.098	-1.015	-0.096	-4.2398892	-96.9444936	-4.4690724	81.5319234	6.8182002	-30.0229992
4.33	433	0.067	-1.057	-0.109	-6.7036086	-92.1889422	-4.4690724	81.36576558	6.74944524	-30.939732
4.34	434	0.05	-1.103	-0.102	-7.9068204	-86.230179	-4.9847346	81.19960776	6.69214944	-31.799169
4.35	435	0.042	-1.135	-0.111	-9.9121734	-79.5838662	-5.6149884	81.0162612	6.64058322	-32.59558062
4.36	436	0.05	-1.133	-0.128	-12.8342592	-72.8229618	-5.9014674	80.80999632	6.60047616	-33.32323728
4.37	437	0.062	-1.095	-0.136	-15.0114996	-66.0047616	-6.3598338	80.59227228	6.57182826	-33.98786856
4.38	438	0.075	-1.068	-0.144	-17.6471064	-59.301153	-7.0473834	80.35162992	6.5603691	-34.58374488
4.39	439	0.08	-1.049	-0.159	-18.621135	-53.858052	-7.8495246	80.10525798	6.5603691	-35.12805498
4.4	440	0.079	-1.025	-0.168	-19.194093	-47.4409224	-8.4224826	79.86461562	6.56609868	-35.6093397
4.41	441	0.084	-1.01	-0.169	-19.0795014	-42.398892	-8.59437	79.62397326	6.589017	-36.04478778
4.42	442	0.09	-1	-0.169	-19.2513888	-38.5027776	-8.3651868	79.38906048	6.60620574	-36.4401288
4.43	443	0.097	-0.982	-0.175	-19.8243468	-35.6379876	-7.9068204	79.14841812	6.62912406	-36.80682192
4.44	444	0.114	-0.978	-0.182	-19.3086846	-34.37748	-7.0473834	78.91350534	6.64058322	-37.16205588
4.45	445	0.134	-0.969	-0.188	-19.0795014	-35.5806918	-5.72958	78.67859256	6.64058322	-37.528749
4.46	446	0.157	-0.954	-0.201	-18.2200644	-38.8465524	-4.010706	78.45513894	6.61193532	-37.91836044
4.47	447	0.18	-0.935	-0.209	-16.6730778	-42.3415962	-2.6356068	78.24314448	6.56609868	-38.33661978
4.48	448	0.189	-0.91	-0.21	-14.1520626	-44.6334282	-2.1199446	78.05406834	6.5030733	-38.78352702
4.49	449	0.202	-0.889	-0.212	-12.032118	-46.123119	-2.86479	77.88791052	6.45150708	-39.24189342
4.5	450	0.205	-0.881	-0.208	-9.6256944	-46.9252602	-3.4950438	77.73321186	6.4171296	-39.71744856
4.51	451	0.184	-0.888	-0.202	-7.9068204	-47.0398518	-3.7815228	77.6071611	6.36556338	-40.18154454
4.52	452	0.156	-0.908	-0.206	-7.0473834	-46.8679644	-3.8388186	77.48683992	6.31399716	-40.6513701
4.53	453	0.097	-0.94	-0.207	-7.161975	-45.6074568	-3.3231564	77.37224832	6.26243094	-41.10400692
4.54	454	0.049	-0.972	-0.226	-7.8495246	-43.3156248	-2.7501984	77.25192714	6.20513514	-41.53372542
4.55	455	0.01	-1.005	-0.226	-7.6776372	-41.0810886	-2.4064236	77.13160596	6.12492102	-41.93479602
4.56	456	-0.018	-1.029	-0.235	-8.3651868	-37.815228	-2.005353	77.01128478	6.06762522	-42.30721872
4.57	457	-0.019	-1.042	-0.239	-9.2819196	-34.0337052	-1.8907614	76.88523402	6.02178858	-42.64526394
4.58	458	-0.014	-1.045	-0.248	-9.7975818	-29.3354496	-2.3491278	76.75918326	5.9874111	-42.93747252
4.59	459	-0.002	-1.035	-0.257	-9.6829902	-24.1215318	-3.2658606	76.63886208	5.97022236	-43.18384446
4.6	460	0.014	-1.018	-0.264	-8.8235532	-19.0795014	-4.2398892	76.5185409	5.94157446	-43.3729206
4.61	461	0.036	-1.002	-0.265	-8.7089616	-14.8396122	-5.0420304	76.41540846	5.9587632	-43.53334884
4.62	462	0.052	-0.992	-0.27	-9.6256944	-10.8289062	-5.2139178	76.30654644	5.9874111	-43.64794044
4.63	463	0.067	-0.983	-0.266	-10.6570188	-8.9954406	-4.9847346	76.19195484	6.016059	-43.75107288
4.64	464	0.081	-0.975	-0.258	-12.2040054	-8.880849	-4.2398892	76.05444492	6.03324774	-43.84847574
4.65	465	0.099	-0.966	-0.254	-13.6936962	-10.026765	-3.3804522	75.89401668	6.05043648	-43.95733776
4.66	466	0.117	-0.954	-0.254	-14.5531332	-12.318597	-2.4064236	75.73358844	6.0447069	-44.08338852
4.67	467	0.134	-0.94	-0.251	-14.7823164	-15.0114996	-1.2032118	75.5731602	6.02178858	-44.23808718
4.68	468	0.148	-0.928	-0.247	-14.6677248	-17.9908812	-0.1718874	75.40700238	5.98168152	-44.40997458
4.69	469	0.156	-0.912	-0.247	-14.32395	-21.6005166	0.8021412	75.24084456	5.92438572	-44.62196904
4.7	470	0.158	-0.903	-0.249	-14.037471	-26.2414764	1.718874	75.06322758	5.86708992	-44.87980014
4.71	471	0.155	-0.902	-0.252	-13.464513	-29.7365202	2.4064236	74.90279934	5.76968706	-45.16054956
4.72	472	0.15	-0.906	-0.251	-12.6623718	-33.2888598	2.86479	74.74810068	5.66655462	-45.47567646
4.73	473	0.141	-0.917	-0.25	-11.9175264	-36.1536498	3.0366774	74.5991316	5.55196302	-45.81945126
4.74	474	0.129	-0.932	-0.253	-11.1153852	-38.0444112	2.9793816	74.4558921	5.43164184	-46.17468522
4.75	475	0.119	-0.941	-0.256	-10.3705398	-38.5027776	2.8074942	74.31838218	5.31705024	-46.54137834
4.76	476	0.109	-0.946	-0.259	-9.6256944	-38.388186	2.8074942	74.19233142	5.19672906	-46.90807146
4.77	477	0.093	-0.942	-0.261	-8.4797784	-37.5860448	2.7501984	74.07773982	5.07640788	-47.26330542
4.78	478	0.078	-0.943	-0.263	-6.875496	-36.3255372	2.578311	73.98606654	4.96181628	-47.60708022
4.79	479	0.066	-0.947	-0.263	-5.443101	-34.7212548	2.1199446	73.90585242	4.85295426	-47.93366628
4.8	480	0.057	-0.955	-0.262	-4.1252976	-32.945085	1.5469866	73.83709746	4.74982182	-48.2430636
4.81	481	0.054	-0.962	-0.262	-3.2085648	-30.939732	0.8021412	73.78553124	4.66387812	-48.54100176
4.82	482	0.058	-0.966	-0.259	-2.578311	-29.3354496	0.2291832	73.7396946	4.58939358	-48.82175118
4.83	483	0.07	-0.966	-0.26	-1.6615782	-28.1322378	-0.286479	73.70531712	4.52063862	-49.09104144
4.84	484	0.08	-0.965	-0.258	-0.6302538	-27.2728008	-0.6875496	73.6823988	4.45761324	-49.35460212
4.85	485	0.089	-0.964	-0.254	0.6302538	-26.4133638	-1.3178034	73.67093964	4.4117766	-49.61243322
4.86	486	0.1	-0.96	-0.249	1.6615782	-25.7258142	-2.1199446	73.67093964	4.36593996	-49.86453474
4.87	487	0.108	-0.957	-0.246	2.6929026	-25.0955604	-2.9220858	73.68812838	4.33156248	-50.11663626
4.88	488	0.113	-0.954	-0.24	3.6669312	-24.5798982	-3.724227	73.70531712	4.30864416	-50.3630082
4.89	489	0.117	-0.952	-0.234	4.4117766	-24.2934192	-4.297185	73.7396946	4.29145542	-50.60938014
4.9	490	0.117	-0.948	-0.228	5.0993262	-24.0069402	-4.6982556	73.77980166	4.29145542	-50.8500225
4.91	491	0.111	-0.945	-0.224	5.5576926	-23.777757	-4.9274388	73.81990872	4.27999626	-51.09066486
4.92	492	0.104	-0.944	-0.224	5.72958	-22.631841	-5.2712136	73.86574536	4.27426668	-51.32557764
4.93	493	0.101	-0.942	-0.224	6.0733548	-21.0848544	-5.5576926	73.91731158	4.27426668	-51.54330168
4.94	494	0.095	-0.949	-0.223	6.7036086	-19.2513888	-6.016059	73.9688778	4.28572584	-51.74383698
4.95	495	0.09	-0.957	-0.226	7.1046792	-17.9335854	-6.4171296	74.03763276	4.30864416	-51.93291312
4.96	496	0.087	-0.968	-0.226	7.5630456	-16.7303736	-6.5317212	74.10638772	4.33156248	-52.1105301
4.97	497	0.082	-0.977	-0.229	8.0787078	-15.2406828	-6.589017	74.17514268	4.36021038	-52.27668792
4.98	498	0.082	-0.981	-0.227	8.9381448	-13.464513	-6.589017	74.2553568	4.38885828	-52.41992742
4.99	499	0.082	-0.984	-0.223	10.1413566	-11.45916	-6.5317212	74.35275966	4.42896534	-52.54597818
5	500	0.086	-0.986	-0.221	11.1153852	-9.1100322	-6.8182002	74.46735126	4.48053156	-52.64911062
5.01	501	0.09	-0.995	-0.217	12.032118	-6.9327918	-7.1046792	74.58767244	4.53209778	-52.73505432
5.02	502	0.099	-0.975	-0.203	11.2299768	-4.583664	-7.9641162	74.69653446	4.59512316	-52.7980797
5.03	503	0.114	-0.962	-0.208	10.9434978	-3.2658606	-8.3651868	74.7996669	4.6696077	-52.8553755
5.04	504	0.131	-0.964	-0.202	11.8602306	-2.9220858	-7.8495246	74.91998808	4.74409224	-52.90121214
5.05	505	0.147	-0.964	-0.203	12.2613012	-2.4064236	-7.0473834	75.05176842	4.8414951	-52.94704878
5.06	506	0.154	-0.968	-0.201	12.032118	-2.2345362	-6.0733548	75.1720896	4.8987909	-52.98142626
5.07	507	0.159	-0.969	-0.199	11.172681	-2.86479	-4.9847346	75.2866812	4.93889796	-53.02153332
5.08	508	0.16	-0.963	-0.198	9.7975818	-3.6669312	-3.9534102	75.37835448	4.97327544	-53.06736996
5.09	509	0.161	-0.954	-0.199	8.7662574	-4.7555514	-2.9793816	75.46429818	4.99046418	-53.11893618
5.1	510	0.148	-0.946	-0.2	7.6203414	-6.016059	-1.6042824	75.55024188	5.03630082	-53.18769114
5.11	511	0.135	-0.944	-0.201	7.2765666	-6.7609044	-0.6875496	75.61899684	5.03057124	-53.2564461
5.12	512	0.126	-0.947	-0.201	6.875496	-7.448454	0	75.68202222	5.0133825	-53.33093064
5.13	513	0.123	-0.953	-0.201	6.4171296	-8.021412	0.6302538	75.73931802	4.99046418	-53.40541518
5.14	514	0.118	-0.959	-0.203	5.9587632	-8.59437	1.145916	75.79661382	4.96181628	-53.4856293
5.15	515	0.111	-0.966	-0.204	5.5003968	-9.453807	1.8907614	75.85390962	4.94462754	-53.571573
5.16	516	0.107	-0.972	-0.208	4.9847346	-10.2559482	2.6929026	75.89974626	4.89306132	-53.66324628
5.17	517	0.109	-0.973	-0.208	4.4690724	-11.2872726	3.6096354	75.93412374	4.83576552	-53.76637872
5.18	518	0.11	-0.975	-0.204	4.1252976	-12.3758928	4.6982556	75.96850122	4.76701056	-53.87524074
5.19	519	0.11	-0.978	-0.204	3.8961144	-13.3499214	5.6149884	76.0028787	4.68106686	-53.98983234
5.2	520	0.107	-0.979	-0.203	3.6669312	-13.9801752	6.4171296	76.03725618	4.60658232	-54.11015352
5.21	521	0.104	-0.979	-0.204	3.437748	-14.2666542	7.2192708	76.06590408	4.50344988	-54.2304747
5.22	522	0.097	-0.982	-0.203	3.6096354	-14.610429	7.7922288	76.09455198	4.40031744	-54.35652546
5.23	523	0.087	-0.985	-0.201	4.1825934	-13.8655836	8.021412	76.12892946	4.29145542	-54.47111706
5.24	524	0.08	-0.985	-0.198	5.2712136	-12.4904844	8.021412	76.18049568	4.18832298	-54.5742495
5.25	525	0.077	-0.975	-0.194	9.0527364	-11.2299768	7.2765666	76.27216896	4.10237928	-54.66592278
5.26	526	0.064	-0.982	-0.179	17.5898106	-13.178034	6.5317212	76.44405636	4.010706	-54.7747848
5.27	527	0.078	-1.018	-0.168	19.8243468	-16.1574156	6.589017	76.63886208	3.91903272	-54.91229472
5.28	528	0.099	-1.035	-0.143	13.2353298	-14.9542038	7.2192708	76.77064242	3.81590028	-55.04407506
5.29	529	0.133	-1.027	-0.121	4.5263682	-8.880849	8.880849	76.81074948	3.71276784	-55.10710044
5.3	530	0.168	-1.01	-0.14	1.145916	-3.0366774	11.2299768	76.85658612	3.68411994	-55.12428918
5.31	531	0.177	-0.998	-0.158	1.4896908	0.4583664	13.8082878	76.87950444	3.5523396	-55.08418212
5.32	532	0.15	-0.971	-0.165	2.005353	2.6356068	15.9282324	76.90242276	3.40337052	-55.02688632
5.33	533	0.123	-0.94	-0.162	3.4950438	4.4117766	17.1314442	76.94252982	3.24294228	-54.94094262
5.34	534	0.09	-0.919	-0.16	5.3285094	6.4171296	17.4179232	76.99982562	3.08824362	-54.84353976
5.35	535	0.069	-0.907	-0.174	6.7609044	7.734933	16.902261	77.07431016	2.9507337	-54.72894816
5.36	536	0.058	-0.906	-0.188	7.6776372	8.880849	15.756345	77.16025386	2.81322378	-54.60862698
5.37	537	0.06	-0.913	-0.197	7.8495246	9.8548776	14.5531332	77.24619756	2.6929026	-54.48257622
5.38	538	0.068	-0.92	-0.205	7.9068204	10.9434978	13.5791046	77.33214126	2.58404058	-54.3450663
5.39	539	0.084	-0.928	-0.209	8.4224826	11.8602306	12.891555	77.42381454	2.48090814	-54.19609722
5.4	540	0.098	-0.94	-0.214	9.0527364	11.8602306	12.5477802	77.50402866	2.4064236	-54.06431688
5.41	541	0.118	-0.955	-0.213	9.453807	11.0007936	12.4904844	77.6071611	2.30329116	-53.92680696
5.42	542	0.129	-0.971	-0.214	9.5111028	9.5683986	12.7769634	77.70456396	2.20015872	-53.80648578
5.43	543	0.13	-0.981	-0.213	9.3392154	8.0787078	12.8342592	77.8076964	2.0912967	-53.70335334
5.44	544	0.131	-0.982	-0.21	8.6516658	6.7609044	12.1467096	77.8936401	1.98816426	-53.60595048
5.45	545	0.12	-0.98	-0.202	7.7922288	5.72958	11.2872726	77.96812464	1.93086846	-53.53719552
5.46	546	0.116	-0.971	-0.198	6.7036086	5.2712136	9.9121734	78.0368796	1.84492476	-53.46844056
5.47	547	0.105	-0.97	-0.191	5.9014674	5.72958	8.307891	78.09990498	1.77044022	-53.39395602
5.48	548	0.104	-0.976	-0.184	5.0420304	6.3598338	6.7036086	78.1514712	1.718874	-53.3137419
5.49	549	0.11	-0.991	-0.178	3.9534102	6.9900876	4.870143	78.19157826	1.68449652	-53.23925736
5.5	550	0.117	-1.009	-0.172	1.6042824	7.2192708	3.6669312	78.22022616	1.7475219	-53.17623198
5.51	551	0.126	-1.023	-0.175	-1.3750992	7.1046792	3.0366774	78.208767	1.73033316	-53.10174744
5.52	552	0.123	-1.033	-0.185	-4.583664	5.9587632	2.6929026	78.16293036	1.71314442	-53.03872206
5.53	553	0.111	-1.042	-0.197	-7.448454	4.2398892	2.2345362	78.08271624	1.70168526	-52.99288542
5.54	554	0.095	-1.043	-0.199	-10.7143146	3.7815228	1.4896908	77.97385422	1.6902261	-52.95277836
5.55	555	0.078	-1.032	-0.191	-13.4072172	4.870143	0.4010706	77.84207388	1.718874	-52.9126713
5.56	556	0.061	-1.021	-0.177	-18.5065434	7.161975	-0.7448454	77.65872732	1.73606274	-52.84391634
5.57	557	0.06	-0.984	-0.157	-26.0122932	11.4018642	-2.2345362	77.39516664	1.7761698	-52.7407839
5.58	558	0.075	-0.93	-0.164	-34.2055926	15.5844576	-2.1199446	77.05139184	1.82773602	-52.5975444
5.59	559	0.076	-0.847	-0.22	-38.3308902	16.615782	-0.859437	76.6617804	1.8621135	-52.44284574
5.6	560	0.058	-0.757	-0.239	-36.096354	19.5378678	-0.1718874	76.2893577	1.90795014	-52.25949918
5.61	561	0.058	-0.676	-0.213	-34.2055926	24.7517856	-0.8021412	75.9455829	1.96524594	-52.0245864
5.62	562	0.064	-0.596	-0.2	-35.236917	23.0902074	-1.7761698	75.59034894	2.02827132	-51.80686236
5.63	563	0.079	-0.532	-0.227	-33.804522	15.6990492	-1.9480572	75.25230372	2.07983754	-51.66362286
5.64	564	0.103	-0.508	-0.241	-27.7311672	8.8235532	0	74.9715543	2.09702628	-51.58340874
5.65	565	0.119	-0.535	-0.23	-22.8610242	2.6929026	4.7555514	74.72518236	2.06837838	-51.54903126
5.66	566	0.1	-0.552	-0.217	-21.1421502	-4.010706	8.1360036	74.50745832	1.9767051	-51.57194958
5.67	567	0.098	-0.573	-0.21	-20.626488	-8.9381448	10.6570188	74.30119344	1.85065434	-51.62924538
5.68	568	0.133	-0.606	-0.189	-19.6524594	-13.3499214	11.6883432	74.10065814	1.70741484	-51.72664824
5.69	569	0.187	-0.653	-0.163	-18.621135	-13.6936962	12.032118	73.90585242	1.55271618	-51.82978068
5.7	570	0.243	-0.693	-0.133	-18.621135	-13.8082878	11.8602306	73.72823544	1.44958374	-51.9386427
5.71	571	0.274	-0.723	-0.113	-21.2567418	-18.2773602	11.3445684	73.5105114	1.29488508	-52.0818822
5.72	572	0.284	-0.731	-0.111	-24.6944898	-21.8296998	9.9694692	73.25840988	1.14018642	-52.26522876
5.73	573	0.292	-0.708	-0.118	-26.8144344	-24.350715	9.3965112	72.98339004	0.98548776	-52.47722322
5.74	574	0.289	-0.674	-0.132	-26.9863218	-26.4706596	9.5111028	72.71409978	0.81932994	-52.70067684
5.75	575	0.279	-0.662	-0.165	-28.3041252	-29.6792244	10.886202	72.4218912	0.67036086	-52.96423752
5.76	576	0.278	-0.65	-0.207	-28.5906042	-31.226211	13.8655836	72.1354122	0.45263682	-53.22206862
5.77	577	0.288	-0.656	-0.225	-26.8717302	-31.6845774	17.6471064	71.86612194	0.18907614	-53.46844056
5.78	578	0.292	-0.675	-0.228	-27.8457588	-35.523396	20.7983754	71.58537252	-0.10313244	-53.7434604
5.79	579	0.299	-0.663	-0.242	-30.5386614	-42.112413	21.8296998	71.28743436	-0.43544808	-54.07577604
5.8	580	0.297	-0.633	-0.249	-31.226211	-50.133825	20.6837838	70.97230746	-0.7448454	-54.49403538
5.81	581	0.267	-0.587	-0.255	-31.8564648	-58.8427866	17.3033316	70.66291014	-1.0886202	-54.99250884
5.82	582	0.206	-0.523	-0.245	-30.8824362	-69.7862844	13.3499214	70.37070156	-1.42666542	-55.61130348
5.83	583	0.126	-0.454	-0.222	-29.507337	-77.7504006	9.3965112	70.1014113	-1.75898106	-56.31031224
5.84	584	0.043	-0.397	-0.194	-27.9603504	-82.0475856	7.2192708	69.85503936	-2.08556712	-57.06088722
5.85	585	-0.043	-0.332	-0.147	-25.3247436	-85.4280378	8.2505952	69.63731532	-2.44653066	-57.83438052
5.86	586	-0.133	-0.294	-0.087	-22.4599536	-89.1522648	11.745639	69.45969834	-2.84187168	-58.63079214
5.87	587	-0.2	-0.261	-0.023	-20.8556712	-91.5586884	16.9595568	69.30499968	-3.2945085	-59.42720376
5.88	588	-0.233	-0.215	0.041	-19.7097552	-91.3295052	22.4026578	69.16176018	-3.80444112	-60.20642664
5.89	589	-0.236	-0.167	0.088	-19.0795014	-90.813843	27.6165756	69.03570942	-4.36021038	-60.95700162
5.9	590	-0.215	-0.11	0.109	-19.2513888	-89.7252228	30.3094782	68.9268474	-4.96181628	-61.69038786
5.91	591	-0.139	-0.057	0.122	-18.8503182	-84.1675302	31.4553942	68.80652622	-5.53477428	-62.3664783
5.92	592	-0.046	-0.018	0.108	-18.621135	-80.787078	31.9137606	68.6976642	-6.1020027	-63.00819126
5.93	593	0.047	-0.01	0.049	-15.2979786	-80.21412	31.7418732	68.62317966	-6.66350154	-63.64417464
5.94	594	0.098	-0.029	0.028	-8.6516658	-86.1728832	31.2835068	68.62890924	-7.24218912	-64.3431834
5.95	595	0.088	-0.046	0.049	-1.8907614	-88.5793068	31.226211	68.73204168	-7.81514712	-65.0593809
5.96	596	0.043	-0.076	0.048	1.145916	-82.8497268	31.5699858	68.84663328	-8.38237554	-65.72401218
5.97	597	-0.005	-0.134	-0.039	2.86479	-73.1094408	31.1689152	68.97268404	-8.9094969	-66.30269976
5.98	598	-0.092	-0.238	-0.276	-0.4010706	-59.7022236	31.1116194	69.04716858	-9.3965112	-66.75533658
5.99	599	-0.137	-0.329	-0.472	-5.72958	-39.3049188	31.6845774	69.041439	-9.82050012	-67.01316768
6	600	-0.178	-0.443	-0.675	-13.1207382	-19.5378678	35.2942128	68.82371496	-10.22157072	-67.07046348
6.01	601	-0.297	-0.513	-0.807	-15.3552744	-17.6471064	41.9978214	68.6690163	-10.67420754	-67.08765222
6.02	602	-0.506	-0.627	-0.893	-6.6463128	-18.5065434	48.5868384	68.60599092	-11.18414016	-67.08765222
6.03	603	-0.628	-0.755	-0.928	-2.9793816	-19.2513888	51.9672906	68.57734302	-11.73417984	-67.07619306
6.04	604	-0.63	-0.858	-0.877	-6.7036086	-28.2468294	55.003968	68.53150638	-12.33578574	-67.14494802
6.05	605	-0.467	-0.871	-0.818	-5.6722842	-47.1544434	63.598338	68.4971289	-13.08636072	-67.35694248
6.06	606	-0.085	-0.834	-0.754	1.3178034	-54.3737142	77.2347384	68.57161344	-13.98590478	-67.58612568
6.07	607	0.292	-0.668	-0.725	5.0420304	-52.425657	88.6366026	68.67474588	-14.9828517	-67.76374266
6.08	608	0.405	-0.497	-0.621	15.0114996	-66.5204238	98.6633676	68.91538824	-16.11157896	-68.0387625
6.09	609	0.273	-0.483	-0.549	30.7105488	-84.224826	108.3463578	69.36229548	-17.39500488	-68.46275142
6.1	610	0.118	-0.618	-0.492	46.123119	-101.700045	112.4716554	70.0154676	-18.74145618	-69.05289816
6.11	611	-0.15	-0.909	-0.428	60.2751816	-127.7123382	112.9300218	70.94365956	-20.17958076	-69.9295239
6.12	612	-0.43	-1.3	-0.416	54.9466722	-154.5840684	112.8154302	71.94633606	-21.6864603	-71.10981738
6.13	613	-0.658	-1.713	-0.439	45.7220484	-177.61698	116.310474	72.98911962	-23.2620948	-72.55940112
6.14	614	-0.983	-2.56	-0.479	42.3415962	-203.6292732	112.8154302	74.17514268	-24.84918846	-74.3413005
6.15	615	-1.3	-3.269	-0.335	45.0917946	-227.8081008	110.0652318	75.58461936	-26.42482296	-76.45551552
6.16	616	-1.792	-2.816	-0.046	46.0085274	-244.7103618	142.5519504	77.13733554	-28.3041252	-78.74161794
6.17	617	-2.203	-2.787	0.293	82.1621772	-251.9869284	189.5918022	79.17133644	-30.58449804	-81.10793448
6.18	618	-2.402	-2.873	0.79	112.1851764	-241.0434306	236.058696	81.56630088	-33.22010484	-83.4226848
6.19	619	-2.103	-2.474	1.249	120.9514338	-219.6720972	284.0152806	84.07585692	-36.22240476	-85.61711394
6.2	620	-1.53	-1.986	1.373	148.7398968	-189.5345064	316.6165908	86.87189196	-39.43669914	-87.662574
6.21	621	-1.27	-1.878	1.177	163.3503258	-153.8965188	296.9641314	89.78824818	-42.37597368	-89.54760582
6.22	622	-1.772	-1.545	0.868	150.5733624	-125.2486188	258.9197202	92.55563532	-44.87407056	-91.31231646
6.23	623	-2.443	-1.046	0.649	158.3082954	-73.8542862	236.2878792	95.07665052	-47.13725466	-92.56709448
6.24	624	-2.359	-0.485	0.4	168.2204688	-26.069589	218.0678148	97.32264588	-49.24001052	-93.2775624
6.25	625	-1.581	-0.005	0.129	166.6734822	1.2605076	197.7851016	99.32799888	-51.19952688	-93.67290342
6.26	626	-0.612	0.011	-0.045	176.471064	20.626488	177.2732052	101.2416786	-52.95850794	-93.83333166
6.27	627	-0.052	-0.036	0.17	169.595568	9.6829902	158.9385492	103.2699499	-54.5169537	-94.21148394
6.28	628	0.319	0.006	0.365	155.7299844	-11.8029348	149.3128548	105.5216749	-55.90924164	-95.0250843
6.29	629	0.27	0	0.575	159.282324	-41.1383844	150.2295876	108.3635465	-57.19839714	-96.48039762
6.3	630	-0.035	-0.113	0.64	155.9018718	-61.1919144	150.6306582	111.6809734	-58.36723146	-98.49720978
6.31	631	-0.438	-0.243	0.543	140.0309352	-55.8061092	151.8911658	114.9067269	-59.51314746	-100.5942361
6.32	632	-0.891	-0.465	0.261	132.926256	-22.9756158	158.9385492	117.811624	-60.81376212	-102.381865
6.33	633	-1.316	-0.433	0.269	131.2646778	-7.2192708	178.7056002	120.8425718	-62.32064166	-104.3070039
6.34	634	-1.117	-0.282	0.482	139.1142024	-1.145916	199.3320882	124.3548043	-63.97649028	-106.6561317
6.35	635	-1.231	-0.231	0.616	138.0255822	-13.5791046	214.3435878	128.6577189	-65.603691	-109.8532373
6.36	636	-1.249	-0.128	0.569	133.7283972	-8.021412	214.9738416	133.3273266	-67.15640718	-113.4628727
6.37	637	-1.273	-0.012	0.692	126.1080558	-19.5378678	203.9157522	138.4610303	-68.42264436	-117.6168182
6.38	638	-1.365	0.051	0.994	98.548776	-49.0452048	176.5283598	143.7207847	-69.13884186	-122.1718343
6.39	639	-1.514	0.186	1.12	75.6877518	-66.1193532	155.1570264	148.7857334	-69.4425096	-126.7554983
6.4	640	-1.755	0.166	1.125	60.0459984	-75.630456	140.947668	153.5871215	-69.44823918	-131.2188412
6.41	641	-1.852	-0.032	1.229	52.8840234	-89.2095606	124.2172944	158.0046277	-69.14457144	-135.3441388
6.42	642	-1.406	-0.259	1.098	32.3148312	-91.2149136	106.4555964	161.6543701	-68.65182756	-138.8907488
6.43	643	-1.286	-0.451	0.698	18.048177	-93.4494498	82.5632478	164.438946	-67.99865544	-141.6753247
6.44	644	-1.301	-0.381	0.474	4.6409598	-99.4655088	53.285094	166.2781412	-67.17359592	-143.6004635
6.45	645	-1.149	-0.087	0.514	-22.5172494	-103.991877	26.4706596	167.1776852	-66.22248564	-144.8036753
6.46	646	-1.075	0.384	0.422	-15.469866	-90.0689976	19.1367972	167.8251278	-65.38596696	-145.6688419
6.47	647	-1.106	0.591	0.456	7.0473834	-75.057498	24.6944898	168.7017535	-64.70987652	-146.5511972
6.48	648	-1.077	0.556	0.638	21.485925	-76.3753014	24.4653066	169.6757821	-64.01086776	-147.3762568
6.49	649	-1.076	0.367	0.724	26.0122932	-64.6296624	16.042824	170.4492754	-63.40353228	-147.9377556
6.5	650	-1.08	0.231	0.778	22.1161788	-48.0138804	2.86479	170.919101	-62.92224756	-148.178398
6.51	651	-0.982	0.277	0.733	13.0061466	-31.51269	-7.0473834	170.9993151	-62.60139108	-148.1153726
6.52	652	-0.827	0.344	0.435	2.8074942	-20.8556712	-11.745639	170.8560756	-62.37793746	-147.9205669
6.53	653	-0.71	0.382	0.197	4.2398892	-11.8602306	-13.9228794	170.672729	-62.24042754	-147.6627358
6.54	654	-0.555	0.467	0.223	9.2246238	-13.6936962	-11.1153852	170.5925149	-62.09145846	-147.4622005
6.55	655	-0.562	0.431	0.362	18.048177	-15.183387	-6.5317212	170.8789939	-61.91957106	-147.5137667
6.56	656	-0.687	0.205	0.505	25.4393352	-18.8503182	-14.8396122	170.9076418	-61.71330618	-147.250206
6.57	657	-0.781	0.109	0.61	16.5011904	-16.329303	-20.7983754	170.7357544	-61.51850046	-146.8605946
6.58	658	-0.843	0.078	0.69	7.5630456	-12.5477802	-25.3820394	170.38625	-61.35807222	-146.3735803
6.59	659	-0.86	0.057	0.719	3.0939732	-8.0787078	-29.8511118	169.9049653	-61.23202146	-145.7891631
6.6	660	-0.878	0.008	0.672	1.3178034	-1.8907614	-36.2682414	169.3320073	-61.11170028	-145.1016135
6.61	661	-0.85	-0.034	0.6	-3.7815228	4.297185	-42.7426668	168.5298661	-61.07159322	-144.2249878
6.62	662	-0.814	-0.04	0.521	-9.6829902	1.8907614	-44.977203	167.6303221	-61.00283826	-143.3139845
6.63	663	-0.829	-0.03	0.465	-10.2559482	-5.9587632	-45.83664	166.7536963	-60.84241002	-142.4258996
6.64	664	-0.843	-0.034	0.461	-7.734933	-8.5370742	-50.706783	165.8312339	-60.64187472	-141.4633302
6.65	665	-0.796	-0.025	0.485	-7.161975	-4.1252976	-56.0925882	164.8629349	-60.45852816	-140.4205466
6.66	666	-0.796	-0.026	0.494	-3.2658606	2.3491278	-59.4157446	163.8144218	-60.32101824	-139.2574419
6.67	667	-0.848	-0.05	0.529	-0.1145916	10.3705398	-62.9107884	162.7143424	-60.24080412	-137.9969343
6.68	668	-0.918	-0.085	0.626	2.1772404	17.2460358	-67.1506776	161.5397785	-60.20069706	-136.6161055
6.69	669	-0.993	-0.085	0.704	1.6615782	22.9756158	-69.041439	160.3021892	-60.20069706	-135.1722514
6.7	670	-1.059	-0.077	0.76	5.72958	25.9549974	-67.1506776	159.1390845	-60.20642664	-133.7685043
6.71	671	-1.077	-0.077	0.769	11.5164558	24.923673	-62.5097178	158.0963009	-60.21215622	-132.4277825
6.72	672	-1.057	-0.089	0.73	20.626488	21.772404	-56.8947294	157.2483231	-60.20642664	-131.2188412
6.73	673	-1.026	-0.137	0.653	29.9657034	20.2254174	-49.274388	156.6295285	-60.20069706	-130.1588689
6.74	674	-0.976	-0.188	0.6	30.366774	23.0329116	-42.685371	156.0966775	-60.2465337	-129.1962994
6.75	675	-0.923	-0.247	0.54	25.9549974	27.788463	-36.8984952	155.5695562	-60.34966614	-128.2910258
6.76	676	-0.871	-0.274	0.535	22.8037284	32.4867186	-32.5440144	155.0481644	-60.51009438	-127.4315888
6.77	677	-0.82	-0.279	0.536	16.9595568	35.6379876	-29.4500412	154.4923951	-60.71062968	-126.6007997
6.78	678	-0.837	-0.255	0.517	12.3758928	37.3568616	-28.8770832	153.8736005	-60.92262414	-125.7585514
6.79	679	-0.806	-0.229	0.509	7.6203414	36.2109456	-27.1009134	153.2376171	-61.12888902	-124.9449511
6.8	680	-0.821	-0.226	0.486	5.72958	34.091001	-26.1841806	152.6016337	-61.306506	-124.1599986
6.81	681	-0.801	-0.242	0.476	4.5263682	33.4607472	-24.4653066	151.9771095	-61.48985256	-123.403694
6.82	682	-0.825	-0.228	0.471	0	33.8618178	-21.0848544	151.3525853	-61.69038786	-122.6989557
6.83	683	-0.807	-0.265	0.47	0	35.4661002	-17.5325148	150.7624385	-61.91957106	-122.0343244
6.84	684	-0.851	-0.31	0.479	-0.7448454	35.8671708	-13.9228794	150.2123989	-62.16021342	-121.4212594
6.85	685	-0.889	-0.294	0.485	-2.5210152	39.4195104	-9.9694692	149.6623592	-62.42950368	-120.8368422
6.86	686	-0.876	-0.292	0.493	-3.437748	41.825934	-3.0939732	149.1810745	-62.77900806	-120.3440983
6.87	687	-0.848	-0.32	0.483	-3.3231564	46.8679644	0.8021412	148.7112489	-63.18580824	-119.857084
6.88	688	-0.863	-0.323	0.471	-4.1252976	48.414951	3.8961144	148.2528825	-63.62125632	-119.3987176
6.89	689	-0.857	-0.334	0.461	-4.870143	48.3003594	5.2139178	147.7945161	-64.06243398	-118.9518104
6.9	690	-0.846	-0.318	0.462	-6.6463128	46.3523022	7.1046792	147.3476089	-64.46350458	-118.5392806
6.91	691	-0.853	-0.315	0.455	-7.0473834	45.7220484	7.8495246	146.9121608	-64.89322308	-118.1496692
6.92	692	-0.865	-0.304	0.443	-7.9068204	47.0398518	9.1100322	146.4652535	-65.34013032	-117.7485986
6.93	693	-0.869	-0.302	0.435	-9.0527364	49.1597964	11.2872726	146.0068871	-65.80995588	-117.3532576
6.94	694	-0.862	-0.296	0.433	-10.0840608	50.8786704	13.5791046	145.5370616	-66.30842934	-116.9636461
6.95	695	-0.876	-0.301	0.424	-10.1413566	52.2537696	15.0687954	145.0615064	-66.81263238	-116.5568459
6.96	696	-0.921	-0.295	0.413	-11.3445684	54.6601932	18.2200644	144.5859513	-67.36267206	-116.1786937
6.97	697	-0.925	-0.275	0.4	-12.605076	57.9260538	21.4286292	144.0932074	-67.96427796	-115.7890822
6.98	698	-0.884	-0.23	0.379	-12.9488508	59.2438572	23.4339822	143.594734	-68.5830726	-115.4052004
6.99	699	-0.871	-0.195	0.345	-12.3758928	57.5249832	23.0902074	143.1019901	-69.17894892	-115.0155889
7	700	-0.875	-0.16	0.307	-13.2926256	55.8061092	21.1421502	142.5748687	-69.7576365	-114.6087887
7.01	701	-0.869	-0.127	0.285	-15.6990492	52.9413192	18.2773602	141.9618037	-70.29048744	-114.127504
7.02	702	-0.879	-0.11	0.274	-17.0168526	48.5868384	16.1001198	141.3315499	-70.77177216	-113.6519489
7.03	703	-0.899	-0.111	0.262	-17.6471064	45.7220484	13.464513	140.661189	-71.21294982	-113.1362867
7.04	704	-0.904	-0.122	0.257	-19.0795014	44.5188366	11.0580894	139.910614	-71.63120916	-112.5575991
7.05	705	-0.912	-0.127	0.253	-21.1421502	42.8572584	9.5111028	139.1428503	-72.02655018	-111.9731819
7.06	706	-0.935	-0.138	0.243	-22.058883	40.3362432	7.8495246	138.3120612	-72.38178414	-111.3429281
7.07	707	-0.959	-0.149	0.235	-22.9756158	39.1330314	6.3598338	137.4354355	-72.71982936	-110.6725673
7.08	708	-0.975	-0.157	0.225	-23.8923486	39.1903272	5.72958	136.5015139	-73.04641542	-109.9563698
7.09	709	-0.988	-0.164	0.217	-22.8610242	38.5600734	6.4744254	135.573322	-73.37300148	-109.2344427
7.1	710	-1.001	-0.174	0.198	-20.9702628	38.9038482	7.5057498	134.6565892	-73.7110467	-108.506786
7.11	711	-0.997	-0.183	0.187	-18.048177	38.4454818	8.307891	133.7570451	-74.04336234	-107.7676702
7.12	712	-0.978	-0.185	0.176	-15.2406828	36.4974246	9.740286	132.9377152	-74.36421882	-107.0801206
7.13	713	-0.957	-0.18	0.162	-12.032118	33.8618178	11.0007936	132.2157881	-74.67934572	-106.4670556
7.14	714	-0.938	-0.166	0.153	-9.6829902	31.0543236	12.318597	131.602723	-74.98301346	-105.9342046
7.15	715	-0.917	-0.148	0.152	-7.0473834	27.8457588	13.0061466	131.1157087	-75.27522204	-105.5044861
7.16	716	-0.896	-0.122	0.159	-4.7555514	24.5226024	13.0634424	130.703179	-75.53878272	-105.1320634
7.17	717	-0.891	-0.094	0.161	-1.7761698	21.772404	12.0894138	130.3651337	-75.7736955	-104.8054774
7.18	718	-0.898	-0.074	0.161	0.1145916	21.1421502	10.4851314	130.0156294	-75.99141954	-104.4445138
7.19	719	-0.916	-0.062	0.166	1.6042824	21.3140376	7.9068204	129.5916404	-76.19195484	-103.9976066
7.2	720	-0.924	-0.062	0.172	2.2345362	21.6005166	5.2139178	129.270784	-76.4039493	-103.6251839
7.21	721	-0.931	-0.064	0.18	2.1199446	20.7410796	2.4064236	128.7035555	-76.55864796	-103.0178484
7.22	722	-0.94	-0.076	0.184	2.2345362	19.5951636	-0.286479	128.0904905	-76.67896914	-102.3704059
7.23	723	-0.951	-0.093	0.185	1.2605076	17.6471064	-2.578311	127.4602367	-76.77064242	-101.7115042
7.24	724	-0.958	-0.11	0.184	0.1718874	15.9282324	-4.2398892	126.8242533	-76.8336678	-101.058332
7.25	725	-0.967	-0.126	0.175	-0.859437	13.6364004	-5.6149884	126.3773461	-76.88523402	-100.5942361
7.26	726	-0.972	-0.14	0.169	-1.2032118	12.032118	-6.016059	125.8043881	-76.91388192	-100.0212781
7.27	727	-0.973	-0.151	0.165	-1.718874	11.2872726	-6.0733548	125.2543484	-76.93107066	-99.47123838
7.28	728	-0.976	-0.156	0.161	-2.1199446	10.886202	-5.6722842	124.7157679	-76.9482594	-98.9498466
7.29	729	-0.973	-0.159	0.155	-2.1199446	10.1986524	-5.6149884	124.2058352	-76.95971856	-98.44564356
7.3	730	-0.971	-0.156	0.15	-2.0626488	9.6829902	-5.5003968	123.8104942	-76.98263688	-98.05603212
7.31	731	-0.963	-0.157	0.145	-1.8907614	9.167328	-5.443101	123.3406687	-76.99409604	-97.59193614
7.32	732	-0.959	-0.161	0.142	-1.8334656	8.307891	-5.3285094	122.899491	-76.99409604	-97.16221764
7.33	733	-0.96	-0.163	0.142	-2.1772404	6.0733548	-5.2712136	122.5385275	-76.98263688	-96.81844284
7.34	734	-0.943	-0.169	0.136	-2.3491278	3.724227	-5.0993262	122.2635076	-76.95971856	-96.56061174
7.35	735	-0.946	-0.171	0.136	-2.1772404	2.4064236	-4.7555514	122.1374569	-76.94252982	-96.44029056
7.36	736	-0.946	-0.18	0.135	-1.718874	1.7761698	-4.2398892	121.9598399	-76.91388192	-96.27986232
7.37	737	-0.947	-0.187	0.137	-1.6042824	1.2032118	-3.3804522	121.82233	-76.8909636	-96.15381156
7.38	738	-0.949	-0.19	0.139	-1.432395	0.5156622	-2.578311	121.7249271	-76.87377486	-96.07359744
7.39	739	-0.952	-0.192	0.14	-1.4896908	0.2291832	-1.8907614	121.6619017	-76.8623157	-96.02203122
7.4	740	-0.954	-0.188	0.142	-1.6042824	-0.1145916	-1.2605076	121.8452483	-76.82793822	-96.20537778
7.41	741	-0.954	-0.184	0.145	-1.2605076	-0.6302538	-0.4583664	121.8452483	-76.81647906	-96.22256652
7.42	742	-0.954	-0.18	0.148	-0.9167328	-1.2032118	0.1145916	121.8853553	-76.81074948	-96.26840316
7.43	743	-0.955	-0.178	0.153	-0.8021412	-1.6615782	0.5156622	121.9483807	-76.8050199	-96.3428877
7.44	744	-0.955	-0.175	0.157	-0.9167328	-2.1199446	0.9167328	122.0343244	-76.8050199	-96.44029056
7.45	745	-0.959	-0.171	0.162	-1.0886202	-2.6356068	0.9740286	122.6072824	-76.79929032	-96.99605982
7.46	746	-0.964	-0.166	0.168	-1.0886202	-2.9220858	1.0313244	122.721874	-76.79356074	-97.12784016
7.47	747	-0.966	-0.164	0.174	-1.0313244	-3.0939732	0.9167328	122.8421952	-76.78210158	-97.2596205
7.48	748	-0.97	-0.162	0.181	-0.9167328	-3.151269	0.9167328	122.9625164	-76.77064242	-97.39713042
7.49	749	-0.972	-0.163	0.185	-0.9167328	-3.2085648	0.9167328	123.0885671	-76.75918326	-97.53464034
7.5	750	-0.974	-0.164	0.187	-0.6875496	-3.2085648	1.0886202	123.8506013	-76.74199452	-98.262297
7.51	751	-0.976	-0.162	0.189	-0.4583664	-3.2658606	1.2032118	123.9881112	-76.73053536	-98.41126608
7.52	752	-0.977	-0.16	0.189	-0.286479	-3.2658606	1.3750992	124.1313507	-76.72480578	-98.56023516
7.53	753	-0.98	-0.16	0.189	0	-3.151269	1.3750992	124.2745902	-76.7190762	-98.70347466
7.54	754	-0.981	-0.158	0.192	0.1145916	-2.8074942	1.3750992	124.4063705	-76.71334662	-98.84098458
7.55	755	-0.982	-0.155	0.192	0.2291832	-2.3491278	1.2605076	125.3861287	-76.70761704	-99.75771738
7.56	756	-0.983	-0.153	0.193	0.5156622	-2.2345362	1.145916	125.4949907	-76.70761704	-99.8665794
7.57	757	-0.984	-0.15	0.194	0.7448454	-2.2345362	0.859437	125.6038528	-76.70188746	-99.96398226
7.58	758	-0.983	-0.15	0.193	0.9740286	-2.3491278	0.6302538	125.7069852	-76.6904283	-100.0613851
7.59	759	-0.979	-0.151	0.193	1.0313244	-2.5210152	0.3437748	125.8101176	-76.67896914	-100.158788
7.6	760	-0.972	-0.151	0.196	0.572958	-2.9793816	0.1145916	126.7497688	-76.65032124	-101.0354137
7.61	761	-0.969	-0.151	0.198	0	-3.8961144	-0.0572958	126.8758195	-76.62740292	-101.1614645
7.62	762	-0.967	-0.149	0.195	-0.1718874	-4.9274388	-0.2291832	127.0305182	-76.59302544	-101.3218927
7.63	763	-0.969	-0.148	0.192	0.1718874	-5.5576926	-0.4010706	127.2024056	-76.55864796	-101.4995097
7.64	764	-0.972	-0.151	0.191	0.572958	-5.5003968	-0.6875496	127.3685634	-76.5185409	-101.6656675
7.65	765	-0.975	-0.154	0.193	0.9740286	-5.0993262	-0.859437	127.8956848	-76.47843384	-102.1526818
7.66	766	-0.979	-0.156	0.195	0.9740286	-4.4690724	-1.0886202	128.0217355	-76.43832678	-102.273003
7.67	767	-0.98	-0.158	0.196	0.7448454	-3.7815228	-1.3750992	128.1134088	-76.4039493	-102.3589467
7.68	768	-0.98	-0.159	0.197	0.572958	-3.4950438	-1.432395	128.1936229	-76.36957182	-102.4334312
7.69	769	-0.981	-0.159	0.197	0.5156622	-3.4950438	-1.4896908	128.2681075	-76.33519434	-102.5079158
7.7	770	-0.979	-0.16	0.197	0.6302538	-3.4950438	-1.5469866	128.737933	-76.29508728	-102.9433639
7.71	771	-0.977	-0.16	0.196	0.7448454	-3.437748	-1.4896908	128.8124176	-76.2607098	-103.0121188
7.72	772	-0.975	-0.162	0.196	0.6875496	-3.2085648	-1.432395	128.8869021	-76.22633232	-103.0751442
7.73	773	-0.975	-0.163	0.198	0.6302538	-2.86479	-1.3750992	128.9441979	-76.19768442	-103.13244
7.74	774	-0.974	-0.163	0.2	0.4010706	-2.4637194	-1.2605076	128.9900345	-76.1747661	-103.1782766
7.75	775	-0.975	-0.165	0.2	0.3437748	-2.0626488	-1.2032118	129.6145588	-76.12319988	-103.7569642
7.76	776	-0.975	-0.167	0.202	0.286479	-1.8334656	-1.0886202	129.6489362	-76.10028156	-103.7856121
7.77	777	-0.975	-0.166	0.202	0.1145916	-1.6042824	-0.9167328	129.6718546	-76.08309282	-103.8085304
7.78	778	-0.975	-0.167	0.202	0	-1.7761698	-0.7448454	129.706232	-76.06590408	-103.8429079
7.79	779	-0.975	-0.167	0.204	-0.1145916	-1.8334656	-0.6302538	129.7463391	-76.04871534	-103.883015
7.8	780	-0.971	-0.166	0.205	-0.4010706	-1.6042824	-0.572958	130.5198324	-75.98568996	-104.6106716
7.81	781	-0.972	-0.166	0.206	-0.6302538	-1.2605076	-0.4583664	130.5370211	-75.9742308	-104.63359
7.82	782	-0.972	-0.167	0.208	-0.7448454	-1.0313244	-0.3437748	130.5484803	-75.96277164	-104.6565083
7.83	783	-0.973	-0.166	0.21	-0.8021412	-0.572958	-0.2291832	130.5542099	-75.95704206	-104.6679674
7.84	784	-0.976	-0.165	0.212	-0.8021412	-0.0572958	-0.1718874	130.5427507	-75.95704206	-104.6679674
7.85	785	-0.975	-0.166	0.211	-0.6302538	0.3437748	0	131.8261766	-75.86536878	-105.8597201
7.86	786	-0.975	-0.166	0.212	-0.6302538	0.8021412	0.0572958	131.7975287	-75.87109836	-105.8425313
7.87	787	-0.975	-0.165	0.211	-0.6875496	1.145916	0.1718874	131.7631513	-75.88255752	-105.8138834
7.88	788	-0.974	-0.164	0.211	-0.7448454	1.432395	0.1145916	131.7173146	-75.89401668	-105.7737764
7.89	789	-0.974	-0.163	0.21	-0.5156622	2.0626488	0.2291832	131.6600188	-75.90547584	-105.7222102
7.9	790	-0.975	-0.162	0.212	-0.2291832	2.4064236	0.4010706	132.1069261	-75.89401668	-106.1290103
7.91	791	-0.979	-0.162	0.212	-0.1718874	2.9220858	0.5156622	132.0324415	-75.916935	-106.0545258
7.92	792	-0.98	-0.162	0.212	-0.286479	3.151269	0.572958	131.9522274	-75.9455829	-105.9800413
7.93	793	-0.98	-0.161	0.212	-0.1718874	3.2658606	0.5156622	131.8720133	-75.96850122	-105.8998271
7.94	794	-0.978	-0.158	0.213	0	3.0366774	0.572958	131.7975287	-75.99714912	-105.8253426
7.95	795	-0.975	-0.158	0.209	0.1145916	2.9793816	0.5156622	132.175681	-76.0028787	-106.1633878
7.96	796	-0.97	-0.159	0.205	0.3437748	3.0939732	0.4010706	132.1011965	-76.02579702	-106.0831737
7.97	797	-0.971	-0.161	0.202	0.572958	2.86479	0.286479	132.0324415	-76.04871534	-106.0029596
7.98	798	-0.971	-0.162	0.201	0.3437748	2.5210152	0.286479	131.9694161	-76.07163366	-105.9342046
7.99	799	-0.97	-0.162	0.201	0.3437748	2.291832	0.1718874	131.9121203	-76.0888224	-105.8711792
8	800	-0.97	-0.166	0.203	0.4583664	2.5210152	0.286479	132.2272472	-76.06590408	-106.1576582
8.01	801	-0.973	-0.167	0.207	0	3.3804522	0.4583664	132.1413035	-76.09455198	-106.065985
8.02	802	-0.976	-0.165	0.204	-0.2291832	4.0680018	0.7448454	132.0381711	-76.12892946	-105.9685821
8.03	803	-0.978	-0.162	0.199	-0.2291832	4.5263682	0.859437	131.9293091	-76.16330694	-105.8539905
8.04	804	-0.977	-0.159	0.194	-0.0572958	4.2398892	0.9167328	131.8261766	-76.203414	-105.7565876
8.05	805	-0.976	-0.156	0.189	0	3.5523396	0.859437	132.0152528	-76.23779148	-105.9227455
8.06	806	-0.973	-0.155	0.186	0.2291832	3.0366774	0.859437	131.9522274	-76.26643938	-105.8539905
8.07	807	-0.969	-0.156	0.187	0.3437748	2.6929026	0.7448454	131.9006612	-76.2893577	-105.7909651
8.08	808	-0.968	-0.158	0.187	0.3437748	2.6929026	0.6302538	131.8376358	-76.3180056	-105.7279397
8.09	809	-0.969	-0.159	0.187	0.1718874	2.9220858	0.5156622	131.7688808	-76.34092392	-105.6534552
8.1	810	-0.971	-0.159	0.188	0	3.0939732	0.286479	132.0037936	-76.35811266	-105.8654497
8.11	811	-0.97	-0.158	0.187	-0.0572958	3.151269	0.1718874	131.9121203	-76.38103098	-105.7737764
8.12	812	-0.968	-0.157	0.187	0	2.9793816	0.2291832	131.8261766	-76.4039493	-105.6878327
8.13	813	-0.968	-0.16	0.186	0	2.578311	0.1145916	131.7574217	-76.42113804	-105.6133481
8.14	814	-0.968	-0.161	0.184	0	2.291832	0.1145916	131.6886667	-76.43832678	-105.5445932
8.15	815	-0.97	-0.162	0.184	-0.1145916	1.8907614	0.1718874	132.0439007	-76.43832678	-105.8711792
8.16	816	-0.971	-0.161	0.185	-0.4010706	1.7761698	0.1718874	131.9923345	-76.45551552	-105.819613
8.17	817	-0.969	-0.161	0.187	-0.5156622	1.4896908	0.2291832	131.9464978	-76.46697468	-105.779506
8.18	818	-0.97	-0.159	0.186	-0.7448454	1.432395	0.286479	131.9063908	-76.47843384	-105.7451285
8.19	819	-0.971	-0.156	0.185	-0.7448454	1.0886202	0.3437748	131.8720133	-76.489893	-105.7222102
8.2	820	-0.974	-0.158	0.184	-0.4583664	1.5469866	0.286479	132.1527627	-76.49562258	-105.9857708
8.21	821	-0.973	-0.159	0.183	-0.572958	1.7761698	0.1718874	132.0954669	-76.50708174	-105.9342046
8.22	822	-0.973	-0.16	0.184	-0.572958	1.718874	0.1145916	132.0439007	-76.52427048	-105.888368
8.23	823	-0.974	-0.16	0.184	-0.6302538	1.5469866	0.1718874	131.998064	-76.53572964	-105.8425313
8.24	824	-0.975	-0.159	0.185	-0.4583664	1.0886202	0.1718874	131.9636866	-76.54145922	-105.819613
8.25	825	-0.975	-0.159	0.185	-0.4010706	0.6302538	0.1718874	132.708532	-76.5185409	-106.5128922
8.26	826	-0.972	-0.157	0.187	-0.286479	0.4010706	0.2291832	132.6970728	-76.52427048	-106.5071626
8.27	827	-0.97	-0.157	0.187	-0.0572958	0.6875496	0.1718874	132.6798841	-76.53000006	-106.4899739
8.28	828	-0.97	-0.158	0.187	0.0572958	1.0313244	0.1718874	132.6569657	-76.54145922	-106.461326
8.29	829	-0.971	-0.159	0.186	-0.1145916	1.2605076	0.1145916	132.6225883	-76.5471888	-106.4269485
8.3	830	-0.971	-0.157	0.186	-0.1718874	1.2605076	0.0572958	133.1210617	-76.54145922	-106.8967741
8.31	831	-0.972	-0.157	0.187	0.0572958	1.0886202	0.0572958	133.0924138	-76.5471888	-106.8623966
8.32	832	-0.972	-0.157	0.186	0.1718874	1.0313244	0.1145916	133.0637659	-76.55864796	-106.8337487
8.33	833	-0.973	-0.158	0.189	0.286479	0.859437	0.1145916	133.0465772	-76.56437754	-106.8108304
8.34	834	-0.974	-0.156	0.189	0.3437748	0.6875496	0.1145916	133.0293884	-76.57010712	-106.7936416
8.35	835	-0.974	-0.156	0.189	0.4010706	0.5156622	0	133.7283972	-76.5471888	-107.4353546
8.36	836	-0.97	-0.154	0.192	0.3437748	0.4583664	-0.0572958	133.7112085	-76.55291838	-107.4181658
8.37	837	-0.973	-0.154	0.19	0.286479	0.3437748	-0.2291832	133.6997493	-76.55291838	-107.4009771
8.38	838	-0.972	-0.153	0.19	0.4010706	0	-0.286479	133.6940197	-76.55291838	-107.3895179
8.39	839	-0.974	-0.155	0.188	0.8021412	0.1718874	-0.3437748	133.6825606	-76.5471888	-107.3723292
8.4	840	-0.975	-0.156	0.189	0.859437	0.286479	-0.4583664	134.0091466	-76.52427048	-107.6645378
8.41	841	-0.975	-0.159	0.19	0.8021412	0.286479	-0.4583664	133.9919579	-76.52427048	-107.6416195
8.42	842	-0.975	-0.159	0.193	0.6302538	0.2291832	-0.5156622	133.9747691	-76.5185409	-107.6187011
8.43	843	-0.976	-0.158	0.194	0.572958	0.1718874	-0.5156622	133.96331	-76.5185409	-107.5957828
8.44	844	-0.976	-0.157	0.193	0.6875496	0.4010706	-0.5156622	133.9403917	-76.5185409	-107.5671349
8.45	845	-0.974	-0.157	0.192	0.6302538	0.286479	-0.5156622	134.3070848	-76.48416342	-107.8994506
8.46	846	-0.975	-0.157	0.191	0.7448454	0.1718874	-0.6302538	134.289896	-76.47843384	-107.8765322
8.47	847	-0.974	-0.157	0.191	0.6302538	0.1145916	-0.6875496	134.2727073	-76.47270426	-107.8478843
8.48	848	-0.975	-0.157	0.191	0.5156622	0.1145916	-0.7448454	134.249789	-76.47270426	-107.8192364
8.49	849	-0.973	-0.159	0.191	0.286479	0	-0.8021412	134.2268707	-76.46697468	-107.7963181
8.5	850	-0.973	-0.159	0.192	0	-0.2291832	-0.859437	134.6852371	-76.42113804	-108.220307
8.51	851	-0.972	-0.157	0.19	0	-0.286479	-0.859437	134.6680483	-76.40967888	-108.2031183
8.52	852	-0.973	-0.159	0.191	0.2291832	-0.1145916	-0.8021412	134.6508596	-76.4039493	-108.1802
8.53	853	-0.975	-0.161	0.189	0.4583664	0.0572958	-0.8021412	134.6279413	-76.39821972	-108.1515521
8.54	854	-0.976	-0.162	0.191	0.3437748	0.2291832	-0.6875496	134.5992934	-76.39249014	-108.1229042
8.55	855	-0.976	-0.162	0.19	0.0572958	0.286479	-0.6875496	134.9602569	-76.35238308	-108.4552198
8.56	856	-0.975	-0.161	0.189	0	0.1145916	-0.572958	134.9373386	-76.35238308	-108.4323015
8.57	857	-0.972	-0.159	0.189	0.1718874	-0.286479	-0.4583664	134.931609	-76.3466535	-108.4265719
8.58	858	-0.972	-0.157	0.189	0.4010706	-0.4010706	-0.5156622	134.931609	-76.34092392	-108.4208423
8.59	859	-0.969	-0.157	0.186	0.5156622	-0.1145916	-0.6302538	134.9258794	-76.33519434	-108.4036536
8.6	860	-0.969	-0.161	0.186	0.6875496	0.0572958	-0.8021412	135.109226	-76.30081686	-108.5698114
8.61	861	-0.97	-0.163	0.19	0.0572958	0	-0.859437	135.0863077	-76.29508728	-108.5411635
8.62	862	-0.971	-0.165	0.193	-0.3437748	-0.6302538	-0.7448454	135.0748485	-76.28362812	-108.5411635
8.63	863	-0.972	-0.165	0.196	-0.4583664	-1.145916	-0.6302538	135.0863077	-76.26643938	-108.5526227
8.64	864	-0.973	-0.165	0.198	-0.3437748	-1.0313244	-0.4010706	135.1034964	-76.2607098	-108.5698114
8.65	865	-0.976	-0.164	0.199	-0.4583664	-0.3437748	-0.1145916	135.6592657	-76.18049568	-109.0969328
8.66	866	-0.978	-0.162	0.197	-0.4583664	0.4583664	0.0572958	135.6420769	-76.18049568	-109.0854736
8.67	867	-0.979	-0.161	0.194	0	1.0886202	0.1145916	135.613429	-76.19195484	-109.0568257
8.68	868	-0.977	-0.162	0.193	0.1145916	1.3178034	0.1145916	135.5847811	-76.203414	-109.0281778
8.69	869	-0.973	-0.164	0.189	0.1718874	0.9167328	0.3437748	135.5675924	-76.21487316	-109.0109891
8.7	870	-0.972	-0.164	0.19	0.1718874	0.2291832	0.572958	135.8196939	-76.18049568	-109.2401723
8.71	871	-0.974	-0.162	0.19	0.1145916	0	0.8021412	135.8426122	-76.18622526	-109.2688202
8.72	872	-0.977	-0.16	0.191	0.1145916	0	0.9740286	135.8712601	-76.19195484	-109.2974681
8.73	873	-0.978	-0.156	0.193	0	0.3437748	0.8021412	135.8884489	-76.203414	-109.3089272
8.74	874	-0.978	-0.153	0.193	-0.1718874	0.8021412	0.4583664	135.8769897	-76.20914358	-109.3031977
8.75	875	-0.977	-0.151	0.193	-0.4010706	1.0886202	0.0572958	136.1061729	-76.22633232	-109.5151921
8.76	876	-0.973	-0.153	0.192	-0.4010706	1.0313244	-0.3437748	136.0603363	-76.2320619	-109.4750851
8.77	877	-0.97	-0.156	0.192	-0.3437748	0.6302538	-0.4583664	136.0259588	-76.2320619	-109.4407076
8.78	878	-0.97	-0.157	0.191	-0.286479	0.4010706	-0.4583664	135.9973109	-76.2320619	-109.4177893
8.79	879	-0.97	-0.159	0.189	-0.4010706	0.2291832	-0.4010706	135.9743926	-76.2320619	-109.3948709
8.8	880	-0.971	-0.159	0.189	-0.4010706	0.1718874	-0.4010706	136.1691983	-76.21487316	-109.5782175
8.81	881	-0.973	-0.159	0.188	-0.4010706	0.3437748	-0.4010706	136.1405504	-76.21487316	-109.5552992
8.82	882	-0.973	-0.16	0.189	-0.5156622	0.5156622	-0.4010706	136.1061729	-76.21487316	-109.5266513
8.83	883	-0.973	-0.159	0.19	-0.572958	0.859437	-0.4583664	136.0603363	-76.21487316	-109.4865442
8.84	884	-0.974	-0.159	0.189	-0.572958	1.0313244	-0.572958	136.00877	-76.22060274	-109.4407076
8.85	885	-0.973	-0.161	0.189	-0.4583664	1.145916	-0.6875496	136.0202292	-76.21487316	-109.4521667
8.86	886	-0.975	-0.161	0.187	-0.4583664	0.859437	-0.6875496	135.968663	-76.21487316	-109.4006005
8.87	887	-0.975	-0.161	0.189	-0.4010706	0.572958	-0.572958	135.9285559	-76.21487316	-109.366223
8.88	888	-0.975	-0.161	0.189	-0.4010706	0.0572958	-0.5156622	135.9056376	-76.20914358	-109.3490343
8.89	889	-0.973	-0.161	0.19	-0.4010706	-0.3437748	-0.4583664	135.899908	-76.203414	-109.3433047
8.9	890	-0.972	-0.16	0.191	-0.5156622	-0.4010706	-0.4583664	136.0374179	-76.18049568	-109.4750851
8.91	891	-0.97	-0.161	0.189	-0.572958	-0.3437748	-0.4583664	136.0259588	-76.1747661	-109.4750851
8.92	892	-0.969	-0.161	0.187	-0.6875496	-0.1718874	-0.4583664	136.00877	-76.16903652	-109.4636259
8.93	893	-0.969	-0.162	0.187	-0.9167328	-0.0572958	-0.4583664	135.9858517	-76.16330694	-109.4521667
8.94	894	-0.968	-0.161	0.186	-1.0313244	-0.286479	-0.3437748	135.9743926	-76.16330694	-109.4521667
8.95	895	-0.968	-0.163	0.186	-0.9740286	-0.6302538	-0.286479	136.0202292	-76.1461182	-109.503733
8.96	896	-0.97	-0.164	0.188	-1.0313244	-0.9167328	-0.1718874	136.0316884	-76.14038862	-109.5266513
8.97	897	-0.973	-0.164	0.19	-1.0313244	-1.0886202	-0.0572958	136.0488771	-76.12892946	-109.5552992
8.98	898	-0.974	-0.164	0.189	-1.145916	-1.145916	0	136.0717954	-76.12319988	-109.5896767
8.99	899	-0.976	-0.162	0.19	-1.145916	-1.0886202	0.1145916	136.0947137	-76.11174072	-109.6240541
9	900	-0.976	-0.162	0.19	-0.9740286	-0.9167328	0.2291832	136.2093053	-76.10028156	-109.7443753
9.01	901	-0.974	-0.161	0.19	-0.859437	-0.859437	0.2291832	136.2322237	-76.10028156	-109.7730232
9.02	902	-0.972	-0.162	0.19	-0.5156622	-1.0886202	0.286479	136.2666011	-76.09455198	-109.8188599
9.03	903	-0.971	-0.163	0.191	-0.4583664	-1.4896908	0.4583664	136.3124378	-76.08309282	-109.8704261
9.04	904	-0.969	-0.165	0.192	-0.4583664	-1.8334656	0.6875496	136.3811927	-76.07736324	-109.9449106
9.05	905	-0.971	-0.163	0.196	-0.5156622	-2.0626488	0.8021412	136.5129731	-76.05444492	-110.0824205
9.06	906	-0.973	-0.162	0.197	-0.6875496	-2.1772404	0.859437	136.5874576	-76.04298576	-110.1683642
9.07	907	-0.975	-0.16	0.198	-0.9167328	-2.005353	0.9167328	136.6619422	-76.03725618	-110.2543079
9.08	908	-0.976	-0.156	0.198	-0.9167328	-1.7761698	0.7448454	136.7249675	-76.02579702	-110.3230629
9.09	909	-0.974	-0.155	0.198	-1.0313244	-1.6615782	0.572958	136.7765338	-76.02006744	-110.3918179
9.1	910	-0.972	-0.154	0.197	-0.9167328	-1.718874	0.3437748	136.9426916	-76.00860828	-110.5579757
9.11	911	-0.971	-0.153	0.196	-0.7448454	-1.8907614	0.1718874	136.9885282	-75.99141954	-110.6152715
9.12	912	-0.971	-0.154	0.196	-0.6875496	-2.005353	0	137.0400944	-75.97996038	-110.6725673
9.13	913	-0.968	-0.154	0.197	-0.6302538	-2.005353	-0.1145916	137.0802015	-75.96277164	-110.7241335
9.14	914	-0.969	-0.154	0.197	-0.6875496	-1.8334656	-0.3437748	137.1088494	-75.9455829	-110.7642406
9.15	915	-0.97	-0.155	0.197	-0.6302538	-1.6615782	-0.5156622	137.2177114	-75.92839416	-110.8731026
9.16	916	-0.97	-0.155	0.198	-0.5156622	-1.6042824	-0.8021412	137.2349002	-75.90547584	-110.8902913
9.17	917	-0.969	-0.156	0.198	-0.4010706	-1.6615782	-0.9740286	137.2463593	-75.8882871	-110.9074801
9.18	918	-0.969	-0.157	0.199	-0.1718874	-1.7761698	-1.0313244	137.2578185	-75.86536878	-110.9246688
9.19	919	-0.97	-0.159	0.199	0.1145916	-1.9480572	-0.9740286	137.2807368	-75.84818004	-110.9475871
9.2	920	-0.972	-0.16	0.2	0.4010706	-2.005353	-0.9167328	137.3781397	-75.81953214	-111.0392604
9.21	921	-0.973	-0.161	0.201	0.5156622	-1.9480572	-0.8021412	137.4125171	-75.79661382	-111.0621787
9.22	922	-0.976	-0.161	0.202	0.7448454	-1.718874	-0.8021412	137.441165	-75.77942508	-111.085097
9.23	923	-0.975	-0.163	0.201	0.9740286	-1.2605076	-0.6302538	137.4640834	-75.76223634	-111.0965562
9.24	924	-0.974	-0.161	0.201	1.0886202	-0.9740286	-0.6302538	137.4812721	-75.75077718	-111.1080154
9.25	925	-0.974	-0.162	0.204	0.8021412	-0.8021412	-0.6302538	137.6130524	-75.72785886	-111.2168774
9.26	926	-0.976	-0.161	0.205	0.5156622	-0.8021412	-0.6875496	137.618782	-75.7163997	-111.222607
9.27	927	-0.976	-0.16	0.208	0.2291832	-1.3178034	-0.7448454	137.6302412	-75.69921096	-111.2340661
9.28	928	-0.973	-0.159	0.21	0.2291832	-1.718874	-0.859437	137.6531595	-75.68202222	-111.2512549
9.29	929	-0.971	-0.16	0.209	0.1718874	-1.5469866	-0.859437	137.6703482	-75.66483348	-111.2684436
9.3	930	-0.969	-0.161	0.206	0.4010706	-1.145916	-0.859437	137.7677511	-75.630456	-111.3543873
9.31	931	-0.97	-0.163	0.205	0.3437748	-0.8021412	-0.859437	137.7620215	-75.61899684	-111.3429281
9.32	932	-0.969	-0.164	0.205	0.0572958	-1.145916	-0.8021412	137.7677511	-75.60753768	-111.3543873
9.33	933	-0.966	-0.164	0.205	-0.1718874	-1.7761698	-0.859437	137.7906694	-75.58461936	-111.371576
9.34	934	-0.965	-0.167	0.209	-0.2291832	-1.718874	-0.7448454	137.8078582	-75.56743062	-111.3944944
9.35	935	-0.967	-0.168	0.213	-0.572958	-1.0886202	-0.572958	137.905261	-75.52159398	-111.4976268
9.36	936	-0.971	-0.169	0.214	-0.859437	-0.5156622	-0.286479	137.905261	-75.5158644	-111.4976268
9.37	937	-0.975	-0.167	0.212	-0.7448454	-0.3437748	0	137.905261	-75.51013482	-111.509086
9.38	938	-0.978	-0.165	0.209	-0.572958	-0.2291832	0.2291832	137.9109906	-75.51013482	-111.5262747
9.39	939	-0.977	-0.163	0.209	-0.3437748	-0.4010706	0.4010706	137.9339089	-75.51013482	-111.549193
9.4	940	-0.977	-0.162	0.208	-0.1718874	-0.4010706	0.572958	138.1172555	-75.49294608	-111.72681
9.41	941	-0.976	-0.161	0.209	0	-0.4010706	0.5156622	138.1459034	-75.49294608	-111.7554579
9.42	942	-0.974	-0.161	0.209	-0.0572958	-0.286479	0.5156622	138.1630921	-75.49867566	-111.7783762
9.43	943	-0.972	-0.161	0.21	0	-0.286479	0.5156622	138.1860104	-75.49867566	-111.8012945
9.44	944	-0.971	-0.161	0.209	0	-0.3437748	0.4583664	138.2146583	-75.49867566	-111.8242129
9.45	945	-0.971	-0.16	0.208	-0.0572958	-0.4010706	0.4583664	138.4094641	-75.48148692	-112.013289
9.46	946	-0.971	-0.16	0.208	0	-0.286479	0.4010706	138.4266528	-75.48148692	-112.0304777
9.47	947	-0.972	-0.161	0.208	0	-0.3437748	0.3437748	138.4495711	-75.48148692	-112.0533961
9.48	948	-0.971	-0.161	0.208	-0.0572958	-0.1718874	0.3437748	138.4667599	-75.48148692	-112.0705848
9.49	949	-0.972	-0.162	0.209	-0.2291832	-0.286479	0.3437748	138.478219	-75.48148692	-112.0877735
9.5	950	-0.971	-0.16	0.209	-0.3437748	-0.286479	0.286479	138.6501064	-75.46429818	-112.2539314
9.51	951	-0.971	-0.16	0.211	-0.572958	-0.286479	0.286479	138.6672952	-75.4585686	-112.2711201
9.52	952	-0.97	-0.161	0.21	-0.6302538	-0.2291832	0.286479	138.6730247	-75.4585686	-112.2883088
9.53	953	-0.969	-0.159	0.21	-0.6875496	-0.3437748	0.1718874	138.6844839	-75.4585686	-112.3054976
9.54	954	-0.969	-0.159	0.208	-0.7448454	-0.286479	0.1718874	138.6902135	-75.4585686	-112.3226863
9.55	955	-0.969	-0.159	0.208	-0.7448454	-0.0572958	0	138.8506417	-75.44137986	-112.477385
9.56	956	-0.968	-0.159	0.209	-0.6875496	0.286479	0	138.833453	-75.44137986	-112.4716554
9.57	957	-0.969	-0.16	0.206	-0.7448454	0.7448454	-0.0572958	138.8048051	-75.44710944	-112.4487371
9.58	958	-0.97	-0.16	0.207	-0.859437	0.7448454	-0.0572958	138.7761572	-75.45283902	-112.4258188
9.59	959	-0.969	-0.16	0.208	-0.9167328	0.4583664	-0.1145916	138.7532389	-75.45283902	-112.4143596
9.6	960	-0.969	-0.16	0.208	-1.0313244	0.1718874	-0.1145916	138.8792896	-75.43565028	-112.5461399
9.61	961	-0.968	-0.16	0.209	-0.9167328	0.0572958	-0.1145916	138.8678305	-75.4299207	-112.5404104
9.62	962	-0.969	-0.159	0.21	-0.9167328	0.0572958	-0.1718874	138.8506417	-75.4299207	-112.5289512
9.63	963	-0.969	-0.159	0.209	-0.9740286	0.1145916	-0.2291832	138.8277234	-75.4299207	-112.517492
9.64	964	-0.969	-0.159	0.209	-1.0313244	0.3437748	-0.286479	138.7990755	-75.4299207	-112.5003033
9.65	965	-0.969	-0.16	0.209	-0.9167328	0.5156622	-0.2291832	138.87356	-75.42419112	-112.5747878
9.66	966	-0.97	-0.161	0.209	-0.859437	0.4010706	-0.2291832	138.8449121	-75.42419112	-112.5575991
9.67	967	-0.97	-0.162	0.208	-0.8021412	0.6302538	-0.1718874	138.8162642	-75.4299207	-112.5346808
9.68	968	-0.971	-0.161	0.209	-0.6875496	0.6302538	-0.0572958	138.7876163	-75.4299207	-112.517492
9.69	969	-0.972	-0.163	0.209	-0.7448454	0.572958	-0.1145916	138.764698	-75.43565028	-112.5003033
9.7	970	-0.971	-0.161	0.21	-0.859437	0.5156622	-0.1145916	138.8449121	-75.42419112	-112.586247
9.71	971	-0.97	-0.161	0.211	-0.9740286	0.4583664	-0.1145916	138.8219938	-75.42419112	-112.5690583
9.72	972	-0.971	-0.158	0.211	-0.9167328	0.3437748	-0.1718874	138.7990755	-75.4299207	-112.5575991
9.73	973	-0.971	-0.158	0.211	-0.8021412	0.2291832	-0.2291832	138.7761572	-75.4299207	-112.5404104
9.74	974	-0.971	-0.16	0.21	-0.572958	0.1145916	-0.2291832	138.7589684	-75.4299207	-112.5289512
9.75	975	-0.973	-0.161	0.208	-0.286479	0.1145916	-0.1145916	138.9136671	-75.41846154	-112.6779203
9.76	976	-0.973	-0.162	0.207	0.2291832	0.2291832	0	138.9079375	-75.42419112	-112.6664611
9.77	977	-0.972	-0.162	0.205	0.859437	0.286479	0	138.9079375	-75.42419112	-112.6607315
9.78	978	-0.972	-0.163	0.205	1.0886202	0.286479	0.0572958	138.9136671	-75.42419112	-112.655002
9.79	979	-0.971	-0.162	0.206	0.9740286	0.286479	0.1145916	138.9193967	-75.4299207	-112.6492724
9.8	980	-0.971	-0.16	0.207	0.9167328	0.2291832	0.1145916	139.0225291	-75.42419112	-112.7352161
9.81	981	-0.97	-0.159	0.208	0.8021412	0	0.1718874	139.0397179	-75.42419112	-112.7409457
9.82	982	-0.97	-0.159	0.207	0.8021412	-0.1145916	0.0572958	139.051177	-75.42419112	-112.7466752
9.83	983	-0.97	-0.16	0.207	0.8021412	-0.1718874	0.0572958	139.0683658	-75.42419112	-112.7581344
9.84	984	-0.969	-0.161	0.205	0.6875496	-0.1145916	0	139.0798249	-75.42419112	-112.7581344
9.85	985	-0.967	-0.161	0.202	0.8021412	-0.2291832	0	139.119932	-75.41846154	-112.7925119
9.86	986	-0.967	-0.162	0.203	0.7448454	-0.3437748	0	139.1371207	-75.41846154	-112.803971
9.87	987	-0.965	-0.161	0.204	0.7448454	-0.4010706	0	139.1543095	-75.41273196	-112.8097006
9.88	988	-0.967	-0.162	0.203	0.6302538	-0.4583664	0.0572958	139.1772278	-75.41273196	-112.8268894
9.89	989	-0.966	-0.161	0.205	0.4010706	-0.3437748	0	139.1886869	-75.40700238	-112.8383485
9.9	990	-0.968	-0.161	0.206	0.3437748	-0.4010706	0.0572958	139.3204673	-75.38408406	-112.9586697
9.91	991	-0.969	-0.159	0.207	0.1718874	-0.4583664	0.0572958	139.337656	-75.38408406	-112.9701289
9.92	992	-0.97	-0.159	0.209	0.1145916	-0.6302538	0	139.3548448	-75.37835448	-112.9873176
9.93	993	-0.97	-0.158	0.211	0.1718874	-0.859437	0	139.3777631	-75.3726249	-113.0102359
9.94	994	-0.969	-0.158	0.212	0.1718874	-0.859437	-0.1145916	139.3949518	-75.36116574	-113.0274247
9.95	995	-0.969	-0.158	0.211	0.1718874	-0.859437	-0.1718874	139.5095434	-75.33824742	-113.1362867
9.96	996	-0.969	-0.157	0.211	0.2291832	-0.8021412	-0.286479	139.5267322	-75.33251784	-113.1477458
9.97	997	-0.969	-0.158	0.211	0.2291832	-0.6875496	-0.3437748	139.5324617	-75.32105868	-113.1534754
9.98	998	-0.968	-0.159	0.212	0.1718874	-0.572958	-0.4583664	139.5324617	-75.3153291	-113.1534754
9.99	999	-0.968	-0.16	0.213	0.2291832	-0.572958	-0.5156622	139.5381913	-75.30959952	-113.1477458
10	1000	-0.969	-0.159	0.212	0.2291832	-0.6302538	-0.5156622	139.6126759	-75.2866812	-113.2222304
10.01	1001	-0.97	-0.159	0.215	0.286479	-0.6302538	-0.5156622	139.6184054	-75.28095162	-113.2222304
10.02	1002	-0.971	-0.16	0.214	0.3437748	-0.6302538	-0.572958	139.6184054	-75.26949246	-113.2165008
10.03	1003	-0.971	-0.16	0.213	0.4010706	-0.3437748	-0.572958	139.6126759	-75.26376288	-113.2107712
10.04	1004	-0.971	-0.16	0.213	0.4010706	-0.1145916	-0.6302538	139.6069463	-75.2580333	-113.1935825
10.05	1005	-0.971	-0.16	0.214	0.4010706	0.2291832	-0.8021412	139.6642421	-75.24084456	-113.2451487
10.06	1006	-0.973	-0.16	0.214	0.2291832	0.3437748	-0.859437	139.6355942	-75.24084456	-113.2107712
10.07	1007	-0.974	-0.16	0.215	0.1718874	0.3437748	-0.9167328	139.6012167	-75.23511498	-113.1706642
10.08	1008	-0.972	-0.158	0.213	0.286479	0.0572958	-0.9167328	139.5725688	-75.2293854	-113.1420163
10.09	1009	-0.97	-0.158	0.214	0	0.286479	-0.6875496	139.5439209	-75.2293854	-113.1133684
10.1	1010	-0.967	-0.16	0.213	0.2291832	0.3437748	-0.859437	139.5782984	-75.21792624	-113.1362867
10.11	1011	-0.967	-0.162	0.214	0.1145916	0.572958	-0.9167328	139.5381913	-75.21219666	-113.0961796
10.12	1012	-0.967	-0.164	0.215	-0.2291832	0.3437748	-0.9167328	139.4980843	-75.21219666	-113.0560726
10.13	1013	-0.967	-0.163	0.215	-0.4583664	-0.3437748	-0.859437	139.4751659	-75.2007375	-113.0388838
10.14	1014	-0.966	-0.162	0.213	-0.4010706	-0.572958	-0.8021412	139.4637068	-75.19500792	-113.0331542
10.15	1015	-0.967	-0.164	0.215	-0.2291832	-0.1718874	-0.8021412	139.5381913	-75.16063044	-113.1019092
10.16	1016	-0.968	-0.166	0.216	-0.572958	0.4583664	-0.8021412	139.4980843	-75.15490086	-113.0675317
10.17	1017	-0.97	-0.165	0.216	-0.572958	1.145916	-0.6875496	139.446518	-75.16063044	-113.0159655
10.18	1018	-0.971	-0.164	0.213	-0.4010706	1.432395	-0.572958	139.3892222	-75.16636002	-112.9643993
10.19	1019	-0.971	-0.164	0.212	-0.4583664	1.3750992	-0.572958	139.3319264	-75.17781918	-112.9128331
10.2	1020	-0.971	-0.162	0.21	-0.4583664	0.9167328	-0.4583664	139.3548448	-75.17781918	-112.9357514
10.21	1021	-0.969	-0.162	0.21	-0.4010706	0.3437748	-0.4583664	139.3261969	-75.17781918	-112.9071035
10.22	1022	-0.968	-0.161	0.21	-0.2291832	0	-0.5156622	139.3090081	-75.1720896	-112.8899147
10.23	1023	-0.969	-0.162	0.21	-0.2291832	0	-0.572958	139.2860898	-75.1720896	-112.8784556
10.24	1024	-0.969	-0.161	0.212	-0.3437748	0.0572958	-0.6302538	139.2631715	-75.16636002	-112.8555373
10.25	1025	-0.97	-0.161	0.214	-0.3437748	0.286479	-0.7448454	139.3147377	-75.15490086	-112.9071035
10.26	1026	-0.971	-0.161	0.215	-0.3437748	0.6875496	-0.9167328	139.2689011	-75.14917128	-112.8612668
10.27	1027	-0.972	-0.163	0.215	-0.1145916	0.9740286	-0.859437	139.2173348	-75.15490086	-112.8097006
10.28	1028	-0.971	-0.165	0.215	-0.0572958	1.2032118	-0.8021412	139.1657686	-75.15490086	-112.7524048
