TimeStamp(s)	FrameCounter	AccX	AccY	AccZ	GyrX	GyrY	GyrZ	EulerX	EulerY	EulerZ
0.01	1	-0.019	-1.004	0.032	-1.6615782	0.6302538	-0.1718874	90.34401744	-0.83651868	-16.7303736
0.02	2	-0.017	-1.007	0.035	-1.5469866	0.572958	-0.1145916	90.33255828	-0.83651868	-16.72464402
0.03	3	-0.015	-1.007	0.037	-1.3750992	0.9167328	0	90.31536954	-0.83651868	-16.71318486
0.04	4	-0.013	-1.005	0.036	-1.3178034	1.3178034	0.1145916	90.30391038	-0.83651868	-16.7017257
0.05	5	-0.015	-1.008	0.037	-1.6042824	0.6302538	0.2291832	90.30391038	-0.83651868	-16.69026654
0.06	6	-0.022	-1.012	0.037	-1.7761698	-0.1145916	0.1145916	90.28672164	-0.83651868	-16.69599612
0.07	7	-0.025	-1.012	0.043	-1.7761698	-0.1718874	-0.286479	90.26380332	-0.8307891	-16.69599612
0.08	8	-0.023	-1.009	0.049	-1.4896908	0.4583664	-0.7448454	90.25234416	-0.82505952	-16.69026654
0.09	9	-0.019	-1.011	0.049	-1.8334656	0.6302538	-0.8021412	90.22942584	-0.81932994	-16.68453696
0.1	10	-0.024	-1.016	0.048	-2.86479	-0.1145916	-0.6302538	90.21796668	-0.81932994	-16.68453696
0.11	11	-0.031	-1.02	0.045	-4.0680018	-0.0572958	-1.0313244	90.17785962	-0.80787078	-16.68453696
0.12	12	-0.03	-1.022	0.041	-4.9847346	0.9740286	-1.7761698	90.1262934	-0.79068204	-16.67880738
0.13	13	-0.022	-1.016	0.04	-5.5576926	2.005353	-2.1772404	90.0689976	-0.76776372	-16.65588906
0.14	14	0	-1.006	0.045	-5.8441716	2.5210152	-1.8334656	90.0117018	-0.75057498	-16.63297074
0.15	15	0.017	-1.002	0.047	-6.0733548	1.8907614	-0.859437	89.96013558	-0.72192708	-16.61005242
0.16	16	0.026	-1.006	0.048	-6.3598338	0.1718874	-0.286479	89.8971102	-0.72192708	-16.61005242
0.17	17	0.029	-1.014	0.047	-7.161975	-1.718874	-0.2291832	89.82262566	-0.72192708	-16.62724116
0.18	18	0.023	-1.02	0.041	-8.0787078	-3.7815228	-0.6302538	89.74241154	-0.71046792	-16.66734822
0.19	19	0.012	-1.022	0.033	-8.6516658	-4.6409598	-1.2032118	89.65646784	-0.69900876	-16.71318486
0.2	20	0	-1.023	0.028	-8.9954406	-4.297185	-1.718874	89.57052414	-0.68182002	-16.7590215
0.21	21	-0.011	-1.026	0.024	-9.6256944	-3.2085648	-2.1199446	89.47312128	-0.6589017	-16.79339898
0.22	22	-0.015	-1.022	0.022	-10.3705398	-1.5469866	-2.4637194	89.36425926	-0.63598338	-16.81058772
0.23	23	-0.006	-1.016	0.021	-10.7143146	-0.1718874	-2.7501984	89.25539724	-0.60733548	-16.81058772
0.24	24	0.011	-1.013	0.024	-10.886202	0	-2.6929026	89.14653522	-0.58441716	-16.8163173
0.25	25	0.03	-1.017	0.027	-11.0580894	-1.0886202	-2.2345362	89.04340278	-0.55003968	-16.82777646
0.26	26	0.045	-1.023	0.025	-11.2299768	-3.3804522	-1.7761698	88.92881118	-0.53285094	-16.86215394
0.27	27	0.051	-1.028	0.019	-11.9175264	-5.6722842	-1.432395	88.80849	-0.5156622	-16.91944974
0.28	28	0.051	-1.024	0.012	-12.7196676	-7.734933	-1.2605076	88.68243924	-0.50420304	-16.99966386
0.29	29	0.045	-1.011	0.005	-13.2353298	-9.740286	-1.0886202	88.54492932	-0.49274388	-17.09706672
0.3	30	0.04	-0.995	0	-13.0061466	-11.3445684	-0.9740286	88.41887856	-0.47555514	-17.21165832
0.31	31	0.038	-0.989	0	-12.2040054	-12.891555	-0.6302538	88.29855738	-0.46982556	-17.33770908
0.32	32	0.037	-0.989	0	-11.1153852	-13.9228794	-0.1718874	88.18396578	-0.46982556	-17.475219
0.33	33	0.038	-0.991	0	-10.0840608	-14.7250206	0	88.08656292	-0.46982556	-17.62418808
0.34	34	0.037	-0.991	0.002	-9.167328	-15.4125702	0	87.99488964	-0.47555514	-17.77888674
0.35	35	0.035	-0.991	0.003	-8.5370742	-15.9855282	0	87.91467552	-0.46982556	-17.93931498
0.36	36	0.035	-0.997	0.008	-8.1932994	-17.0741484	-0.1718874	87.8344614	-0.46982556	-18.1054728
0.37	37	0.029	-1.002	0.014	-8.1932994	-19.0222056	-0.3437748	87.75997686	-0.46982556	-18.29454894
0.38	38	0.021	-1.004	0.016	-7.9068204	-20.3973048	-0.572958	87.67976274	-0.46409598	-18.50081382
0.39	39	0.009	-1.002	0.018	-7.9068204	-20.6837838	-0.6875496	87.6052782	-0.4583664	-18.7070787
0.4	40	0	-0.999	0.019	-7.8495246	-19.9962342	-0.7448454	87.53652324	-0.45263682	-18.90188442
0.41	41	-0.002	-0.999	0.022	-7.5057498	-18.6784308	-0.5156622	87.4620387	-0.45263682	-19.09096056
0.42	42	0	-0.999	0.026	-7.2192708	-17.475219	-0.3437748	87.39328374	-0.45263682	-19.26284796
0.43	43	0.003	-1.001	0.033	-7.161975	-16.615782	-0.286479	87.32452878	-0.45263682	-19.42900578
0.44	44	0.007	-1.003	0.041	-7.3338624	-15.9855282	-0.0572958	87.25577382	-0.4583664	-19.58943402
0.45	45	0.009	-1.007	0.048	-7.7922288	-15.5844576	-0.0572958	87.19274844	-0.45263682	-19.74413268
0.46	46	0.007	-1.014	0.051	-8.5370742	-14.7823164	-0.1145916	87.10680474	-0.4583664	-19.89310176
0.47	47	0.007	-1.03	0.039	-9.3965112	-13.0634424	-0.1718874	87.01513146	-0.4583664	-20.01915252
0.48	48	0.003	-1.043	0.016	-9.6256944	-12.605076	0.0572958	86.9177286	-0.46409598	-20.14520328
0.49	49	-0.011	-1.051	0.004	-10.0840608	-13.6936962	1.0886202	86.82032574	-0.48128472	-20.2827132
0.5	50	-0.018	-1.042	-0.005	-9.9694692	-15.9855282	2.86479	86.72865246	-0.5156622	-20.44314144
0.51	51	-0.007	-1.029	-0.005	-9.5683986	-17.9335854	4.1825934	86.6312496	-0.56149884	-20.61502884
0.52	52	0.008	-1.012	-0.015	-11.172681	-19.8816426	4.583664	86.52238758	-0.61306506	-20.80983456
0.53	53	0.022	-0.988	-0.017	-12.9488508	-22.8610242	3.8961144	86.39633682	-0.66463128	-21.03901776
0.54	54	0.035	-0.967	-0.019	-14.6677248	-26.5279554	3.2085648	86.2588269	-0.70473834	-21.29684886
0.55	55	0.042	-0.955	-0.026	-16.615782	-30.8824362	1.8334656	86.09839866	-0.73338624	-21.60624618
0.56	56	0.038	-0.969	-0.02	-17.5898106	-34.2055926	-0.1145916	85.92651126	-0.7448454	-21.9442914
0.57	57	0.025	-0.986	-0.018	-19.3659804	-36.0390582	-1.9480572	85.73743512	-0.7448454	-22.30525494
0.58	58	0.016	-1.007	-0.032	-21.485925	-36.8984952	-2.4637194	85.53117024	-0.73911582	-22.67194806
0.59	59	0.015	-1.027	-0.044	-23.4339822	-37.9298196	-2.2345362	85.30198704	-0.73911582	-23.05010034
0.6	60	0.019	-1.048	-0.041	-24.2361234	-38.2735944	-1.6042824	85.06707426	-0.7448454	-23.4339822
0.61	61	0.018	-1.057	-0.027	-23.777757	-39.1903272	-0.4010706	84.83789106	-0.76203414	-23.82359364
0.62	62	-0.005	-1.05	-0.011	-21.4286292	-42.398892	1.4896908	84.63162618	-0.80787078	-24.24185298
0.63	63	-0.04	-1.027	-0.001	-18.334656	-47.2117392	3.9534102	84.45973878	-0.88235532	-24.70594896
0.64	64	-0.074	-0.988	0.032	-17.1314442	-50.0765292	4.297185	84.29931054	-0.96256944	-25.19869284
0.65	65	-0.099	-0.954	0.074	-16.2147114	-48.8733174	2.5210152	84.16180062	-1.02559482	-25.67997756
0.66	66	-0.122	-0.943	0.089	-15.5844576	-43.7739912	0	84.01856112	-1.0599723	-26.11542564
0.67	67	-0.151	-0.958	0.087	-14.4958374	-38.9038482	-1.6615782	83.8810512	-1.07716104	-26.4993075
0.68	68	-0.171	-0.984	0.089	-13.5791046	-34.7212548	-2.0626488	83.75500044	-1.08289062	-26.84881188
0.69	69	-0.176	-1.009	0.116	-12.3758928	-29.5646328	-1.0313244	83.64040884	-1.10007936	-27.14102046
0.7	70	-0.162	-1.03	0.135	-10.7143146	-22.345362	1.2605076	83.5659243	-1.15164558	-27.3587445
0.71	71	-0.142	-1.037	0.123	-9.2819196	-16.2147114	4.297185	83.4799806	-1.20894138	-27.51917274
0.72	72	-0.133	-1.041	0.111	-8.4797784	-14.610429	7.3911582	83.39976648	-1.29488508	-27.65095308
0.73	73	-0.135	-1.049	0.101	-8.021412	-14.7823164	10.3705398	83.31955236	-1.40947668	-27.788463
0.74	74	-0.141	-1.054	0.089	-7.6203414	-15.0114996	12.7769634	83.2507974	-1.55271618	-27.92024334
0.75	75	-0.145	-1.042	0.072	-7.2765666	-15.6990492	14.610429	83.19923118	-1.718874	-28.06348284
0.76	76	-0.139	-1.008	0.061	-7.5630456	-17.2460358	14.5531332	83.13047622	-1.87930224	-28.2181815
0.77	77	-0.12	-0.964	0.045	-8.021412	-19.3086846	12.8342592	83.06172126	-2.02827132	-28.3900689
0.78	78	-0.104	-0.929	0.038	-8.1360036	-21.772404	10.1986524	82.98723672	-2.1485925	-28.59633378
0.79	79	-0.099	-0.916	0.032	-7.5630456	-24.7517856	8.3651868	82.92421134	-2.25745452	-28.83124656
0.8	80	-0.109	-0.918	0.053	-6.7609044	-26.5279554	7.3911582	82.88410428	-2.36058696	-29.08334808
0.81	81	-0.135	-0.93	0.084	-6.4744254	-26.6998428	7.161975	82.83253806	-2.45798982	-29.34117918
0.82	82	-0.143	-0.928	0.085	-6.3598338	-26.642547	6.875496	82.78670142	-2.55539268	-29.5932807
0.83	83	-0.14	-0.906	0.08	-7.6776372	-27.8457588	4.870143	82.72367604	-2.62987722	-29.86257096
0.84	84	-0.128	-0.892	0.072	-9.8548776	-29.7365202	1.8907614	82.63773234	-2.68144344	-30.15477954
0.85	85	-0.13	-0.894	0.051	-9.8548776	-31.1689152	-0.4010706	82.57470696	-2.71582092	-30.46417686
0.86	86	-0.147	-0.908	0.038	-7.9068204	-30.080295	-1.432395	82.51168158	-2.73300966	-30.76211502
0.87	87	-0.168	-0.916	0.037	-5.7868758	-25.496631	-1.432395	82.47157452	-2.74446882	-31.01421654
0.88	88	-0.191	-0.92	0.04	-4.870143	-19.9389384	-1.8334656	82.43146746	-2.7501984	-31.21475184
0.89	89	-0.211	-0.927	0.052	-4.2398892	-15.0687954	-2.86479	82.39708998	-2.73873924	-31.3694505
0.9	90	-0.222	-0.937	0.071	-3.3231564	-11.172681	-4.297185	82.41427872	-2.7501984	-31.4840421
0.91	91	-0.231	-0.95	0.086	-2.578311	-7.9641162	-5.3285094	82.39708998	-2.70436176	-31.5699858
0.92	92	-0.237	-0.966	0.108	-1.5469866	-5.0420304	-5.6149884	82.37990124	-2.65852512	-31.6272816
0.93	93	-0.221	-0.984	0.118	-0.859437	-1.8334656	-5.7868758	82.37417166	-2.60122932	-31.6559295
0.94	94	-0.201	-1.01	0.108	-0.5156622	0.8021412	-6.0733548	82.36844208	-2.53820394	-31.6559295
0.95	95	-0.186	-1.04	0.097	-0.6875496	1.0313244	-5.443101	82.4773041	-2.55539268	-31.65019992
0.96	96	-0.172	-1.063	0.09	-0.6875496	-1.8334656	-4.3544808	82.47157452	-2.51528562	-31.67884782
0.97	97	-0.167	-1.08	0.084	-1.3750992	-5.9587632	-3.6669312	82.46011536	-2.48090814	-31.7418732
0.98	98	-0.181	-1.088	0.085	-2.6356068	-9.2819196	-3.5523396	82.43719704	-2.45798982	-31.83927606
0.99	99	-0.208	-1.085	0.089	-3.2658606	-10.3705398	-4.1825934	82.41427872	-2.42934192	-31.9424085
1	100	-0.229	-1.086	0.082	-2.9220858	-9.8548776	-5.443101	82.4200083	-2.41788276	-32.05127052
1.01	101	-0.255	-1.097	0.087	-1.8334656	-9.9121734	-6.7036086	82.40854914	-2.36058696	-32.15440296
1.02	102	-0.264	-1.11	0.103	0.5156622	-7.2192708	-7.9641162	82.4200083	-2.28610242	-32.24034666
1.03	103	-0.262	-1.129	0.107	3.3804522	-2.4637194	-7.734933	82.45438578	-2.21161788	-32.27472414
1.04	104	-0.262	-1.139	0.124	6.1879464	-0.6302538	-6.0733548	82.51741116	-2.15432208	-32.2861833
1.05	105	-0.249	-1.124	0.152	8.9381448	1.0886202	-4.0680018	82.65492108	-2.14286292	-32.28045372
1.06	106	-0.213	-1.087	0.151	13.2926256	2.9793816	-2.005353	82.78670142	-2.1199446	-32.25180582
1.07	107	-0.174	-1.066	0.114	17.761698	1.4896908	0.4583664	82.97004798	-2.1199446	-32.23461708
1.08	108	-0.134	-1.07	0.101	22.058883	-2.86479	3.8388186	83.1935016	-2.16005166	-32.25180582
1.09	109	-0.069	-1.111	0.075	25.6112226	-5.72958	8.1360036	83.45706228	-2.24026578	-32.29764246
1.1	110	-0.016	-1.148	0.083	29.793816	-8.8235532	12.6623718	83.77791876	-2.36631654	-32.372127
1.11	111	-0.044	-1.144	0.142	37.2995658	-12.4331886	12.605076	84.16180062	-2.49809688	-32.47525944
1.12	112	-0.112	-1.147	0.113	41.5967508	-10.5424272	10.2559482	84.59151912	-2.6069589	-32.56693272
1.13	113	-0.179	-1.147	0.082	41.1383844	-4.010706	8.4797784	85.00977846	-2.68717302	-32.59558062
1.14	114	-0.214	-1.151	0.046	38.5600734	0.0572958	7.448454	85.3993899	-2.75592798	-32.58412146
1.15	115	-0.194	-1.158	-0.009	34.7212548	1.4896908	6.875496	85.75462386	-2.83041252	-32.56120314
1.16	116	-0.134	-1.141	-0.046	29.3927454	-0.4010706	6.589017	86.05256202	-2.8934379	-32.55547356
1.17	117	-0.07	-1.107	-0.134	25.8977016	-1.145916	5.5576926	86.3161227	-2.94500412	-32.56120314
1.18	118	0.015	-1.093	-0.204	23.491278	3.724227	3.3231564	86.55103548	-2.9793816	-32.52109608
1.19	119	0.074	-1.083	-0.247	17.2460358	6.302538	-0.1718874	86.72292288	-2.97365202	-32.45234112
1.2	120	0.08	-1.039	-0.268	10.7143146	6.1879464	-3.0366774	86.76875952	-2.91062664	-32.39504532
1.21	121	0.056	-0.989	-0.267	7.0473834	5.2712136	-4.2398892	86.83751448	-2.86479	-32.3434791
1.22	122	0.053	-0.959	-0.272	3.4950438	4.6982556	-3.7815228	86.87189196	-2.82468294	-32.29764246
1.23	123	0.062	-0.948	-0.269	-0.8021412	1.432395	-1.6615782	86.8604328	-2.8074942	-32.2861833
1.24	124	0.077	-0.971	-0.269	-4.2398892	-4.1252976	-0.4010706	86.82032574	-2.8074942	-32.32629036
1.25	125	0.096	-1.019	-0.254	-4.870143	-9.3392154	-1.7761698	86.72865246	-2.75592798	-32.42369322
1.26	126	0.107	-1.06	-0.221	-2.9793816	-15.1260912	-5.6149884	86.70573414	-2.70436176	-32.5726623
1.27	127	0.09	-1.072	-0.193	-0.9167328	-24.0069402	-9.6256944	86.71146372	-2.61841806	-32.81903424
1.28	128	0.059	-1.061	-0.144	2.2345362	-31.6845774	-13.5791046	86.75157078	-2.4923673	-33.13989072
1.29	129	0.028	-1.045	-0.079	4.9847346	-38.8465524	-17.5325148	86.82605532	-2.32620948	-33.52950216
1.3	130	0.004	-1.024	-0.041	5.7868758	-44.3469492	-20.912967	86.90626944	-2.13140376	-33.98213898
1.31	131	-0.006	-0.997	-0.027	6.589017	-46.1804148	-23.0329116	86.99794272	-1.91367972	-34.44623496
1.32	132	-0.002	-0.969	-0.012	5.9587632	-43.3729206	-23.7204612	87.07815684	-1.68449652	-34.88741262
1.33	133	0.005	-0.951	0.011	3.151269	-38.4454818	-23.1475032	87.12399348	-1.4610429	-35.27702406
1.34	134	0.031	-0.947	0.032	-2.1199446	-33.5753388	-20.912967	87.1182639	-1.26623718	-35.62079886
1.35	135	0.06	-0.953	0.045	-7.6776372	-29.3927454	-17.9908812	87.05523852	-1.08289062	-35.91873702
1.36	136	0.077	-0.945	0.033	-13.3499214	-25.1528562	-14.4958374	86.92918776	-0.9453807	-36.17656812
1.37	137	0.078	-0.932	0.015	-16.7876694	-22.5172494	-11.172681	86.76302994	-0.84224826	-36.40575132
1.38	138	0.066	-0.91	-0.003	-19.0222056	-20.6837838	-9.5683986	86.5739538	-0.75630456	-36.61774578
1.39	139	0.049	-0.886	-0.023	-18.5638392	-18.2773602	-9.8548776	86.39060724	-0.66463128	-36.80682192
1.4	140	0.027	-0.869	-0.02	-16.2720072	-16.902261	-11.172681	86.230179	-0.56149884	-36.9844389
1.41	141	0.014	-0.856	-0.016	-13.750992	-17.0168526	-12.8342592	86.09839866	-0.44117766	-37.16205588
1.42	142	0.006	-0.845	-0.012	-12.7769634	-17.761698	-14.2666542	85.9723479	-0.30366774	-37.34540244
1.43	143	0	-0.838	-0.005	-11.2872726	-18.7357266	-14.6677248	85.8577563	-0.1718874	-37.54593774
1.44	144	-0.001	-0.846	0.009	-10.2559482	-19.4232762	-14.2093584	85.75462386	-0.04010706	-37.74647304
1.45	145	0.009	-0.856	0.021	-9.9694692	-19.4232762	-11.8602306	85.66295058	0.06875496	-37.94700834
1.46	146	0.032	-0.872	0.027	-9.6256944	-18.8503182	-7.9641162	85.5712773	0.13750992	-38.14181406
1.47	147	0.062	-0.889	0.015	-8.880849	-17.6471064	-4.297185	85.47960402	0.1718874	-38.31943104
1.48	148	0.086	-0.917	0.002	-8.3651868	-15.8136408	-1.7761698	85.3993899	0.17761698	-38.47985928
1.49	149	0.088	-0.931	0.01	-7.9641162	-14.8396122	-0.1145916	85.31917578	0.1718874	-38.62882836
1.5	150	0.079	-0.917	0.036	-4.9274388	-15.2406828	0.9740286	85.29625746	0.1718874	-38.77779744
1.51	151	0.081	-0.9	0.085	-1.3178034	-16.5584862	1.6615782	85.2847983	0.14896908	-38.93822568
1.52	152	0.093	-0.887	0.104	-0.0572958	-19.1367972	1.3178034	85.2847983	0.12032118	-39.12730182
1.53	153	0.101	-0.871	0.095	1.2032118	-21.4286292	1.0886202	85.30198704	0.10313244	-39.33929628
1.54	154	0.093	-0.857	0.095	4.5263682	-23.6058696	1.432395	85.34782368	0.07448454	-39.56847948
1.55	155	0.075	-0.863	0.126	7.1046792	-27.3873924	3.0939732	85.45095612	0.04010706	-39.83776974
1.56	156	0.062	-0.862	0.179	9.740286	-32.3148312	5.3858052	85.55408856	-0.02291832	-40.14716706
1.57	157	0.075	-0.868	0.247	11.8602306	-35.7525792	7.3338624	85.68013932	-0.1145916	-40.49667144
1.58	158	0.103	-0.904	0.248	14.4958374	-36.0390582	7.1046792	85.83483798	-0.2005353	-40.84617582
1.59	159	0.118	-1.007	0.139	12.9488508	-33.4034514	4.870143	85.9723479	-0.26356068	-41.17276188
1.6	160	0.101	-1.092	0.074	10.5424272	-26.356068	0.9167328	86.09839866	-0.26929026	-41.43059298
1.61	161	0.035	-1.154	0.074	11.4018642	-23.491278	-0.8021412	86.21871984	-0.26929026	-41.65977618
1.62	162	-0.043	-1.184	0.042	10.2559482	-25.3820394	0.0572958	86.32758186	-0.28074942	-41.9118777
1.63	163	-0.079	-1.149	0.031	7.7922288	-21.772404	1.2605076	86.41352556	-0.29793816	-42.12387216
1.64	164	-0.099	-1.092	0.065	8.1932994	-15.0114996	1.718874	86.49946926	-0.32085648	-42.27284124
1.65	165	-0.107	-1.041	0.157	11.45916	-7.161975	0.572958	86.68281582	-0.35523396	-42.33586662
1.66	166	-0.078	-1.015	0.219	14.32395	-2.578311	0	86.8317849	-0.34950438	-42.36451452
1.67	167	0.016	-1.01	0.25	15.4125702	-4.583664	1.6042824	86.98648356	-0.36669312	-42.40462158
1.68	168	0.126	-1.031	0.259	18.3919518	-9.9121734	4.2398892	87.1755597	-0.41252976	-42.49629486
1.69	169	0.212	-1.077	0.26	22.7464326	-17.7044022	6.1306506	87.41047248	-0.47555514	-42.66818226
1.7	170	0.238	-1.144	0.205	27.1009134	-29.5646328	6.0733548	87.70268106	-0.52139178	-42.95466126
1.71	171	0.223	-1.198	0.169	32.372127	-36.4974246	2.0626488	88.04072628	-0.5443101	-43.30989522
1.72	172	0.199	-1.215	0.204	39.1903272	-34.8358464	-5.0993262	88.44752646	-0.49274388	-43.65367002
1.73	173	0.139	-1.199	0.172	42.5134836	-31.226211	-12.3758928	88.88297454	-0.36096354	-43.95733776
1.74	174	0.07	-1.173	0.091	43.7739912	-32.4867186	-16.2720072	89.33561136	-0.19480572	-44.27819424
1.75	175	-0.035	-1.169	0.019	46.0658232	-39.6486936	-17.8762896	89.8111665	-0.00572958	-44.66780568
1.76	176	-0.13	-1.223	-0.001	47.8992888	-38.961144	-21.8296998	90.2981808	0.21772404	-45.04595796
1.77	177	-0.218	-1.28	-0.036	42.7426668	-29.2781538	-27.0436176	90.73362888	0.50420304	-45.32670738
1.78	178	-0.259	-1.249	-0.085	34.4920716	-18.1054728	-30.7105488	91.08313326	0.81932994	-45.49859478
1.79	179	-0.23	-1.157	-0.153	29.220858	-11.2872726	-29.2781538	91.38107142	1.1172681	-45.59599764
1.8	180	-0.165	-1.093	-0.203	25.8404058	-13.8082878	-22.631841	91.62171378	1.33499214	-45.72777798
1.81	181	-0.076	-1.09	-0.208	20.5691922	-16.5584862	-16.329303	91.82797866	1.51260912	-45.88247664
1.82	182	0.012	-1.116	-0.237	12.318597	-14.8396122	-12.6623718	91.94829984	1.64438946	-46.01998656
1.83	183	0.079	-1.138	-0.235	7.6203414	-16.329303	-11.4018642	92.02851396	1.77044022	-46.1804148
1.84	184	0.106	-1.157	-0.213	5.0993262	-21.0275586	-11.4018642	92.0743506	1.89649098	-46.3809501
1.85	185	0.088	-1.172	-0.188	2.4064236	-23.204799	-12.5477802	92.0743506	2.03973048	-46.6101333
1.86	186	0.037	-1.165	-0.168	-0.1145916	-20.5691922	-13.0634424	92.06289144	2.18296998	-46.80493902
1.87	187	-0.023	-1.134	-0.159	-1.0886202	-14.9542038	-12.4904844	92.05143228	2.31475032	-46.94817852
1.88	188	-0.083	-1.107	-0.144	0	-7.6203414	-10.2559482	92.0457027	2.42361234	-47.02266306
1.89	189	-0.131	-1.07	-0.117	1.3750992	1.718874	-6.4744254	92.06289144	2.48663772	-46.99974474
1.9	190	-0.142	-1.028	-0.086	3.2658606	12.891555	-1.2605076	92.06289144	2.44080108	-46.87942356
1.91	191	-0.12	-0.978	-0.022	5.3285094	23.2620948	4.8128472	92.12591682	2.38350528	-46.65024036
1.92	192	-0.084	-0.936	0.02	6.589017	32.6013102	10.3705398	92.20040136	2.25745452	-46.32938388
1.93	193	-0.051	-0.904	0.042	7.734933	40.0497642	15.183387	92.29207464	2.07983754	-45.93977244
1.94	194	-0.025	-0.889	0.056	8.307891	43.0291458	19.194093	92.38374792	1.8621135	-45.5215131
1.95	195	-0.015	-0.886	0.075	8.1932994	42.112413	22.345362	92.4754212	1.61001198	-45.11471292
1.96	196	-0.016	-0.888	0.099	7.161975	38.7319608	24.4080108	92.55563532	1.34072172	-44.74229022
1.97	197	-0.025	-0.893	0.109	5.3858052	33.9191136	24.9809688	92.61293112	1.06570188	-44.42143374
1.98	198	-0.034	-0.895	0.101	1.5469866	28.5906042	24.0069402	92.63011986	0.80787078	-44.15214348
1.99	199	-0.036	-0.889	0.088	-2.291832	23.8923486	22.058883	92.60720154	0.572958	-43.92296028
2	200	-0.044	-0.886	0.084	-4.6982556	21.0275586	19.8243468	92.5613649	0.35523396	-43.72815456
2.01	201	-0.047	-0.884	0.084	-5.8441716	19.9389384	17.6471064	92.49833952	0.16615782	-43.53907842
2.02	202	-0.047	-0.884	0.076	-6.3598338	20.5118964	15.756345	92.42958456	0	-43.3442727
2.03	203	-0.043	-0.875	0.067	-7.2765666	22.4026578	13.9801752	92.35510002	-0.15469866	-43.13227824
2.04	204	-0.039	-0.858	0.062	-8.4224826	24.637194	12.4904844	92.26342674	-0.29793816	-42.89736546
2.05	205	-0.035	-0.837	0.064	-8.4797784	26.2987722	11.45916	92.17748304	-0.4297185	-42.63953436
2.06	206	-0.038	-0.825	0.074	-8.0787078	27.788463	11.1153852	92.08580976	-0.56149884	-42.3702441
2.07	207	-0.055	-0.831	0.093	-7.7922288	30.1948866	11.1153852	91.99986606	-0.69327918	-42.07803552
2.08	208	-0.069	-0.846	0.097	-7.448454	32.2575354	11.1153852	91.91965194	-0.82505952	-41.76290862
2.09	209	-0.073	-0.859	0.102	-6.4744254	33.4607472	10.4851314	91.83943782	-0.9453807	-41.44205214
2.1	210	-0.069	-0.87	0.112	-5.7868758	33.231564	8.9954406	91.78214202	-1.0599723	-41.11546608
2.11	211	-0.067	-0.875	0.121	-4.9274388	31.4553942	7.1046792	91.71911664	-1.15164558	-40.80606876
2.12	212	-0.068	-0.883	0.133	-3.437748	28.8197874	5.6722842	91.67900958	-1.22613012	-40.52531934
2.13	213	-0.063	-0.892	0.147	-1.8334656	26.0122932	4.870143	91.65036168	-1.2891555	-40.26748824
2.14	214	-0.06	-0.895	0.155	-0.6875496	22.7464326	4.2398892	91.63317294	-1.3464513	-40.04403462
2.15	215	-0.068	-0.89	0.156	-0.286479	20.2827132	3.4950438	91.65036168	-1.39801752	-39.8492289
2.16	216	-0.091	-0.882	0.164	-0.0572958	18.7930224	2.291832	91.63890252	-1.432395	-39.66015276
2.17	217	-0.127	-0.874	0.196	0.286479	18.621135	1.145916	91.63317294	-1.45531332	-39.4768062
2.18	218	-0.161	-0.867	0.227	1.2032118	20.8556712	-0.1718874	91.63890252	-1.46677248	-39.27054132
2.19	219	-0.182	-0.866	0.247	2.9220858	24.8090814	-1.8907614	91.66182084	-1.4610429	-39.02416938
2.2	220	-0.203	-0.883	0.263	4.3544808	29.1062664	-4.3544808	91.7305758	-1.4610429	-38.73769038
2.21	221	-0.217	-0.922	0.272	4.9847346	33.9191136	-6.9327918	91.76495328	-1.40947668	-38.39964516
2.22	222	-0.211	-0.964	0.271	4.8128472	38.388186	-8.4797784	91.79933076	-1.3464513	-38.0157633
2.23	223	-0.195	-1.014	0.266	5.0993262	42.1697088	-8.1360036	91.83943782	-1.2891555	-37.59750396
2.24	224	-0.173	-1.063	0.248	4.9274388	46.1804148	-6.1879464	91.86808572	-1.25477802	-37.13913756
2.25	225	-0.142	-1.098	0.246	5.5003968	46.5241896	-3.6669312	91.92538152	-1.25477802	-36.67504158
2.26	226	-0.099	-1.105	0.251	7.6203414	44.6334282	-2.4637194	91.9884069	-1.2605076	-36.23386392
2.27	227	-0.05	-1.094	0.262	10.2559482	43.0291458	-1.432395	92.08008018	-1.27196676	-35.80414542
2.28	228	-0.022	-1.11	0.261	13.6364004	39.820581	-1.0313244	92.20040136	-1.28342592	-35.4088044
2.29	229	0	-1.104	0.262	13.8655836	33.6899304	1.6042824	92.3321817	-1.32353298	-35.07648876
2.3	230	0.006	-1.085	0.29	16.042824	22.6891368	6.4171296	92.51552826	-1.39228794	-34.85303514
2.31	231	0.025	-1.03	0.324	18.2773602	10.0840608	10.7716104	92.69887482	-1.50687954	-34.75563228
2.32	232	0.029	-0.959	0.341	18.334656	-0.1718874	12.8342592	92.88795096	-1.6329303	-34.76136186
2.33	233	-0.021	-0.89	0.361	18.2773602	-9.1100322	12.891555	93.0770271	-1.75325148	-34.85876472
2.34	234	-0.092	-0.843	0.369	20.7983754	-14.32395	11.6883432	93.29475114	-1.85638392	-35.00200422
2.35	235	-0.131	-0.853	0.328	26.2414764	-13.0061466	10.5424272	93.59841888	-1.95951636	-35.13378456
2.36	236	-0.125	-0.935	0.282	31.5699858	-6.4744254	11.6883432	93.91927536	-2.06837838	-35.20253952
2.37	237	-0.107	-1.136	0.266	35.7525792	-5.0993262	17.4179232	94.28596848	-2.2345362	-35.2655649
2.38	238	-0.063	-1.312	0.187	40.3362432	-7.9641162	26.1841806	94.70422782	-2.48090814	-35.35723818
2.39	239	0.024	-1.487	0.068	45.7793442	-10.886202	37.9298196	95.17405338	-2.84187168	-35.4947481
2.4	240	0.089	-1.627	-0.03	37.4141574	-18.1054728	48.8733174	95.5693944	-3.2945085	-35.71247214
2.41	241	0.134	-1.548	-0.164	17.761698	-22.4026578	53.1705024	95.7699297	-3.79298196	-35.98749198
2.42	242	0.149	-1.343	-0.271	9.3965112	-8.5370742	48.128472	95.87306214	-4.25707794	-36.11927232
2.43	243	0.148	-1.213	-0.288	9.9121734	9.9694692	39.9351726	95.970465	-4.66387812	-36.06197652
2.44	244	0.094	-1.157	-0.263	11.2872726	15.469866	33.6326346	96.07359744	-5.0133825	-35.94165534
2.45	245	-0.004	-1.176	-0.2	12.2613012	13.4072172	28.934379	96.16527072	-5.31132066	-35.8385229
2.46	246	-0.078	-1.246	-0.144	11.9175264	12.1467096	23.5485738	96.27413274	-5.56342218	-35.74684962
2.47	247	-0.131	-1.318	-0.141	10.313244	13.464513	18.9649098	96.36580602	-5.76395748	-35.63225802
2.48	248	-0.183	-1.355	-0.131	5.72958	13.2926256	15.6417534	96.41164266	-5.93584488	-35.51766642
2.49	249	-0.221	-1.347	-0.132	-1.8334656	10.1413566	14.2093584	96.38299476	-6.09054354	-35.4374523
2.5	250	-0.191	-1.287	-0.158	-8.1360036	4.2398892	12.5477802	96.26840316	-6.22805346	-35.4088044
2.51	251	-0.106	-1.206	-0.169	-10.6570188	-5.9014674	8.6516658	96.1710003	-6.302538	-35.47755936
2.52	252	-0.001	-1.122	-0.122	-9.9121734	-18.334656	1.7761698	96.09078618	-6.29680842	-35.66090592
2.53	253	0.067	-1.031	-0.095	-8.59437	-32.658606	-5.6149884	96.04494954	-6.19940556	-35.97603282
2.54	254	0.097	-0.932	-0.08	-5.0420304	-50.133825	-12.7196676	96.05067912	-6.01032942	-36.45731754
2.55	255	0.1	-0.862	-0.044	-0.1145916	-59.014674	-16.5584862	96.10224534	-5.75249832	-37.02454596
2.56	256	0.088	-0.824	-0.008	3.437748	-61.1919144	-19.9389384	96.1996482	-5.4717489	-37.60323354
2.57	257	0.069	-0.802	0.035	5.9014674	-57.9260538	-23.3766864	96.31996938	-5.16235158	-38.14754364
2.58	258	0.064	-0.791	0.073	6.8182002	-48.8160216	-26.2987722	96.43456098	-4.83576552	-38.59445088
2.59	259	0.071	-0.782	0.088	7.8495246	-38.961144	-27.5592798	96.54915258	-4.50917946	-38.94395526
2.6	260	0.066	-0.795	0.082	8.8235532	-33.0596766	-25.3820394	96.6580146	-4.19978214	-39.23616384
2.61	261	0.056	-0.82	0.076	6.3598338	-33.0596766	-20.1108258	96.74968788	-3.9534102	-39.53983158
2.62	262	0.052	-0.832	0.073	1.145916	-41.1956802	-10.2559482	96.79552452	-3.79298196	-39.92944302
2.63	263	0.031	-0.842	0.072	-3.9534102	-48.7587258	-1.7761698	96.78979494	-3.70703826	-40.40499816
2.64	264	-0.01	-0.825	0.084	-8.9954406	-53.571573	4.010706	96.73822872	-3.6669312	-40.9378491
2.65	265	-0.034	-0.805	0.088	-12.032118	-56.149884	7.2192708	96.6580146	-3.66120162	-41.49934794
2.66	266	-0.033	-0.808	0.078	-12.4904844	-56.5509546	7.6776372	96.57780048	-3.65547204	-42.06084678
2.67	267	0.001	-0.825	0.062	-12.2613012	-55.5196302	6.7609044	96.49758636	-3.64974246	-42.61661604
2.68	268	0.048	-0.846	0.054	-12.5477802	-55.4623344	6.5317212	96.41164266	-3.6382833	-43.1723853
2.69	269	0.095	-0.875	0.046	-12.4904844	-57.8114622	7.5630456	96.32569896	-3.63255372	-43.7453433
2.7	270	0.132	-0.9	0.083	-11.5737516	-63.0826758	10.886202	96.256944	-3.6382833	-44.38132668
2.71	271	0.172	-0.917	0.115	-10.5424272	-70.0154676	14.7250206	96.20537778	-3.68984952	-45.08606502
2.72	272	0.188	-0.941	0.141	-8.4224826	-79.0109082	18.5065434	96.18245946	-3.77006364	-45.88247664
2.73	273	0.166	-0.971	0.172	-6.4171296	-87.949053	21.5432208	96.18818904	-3.86173692	-46.77056154
2.74	274	0.142	-1.007	0.162	-4.870143	-96.256944	23.3193906	96.21683694	-3.96486936	-47.73886056
2.75	275	0.131	-1.04	0.139	-4.870143	-104.278356	24.2934192	96.256944	-4.05654264	-48.79310328
2.76	276	0.123	-1.033	0.162	-6.1879464	-111.72681	24.7517856	96.29132148	-4.14821592	-49.91610096
2.77	277	0.138	-1.004	0.183	-5.0420304	-117.3990942	25.210152	96.3428877	-4.2398892	-51.10212402
2.78	278	0.17	-0.972	0.213	-3.0366774	-124.8475482	26.5279554	96.42310182	-4.33156248	-52.35690204
2.79	279	0.194	-0.956	0.246	-3.2658606	-132.1241148	27.8457588	96.50904552	-4.42323576	-53.6861646
2.8	280	0.207	-0.953	0.272	-4.583664	-137.8536948	29.2781538	96.59498922	-4.50344988	-55.07272296
2.81	281	0.2	-0.976	0.317	-8.4224826	-140.7757806	30.4240698	96.64082586	-4.60658232	-56.4936588
2.82	282	0.186	-1.014	0.359	-13.0634424	-142.666542	31.0543236	96.64655544	-4.70971476	-57.93178338
2.83	283	0.183	-1.051	0.37	-17.9335854	-144.2135286	31.2835068	96.6007188	-4.81857678	-59.3870967
2.84	284	0.172	-1.071	0.374	-23.491278	-149.0836716	31.4553942	96.5147751	-4.92170922	-60.88824666
2.85	285	0.144	-1.051	0.342	-27.4446882	-155.7299844	30.366774	96.4001835	-5.00192334	-62.45815158
2.86	286	0.08	-1.019	0.3	-25.6685184	-159.4542114	26.6998428	96.29705106	-5.04775998	-64.0567044
2.87	287	0.033	-0.978	0.26	-22.058883	-156.3602382	23.3766864	96.23402568	-5.0706783	-65.62660932
2.88	288	-0.023	-1.007	0.233	-21.7151082	-152.6360112	19.2513888	96.1710003	-5.05348956	-67.1506776
2.89	289	-0.06	-1.003	0.226	-22.6891368	-150.687954	13.0634424	96.09078618	-4.9847346	-68.65182756
2.9	290	-0.061	-1.005	0.278	-21.9442914	-149.7139254	6.9900876	96.02203122	-4.85868384	-70.1300592
2.91	291	-0.021	-0.968	0.324	-19.0222056	-148.5680094	2.0626488	95.970465	-4.68679644	-71.59683168
2.92	292	0.026	-0.967	0.353	-13.9228794	-145.7605152	-1.4896908	95.96473542	-4.48053156	-73.02922668
2.93	293	0.095	-0.972	0.282	-11.2299768	-140.4320058	-5.0420304	95.970465	-4.25134836	-74.41005546
2.94	294	0.187	-1.007	0.234	-6.6463128	-130.1187618	-7.448454	96.01057206	-4.00497642	-75.67629264
2.95	295	0.254	-1.039	0.205	-8.4797784	-126.8529012	-7.3338624	96.0277608	-3.7528749	-76.9196115
2.96	296	0.267	-1.06	0.12	-14.7250206	-131.207382	-4.4117766	95.97619458	-3.54088044	-78.20303742
2.97	297	0.214	-1.058	0.012	-21.8296998	-139.1714982	0.1145916	95.8558734	-3.36326346	-79.57240704
2.98	298	0.094	-1.037	-0.057	-27.7311672	-148.5107136	4.870143	95.67825642	-3.22575354	-81.03917952
2.99	299	-0.073	-1.011	-0.08	-31.5699858	-153.2089692	8.0787078	95.46626196	-3.11689152	-82.55751822
3	300	-0.188	-1.001	-0.03	-26.8144344	-150.0004044	8.307891	95.28864498	-3.03094782	-84.04147944
3.01	301	-0.351	-1.109	-0.129	-21.8296998	-151.8911658	8.0787078	95.16259422	-2.93354496	-85.5426294
3.02	302	-0.72	-1.383	-0.499	-33.1742682	-210.7339524	12.8342592	94.96205892	-2.81895336	-87.6339261
3.03	303	-1.103	-1.745	-0.211	-46.0085274	-252.3307032	8.9954406	94.64693202	-2.6356068	-90.1262934
3.04	304	-1.377	-2.189	0.083	-85.084263	-181.8568692	-20.1681216	93.88489788	-2.25172494	-91.91392236
3.05	305	-1.332	-2.087	-0.763	-117.6855732	-70.7030172	-60.6189564	92.71606356	-1.6042824	-92.5900128
3.06	306	-0.751	-1.359	-0.667	-92.6473086	-22.5172494	-71.5051584	91.78214202	-0.8880849	-92.7905481
3.07	307	-0.12	-1.051	-0.343	-62.6816052	-16.042824	-50.420304	91.15188822	-0.38388186	-92.94524676
3.08	308	0.084	-0.99	0.045	-69.0987348	-17.6471064	-24.0069402	90.45287946	-0.1432395	-93.12286374
3.09	309	0.172	-0.909	0.171	-80.6151906	-16.5584862	-9.1100322	89.6392791	-0.05156622	-93.29475114
3.1	310	0.257	-0.962	-0.029	-84.2821218	-35.9244666	-2.0626488	88.7798421	-0.02291832	-93.65571468
3.11	311	0.181	-1.166	-0.116	-81.2454444	-62.8534926	7.6776372	87.96624174	-0.10313244	-94.28596848
3.12	312	-0.041	-1.327	-0.04	-85.1415588	-68.182002	16.1001198	87.11253432	-0.28074942	-94.96205892
3.13	313	-0.25	-1.419	0.02	-83.7664596	-65.7755784	16.4438946	86.27601564	-0.46982556	-95.61523104
3.14	314	-0.269	-1.251	0.085	-90.2981808	-57.9833496	8.0787078	85.370742	-0.58441716	-96.19391862
3.15	315	-0.223	-1.008	0.114	-94.0797036	-54.3164184	-1.3178034	84.43682046	-0.62452422	-96.73822872
3.16	316	-0.221	-0.83	0.148	-98.7206634	-59.9887026	-6.1879464	83.4513327	-0.61879464	-97.3455642
3.17	317	-0.276	-0.752	0.087	-103.0178484	-68.6976642	-5.9587632	82.4200083	-0.63598338	-98.04457296
3.18	318	-0.33	-0.736	0.051	-108.6328368	-75.1147938	-2.1772404	81.33711768	-0.70473834	-98.79514794
3.19	319	-0.343	-0.723	-0.004	-108.4036536	-71.906229	1.2605076	80.25995664	-0.82505952	-99.50561586
3.2	320	-0.333	-0.743	-0.058	-105.99723	-65.0880288	5.2712136	79.20571392	-0.99694692	-100.1473288
3.21	321	-0.348	-0.748	-0.106	-107.0285544	-59.3584488	9.5683986	78.13428246	-1.2032118	-100.7145572
3.22	322	-0.356	-0.713	-0.125	-101.986524	-47.9565846	9.1100322	77.1201468	-1.38655836	-101.1729236
3.23	323	-0.32	-0.733	-0.203	-97.8612264	-31.7418732	4.583664	76.13465904	-1.50687954	-101.482321
3.24	324	-0.255	-0.78	-0.238	-97.0017894	-13.5791046	-1.6615782	75.15490086	-1.52979786	-101.6255605
3.25	325	-0.178	-0.821	-0.245	-98.4914802	5.3285094	-8.7089616	74.15222436	-1.45531332	-101.6026421
3.26	326	-0.112	-0.825	-0.24	-93.5640414	10.886202	-11.1153852	73.20111408	-1.33499214	-101.5396168
3.27	327	-0.075	-0.816	-0.204	-92.6473086	-1.5469866	-8.9954406	72.26146296	-1.2605076	-101.591183
3.28	328	-0.037	-0.78	-0.205	-96.0277608	-11.8029348	-9.2819196	71.29316394	-1.22040054	-101.7401521
3.29	329	-0.007	-0.771	-0.231	-99.981171	-22.7464326	-11.8029348	70.28475786	-1.18602306	-101.9979832
3.3	330	-0.005	-0.742	-0.269	-101.5854534	-31.6845774	-17.5325148	69.26489262	-1.13445684	-102.3646763
3.31	331	0.002	-0.768	-0.325	-99.3509172	-37.4714532	-24.350715	68.2679457	-1.04278356	-102.8058539
3.32	332	-0.013	-0.818	-0.337	-98.9498466	-46.6387812	-30.3094782	67.28245794	-0.93965112	-103.3616232
3.33	333	-0.009	-0.871	-0.317	-101.4708618	-48.3576552	-35.4088044	66.2625927	-0.8021412	-103.9517699
3.34	334	0.047	-0.862	-0.341	-105.0232014	-47.4409224	-40.8519054	65.21407956	-0.6302538	-104.5591054
3.35	335	0.058	-0.828	-0.353	-104.4502434	-47.6701056	-45.0344988	64.16556642	-0.42398892	-105.1836296
3.36	336	-0.002	-0.765	-0.32	-97.8039306	-52.425657	-46.1804148	63.18007866	-0.24064236	-105.8654497
3.37	337	-0.064	-0.779	-0.29	-95.397507	-57.3530958	-45.1490904	62.2232388	-0.09740286	-106.5873767
3.38	338	-0.083	-0.806	-0.3	-95.5120986	-59.5303362	-43.1437374	61.26066936	0	-107.320763
3.39	339	-0.069	-0.816	-0.363	-93.5640414	-54.6601932	-41.0810886	60.31528866	0.09167328	-108.002583
3.4	340	0.008	-0.852	-0.499	-90.240885	-38.8465524	-39.6486936	59.39855586	0.24064236	-108.5411635
3.41	341	0.212	-0.996	-0.746	-87.376095	-20.5118964	-37.4714532	58.51047096	0.44690724	-108.9193158
3.42	342	0.372	-1.089	-0.569	-88.1782362	-40.4508348	-30.1375908	57.61665648	0.4870143	-109.4235188
3.43	343	0.32	-0.889	-0.351	-91.386801	-69.7289886	-25.4393352	56.6941941	0.33231564	-110.1569051
3.44	344	0.257	-0.597	-0.446	-93.8505204	-72.0781164	-28.0176462	55.7488134	0.1718874	-110.9189392
3.45	345	0.134	-0.492	-0.597	-86.516658	-71.8489332	-31.7418732	54.86645808	0.03437748	-111.6981621
3.46	346	-0.008	-0.509	-0.642	-74.3699484	-68.4111852	-35.6952834	54.12161268	-0.0572958	-112.4659258
3.47	347	-0.065	-0.58	-0.636	-62.8534926	-58.7854908	-41.5967508	53.49135888	-0.06302538	-113.1878529
3.48	348	-0.056	-0.656	-0.619	-57.0666168	-57.582279	-44.9199072	52.91840088	-0.04010706	-113.9212391
3.49	349	-0.01	-0.656	-0.626	-52.9413192	-58.155237	-45.6074568	52.38554994	-0.02291832	-114.6660845
3.5	350	0.011	-0.681	-0.656	-47.4409224	-53.6288688	-44.117766	51.90426522	0	-115.3650933
3.51	351	0.016	-0.72	-0.672	-40.10706	-47.1544434	-41.7686382	51.50319462	0.04583664	-115.9953471
3.52	352	0.015	-0.731	-0.669	-33.804522	-41.6540466	-39.7059894	51.1651494	0.09740286	-116.5740347
3.53	353	0.016	-0.742	-0.668	-28.6479	-40.2789474	-37.0130868	50.8786704	0.13750992	-117.1183448
3.54	354	0.037	-0.732	-0.668	-24.637194	-41.3675676	-33.9764094	50.63229846	0.14896908	-117.6569253
3.55	355	0.076	-0.736	-0.677	-20.7410796	-41.8832298	-32.1429438	50.41457442	0.14896908	-118.1840467
3.56	356	0.114	-0.732	-0.657	-16.7876694	-42.5134836	-31.9137606	50.2484166	0.13178034	-118.7226272
3.57	357	0.128	-0.721	-0.643	-11.2299768	-44.690724	-32.7159018	50.13955458	0.10313244	-119.2726669
3.58	358	0.113	-0.711	-0.703	-6.7036086	-47.4982182	-34.2055926	50.0765292	0.07448454	-119.8628136
3.59	359	0.062	-0.687	-0.717	-2.4637194	-52.3683612	-34.663959	50.05361088	0.01718874	-120.4873378
3.6	360	0.015	-0.651	-0.698	2.4064236	-53.8007562	-34.7212548	50.0765292	-0.04010706	-121.1233212
3.61	361	0.002	-0.609	-0.684	6.6463128	-51.9672906	-34.4347758	50.15101374	-0.09740286	-121.7478454
3.62	362	0.031	-0.583	-0.68	11.0580894	-50.9359662	-33.2888598	50.27133492	-0.14896908	-122.3551809
3.63	363	0.053	-0.55	-0.691	14.7823164	-50.8213746	-31.6272816	50.42603358	-0.21772404	-122.9510572
3.64	364	0.049	-0.54	-0.688	19.6524594	-50.3057124	-28.934379	50.63802804	-0.29793816	-123.5240152
3.65	365	0.044	-0.542	-0.684	24.637194	-49.4462754	-26.5279554	50.8786704	-0.38388186	-124.0740549
3.66	366	0.055	-0.552	-0.695	30.5386614	-48.4722468	-25.0955604	51.19952688	-0.47555514	-124.6126354
3.67	367	0.066	-0.56	-0.689	35.6379876	-48.3576552	-25.0382646	51.57194958	-0.56149884	-125.1454864
3.68	368	0.072	-0.571	-0.683	39.820581	-47.7846972	-26.2987722	51.99020892	-0.63598338	-125.6840669
3.69	369	0.088	-0.588	-0.672	43.3729206	-47.0971476	-28.4187168	52.44284574	-0.68182002	-126.2341066
3.7	370	0.094	-0.584	-0.653	45.6074568	-48.1857678	-30.653253	52.90121214	-0.70473834	-126.801335
3.71	371	0.073	-0.59	-0.639	49.9619376	-49.847346	-32.0283522	53.42260392	-0.72765666	-127.3914817
3.72	372	0.037	-0.598	-0.624	52.5402486	-50.0192334	-33.8618178	53.9726436	-0.72765666	-127.9930876
3.73	373	0.007	-0.611	-0.609	55.863405	-48.2430636	-35.5806918	54.55133118	-0.70473834	-128.5889639
3.74	374	0	-0.627	-0.581	60.0459984	-46.6387812	-36.5547204	55.1758554	-0.65317212	-129.1791107
3.75	375	-0.01	-0.64	-0.556	62.8534926	-47.4409224	-35.9817624	55.81756836	-0.6016059	-129.774987
3.76	376	-0.008	-0.652	-0.552	64.4004792	-45.7793442	-34.8931422	56.48219964	-0.55003968	-130.347945
3.77	377	0	-0.659	-0.546	64.8588456	-44.8053156	-33.231564	57.1525605	-0.49274388	-130.8979847
3.78	378	0.012	-0.663	-0.528	65.2599162	-46.123119	-30.8824362	57.82292136	-0.46409598	-131.4537539
3.79	379	0.036	-0.666	-0.532	64.9161414	-47.4409224	-28.1322378	58.49328222	-0.45263682	-131.998064
3.8	380	0.047	-0.662	-0.541	63.598338	-50.420304	-25.3820394	59.14072476	-0.46982556	-132.5595629
3.81	381	0.043	-0.648	-0.51	62.738901	-52.3683612	-22.8610242	59.7881673	-0.5156622	-133.1267913
3.82	382	0.036	-0.645	-0.467	63.598338	-52.0245864	-21.8869956	60.447069	-0.56149884	-133.6825606
3.83	383	0.011	-0.647	-0.434	62.6816052	-49.9046418	-21.6578124	61.09451154	-0.59587632	-134.2211411
3.84	384	-0.02	-0.629	-0.433	62.3951262	-46.982556	-20.6837838	61.7362245	-0.61879464	-134.7253441
3.85	385	-0.049	-0.612	-0.437	62.6243094	-41.5967508	-20.05353	62.37793746	-0.61879464	-135.1837105
3.86	386	-0.097	-0.624	-0.419	61.3638018	-34.4920716	-20.05353	63.00819126	-0.58441716	-135.5790515
3.87	387	-0.148	-0.615	-0.397	59.1292656	-26.5279554	-18.048177	63.61552674	-0.52712136	-135.8941784
3.88	388	-0.181	-0.577	-0.405	56.149884	-21.3713334	-17.5325148	64.18848474	-0.45263682	-136.1577391
3.89	389	-0.214	-0.616	-0.383	52.4829528	-13.464513	-15.9282324	64.72706526	-0.35523396	-136.3468153
3.9	390	-0.187	-0.654	-0.363	46.5814854	-0.572958	-13.2926256	65.19116124	-0.25210152	-136.4041111
3.91	391	-0.113	-0.657	-0.348	38.6173692	1.5469866	-8.4797784	65.58650226	-0.16615782	-136.4212998
3.92	392	-0.031	-0.714	-0.347	34.4920716	2.005353	-2.6929026	65.93600664	-0.12605076	-136.4098406
3.93	393	0.054	-0.749	-0.377	30.939732	1.145916	0.859437	66.24540396	-0.12605076	-136.3926519
3.94	394	0.151	-0.685	-0.393	28.3041252	0.1145916	4.5263682	66.53761254	-0.16615782	-136.3754632
3.95	395	0.227	-0.665	-0.429	28.934379	-1.145916	7.5630456	66.79544364	-0.18907614	-136.3525448
3.96	396	0.268	-0.649	-0.474	28.1322378	-3.3231564	8.9381448	67.08192264	-0.27501984	-136.3468153
3.97	397	0.258	-0.634	-0.47	29.1635622	-7.8495246	11.2299768	67.3798608	-0.40680018	-136.3697336
3.98	398	0.217	-0.623	-0.466	30.5386614	-13.4072172	14.1520626	67.6949877	-0.57868758	-136.4384885
3.99	399	0.183	-0.623	-0.429	32.372127	-17.8189938	15.8136408	68.02730334	-0.78495246	-136.541621
4	400	0.153	-0.635	-0.408	34.950438	-21.3140376	16.042824	68.36534856	-0.98548776	-136.6791309
4.01	401	0.107	-0.652	-0.386	35.809875	-19.9962342	15.4125702	68.73777126	-1.19175264	-136.8051817
4.02	402	0.059	-0.677	-0.394	37.4141574	-14.32395	13.8082878	69.12165312	-1.35791046	-136.8853958
4.03	403	0.034	-0.662	-0.394	36.0390582	-8.8235532	11.8029348	69.48834624	-1.49542038	-136.9255028
4.04	404	0.02	-0.643	-0.389	36.0390582	-4.870143	10.8289062	69.85503936	-1.6042824	-136.9312324
4.05	405	0.015	-0.567	-0.406	35.9817624	-2.6356068	10.2559482	70.19308458	-1.70168526	-136.9197733
4.06	406	0.028	-0.516	-0.422	37.1276784	-1.8334656	10.7143146	70.57123686	-1.8048177	-136.8968549
4.07	407	0.041	-0.458	-0.434	40.2216516	-2.8074942	12.1467096	70.97803704	-1.92513888	-136.8796662
4.08	408	0.053	-0.438	-0.417	45.0344988	-3.9534102	13.9801752	71.43640344	-2.0626488	-136.868207
4.09	409	0.071	-0.41	-0.389	50.0765292	-4.6409598	15.4125702	71.94633606	-2.21161788	-136.8624775
4.1	410	0.054	-0.397	-0.343	54.3737142	-2.7501984	16.7303736	72.479187	-2.37204612	-136.8338296
4.11	411	0.024	-0.388	-0.296	59.301153	0.859437	17.0168526	73.0807929	-2.5210152	-136.7708042
4.12	412	0.065	-0.373	-0.252	63.1399716	0.4583664	17.4179232	73.71677628	-2.68144344	-136.7077788
4.13	413	0.066	-0.315	-0.202	63.598338	-1.6042824	17.8762896	74.36421882	-2.84760126	-136.6734013
4.14	414	-0.02	-0.274	-0.2	66.9787902	0	19.0795014	75.04030926	-3.02521824	-136.6161055
4.15	415	-0.056	-0.29	-0.229	70.7030172	0.0572958	24.2934192	75.7450476	-3.24867186	-136.5473506
4.16	416	0.011	-0.294	-0.217	76.0315266	-2.0626488	32.7159018	76.51281132	-3.56379876	-136.4843252
4.17	417	0.121	-0.237	-0.215	81.2454444	-5.2712136	42.2843004	77.33787084	-3.97632852	-136.432759
4.18	418	0.237	-0.194	-0.208	88.5793068	-8.4797784	52.425657	78.23168532	-4.49199072	-136.3983815
4.19	419	0.299	-0.174	-0.163	95.9131692	-13.8655836	61.1346186	79.2114435	-5.0993262	-136.4098406
4.2	420	0.309	-0.15	-0.134	101.8146366	-21.0848544	66.8641986	80.24849748	-5.7582279	-136.4843252
4.21	421	0.282	-0.115	-0.077	106.9139628	-26.4706596	70.2446508	81.35430642	-6.46869582	-136.6275647
4.22	422	0.207	-0.107	-0.036	114.2478252	-31.5699858	71.3905668	82.54605906	-7.19635248	-136.8281
4.23	423	0.145	-0.104	-0.013	118.9460808	-33.1742682	72.192708	83.78937792	-7.92400914	-137.0630128
4.24	424	0.047	-0.11	0.009	123.3578574	-36.4401288	74.1407652	85.08999258	-8.67458412	-137.3437622
4.25	425	-0.029	-0.116	0.034	127.5977466	-40.3362432	76.776372	86.44790304	-9.44234784	-137.6760778
4.26	426	-0.043	-0.096	0.044	131.3792694	-45.1490904	79.7557536	87.85737972	-10.23302988	-138.0771484
4.27	427	0.005	-0.047	0.08	133.7283972	-53.0559108	82.219473	89.31269304	-11.03517108	-138.5813515
4.28	428	0.075	-0.013	0.173	134.358651	-61.879464	82.3340646	90.80811342	-11.82585312	-139.1886869
4.29	429	0.127	0.026	0.283	130.2906492	-67.4944524	80.787078	92.28634506	-12.58215768	-139.8819661
4.3	430	0.14	0.089	0.381	122.3838288	-68.5257768	76.8909636	93.71874006	-13.27543686	-140.6096228
4.31	431	0.184	0.147	0.404	115.0499664	-69.8435802	74.2553568	95.07665052	-13.92860898	-141.3601978
4.32	432	0.268	0.289	0.322	107.429625	-82.9070226	75.1147938	96.4001835	-14.55886278	-142.2654714
4.33	433	0.233	0.451	-0.036	111.440331	-119.1179682	78.495246	97.88414472	-15.14900952	-143.5603565
4.34	434	-0.017	0.679	-0.176	140.6038932	-166.2151158	83.651868	99.8092836	-15.65894214	-145.3479854
4.35	435	-0.37	0.683	0.495	211.2496146	-202.827132	80.9016696	102.5881299	-16.00271694	-147.5252258
4.36	436	-0.656	-0.012	1.32	294.5577078	-251.9296326	60.8481396	106.3295456	-15.88812534	-150.1264552
4.37	437	-0.717	-1.841	2.575	377.579322	-290.7188892	52.8267276	110.9934238	-15.37819272	-153.048541
4.38	438	-0.957	-3.958	3.715	457.7361462	-295.2452574	66.176649	116.4422543	-14.71929102	-155.9935451
4.39	439	-2.03	-3.999	3.972	320.85648	-234.4544136	-19.5951636	120.2008588	-13.39002846	-157.9129544
4.4	440	-3.311	-3.185	3.999	570.952647	-164.725425	56.8374336	126.3830756	-12.93739164	-159.5458847
4.41	441	-2.406	-2.869	3.867	634.6655766	-102.4448904	97.2309726	133.1382505	-13.02333534	-160.8751472
4.42	442	-1.726	-1.926	3.759	569.6921394	-32.1429438	74.8283148	139.0798249	-13.3212735	-161.5684264
4.43	443	-1.033	-0.822	3.477	320.6272968	3.2085648	39.9351726	142.3915222	-13.6077525	-161.8147984
4.44	444	-0.427	-0.477	2.819	209.0723742	-6.8182002	22.5745452	144.563033	-13.6936962	-162.0153337
4.45	445	-0.16	-0.482	1.875	200.4207084	-33.231564	24.8090814	146.6887072	-13.56191586	-162.3820268
4.46	446	-0.076	-0.522	1.606	206.26488	-57.1812084	27.6738714	148.9117842	-13.22960022	-162.8862298
4.47	447	-0.094	-0.469	1.371	211.135023	-52.139178	31.1689152	151.1749683	-12.94312122	-163.3847033
4.48	448	-0.129	-0.715	1.239	208.3275288	-66.9787902	36.4974246	153.4324228	-12.53059146	-163.9920388
4.49	449	0.058	-0.659	1.054	219.156435	-72.8229618	43.2010332	155.8044689	-12.07222506	-164.65667
4.5	450	0.032	-0.61	1.221	231.8188068	-51.0505578	58.0979412	158.314025	-11.83731228	-165.3614084
4.51	451	0.084	-0.312	1.123	236.6889498	-39.0757356	66.2339448	160.8694177	-11.7169911	-166.089065
4.52	452	-0.017	-0.259	1.081	231.8188068	-34.7212548	66.0047616	163.3732441	-11.60812908	-166.799533
4.53	453	-0.118	0.158	1.165	227.750805	-34.4347758	61.8221682	165.8197748	-11.45916	-167.4641642
4.54	454	-0.28	0.029	1.285	217.6667442	-33.0023808	48.3576552	168.1402547	-11.26435428	-167.9798264
4.55	455	-0.225	0.223	1.363	186.21135	-17.8189938	45.550161	170.1341485	-11.19559932	-168.449652
4.56	456	-0.298	-0.083	1.484	156.3029424	2.0626488	40.8519054	171.8014563	-11.29300218	-168.8392634
4.57	457	-0.455	0.314	1.286	121.1233212	20.7983754	36.4974246	173.0906118	-11.55656286	-169.1715791
4.58	458	-0.387	-0.369	1.137	104.7367224	17.3033316	45.2063862	174.2422574	-11.78574606	-169.6070272
4.59	459	-0.21	-0.517	1.107	86.7458412	23.6631654	66.6923112	175.256393	-12.0894138	-170.2544697
4.6	460	-0.164	0.386	1.176	97.5747474	14.6677248	50.7640788	176.3564724	-12.27848994	-170.7586727
4.61	461	-0.289	-1.117	1.342	84.7404882	7.8495246	38.2162986	177.2961235	-12.38735196	-171.136825
4.62	462	-0.258	0.639	1.231	82.6205436	7.6203414	70.5311298	178.2873409	-12.49621398	-171.8415634
4.63	463	-0.394	-1.781	1.671	58.6136034	6.8182002	93.0483792	179.0894821	-12.58788726	-172.7869441
4.64	464	-0.288	-0.225	1.352	26.6998428	-2.86479	89.667927	179.5593076	-12.57069852	-173.6979473
4.65	465	-0.268	-0.066	1.197	14.7250206	-12.7769634	64.5723666	179.9145416	-12.45610692	-174.3625786
4.66	466	-0.243	0.023	1.081	5.156622	-22.4026578	32.7731976	-179.9546486	-12.2326533	-174.6891646
4.67	467	-0.215	-0.647	1.111	7.9641162	-27.6738714	19.6524594	-179.8285979	-11.95763346	-174.8839703
4.68	468	-0.282	0.18	0.976	-18.621135	-37.1276784	10.7143146	-179.9947557	-11.59094034	-174.9813732
4.69	469	-0.228	-0.807	1.106	-4.4690724	-45.6074568	4.6982556	179.9718374	-11.13830352	-175.0157507
4.7	470	-0.175	0.111	0.802	-1.2032118	-34.37748	-1.6042824	179.908812	-10.80598788	-174.9813732
4.71	471	-0.159	0.359	0.753	6.3598338	-26.5852512	-9.0527364	179.9603782	-10.5424272	-174.8839703
4.72	472	0.014	0.696	0.747	6.8182002	-19.9389384	-4.583664	-179.9718374	-10.34762148	-174.8266745
4.73	473	-0.056	0.527	0.682	-1.0313244	-5.72958	8.3651868	-179.9661078	-10.29032568	-174.9126182
4.74	474	-0.062	0.268	0.66	-2.3491278	7.8495246	15.8709366	-179.9661078	-10.36481022	-175.0730465
4.75	475	-0.127	0.543	0.618	-0.0572958	15.9855282	17.5325148	-179.7598429	-10.53096804	-175.2965001
4.76	476	-0.077	0.613	0.607	0.0572958	16.2147114	14.9542038	-179.731195	-10.69139628	-175.4569283
4.77	477	-0.102	0.576	0.691	-3.4950438	16.1001198	7.734933	-179.7541133	-10.85182452	-175.5371425
4.78	478	-0.16	0.255	0.796	-4.4690724	10.886202	-0.0572958	-179.79995	-10.95495696	-175.542872
4.79	479	-0.191	0.171	0.936	-6.2452422	5.7868758	-0.9167328	-179.8687049	-11.01225276	-175.5371425
4.8	480	-0.18	0.155	1.05	-14.037471	1.8907614	-0.6875496	-179.9603782	-11.01798234	-175.542872
4.81	481	-0.189	0.121	1.114	-20.340009	-4.9847346	-0.572958	179.8285979	-10.96641612	-175.5371425
4.82	482	-0.191	0.085	1.151	-23.6631654	-14.3812458	-0.859437	179.5879555	-10.81744704	-175.5256833
4.83	483	-0.194	0.035	1.2	-25.5539268	-22.2880662	-1.4896908	179.3301244	-10.59399342	-175.5084946
4.84	484	-0.212	0.002	1.221	-24.7517856	-24.9809688	-2.1199446	179.0722933	-10.34762148	-175.4855762
4.85	485	-0.206	-0.022	1.205	-22.5745452	-23.2620948	-2.8074942	178.8431101	-10.1127087	-175.4569283
4.86	486	-0.195	-0.039	1.194	-19.0222056	-22.0015872	-3.6669312	178.6483044	-9.88925508	-175.4168213
4.87	487	-0.187	-0.045	1.173	-14.2666542	-19.194093	-3.8961144	178.4936057	-9.70017894	-175.3767142
4.88	488	-0.192	-0.053	1.143	-9.0527364	-14.4385416	-3.7815228	178.4019325	-9.55120986	-175.3423367
4.89	489	-0.183	-0.031	1.101	-5.2712136	-11.3445684	-3.4950438	178.3389071	-9.43661826	-175.3079593
4.9	490	-0.162	-0.024	1.075	-2.6929026	-9.740286	-2.4064236	178.3159888	-9.3392154	-175.2850409
4.91	491	-0.165	-0.018	1.039	-2.4064236	-10.599723	-1.2032118	178.2873409	-9.23035338	-175.2735818
4.92	492	-0.191	-0.006	1.027	-3.7815228	-12.6623718	-2.0626488	178.2472338	-9.10430262	-175.2506635
4.93	493	-0.131	-0.021	1.004	-8.4224826	-13.6936962	-3.7815228	178.1612901	-8.9667927	-175.216286
4.94	494	-0.154	-0.036	0.952	-13.178034	-13.6364004	-3.0939732	178.0237802	-8.82928278	-175.1819085
4.95	495	-0.152	-0.018	0.909	-14.5531332	-13.3499214	-4.010706	177.8690815	-8.69750244	-175.147531
4.96	496	-0.149	-0.029	0.903	-15.2406828	-13.4072172	-3.9534102	177.7086533	-8.55999252	-175.107424
4.97	497	-0.145	-0.071	0.884	-15.5844576	-14.037471	-3.3231564	177.548225	-8.4224826	-175.0787761
4.98	498	-0.163	-0.057	0.905	-13.464513	-14.2666542	-2.8074942	177.4107151	-8.2792431	-175.0558577
4.99	499	-0.123	-0.068	0.886	-13.2926256	-13.8655836	-3.3804522	177.2732052	-8.1360036	-175.0214803
5	500	-0.078	-0.071	0.947	-10.0840608	-14.896908	-2.4637194	177.1586136	-7.97557536	-174.9985619
5.01	501	-0.099	-0.057	1.027	-7.6203414	-16.2147114	-0.8021412	177.0841291	-7.81514712	-174.9985619
5.02	502	-0.11	-0.049	1.044	-4.6409598	-14.896908	-1.0886202	177.0382924	-7.66617804	-174.9871028
5.03	503	-0.14	-0.056	1.09	-4.4117766	-14.3812458	-1.718874	176.9924558	-7.52293854	-174.9756436
5.04	504	-0.116	-0.043	1.1	-4.870143	-12.2613012	-1.4896908	176.9408896	-7.40261736	-174.9641845
5.05	505	-0.155	-0.117	1.068	-5.3858052	-10.313244	-1.5469866	176.866405	-7.29375534	-174.9469957
5.06	506	-0.119	-0.04	1.036	-5.9014674	-8.9381448	-1.3750992	176.8033796	-7.20208206	-174.9355366
5.07	507	-0.099	-0.035	1.013	-7.9641162	-9.740286	-1.3750992	176.7231655	-7.1046792	-174.9240774
5.08	508	-0.114	-0.087	0.995	-10.5424272	-11.8602306	-1.432395	176.6200331	-6.98435802	-174.9183478
5.09	509	-0.102	-0.048	0.996	-9.0527364	-12.605076	-0.6875496	176.5283598	-6.85830726	-174.9126182
5.1	510	-0.111	-0.077	0.984	-8.4224826	-11.9175264	-1.2605076	176.4309569	-6.73798608	-174.9068887
5.11	511	-0.112	-0.076	0.967	-7.2192708	-11.0007936	-1.432395	176.3564724	-6.62912406	-174.8954295
5.12	512	-0.111	-0.071	0.953	-5.3858052	-9.3965112	-1.3178034	176.3049062	-6.5317212	-174.8839703
5.13	513	-0.104	-0.059	0.977	-2.9220858	-7.2192708	-1.145916	176.2762583	-6.45723666	-174.8782408
5.14	514	-0.103	-0.056	1.012	-1.0313244	-4.6982556	-0.859437	176.2647991	-6.41140002	-174.8667816
5.15	515	-0.101	-0.054	1.016	-0.4583664	-2.578311	-0.6875496	176.2705287	-6.34264506	-174.861052
5.16	516	-0.102	-0.057	0.999	-1.432395	-1.432395	-0.572958	176.25334	-6.32545632	-174.861052
5.17	517	-0.099	-0.058	0.984	-2.5210152	-1.8334656	-0.4010706	176.2246921	-6.30826758	-174.8553224
5.18	518	-0.098	-0.057	0.973	-3.151269	-2.291832	-0.3437748	176.1960442	-6.28534926	-174.8495929
5.19	519	-0.101	-0.059	0.98	-3.151269	-2.291832	-0.1718874	176.1616667	-6.26243094	-174.8495929
5.2	520	-0.099	-0.055	0.977	-2.0626488	-2.005353	-0.2291832	176.1444779	-6.22805346	-174.8495929
5.21	521	-0.101	-0.055	0.972	-1.0886202	-1.9480572	-0.1718874	176.1330188	-6.21086472	-174.8495929
5.22	522	-0.102	-0.055	0.982	0	-2.2345362	0.1145916	176.1330188	-6.1879464	-174.8495929
5.23	523	-0.103	-0.058	1.012	1.5469866	-2.1199446	0.1145916	176.1502075	-6.16502808	-174.8553224
5.24	524	-0.1	-0.055	1.049	3.6096354	-0.9167328	0.0572958	176.184585	-6.1592985	-174.8553224
5.25	525	-0.094	-0.047	1.05	4.583664	1.0313244	0	176.2418808	-6.15356892	-174.8553224
5.26	526	-0.1	-0.063	1.023	3.7815228	2.3491278	-0.0572958	176.2819879	-6.18221682	-174.8553224
5.27	527	-0.095	-0.063	0.999	2.6356068	1.9480572	0.0572958	176.3049062	-6.19940556	-174.8553224
5.28	528	-0.094	-0.056	0.97	0.859437	0.9167328	0.2291832	176.3163653	-6.21086472	-174.8553224
5.29	529	-0.092	-0.054	0.946	-1.432395	-0.7448454	0.1145916	176.2991766	-6.19940556	-174.8553224
5.3	530	-0.098	-0.048	0.953	-3.5523396	-2.86479	0.2291832	176.2762583	-6.16502808	-174.861052
5.31	531	-0.095	-0.048	0.98	-4.3544808	-3.9534102	0.3437748	176.2361512	-6.12492102	-174.8667816
5.32	532	-0.097	-0.056	0.997	-3.3804522	-4.0680018	0.4010706	176.2017737	-6.08481396	-174.8725112
5.33	533	-0.097	-0.058	1.009	-1.9480572	-4.1825934	0.3437748	176.1788554	-6.0447069	-174.8782408
5.34	534	-0.103	-0.062	1.032	0.5156622	-3.8961144	0.3437748	176.1903146	-6.00459984	-174.8839703
5.35	535	-0.104	-0.066	1.054	3.2658606	-2.9220858	0.3437748	176.2132329	-5.97022236	-174.8896999
5.36	536	-0.103	-0.065	1.062	5.5003968	-1.2032118	0.1718874	176.2705287	-5.9587632	-174.8896999
5.37	537	-0.097	-0.066	1.058	6.302538	0.5156622	0	176.3335541	-5.96449278	-174.8896999
5.38	538	-0.099	-0.064	1.044	6.302538	1.3178034	0	176.3965795	-5.97595194	-174.8896999
5.39	539	-0.098	-0.057	1.031	5.6722842	2.005353	0	176.4538753	-5.99887026	-174.8839703
5.4	540	-0.094	-0.058	1.009	4.6982556	2.8074942	-0.1145916	176.4997119	-6.01032942	-174.8839703
5.41	541	-0.091	-0.056	0.995	3.0366774	3.724227	-0.3437748	176.5283598	-6.05043648	-174.8782408
5.42	542	-0.092	-0.056	0.984	1.4896908	4.4117766	-0.5156622	176.539819	-6.09054354	-174.8725112
5.43	543	-0.093	-0.054	0.985	-0.1718874	4.3544808	-0.6302538	176.539819	-6.13638018	-174.861052
5.44	544	-0.096	-0.052	0.99	-1.6615782	3.9534102	-0.6302538	176.5226302	-6.17075766	-174.8553224
5.45	545	-0.099	-0.053	1	-2.1772404	3.7815228	-0.572958	176.4997119	-6.19940556	-174.8495929
5.46	546	-0.101	-0.052	1.011	-2.1199446	3.6669312	-0.572958	176.4767936	-6.23378304	-174.8381337
5.47	547	-0.105	-0.052	1.015	-2.005353	3.437748	-0.6875496	176.4538753	-6.26816052	-174.8324041
5.48	548	-0.105	-0.053	1.02	-1.5469866	3.6096354	-0.6875496	176.4366865	-6.302538	-174.8266745
5.49	549	-0.107	-0.05	1.021	-1.0886202	3.724227	-0.6302538	176.4252274	-6.33691548	-174.8152154
5.5	550	-0.106	-0.052	1.003	-1.4896908	3.0366774	-0.572958	176.4137682	-6.3598338	-174.8094858
5.51	551	-0.106	-0.053	0.996	-2.005353	1.3750992	-0.3437748	176.3908499	-6.37702254	-174.8094858
5.52	552	-0.107	-0.053	0.997	-2.4637194	-0.1718874	-0.1718874	176.362202	-6.37129296	-174.8037562
5.53	553	-0.105	-0.056	0.999	-2.6356068	-1.3178034	0	176.3392837	-6.3598338	-174.8037562
5.54	554	-0.106	-0.056	1.005	-2.1772404	-2.4064236	0.0572958	176.3163653	-6.3311859	-174.8094858
5.55	555	-0.108	-0.056	1.022	-1.3178034	-3.3804522	0.286479	176.3049062	-6.29107884	-174.8094858
5.56	556	-0.109	-0.057	1.037	0.1145916	-3.9534102	0.4010706	176.3049062	-6.25097178	-174.8152154
5.57	557	-0.108	-0.055	1.04	2.1199446	-3.6669312	0.286479	176.3278245	-6.2165943	-174.820945
5.58	558	-0.107	-0.056	1.037	3.437748	-3.0366774	0.3437748	176.362202	-6.1879464	-174.8266745
5.59	559	-0.107	-0.054	1.033	4.1252976	-2.7501984	0.3437748	176.4080386	-6.1592985	-174.8324041
5.6	560	-0.105	-0.053	1.027	4.3544808	-2.1772404	0.3437748	176.4538753	-6.1306506	-174.8381337
5.61	561	-0.103	-0.051	1.022	3.9534102	-1.3750992	0.4010706	176.4997119	-6.11919144	-174.8381337
5.62	562	-0.101	-0.052	1.017	3.2658606	-0.9167328	0.4583664	176.5340894	-6.11346186	-174.8438633
5.63	563	-0.099	-0.053	1.005	2.2345362	-0.4010706	0.286479	176.5570077	-6.10773228	-174.8495929
5.64	564	-0.097	-0.052	0.993	0.6875496	-0.2291832	0.1718874	176.5627373	-6.1020027	-174.8495929
5.65	565	-0.098	-0.052	0.988	-0.9167328	-0.7448454	0.1718874	176.5512781	-6.0733548	-174.8553224
5.66	566	-0.098	-0.054	0.997	-2.3491278	-1.4896908	0.286479	176.5283598	-6.06189564	-174.8553224
5.67	567	-0.097	-0.053	1.002	-3.151269	-1.718874	0.1718874	176.4997119	-6.03897732	-174.861052
5.68	568	-0.097	-0.055	0.999	-3.7815228	-1.8334656	0.1145916	176.4596048	-6.02178858	-174.861052
5.69	569	-0.098	-0.056	1	-4.010706	-2.4637194	0.1145916	176.4194978	-5.99887026	-174.8667816
5.7	570	-0.098	-0.058	1.011	-3.6096354	-2.9220858	0.1718874	176.3736611	-5.95303362	-174.8667816
5.71	571	-0.1	-0.054	1.023	-2.7501984	-2.6356068	0.1718874	176.3450132	-5.92438572	-174.8667816
5.72	572	-0.099	-0.056	1.025	-1.8334656	-1.9480572	0.1145916	176.3278245	-5.90719698	-174.8725112
5.73	573	-0.099	-0.055	1.027	-0.9740286	-1.432395	0.0572958	176.3163653	-5.89000824	-174.8725112
5.74	574	-0.097	-0.056	1.022	-0.2291832	-0.5156622	0.0572958	176.3163653	-5.88427866	-174.8725112
5.75	575	-0.096	-0.058	1.013	0.1718874	0.0572958	0	176.3106358	-5.76968706	-174.8725112
5.76	576	-0.097	-0.056	1.011	0.3437748	0.2291832	0	176.3106358	-5.76968706	-174.8725112
5.77	577	-0.098	-0.056	1.016	0.6302538	0.0572958	0.1145916	176.3220949	-5.77541664	-174.8725112
5.78	578	-0.098	-0.056	1.018	0.8021412	0.3437748	0.0572958	176.3278245	-5.77541664	-174.8725112
5.79	579	-0.097	-0.055	1.018	0.7448454	0.6302538	0	176.3335541	-5.78114622	-174.8725112
5.8	580	-0.097	-0.055	1.014	0.6875496	1.0313244	-0.0572958	176.3564724	-5.76968706	-174.8725112
5.81	581	-0.096	-0.055	1.007	0.4583664	1.3178034	-0.1145916	176.3564724	-5.78114622	-174.8725112
5.82	582	-0.097	-0.055	1.003	0.1718874	1.6042824	-0.1145916	176.362202	-5.79833496	-174.8667816
5.83	583	-0.098	-0.055	1.007	0	1.432395	-0.1145916	176.362202	-5.80979412	-174.8667816
5.84	584	-0.098	-0.055	1.011	-0.1718874	1.4896908	-0.1145916	176.3564724	-5.82698286	-174.8667816
5.85	585	-0.097	-0.054	1.009	-0.3437748	1.7761698	-0.1718874	176.3507428	-5.82125328	-174.861052
5.86	586	-0.098	-0.055	1.003	-0.286479	2.4637194	-0.2291832	176.3507428	-5.84990118	-174.861052
5.87	587	-0.097	-0.056	1.005	-0.4583664	2.9220858	-0.286479	176.3450132	-5.87854908	-174.8553224
5.88	588	-0.099	-0.054	1.009	-0.3437748	3.0366774	-0.2291832	176.3392837	-5.90719698	-174.8495929
5.89	589	-0.101	-0.055	1.012	-0.1145916	3.151269	-0.1145916	176.3335541	-5.93584488	-174.8495929
5.9	590	-0.103	-0.055	1.015	0.2291832	3.151269	-0.1718874	176.3450132	-5.96449278	-174.8438633
5.91	591	-0.103	-0.056	1.009	0.4583664	2.9793816	-0.1718874	176.3450132	-5.99314068	-174.8438633
5.92	592	-0.104	-0.056	1.007	0.4583664	2.6356068	-0.1145916	176.3507428	-6.016059	-174.8381337
5.93	593	-0.104	-0.056	1.014	0.2291832	1.9480572	-0.0572958	176.3507428	-6.03897732	-174.8381337
5.94	594	-0.104	-0.056	1.013	0.2291832	1.432395	0	176.3564724	-6.05043648	-174.8381337
5.95	595	-0.104	-0.056	1.013	1.0886202	1.4896908	-0.0572958	176.3679316	-6.06189564	-174.8381337
5.96	596	-0.105	-0.055	1.011	2.3491278	1.6042824	0	176.3908499	-6.07908438	-174.8324041
5.97	597	-0.106	-0.054	1.008	2.9220858	1.6042824	0.0572958	176.4194978	-6.09627312	-174.8324041
5.98	598	-0.107	-0.054	1.008	3.151269	1.2032118	0.1145916	176.4538753	-6.10773228	-174.8381337
5.99	599	-0.108	-0.053	1.012	2.9793816	0.5156622	0.0572958	176.4825232	-6.11346186	-174.8381337
6	600	-0.106	-0.051	1.014	2.6356068	0.286479	0.1145916	176.5226302	-6.11346186	-174.8381337
6.01	601	-0.106	-0.051	1.014	2.291832	0	0.1145916	176.5455485	-6.11346186	-174.8381337
6.02	602	-0.106	-0.051	1.014	1.8334656	-0.1145916	0.1145916	176.5627373	-6.11346186	-174.8438633
6.03	603	-0.105	-0.051	1.012	1.3750992	-0.1145916	0.1145916	176.579926	-6.10773228	-174.8438633
6.04	604	-0.105	-0.051	1.009	0.8021412	-0.3437748	0.0572958	176.5856556	-6.10773228	-174.8438633
6.05	605	-0.105	-0.05	1.009	0.0572958	-0.572958	0	176.5971148	-6.07908438	-174.8438633
6.06	606	-0.104	-0.051	1.008	-0.4010706	-0.9740286	0.0572958	176.5971148	-6.06762522	-174.8438633
6.07	607	-0.104	-0.053	1.009	-0.7448454	-1.2605076	0.0572958	176.5856556	-6.05616606	-174.8495929
6.08	608	-0.104	-0.052	1.011	-0.9167328	-1.6042824	0.1145916	176.579926	-6.03897732	-174.8495929
6.09	609	-0.103	-0.051	1.012	-0.9167328	-1.4896908	0.0572958	176.5684669	-6.02751816	-174.8495929
6.1	610	-0.103	-0.052	1.014	-0.7448454	-1.0886202	0	176.5627373	-5.99887026	-174.8495929
6.11	611	-0.104	-0.052	1.015	-0.572958	-0.9167328	0.1145916	176.5570077	-5.9874111	-174.8553224
6.12	612	-0.103	-0.051	1.011	-0.6875496	-0.7448454	0.1145916	176.5512781	-5.98168152	-174.8553224
6.13	613	-0.104	-0.052	1.011	-0.7448454	-0.8021412	0.0572958	176.5455485	-5.97022236	-174.8553224
6.14	614	-0.104	-0.052	1.012	-0.6302538	-0.859437	0	176.539819	-5.96449278	-174.8553224
6.15	615	-0.103	-0.053	1.014	-0.2291832	-0.572958	0.1145916	176.5455485	-5.94157446	-174.861052
6.16	616	-0.103	-0.052	1.016	-0.1718874	-0.3437748	0.0572958	176.539819	-5.93584488	-174.861052
6.17	617	-0.103	-0.052	1.016	-0.1718874	-0.1145916	0.0572958	176.539819	-5.93584488	-174.861052
6.18	618	-0.103	-0.053	1.014	-0.286479	0	0.0572958	176.5340894	-5.93584488	-174.861052
6.19	619	-0.102	-0.053	1.008	-0.4010706	0.286479	0	176.5340894	-5.93584488	-174.861052
6.2	620	-0.101	-0.053	1.002	-0.4583664	0.4583664	0.0572958	176.5226302	-5.91865614	-174.861052
6.21	621	-0.101	-0.053	1.006	-0.6302538	0.4010706	0	176.5169006	-5.92438572	-174.861052
6.22	622	-0.102	-0.052	1.013	-0.572958	0.3437748	0	176.5111711	-5.92438572	-174.861052
6.23	623	-0.103	-0.051	1.015	-0.4010706	0.572958	0	176.5054415	-5.9301153	-174.861052
6.24	624	-0.103	-0.052	1.015	-0.3437748	0.6302538	0	176.4997119	-5.93584488	-174.861052
6.25	625	-0.103	-0.053	1.009	-0.4010706	0.6875496	-0.0572958	176.4939823	-5.93584488	-174.861052
6.26	626	-0.104	-0.052	1.007	-0.5156622	0.6302538	-0.0572958	176.4882527	-5.94157446	-174.861052
6.27	627	-0.103	-0.053	1.01	-0.4583664	0.5156622	-0.0572958	176.4825232	-5.94730404	-174.8553224
6.28	628	-0.104	-0.053	1.014	-0.4583664	0.4583664	-0.0572958	176.4825232	-5.95303362	-174.8553224
6.29	629	-0.104	-0.052	1.014	-0.4583664	0.286479	-0.0572958	176.4767936	-5.9587632	-174.8553224
6.3	630	-0.105	-0.052	1.012	-0.4583664	0.4010706	-0.0572958	176.4882527	-5.9587632	-174.8553224
6.31	631	-0.105	-0.053	1.009	-0.4010706	0.286479	-0.1145916	176.4825232	-5.96449278	-174.8553224
6.32	632	-0.105	-0.054	1.007	-0.4583664	0.1718874	-0.1145916	176.4767936	-5.96449278	-174.8553224
6.33	633	-0.104	-0.053	1.01	-0.3437748	0.0572958	-0.0572958	176.4767936	-5.96449278	-174.8553224
6.34	634	-0.104	-0.052	1.011	-0.286479	0.1145916	0	176.471064	-5.97022236	-174.8553224
6.35	635	-0.105	-0.053	1.012	-0.1718874	0.0572958	-0.0572958	176.4767936	-5.94157446	-174.8553224
6.36	636	-0.105	-0.053	1.014	-0.2291832	0	-0.1145916	176.4767936	-5.94157446	-174.8495929
6.37	637	-0.104	-0.054	1.015	-0.2291832	-0.1145916	-0.1145916	176.471064	-5.93584488	-174.8495929
6.38	638	-0.106	-0.054	1.014	-0.0572958	-0.1145916	-0.1145916	176.471064	-5.93584488	-174.8495929
6.39	639	-0.104	-0.054	1.013	-0.0572958	-0.1145916	-0.0572958	176.471064	-5.93584488	-174.8495929
6.4	640	-0.105	-0.053	1.013	-0.1718874	-0.1145916	-0.1145916	176.4653344	-5.9301153	-174.8438633
6.41	641	-0.105	-0.054	1.01	-0.286479	-0.2291832	0	176.4653344	-5.9301153	-174.8438633
6.42	642	-0.105	-0.054	1.011	-0.286479	-0.2291832	-0.0572958	176.4596048	-5.92438572	-174.8438633
6.43	643	-0.103	-0.054	1.009	-0.572958	-0.2291832	-0.0572958	176.4538753	-5.92438572	-174.8438633
6.44	644	-0.104	-0.053	1.009	-0.6302538	-0.4583664	0	176.4481457	-5.91865614	-174.8438633
6.45	645	-0.104	-0.053	1.011	-0.6302538	-0.7448454	-0.0572958	176.4424161	-5.9014674	-174.8438633
6.46	646	-0.105	-0.054	1.011	-0.5156622	-0.7448454	0	176.4366865	-5.89573782	-174.8438633
6.47	647	-0.104	-0.055	1.006	-0.3437748	-0.8021412	0	176.4366865	-5.89000824	-174.8438633
6.48	648	-0.102	-0.055	1.011	-0.5156622	-0.859437	0	176.4309569	-5.87854908	-174.8438633
6.49	649	-0.104	-0.055	1.017	-0.6875496	-0.9740286	0.0572958	176.4252274	-5.86708992	-174.8438633
6.5	650	-0.104	-0.055	1.019	-0.6875496	-1.0886202	0	176.4194978	-5.84990118	-174.8495929
6.51	651	-0.102	-0.055	1.016	-0.4583664	-0.6875496	0.0572958	176.4137682	-5.8441716	-174.8495929
6.52	652	-0.102	-0.055	1.011	-0.286479	-0.3437748	0.0572958	176.4080386	-5.83844202	-174.8495929
6.53	653	-0.104	-0.055	1.009	-0.2291832	-0.4583664	0.1718874	176.4080386	-5.83844202	-174.8495929
6.54	654	-0.103	-0.055	1.013	-0.1718874	-0.4583664	0.1145916	176.4080386	-5.83271244	-174.8553224
6.55	655	-0.104	-0.053	1.014	-0.0572958	-0.2291832	0.0572958	176.4366865	-5.82698286	-174.8553224
6.56	656	-0.102	-0.053	1.013	-0.1145916	-0.1145916	0	176.4366865	-5.82698286	-174.8553224
6.57	657	-0.102	-0.054	1.009	-0.2291832	0	0	176.4309569	-5.82125328	-174.8553224
6.58	658	-0.101	-0.054	1.005	-0.3437748	0	0.0572958	176.4309569	-5.82125328	-174.861052
6.59	659	-0.102	-0.054	1.006	-0.4010706	-0.1718874	0.0572958	176.4252274	-5.82125328	-174.861052
6.6	660	-0.102	-0.055	1.012	-0.4010706	-0.4010706	0	176.4309569	-5.79833496	-174.861052
6.61	661	-0.102	-0.054	1.015	-0.286479	-0.286479	0	176.4252274	-5.79833496	-174.861052
6.62	662	-0.102	-0.054	1.014	-0.2291832	-0.0572958	0	176.4252274	-5.79833496	-174.861052
6.63	663	-0.102	-0.055	1.013	-0.1145916	-0.1145916	-0.0572958	176.4252274	-5.79260538	-174.861052
6.64	664	-0.102	-0.055	1.013	-0.1718874	-0.1145916	0	176.4194978	-5.79260538	-174.861052
6.65	665	-0.102	-0.055	1.01	-0.1145916	-0.0572958	0	176.4366865	-5.79833496	-174.861052
6.66	666	-0.103	-0.056	1.009	-0.1145916	-0.0572958	0	176.4366865	-5.79833496	-174.861052
6.67	667	-0.102	-0.055	1.012	0	0.0572958	0	176.4366865	-5.79833496	-174.861052
6.68	668	-0.103	-0.056	1.015	0.0572958	0.1145916	0	176.4366865	-5.80406454	-174.861052
6.69	669	-0.103	-0.055	1.013	0.3437748	0.572958	0	176.4424161	-5.80979412	-174.861052
6.7	670	-0.102	-0.055	1.009	0.286479	0.5156622	0	176.4366865	-5.80979412	-174.861052
6.71	671	-0.102	-0.054	1.008	0.2291832	0.3437748	0	176.4424161	-5.80979412	-174.861052
6.72	672	-0.102	-0.055	1.01	0.1145916	0.3437748	0	176.4424161	-5.8155237	-174.8553224
6.73	673	-0.103	-0.055	1.011	0.1718874	0.2291832	0	176.4424161	-5.82125328	-174.8553224
6.74	674	-0.103	-0.055	1.01	-0.0572958	0.1718874	0	176.4424161	-5.82125328	-174.8553224
6.75	675	-0.102	-0.055	1.011	-0.1145916	0	-0.0572958	176.4481457	-5.80406454	-174.8553224
6.76	676	-0.102	-0.056	1.013	-0.1145916	0	-0.1145916	176.4481457	-5.80406454	-174.8553224
6.77	677	-0.102	-0.055	1.012	0.1145916	0	0.0572958	176.4481457	-5.80406454	-174.8553224
6.78	678	-0.102	-0.056	1.012	0	0.2291832	-0.0572958	176.4481457	-5.80406454	-174.8553224
6.79	679	-0.103	-0.056	1.011	0.0572958	0.1718874	0	176.4538753	-5.80979412	-174.8553224
6.8	680	-0.103	-0.055	1.013	0.0572958	0.2291832	0	176.4481457	-5.80406454	-174.8553224
6.81	681	-0.103	-0.054	1.011	0.1145916	0.286479	0	176.4481457	-5.80979412	-174.8553224
6.82	682	-0.102	-0.055	1.009	0.1145916	0.4010706	-0.0572958	176.4481457	-5.8155237	-174.8553224
6.83	683	-0.102	-0.054	1.011	0.0572958	0.3437748	-0.0572958	176.4481457	-5.8155237	-174.8553224
6.84	684	-0.102	-0.054	1.013	0.1145916	0.3437748	0	176.4538753	-5.82125328	-174.8553224
6.85	685	-0.102	-0.054	1.013	0.1145916	0.2291832	0	176.4481457	-5.82125328	-174.8495929
6.86	686	-0.101	-0.054	1.01	0.1145916	0.286479	0	176.4481457	-5.82698286	-174.8495929
6.87	687	-0.101	-0.055	1.008	0.286479	0.2291832	0	176.4538753	-5.82698286	-174.8495929
6.88	688	-0.102	-0.054	1.011	0.286479	0.1718874	0	176.4538753	-5.82698286	-174.8495929
6.89	689	-0.103	-0.055	1.013	0.1718874	0.1145916	0	176.4596048	-5.83271244	-174.8495929
6.9	690	-0.103	-0.055	1.014	0.1145916	0.1145916	0	176.4596048	-5.8155237	-174.8495929
6.91	691	-0.104	-0.055	1.012	0.1718874	0.2291832	0.0572958	176.4596048	-5.82125328	-174.8553224
6.92	692	-0.102	-0.055	1.009	0.1145916	0.3437748	0	176.4653344	-5.82125328	-174.8553224
6.93	693	-0.102	-0.055	1.008	0	0	0	176.4653344	-5.82125328	-174.8553224
6.94	694	-0.103	-0.055	1.012	0	0	0	176.4653344	-5.82125328	-174.8553224
6.95	695	-0.103	-0.055	1.015	0	0.0572958	0	176.4596048	-5.8155237	-174.8553224
6.96	696	-0.103	-0.055	1.013	0.1145916	0.0572958	0.0572958	176.4596048	-5.8155237	-174.8553224
6.97	697	-0.102	-0.055	1.014	0.0572958	0.0572958	0	176.4653344	-5.8155237	-174.8553224
6.98	698	-0.103	-0.056	1.011	0.1145916	0.1145916	0	176.4653344	-5.8155237	-174.8553224
6.99	699	-0.103	-0.056	1.009	0.1145916	0.1718874	0	176.4653344	-5.82125328	-174.8553224
7	700	-0.102	-0.055	1.007	-0.1145916	0	0	176.4596048	-5.80979412	-174.8553224
7.01	701	-0.102	-0.055	1.009	-0.3437748	-0.1718874	0	176.4538753	-5.80979412	-174.8553224
7.02	702	-0.102	-0.054	1.014	-0.1145916	-0.286479	0.0572958	176.4538753	-5.80406454	-174.8553224
7.03	703	-0.103	-0.055	1.013	0	-0.2291832	0	176.4538753	-5.80406454	-174.8553224
7.04	704	-0.101	-0.055	1.009	0.0572958	0	-0.0572958	176.4538753	-5.79833496	-174.8553224
7.05	705	-0.101	-0.056	1.009	0.1145916	-0.0572958	0	176.4481457	-5.76395748	-174.8553224
7.06	706	-0.101	-0.055	1.014	-0.1145916	-0.1145916	0	176.4424161	-5.76395748	-174.8553224
7.07	707	-0.103	-0.055	1.015	-0.2291832	-0.286479	0	176.4424161	-5.7582279	-174.8553224
7.08	708	-0.103	-0.056	1.016	-0.2291832	-0.1718874	0	176.4366865	-5.7582279	-174.8495929
7.09	709	-0.102	-0.056	1.012	-0.0572958	0.2291832	0	176.4366865	-5.7582279	-174.8495929
7.1	710	-0.102	-0.056	1.008	0	0.1145916	0	176.4366865	-5.7582279	-174.8495929
7.11	711	-0.103	-0.055	1.008	0.0572958	0	0	176.4366865	-5.7582279	-174.8495929
7.12	712	-0.104	-0.054	1.011	0.1718874	0	-0.0572958	176.4424161	-5.7582279	-174.8495929
7.13	713	-0.104	-0.054	1.011	0.1145916	0.1718874	0	176.4424161	-5.76395748	-174.8495929
7.14	714	-0.103	-0.054	1.011	0.1718874	0.1145916	-0.0572958	176.4424161	-5.76395748	-174.8495929
7.15	715	-0.103	-0.055	1.01	0	0.1145916	0	176.4366865	-5.77541664	-174.8495929
7.16	716	-0.103	-0.054	1.01	0	0.1145916	0	176.4366865	-5.77541664	-174.8495929
7.17	717	-0.103	-0.056	1.011	0	0.1145916	0	176.4366865	-5.77541664	-174.8495929
7.18	718	-0.102	-0.056	1.011	0	0.1145916	0	176.4366865	-5.77541664	-174.8495929
7.19	719	-0.103	-0.055	1.01	0	0.1145916	0	176.4366865	-5.78114622	-174.8495929
7.2	720	-0.103	-0.056	1.011	0	0	0	176.4194978	-5.78114622	-174.8438633
7.21	721	-0.104	-0.055	1.012	-0.0572958	0	0	176.4194978	-5.78114622	-174.8438633
7.22	722	-0.103	-0.055	1.013	0.0572958	0	0	176.4194978	-5.78114622	-174.8438633
7.23	723	-0.104	-0.055	1.014	0.1145916	0	0	176.4194978	-5.78114622	-174.8495929
7.24	724	-0.102	-0.055	1.013	0.1145916	0	0.0572958	176.4194978	-5.78114622	-174.8495929
7.25	725	-0.102	-0.056	1.011	0.0572958	0.1145916	0.0572958	176.4137682	-5.77541664	-174.8495929
7.26	726	-0.103	-0.056	1.01	0	0.1718874	0.0572958	176.4137682	-5.78114622	-174.8495929
7.27	727	-0.102	-0.056	1.009	-0.0572958	0.0572958	0.0572958	176.4137682	-5.78114622	-174.8495929
7.28	728	-0.102	-0.055	1.008	-0.0572958	0	0.0572958	176.4137682	-5.78114622	-174.8495929
7.29	729	-0.103	-0.055	1.008	-0.0572958	0	0	176.4137682	-5.78114622	-174.8495929
7.3	730	-0.102	-0.055	1.008	0	-0.1145916	0	176.4194978	-5.76395748	-174.8495929
7.31	731	-0.104	-0.056	1.011	0.0572958	-0.2291832	0	176.4194978	-5.76395748	-174.8495929
7.32	732	-0.103	-0.055	1.014	0	-0.1145916	0	176.4194978	-5.76395748	-174.8495929
7.33	733	-0.103	-0.056	1.013	0	-0.0572958	0	176.4194978	-5.76395748	-174.8495929
7.34	734	-0.103	-0.056	1.013	0.0572958	0	0	176.4252274	-5.76395748	-174.8495929
7.35	735	-0.103	-0.055	1.014	0.1145916	0	0	176.4194978	-5.7582279	-174.8495929
7.36	736	-0.102	-0.055	1.011	0.1145916	0.0572958	0	176.4194978	-5.7582279	-174.8495929
7.37	737	-0.103	-0.055	1.009	0.1145916	0	0	176.4194978	-5.7582279	-174.8495929
7.38	738	-0.104	-0.055	1.011	0.0572958	0.0572958	0	176.4194978	-5.7582279	-174.8495929
7.39	739	-0.103	-0.055	1.013	0	0	0	176.4194978	-5.7582279	-174.8495929
7.4	740	-0.104	-0.055	1.011	0	0.0572958	0	176.4080386	-5.7868758	-174.8495929
7.41	741	-0.104	-0.054	1.01	0	0	0	176.4080386	-5.7868758	-174.8495929
7.42	742	-0.104	-0.054	1.009	-0.1718874	0	0	176.4080386	-5.7868758	-174.8495929
7.43	743	-0.103	-0.055	1.01	-0.1145916	0	0	176.4080386	-5.7868758	-174.8495929
7.44	744	-0.103	-0.055	1.011	-0.0572958	0	0	176.4080386	-5.7868758	-174.8495929
7.45	745	-0.104	-0.056	1.012	-0.0572958	0.0572958	0	176.402309	-5.79260538	-174.8495929
7.46	746	-0.103	-0.055	1.012	0	0.0572958	0	176.402309	-5.79260538	-174.8495929
7.47	747	-0.104	-0.055	1.009	-0.1718874	0.0572958	0	176.402309	-5.79260538	-174.8495929
7.48	748	-0.103	-0.056	1.009	-0.2291832	0	0	176.402309	-5.79260538	-174.8495929
7.49	749	-0.104	-0.056	1.012	-0.1145916	-0.1145916	0	176.3965795	-5.79260538	-174.8495929
7.5	750	-0.104	-0.055	1.014	-0.1145916	-0.1718874	-0.0572958	176.3908499	-5.79260538	-174.8438633
7.51	751	-0.104	-0.055	1.014	0	0	0	176.3908499	-5.79260538	-174.8438633
7.52	752	-0.103	-0.055	1.012	0	0	0	176.3965795	-5.7868758	-174.8495929
7.53	753	-0.104	-0.056	1.011	0.0572958	0	-0.0572958	176.3965795	-5.7868758	-174.8438633
7.54	754	-0.103	-0.055	1.011	0.0572958	0	0	176.3965795	-5.7868758	-174.8438633
7.55	755	-0.103	-0.055	1.011	0.1145916	0	0	176.3965795	-5.79260538	-174.8438633
7.56	756	-0.103	-0.056	1.01	0.1718874	0	0	176.402309	-5.79260538	-174.8438633
7.57	757	-0.103	-0.055	1.012	0.1145916	0	0	176.402309	-5.79260538	-174.8438633
7.58	758	-0.103	-0.056	1.011	0.0572958	0.0572958	0	176.402309	-5.79260538	-174.8438633
7.59	759	-0.104	-0.055	1.011	0	0.0572958	0	176.402309	-5.79833496	-174.8438633
7.6	760	-0.103	-0.056	1.01	0.0572958	0.1145916	0	176.402309	-5.80406454	-174.8438633
7.61	761	-0.104	-0.056	1.011	0.0572958	0.1145916	0	176.402309	-5.80406454	-174.8438633
7.62	762	-0.104	-0.055	1.013	-0.0572958	0.2291832	0	176.402309	-5.80406454	-174.8438633
7.63	763	-0.105	-0.054	1.014	-0.0572958	0.1145916	0	176.402309	-5.80406454	-174.8438633
7.64	764	-0.104	-0.055	1.012	0	0.2291832	0	176.402309	-5.80979412	-174.8438633
7.65	765	-0.104	-0.055	1.008	0.1718874	0.286479	0	176.402309	-5.80979412	-174.8438633
7.66	766	-0.103	-0.055	1.007	0.2291832	0.286479	0	176.4080386	-5.8155237	-174.8438633
7.67	767	-0.104	-0.056	1.011	0.1145916	0.2291832	0	176.4080386	-5.8155237	-174.8438633
7.68	768	-0.104	-0.056	1.014	-0.0572958	0	0	176.4080386	-5.8155237	-174.8495929
7.69	769	-0.105	-0.056	1.013	-0.2291832	-0.1145916	0	176.402309	-5.8155237	-174.8495929
7.7	770	-0.105	-0.055	1.011	-0.0572958	-0.286479	0	176.3908499	-5.8155237	-174.8438633
7.71	771	-0.104	-0.055	1.01	0	-0.2291832	0	176.3908499	-5.8155237	-174.8495929
7.72	772	-0.103	-0.055	1.009	0.1145916	-0.286479	0.0572958	176.3965795	-5.80979412	-174.8495929
7.73	773	-0.104	-0.055	1.008	0.286479	-0.3437748	0.0572958	176.3965795	-5.80979412	-174.8495929
7.74	774	-0.103	-0.055	1.009	0.3437748	-0.3437748	0	176.402309	-5.80406454	-174.8495929
7.75	775	-0.104	-0.055	1.009	0.2291832	-0.1145916	0	176.4080386	-5.79833496	-174.8495929
7.76	776	-0.103	-0.054	1.009	0.0572958	-0.0572958	0	176.4137682	-5.79833496	-174.8495929
7.77	777	-0.103	-0.054	1.009	0.0572958	-0.286479	0	176.4137682	-5.79833496	-174.8495929
7.78	778	-0.104	-0.055	1.011	0.0572958	-0.2291832	0	176.4137682	-5.79260538	-174.8495929
7.79	779	-0.104	-0.055	1.011	0	-0.1145916	0	176.4137682	-5.79260538	-174.8495929
7.8	780	-0.104	-0.054	1.012	0.0572958	-0.1145916	0	176.4137682	-5.79260538	-174.8495929
7.81	781	-0.103	-0.055	1.011	0.0572958	-0.1145916	-0.0572958	176.4137682	-5.7868758	-174.8495929
7.82	782	-0.104	-0.055	1.013	0.0572958	0	0	176.4137682	-5.7868758	-174.8495929
7.83	783	-0.104	-0.054	1.013	0.1145916	0	0	176.4137682	-5.7868758	-174.8495929
7.84	784	-0.104	-0.054	1.012	0.1145916	0.0572958	0	176.4194978	-5.7868758	-174.8495929
7.85	785	-0.103	-0.055	1.013	0.2291832	0	0	176.4252274	-5.7868758	-174.8495929
7.86	786	-0.105	-0.053	1.013	0.286479	0.1718874	0	176.4309569	-5.7868758	-174.8495929
7.87	787	-0.103	-0.055	1.013	0.3437748	0.2291832	0	176.4309569	-5.79260538	-174.8495929
7.88	788	-0.104	-0.055	1.014	0.4010706	0.2291832	0.0572958	176.4366865	-5.79260538	-174.8495929
7.89	789	-0.104	-0.054	1.013	0.1718874	0.4583664	0	176.4424161	-5.79833496	-174.8495929
7.9	790	-0.104	-0.054	1.011	0.2291832	0.4010706	0	176.4481457	-5.80406454	-174.8495929
7.91	791	-0.105	-0.053	1.011	0.2291832	0.5156622	0	176.4481457	-5.80979412	-174.8495929
7.92	792	-0.105	-0.055	1.01	0.286479	0.4010706	0.0572958	176.4538753	-5.8155237	-174.8495929
7.93	793	-0.104	-0.054	1.006	0.286479	0.5156622	0.0572958	176.4538753	-5.82125328	-174.8495929
7.94	794	-0.103	-0.055	1.003	0.0572958	0.4010706	0	176.4538753	-5.82698286	-174.8495929
7.95	795	-0.104	-0.055	1.006	-0.0572958	0.0572958	0.0572958	176.4481457	-5.83271244	-174.8495929
7.96	796	-0.105	-0.055	1.012	-0.0572958	-0.0572958	0	176.4481457	-5.83271244	-174.8495929
7.97	797	-0.103	-0.054	1.012	0	-0.0572958	0.0572958	176.4481457	-5.83271244	-174.8495929
7.98	798	-0.104	-0.054	1.013	0.0572958	-0.0572958	0	176.4481457	-5.82698286	-174.8495929
