TimeStamp(s)	FrameCounter	AccX	AccY	AccZ	GyrX	GyrY	GyrZ	EulerX	EulerY	EulerZ
0.01	1	-0.043	-1.003	0.004	-0.0572958	0.1718874	0.4010706	90.01743138	-0.38961144	-22.38546906
0.02	2	-0.046	-1.006	0.005	0	0	0.2291832	90.01743138	-0.38961144	-22.38546906
0.03	3	-0.048	-1.006	0.006	0	-0.0572958	0.1718874	90.01743138	-0.39534102	-22.38546906
0.04	4	-0.05	-1.006	0.004	0	0.0572958	0.0572958	90.01743138	-0.39534102	-22.38546906
0.05	5	-0.051	-1.005	0.005	0.2291832	0.4583664	0.1718874	89.96586516	-0.50420304	-22.38546906
0.06	6	-0.051	-1.004	0.006	0.2291832	0.9740286	0.1718874	89.96586516	-0.50993262	-22.3740099
0.07	7	-0.049	-1.003	0.007	0.572958	1.3750992	0.2291832	89.97159474	-0.50993262	-22.36255074
0.08	8	-0.045	-1.003	0.01	0.8021412	1.6615782	0.1718874	89.97732432	-0.5156622	-22.345362
0.09	9	-0.042	-1.006	0.014	0.9740286	2.2345362	0.1145916	89.98878348	-0.5156622	-22.32244368
0.1	10	-0.038	-1.008	0.018	0.9167328	2.8074942	-0.1718874	89.99451306	-0.53858052	-22.29379578
0.11	11	-0.038	-1.011	0.019	0.859437	3.0366774	-0.5156622	90.00024264	-0.53285094	-22.26514788
0.12	12	-0.038	-1.012	0.017	0.3437748	3.2658606	-0.8021412	90.00597222	-0.52712136	-22.2307704
0.13	13	-0.039	-1.012	0.013	-0.2291832	3.724227	-1.3178034	90.00024264	-0.50993262	-22.19639292
0.14	14	-0.039	-1.013	0.011	-0.6302538	4.4117766	-1.6042824	89.99451306	-0.49847346	-22.15055628
0.15	15	-0.038	-1.014	0.014	-0.5156622	4.6409598	-1.7761698	89.9830539	-0.49274388	-22.10471964
0.16	16	-0.034	-1.013	0.016	-0.5156622	5.3858052	-2.0626488	89.97732432	-0.47555514	-22.05315342
0.17	17	-0.032	-1.012	0.016	-1.145916	6.4171296	-2.3491278	89.96013558	-0.45263682	-21.98439846
0.18	18	-0.03	-1.014	0.016	-1.8334656	7.448454	-2.7501984	89.94294684	-0.42398892	-21.9156435
0.19	19	-0.024	-1.012	0.015	-2.578311	7.7922288	-2.9793816	89.91429894	-0.4010706	-21.83542938
0.2	20	-0.013	-1.016	0.017	-2.9220858	7.2192708	-3.0366774	89.87992146	-0.3724227	-21.76667442
0.21	21	-0.003	-1.02	0.019	-3.5523396	5.6149884	-2.86479	89.84554398	-0.3437748	-21.70937862
0.22	22	-0.002	-1.017	0.017	-4.5263682	3.8388186	-2.4064236	89.79970734	-0.32085648	-21.67500114
0.23	23	-0.004	-1.012	0.014	-5.3858052	3.4950438	-2.0626488	89.74241154	-0.30366774	-21.64062366
0.24	24	-0.005	-1.004	0.013	-5.5003968	3.724227	-1.8334656	89.68511574	-0.286479	-21.6005166
0.25	25	-0.009	-1.004	0.017	-5.0993262	3.4950438	-1.9480572	89.63354952	-0.26356068	-21.56613912
0.26	26	-0.006	-1.004	0.021	-5.2139178	2.8074942	-2.1772404	89.5819833	-0.24637194	-21.5432208
0.27	27	0.001	-1.008	0.023	-5.3285094	1.9480572	-2.1772404	89.5246875	-0.22345362	-21.52030248
0.28	28	0.009	-1.011	0.022	-5.6722842	0.859437	-1.9480572	89.4673917	-0.20626488	-21.5145729
0.29	29	0.012	-1.012	0.015	-6.5317212	-0.0572958	-1.6615782	89.39863674	-0.18907614	-21.5145729
0.3	30	0.011	-1.009	0.005	-7.0473834	-1.2605076	-1.2032118	89.3241522	-0.16615782	-21.53176164
0.31	31	0.006	-1.005	0	-7.0473834	-2.1772404	-0.572958	89.25539724	-0.16615782	-21.55467996
0.32	32	0.004	-1	0.001	-6.3598338	-2.9793816	0	89.18664228	-0.16615782	-21.58332786
0.33	33	0.002	-1	0.002	-5.443101	-3.9534102	0.6875496	89.13507606	-0.1718874	-21.62343492
0.34	34	0	-1.003	0.005	-4.9274388	-4.870143	1.145916	89.08350984	-0.18334656	-21.67500114
0.35	35	-0.005	-1.003	0.006	-4.6409598	-5.2712136	1.2605076	89.0376732	-0.19480572	-21.72656736
0.36	36	-0.012	-1.002	0.012	-4.010706	-4.9847346	1.432395	88.99756614	-0.21199446	-21.772404
0.37	37	-0.013	-1.006	0.022	-3.4950438	-4.583664	1.432395	88.96318866	-0.22345362	-21.81824064
0.38	38	-0.013	-1.012	0.028	-3.6669312	-4.0680018	1.4896908	88.92881118	-0.24064236	-21.86407728
0.39	39	-0.008	-1.014	0.03	-3.9534102	-3.6669312	1.4896908	88.88870412	-0.25210152	-21.89845476
0.4	40	-0.005	-1.01	0.03	-4.1825934	-3.5523396	1.8907614	88.86005622	-0.26929026	-21.93283224
0.41	41	-0.004	-1.004	0.028	-4.2398892	-3.6669312	2.578311	88.81421958	-0.29793816	-21.9729393
0.42	42	-0.006	-0.997	0.024	-4.297185	-3.437748	3.3231564	88.77411252	-0.33231564	-22.00731678
0.43	43	-0.008	-0.993	0.02	-4.1252976	-3.0366774	3.8388186	88.73400546	-0.36669312	-22.03596468
0.44	44	-0.009	-0.992	0.02	-3.6096354	-2.6356068	4.1825934	88.6938984	-0.41252976	-22.058883
0.45	45	-0.01	-0.992	0.025	-2.6929026	-2.6929026	4.297185	88.68243924	-0.45263682	-22.0875309
0.46	46	-0.01	-0.993	0.029	-2.4064236	-3.2085648	4.2398892	88.65952092	-0.49274388	-22.1161788
0.47	47	-0.008	-0.993	0.03	-2.4064236	-3.437748	4.1825934	88.6366026	-0.53858052	-22.15055628
0.48	48	-0.011	-0.994	0.035	-2.6356068	-3.3231564	4.1252976	88.6079547	-0.57868758	-22.18493376
0.49	49	-0.013	-0.994	0.04	-2.3491278	-2.4064236	4.1252976	88.58503638	-0.61879464	-22.20785208
0.5	50	-0.01	-0.998	0.043	-1.6615782	-1.2605076	4.1252976	88.60222512	-0.65317212	-22.21931124
0.51	51	-0.003	-1.001	0.037	-0.9740286	-0.3437748	4.1252976	88.59076596	-0.69900876	-22.21931124
0.52	52	0	-0.998	0.033	1.3178034	0.4010706	4.2398892	88.60222512	-0.73911582	-22.21358166
0.53	53	-0.013	-1.001	0.033	3.151269	0.0572958	4.7555514	88.6366026	-0.78495246	-22.21358166
0.54	54	-0.033	-1.001	0.02	4.3544808	0.4010706	5.5576926	88.68243924	-0.84224826	-22.20785208
0.55	55	-0.05	-0.999	0.013	4.8128472	1.2605076	6.3598338	88.73400546	-0.9167328	-22.19066334
0.56	56	-0.064	-0.998	0.017	5.0993262	2.6929026	7.1046792	88.78557168	-0.98548776	-22.16201544
0.57	57	-0.079	-1.003	0.031	5.2139178	5.6722842	7.448454	88.8371379	-1.0599723	-22.10471964
0.58	58	-0.084	-1.008	0.037	4.870143	10.4851314	7.6776372	88.88297454	-1.13445684	-22.0015872
0.59	59	-0.089	-1.01	0.035	4.9274388	14.610429	8.4797784	88.92881118	-1.22040054	-21.85261812
0.6	60	-0.094	-1.006	0.046	4.8128472	18.4492476	9.7975818	88.97464782	-1.32926256	-21.66927156
0.61	61	-0.086	-1.001	0.04	5.6149884	21.772404	11.45916	89.02621404	-1.44385416	-21.45154752
0.62	62	-0.049	-0.997	0	6.7036086	19.7097552	13.6936962	89.08923942	-1.58136408	-21.25101222
0.63	63	-0.014	-0.979	-0.021	4.3544808	13.1207382	14.037471	89.1236169	-1.72460358	-21.11923188
0.64	64	0	-0.961	-0.011	0.7448454	6.3598338	13.0061466	89.12934648	-1.85638392	-21.0562065
0.65	65	-0.017	-0.964	0.027	-0.4583664	1.432395	11.8602306	89.14080564	-1.97097552	-21.03901776
0.66	66	-0.047	-0.998	0.057	-0.286479	-1.0886202	11.8029348	89.13507606	-2.08556712	-21.05047692
0.67	67	-0.073	-1.036	0.063	-2.291832	-2.86479	12.5477802	89.11215774	-2.21161788	-21.07912482
0.68	68	-0.088	-1.058	0.05	-6.4744254	-4.010706	13.3499214	89.04913236	-2.34339822	-21.1135023
0.69	69	-0.084	-1.056	0.019	-9.7975818	-5.0420304	13.5218088	88.9517295	-2.48090814	-21.16506852
0.7	70	-0.071	-1.045	-0.009	-12.1467096	-7.9641162	12.7196676	88.83140832	-2.6069589	-21.24528264
0.71	71	-0.065	-1.036	-0.029	-13.178034	-9.8548776	11.0580894	88.70535756	-2.7215505	-21.3426855
0.72	72	-0.071	-1.038	-0.042	-12.4904844	-11.8602306	9.2819196	88.58503638	-2.81322378	-21.4572771
0.73	73	-0.085	-1.033	-0.041	-10.3705398	-14.6677248	7.9068204	88.48763352	-2.8934379	-21.6005166
0.74	74	-0.113	-1.015	-0.01	-8.1932994	-16.329303	6.9327918	88.41887856	-2.96219286	-21.76667442
0.75	75	-0.142	-0.984	0.037	-6.7036086	-15.1260912	6.302538	88.36731234	-3.04240698	-21.9156435
0.76	76	-0.168	-0.955	0.078	-5.9014674	-10.4851314	5.443101	88.31574612	-3.0939732	-22.01877594
0.77	77	-0.19	-0.945	0.108	-4.6409598	-3.6096354	4.9274388	88.26990948	-3.14553942	-22.05315342
0.78	78	-0.21	-0.968	0.133	-3.151269	3.8961144	5.5003968	88.235532	-3.20283522	-22.01304636
0.79	79	-0.216	-1.001	0.126	-2.578311	9.5683986	6.589017	88.20115452	-3.2658606	-21.9156435
0.8	80	-0.223	-1.034	0.094	-2.1772404	12.6623718	7.9068204	88.18969536	-3.37472262	-21.78959274
0.81	81	-0.23	-1.057	0.067	-1.718874	12.9488508	9.0527364	88.16104746	-3.46066632	-21.6578124
0.82	82	-0.229	-1.056	0.051	-1.8907614	12.1467096	9.453807	88.13239956	-3.55806918	-21.53176164
0.83	83	-0.217	-1.032	0.044	-2.7501984	10.7716104	8.4224826	88.09802208	-3.6382833	-21.42289962
0.84	84	-0.195	-0.993	0.044	-3.0939732	10.1986524	6.4171296	88.05791502	-3.70130868	-21.31976718
0.85	85	-0.173	-0.959	0.055	-3.5523396	10.7143146	4.1825934	88.02926712	-3.77006364	-21.21663474
0.86	86	-0.158	-0.939	0.061	-3.9534102	11.5164558	2.9793816	87.98343048	-3.79871154	-21.10204314
0.87	87	-0.14	-0.933	0.052	-4.1825934	11.9748222	2.4064236	87.93186426	-3.82162986	-20.98172196
0.88	88	-0.126	-0.936	0.03	-5.156622	11.2872726	2.0626488	87.86883888	-3.84454818	-20.86713036
0.89	89	-0.118	-0.94	0.008	-6.016059	9.1100322	1.8334656	87.80008392	-3.86173692	-20.78118666
0.9	90	-0.109	-0.942	-0.006	-6.3598338	5.72958	1.8334656	87.73132896	-3.89038482	-20.72389086
0.91	91	-0.108	-0.945	-0.013	-6.875496	1.7761698	1.3750992	87.65684442	-3.90757356	-20.70670212
0.92	92	-0.113	-0.946	0	-7.161975	-0.7448454	0.8021412	87.58808946	-3.91330314	-20.7124317
0.93	93	-0.12	-0.946	0.014	-6.875496	-1.3750992	0	87.5193345	-3.91903272	-20.72962044
0.94	94	-0.133	-0.951	0.02	-6.016059	-0.6875496	-0.8021412	87.45630912	-3.90757356	-20.73535002
0.95	95	-0.151	-0.964	0.035	-4.870143	0.572958	-1.2605076	87.45057954	-3.9534102	-20.72962044
0.96	96	-0.17	-0.982	0.051	-4.1252976	2.86479	-1.2605076	87.4047429	-3.94195104	-20.70097254
0.97	97	-0.177	-0.995	0.056	-3.7815228	4.583664	-1.2605076	87.36463584	-3.9247623	-20.66086548
0.98	98	-0.176	-0.998	0.062	-3.6096354	5.3285094	-1.6615782	87.32452878	-3.90757356	-20.60356968
0.99	99	-0.17	-0.996	0.064	-4.1825934	5.3285094	-2.6356068	87.27869214	-3.88465524	-20.55773304
1	100	-0.164	-0.991	0.064	-4.7555514	4.6409598	-3.724227	87.2615034	-3.87892566	-20.5118964
1.01	101	-0.163	-0.987	0.069	-5.443101	3.6669312	-4.9847346	87.19847802	-3.82735944	-20.47751892
1.02	102	-0.169	-0.984	0.08	-6.1879464	3.0366774	-5.5003968	87.13545264	-3.77006364	-20.44887102
1.03	103	-0.171	-0.981	0.085	-6.3598338	2.86479	-6.1306506	87.06669768	-3.71276784	-20.4259527
1.04	104	-0.176	-0.974	0.093	-6.302538	3.2085648	-6.8182002	87.0036723	-3.64401288	-20.3973048
1.05	105	-0.178	-0.971	0.106	-6.016059	4.297185	-7.2765666	86.98075398	-3.59817624	-20.35719774
1.06	106	-0.185	-0.968	0.123	-4.6982556	5.72958	-7.3338624	86.92918776	-3.5236917	-20.30563152
1.07	107	-0.198	-0.971	0.146	-3.2085648	7.6203414	-7.0473834	86.8890807	-3.45493674	-20.23687656
1.08	108	-0.211	-0.986	0.157	-2.005353	10.1413566	-6.5317212	86.8604328	-3.38618178	-20.1394737
1.09	109	-0.223	-1.006	0.17	-1.0313244	11.745639	-6.016059	86.84324406	-3.3231564	-20.0248821
1.1	110	-0.233	-1.019	0.174	-0.7448454	12.8342592	-6.302538	86.87189196	-3.2945085	-19.89883134
1.11	111	-0.24	-1.028	0.166	0	13.9801752	-7.2192708	86.8604328	-3.22002396	-19.767051
1.12	112	-0.244	-1.034	0.167	0.859437	15.4125702	-8.4797784	86.8604328	-3.12835068	-19.61808192
1.13	113	-0.257	-1.04	0.19	1.432395	18.1054728	-9.453807	86.8604328	-3.03094782	-19.44046494
1.14	114	-0.267	-1.05	0.207	1.7761698	22.8037284	-9.3392154	86.86616238	-2.93354496	-19.2227409
1.15	115	-0.255	-1.051	0.189	2.0626488	25.8404058	-8.9954406	86.90053986	-2.85906042	-18.97063938
1.16	116	-0.234	-1.062	0.17	2.8074942	26.1841806	-8.6516658	86.91199902	-2.76165756	-18.71853786
1.17	117	-0.201	-1.079	0.172	4.583664	25.5539268	-7.734933	86.94064692	-2.68144344	-18.46643634
1.18	118	-0.175	-1.095	0.179	6.1879464	25.0955604	-6.6463128	86.99221314	-2.6069589	-18.2200644
1.19	119	-0.156	-1.091	0.168	7.8495246	23.0329116	-5.72958	87.05523852	-2.54393352	-17.99661078
1.2	120	-0.162	-1.079	0.18	9.0527364	19.480572	-4.6982556	87.16983012	-2.50382646	-17.80180506
1.21	121	-0.173	-1.052	0.189	11.1153852	16.329303	-3.8388186	87.27296256	-2.4637194	-17.64137682
1.22	122	-0.189	-1.016	0.171	13.2353298	12.032118	-3.9534102	87.39901332	-2.41788276	-17.52105564
1.23	123	-0.192	-0.965	0.176	17.0741484	7.2192708	-5.443101	87.57090072	-2.36058696	-17.45230068
1.24	124	-0.175	-0.925	0.193	22.4026578	6.6463128	-7.6776372	87.79435434	-2.28610242	-17.38354572
1.25	125	-0.152	-0.891	0.189	25.3247436	6.6463128	-10.026765	88.06937418	-2.19442914	-17.32052034
1.26	126	-0.124	-0.868	0.21	28.361421	7.734933	-11.3445684	88.35585318	-2.07983754	-17.2460358
1.27	127	-0.095	-0.875	0.21	33.7472262	10.599723	-11.172681	88.6938984	-1.96524594	-17.13717378
1.28	128	-0.057	-0.915	0.184	39.9924684	12.9488508	-9.2819196	89.094969	-1.86784308	-17.00539344
1.29	129	0	-1.013	0.13	44.8053156	16.7876694	-5.6149884	89.54187624	-1.81054728	-16.83350604
1.3	130	0.059	-1.151	0.055	43.6021038	14.8396122	0.6875496	89.97732432	-1.81054728	-16.68453696
1.31	131	0.128	-1.281	-0.039	37.5860448	6.0733548	8.9381448	90.3554766	-1.90222056	-16.62151158
1.32	132	0.208	-1.416	-0.142	30.1375908	-5.8441716	16.902261	90.66487392	-2.0626488	-16.6730778
1.33	133	0.268	-1.471	-0.231	19.1367972	-18.2200644	23.8923486	90.86540922	-2.291832	-16.85642436
1.34	134	0.222	-1.384	-0.269	13.5791046	-32.2002396	25.8977016	91.02583746	-2.53247436	-17.17728084
1.35	135	0.093	-1.199	-0.298	13.178034	-38.2162986	21.8296998	91.16334738	-2.72728008	-17.5611627
1.36	136	-0.059	-1.045	-0.259	16.8449652	-35.4661002	13.4072172	91.35242352	-2.84187168	-17.91066708
1.37	137	-0.165	-0.993	-0.22	17.2460358	-25.9549974	1.8334656	91.54722924	-2.84760126	-18.16849818
1.38	138	-0.234	-0.998	-0.208	12.9488508	-14.8396122	-8.5370742	91.68473916	-2.7501984	-18.31173768
1.39	139	-0.27	-1.007	-0.2	8.2505952	-5.5576926	-14.037471	91.77641244	-2.6069589	-18.3633039
1.4	140	-0.265	-1.006	-0.189	4.4117766	1.3178034	-14.9542038	91.75349412	-2.50955604	-18.34038558
1.41	141	-0.214	-0.99	-0.172	0.859437	5.72958	-11.45916	91.7592237	-2.39496444	-18.28308978
1.42	142	-0.113	-0.978	-0.141	-2.4637194	7.9068204	-6.8182002	91.7305758	-2.33193906	-18.20287566
1.43	143	-0.022	-0.977	-0.108	-4.8128472	6.302538	-5.0993262	91.67900958	-2.28610242	-18.13985028
1.44	144	0.039	-0.977	-0.09	-5.8441716	2.0626488	-4.5263682	91.6159842	-2.24599536	-18.11693196
1.45	145	0.084	-0.981	-0.089	-5.9014674	-3.2658606	-4.297185	91.50712218	-2.15432208	-18.15130944
1.46	146	0.111	-0.99	-0.088	-6.6463128	-8.9954406	-4.6982556	91.4440968	-2.10275586	-18.23725314
1.47	147	0.131	-0.993	-0.06	-6.2452422	-14.2666542	-6.2452422	91.386801	-2.0340009	-18.37476306
1.48	148	0.132	-0.978	-0.055	-7.0473834	-19.2513888	-8.5370742	91.32377562	-1.93659804	-18.5638392
1.49	149	0.122	-0.951	-0.055	-7.734933	-24.8090814	-10.313244	91.25502066	-1.82200644	-18.81021114
1.5	150	0.096	-0.925	-0.038	-8.0787078	-30.4240698	-11.5164558	91.18053612	-1.68449652	-19.1081493
1.51	151	0.079	-0.916	-0.02	-7.9068204	-33.9191136	-11.9748222	91.11178116	-1.5469866	-19.44046494
1.52	152	0.069	-0.922	-0.001	-8.021412	-37.1276784	-12.032118	91.0430262	-1.40947668	-19.80715806
1.53	153	0.049	-0.937	0.013	-8.0787078	-39.9351726	-11.745639	90.97427124	-1.27769634	-20.20249908
1.54	154	0.017	-0.96	0.018	-8.2505952	-41.9405256	-11.0580894	90.90551628	-1.15164558	-20.61502884
1.55	155	-0.019	-0.978	0.026	-9.167328	-43.0864416	-10.1413566	90.82530216	-1.0313244	-21.03901776
1.56	156	-0.061	-0.986	0.039	-10.026765	-43.6021038	-9.3965112	90.73935846	-0.92246238	-21.46873626
1.57	157	-0.093	-0.987	0.043	-9.7975818	-42.398892	-9.7975818	90.64768518	-0.80787078	-21.8869956
1.58	158	-0.113	-0.996	0.04	-9.8548776	-37.528749	-11.3445684	90.5560119	-0.68182002	-22.2594183
1.59	159	-0.112	-0.991	0.033	-9.9121734	-32.8304934	-12.4331886	90.46433862	-0.5443101	-22.58600436
1.6	160	-0.103	-0.982	0.014	-8.9381448	-28.9916748	-12.8342592	90.37839492	-0.41825934	-22.87248336
1.61	161	-0.077	-0.963	0.008	-8.6516658	-25.9549974	-11.9175264	90.29245122	-0.29220858	-23.13031446
1.62	162	-0.043	-0.945	0.009	-7.6776372	-24.8090814	-10.1986524	90.22369626	-0.18334656	-23.37095682
1.63	163	-0.011	-0.933	0.005	-6.302538	-24.9809688	-8.880849	90.16067088	-0.0859437	-23.62305834
1.64	164	0.018	-0.931	0.016	-5.2139178	-25.0382646	-8.2505952	90.10910466	0	-23.86943028
1.65	165	0.031	-0.935	0.04	-5.2712136	-25.8404058	-7.8495246	90.06326802	0.0859437	-24.1215318
1.66	166	0.03	-0.933	0.07	-6.1306506	-27.2728008	-7.5057498	90.00597222	0.16615782	-24.39655164
1.67	167	0.024	-0.938	0.096	-6.3598338	-28.6479	-7.2192708	89.94294684	0.24637194	-24.67730106
1.68	168	0.02	-0.944	0.098	-7.1046792	-29.8511118	-6.7036086	89.87419188	0.32085648	-24.97523922
1.69	169	0.013	-0.95	0.062	-7.6203414	-28.6479	-6.016059	89.79970734	0.38388186	-25.25598864
1.7	170	-0.002	-0.949	0.026	-7.448454	-24.7517856	-5.0420304	89.7252228	0.44117766	-25.50236058
1.71	171	-0.032	-0.939	0.012	-6.2452422	-21.3713334	-3.5523396	89.66219742	0.48128472	-25.71435504
1.72	172	-0.052	-0.92	0.018	-4.9847346	-19.194093	-1.7761698	89.6106312	0.50420304	-25.90916076
1.73	173	-0.042	-0.891	0.05	-2.9793816	-17.9908812	0.2291832	89.5819833	0.50420304	-26.08677774
1.74	174	-0.017	-0.87	0.104	-1.4896908	-18.7357266	2.4637194	89.56479456	0.48128472	-26.2701243
1.75	175	-0.005	-0.867	0.157	-0.8021412	-21.9442914	4.583664	89.58771288	0.44117766	-26.48784834
1.76	176	0	-0.886	0.18	0	-24.2361234	6.589017	89.58771288	0.37815228	-26.7284907
1.77	177	0.006	-0.931	0.162	0	-24.8663772	8.3651868	89.59344246	0.29793816	-26.96913306
1.78	178	0.004	-0.985	0.131	0	-24.1215318	9.6829902	89.59344246	0.20626488	-27.20977542
1.79	179	-0.007	-1.036	0.118	0.6302538	-21.772404	9.7975818	89.60490162	0.1145916	-27.42749946
1.8	180	-0.027	-1.065	0.079	0.859437	-18.907614	8.6516658	89.62781994	0.0286479	-27.61084602
1.81	181	-0.039	-1.055	0.063	0.6302538	-15.6417534	7.5057498	89.63354952	-0.04010706	-27.76554468
1.82	182	-0.042	-1.029	0.053	1.3750992	-13.1207382	6.7036086	89.65073826	-0.10313244	-27.89732502
1.83	183	-0.034	-1.015	0.075	2.8074942	-11.9748222	6.2452422	89.67938616	-0.16042824	-28.01191662
1.84	184	-0.027	-1.009	0.12	3.2085648	-14.9542038	6.8182002	89.71949322	-0.22345362	-28.1608857
1.85	185	-0.03	-0.997	0.14	4.583664	-19.7097552	8.59437	89.78824818	-0.30939732	-28.35569142
1.86	186	-0.032	-0.994	0.157	7.3911582	-22.9756158	11.0580894	89.8684623	-0.41252976	-28.57914504
1.87	187	-0.043	-1.01	0.181	9.740286	-24.923673	12.7196676	89.97732432	-0.53285094	-28.82551698
1.88	188	-0.061	-1.04	0.2	11.4018642	-24.8663772	12.5477802	90.0976455	-0.64744254	-29.07188892
1.89	189	-0.065	-1.061	0.217	12.318597	-22.1734746	11.0007936	90.22942584	-0.75057498	-29.28961296
1.9	190	-0.044	-1.064	0.236	11.6310474	-19.767051	10.026765	90.37839492	-0.84797784	-29.48441868
1.91	191	-0.023	-1.044	0.244	10.0840608	-21.6578124	10.8289062	90.48725694	-0.9453807	-29.69641314
1.92	192	0.012	-1.015	0.221	8.6516658	-26.1268848	12.5477802	90.5846598	-1.0599723	-29.95424424
1.93	193	0.011	-1.002	0.163	7.9641162	-33.8618178	14.4385416	90.67633308	-1.19175264	-30.29228946
1.94	194	-0.041	-1.033	0.08	7.5057498	-44.117766	15.1260912	90.76800636	-1.32353298	-30.72773754
1.95	195	-0.108	-1.112	0.04	11.0007936	-47.841993	11.745639	90.8997867	-1.42666542	-31.20329268
1.96	196	-0.175	-1.218	0.021	12.9488508	-41.1956802	2.578311	91.04875578	-1.432395	-31.61009286
1.97	197	-0.247	-1.259	0.008	13.9228794	-31.9137606	-8.9381448	91.20345444	-1.32353298	-31.91949018
1.98	198	-0.281	-1.262	0.016	14.8396122	-23.491278	-17.7044022	91.3581531	-1.13445684	-32.14867338
1.99	199	-0.246	-1.256	-0.033	17.4179232	-15.9855282	-22.91832	91.54149966	-0.89954406	-32.29764246
2	200	-0.16	-1.27	-0.057	19.5951636	-5.9587632	-25.6685184	91.7305758	-0.64744254	-32.34920868
2.01	201	-0.032	-1.241	-0.093	19.194093	6.8182002	-26.4706596	91.92538152	-0.38388186	-32.26899456
2.02	202	0.109	-1.128	-0.136	22.058883	13.464513	-23.8923486	92.14883514	-0.15469866	-32.12575506
2.03	203	0.189	-1.023	-0.108	24.4080108	10.3705398	-18.1627686	92.39520708	0.01718874	-32.01116346
2.04	204	0.199	-0.983	-0.079	21.199446	2.4637194	-9.3965112	92.60720154	0.10886202	-31.97678598
2.05	205	0.166	-0.99	-0.115	11.4018642	-10.3705398	-0.6875496	92.67022692	0.16042824	-32.07991842
2.06	206	0.121	-0.982	-0.183	0.1718874	-21.2567418	2.9220858	92.6759565	0.14896908	-32.29191288
2.07	207	0.075	-0.968	-0.231	-5.9014674	-24.8090814	1.6042824	92.61293112	0.14896908	-32.53828482
2.08	208	0.024	-0.973	-0.227	-6.5317212	-24.5798982	-1.8334656	92.54990574	0.18334656	-32.77892718
2.09	209	-0.011	-1.011	-0.202	-5.156622	-20.1108258	-5.156622	92.49833952	0.25210152	-32.97946248
2.1	210	-0.047	-1.04	-0.168	-3.7815228	-12.5477802	-7.2765666	92.40093666	0.3151269	-33.09978366
2.11	211	-0.082	-1.048	-0.138	-2.4064236	-2.8074942	-8.1360036	92.37228876	0.39534102	-33.12843156
2.12	212	-0.103	-1.031	-0.119	-0.8021412	6.3598338	-7.3911582	92.36655918	0.46409598	-33.0596766
2.13	213	-0.107	-1.002	-0.099	1.6042824	15.3552744	-4.9847346	92.37801834	0.50420304	-32.90497794
2.14	214	-0.092	-0.972	-0.079	4.4690724	23.1475032	-1.432395	92.42385498	0.50420304	-32.67579474
2.15	215	-0.079	-0.95	-0.05	7.6776372	27.2728008	2.8074942	92.48688036	0.44117766	-32.41223406
2.16	216	-0.057	-0.946	-0.018	9.3965112	30.3094782	7.161975	92.57855364	0.34950438	-32.1142959
2.17	217	-0.04	-0.942	0.004	10.1986524	32.7159018	10.8289062	92.68168608	0.22345362	-31.79343942
2.18	218	-0.033	-0.949	0.039	12.2613012	33.7472262	14.0947668	92.80200726	0.0572958	-31.46685336
2.19	219	-0.039	-0.951	0.065	11.0580894	31.7418732	15.756345	92.91086928	-0.12032118	-31.16318562
2.2	220	-0.05	-0.968	0.088	9.167328	28.2468294	15.6990492	93.00254256	-0.29793816	-30.88816578
2.21	221	-0.06	-0.979	0.094	5.2712136	23.2620948	14.3812458	93.05410878	-0.46409598	-30.66471216
2.22	222	-0.067	-0.983	0.102	0.6875496	19.194093	11.9175264	93.05410878	-0.59587632	-30.48709518
2.23	223	-0.07	-0.971	0.09	-3.2085648	17.4179232	9.1100322	93.0197313	-0.69900876	-30.31520778
2.24	224	-0.073	-0.955	0.072	-6.2452422	16.7876694	6.4171296	92.95097634	-0.77922288	-30.15477954
2.25	225	-0.084	-0.94	0.063	-8.307891	17.5898106	4.4690724	92.85930306	-0.84797784	-29.98862172
2.26	226	-0.091	-0.925	0.051	-9.5111028	20.4546006	3.6669312	92.75617062	-0.90527364	-29.78808642
2.27	227	-0.097	-0.92	0.035	-9.8548776	22.9756158	4.5263682	92.6473086	-0.96829902	-29.5646328
2.28	228	-0.096	-0.927	0.017	-9.3965112	24.0069402	6.9900876	92.54990574	-1.05424272	-29.32972002
2.29	229	-0.091	-0.937	0.024	-8.8235532	24.5226024	9.9694692	92.4467733	-1.16883432	-29.09480724
2.3	230	-0.081	-0.94	0.051	-6.8182002	25.496631	12.1467096	92.37228876	-1.3178034	-28.8484353
2.31	231	-0.071	-0.94	0.071	-5.156622	26.4133638	12.7769634	92.30926338	-1.4610429	-28.59633378
2.32	232	-0.07	-0.93	0.096	-3.0939732	26.4706596	11.8602306	92.26915632	-1.59855282	-28.33850268
2.33	233	-0.069	-0.921	0.132	-1.5469866	26.2414764	9.9121734	92.24050842	-1.71314442	-28.08640116
2.34	234	-0.077	-0.907	0.157	-0.572958	25.3820394	7.0473834	92.22331968	-1.79908812	-27.83429964
2.35	235	-0.088	-0.903	0.164	0.7448454	23.9496444	3.7815228	92.246238	-1.86784308	-27.59938686
2.36	236	-0.103	-0.908	0.16	1.432395	22.1161788	0.6875496	92.25196758	-1.8907614	-27.38166282
2.37	237	-0.112	-0.911	0.16	1.8907614	20.340009	-2.8074942	92.26342674	-1.87357266	-27.18112752
2.38	238	-0.121	-0.908	0.166	2.5210152	20.1681216	-4.870143	92.2748859	-1.83919518	-26.98059222
2.39	239	-0.136	-0.897	0.184	3.151269	20.912967	-6.0733548	92.29780422	-1.79335854	-26.76859776
2.4	240	-0.151	-0.89	0.189	3.5523396	22.4026578	-6.6463128	92.35510002	-1.76471064	-26.54514414
2.41	241	-0.166	-0.885	0.181	3.3804522	23.9496444	-6.9900876	92.37801834	-1.71314442	-26.30450178
2.42	242	-0.181	-0.891	0.17	3.3804522	26.5279554	-7.5630456	92.40093666	-1.65584862	-26.0409411
2.43	243	-0.191	-0.903	0.171	3.6096354	30.1375908	-8.3651868	92.42385498	-1.59282324	-25.73727336
2.44	244	-0.191	-0.928	0.181	4.8128472	33.9764094	-9.1100322	92.45823246	-1.52406828	-25.39922814
2.45	245	-0.172	-0.965	0.164	6.0733548	38.961144	-9.9121734	92.51552826	-1.46677248	-25.0096167
2.46	246	-0.135	-1.018	0.137	6.2452422	43.4875122	-10.4278356	92.5613649	-1.39228794	-24.57416862
2.47	247	-0.086	-1.055	0.128	7.2765666	44.8053156	-10.4278356	92.6186607	-1.32353298	-24.12726138
2.48	248	-0.03	-1.075	0.143	9.8548776	43.0864416	-10.5424272	92.7046044	-1.24904844	-23.6918133
2.49	249	0.02	-1.083	0.148	11.745639	39.8778768	-10.7716104	92.81346642	-1.16883432	-23.29647228
2.5	250	0.041	-1.079	0.143	11.3445684	34.7212548	-10.6570188	92.92232844	-1.08289062	-22.94123832
2.51	251	0.041	-1.063	0.147	10.599723	28.1895336	-9.6829902	93.0197313	-1.00840608	-22.6604889
2.52	252	0.031	-1.05	0.163	10.7716104	21.7151082	-8.1932994	93.12286374	-0.9453807	-22.43703528
2.53	253	0.008	-1.039	0.176	12.2613012	14.2093584	-5.5576926	93.24318492	-0.89954406	-22.29379578
2.54	254	-0.024	-1.017	0.196	13.5218088	8.880849	-4.8128472	93.38069484	-0.859437	-22.2021225
2.55	255	-0.065	-0.981	0.222	14.9542038	5.9014674	-6.016059	93.5640414	-0.81360036	-22.13909712
2.56	256	-0.108	-0.939	0.246	17.0168526	7.1046792	-8.9381448	93.7359288	-0.73338624	-22.058883
2.57	257	-0.134	-0.924	0.262	18.5065434	12.6623718	-11.9748222	93.91927536	-0.62452422	-21.92137308
2.58	258	-0.111	-0.971	0.237	16.4438946	23.8923486	-13.6936962	94.08543318	-0.50993262	-21.67500114
2.59	259	-0.045	-1.068	0.155	16.7876694	35.7525792	-11.2872726	94.24586142	-0.4297185	-21.3140376
2.6	260	0.016	-1.249	0.155	24.5798982	35.1796212	-0.5156622	94.48650378	-0.4583664	-20.96453322
2.61	261	0.084	-1.417	0.108	30.939732	18.334656	16.5011904	94.80163068	-0.64171296	-20.79264582
2.62	262	0.139	-1.503	0.044	28.7051958	0.859437	30.2521824	95.09383926	-0.93965112	-20.80983456
2.63	263	0.157	-1.488	-0.026	20.4546006	-15.0687954	36.669312	95.30583372	-1.28342592	-20.98745154
2.64	264	0.078	-1.352	-0.12	11.8029348	-31.9710564	35.523396	95.43761406	-1.59282324	-21.33695592
2.65	265	-0.045	-1.129	-0.193	8.3651868	-32.8304934	27.2728008	95.50063944	-1.82773602	-21.6864603
2.66	266	-0.107	-0.943	-0.173	12.7196676	-10.026765	16.902261	95.63814936	-1.98243468	-21.79532232
2.67	267	-0.123	-0.878	-0.105	14.4958374	14.4385416	6.3598338	95.77565928	-2.0626488	-21.6578124
2.68	268	-0.163	-0.932	-0.077	10.2559482	27.7311672	-4.6982556	95.86733256	-2.05118964	-21.38279256
2.69	269	-0.21	-1.016	-0.083	0.0572958	40.966497	-11.9175264	95.85014382	-1.98243468	-20.96453322
2.7	270	-0.237	-1.095	-0.108	-7.0473834	49.1597964	-9.8548776	95.73555222	-1.96524594	-20.47751892
2.71	271	-0.233	-1.147	-0.126	-15.5271618	52.4829528	-1.718874	95.55220566	-2.01681216	-19.96185672
2.72	272	-0.192	-1.16	-0.118	-21.9442914	50.993262	7.7922288	95.30583372	-2.15432208	-19.46911284
2.73	273	-0.113	-1.157	-0.1	-23.9496444	45.7220484	13.750992	95.03654346	-2.34339822	-19.03366476
2.74	274	-0.017	-1.142	-0.081	-22.7464326	38.2735944	14.7250206	94.78444194	-2.53820394	-18.67270122
2.75	275	0.069	-1.12	-0.076	-20.1681216	28.7051958	12.1467096	94.54379958	-2.67571386	-18.40341096
2.76	276	0.144	-1.064	-0.061	-17.6471064	19.4232762	7.1046792	94.35472344	-2.76738714	-18.2200644
2.77	277	0.185	-1.001	-0.023	-13.3499214	8.2505952	-0.6875496	94.21148394	-2.76738714	-18.13985028
2.78	278	0.183	-0.935	-0.005	-12.2613012	-1.6615782	-7.9641162	94.09116276	-2.68717302	-18.15130944
2.79	279	0.148	-0.881	0.023	-10.599723	-8.7662574	-14.5531332	93.98803032	-2.53820394	-18.23152356
2.8	280	0.108	-0.865	0.059	-8.5370742	-12.032118	-19.4232762	93.90208662	-2.31475032	-18.334656
2.81	281	0.082	-0.874	0.098	-7.3338624	-12.5477802	-22.5172494	93.83333166	-2.07983754	-18.44351802
2.82	282	0.06	-0.9	0.117	-7.448454	-12.4904844	-23.777757	93.7645767	-1.8334656	-18.55238004
2.83	283	0.047	-0.924	0.107	-10.0840608	-12.4331886	-22.8610242	93.66717384	-1.59282324	-18.66124206
2.84	284	0.044	-0.943	0.092	-13.2353298	-13.178034	-19.8816426	93.5353935	-1.38655836	-18.78156324
2.85	285	0.038	-0.961	0.08	-16.9595568	-15.8136408	-15.5271618	93.36923568	-1.20894138	-18.93053232
2.86	286	0.039	-0.97	0.072	-19.2513888	-17.9908812	-12.4904844	93.18015954	-1.07143146	-19.10241972
2.87	287	0.033	-0.972	0.064	-21.0275586	-19.9962342	-11.0007936	92.96816508	-0.9453807	-19.29722544
2.88	288	0.032	-0.966	0.05	-21.7151082	-20.8556712	-10.5424272	92.75617062	-0.8307891	-19.49776074
2.89	289	0.023	-0.959	0.05	-22.2880662	-22.4599536	-10.5424272	92.532717	-0.71046792	-19.71548478
2.9	290	0.001	-0.946	0.044	-22.2307704	-23.9496444	-10.599723	92.30926338	-0.59014674	-19.95039756
2.91	291	-0.017	-0.93	0.051	-21.3713334	-23.9496444	-10.4278356	92.09726892	-0.46982556	-20.18531034
2.92	292	-0.021	-0.91	0.072	-19.3659804	-22.7464326	-10.0840608	91.90819278	-0.35523396	-20.40876396
2.93	293	-0.025	-0.909	0.097	-18.5638392	-21.7151082	-10.1986524	91.72484622	-0.24637194	-20.62075842
2.94	294	-0.012	-0.916	0.103	-19.5378678	-19.8243468	-10.6570188	91.52431092	-0.12605076	-20.81556414
2.95	295	0	-0.925	0.072	-19.194093	-16.329303	-10.886202	91.33523478	-0.01145916	-20.97599238
2.96	296	0.008	-0.931	0.045	-18.2200644	-12.4331886	-10.1413566	91.15188822	0.0859437	-21.10204314
2.97	297	0.02	-0.931	0.047	-15.4125702	-10.026765	-7.9641162	90.99718956	0.1718874	-21.199446
2.98	298	0.024	-0.932	0.083	-12.605076	-11.0580894	-5.3285094	90.8711388	0.2291832	-21.30830802
2.99	299	0.031	-0.934	0.111	-11.0007936	-14.037471	-3.2085648	90.76227678	0.26356068	-21.45154752
3	300	0.062	-0.939	0.053	-9.6829902	-13.9801752	-2.7501984	90.66487392	0.3151269	-21.58905744
3.01	301	0.056	-0.931	0.055	-8.0787078	-14.2093584	-1.8907614	90.5846598	0.33804522	-21.73229694
3.02	302	0.026	-0.921	0.077	-5.3285094	-15.5844576	-0.859437	90.53309358	0.35523396	-21.8869956
3.03	303	0.001	-0.917	0.096	-2.3491278	-16.7303736	-0.5156622	90.51017526	0.36669312	-22.05315342
3.04	304	-0.006	-0.907	0.127	-0.6875496	-18.4492476	-0.286479	90.50444568	0.3724227	-22.2307704
3.05	305	0.002	-0.912	0.135	-0.286479	-19.480572	-0.3437748	90.53309358	0.38961144	-22.42557612
3.06	306	0.003	-0.929	0.136	0.286479	-19.2513888	-0.4583664	90.53882316	0.4010706	-22.61465226
3.07	307	0.006	-0.959	0.149	1.3178034	-16.902261	-0.6302538	90.5560119	0.41252976	-22.78081008
3.08	308	0.011	-0.981	0.159	2.0626488	-14.3812458	-0.1145916	90.57893022	0.41825934	-22.92404958
3.09	309	0.023	-0.987	0.142	1.2605076	-10.8289062	2.005353	90.59038938	0.4010706	-23.0329116
3.1	310	0.038	-0.982	0.137	0.859437	-8.59437	5.3858052	90.65341476	0.3724227	-23.11312572
3.11	311	0.052	-0.974	0.136	0.9167328	-7.2192708	9.5683986	90.66487392	0.28074942	-23.18761026
3.12	312	0.052	-0.993	0.084	0.859437	-11.5164558	13.178034	90.67633308	0.15469866	-23.30220186
3.13	313	-0.004	-1.088	-0.085	-4.9847346	-23.4339822	14.8396122	90.62476686	0.01718874	-23.53711464
3.14	314	-0.154	-1.238	-0.219	-11.3445684	-32.5440144	10.313244	90.51590484	-0.06875496	-23.8637007
3.15	315	-0.313	-1.444	-0.119	-8.59437	-26.5279554	0.5156622	90.42996114	-0.07448454	-24.12726138
3.16	316	-0.394	-1.554	-0.008	-3.9534102	-9.6829902	-10.026765	90.38985408	0.02291832	-24.22466424
3.17	317	-0.258	-1.384	0.004	-1.7761698	5.6149884	-14.6677248	90.37266534	0.16615782	-24.16736844
3.18	318	-0.041	-1.161	-0.044	-0.0572958	3.4950438	-10.1986524	90.37266534	0.26356068	-24.12726138
3.19	319	0.123	-1.062	-0.059	0.3437748	-9.5683986	-2.6929026	90.37266534	0.29793816	-24.22466424
3.2	320	0.198	-1.048	-0.024	-1.6042824	-20.6837838	3.0939732	90.34974702	0.32085648	-24.43092912
3.21	321	0.215	-1.108	-0.019	-3.3804522	-21.8296998	4.7555514	90.31536954	0.28074942	-24.64865316
3.22	322	0.191	-1.186	-0.021	-6.589017	-18.907614	2.6929026	90.25234416	0.2578311	-24.83199972
3.23	323	0.138	-1.209	-0.059	-11.45916	-18.5065434	-0.8021412	90.13775256	0.26929026	-25.02107586
3.24	324	0.048	-1.142	-0.09	-15.6417534	-22.9756158	-3.0366774	89.97732432	0.30366774	-25.25025906
3.25	325	-0.038	-1.044	-0.081	-18.1627686	-26.929026	-2.8074942	89.7825186	0.32658606	-25.51954932
3.26	326	-0.104	-0.962	-0.072	-19.1367972	-24.637194	-1.4896908	89.58771288	0.34950438	-25.76019168
3.27	327	-0.145	-0.9	-0.115	-19.8816426	-21.7151082	-0.6875496	89.38717758	0.35523396	-25.97791572
3.28	328	-0.169	-0.855	-0.146	-20.1108258	-19.8243468	-0.859437	89.18664228	0.36669312	-26.17845102
3.29	329	-0.175	-0.835	-0.136	-19.767051	-15.9855282	-1.6042824	88.98610698	0.38388186	-26.33887926
3.3	330	-0.163	-0.834	-0.109	-18.7357266	-10.0840608	-1.6042824	88.77411252	0.36669312	-26.4420117
3.31	331	-0.145	-0.842	-0.09	-17.5325148	-3.7815228	-0.859437	88.59649554	0.3724227	-26.48211876
3.32	332	-0.126	-0.85	-0.066	-15.9855282	1.6042824	0.6302538	88.43033772	0.36669312	-26.4706596
3.33	333	-0.125	-0.861	-0.047	-14.610429	6.5317212	2.8074942	88.28136864	0.33231564	-26.40190464
3.34	334	-0.132	-0.883	-0.034	-13.4072172	10.1986524	4.4117766	88.14385872	0.29220858	-26.30450178
3.35	335	-0.137	-0.911	-0.038	-12.7196676	13.6936962	5.6722842	88.0063488	0.2005353	-26.16699186
3.36	336	-0.148	-0.936	-0.025	-11.5164558	17.475219	6.7036086	87.8917572	0.13750992	-25.99510446
3.37	337	-0.158	-0.952	-0.011	-10.0840608	22.2880662	8.2505952	87.78289518	0.0572958	-25.77165084
3.38	338	-0.156	-0.951	-0.026	-8.1932994	25.0382646	9.740286	87.69695148	-0.03437748	-25.51954932
3.39	339	-0.146	-0.945	-0.015	-6.7036086	27.6738714	10.6570188	87.62819652	-0.13750992	-25.24452948
3.4	340	-0.129	-0.943	-0.019	-6.016059	30.7678446	11.0580894	87.55944156	-0.2578311	-24.93513216
3.41	341	-0.115	-0.941	-0.017	-5.3285094	32.7159018	11.0007936	87.49641618	-0.36669312	-24.6085461
3.42	342	-0.109	-0.947	-0.013	-4.9847346	32.8877892	10.5424272	87.43912038	-0.46409598	-24.28196004
3.43	343	-0.115	-0.955	-0.004	-5.3858052	31.9710564	10.0840608	87.376095	-0.56149884	-23.96110356
3.44	344	-0.119	-0.961	0	-5.6722842	30.5959572	9.5683986	87.31306962	-0.64744254	-23.65170624
3.45	345	-0.128	-0.966	0.009	-6.302538	29.2781538	8.7089616	87.25004424	-0.75057498	-23.35949766
3.46	346	-0.142	-0.968	0.025	-8.59437	28.5906042	7.3338624	87.15264138	-0.81932994	-23.07874824
3.47	347	-0.162	-0.966	0.018	-11.6310474	27.9030546	5.156622	87.02659062	-0.86516658	-22.79799882
3.48	348	-0.173	-0.959	0.007	-13.1207382	28.9916748	2.6356068	86.88335112	-0.88235532	-22.51151982
3.49	349	-0.171	-0.951	-0.012	-13.6364004	32.2575354	0.3437748	86.74011162	-0.88235532	-22.19639292
3.5	350	-0.154	-0.94	-0.004	-13.0061466	34.2055926	-0.6302538	86.6026017	-0.8880849	-21.8583477
3.51	351	-0.136	-0.94	0.002	-13.750992	34.3201842	-1.2605076	86.45363262	-0.86516658	-21.52030248
3.52	352	-0.118	-0.941	0	-13.6936962	33.7472262	-1.6042824	86.30466354	-0.83651868	-21.18798684
3.53	353	-0.112	-0.949	0.001	-13.3499214	30.4813656	-1.8334656	86.16142404	-0.80787078	-20.89004868
3.54	354	-0.106	-0.957	0	-13.4072172	26.5279554	-2.86479	86.01818454	-0.76776372	-20.63221758
3.55	355	-0.105	-0.951	0.003	-10.4278356	22.91832	-3.8388186	85.92078168	-0.7448454	-20.40876396
3.56	356	-0.124	-0.954	0.041	-7.161975	19.767051	-5.2139178	85.84056756	-0.6875496	-20.21968782
3.57	357	-0.152	-0.93	0.077	-6.3598338	19.194093	-8.4797784	85.7718126	-0.59014674	-20.03634126
3.58	358	-0.187	-0.89	0.107	-5.443101	23.7204612	-12.7196676	85.70878722	-0.4583664	-19.81288764
3.59	359	-0.21	-0.859	0.122	-5.9587632	32.4867186	-17.0168526	85.64576184	-0.26929026	-19.50349032
3.6	360	-0.196	-0.843	0.205	-5.3858052	43.6593996	-21.0848544	85.61138436	-0.0572958	-19.08523098
3.61	361	-0.128	-0.889	0.176	-0.4583664	57.6968706	-25.2674478	85.59419562	0.21199446	-18.5351913
3.62	362	-0.093	-1.014	0.161	1.8907614	63.6556338	-26.4133638	85.61138436	0.50420304	-17.92785582
3.63	363	-0.084	-1.11	0.151	-0.1145916	60.6189564	-23.6631654	85.60565478	0.76776372	-17.34343866
3.64	364	-0.077	-1.16	0.095	-7.7922288	55.4050386	-17.6471064	85.53117024	0.9740286	-16.81058772
3.65	365	-0.042	-1.102	0.034	-16.6730778	53.4569814	-9.8548776	85.370742	1.09434978	-16.28919594
3.66	366	0.008	-1.007	0.025	-18.2200644	57.009321	-4.583664	85.18739544	1.16883432	-15.73342668
3.67	367	0.065	-0.949	-0.035	-18.1627686	61.4783934	-2.1199446	85.00977846	1.22040054	-15.13182078
3.68	368	0.102	-0.921	-0.131	-22.1734746	59.7022236	-0.7448454	84.78632484	1.2605076	-14.54167404
3.69	369	0.128	-0.881	-0.167	-28.4760126	49.1597964	0.5156622	84.49984584	1.2891555	-14.06038932
3.7	370	0.162	-0.826	-0.173	-32.085648	35.6379876	1.4896908	84.1675302	1.31207382	-13.71088494
3.71	371	0.183	-0.78	-0.143	-31.5699858	21.8296998	2.5210152	83.84667372	1.30061466	-13.49889048
3.72	372	0.163	-0.717	-0.125	-31.4553942	9.1100322	1.8334656	83.53154682	1.2891555	-13.4072172
3.73	373	0.118	-0.657	-0.104	-29.3354496	-0.9167328	-2.6356068	83.23360866	1.30634424	-13.42440594
3.74	374	0.054	-0.627	-0.062	-25.9549974	-7.5630456	-8.59437	82.9643184	1.38655836	-13.51034964
3.75	375	-0.016	-0.618	-0.008	-22.4599536	-14.610429	-13.5791046	82.74086478	1.49542038	-13.67650746
3.76	376	-0.073	-0.616	0.057	-18.2773602	-17.8189938	-17.1314442	82.55178864	1.64438946	-13.87131318
3.77	377	-0.125	-0.616	0.121	-14.4958374	-15.5271618	-19.8243468	82.40281956	1.82773602	-14.05465974
3.78	378	-0.183	-0.625	0.176	-11.5164558	-8.3651868	-22.1161788	82.28249838	2.0340009	-14.16352176
3.79	379	-0.227	-0.645	0.206	-9.8548776	4.3544808	-24.8663772	82.17936594	2.28037284	-14.15779218
3.8	380	-0.269	-0.679	0.216	-9.5111028	19.6524594	-28.0176462	82.12207014	2.54393352	-13.99736394
3.81	381	-0.293	-0.703	0.202	-9.9694692	39.4195104	-30.2521824	82.03039686	2.88770832	-13.65358914
3.82	382	-0.296	-0.709	0.187	-11.2299768	52.6548402	-31.1689152	81.932994	3.24867186	-13.178034
3.83	383	-0.295	-0.695	0.174	-14.32395	61.1919144	-30.8251404	81.81267282	3.62109456	-12.62226474
3.84	384	-0.262	-0.665	0.154	-17.18874	66.9214944	-30.653253	81.66943332	3.99924684	-12.0034701
3.85	385	-0.208	-0.628	0.161	-15.6990492	71.9635248	-30.8824362	81.56630088	4.37166954	-11.33883882
3.86	386	-0.16	-0.611	0.18	-14.5531332	74.771019	-31.9137606	81.45743886	4.77274014	-10.65128922
3.87	387	-0.102	-0.626	0.153	-18.8503182	76.6044846	-33.4034514	81.31992894	5.19099948	-9.94655088
3.88	388	-0.044	-0.639	0.101	-24.7517856	76.776372	-35.0077338	81.12512322	5.62644756	-9.24754212
3.89	389	-0.026	-0.665	0.09	-27.7311672	72.8802576	-36.3255372	80.89594002	6.0733548	-8.58864042
3.9	390	0	-0.687	0.067	-30.366774	70.5311298	-37.528749	80.66102724	6.52599162	-7.95265704
3.91	391	0.03	-0.679	0.047	-32.372127	70.1300592	-38.2735944	80.39173698	6.99581718	-7.32813282
3.92	392	0.045	-0.642	0.045	-35.5806918	69.7289886	-39.3049188	80.0995284	7.47137232	-6.70933818
3.93	393	0.043	-0.585	0.05	-39.0184398	67.6663398	-40.2216516	79.77294234	7.95838662	-6.11346186
3.94	394	0.027	-0.535	0.044	-42.5134836	64.5150708	-40.966497	79.4119788	8.45686008	-5.55196302
3.95	395	0.021	-0.501	0.026	-43.0291458	62.0513514	-41.252976	79.05101526	8.94960396	-5.01911208
3.96	396	0.05	-0.491	0.023	-43.6593996	60.2178858	-40.680018	78.68432214	9.43661826	-4.50917946
3.97	397	0.083	-0.489	-0.006	-40.966497	55.9779966	-40.5081306	78.34054734	9.92363256	-4.0393539
3.98	398	0.122	-0.501	-0.018	-37.0703826	49.1025006	-42.5707794	78.02542044	10.42210602	-3.64401288
3.99	399	0.162	-0.483	-0.018	-37.8725238	40.680018	-46.1804148	77.68737522	10.93776822	-3.34034514
4	400	0.175	-0.444	0.018	-40.4508348	33.4607472	-49.3316838	77.3206821	11.48207832	-3.11689152
4.01	401	0.174	-0.4	0.03	-43.831287	28.361421	-50.5348956	76.90815234	12.02065884	-2.95646328
4.02	402	0.161	-0.382	0.003	-46.2377106	24.064236	-49.4462754	76.45551552	12.54205062	-2.8361421
4.03	403	0.159	-0.383	-0.048	-52.6548402	24.1788276	-48.8733174	75.9455829	13.0634424	-2.71582092
4.04	404	0.213	-0.419	-0.069	-59.2438572	27.1582092	-49.1025006	75.3726249	13.58483418	-2.578311
4.05	405	0.274	-0.488	0.015	-57.0666168	26.2987722	-48.128472	74.8283148	14.11195554	-2.44653066
4.06	406	0.321	-0.627	0.073	-53.3996856	19.480572	-47.269035	74.30119344	14.60469942	-2.38350528
4.07	407	0.375	-0.809	0.009	-57.0666168	8.2505952	-48.3576552	73.70531712	15.08025456	-2.44080108
4.08	408	0.443	-0.971	-0.059	-65.7182826	-5.5003968	-51.3370368	72.98339004	15.55008012	-2.65279554
4.09	409	0.527	-1.1	-0.119	-76.3180056	-22.7464326	-54.3737142	72.10103472	15.99698736	-3.05386614
4.1	410	0.636	-1.189	-0.166	-91.5013926	-43.4875122	-55.0612638	71.00668494	16.3865988	-3.6669312
4.11	411	0.762	-1.23	-0.23	-105.3096804	-66.2912406	-48.9306132	69.71179986	16.62724116	-4.49199072
4.12	412	0.908	-1.274	-0.231	-108.6328368	-90.6419556	-36.2109456	68.3252415	16.65588906	-5.51758554
4.13	413	0.972	-1.453	0.056	-112.8154302	-112.0705848	-17.8762896	66.8641986	16.40951712	-6.6749607
4.14	414	0.917	-1.613	0.294	-141.6352176	-120.4357716	0.572958	65.12240628	15.93396198	-7.83233586
4.15	415	0.733	-1.684	0.322	-170.6841882	-140.7757806	15.1260912	63.07694622	15.20630532	-9.08711388
4.16	416	0.544	-1.714	0.383	-181.4557986	-159.9698736	21.7151082	60.91116498	14.28957252	-10.46221308
4.17	417	0.367	-1.705	0.463	-178.8774876	-173.892753	22.631841	58.77403164	13.25251854	-11.91179682
4.18	418	0.269	-1.662	0.524	-176.6429514	-189.8209854	17.5325148	56.65981662	12.12379128	-13.47597216
4.19	419	0.161	-1.49	0.538	-180.6536574	-202.3114698	7.3911582	54.5169537	10.95495696	-15.16046868
4.2	420	0.072	-1.16	0.467	-186.6124206	-209.9318112	-5.0420304	52.35117246	9.77466348	-16.92517932
4.21	421	-0.065	-0.806	0.52	-179.7942204	-205.5773304	-17.9335854	50.27133492	8.66885454	-18.68416038
4.22	422	-0.203	-0.48	0.502	-178.9347834	-183.1746726	-26.8717302	48.25452276	7.70055552	-20.28844278
4.23	423	-0.29	-0.162	0.388	-180.9974322	-144.5000076	-28.7624916	46.27208808	6.94998054	-21.5718687
4.24	424	-0.42	0.104	0.342	-176.3564724	-109.8360486	-30.5386614	44.3755971	6.39994086	-22.59173394
4.25	425	-0.534	0.406	0.339	-182.3152356	-80.0995284	-34.2628884	42.43899906	6.03324774	-23.41106388
4.26	426	-0.633	0.737	0.252	-188.789661	-55.863405	-39.4195104	40.46229396	5.86136034	-24.08715432
4.27	427	-0.648	0.953	0.1	-192.5711838	-40.3362432	-42.398892	38.45121138	5.80406454	-24.67730106
4.28	428	-0.522	0.959	-0.022	-197.956989	-33.2888598	-38.0444112	36.39429216	5.75249832	-25.18723368
4.29	429	-0.338	0.789	-0.094	-202.7125404	-33.0596766	-28.3041252	34.29726588	5.62644756	-25.61695218
4.3	430	-0.343	0.601	-0.204	-204.8897808	-36.1536498	-20.9702628	32.16013254	5.40299394	-26.00083404
4.31	431	-0.343	0.353	-0.463	-214.0571088	-21.3713334	-13.8655836	29.97143298	5.26548402	-26.23001724
4.32	432	-0.205	-0.039	-1.413	-242.7050088	6.5317212	-16.042824	27.49625442	5.36861646	-26.33314968
4.33	433	-0.22	-0.474	-3.027	-311.7464478	22.4026578	-27.7311672	24.31633752	5.63790672	-26.47638918
4.34	434	-0.156	-0.751	-3.567	-366.406641	40.2216516	-67.609044	20.54627388	6.21086472	-26.92329642
4.35	435	0.553	-0.254	-3.996	-373.7405034	37.4141574	-67.036086	16.69026654	6.72079734	-27.4160403
4.36	436	0.829	1.634	-3.996	-318.5073522	-10.4851314	-37.9298196	13.41294678	6.68069028	-27.79419258
4.37	437	0.585	2.247	-3.996	-236.2878792	15.9282324	30.7678446	11.0580894	6.73798608	-27.4446882
4.38	438	0.276	3.094	-3.996	-188.9042526	3.724227	33.4034514	9.17878716	6.69214944	-27.09518382
4.39	439	0.202	2.607	-3.996	-123.472449	-16.1001198	15.2406828	7.94119788	6.49734372	-26.96340348
4.4	440	-0.134	1.582	-3.859	-73.1094408	-26.1841806	-15.0114996	7.18489332	6.25097178	-27.14675004
4.41	441	-0.242	0.76	-2.767	-41.3102718	-38.8465524	-43.831287	6.71506776	5.91865614	-27.63949392
4.42	442	-0.049	-0.567	-2.027	-15.0114996	-42.97185	-70.2446508	6.49161414	5.58061092	-28.39579848
4.43	443	0.531	-1.87	-0.949	60.6762522	-42.2270046	-90.6992514	7.0187355	5.27694318	-29.35836792
4.44	444	0.554	-0.986	-0.383	21.0275586	-30.9970278	-57.2958	7.18489332	5.05348956	-29.97143298
4.45	445	0.329	-0.337	-0.42	-0.286479	-22.1161788	-26.9863218	7.15051584	4.88733174	-30.27510072
4.46	446	0.213	0.23	-0.392	-22.2880662	-25.1528562	-11.5164558	6.91560306	4.65241896	-30.4240698
4.47	447	0.221	0.433	-0.421	-21.199446	-32.5440144	1.145916	6.7036086	4.33156248	-30.45844728
4.48	448	0.293	0.788	-0.523	-27.215505	-34.8358464	1.8334656	6.42858876	3.9820581	-30.48709518
4.49	449	0.329	0.998	-0.555	-40.966497	-35.809875	-1.7761698	6.01032942	3.62682414	-30.55012056
4.5	450	0.287	0.714	-0.574	-35.7525792	-30.8251404	-0.8021412	5.56342218	3.35753388	-30.60168678
4.51	451	0.209	0.309	-0.544	-26.2414764	-23.6058696	5.2139178	5.2998615	3.11689152	-30.57876846
4.52	452	0.015	0.229	-0.469	-23.1475032	-19.5378678	8.3651868	5.0706783	2.91062664	-30.51574308
4.53	453	-0.133	0.186	-0.452	-26.5852512	-11.4018642	10.886202	4.80711762	2.78457588	-30.41834022
4.54	454	-0.252	0.102	-0.555	-29.5646328	-0.6302538	10.2559482	4.51490904	2.76738714	-30.31520778
4.55	455	-0.279	0.101	-0.654	-28.361421	11.2299768	9.3965112	4.19978214	2.82468294	-30.21207534
4.56	456	-0.225	0.163	-0.758	-22.8610242	18.9649098	8.9381448	3.97059894	3.00229992	-30.10321332
4.57	457	-0.163	0.249	-0.86	-17.9908812	17.7044022	8.1932994	3.79298196	3.16845774	-30.00008088
4.58	458	-0.12	0.341	-0.951	-14.2093584	11.5164558	6.2452422	3.64974246	3.27731976	-29.92559634
4.59	459	-0.119	0.451	-1.019	-12.891555	4.5263682	3.5523396	3.5236917	3.31742682	-29.88548928
4.6	460	-0.128	0.515	-1.033	-9.6256944	-2.005353	0	3.27159018	3.24867186	-29.90267802
4.61	461	-0.119	0.449	-1.069	-2.9220858	-6.8182002	-5.0420304	3.2372127	3.18564648	-29.95997382
4.62	462	-0.098	0.299	-1.054	0.859437	-6.7036086	-9.6256944	3.24294228	3.1226211	-30.06310626
4.63	463	-0.074	0.188	-1.036	4.6982556	-6.3598338	-11.6310474	3.28304934	3.0653253	-30.18342744
4.64	464	-0.059	0.122	-1.047	8.4797784	-8.9381448	-11.4018642	3.36326346	2.98511118	-30.30374862
4.65	465	-0.035	0.109	-1.044	13.0634424	-11.45916	-9.3965112	3.44920716	2.85906042	-30.41261064
4.66	466	-0.01	0.089	-1.053	20.9702628	-12.0894138	-6.2452422	3.66120162	2.7501984	-30.48709518
4.67	467	0.003	0.066	-1.054	26.1268848	-9.9694692	-2.7501984	3.9247623	2.65279554	-30.52720224
4.68	468	0.016	0.042	-1.073	29.1635622	-8.3651868	-0.572958	4.22270046	2.578311	-30.5386614
4.69	469	0.028	-0.007	-1.091	30.0229992	-7.6776372	-0.4583664	4.5263682	2.50382646	-30.55585014
4.7	470	0.03	-0.045	-1.103	28.0176462	-5.8441716	-1.2605076	4.80138804	2.44653066	-30.57876846
4.71	471	0.039	-0.097	-1.141	26.0122932	-4.583664	-3.6096354	5.05921914	2.4064236	-30.61887552
4.72	472	0.048	-0.135	-1.162	21.1421502	-2.7501984	-6.016059	5.27694318	2.38923486	-30.68763048
4.73	473	0.046	-0.151	-1.131	17.0168526	1.0886202	-7.5057498	5.443101	2.4064236	-30.76211502
4.74	474	0.04	-0.172	-1.112	13.6364004	6.7609044	-8.0787078	5.58061092	2.48663772	-30.83086998
4.75	475	0.013	-0.18	-1.087	7.7922288	11.8602306	-7.1046792	5.66655462	2.58977016	-30.88816578
4.76	476	-0.024	-0.18	-1.092	2.005353	16.615782	-6.016059	5.68374336	2.76165756	-30.92827284
4.77	477	-0.022	-0.189	-1.081	-3.724227	17.761698	-5.5576926	5.63790672	2.93927454	-30.96265032
4.78	478	-0.043	-0.172	-0.967	-3.8388186	12.2613012	-4.9274388	5.59779966	3.0653253	-30.99129822
4.79	479	-0.042	-0.191	-0.87	-0.7448454	9.1100322	-4.1825934	5.5863405	3.15699858	-31.0256757
4.8	480	-0.003	-0.215	-0.822	0.1145916	9.6256944	-3.4950438	5.63790672	3.24294228	-31.04286444
4.81	481	0.066	-0.218	-0.846	1.8334656	11.4018642	-2.005353	5.65509546	3.35753388	-31.04859402
4.82	482	0.127	-0.185	-0.887	2.6356068	13.8655836	-1.0886202	5.67801378	3.4950438	-31.04286444
4.83	483	0.123	-0.128	-0.896	1.6615782	15.9282324	-0.8021412	5.69520252	3.64974246	-31.03140528
4.84	484	0.113	-0.075	-0.894	0.1145916	14.2093584	-0.9740286	5.69520252	3.79298196	-31.0256757
4.85	485	0.064	-0.055	-0.918	-1.432395	10.4278356	-1.0886202	5.63217714	3.87319608	-31.0256757
4.86	486	0.044	-0.042	-0.964	-5.5576926	5.5576926	-0.6302538	5.57488134	3.9247623	-31.0256757
4.87	487	0.046	-0.022	-0.963	-8.880849	-1.6042824	-0.1718874	5.48320806	3.90757356	-31.0256757
4.88	488	0.048	-0.019	-0.947	-8.7662574	-5.0993262	0.572958	5.39726436	3.85600734	-31.0256757
4.89	489	0.081	-0.02	-0.934	-9.3392154	-6.4744254	1.718874	5.30559108	3.78725238	-31.01994612
4.9	490	0.101	-0.03	-0.968	-7.6776372	-9.9121734	2.005353	5.19099948	3.71276784	-31.01421654
4.91	491	0.132	-0.033	-1.007	-5.9014674	-18.7930224	2.005353	5.13370368	3.5236917	-31.01421654
4.92	492	0.124	-0.05	-0.979	-3.724227	-31.1116194	3.8961144	5.0993262	3.21429438	-31.00848696
4.93	493	0.091	-0.097	-0.939	-0.0572958	-39.5913978	4.5263682	5.0993262	2.81895336	-31.01421654
4.94	494	0.054	-0.148	-0.947	0.4583664	-41.9405256	4.6982556	5.11078536	2.4064236	-31.01421654
4.95	495	0.035	-0.188	-1.016	-0.6875496	-38.9038482	4.0680018	5.1279741	2.01681216	-31.01421654
4.96	496	0.045	-0.211	-1.054	-0.1145916	-31.8564648	3.437748	5.1279741	1.70168526	-31.01994612
4.97	497	0.067	-0.204	-0.984	4.0680018	-22.6891368	3.3231564	5.17381074	1.47250206	-31.01421654
4.98	498	0.099	-0.202	-0.953	9.3965112	-12.3758928	3.0366774	5.2712136	1.35218088	-30.9970278
4.99	499	0.091	-0.197	-0.956	10.4851314	-5.3285094	3.3804522	5.38007562	1.29488508	-30.9683799
5	500	0.079	-0.183	-0.966	7.6776372	-0.859437	3.2085648	5.51185596	1.32353298	-30.939732
5.01	501	0.055	-0.151	-0.992	2.4064236	1.2032118	3.7815228	5.54050386	1.33499214	-30.89962494
5.02	502	0.012	-0.133	-1.026	-1.5469866	0.8021412	3.5523396	5.52331512	1.34072172	-30.85951788
5.03	503	-0.028	-0.146	-1.018	-3.3231564	0.286479	2.6929026	5.48893764	1.34072172	-30.83659956
5.04	504	-0.051	-0.126	-0.959	-6.2452422	1.145916	1.8334656	5.42591226	1.3464513	-30.81368124
5.05	505	-0.085	-0.147	-0.935	-5.9014674	5.72958	0.859437	5.39726436	1.33499214	-30.7964925
5.06	506	-0.08	-0.151	-0.93	-8.4224826	11.745639	-1.0313244	5.31132066	1.44958374	-30.79076292
5.07	507	-0.053	-0.13	-0.938	-10.4278356	17.9335854	-2.7501984	5.20245864	1.62720072	-30.7964925
5.08	508	-0.024	-0.109	-0.932	-10.9434978	18.2200644	-4.010706	5.08786704	1.81054728	-30.81368124
5.09	509	-0.013	-0.105	-0.924	-11.6310474	11.1153852	-3.8388186	4.96754586	1.9194093	-30.84232914
5.1	510	-0.018	-0.108	-0.911	-11.9748222	6.016059	-2.578311	4.84722468	1.95951636	-30.85951788
5.11	511	0.002	-0.109	-0.904	-11.6310474	7.448454	-1.0886202	4.7269035	2.0340009	-30.85951788
5.12	512	0.001	-0.109	-0.926	-11.8602306	6.4744254	0	4.60658232	2.09702628	-30.8537883
5.13	513	-0.014	-0.109	-0.95	-12.4331886	2.4064236	0.7448454	4.48053156	2.11421502	-30.84232914
5.14	514	-0.022	-0.098	-0.973	-13.4072172	1.145916	0.7448454	4.34302164	2.12567418	-30.83086998
5.15	515	-0.02	-0.085	-0.994	-15.2979786	3.0366774	0.1718874	4.17686382	2.12567418	-30.8251404
5.16	516	-0.018	-0.059	-1.014	-16.6730778	7.2765666	0.0572958	4.010706	2.19442914	-30.81941082
5.17	517	-0.007	-0.042	-1.036	-15.756345	14.1520626	0.4583664	3.84454818	2.33193906	-30.7964925
5.18	518	0.004	-0.031	-1.038	-13.750992	22.7464326	1.2605076	3.70703826	2.55539268	-30.76211502
5.19	519	0.011	-0.028	-1.022	-10.2559482	29.4500412	1.5469866	3.59817624	2.84187168	-30.72200796
5.2	520	0.022	-0.035	-1.007	-7.734933	31.6845774	0.6875496	3.50650296	3.14553942	-30.68763048
5.21	521	0.041	-0.041	-1.007	-6.875496	30.3094782	-0.5156622	3.43201842	3.44347758	-30.66471216
5.22	522	0.062	-0.032	-1.013	-6.5317212	27.5592798	-1.2032118	3.36326346	3.71276784	-30.653253
5.23	523	0.077	-0.022	-1.026	-4.8128472	23.6058696	-0.859437	3.31169724	3.94768062	-30.64179384
5.24	524	0.083	-0.015	-1.029	-3.2658606	18.9649098	0.286479	3.27731976	4.13102718	-30.61887552
5.25	525	0.086	-0.006	-1.03	-2.9793816	13.464513	1.9480572	3.2085648	4.26280752	-30.5959572
5.26	526	0.077	0.007	-1.034	-3.0939732	8.4797784	3.4950438	3.1799169	4.34302164	-30.55012056
5.27	527	0.065	0.021	-1.04	-4.1825934	4.9274388	4.4690724	3.13980984	4.38885828	-30.50428392
5.28	528	0.052	0.031	-1.045	-4.9847346	2.9220858	5.2139178	3.08824362	4.4117766	-30.44698812
5.29	529	0.036	0.036	-1.027	-4.6409598	1.8907614	5.5003968	3.04813656	4.42896534	-30.38969232
5.3	530	0.018	0.032	-0.996	-3.3804522	2.4064236	5.156622	2.9220858	4.3831287	-30.34385568
5.31	531	0.013	0.015	-0.981	-2.9793816	4.010706	4.010706	2.8934379	4.42323576	-30.30374862
5.32	532	0.004	0.006	-0.972	-3.7815228	3.0939732	2.4637194	2.85906042	4.45188366	-30.27510072
5.33	533	0.004	-0.01	-0.959	-2.9220858	3.724227	0.572958	2.83041252	4.48626114	-30.26937114
5.34	534	0.017	-0.032	-0.964	-2.578311	6.2452422	-0.4583664	2.80176462	4.54928652	-30.26937114
5.35	535	0.035	-0.053	-0.98	-2.7501984	8.7662574	-1.145916	2.76738714	4.60658232	-30.27510072
5.36	536	0.054	-0.069	-1.006	-3.3804522	10.1413566	-1.432395	2.72728008	4.70398518	-30.2808303
5.37	537	0.069	-0.08	-1.028	-3.7815228	9.9121734	-1.3178034	2.68717302	4.80711762	-30.28655988
5.38	538	0.079	-0.088	-1.03	-4.0680018	9.1100322	-1.0313244	2.64706596	4.89306132	-30.28655988
5.39	539	0.095	-0.081	-1.019	-4.8128472	8.4224826	-0.6875496	2.59549974	4.97900502	-30.28655988
5.4	540	0.093	-0.071	-1.019	-5.5576926	5.2712136	-0.572958	2.53247436	5.02484166	-30.29228946
5.41	541	0.091	-0.05	-1.004	-6.4744254	0	-0.8021412	2.46944898	5.02484166	-30.29801904
5.42	542	0.093	-0.034	-0.977	-5.5576926	-2.6356068	-0.9740286	2.41215318	4.99619376	-30.3094782
5.43	543	0.092	-0.031	-0.963	-3.4950438	-4.2398892	-1.0313244	2.37204612	4.9560867	-30.32093736
5.44	544	0.098	-0.044	-0.951	-1.8334656	-4.8128472	-1.2605076	2.35485738	4.91025006	-30.3381261
5.45	545	0.093	-0.057	-0.94	-1.8334656	-4.9274388	-1.3178034	2.33766864	4.86441342	-30.35531484
5.46	546	0.09	-0.067	-0.937	-2.4637194	-5.0420304	-1.3178034	2.31475032	4.8128472	-30.37250358
5.47	547	0.091	-0.069	-0.939	-2.4064236	-5.0420304	-1.2605076	2.28610242	4.76701056	-30.38969232
5.48	548	0.093	-0.07	-0.947	-1.7761698	-4.3544808	-1.0886202	2.26891368	4.72117392	-30.40115148
5.49	549	0.106	-0.068	-0.956	-1.7761698	-2.9793816	-1.2605076	2.25172494	4.69252602	-30.41834022
5.5	550	0.108	-0.06	-0.968	-1.9480572	-2.6929026	-0.6302538	2.22880662	4.70398518	-30.4240698
5.51	551	0.108	-0.052	-0.976	-2.0626488	-2.8074942	-0.286479	2.2058883	4.67533728	-30.42979938
5.52	552	0.106	-0.045	-0.982	-2.1199446	-2.5210152	-0.0572958	2.18296998	4.64668938	-30.42979938
5.53	553	0.1	-0.036	-0.993	-2.005353	-1.6042824	-0.0572958	2.16578124	4.62950064	-30.43552896
5.54	554	0.089	-0.029	-1.004	-1.8907614	-0.7448454	-0.4583664	2.14286292	4.62377106	-30.44125854
5.55	555	0.079	-0.024	-1.018	-2.0626488	0.1145916	-0.9740286	2.04546006	4.59512316	-30.45844728
5.56	556	0.072	-0.019	-1.025	-2.578311	1.3750992	-1.2605076	2.01681216	4.6123119	-30.46990644
5.57	557	0.065	-0.016	-1.033	-3.4950438	2.1772404	-0.9167328	1.98243468	4.62950064	-30.47563602
5.58	558	0.062	-0.008	-1.028	-3.6096354	3.437748	-0.1718874	1.94232762	4.66387812	-30.47563602
5.59	559	0.053	0.002	-1.019	-2.6929026	3.4950438	0.6302538	1.9194093	4.6982556	-30.46417686
5.6	560	0.043	0.009	-1.005	-1.3178034	2.86479	1.2605076	1.78189938	4.6409598	-30.46417686
5.61	561	0.035	0.013	-0.989	-0.3437748	1.9480572	1.6042824	1.78189938	4.65814854	-30.44698812
5.62	562	0.03	0.009	-0.979	0.4583664	1.145916	1.5469866	1.78762896	4.6696077	-30.42979938
5.63	563	0.031	-0.002	-0.978	0.9740286	1.0313244	1.2605076	1.79908812	4.68106686	-30.41834022
5.64	564	0.037	-0.013	-0.984	1.0313244	1.432395	0.8021412	1.81054728	4.69252602	-30.40688106
5.65	565	0.042	-0.021	-0.995	0.859437	1.9480572	0.3437748	1.74179232	4.58939358	-30.41261064
5.66	566	0.046	-0.027	-0.999	0.4010706	2.4064236	0	1.7475219	4.61804148	-30.41261064
5.67	567	0.051	-0.029	-0.992	-0.4010706	2.9793816	-0.2291832	1.74179232	4.64668938	-30.41261064
5.68	568	0.057	-0.029	-0.981	-1.3178034	3.724227	-0.4010706	1.72460358	4.68106686	-30.41261064
5.69	569	0.063	-0.027	-0.977	-1.5469866	4.0680018	-0.6302538	1.70741484	4.72117392	-30.41834022
5.7	570	0.07	-0.028	-0.975	-1.145916	3.6669312	-0.7448454	1.6615782	4.73263308	-30.42979938
5.71	571	0.077	-0.032	-0.975	-0.9740286	2.86479	-0.9167328	1.65011904	4.76128098	-30.43552896
5.72	572	0.079	-0.038	-0.978	-0.9167328	2.1199446	-1.2032118	1.63865988	4.77846972	-30.44698812
5.73	573	0.077	-0.046	-0.983	-0.7448454	1.5469866	-1.2605076	1.6329303	4.79565846	-30.45844728
5.74	574	0.074	-0.05	-0.986	-0.572958	1.2605076	-1.2032118	1.62147114	4.8128472	-30.46990644
5.75	575	0.072	-0.047	-0.99	-0.286479	1.0313244	-0.859437	1.59855282	4.73263308	-30.4813656
5.76	576	0.069	-0.041	-0.994	-0.286479	0.9740286	-0.5156622	1.59282324	4.74409224	-30.48709518
5.77	577	0.071	-0.033	-0.993	-0.4583664	1.5469866	-0.2291832	1.58709366	4.76128098	-30.48709518
5.78	578	0.07	-0.027	-0.992	-0.7448454	1.6042824	-0.0572958	1.58136408	4.77846972	-30.48709518
5.79	579	0.073	-0.026	-0.992	-0.7448454	1.3750992	0	1.5756345	4.78992888	-30.48709518
5.8	580	0.078	-0.028	-0.999	-0.859437	1.6042824	0	1.49542038	4.76701056	-30.49282476
5.81	581	0.079	-0.026	-1.006	-0.8021412	1.5469866	0.0572958	1.4896908	4.7841993	-30.49282476
5.82	582	0.076	-0.024	-1.001	-0.5156622	1.145916	0.1145916	1.48396122	4.79565846	-30.48709518
5.83	583	0.073	-0.024	-0.992	0.1145916	0.859437	0.2291832	1.48396122	4.80138804	-30.48709518
5.84	584	0.07	-0.022	-0.988	0.6875496	0.5156622	0.3437748	1.49542038	4.80711762	-30.4813656
5.85	585	0.067	-0.023	-0.993	1.0313244	-0.0572958	0.286479	1.38082878	4.69252602	-30.49282476
5.86	586	0.067	-0.018	-0.998	1.6615782	0.6302538	0.1718874	1.39801752	4.6982556	-30.49282476
5.87	587	0.068	-0.016	-1.006	2.8074942	2.2345362	0.1718874	1.42666542	4.72117392	-30.48709518
5.88	588	0.071	-0.021	-1.008	3.0939732	3.3804522	0.0572958	1.4610429	4.7555514	-30.48709518
5.89	589	0.074	-0.023	-1.007	2.6356068	3.437748	0.0572958	1.48396122	4.7841993	-30.4813656
5.9	590	0.077	-0.02	-0.998	2.6356068	2.5210152	0.1718874	1.46677248	4.78992888	-30.48709518
5.91	591	0.079	-0.015	-0.981	3.724227	1.4896908	0.4583664	1.50687954	4.80711762	-30.4813656
5.92	592	0.079	-0.019	-0.97	4.7555514	0.4010706	0.5156622	1.55271618	4.8128472	-30.47563602
5.93	593	0.078	-0.022	-0.969	4.3544808	-0.1718874	0.4583664	1.59855282	4.80711762	-30.46990644
5.94	594	0.076	-0.025	-0.973	3.3804522	-0.1145916	0.4010706	1.6329303	4.80711762	-30.46417686
5.95	595	0.074	-0.025	-0.976	3.151269	0.3437748	0.3437748	1.62720072	4.77846972	-30.46417686
5.96	596	0.072	-0.032	-0.975	3.9534102	1.3750992	0.3437748	1.67303736	4.79565846	-30.46417686
5.97	597	0.075	-0.042	-0.978	3.9534102	2.4064236	0.2291832	1.71314442	4.81857678	-30.45844728
5.98	598	0.078	-0.042	-0.98	4.010706	3.2658606	0.1718874	1.75325148	4.85295426	-30.4527177
5.99	599	0.082	-0.038	-0.98	5.0993262	4.297185	0.4583664	1.8048177	4.89306132	-30.44698812
6	600	0.083	-0.041	-0.979	5.7868758	4.8128472	0.6302538	1.85638392	4.93316838	-30.44125854
6.01	601	0.079	-0.045	-0.974	4.9847346	4.7555514	0.572958	1.90795014	4.97900502	-30.42979938
6.02	602	0.079	-0.048	-0.974	3.5523396	4.1825934	0.2291832	1.94232762	5.02484166	-30.4240698
6.03	603	0.079	-0.048	-0.983	2.4637194	3.437748	0	1.96524594	5.05921914	-30.4240698
6.04	604	0.081	-0.048	-0.986	1.5469866	2.4637194	-0.1718874	1.98243468	5.08213746	-30.4240698
6.05	605	0.081	-0.047	-0.984	0.7448454	1.5469866	-0.4010706	1.96524594	5.04775998	-30.42979938
6.06	606	0.08	-0.048	-0.982	0.4583664	1.145916	-0.5156622	1.97097552	5.05921914	-30.43552896
6.07	607	0.081	-0.046	-0.984	0.2291832	0.6875496	-0.3437748	1.97097552	5.0706783	-30.44125854
6.08	608	0.082	-0.045	-0.988	-0.286479	0.2291832	-0.2291832	1.97097552	5.0706783	-30.44125854
6.09	609	0.082	-0.044	-0.989	-0.6875496	-0.1718874	0	1.95951636	5.0706783	-30.44125854
6.1	610	0.081	-0.045	-0.994	-0.6875496	-0.6302538	0.0572958	1.90222056	4.99046418	-30.44698812
6.11	611	0.079	-0.041	-0.993	-0.9167328	-0.6302538	0.2291832	1.89649098	4.9847346	-30.44698812
6.12	612	0.078	-0.033	-0.99	-0.6875496	-0.4583664	0.4583664	1.88503182	4.97900502	-30.44125854
6.13	613	0.076	-0.029	-0.994	0.1145916	-0.1145916	0.5156622	1.8907614	4.97900502	-30.43552896
6.14	614	0.073	-0.028	-1	0.3437748	0.1145916	0.4010706	1.8907614	4.97900502	-30.42979938
6.15	615	0.071	-0.028	-0.998	0.1145916	-0.0572958	0.1718874	1.55271618	4.67533728	-30.46417686
6.16	616	0.072	-0.028	-0.99	0.2291832	-0.1718874	0.1145916	1.55271618	4.67533728	-30.46417686
6.17	617	0.072	-0.029	-0.987	0.6302538	0	0.2291832	1.55844576	4.67533728	-30.46417686
6.18	618	0.074	-0.033	-0.988	0.6302538	0.3437748	0.2291832	1.56990492	4.68106686	-30.45844728
6.19	619	0.078	-0.036	-0.988	0	0.6302538	0.286479	1.56990492	4.68679644	-30.45844728
6.2	620	0.08	-0.034	-0.991	-0.0572958	0.8021412	0.4010706	1.51260912	4.66387812	-30.45844728
6.21	621	0.083	-0.036	-0.988	0.2291832	1.145916	0.4010706	1.51260912	4.67533728	-30.4527177
6.22	622	0.084	-0.038	-0.984	0	1.3750992	0.2291832	1.51260912	4.68679644	-30.44698812
6.23	623	0.085	-0.036	-0.987	-0.2291832	1.3750992	0.0572958	1.51260912	4.70398518	-30.44698812
6.24	624	0.087	-0.034	-0.992	0.1145916	1.145916	0	1.51260912	4.71544434	-30.44698812
6.25	625	0.089	-0.033	-0.987	0.5156622	0.5156622	0	1.41520626	4.7269035	-30.4527177
6.26	626	0.09	-0.036	-0.982	0.4583664	-0.0572958	0	1.42093584	4.7269035	-30.4527177
6.27	627	0.091	-0.039	-0.979	0.2291832	-0.2291832	-0.0572958	1.42093584	4.7269035	-30.45844728
6.28	628	0.09	-0.041	-0.989	0.1718874	-0.3437748	-0.0572958	1.42093584	4.72117392	-30.45844728
6.29	629	0.089	-0.043	-0.999	-0.0572958	-0.1718874	-0.1718874	1.42093584	4.72117392	-30.45844728
6.3	630	0.087	-0.044	-0.997	-0.2291832	-0.1718874	-0.1718874	1.41520626	4.6982556	-30.46417686
6.31	631	0.088	-0.044	-0.991	-0.1718874	-0.6302538	-0.1145916	1.41520626	4.69252602	-30.46417686
6.32	632	0.088	-0.046	-0.99	-0.1718874	-1.0886202	-0.1145916	1.40947668	4.68106686	-30.46417686
6.33	633	0.088	-0.046	-0.987	-0.286479	-1.432395	-0.0572958	1.40947668	4.66387812	-30.46990644
6.34	634	0.088	-0.043	-0.986	-0.4583664	-1.8907614	-0.0572958	1.4037471	4.64668938	-30.46990644
6.35	635	0.087	-0.039	-0.984	-0.3437748	-2.005353	-0.0572958	1.38655836	4.62377106	-30.47563602
6.36	636	0.087	-0.038	-0.982	-0.2291832	-1.718874	-0.1145916	1.38082878	4.60658232	-30.47563602
6.37	637	0.085	-0.038	-0.982	0	-1.2605076	-0.0572958	1.38082878	4.59512316	-30.47563602
6.38	638	0.084	-0.037	-0.982	0.1718874	-0.8021412	-0.1145916	1.38082878	4.58939358	-30.47563602
6.39	639	0.08	-0.035	-0.984	0.286479	-0.8021412	0	1.38655836	4.57793442	-30.4813656
6.4	640	0.08	-0.035	-0.985	0.859437	-0.5156622	0	1.35791046	4.54928652	-30.4813656
6.41	641	0.081	-0.036	-0.986	1.0313244	-0.5156622	0.0572958	1.36936962	4.54355694	-30.4813656
6.42	642	0.08	-0.037	-0.987	1.0313244	-0.7448454	0.1145916	1.38082878	4.53782736	-30.4813656
6.43	643	0.081	-0.038	-0.99	1.0886202	-1.0886202	0.1718874	1.39228794	4.5263682	-30.4813656
6.44	644	0.079	-0.037	-0.995	0.6875496	-1.3750992	0.1145916	1.39801752	4.50917946	-30.4813656
6.45	645	0.078	-0.038	-0.995	0.4583664	-1.6615782	0.1145916	1.38082878	4.4690724	-30.4813656
6.46	646	0.077	-0.036	-0.993	0.4010706	-1.3178034	0	1.38655836	4.45761324	-30.4813656
6.47	647	0.079	-0.038	-0.988	0.286479	-1.145916	-0.0572958	1.38655836	4.44615408	-30.4813656
6.48	648	0.08	-0.039	-0.984	0.0572958	-1.2605076	-0.1718874	1.39228794	4.43469492	-30.48709518
6.49	649	0.081	-0.038	-0.984	0	-1.2605076	-0.1718874	1.38655836	4.41750618	-30.48709518
6.5	650	0.08	-0.037	-0.983	-0.0572958	-1.145916	-0.1145916	1.36364004	4.39458786	-30.49282476
6.51	651	0.08	-0.037	-0.984	-0.2291832	-0.859437	0	1.35791046	4.38885828	-30.49282476
6.52	652	0.078	-0.036	-0.984	0.0572958	-0.6302538	0	1.35791046	4.3831287	-30.49282476
6.53	653	0.076	-0.036	-0.986	0.3437748	-0.572958	-0.0572958	1.36364004	4.37739912	-30.49855434
6.54	654	0.075	-0.037	-0.988	0.1718874	-0.572958	-0.1718874	1.36364004	4.37166954	-30.49855434
6.55	655	0.075	-0.037	-0.991	0.1145916	-0.572958	-0.1718874	1.33499214	4.32010332	-30.50428392
6.56	656	0.075	-0.039	-0.994	0.4010706	-0.572958	-0.1718874	1.33499214	4.31437374	-30.50428392
6.57	657	0.075	-0.041	-0.993	0.5156622	-0.6302538	-0.1718874	1.34072172	4.30864416	-30.5100135
6.58	658	0.076	-0.041	-0.992	0.6302538	-0.7448454	-0.1145916	1.35218088	4.30291458	-30.5100135
6.59	659	0.075	-0.042	-0.989	0.4583664	-0.4583664	0	1.35218088	4.297185	-30.5100135
6.6	660	0.075	-0.042	-0.992	0.7448454	-0.1718874	0.1145916	1.36364004	4.26280752	-30.5100135
6.61	661	0.073	-0.046	-0.988	0.6875496	0	0.1718874	1.36936962	4.26280752	-30.5100135
6.62	662	0.073	-0.046	-0.983	-0.0572958	0.5156622	0.1145916	1.36936962	4.2685371	-30.5100135
6.63	663	0.073	-0.042	-0.981	-0.4010706	0.4010706	0	1.36364004	4.2685371	-30.50428392
6.64	664	0.075	-0.04	-0.981	-0.3437748	0.286479	0	1.35791046	4.27426668	-30.50428392
6.65	665	0.073	-0.04	-0.982	-0.3437748	0.1145916	0.1718874	1.3178034	4.22843004	-30.5100135
6.66	666	0.071	-0.038	-0.986	-0.1718874	0.3437748	0.1718874	1.31207382	4.22843004	-30.50428392
6.67	667	0.07	-0.038	-0.989	-0.0572958	0.572958	0	1.31207382	4.23415962	-30.50428392
6.68	668	0.074	-0.039	-0.99	0.0572958	0.2291832	-0.2291832	1.31207382	4.2398892	-30.5100135
6.69	669	0.079	-0.043	-0.988	0.2291832	-0.0572958	-0.1718874	1.3178034	4.2398892	-30.5100135
6.7	670	0.082	-0.045	-0.989	0.1145916	-0.5156622	0	1.33499214	4.2398892	-30.5100135
6.71	671	0.083	-0.041	-0.989	0.1145916	-0.6302538	0.0572958	1.34072172	4.23415962	-30.5100135
6.72	672	0.085	-0.035	-0.992	0.3437748	-0.2291832	0.2291832	1.34072172	4.22843004	-30.5100135
6.73	673	0.081	-0.034	-0.992	0.4010706	0	0.3437748	1.3464513	4.22843004	-30.50428392
6.74	674	0.077	-0.035	-0.993	0.286479	0	0.1718874	1.35218088	4.22843004	-30.50428392
6.75	675	0.072	-0.038	-0.99	0.6302538	-0.1718874	0	1.33499214	4.19405256	-30.50428392
6.76	676	0.073	-0.038	-0.988	0.6302538	0	-0.0572958	1.34072172	4.19405256	-30.50428392
6.77	677	0.076	-0.038	-0.984	0.5156622	0.1718874	-0.1145916	1.3464513	4.19405256	-30.5100135
6.78	678	0.079	-0.036	-0.985	0.4010706	0.286479	-0.1145916	1.3464513	4.19978214	-30.5100135
6.79	679	0.082	-0.035	-0.984	0.3437748	0.1145916	0	1.35218088	4.19978214	-30.5100135
6.8	680	0.083	-0.034	-0.986	0.2291832	0	0.1718874	1.2891555	4.2112413	-30.5100135
6.81	681	0.082	-0.035	-0.988	0.3437748	-0.2291832	0.2291832	1.29488508	4.2112413	-30.5100135
6.82	682	0.079	-0.037	-0.987	0.286479	-0.2291832	0.2291832	1.29488508	4.20551172	-30.50428392
6.83	683	0.077	-0.041	-0.988	0.1718874	-0.1145916	0	1.29488508	4.20551172	-30.50428392
6.84	684	0.078	-0.04	-0.986	0.3437748	0	0	1.30061466	4.20551172	-30.5100135
6.85	685	0.078	-0.043	-0.985	0.5156622	0	0	1.3178034	4.19405256	-30.50428392
6.86	686	0.08	-0.045	-0.983	0.4583664	-0.0572958	0	1.32353298	4.19405256	-30.5100135
6.87	687	0.082	-0.044	-0.985	0.286479	-0.0572958	0	1.32926256	4.19405256	-30.5100135
6.88	688	0.082	-0.044	-0.986	0.286479	-0.1718874	0	1.32926256	4.18832298	-30.5100135
6.89	689	0.079	-0.042	-0.988	0.286479	0.1718874	0	1.33499214	4.19405256	-30.5100135
6.9	690	0.076	-0.039	-0.99	0.572958	0.5156622	0	1.32353298	4.17686382	-30.5100135
6.91	691	0.071	-0.039	-0.988	0.6875496	0.6875496	0.0572958	1.32926256	4.18832298	-30.5100135
6.92	692	0.071	-0.042	-0.989	0.0572958	0.9740286	-0.1718874	1.32926256	4.19405256	-30.5100135
6.93	693	0.071	-0.043	-0.99	-0.1718874	1.2032118	-0.2291832	1.32926256	4.2112413	-30.5100135
6.94	694	0.072	-0.045	-0.989	-0.2291832	1.4896908	-0.1145916	1.32926256	4.22270046	-30.5100135
6.95	695	0.073	-0.044	-0.987	0	1.2032118	-0.0572958	1.32926256	4.2112413	-30.5100135
6.96	696	0.075	-0.043	-0.985	-0.2291832	0.6302538	0	1.32353298	4.21697088	-30.5100135
6.97	697	0.078	-0.039	-0.982	-0.286479	0	0.0572958	1.32353298	4.21697088	-30.5100135
6.98	698	0.08	-0.039	-0.986	-0.1718874	-0.572958	0.1145916	1.3178034	4.2112413	-30.5100135
6.99	699	0.081	-0.041	-0.989	-0.1145916	-0.859437	0.1145916	1.3178034	4.19978214	-30.5100135
7	700	0.079	-0.044	-0.989	0	-0.859437	-0.0572958	1.32926256	4.18832298	-30.5100135
7.01	701	0.079	-0.044	-0.989	-0.1145916	-0.8021412	-0.1145916	1.32926256	4.17686382	-30.5100135
7.02	702	0.08	-0.043	-0.991	-0.1718874	-0.572958	-0.1145916	1.32926256	4.17113424	-30.51574308
7.03	703	0.082	-0.041	-0.989	-0.3437748	-0.4010706	-0.0572958	1.32353298	4.17113424	-30.51574308
7.04	704	0.084	-0.04	-0.988	-0.6302538	-0.4583664	-0.0572958	1.3178034	4.16540466	-30.51574308
7.05	705	0.085	-0.039	-0.983	-0.7448454	-0.4583664	0	1.29488508	4.17686382	-30.51574308
7.06	706	0.083	-0.038	-0.982	-0.8021412	-0.5156622	0.1145916	1.28342592	4.17113424	-30.51574308
7.07	707	0.078	-0.037	-0.984	-0.6302538	-0.3437748	0.0572958	1.27769634	4.16540466	-30.51574308
7.08	708	0.078	-0.038	-0.985	-0.572958	0	-0.0572958	1.27196676	4.16540466	-30.51574308
7.09	709	0.077	-0.04	-0.987	-0.5156622	0	-0.1145916	1.26623718	4.16540466	-30.51574308
7.1	710	0.078	-0.042	-0.99	-0.4010706	0	-0.2291832	1.2605076	4.15967508	-30.52147266
7.11	711	0.079	-0.042	-0.992	-0.286479	0.1718874	-0.1718874	1.2605076	4.16540466	-30.52147266
7.12	712	0.082	-0.042	-0.99	-0.1718874	0.286479	-0.2291832	1.2605076	4.16540466	-30.52147266
7.13	713	0.084	-0.041	-0.988	-0.1718874	0.286479	-0.1718874	1.25477802	4.17113424	-30.52720224
7.14	714	0.085	-0.04	-0.988	-0.4010706	0.1145916	-0.1145916	1.24904844	4.17113424	-30.52720224
7.15	715	0.084	-0.038	-0.985	-0.5156622	0	-0.1718874	1.22040054	4.1825934	-30.52720224
7.16	716	0.081	-0.038	-0.984	-0.3437748	0.1145916	-0.1145916	1.22040054	4.18832298	-30.53293182
7.17	717	0.08	-0.039	-0.987	-0.2291832	0.1145916	-0.1718874	1.21467096	4.18832298	-30.53293182
7.18	718	0.077	-0.04	-0.989	-0.2291832	0.1145916	-0.1718874	1.21467096	4.18832298	-30.53293182
7.19	719	0.075	-0.041	-0.993	-0.2291832	0.1718874	-0.1145916	1.20894138	4.18832298	-30.5386614
7.2	720	0.075	-0.042	-0.993	-0.4583664	0	-0.1718874	1.19748222	4.17113424	-30.5386614
7.21	721	0.075	-0.04	-0.989	-0.6875496	0.1145916	-0.1145916	1.19175264	4.17686382	-30.5386614
7.22	722	0.074	-0.039	-0.988	-0.4010706	0.2291832	0	1.18602306	4.17686382	-30.5386614
7.23	723	0.073	-0.039	-0.987	-0.2291832	0.1718874	0	1.18602306	4.17686382	-30.5386614
7.24	724	0.073	-0.038	-0.987	-0.3437748	0.1718874	-0.0572958	1.18029348	4.1825934	-30.5386614
7.25	725	0.074	-0.04	-0.988	-0.3437748	0.1145916	-0.1718874	1.1745639	4.15967508	-30.54439098
7.26	726	0.076	-0.039	-0.986	-0.5156622	0.0572958	-0.2291832	1.16883432	4.16540466	-30.54439098
7.27	727	0.079	-0.04	-0.986	-0.572958	-0.1718874	0	1.16310474	4.15967508	-30.54439098
7.28	728	0.077	-0.039	-0.983	-0.6875496	-0.3437748	0.1145916	1.15737516	4.15967508	-30.54439098
7.29	729	0.075	-0.036	-0.984	-0.7448454	0	0	1.15164558	4.15967508	-30.54439098
7.3	730	0.075	-0.036	-0.984	-0.8021412	0.3437748	-0.286479	1.13445684	4.1539455	-30.55012056
7.31	731	0.081	-0.041	-0.98	-0.8021412	0.572958	-0.4583664	1.12299768	4.15967508	-30.55012056
7.32	732	0.083	-0.045	-0.98	-0.5156622	0.4010706	-0.3437748	1.1172681	4.16540466	-30.55585014
7.33	733	0.083	-0.047	-0.985	-0.6302538	0	-0.1718874	1.11153852	4.16540466	-30.55585014
7.34	734	0.085	-0.043	-0.99	-0.7448454	-0.286479	0.1145916	1.10580894	4.15967508	-30.55585014
7.35	735	0.086	-0.039	-0.994	-0.6875496	-0.3437748	0.286479	1.0886202	4.17113424	-30.55585014
7.36	736	0.082	-0.039	-0.995	-0.6875496	-0.2291832	0.286479	1.08289062	4.16540466	-30.55012056
7.37	737	0.078	-0.041	-0.996	0	-0.1718874	0.2291832	1.08289062	4.16540466	-30.55012056
7.38	738	0.075	-0.04	-0.994	0.3437748	-0.2291832	0.0572958	1.0886202	4.15967508	-30.55012056
7.39	739	0.076	-0.039	-0.99	0.3437748	-0.0572958	-0.0572958	1.0886202	4.15967508	-30.55012056
7.4	740	0.078	-0.037	-0.988	0.1718874	-0.1145916	-0.2291832	1.06570188	4.14821592	-30.55585014
7.41	741	0.081	-0.036	-0.984	0.0572958	-0.2291832	-0.2291832	1.06570188	4.14821592	-30.55585014
7.42	742	0.083	-0.034	-0.983	0.286479	-0.2291832	-0.0572958	1.06570188	4.14248634	-30.55585014
7.43	743	0.084	-0.033	-0.983	0.4010706	-0.2291832	0	1.07143146	4.14248634	-30.55585014
7.44	744	0.084	-0.034	-0.985	0.2291832	-0.286479	0	1.07716104	4.13675676	-30.55585014
7.45	745	0.082	-0.036	-0.985	0.1718874	-0.3437748	0	1.06570188	4.1539455	-30.55585014
7.46	746	0.081	-0.039	-0.987	0.1718874	-0.4010706	0	1.06570188	4.14821592	-30.56157972
7.47	747	0.081	-0.04	-0.989	0.1718874	-0.1145916	0	1.07143146	4.14821592	-30.55585014
7.48	748	0.08	-0.04	-0.99	0.1718874	0	0	1.07143146	4.14821592	-30.55585014
7.49	749	0.079	-0.038	-0.99	0.0572958	0	0	1.07143146	4.14821592	-30.55585014
7.5	750	0.08	-0.038	-0.99	0.0572958	-0.0572958	0	1.07143146	4.1539455	-30.56157972
7.51	751	0.08	-0.038	-0.991	0.2291832	-0.1718874	0	1.07716104	4.14821592	-30.56157972
7.52	752	0.079	-0.04	-0.991	0.0572958	-0.3437748	0	1.07716104	4.14821592	-30.56157972
7.53	753	0.079	-0.04	-0.991	0	-0.3437748	0	1.07716104	4.14248634	-30.56157972
7.54	754	0.076	-0.042	-0.989	0	-0.3437748	0	1.07716104	4.14248634	-30.56157972
7.55	755	0.076	-0.041	-0.989	-0.0572958	-0.1718874	0	1.10580894	4.10237928	-30.55585014
7.56	756	0.076	-0.042	-0.99	-0.0572958	-0.286479	0	1.10580894	4.0966497	-30.55585014
7.57	757	0.077	-0.043	-0.988	-0.2291832	-0.2291832	0	1.10580894	4.0966497	-30.55585014
7.58	758	0.078	-0.043	-0.987	-0.286479	-0.1718874	-0.0572958	1.10007936	4.09092012	-30.56157972
7.59	759	0.079	-0.042	-0.986	-0.3437748	-0.286479	0	1.09434978	4.09092012	-30.56157972
7.6	760	0.077	-0.041	-0.986	-0.4010706	-0.286479	0.0572958	1.09434978	4.08519054	-30.56157972
7.61	761	0.079	-0.037	-0.986	-0.4010706	-0.286479	0.1145916	1.0886202	4.07946096	-30.55585014
7.62	762	0.08	-0.036	-0.988	-0.2291832	-0.3437748	0.1145916	1.0886202	4.07946096	-30.55585014
7.63	763	0.078	-0.036	-0.99	-0.0572958	-0.4583664	0.1145916	1.0886202	4.07373138	-30.55585014
7.64	764	0.077	-0.037	-0.991	-0.2291832	-0.3437748	0.0572958	1.08289062	4.0680018	-30.55585014
7.65	765	0.076	-0.037	-0.99	-0.1145916	-0.2291832	0	1.06570188	4.04508348	-30.55585014
7.66	766	0.075	-0.036	-0.988	0	-0.1145916	-0.0572958	1.06570188	4.0393539	-30.55585014
7.67	767	0.077	-0.036	-0.985	0.2291832	0	-0.1145916	1.07143146	4.0393539	-30.56157972
7.68	768	0.078	-0.036	-0.985	0.1718874	0.1145916	-0.0572958	1.07143146	4.04508348	-30.56157972
7.69	769	0.08	-0.035	-0.985	0.1718874	0.0572958	0	1.07143146	4.04508348	-30.56157972
7.7	770	0.082	-0.036	-0.988	0.2291832	0	0.0572958	1.05424272	4.0680018	-30.56157972
7.71	771	0.082	-0.036	-0.989	0.4010706	-0.1718874	0	1.0599723	4.0680018	-30.56157972
7.72	772	0.081	-0.039	-0.989	0.4583664	-0.286479	-0.1145916	1.06570188	4.0680018	-30.56157972
7.73	773	0.081	-0.039	-0.987	0.4010706	-0.286479	-0.2291832	1.06570188	4.06227222	-30.5673093
7.74	774	0.08	-0.037	-0.988	0.286479	-0.1718874	-0.286479	1.07143146	4.06227222	-30.5673093
7.75	775	0.078	-0.036	-0.988	0.572958	0.0572958	-0.286479	1.06570188	4.06227222	-30.57303888
7.76	776	0.077	-0.034	-0.991	0.8021412	0.1145916	-0.1145916	1.07143146	4.06227222	-30.57303888
7.77	777	0.077	-0.035	-0.99	0.6302538	0.2291832	-0.1145916	1.08289062	4.0680018	-30.57303888
7.78	778	0.079	-0.034	-0.989	0.4583664	0.2291832	0	1.08289062	4.0680018	-30.57303888
7.79	779	0.078	-0.035	-0.992	0.6875496	0.3437748	0.0572958	1.09434978	4.07373138	-30.57303888
7.8	780	0.078	-0.036	-0.991	0.572958	0.1718874	0	1.0886202	4.07373138	-30.57303888
7.81	781	0.079	-0.037	-0.991	0.4583664	0.286479	0.0572958	1.09434978	4.07946096	-30.57303888
7.82	782	0.079	-0.04	-0.988	0.5156622	0.3437748	0	1.10007936	4.07946096	-30.57303888
7.83	783	0.078	-0.042	-0.985	0.6302538	0.1145916	0	1.10580894	4.08519054	-30.57303888
7.84	784	0.078	-0.042	-0.985	0.6875496	0.1145916	0	1.11153852	4.08519054	-30.57303888
