TimeStamp(s)	FrameCounter	AccX	AccY	AccZ	GyrX	GyrY	GyrZ	EulerX	EulerY	EulerZ
0.01	1	-0.036	-1.006	0.007	0	0.4583664	-0.0572958	89.02621404	-1.8621135	-20.6551359
0.02	2	-0.036	-1.008	0.008	0	0.572958	-0.286479	89.02621404	-1.8621135	-20.64940632
0.03	3	-0.035	-1.009	0.009	0	0.4010706	-0.286479	89.02621404	-1.85638392	-20.64940632
0.04	4	-0.035	-1.008	0.007	0	0.3437748	-0.3437748	89.02621404	-1.85065434	-20.64367674
0.05	5	-0.035	-1.007	0.009	0.0572958	0.4010706	-0.4010706	89.0376732	-1.84492476	-20.64367674
0.06	6	-0.033	-1.007	0.007	-0.0572958	0.6875496	-0.3437748	89.0376732	-1.83919518	-20.63794716
0.07	7	-0.032	-1.007	0.007	-0.0572958	0.6875496	-0.286479	89.0376732	-1.8334656	-20.626488
0.08	8	-0.033	-1.006	0.01	-0.0572958	0.4583664	-0.2291832	89.0376732	-1.8334656	-20.626488
0.09	9	-0.034	-1.008	0.01	-0.1145916	0.2291832	-0.286479	89.0376732	-1.82773602	-20.62075842
0.1	10	-0.035	-1.008	0.009	-0.1718874	0.4010706	-0.286479	89.04340278	-1.82200644	-20.62075842
0.11	11	-0.035	-1.006	0.008	-0.1145916	0.572958	-0.3437748	89.0376732	-1.81627686	-20.61502884
0.12	12	-0.034	-1.006	0.007	0	0.7448454	-0.4010706	89.0376732	-1.81054728	-20.60356968
0.13	13	-0.033	-1.007	0.007	0	0.9740286	-0.5156622	89.0376732	-1.81054728	-20.5978401
0.14	14	-0.035	-1.008	0.009	0	0.5156622	-0.4010706	89.0376732	-1.8048177	-20.59211052
0.15	15	-0.036	-1.008	0.007	0	0.572958	-0.4010706	89.04340278	-1.79908812	-20.58638094
0.16	16	-0.036	-1.007	0.008	0	0.572958	-0.4583664	89.0376732	-1.79335854	-20.58065136
0.17	17	-0.031	-1.01	0.009	0	0.7448454	-0.3437748	89.0376732	-1.79335854	-20.5691922
0.18	18	-0.029	-1.01	0.008	0	0.6302538	-0.2291832	89.0376732	-1.78762896	-20.56346262
0.19	19	-0.028	-1.006	0.009	-0.1145916	0.3437748	-0.1718874	89.0376732	-1.78762896	-20.56346262
0.2	20	-0.031	-1.008	0.01	-0.2291832	0.1145916	-0.2291832	89.05486194	-1.77044022	-20.56346262
0.21	21	-0.033	-1.009	0.009	-0.4010706	0.1718874	-0.4010706	89.04913236	-1.76471064	-20.56346262
0.22	22	-0.035	-1.01	0.007	-0.1718874	0.7448454	-0.4010706	89.04913236	-1.76471064	-20.55773304
0.23	23	-0.033	-1.01	0.009	-0.1718874	1.0886202	-0.4010706	89.04340278	-1.75898106	-20.54627388
0.24	24	-0.033	-1.012	0.01	-0.0572958	0.286479	0	89.04340278	-1.75898106	-20.5405443
0.25	25	-0.03	-1.011	0.01	-0.0572958	-0.0572958	0.1145916	89.07205068	-1.73033316	-20.55200346
0.26	26	-0.028	-1.008	0.01	-0.1718874	-0.2291832	0.1718874	89.07205068	-1.73033316	-20.55773304
0.27	27	-0.025	-1.007	0.007	-0.3437748	0.1145916	0.0572958	89.0663211	-1.73033316	-20.55773304
0.28	28	-0.027	-1.005	0.008	-0.4010706	0.286479	0	89.06059152	-1.73033316	-20.55200346
0.29	29	-0.031	-1.005	0.008	-0.286479	0.2291832	-0.1145916	89.06059152	-1.73033316	-20.55200346
0.3	30	-0.033	-1.005	0.01	-0.1145916	0.1718874	-0.1718874	89.0663211	-1.72460358	-20.55200346
0.31	31	-0.034	-1.004	0.009	0	0.1145916	-0.0572958	89.0663211	-1.72460358	-20.54627388
0.32	32	-0.033	-1.004	0.007	0	0.2291832	-0.0572958	89.0663211	-1.718874	-20.54627388
0.33	33	-0.033	-1.005	0.007	0.1145916	0.2291832	0	89.07205068	-1.718874	-20.5405443
0.34	34	-0.03	-1.007	0.01	0	0	0.1145916	89.07205068	-1.72460358	-20.5405443
0.35	35	-0.03	-1.007	0.009	0.0572958	-0.1145916	0	89.08350984	-1.69595568	-20.55200346
0.36	36	-0.031	-1.006	0.008	0	-0.1718874	0.0572958	89.08350984	-1.69595568	-20.55200346
0.37	37	-0.031	-1.007	0.006	0	-0.4010706	0.0572958	89.08350984	-1.69595568	-20.55773304
0.38	38	-0.032	-1.009	0.006	0	-0.2291832	0.0572958	89.08350984	-1.69595568	-20.55773304
0.39	39	-0.032	-1.008	0.007	0	-0.0572958	0.0572958	89.08350984	-1.69595568	-20.56346262
0.4	40	-0.031	-1.009	0.007	0	-0.1145916	0.0572958	89.094969	-1.68449652	-20.5691922
0.41	41	-0.031	-1.011	0.008	0	-0.1718874	0.1718874	89.094969	-1.6902261	-20.5691922
0.42	42	-0.031	-1.011	0.007	0.1718874	-0.3437748	0.3437748	89.094969	-1.6902261	-20.57492178
0.43	43	-0.033	-1.008	0.007	0.0572958	-0.286479	0.286479	89.094969	-1.69595568	-20.57492178
0.44	44	-0.033	-1.007	0.007	0.0572958	-0.286479	0.1718874	89.094969	-1.69595568	-20.58065136
0.45	45	-0.033	-1.008	0.007	0	0.0572958	0.0572958	89.10069858	-1.69595568	-20.58065136
0.46	46	-0.034	-1.008	0.006	0.1718874	0.286479	0.1145916	89.10642816	-1.69595568	-20.57492178
0.47	47	-0.034	-1.011	0.007	0.0572958	0.286479	0.1718874	89.10642816	-1.69595568	-20.57492178
0.48	48	-0.033	-1.01	0.006	0.0572958	0.1145916	0.2291832	89.10642816	-1.70168526	-20.5691922
0.49	49	-0.032	-1.009	0.006	0.0572958	-0.0572958	0.2291832	89.10642816	-1.70168526	-20.5691922
0.5	50	-0.029	-1.008	0.005	0	-0.1718874	0.286479	89.10069858	-1.68449652	-20.57492178
0.51	51	-0.027	-1.008	0.006	-0.0572958	-0.0572958	0.286479	89.094969	-1.6902261	-20.58065136
0.52	52	-0.03	-1.008	0.006	-0.0572958	-0.1145916	0.286479	89.094969	-1.6902261	-20.58065136
0.53	53	-0.032	-1.009	0.008	0	-0.286479	0.3437748	89.094969	-1.69595568	-20.58065136
0.54	54	-0.031	-1.007	0.008	-0.0572958	-0.2291832	0.286479	89.094969	-1.69595568	-20.58638094
0.55	55	-0.031	-1.006	0.008	0	-0.1145916	0.1145916	89.10642816	-1.67876694	-20.59211052
0.56	56	-0.029	-1.005	0.009	0.0572958	-0.1718874	0.1145916	89.10642816	-1.68449652	-20.59211052
0.57	57	-0.029	-1.006	0.011	0	-0.1145916	0.0572958	89.10642816	-1.68449652	-20.5978401
0.58	58	-0.028	-1.005	0.01	0.0572958	-0.1718874	0.1718874	89.10642816	-1.68449652	-20.5978401
0.59	59	-0.029	-1.005	0.008	0.1718874	-0.286479	0.2291832	89.11215774	-1.68449652	-20.5978401
0.6	60	-0.03	-1.006	0.007	0.1718874	-0.1718874	0.286479	89.11215774	-1.67876694	-20.60356968
0.61	61	-0.031	-1.007	0.008	0.1718874	-0.1718874	0.2291832	89.11788732	-1.68449652	-20.60929926
0.62	62	-0.032	-1.005	0.008	0.286479	-0.1718874	0.2291832	89.11788732	-1.68449652	-20.60929926
0.63	63	-0.033	-1.006	0.007	0.4010706	-0.1718874	0.1718874	89.1236169	-1.6902261	-20.60929926
0.64	64	-0.033	-1.007	0.007	0.4010706	-0.0572958	0.1718874	89.12934648	-1.6902261	-20.60929926
0.65	65	-0.032	-1.007	0.01	0.2291832	0	0.0572958	89.14080564	-1.67303736	-20.61502884
0.66	66	-0.032	-1.008	0.008	0.1718874	0.2291832	0.1145916	89.14080564	-1.67876694	-20.61502884
0.67	67	-0.032	-1.008	0.007	0.2291832	0.1718874	0.1145916	89.14653522	-1.67876694	-20.60929926
0.68	68	-0.031	-1.007	0.008	0.1718874	0.2291832	0.1145916	89.14653522	-1.67876694	-20.60929926
0.69	69	-0.032	-1.008	0.008	0.1718874	0.1718874	0.0572958	89.14653522	-1.67876694	-20.60356968
0.7	70	-0.035	-1.007	0.008	0.2291832	0	0	89.14653522	-1.6902261	-20.60356968
0.71	71	-0.035	-1.007	0.006	0.2291832	-0.0572958	-0.1145916	89.1522648	-1.6902261	-20.60356968
0.72	72	-0.033	-1.008	0.006	0.1145916	0	-0.1145916	89.1522648	-1.68449652	-20.60356968
0.73	73	-0.032	-1.009	0.007	0	0	-0.1718874	89.1522648	-1.68449652	-20.60356968
0.74	74	-0.029	-1.008	0.011	0	-0.1718874	-0.1718874	89.1522648	-1.68449652	-20.60356968
0.75	75	-0.03	-1.007	0.009	-0.0572958	-0.5156622	-0.1718874	89.1522648	-1.67303736	-20.61502884
0.76	76	-0.031	-1.008	0.008	-0.0572958	-0.7448454	-0.1145916	89.1522648	-1.67303736	-20.62075842
0.77	77	-0.03	-1.009	0.007	-0.1145916	-0.6875496	-0.1145916	89.1522648	-1.67303736	-20.626488
0.78	78	-0.031	-1.008	0.007	-0.1718874	-0.4583664	-0.1145916	89.1522648	-1.66730778	-20.63221758
0.79	79	-0.032	-1.008	0.007	-0.286479	-0.1145916	-0.1145916	89.14653522	-1.66730778	-20.63221758
0.8	80	-0.03	-1.008	0.005	-0.286479	0.0572958	-0.1145916	89.14080564	-1.65584862	-20.63221758
0.81	81	-0.031	-1.009	0.007	-0.3437748	0	-0.1145916	89.13507606	-1.65584862	-20.63221758
0.82	82	-0.034	-1.009	0.008	-0.3437748	0	-0.0572958	89.12934648	-1.65011904	-20.63221758
0.83	83	-0.033	-1.009	0.007	-0.3437748	0.1718874	-0.0572958	89.12934648	-1.65011904	-20.63221758
0.84	84	-0.03	-1.008	0.006	-0.286479	0.0572958	-0.0572958	89.1236169	-1.65011904	-20.63221758
0.85	85	-0.029	-1.006	0.006	-0.286479	-0.1718874	0.1145916	89.1236169	-1.63865988	-20.63794716
0.86	86	-0.03	-1.004	0.006	-0.3437748	-0.2291832	0.1145916	89.11788732	-1.64438946	-20.63794716
0.87	87	-0.032	-1.003	0.006	-0.3437748	-0.1718874	0	89.11215774	-1.64438946	-20.64367674
0.88	88	-0.034	-1.005	0.007	-0.2291832	-0.1145916	0	89.11215774	-1.64438946	-20.64367674
0.89	89	-0.033	-1.005	0.006	0	-0.1718874	0.0572958	89.11215774	-1.64438946	-20.64367674
0.9	90	-0.031	-1.008	0.004	0	-0.1145916	0.2291832	89.10069858	-1.6329303	-20.64940632
0.91	91	-0.03	-1.008	0.006	0	-0.0572958	0.286479	89.10069858	-1.6329303	-20.64940632
0.92	92	-0.029	-1.009	0.008	0	-0.1145916	0.4010706	89.10069858	-1.63865988	-20.64940632
0.93	93	-0.027	-1.009	0.006	0	-0.286479	0.5156622	89.10069858	-1.64438946	-20.6551359
0.94	94	-0.025	-1.008	0.007	-0.0572958	-0.1718874	0.5156622	89.094969	-1.65011904	-20.6551359
0.95	95	-0.026	-1.006	0.005	-0.0572958	0	0.4010706	89.094969	-1.6329303	-20.66086548
0.96	96	-0.029	-1.007	0.005	0	0	0.286479	89.094969	-1.63865988	-20.66086548
0.97	97	-0.031	-1.007	0.007	0	0.0572958	0.286479	89.094969	-1.63865988	-20.66086548
0.98	98	-0.031	-1.006	0.004	0.1145916	0	0.2291832	89.094969	-1.64438946	-20.66086548
0.99	99	-0.03	-1.006	0.005	0.1718874	-0.1718874	0.2291832	89.10069858	-1.64438946	-20.66086548
1	100	-0.03	-1.005	0.005	0.1718874	-0.2291832	0.286479	89.094969	-1.64438946	-20.66086548
1.01	101	-0.034	-1.002	0.003	0.3437748	-0.286479	0.286479	89.10069858	-1.64438946	-20.66659506
1.02	102	-0.036	-1.003	0.003	0.5156622	-0.5156622	0.1145916	89.10642816	-1.65011904	-20.67232464
1.03	103	-0.038	-1.006	0.003	0.4583664	-0.4010706	-0.0572958	89.11215774	-1.64438946	-20.67232464
1.04	104	-0.036	-1.009	0.004	0.286479	-0.1145916	-0.2291832	89.11215774	-1.64438946	-20.67805422
1.05	105	-0.032	-1.012	0.006	0.286479	0	-0.3437748	89.11788732	-1.63865988	-20.67805422
1.06	106	-0.03	-1.011	0.007	0.2291832	0	-0.3437748	89.11788732	-1.6329303	-20.67805422
1.07	107	-0.028	-1.011	0.006	0.286479	-0.1718874	-0.1718874	89.1236169	-1.6329303	-20.67805422
1.08	108	-0.027	-1.011	0.005	0.286479	-0.286479	0	89.1236169	-1.62720072	-20.6837838
1.09	109	-0.028	-1.008	0.006	0.3437748	-0.5156622	0	89.12934648	-1.6329303	-20.68951338
1.1	110	-0.03	-1.006	0.007	0.4010706	-0.4583664	0	89.13507606	-1.62720072	-20.69524296
1.11	111	-0.033	-1.008	0.007	0.286479	-0.286479	-0.1718874	89.14080564	-1.62147114	-20.69524296
1.12	112	-0.035	-1.006	0.006	0.286479	0	-0.286479	89.14653522	-1.62147114	-20.69524296
1.13	113	-0.035	-1.007	0.006	0.4010706	0.286479	-0.2291832	89.14653522	-1.61574156	-20.69524296
1.14	114	-0.034	-1.009	0.009	0.286479	0.6302538	-0.1718874	89.1522648	-1.61574156	-20.6837838
1.15	115	-0.033	-1.009	0.009	0.286479	0.6302538	-0.0572958	89.15799438	-1.61001198	-20.67805422
1.16	116	-0.03	-1.009	0.008	0.0572958	0.5156622	0.0572958	89.15799438	-1.61001198	-20.67805422
1.17	117	-0.028	-1.006	0.009	-0.1145916	0.3437748	0.1718874	89.15799438	-1.61574156	-20.67232464
1.18	118	-0.03	-1.007	0.008	-0.0572958	0.1718874	0.3437748	89.1522648	-1.61574156	-20.67232464
1.19	119	-0.033	-1.007	0.007	0	0.1718874	0.3437748	89.1522648	-1.62147114	-20.66659506
1.2	120	-0.034	-1.008	0.006	0	0.1718874	0.286479	89.1522648	-1.62720072	-20.66659506
1.21	121	-0.033	-1.007	0.007	0.1145916	0.2291832	0.286479	89.1522648	-1.62720072	-20.66086548
1.22	122	-0.031	-1.007	0.007	0.1145916	0.286479	0.286479	89.15799438	-1.6329303	-20.66086548
1.23	123	-0.029	-1.008	0.007	0.1718874	0.2291832	0.3437748	89.15799438	-1.63865988	-20.6551359
1.24	124	-0.028	-1.008	0.008	0.1718874	0.1718874	0.4010706	89.15799438	-1.63865988	-20.6551359
1.25	125	-0.03	-1.008	0.008	0.1718874	0.1718874	0.5156622	89.16372396	-1.63865988	-20.6551359
1.26	126	-0.03	-1.009	0.009	0.0572958	0.1145916	0.572958	89.16372396	-1.64438946	-20.6551359
1.27	127	-0.029	-1.009	0.008	0	0.1145916	0.5156622	89.16372396	-1.65011904	-20.64940632
1.28	128	-0.029	-1.008	0.009	-0.1145916	0.0572958	0.4010706	89.16372396	-1.65584862	-20.64940632
1.29	129	-0.03	-1.007	0.007	-0.0572958	0.0572958	0.3437748	89.15799438	-1.65584862	-20.64940632
1.3	130	-0.032	-1.007	0.006	0	0	0.286479	89.1522648	-1.6615782	-20.64940632
1.31	131	-0.032	-1.008	0.008	0	0	0.1718874	89.1522648	-1.6615782	-20.64940632
1.32	132	-0.032	-1.009	0.009	-0.0572958	0.0572958	0.1145916	89.1522648	-1.6615782	-20.64940632
1.33	133	-0.033	-1.009	0.009	0	-0.0572958	0.1145916	89.1522648	-1.66730778	-20.64940632
1.34	134	-0.034	-1.008	0.01	0	-0.1718874	0.0572958	89.1522648	-1.66730778	-20.64940632
1.35	135	-0.036	-1.009	0.012	-0.2291832	-0.0572958	0.1718874	89.16372396	-1.67303736	-20.64940632
1.36	136	-0.035	-1.01	0.01	-0.3437748	0	0.2291832	89.16372396	-1.67876694	-20.64940632
1.37	137	-0.034	-1.009	0.008	-0.3437748	0	0.1718874	89.15799438	-1.67876694	-20.64940632
1.38	138	-0.034	-1.008	0.006	-0.4010706	0	0.1718874	89.1522648	-1.67876694	-20.64940632
1.39	139	-0.036	-1.008	0.007	-0.4010706	0.0572958	0.0572958	89.14653522	-1.67876694	-20.64940632
1.4	140	-0.036	-1.009	0.006	-0.286479	0.0572958	-0.0572958	89.14653522	-1.68449652	-20.64940632
1.41	141	-0.035	-1.009	0.006	-0.4010706	0.2291832	-0.1145916	89.14080564	-1.68449652	-20.64367674
1.42	142	-0.036	-1.007	0.005	-0.286479	0.286479	-0.1718874	89.13507606	-1.67876694	-20.64367674
1.43	143	-0.036	-1.007	0.006	-0.3437748	0.0572958	-0.286479	89.13507606	-1.67876694	-20.64367674
1.44	144	-0.036	-1.008	0.008	-0.3437748	-0.0572958	-0.2291832	89.12934648	-1.67876694	-20.64367674
1.45	145	-0.037	-1.008	0.009	-0.4010706	-0.1145916	-0.1718874	89.12934648	-1.68449652	-20.64367674
1.46	146	-0.039	-1.005	0.01	-0.3437748	0	-0.2291832	89.1236169	-1.67876694	-20.64367674
1.47	147	-0.038	-1.006	0.009	-0.1718874	0.286479	-0.4583664	89.1236169	-1.67303736	-20.64367674
1.48	148	-0.037	-1.008	0.008	-0.286479	0.286479	-0.4010706	89.11788732	-1.67303736	-20.63794716
1.49	149	-0.037	-1.006	0.008	-0.286479	0.286479	-0.1718874	89.11788732	-1.66730778	-20.63221758
1.5	150	-0.034	-1.006	0.004	-0.1718874	0.4010706	0	89.11215774	-1.66730778	-20.63221758
1.51	151	-0.031	-1.008	0.004	-0.1718874	0.1718874	0.2291832	89.11215774	-1.67303736	-20.626488
1.52	152	-0.03	-1.009	0.004	-0.1145916	-0.1718874	0.3437748	89.10642816	-1.67303736	-20.63221758
1.53	153	-0.03	-1.009	0.005	-0.1718874	-0.4583664	0.286479	89.10642816	-1.67876694	-20.63794716
1.54	154	-0.032	-1.009	0.007	-0.286479	-0.6302538	0.1718874	89.10642816	-1.67876694	-20.64367674
1.55	155	-0.033	-1.011	0.008	-0.4583664	-0.5156622	0	89.10069858	-1.67876694	-20.64940632
1.56	156	-0.033	-1.013	0.008	-0.5156622	-0.286479	-0.1718874	89.094969	-1.67876694	-20.64940632
1.57	157	-0.033	-1.012	0.006	-0.286479	-0.1145916	-0.3437748	89.094969	-1.67303736	-20.6551359
1.58	158	-0.031	-1.011	0.007	-0.3437748	0.0572958	-0.4010706	89.08923942	-1.66730778	-20.64940632
1.59	159	-0.03	-1.01	0.008	-0.2291832	-0.2291832	-0.4010706	89.08350984	-1.66730778	-20.6551359
1.6	160	-0.029	-1.007	0.008	-0.1718874	-0.7448454	-0.3437748	89.08350984	-1.65011904	-20.66086548
1.61	161	-0.029	-1.005	0.006	-0.2291832	-0.859437	-0.3437748	89.08350984	-1.65011904	-20.67232464
1.62	162	-0.029	-1.003	0.004	-0.1718874	-0.572958	-0.4583664	89.08350984	-1.64438946	-20.67805422
1.63	163	-0.031	-1.003	0.004	-0.1718874	-0.1145916	-0.6875496	89.07778026	-1.63865988	-20.67805422
1.64	164	-0.034	-1.003	0.005	-0.0572958	-0.0572958	-0.8021412	89.07778026	-1.62720072	-20.6837838
1.65	165	-0.037	-1.002	0.006	0	0	-0.859437	89.07778026	-1.62720072	-20.67805422
1.66	166	-0.038	-1.002	0.004	0.1718874	0.1145916	-0.9167328	89.07778026	-1.62147114	-20.67805422
1.67	167	-0.038	-1.003	0.003	0.286479	0.3437748	-0.7448454	89.08350984	-1.61001198	-20.67805422
1.68	168	-0.039	-1.004	0.004	0.4010706	0.6302538	-0.5156622	89.08350984	-1.6042824	-20.66659506
1.69	169	-0.038	-1.007	0.003	0.4583664	0.9167328	-0.3437748	89.08923942	-1.6042824	-20.66086548
1.7	170	-0.035	-1.006	0.003	0.4010706	0.859437	-0.1145916	89.08923942	-1.6042824	-20.64940632
1.71	171	-0.035	-1.006	0.004	0.4010706	0.7448454	-0.0572958	89.094969	-1.6042824	-20.64367674
1.72	172	-0.035	-1.006	0.001	0.4010706	0.6302538	-0.0572958	89.10069858	-1.59855282	-20.63794716
1.73	173	-0.032	-1.007	0.002	0.3437748	0.4583664	0	89.10069858	-1.59855282	-20.63221758
1.74	174	-0.033	-1.009	0.003	0.286479	0.4583664	0	89.10642816	-1.59855282	-20.626488
1.75	175	-0.032	-1.01	0.003	0.4010706	0.4583664	0.0572958	89.10069858	-1.59855282	-20.62075842
1.76	176	-0.03	-1.012	0.003	0.286479	0.4010706	0.2291832	89.10642816	-1.59855282	-20.61502884
1.77	177	-0.03	-1.008	0.004	0.3437748	0.1145916	0.286479	89.10642816	-1.6042824	-20.61502884
1.78	178	-0.03	-1.009	0.003	0.572958	0	0.1718874	89.11215774	-1.6042824	-20.61502884
1.79	179	-0.028	-1.01	0.003	0.5156622	0.1718874	0.1718874	89.11788732	-1.61001198	-20.61502884
1.8	180	-0.027	-1.009	0.003	0.5156622	0.286479	0.0572958	89.11788732	-1.59855282	-20.60929926
1.81	181	-0.027	-1.009	0.004	0.572958	0.3437748	0.0572958	89.1236169	-1.59855282	-20.60929926
1.82	182	-0.029	-1.011	0.005	0.5156622	0.2291832	0.0572958	89.12934648	-1.59855282	-20.60356968
1.83	183	-0.029	-1.009	0.006	0.5156622	-0.1145916	0	89.13507606	-1.59855282	-20.60929926
1.84	184	-0.03	-1.009	0.006	0.4010706	-0.5156622	0	89.14080564	-1.59855282	-20.60929926
1.85	185	-0.03	-1.008	0.005	0.3437748	-0.6875496	-0.0572958	89.14080564	-1.59282324	-20.62075842
1.86	186	-0.031	-1.006	0.004	0.286479	-0.6875496	0.0572958	89.14080564	-1.59282324	-20.626488
1.87	187	-0.034	-1.005	0.005	0.286479	-0.6302538	0.0572958	89.14653522	-1.59855282	-20.63221758
1.88	188	-0.035	-1.005	0.005	0.4583664	-0.572958	0	89.1522648	-1.59855282	-20.63794716
1.89	189	-0.037	-1.004	0.006	0.4010706	-0.5156622	0	89.15799438	-1.59855282	-20.64367674
1.9	190	-0.037	-1.004	0.005	0.5156622	-0.3437748	0.0572958	89.15799438	-1.6042824	-20.64367674
1.91	191	-0.036	-1.005	0.006	0.6875496	-0.286479	0.0572958	89.16372396	-1.61001198	-20.64940632
1.92	192	-0.035	-1.006	0.008	0.6302538	-0.286479	0.0572958	89.16945354	-1.61001198	-20.6551359
1.93	193	-0.035	-1.008	0.013	0.572958	-0.3437748	0.1718874	89.1809127	-1.61001198	-20.6551359
1.94	194	-0.035	-1.007	0.011	0.6302538	-0.572958	0.2291832	89.18664228	-1.61001198	-20.66086548
1.95	195	-0.036	-1.008	0.011	0.7448454	-0.6302538	0.1718874	89.19810144	-1.62147114	-20.66659506
1.96	196	-0.036	-1.008	0.011	0.572958	-0.7448454	0.0572958	89.20383102	-1.62147114	-20.67805422
1.97	197	-0.036	-1.01	0.01	0.3437748	-0.6302538	0	89.2095606	-1.62147114	-20.6837838
1.98	198	-0.037	-1.01	0.01	0.4010706	-0.4583664	0	89.21529018	-1.62147114	-20.6837838
1.99	199	-0.035	-1.012	0.01	0.4010706	-0.3437748	-0.1145916	89.22101976	-1.62147114	-20.68951338
2	200	-0.035	-1.012	0.009	0.2291832	-0.1145916	-0.1718874	89.22101976	-1.62720072	-20.68951338
2.01	201	-0.035	-1.009	0.008	0.286479	0	-0.1718874	89.22674934	-1.62147114	-20.68951338
2.02	202	-0.035	-1.009	0.008	0.3437748	0.1718874	-0.1145916	89.23247892	-1.62147114	-20.68951338
2.03	203	-0.034	-1.008	0.007	0.4583664	0.3437748	-0.0572958	89.23247892	-1.62147114	-20.6837838
2.04	204	-0.033	-1.008	0.007	0.5156622	0.4583664	0	89.2382085	-1.62147114	-20.67805422
2.05	205	-0.033	-1.007	0.005	0.572958	0.4010706	0	89.2382085	-1.62147114	-20.67232464
2.06	206	-0.032	-1.006	0.005	0.6302538	0.4583664	0	89.24393808	-1.62147114	-20.67232464
2.07	207	-0.031	-1.006	0.003	0.572958	0.5156622	0	89.24966766	-1.62147114	-20.66659506
2.08	208	-0.031	-1.007	0.003	0.6302538	0.4583664	0.0572958	89.26112682	-1.62720072	-20.66086548
2.09	209	-0.028	-1.005	0.004	0.5156622	0.3437748	0.0572958	89.26112682	-1.62720072	-20.6551359
2.1	210	-0.03	-1.003	0.004	0.6302538	0.1718874	0	89.24966766	-1.62147114	-20.6551359
2.11	211	-0.032	-1.004	0.005	0.6875496	-0.0572958	0.0572958	89.25539724	-1.62147114	-20.6551359
2.12	212	-0.033	-1.006	0.005	0.6302538	-0.1145916	0.0572958	89.2668564	-1.62147114	-20.6551359
2.13	213	-0.033	-1.004	0.004	0.572958	-0.0572958	0.0572958	89.27258598	-1.62147114	-20.6551359
2.14	214	-0.034	-1.005	0.003	0.6875496	0	0	89.27831556	-1.62147114	-20.6551359
2.15	215	-0.033	-1.007	0.005	0.6302538	0.3437748	0	89.27258598	-1.62147114	-20.6551359
2.16	216	-0.031	-1.008	0.006	0.6875496	0.286479	0	89.28404514	-1.62147114	-20.64940632
2.17	217	-0.035	-1.01	0.006	0.7448454	0.1718874	0	89.28977472	-1.62147114	-20.64940632
2.18	218	-0.035	-1.01	0.007	0.6875496	0.1718874	0	89.2955043	-1.62147114	-20.64367674
2.19	219	-0.035	-1.009	0.009	0.6302538	0.286479	0	89.30123388	-1.62147114	-20.64367674
2.2	220	-0.032	-1.011	0.009	0.572958	0.286479	0.0572958	89.30123388	-1.61574156	-20.63794716
2.21	221	-0.031	-1.01	0.007	0.6302538	0.0572958	0.1145916	89.31269304	-1.62147114	-20.63794716
2.22	222	-0.031	-1.009	0.007	0.0572958	-0.286479	0.1145916	89.31269304	-1.62147114	-20.64367674
2.23	223	-0.032	-1.01	0.009	-0.1718874	-0.4010706	0.0572958	89.30696346	-1.62147114	-20.64367674
2.24	224	-0.035	-1.009	0.008	-0.1718874	-0.1718874	0	89.30696346	-1.62147114	-20.64940632
2.25	225	-0.036	-1.009	0.006	0	0.1145916	0	89.2955043	-1.63865988	-20.64367674
2.26	226	-0.036	-1.01	0.007	0	0.286479	0	89.2955043	-1.63865988	-20.64367674
2.27	227	-0.035	-1.01	0.01	0	0.1718874	0	89.2955043	-1.63865988	-20.63794716
2.28	228	-0.034	-1.009	0.011	0	-0.1718874	0.1145916	89.2955043	-1.63865988	-20.64367674
2.29	229	-0.031	-1.009	0.011	0	-0.4010706	0.2291832	89.2955043	-1.64438946	-20.64367674
2.3	230	-0.029	-1.008	0.009	-0.1145916	-0.4583664	0.4010706	89.28977472	-1.6329303	-20.64940632
2.31	231	-0.03	-1.007	0.011	-0.1718874	-0.2291832	0.286479	89.28404514	-1.6329303	-20.6551359
2.32	232	-0.033	-1.007	0.013	-0.2291832	-0.3437748	0.1718874	89.28404514	-1.63865988	-20.6551359
2.33	233	-0.035	-1.006	0.011	-0.2291832	-0.4010706	0	89.27831556	-1.63865988	-20.66086548
2.34	234	-0.036	-1.006	0.01	-0.1718874	-0.4010706	0	89.27831556	-1.63865988	-20.66659506
2.35	235	-0.036	-1.006	0.011	-0.1718874	-0.286479	-0.0572958	89.28404514	-1.65011904	-20.66659506
2.36	236	-0.035	-1.006	0.01	-0.1718874	-0.1718874	-0.0572958	89.28404514	-1.65011904	-20.67232464
2.37	237	-0.034	-1.005	0.009	-0.1145916	-0.2291832	0	89.28404514	-1.65011904	-20.67232464
2.38	238	-0.036	-1.006	0.009	-0.0572958	-0.286479	0.1145916	89.28404514	-1.65011904	-20.67805422
2.39	239	-0.037	-1.008	0.009	-0.1145916	-0.2291832	0.1145916	89.27831556	-1.65584862	-20.67805422
2.4	240	-0.037	-1.006	0.01	-0.2291832	-0.0572958	0	89.2668564	-1.67303736	-20.67805422
2.41	241	-0.038	-1.006	0.009	-0.1718874	-0.0572958	0	89.2668564	-1.67303736	-20.67805422
2.42	242	-0.038	-1.007	0.01	-0.2291832	0	0	89.26112682	-1.67303736	-20.67805422
2.43	243	-0.036	-1.008	0.008	-0.1145916	0.0572958	-0.0572958	89.26112682	-1.67303736	-20.67805422
2.44	244	-0.036	-1.009	0.01	-0.1718874	0.2291832	0	89.26112682	-1.67303736	-20.67232464
2.45	245	-0.035	-1.007	0.011	-0.1718874	0	0.1145916	89.2668564	-1.67876694	-20.67232464
2.46	246	-0.036	-1.006	0.009	-0.0572958	-0.1145916	0.0572958	89.2668564	-1.67876694	-20.67805422
2.47	247	-0.038	-1.01	0.011	0	0	0	89.2668564	-1.67876694	-20.67805422
2.48	248	-0.038	-1.01	0.009	-0.286479	0.286479	-0.0572958	89.26112682	-1.67876694	-20.67232464
2.49	249	-0.037	-1.009	0.009	-0.1145916	0.6875496	-0.1145916	89.26112682	-1.67876694	-20.66659506
2.5	250	-0.037	-1.011	0.007	-0.0572958	0.8021412	-0.1145916	89.25539724	-1.67876694	-20.6551359
2.51	251	-0.037	-1.011	0.007	-0.1718874	0.9167328	-0.1718874	89.25539724	-1.67876694	-20.64940632
2.52	252	-0.036	-1.01	0.006	-0.1145916	0.6875496	-0.2291832	89.24966766	-1.67303736	-20.64367674
2.53	253	-0.035	-1.011	0.005	-0.0572958	0.6302538	-0.286479	89.24966766	-1.67303736	-20.63221758
2.54	254	-0.032	-1.009	0.004	-0.1718874	0.4583664	-0.2291832	89.24966766	-1.67303736	-20.63221758
2.55	255	-0.03	-1.008	0.006	-0.0572958	0.2291832	-0.1145916	89.23247892	-1.65011904	-20.626488
2.56	256	-0.032	-1.007	0.006	-0.1145916	0	-0.2291832	89.23247892	-1.65011904	-20.626488
2.57	257	-0.033	-1.007	0.006	-0.0572958	0	-0.2291832	89.23247892	-1.64438946	-20.626488
2.58	258	-0.032	-1.007	0.006	-0.1718874	-0.0572958	-0.2291832	89.23247892	-1.64438946	-20.63221758
2.59	259	-0.032	-1.005	0.007	-0.1145916	-0.1145916	-0.2291832	89.23247892	-1.64438946	-20.63221758
2.6	260	-0.034	-1.006	0.008	0	-0.3437748	-0.2291832	89.23247892	-1.64438946	-20.63794716
2.61	261	-0.035	-1.006	0.01	0.0572958	-0.6875496	-0.1145916	89.23247892	-1.64438946	-20.64367674
2.62	262	-0.034	-1.005	0.008	-0.0572958	-0.8021412	0	89.23247892	-1.64438946	-20.64940632
2.63	263	-0.033	-1.006	0.009	0.0572958	-0.572958	0.1145916	89.23247892	-1.64438946	-20.6551359
2.64	264	-0.034	-1.005	0.008	0.1145916	-0.3437748	0.1145916	89.23247892	-1.64438946	-20.66086548
2.65	265	-0.036	-1.005	0.008	0.1718874	-0.1145916	0	89.22674934	-1.66730778	-20.66086548
2.66	266	-0.036	-1.006	0.009	0.2291832	0.1145916	0	89.22674934	-1.66730778	-20.66086548
2.67	267	-0.036	-1.006	0.008	0.3437748	0.1718874	0	89.23247892	-1.66730778	-20.6551359
2.68	268	-0.035	-1.008	0.01	0.4583664	0.286479	0	89.2382085	-1.66730778	-20.6551359
2.69	269	-0.034	-1.009	0.012	0.3437748	0.4583664	0	89.2382085	-1.66730778	-20.64940632
2.7	270	-0.033	-1.009	0.011	0.286479	0.4583664	0	89.24966766	-1.66730778	-20.64367674
2.71	271	-0.034	-1.011	0.009	0.2291832	0.4010706	0	89.24966766	-1.66730778	-20.63794716
2.72	272	-0.035	-1.01	0.008	0.286479	0.286479	-0.0572958	89.25539724	-1.66730778	-20.63794716
2.73	273	-0.034	-1.011	0.008	0.1718874	0.1718874	-0.1145916	89.25539724	-1.66730778	-20.63221758
2.74	274	-0.035	-1.011	0.009	0.1145916	0.0572958	-0.1718874	89.25539724	-1.6615782	-20.63221758
2.75	275	-0.036	-1.011	0.011	0	0.1145916	-0.1718874	89.2668564	-1.67303736	-20.63221758
2.76	276	-0.035	-1.01	0.011	-0.1145916	0.1145916	-0.2291832	89.26112682	-1.66730778	-20.63221758
2.77	277	-0.036	-1.008	0.009	-0.1145916	0.286479	-0.2291832	89.26112682	-1.66730778	-20.626488
2.78	278	-0.035	-1.007	0.008	0	0.3437748	-0.2291832	89.26112682	-1.6615782	-20.62075842
2.79	279	-0.035	-1.006	0.008	-0.0572958	0.5156622	-0.2291832	89.26112682	-1.6615782	-20.62075842
2.8	280	-0.036	-1.007	0.009	0	0.3437748	-0.2291832	89.2668564	-1.67303736	-20.61502884
2.81	281	-0.036	-1.006	0.011	-0.0572958	0.2291832	-0.2291832	89.26112682	-1.67303736	-20.60929926
2.82	282	-0.036	-1.005	0.013	0	0.286479	-0.286479	89.26112682	-1.66730778	-20.60929926
2.83	283	-0.037	-1.005	0.012	0	0.6302538	-0.4010706	89.26112682	-1.66730778	-20.60356968
2.84	284	-0.035	-1.007	0.01	0	1.2032118	-0.4583664	89.26112682	-1.6615782	-20.59211052
2.85	285	-0.035	-1.009	0.01	-0.1718874	1.3178034	-0.6302538	89.26112682	-1.65584862	-20.57492178
2.86	286	-0.037	-1.01	0.007	-0.286479	1.2032118	-0.6302538	89.25539724	-1.65011904	-20.56346262
2.87	287	-0.038	-1.01	0.009	-0.286479	1.0886202	-0.572958	89.24966766	-1.64438946	-20.55200346
2.88	288	-0.039	-1.009	0.013	-0.5156622	1.145916	-0.572958	89.24393808	-1.63865988	-20.5405443
2.89	289	-0.035	-1.009	0.019	-0.4010706	0.9740286	-0.5156622	89.24393808	-1.6329303	-20.53481472
2.9	290	-0.032	-1.01	0.022	-0.4583664	0.9167328	-0.4010706	89.25539724	-1.62720072	-20.52335556
2.91	291	-0.031	-1.015	0.019	-1.0313244	0.859437	-0.4010706	89.24393808	-1.62147114	-20.51762598
2.92	292	-0.034	-1.02	0.013	-1.7761698	0.4010706	-0.4010706	89.22101976	-1.62147114	-20.5118964
2.93	293	-0.036	-1.022	0.009	-2.005353	0.4010706	-0.4583664	89.20383102	-1.61574156	-20.50616682
2.94	294	-0.037	-1.023	0.007	-2.0626488	0.572958	-0.572958	89.1809127	-1.61001198	-20.50043724
2.95	295	-0.038	-1.017	0.013	-2.005353	0.6302538	-0.572958	89.16945354	-1.61001198	-20.49470766
2.96	296	-0.036	-1.015	0.019	-1.9480572	0.1145916	-0.4583664	89.14653522	-1.6042824	-20.49470766
2.97	297	-0.034	-1.014	0.019	-2.005353	-0.3437748	-0.3437748	89.1236169	-1.59855282	-20.50043724
2.98	298	-0.031	-1.012	0.019	-2.2345362	-0.6302538	-0.1718874	89.10069858	-1.59855282	-20.50616682
2.99	299	-0.029	-1.009	0.02	-2.5210152	-0.3437748	-0.2291832	89.07778026	-1.59282324	-20.5118964
3	300	-0.029	-1.008	0.021	-2.86479	0.0572958	-0.286479	89.06059152	-1.58709366	-20.50616682
3.01	301	-0.032	-1.008	0.02	-3.0366774	0	-0.3437748	89.02621404	-1.58709366	-20.50616682
3.02	302	-0.037	-1.009	0.021	-3.437748	-0.1718874	-0.572958	88.99183656	-1.58136408	-20.5118964
3.03	303	-0.038	-1.012	0.016	-3.724227	-0.1718874	-0.7448454	88.95745908	-1.5756345	-20.5118964
3.04	304	-0.038	-1.011	0.013	-3.7815228	0	-0.9167328	88.91735202	-1.56417534	-20.51762598
3.05	305	-0.035	-1.011	0.009	-3.8961144	0.2291832	-0.9740286	88.88297454	-1.55844576	-20.5118964
3.06	306	-0.034	-1.011	0.01	-4.010706	0.0572958	-0.9167328	88.8371379	-1.5469866	-20.5118964
3.07	307	-0.033	-1.01	0.012	-4.297185	0	-0.9167328	88.79703084	-1.53552744	-20.5118964
3.08	308	-0.03	-1.009	0.012	-4.5263682	0.2291832	-1.0313244	88.7511942	-1.52979786	-20.5118964
3.09	309	-0.029	-1.01	0.015	-4.583664	0.4583664	-0.9167328	88.69962798	-1.5183387	-20.50616682
3.1	310	-0.027	-1.01	0.018	-4.7555514	0.6875496	-0.9167328	88.65952092	-1.50687954	-20.50043724
3.11	311	-0.028	-1.014	0.014	-5.156622	0.572958	-0.9740286	88.6079547	-1.49542038	-20.49470766
3.12	312	-0.03	-1.016	0.012	-5.5003968	0.3437748	-1.0886202	88.5506589	-1.4896908	-20.49470766
3.13	313	-0.035	-1.02	0.01	-6.016059	0.2291832	-1.2032118	88.48763352	-1.47823164	-20.48897808
3.14	314	-0.038	-1.024	0.006	-6.302538	0.286479	-1.2032118	88.42460814	-1.4610429	-20.48897808
3.15	315	-0.04	-1.024	0.002	-6.7036086	0.5156622	-1.432395	88.36158276	-1.44958374	-20.4832485
3.16	316	-0.036	-1.026	0.001	-7.161975	0.6875496	-1.4896908	88.28709822	-1.43812458	-20.47751892
3.17	317	-0.031	-1.023	0	-7.448454	0.8021412	-1.3750992	88.2068841	-1.42666542	-20.47178934
3.18	318	-0.029	-1.02	0.002	-7.6776372	0.9740286	-1.2605076	88.13239956	-1.41520626	-20.46605976
3.19	319	-0.028	-1.02	0.006	-7.9068204	0.6302538	-1.0313244	88.05218544	-1.4037471	-20.46033018
3.2	320	-0.028	-1.022	0.006	-8.3651868	0.2291832	-0.8021412	87.97197132	-1.39228794	-20.4546006
3.21	321	-0.03	-1.02	0.004	-8.8235532	-0.1145916	-0.7448454	87.88029804	-1.38655836	-20.46033018
3.22	322	-0.029	-1.024	0.002	-9.453807	0.1145916	-0.859437	87.78289518	-1.38082878	-20.46033018
3.23	323	-0.027	-1.024	0	-10.0840608	0.4583664	-0.859437	87.67976274	-1.36936962	-20.4546006
3.24	324	-0.028	-1.021	-0.004	-10.4851314	0.286479	-0.859437	87.5766303	-1.36364004	-20.4546006
3.25	325	-0.03	-1.021	-0.006	-10.9434978	0.1145916	-0.9740286	87.46776828	-1.35791046	-20.4546006
3.26	326	-0.029	-1.02	-0.006	-11.45916	0.2291832	-0.9740286	87.35317668	-1.3464513	-20.4546006
3.27	327	-0.027	-1.018	-0.005	-11.6883432	0.1718874	-0.9167328	87.2328555	-1.33499214	-20.4546006
3.28	328	-0.025	-1.015	-0.006	-12.1467096	0	-0.859437	87.10680474	-1.32926256	-20.4546006
3.29	329	-0.025	-1.012	-0.007	-12.318597	-0.5156622	-0.859437	86.98075398	-1.32353298	-20.46605976
3.3	330	-0.025	-1.012	-0.008	-12.6623718	-0.4010706	-0.9167328	86.8604328	-1.31207382	-20.47178934
3.31	331	-0.026	-1.012	-0.011	-13.0634424	-0.1718874	-0.9740286	86.72865246	-1.30634424	-20.47178934
3.32	332	-0.027	-1.014	-0.015	-13.4072172	-0.1145916	-1.0313244	86.59114254	-1.29488508	-20.47751892
3.33	333	-0.027	-1.018	-0.018	-13.9228794	-0.2291832	-1.145916	86.44790304	-1.28342592	-20.4832485
3.34	334	-0.026	-1.018	-0.024	-14.4385416	-0.1718874	-1.2605076	86.30466354	-1.27196676	-20.48897808
3.35	335	-0.027	-1.019	-0.028	-14.6677248	-0.2291832	-1.3750992	86.15569446	-1.2605076	-20.48897808
3.36	336	-0.026	-1.018	-0.03	-15.0114996	-0.286479	-1.3750992	86.00672538	-1.24904844	-20.49470766
3.37	337	-0.026	-1.016	-0.03	-15.2406828	-0.1145916	-1.3750992	85.84629714	-1.23758928	-20.50043724
3.38	338	-0.025	-1.019	-0.031	-15.5844576	-0.1718874	-1.432395	85.69159848	-1.22613012	-20.50616682
3.39	339	-0.026	-1.019	-0.032	-16.2147114	-0.1718874	-1.432395	85.52544066	-1.20894138	-20.5118964
3.4	340	-0.028	-1.017	-0.032	-16.6730778	-0.4010706	-1.432395	85.35928284	-1.19748222	-20.51762598
3.41	341	-0.028	-1.017	-0.035	-17.2460358	-0.3437748	-1.3750992	85.18739544	-1.18602306	-20.52335556
3.42	342	-0.029	-1.018	-0.04	-17.8189938	-0.2291832	-1.3750992	85.00404888	-1.1745639	-20.52908514
3.43	343	-0.03	-1.019	-0.043	-18.4492476	-0.1718874	-1.432395	84.81497274	-1.16310474	-20.53481472
3.44	344	-0.028	-1.02	-0.047	-18.907614	0.0572958	-1.4896908	84.6258966	-1.145916	-20.5405443
3.45	345	-0.028	-1.02	-0.05	-19.480572	0.1718874	-1.4896908	84.43109088	-1.13445684	-20.5405443
3.46	346	-0.028	-1.02	-0.051	-20.05353	0.286479	-1.432395	84.224826	-1.12299768	-20.5405443
3.47	347	-0.026	-1.02	-0.054	-20.5691922	0.286479	-1.3178034	84.01856112	-1.11153852	-20.5405443
3.48	348	-0.025	-1.022	-0.053	-21.3140376	0.0572958	-1.3178034	83.80083708	-1.10007936	-20.5405443
3.49	349	-0.023	-1.02	-0.057	-22.1161788	0.1718874	-1.3178034	83.57738346	-1.0886202	-20.54627388
3.5	350	-0.021	-1.021	-0.065	-22.8610242	0.286479	-1.3750992	83.34820026	-1.07716104	-20.54627388
3.51	351	-0.023	-1.023	-0.071	-23.777757	0.1145916	-1.432395	83.1075579	-1.06570188	-20.54627388
3.52	352	-0.026	-1.021	-0.072	-24.4653066	-0.1145916	-1.5469866	82.85545638	-1.04851314	-20.55200346
3.53	353	-0.027	-1.024	-0.077	-25.2674478	-0.1718874	-1.432395	82.59762528	-1.03705398	-20.56346262
3.54	354	-0.03	-1.027	-0.082	-26.4706596	-0.0572958	-1.3178034	82.3340646	-1.02559482	-20.5691922
3.55	355	-0.033	-1.023	-0.083	-27.7311672	0.5156622	-1.145916	82.05331518	-1.01986524	-20.56346262
3.56	356	-0.029	-1.021	-0.087	-28.6479	0.9740286	-1.0886202	81.7611066	-1.00840608	-20.55773304
3.57	357	-0.027	-1.019	-0.09	-29.8511118	0.8021412	-0.9740286	81.45743886	-1.0026765	-20.55773304
3.58	358	-0.028	-1.017	-0.091	-31.5699858	0.8021412	-0.9167328	81.13658238	-0.99694692	-20.55200346
3.59	359	-0.029	-1.016	-0.094	-32.8304934	0.859437	-1.0886202	80.80426674	-0.98548776	-20.55200346
3.6	360	-0.033	-1.017	-0.082	-34.37748	0.4010706	-1.2032118	80.46049194	-0.97975818	-20.55200346
3.61	361	-0.031	-1.017	-0.083	-34.4347758	0.4010706	-1.4896908	80.11098756	-0.96829902	-20.55200346
3.62	362	-0.028	-1.022	-0.094	-33.8618178	0.3437748	-1.3750992	79.76721276	-0.95683986	-20.55200346
3.63	363	-0.027	-1.025	-0.103	-34.091001	0.6875496	-1.145916	79.41770838	-0.9453807	-20.55200346
3.64	364	-0.022	-1.027	-0.111	-35.2942128	1.5469866	-1.0313244	79.06247442	-0.93965112	-20.5405443
3.65	365	-0.02	-1.026	-0.12	-36.4401288	2.291832	-0.9740286	78.6957813	-0.92819196	-20.52335556
3.66	366	-0.017	-1.021	-0.128	-37.6433406	2.86479	-1.145916	78.31189944	-0.9167328	-20.50616682
3.67	367	-0.019	-1.011	-0.134	-38.6173692	2.8074942	-1.145916	77.91655842	-0.89954406	-20.4832485
3.68	368	-0.021	-1.008	-0.136	-39.7059894	2.4064236	-1.3750992	77.51548782	-0.8880849	-20.46605976
3.69	369	-0.026	-1.009	-0.136	-41.4248634	2.1772404	-1.6042824	77.0914989	-0.87089616	-20.44887102
3.7	370	-0.029	-1.004	-0.129	-42.9145542	2.1772404	-1.7761698	76.6617804	-0.85370742	-20.43741186
3.71	371	-0.03	-1.001	-0.128	-42.2843004	2.2345362	-2.0626488	76.2320619	-0.83651868	-20.4259527
3.72	372	-0.031	-1.012	-0.139	-41.3675676	1.718874	-2.1199446	75.81380256	-0.81360036	-20.41449354
3.73	373	-0.03	-1.016	-0.145	-41.825934	1.145916	-2.1199446	75.38981364	-0.79641162	-20.41449354
3.74	374	-0.027	-1.019	-0.159	-43.2010332	1.2605076	-1.9480572	74.94863598	-0.77922288	-20.41449354
3.75	375	-0.023	-1.021	-0.176	-44.7480198	1.9480572	-2.005353	74.50172874	-0.76203414	-20.40303438
3.76	376	-0.019	-1.02	-0.184	-46.5241896	2.9220858	-2.2345362	74.0261736	-0.73338624	-20.38584564
3.77	377	-0.016	-1.007	-0.186	-48.3576552	3.9534102	-2.4637194	73.53342972	-0.70473834	-20.35719774
3.78	378	-0.013	-0.987	-0.188	-48.9306132	3.7815228	-2.8074942	73.03495626	-0.67609044	-20.33427942
3.79	379	-0.009	-0.971	-0.19	-48.5295426	3.0939732	-3.2085648	72.54221238	-0.64171296	-20.31709068
3.8	380	-0.002	-0.968	-0.197	-48.414951	2.1199446	-3.3804522	72.05519808	-0.60733548	-20.3113611
3.81	381	0	-0.963	-0.2	-48.7587258	0.7448454	-3.5523396	71.5624542	-0.57868758	-20.31709068
3.82	382	0	-0.968	-0.213	-48.9306132	0	-4.010706	71.06398074	-0.5443101	-20.33427942
3.83	383	-0.003	-0.969	-0.233	-49.9046418	0.3437748	-4.4690724	70.5597777	-0.50993262	-20.35146816
3.84	384	0	-0.964	-0.243	-51.6808116	1.2032118	-5.2712136	70.03265634	-0.4583664	-20.35719774
3.85	385	-0.003	-0.947	-0.248	-53.1705024	1.4896908	-6.0733548	69.4998054	-0.40680018	-20.3686569
3.86	386	0.002	-0.961	-0.273	-54.7747848	1.3178034	-6.589017	68.93830656	-0.3437748	-20.38584564
3.87	387	0.003	-0.951	-0.26	-57.6395748	1.145916	-6.9327918	68.3538894	-0.28074942	-20.40303438
3.88	388	0.011	-0.942	-0.284	-58.155237	0.3437748	-6.8182002	67.76374266	-0.22345362	-20.43168228
3.89	389	0.017	-0.943	-0.284	-59.5303362	-0.572958	-6.3598338	67.16213676	-0.17761698	-20.46605976
3.9	390	0.019	-0.932	-0.271	-61.020027	-1.8907614	-6.0733548	66.54334212	-0.13178034	-20.5118964
3.91	391	0.017	-0.924	-0.287	-61.4783934	-2.9793816	-5.8441716	65.92454748	-0.09740286	-20.56346262
3.92	392	0.017	-0.917	-0.297	-62.5097178	-3.0366774	-5.9014674	65.2885641	-0.06302538	-20.62075842
3.93	393	0.015	-0.904	-0.299	-63.9994086	-2.9220858	-6.0733548	64.64112156	-0.0286479	-20.67805422
3.94	394	0.007	-0.889	-0.309	-64.5723666	-2.6929026	-6.302538	63.98221986	0	-20.73535002
3.95	395	0.006	-0.888	-0.318	-64.6869582	-1.8334656	-6.4171296	63.32904774	0.04583664	-20.78691624
3.96	396	0.01	-0.891	-0.328	-65.2026204	-1.3178034	-6.1306506	62.67014604	0.0859437	-20.8270233
3.97	397	0.009	-0.893	-0.334	-66.5777196	-1.432395	-5.5576926	61.9940556	0.12032118	-20.87285994
3.98	398	0.008	-0.896	-0.347	-67.9528188	-2.2345362	-5.0420304	61.306506	0.1432395	-20.91869658
3.99	399	0.004	-0.898	-0.353	-69.0987348	-2.6356068	-4.870143	60.60176766	0.16615782	-20.9702628
4	400	0	-0.891	-0.366	-70.4165382	-2.4064236	-4.9847346	59.89129974	0.18907614	-21.02182902
4.01	401	-0.002	-0.887	-0.368	-71.3905668	-2.0626488	-5.2712136	59.16937266	0.21772404	-21.06766566
4.02	402	-0.007	-0.888	-0.371	-72.7083702	-1.2032118	-5.5003968	58.43025684	0.24637194	-21.1135023
4.03	403	-0.017	-0.887	-0.363	-73.7969904	0.4583664	-5.443101	57.67968186	0.286479	-21.1421502
4.04	404	-0.028	-0.884	-0.366	-74.7137232	1.718874	-5.2139178	56.9233773	0.33231564	-21.15933894
4.05	405	-0.027	-0.886	-0.378	-76.0315266	2.6929026	-4.4117766	56.15561358	0.3724227	-21.16506852
4.06	406	-0.018	-0.889	-0.39	-77.922288	2.7501984	-3.3231564	55.36493154	0.4010706	-21.15933894
4.07	407	-0.017	-0.883	-0.406	-79.5265704	2.1772404	-2.291832	54.55706076	0.42398892	-21.15933894
4.08	408	-0.009	-0.874	-0.406	-81.1308528	1.5469866	-1.5469866	53.73200124	0.43544808	-21.15933894
4.09	409	-0.007	-0.853	-0.401	-82.3913604	0.8021412	-1.145916	52.89548256	0.43544808	-21.16506852
4.1	410	-0.002	-0.831	-0.404	-83.4226848	0.0572958	-1.3178034	52.05896388	0.43544808	-21.17652768
4.11	411	0.007	-0.811	-0.403	-84.3967134	-0.1718874	-1.4896908	51.19952688	0.43544808	-21.18798684
4.12	412	0.023	-0.798	-0.409	-85.1988546	0.1718874	-1.9480572	50.3343603	0.44117766	-21.20517558
4.13	413	0.035	-0.787	-0.407	-85.8864042	0	-2.4064236	49.46346414	0.44690724	-21.22236432
4.14	414	0.042	-0.778	-0.409	-86.3447706	-0.286479	-2.6929026	48.5868384	0.45263682	-21.24528264
4.15	415	0.047	-0.777	-0.404	-87.1469118	-0.8021412	-2.7501984	47.71021266	0.4583664	-21.27393054
4.16	416	0.043	-0.771	-0.395	-87.376095	-1.145916	-2.578311	46.82212776	0.4583664	-21.30257844
4.17	417	0.038	-0.753	-0.393	-87.1469118	-2.1199446	-2.1199446	45.93977244	0.44690724	-21.33122634
4.18	418	0.025	-0.74	-0.388	-86.9750244	-3.9534102	-1.3750992	45.05741712	0.41825934	-21.37706298
4.19	419	0.008	-0.719	-0.367	-86.8604328	-5.5576926	-1.2605076	44.1750618	0.37815228	-21.42289962
4.2	420	0.001	-0.685	-0.355	-85.7718126	-5.9014674	-2.4637194	43.3156248	0.3437748	-21.485925
4.21	421	0.01	-0.676	-0.336	-83.9956428	-4.7555514	-4.4690724	42.46191738	0.32658606	-21.55467996
4.22	422	0.024	-0.686	-0.325	-82.5632478	-5.156622	-5.5576926	41.6253987	0.3151269	-21.6291645
4.23	423	0.027	-0.663	-0.293	-79.641162	-6.3598338	-5.72958	40.81752792	0.29793816	-21.72083778
4.24	424	0.021	-0.646	-0.33	-79.354683	-6.2452422	-5.5576926	40.00965714	0.27501984	-21.8010519
4.25	425	0.002	-0.616	-0.393	-79.4692746	-5.8441716	-5.6149884	39.21324552	0.2578311	-21.8869956
4.26	426	-0.018	-0.609	-0.41	-80.3287116	-4.0680018	-5.9014674	38.39964516	0.25210152	-21.95575056
4.27	427	-0.032	-0.606	-0.389	-78.5525418	-2.291832	-5.7868758	37.60323354	0.2578311	-22.01877594
4.28	428	-0.057	-0.595	-0.414	-76.2607098	-1.2605076	-6.589017	36.82401066	0.27501984	-22.08180132
4.29	429	-0.05	-0.618	-0.444	-75.4012728	1.8907614	-8.9954406	36.06197652	0.33804522	-22.13909712
4.3	430	-0.034	-0.609	-0.442	-72.0208206	4.9274388	-10.886202	35.34004944	0.42398892	-22.19639292
4.31	431	-0.019	-0.61	-0.427	-69.0987348	6.1306506	-11.1153852	34.6353111	0.52712136	-22.25368872
4.32	432	0.016	-0.589	-0.454	-66.2339448	7.7922288	-10.2559482	33.95922066	0.64171296	-22.29379578
4.33	433	0.042	-0.586	-0.502	-64.0567044	9.453807	-9.1100322	33.31177812	0.75630456	-22.31098452
4.34	434	0.055	-0.6	-0.55	-61.592985	10.7143146	-7.6776372	32.68152432	0.87662574	-22.3167141
4.35	435	0.076	-0.621	-0.616	-58.155237	12.2040054	-6.4744254	32.10283674	1.00840608	-22.30525494
4.36	436	0.077	-0.636	-0.673	-57.2385042	12.2040054	-6.7609044	31.51841958	1.14018642	-22.29379578
4.37	437	0.065	-0.607	-0.754	-55.3477428	11.2299768	-7.6203414	30.95692074	1.26623718	-22.29952536
4.38	438	0.075	-0.561	-0.81	-53.9726436	11.4018642	-8.4797784	30.40688106	1.39228794	-22.31098452
4.39	439	0.109	-0.574	-0.883	-54.0872352	9.8548776	-8.4224826	29.8511118	1.51260912	-22.32817326
4.4	440	0.152	-0.743	-0.95	-54.0299394	5.6149884	-8.021412	29.3068017	1.59855282	-22.36828032
4.41	441	0.165	-1.027	-0.992	-55.863405	5.0993262	-10.7143146	28.73957328	1.68449652	-22.43703528
4.42	442	0.123	-1.157	-1.014	-61.3638018	7.5057498	-15.6417534	28.10931948	1.81627686	-22.53443814
4.43	443	0.093	-1.111	-1.007	-64.8588456	7.5630456	-19.3659804	27.45041778	1.95951636	-22.66621848
4.44	444	0.086	-1.068	-1.028	-65.603691	8.3651868	-20.5118964	26.77432734	2.1199446	-22.8037284
4.45	445	0.059	-1.039	-1.07	-69.6716928	10.1413566	-19.767051	26.06385942	2.28610242	-22.92977916
4.46	446	0.042	-1.025	-1.103	-74.5991316	10.886202	-18.7357266	25.30182528	2.45226024	-23.05010034
4.47	447	0.047	-1.022	-1.105	-76.776372	11.9175264	-16.7876694	24.51687282	2.61841806	-23.1475032
4.48	448	0.051	-0.999	-1.075	-78.9536124	12.9488508	-15.469866	23.70900204	2.78457588	-23.22771732
4.49	449	0.079	-0.959	-1.048	-80.6151906	16.2720072	-16.042824	22.88394252	2.98511118	-23.30220186
4.5	450	0.136	-0.981	-1.007	-81.646515	19.1367972	-18.5065434	22.058883	3.22002396	-23.39387514
4.51	451	0.136	-1.058	-0.964	-83.365389	17.7044022	-19.480572	21.199446	3.437748	-23.50273716
4.52	452	0.096	-1.086	-0.916	-84.9123756	17.6471064	-19.1367972	20.32854984	3.65547204	-23.61159918
4.53	453	0.063	-1.037	-0.868	-86.1728832	18.1054728	-19.0795014	19.44619452	3.87892566	-23.7204612
4.54	454	0.029	-0.94	-0.839	-85.657221	18.2773602	-19.6524594	18.5638392	4.0966497	-23.84078238
4.55	455	0.012	-0.881	-0.795	-83.3080932	18.907614	-23.1475032	17.72159094	4.33729206	-23.98975146
4.56	456	0.018	-0.821	-0.783	-79.7557536	19.8243468	-26.356068	16.89080184	4.58939358	-24.17309802
4.57	457	0.048	-0.826	-0.769	-76.8909636	21.3713334	-28.4187168	16.09439022	4.85868384	-24.37363332
4.58	458	0.057	-0.869	-0.714	-76.203414	24.6944898	-29.6792244	15.2979786	5.16235158	-24.58562778
4.59	459	0.039	-0.897	-0.658	-74.7137232	25.6112226	-30.0229992	14.51302614	5.4717489	-24.79762224
4.6	460	0.028	-0.893	-0.584	-73.625103	23.8350528	-30.3094782	13.76818074	5.76395748	-25.02107586
4.61	461	0.039	-0.845	-0.515	-70.5884256	20.9702628	-30.4240698	13.02333534	6.02751816	-25.25598864
4.62	462	0.059	-0.806	-0.464	-68.5257768	19.5378678	-31.6272816	12.29567868	6.2738901	-25.51381974
4.63	463	0.053	-0.778	-0.379	-65.4890994	18.6784308	-33.5753388	11.59666992	6.51453246	-25.79456916
4.64	464	0.034	-0.741	-0.271	-61.020027	22.5172494	-35.6379876	10.93776822	6.79528188	-26.09250732
4.65	465	0.015	-0.706	-0.232	-58.9573782	22.9756158	-37.8725238	10.31897358	7.08176088	-26.40763422
4.66	466	0.006	-0.636	-0.142	-57.2958	23.2620948	-40.6227222	9.69444936	7.36823988	-26.7571386
4.67	467	0.03	-0.565	-0.144	-52.6548402	24.8090814	-43.258329	9.10430262	7.6776372	-27.13529088
4.68	468	0.067	-0.481	-0.17	-50.5348956	17.2460358	-46.0658232	8.53134462	7.9068204	-27.5592798
4.69	469	0.109	-0.373	-0.201	-52.712136	3.6096354	-50.1911208	7.92400914	8.00995284	-28.0462941
4.7	470	0.177	-0.268	-0.326	-52.0245864	-6.4744254	-51.9099948	7.3338624	8.01568242	-28.56768588
4.71	471	0.231	-0.221	-0.582	-59.587632	-16.615782	-50.2484166	6.65777196	7.9068204	-29.08907766
4.72	472	0.272	-0.18	-0.727	-70.2446508	-41.3675676	-47.4982182	5.87854908	7.54585686	-29.61619902
4.73	473	0.273	-0.138	-0.817	-74.48454	-54.43101	-44.2896534	5.06494872	7.0473834	-30.11467248
4.74	474	0.213	-0.168	-0.905	-80.8443738	-57.9833496	-39.9351726	4.19405256	6.49734372	-30.57303888
4.75	475	0.124	-0.158	-0.75	-81.932994	-66.2912406	-35.1223254	3.32888598	5.86136034	-30.97410948
4.76	476	0.068	-0.219	-0.634	-72.9375534	-61.020027	-29.220858	2.56685184	5.26548402	-31.3121547
4.77	477	-0.035	-0.321	-0.59	-74.3126526	-53.3996856	-19.9962342	1.79908812	4.73836266	-31.5413379
4.78	478	-0.307	-0.34	-0.406	-72.4218912	-65.3745078	-9.2246238	1.06570188	4.08519054	-31.66165908
4.79	479	-0.552	-0.296	-0.238	-56.2644756	-76.0888224	0.6302538	0.49847346	3.32888598	-31.67884782
4.8	480	-0.759	-0.185	-0.098	-45.6647526	-67.9528188	9.167328	0.05156622	2.61841806	-31.60436328
4.81	481	-0.876	0.115	0.028	-37.1849742	-51.9099948	17.9908812	-0.30366774	2.09702628	-31.43820546
4.82	482	-0.787	0.449	0.061	-25.0955604	-34.4347758	21.8869956	-0.5443101	1.75325148	-31.226211
4.83	483	-0.521	0.698	0.118	-13.178034	-22.4599536	17.8762896	-0.67036086	1.53552744	-31.04859402
4.84	484	-0.212	0.838	0.187	6.4744254	-5.72958	11.8029348	-0.6016059	1.47823164	-30.93400242
4.85	485	0.131	0.868	0.136	30.7678446	12.5477802	6.3598338	-0.35523396	1.62720072	-30.87097704
4.86	486	0.358	0.852	0.069	52.0245864	26.2987722	7.1046792	0.16615782	1.8907614	-30.7964925
4.87	487	0.255	0.792	0.052	65.8328742	35.4088044	10.026765	0.8307891	2.25172494	-30.69336006
4.88	488	0.13	0.755	-0.047	61.879464	40.680018	7.2765666	1.4610429	2.65852512	-30.60168678
4.89	489	0.208	0.713	-0.362	44.0031744	44.2896534	-3.2658606	1.90222056	3.09970278	-30.61314594
4.9	490	0.419	0.711	-0.672	38.5027776	73.338624	-17.3606274	2.25745452	3.84454818	-30.74492628
4.91	491	0.325	0.626	-1.636	61.9940556	88.522011	-32.6013102	2.85333084	4.73836266	-31.00848696
4.92	492	0.291	1.71	-3.826	57.6968706	9.3965112	-14.4958374	3.42628884	4.84722468	-31.15172646
4.93	493	-0.301	3.684	-3.996	136.0202292	-86.7458412	33.5753388	4.83576552	3.98778768	-30.91681368
4.94	494	0.048	2.401	-3.996	208.9004868	-88.4647152	62.165943	6.99581718	3.07678446	-30.42979938
4.95	495	0.75	1.4	-3.996	137.7391032	-74.7137232	54.0299394	8.4224826	2.291832	-30.0229992
4.96	496	0.165	1.321	-3.762	72.5364828	-77.34933	22.4026578	9.17305758	1.51260912	-29.94851466
4.97	497	-0.088	-0.163	-3.128	12.891555	-46.123119	1.3178034	9.3105675	1.06570188	-30.0229992
4.98	498	-0.21	-1.123	-2.787	-13.6364004	-6.7609044	-17.4179232	9.167328	1.02559482	-30.20634576
4.99	499	-0.29	-1.251	-2.219	-51.3370368	-14.6677248	-20.1108258	8.64593622	0.91100322	-30.4240698
5	500	-0.275	-0.847	-1.057	-69.3852138	-21.8296998	-19.767051	7.9641162	0.71046792	-30.653253
5.01	501	-0.169	-0.39	-0.636	-58.5563076	-5.6149884	-27.788463	7.3625103	0.68182002	-30.92827284
5.02	502	-0.062	0.226	-0.586	-28.4187168	6.016059	-24.8090814	7.07030172	0.76776372	-31.16318562
5.03	503	0.042	0.631	-0.617	-4.9274388	8.1360036	-17.761698	7.0187355	0.87089616	-31.32934344
5.04	504	0.083	0.766	-0.689	-12.9488508	4.6982556	-7.6776372	6.88122558	0.92819196	-31.39236882
5.05	505	0.047	0.725	-0.684	-19.5378678	0.4010706	3.0366774	6.54318036	0.92819196	-31.36372092
5.06	506	0.039	0.507	-0.504	-22.5172494	0.2291832	5.2139178	6.31399716	0.92246238	-31.3121547
5.07	507	0.005	0.292	-0.456	-28.7624916	3.3804522	0.1718874	6.02178858	0.95111028	-31.30642512
5.08	508	0.082	0.089	-0.435	-25.6112226	8.1360036	-2.7501984	5.7582279	1.0313244	-31.31788428
5.09	509	0.124	-0.024	-0.428	-20.7410796	6.7609044	-1.145916	5.55196302	1.10007936	-31.31788428
5.1	510	0.158	-0.016	-0.438	-18.048177	-1.2032118	3.4950438	5.36288688	1.0886202	-31.2835068
5.11	511	0.158	0.044	-0.478	-15.1260912	-6.1306506	9.9121734	5.2139178	1.01413566	-31.19183352
5.12	512	0.157	0.137	-0.561	-14.610429	-7.734933	14.32395	5.06494872	0.92246238	-31.06005318
5.13	513	0.1	0.225	-0.666	-15.4125702	-10.0840608	14.4958374	4.91597964	0.80787078	-30.92827284
5.14	514	0.058	0.318	-0.714	-14.610429	-13.9228794	11.9175264	4.76701056	0.6589017	-30.8251404
5.15	515	0.032	0.376	-0.741	-11.45916	-16.615782	9.453807	4.60085274	0.4870143	-30.74492628
5.16	516	-0.023	0.399	-0.708	-8.8235532	-23.777757	8.0787078	4.51490904	0.24637194	-30.69336006
5.17	517	-0.112	0.442	-0.703	-4.0680018	-31.6845774	9.2819196	4.47480198	-0.06875496	-30.63033468
5.18	518	-0.181	0.49	-0.776	1.3178034	-28.2468294	12.3758928	4.49199072	-0.35523396	-30.5386614
5.19	519	-0.322	0.507	-0.893	2.86479	-19.480572	15.2979786	4.5263682	-0.56149884	-30.40688106
5.2	520	-0.442	0.502	-1.037	2.6929026	-6.589017	15.756345	4.51490904	-0.66463128	-30.25791198
5.21	521	-0.39	0.458	-1.181	1.145916	5.7868758	12.605076	4.5263682	-0.61879464	-30.12613164
5.22	522	-0.253	0.363	-1.325	-2.8074942	14.1520626	10.1413566	4.49199072	-0.4870143	-30.01154004
5.23	523	-0.144	0.335	-1.447	-7.448454	23.3766864	9.2819196	4.41750618	-0.26356068	-29.89694844
5.24	524	-0.043	0.394	-1.484	-8.6516658	29.2781538	6.9900876	4.3258329	0.01145916	-29.793816
5.25	525	-0.009	0.382	-1.421	-10.5424272	28.0176462	2.4064236	4.19978214	0.286479	-29.74224978
5.26	526	0.016	0.303	-1.264	-9.1100322	22.2307704	-0.2291832	4.10237928	0.50420304	-29.71933146
5.27	527	0.004	0.214	-1.155	-6.2452422	18.6784308	-0.4583664	4.0393539	0.6875496	-29.7078723
5.28	528	0.005	0.13	-1.065	-3.724227	17.4179232	0.286479	3.99924684	0.859437	-29.68495398
5.29	529	0.01	0.079	-1.022	-4.3544808	16.4438946	1.5469866	3.9534102	1.01986524	-29.65630608
5.3	530	0.014	0.059	-0.995	-3.8388186	17.761698	2.291832	3.87892566	1.18602306	-29.61619902
5.31	531	0.037	0.054	-0.992	-1.7761698	23.9496444	1.6615782	3.86173692	1.42093584	-29.57609196
5.32	532	0.065	0.05	-0.932	1.432395	28.0176462	0.286479	3.87319608	1.69595568	-29.54744406
5.33	533	0.087	0.028	-0.905	5.8441716	28.361421	-0.9167328	3.93049188	1.9767051	-29.53025532
5.34	534	0.09	-0.008	-0.923	10.2559482	24.4653066	-0.5156622	4.02789474	2.22307704	-29.51306658
5.35	535	0.093	-0.049	-0.946	11.9175264	19.2513888	1.0886202	4.14248634	2.42361234	-29.48441868
5.36	536	0.101	-0.076	-0.928	12.032118	13.5791046	3.8388186	4.2685371	2.55539268	-29.43285246
5.37	537	0.112	-0.12	-0.913	11.45916	8.2505952	6.3598338	4.38885828	2.62987722	-29.3640975
5.38	538	0.122	-0.168	-0.903	10.4278356	4.5263682	8.1360036	4.4977203	2.66998428	-29.2781538
5.39	539	0.137	-0.193	-0.92	8.880849	2.4064236	8.880849	4.58939358	2.68717302	-29.18648052
5.4	540	0.142	-0.218	-0.911	6.4171296	0.1718874	8.0787078	4.70398518	2.71582092	-29.1062664
5.41	541	0.126	-0.244	-0.899	3.151269	-1.5469866	5.3858052	4.74409224	2.69863218	-29.05470018
5.42	542	0.111	-0.28	-0.904	1.3178034	-0.1718874	2.1199446	4.7555514	2.6929026	-29.03178186
5.43	543	0.084	-0.313	-0.936	-0.6302538	1.145916	-0.0572958	4.74982182	2.70436176	-29.03178186
5.44	544	0.065	-0.337	-0.965	-3.724227	3.0939732	-1.3750992	4.70971476	2.73873924	-29.04324102
5.45	545	0.061	-0.345	-0.984	-6.7609044	6.4744254	-1.8907614	4.70971476	2.80176462	-29.0489706
5.46	546	0.061	-0.349	-0.999	-8.5370742	9.9121734	-1.7761698	4.61804148	2.89916748	-29.05470018
5.47	547	0.069	-0.339	-1.011	-9.5683986	12.032118	-1.432395	4.52063862	3.01948866	-29.06042976
5.48	548	0.076	-0.298	-1.018	-9.9121734	12.7769634	-1.432395	4.41750618	3.14553942	-29.06042976
5.49	549	0.099	-0.241	-1.005	-9.2246238	13.464513	-0.9740286	4.32010332	3.27731976	-29.05470018
5.5	550	0.103	-0.2	-0.993	-7.8495246	12.2613012	-0.4010706	4.2685371	3.4091001	-29.04324102
5.51	551	0.101	-0.171	-0.98	-6.8182002	10.2559482	-0.2291832	4.19405256	3.51223254	-29.03751144
5.52	552	0.088	-0.16	-0.972	-6.1879464	7.734933	-0.1145916	4.13102718	3.58671708	-29.02605228
5.53	553	0.079	-0.165	-0.963	-6.9900876	4.9274388	-0.286479	4.06227222	3.63255372	-29.02605228
5.54	554	0.07	-0.169	-0.959	-7.5057498	1.5469866	-0.6302538	3.9820581	3.64974246	-29.03178186
5.55	555	0.063	-0.161	-0.956	-6.6463128	-2.1772404	-0.6875496	3.9534102	3.62109456	-29.03751144
5.56	556	0.059	-0.142	-0.954	-5.5003968	-5.5003968	-0.4583664	3.8961144	3.56952834	-29.0489706
5.57	557	0.06	-0.115	-0.965	-4.4690724	-7.3911582	0.2291832	3.85027776	3.4950438	-29.0489706
5.58	558	0.057	-0.088	-0.988	-3.8388186	-7.3338624	1.0313244	3.8101707	3.42055926	-29.0489706
5.59	559	0.056	-0.066	-1.008	-2.86479	-6.4171296	1.6042824	3.78725238	3.35753388	-29.03751144
5.6	560	0.058	-0.051	-1.016	-1.5469866	-5.2139178	1.8334656	3.74141574	3.30023808	-29.02605228
5.61	561	0.062	-0.048	-1.014	-0.572958	-4.583664	1.8907614	3.74141574	3.25440144	-29.00886354
5.62	562	0.065	-0.048	-1.009	-0.5156622	-4.583664	1.8334656	3.73568616	3.2085648	-28.99740438
5.63	563	0.067	-0.045	-1.008	-0.8021412	-4.6982556	1.6615782	3.72995658	3.15699858	-28.98021564
5.64	564	0.071	-0.045	-0.997	-0.572958	-4.2398892	1.3178034	3.724227	3.11689152	-28.97448606
5.65	565	0.065	-0.045	-0.983	-1.145916	-3.2658606	0.572958	3.66120162	3.08824362	-28.97448606
5.66	566	0.065	-0.044	-0.982	-1.0886202	-2.6929026	0	3.65547204	3.05959572	-28.97448606
5.67	567	0.068	-0.041	-0.99	-0.286479	-1.718874	-0.4583664	3.64974246	3.04240698	-28.98021564
5.68	568	0.071	-0.038	-0.995	0.4583664	-0.7448454	-0.859437	3.65547204	3.0366774	-28.9916748
5.69	569	0.073	-0.035	-0.994	0.6302538	-0.572958	-0.9740286	3.66120162	3.03094782	-29.00313396
5.7	570	0.074	-0.036	-0.988	-0.0572958	-0.4010706	-0.9740286	3.5236917	3.07105488	-29.0203227
5.71	571	0.072	-0.036	-0.978	-1.2032118	-0.3437748	-0.9167328	3.50650296	3.07105488	-29.03178186
5.72	572	0.072	-0.033	-0.971	-2.291832	-0.1718874	-0.6875496	3.48358464	3.0653253	-29.03751144
5.73	573	0.071	-0.03	-0.976	-2.5210152	-0.4010706	-0.4010706	3.45493674	3.05959572	-29.04324102
5.74	574	0.067	-0.038	-0.984	-1.8907614	-0.6302538	-0.286479	3.437748	3.05386614	-29.04324102
5.75	575	0.057	-0.048	-0.994	-1.4896908	-0.7448454	-0.286479	3.35753388	3.03094782	-29.05470018
5.76	576	0.046	-0.063	-1.007	-1.2605076	-0.9167328	-0.4010706	3.34607472	3.01948866	-29.05470018
5.77	577	0.036	-0.079	-1.005	-2.005353	-1.2032118	-0.5156622	3.3231564	3.0080295	-29.06042976
5.78	578	0.03	-0.088	-0.995	-3.151269	-1.2032118	-0.4010706	3.2945085	2.99657034	-29.06615934
5.79	579	0.03	-0.091	-0.996	-3.437748	-0.2291832	-0.4010706	3.25440144	2.99657034	-29.07188892
5.8	580	0.037	-0.095	-0.997	-3.0366774	0.8021412	-0.286479	3.24294228	2.97365202	-29.07188892
5.81	581	0.038	-0.093	-0.995	-3.151269	0.6875496	-0.1718874	3.21429438	2.9793816	-29.07188892
5.82	582	0.043	-0.085	-0.996	-3.0939732	0.8021412	-0.1718874	3.1799169	2.99084076	-29.0776185
5.83	583	0.046	-0.08	-0.997	-2.3491278	1.2605076	-0.2291832	3.15699858	3.00229992	-29.0776185
5.84	584	0.047	-0.079	-0.995	-1.432395	1.3750992	-0.0572958	3.13980984	3.01375908	-29.0776185
5.85	585	0.047	-0.08	-0.991	-0.859437	1.6615782	0.3437748	3.13980984	3.0080295	-29.07188892
5.86	586	0.045	-0.085	-0.988	-0.572958	1.9480572	0.9167328	3.13408026	3.03094782	-29.06042976
5.87	587	0.048	-0.102	-0.979	-0.9167328	2.1772404	1.432395	3.1226211	3.04813656	-29.04324102
5.88	588	0.05	-0.111	-0.969	-2.005353	2.1199446	1.8334656	3.10543236	3.07105488	-29.0203227
5.89	589	0.058	-0.108	-0.972	-2.005353	2.0626488	2.005353	3.08824362	3.08824362	-29.00313396
5.9	590	0.065	-0.101	-0.98	-1.0313244	1.8907614	1.8907614	3.10543236	3.11116194	-28.98021564
5.91	591	0.069	-0.088	-0.986	-0.1145916	1.6042824	1.6615782	3.10543236	3.12835068	-28.9630269
5.92	592	0.07	-0.077	-0.995	0.1718874	1.0313244	1.2032118	3.10543236	3.13980984	-28.94583816
5.93	593	0.069	-0.069	-1.005	0.6302538	0.1145916	0.6875496	3.11689152	3.13980984	-28.94010858
5.94	594	0.072	-0.065	-1.004	1.2605076	-0.1718874	0.0572958	3.12835068	3.13408026	-28.94010858
5.95	595	0.073	-0.068	-0.997	1.2605076	-0.1718874	-0.286479	3.12835068	3.16845774	-28.94583816
5.96	596	0.076	-0.076	-0.986	0.3437748	-0.2291832	-0.6875496	3.12835068	3.16845774	-28.95156774
5.97	597	0.077	-0.083	-0.978	-1.145916	-0.8021412	-1.0313244	3.11689152	3.16272816	-28.9630269
5.98	598	0.079	-0.079	-0.976	-2.0626488	-1.145916	-1.2605076	3.09970278	3.151269	-28.97448606
5.99	599	0.083	-0.07	-0.982	-2.005353	-1.2032118	-1.4896908	3.07678446	3.13980984	-28.9916748
6	600	0.084	-0.059	-0.988	-1.2605076	-1.2032118	-1.6042824	3.0366774	3.15699858	-29.00886354
6.01	601	0.083	-0.054	-0.99	-0.7448454	-1.0886202	-1.7761698	3.03094782	3.14553942	-29.03178186
6.02	602	0.083	-0.055	-0.991	-0.8021412	-1.2032118	-1.8334656	3.01948866	3.13408026	-29.0489706
6.03	603	0.08	-0.056	-0.993	-0.4583664	-1.432395	-1.8907614	3.01375908	3.1226211	-29.07188892
6.04	604	0.078	-0.059	-1.004	0.5156622	-1.6615782	-1.718874	3.01948866	3.10543236	-29.08907766
6.05	605	0.07	-0.062	-1.007	2.86479	-2.1772404	-1.3750992	3.0366774	3.08824362	-29.1062664
6.06	606	0.06	-0.065	-1.004	3.8961144	-2.4064236	-0.859437	3.07678446	3.0653253	-29.11772556
6.07	607	0.052	-0.067	-1.007	4.1825934	-2.6929026	-0.4010706	3.1226211	3.04240698	-29.12345514
6.08	608	0.046	-0.068	-1.006	4.1252976	-3.2658606	0	3.16272816	3.0080295	-29.12345514
6.09	609	0.042	-0.069	-0.999	3.3804522	-3.8388186	0.286479	3.19710564	2.96792244	-29.12345514
6.1	610	0.039	-0.07	-0.989	2.291832	-3.9534102	0.5156622	3.21429438	2.91635622	-29.12345514
6.11	611	0.038	-0.072	-0.98	1.3750992	-3.6096354	0.6875496	3.23148312	2.88197874	-29.11772556
6.12	612	0.037	-0.077	-0.974	1.0313244	-3.2658606	0.859437	3.24294228	2.84760126	-29.11199598
6.13	613	0.034	-0.081	-0.975	1.718874	-2.86479	1.145916	3.26013102	2.81895336	-29.1062664
6.14	614	0.034	-0.079	-0.978	2.1772404	-2.291832	1.3178034	3.28304934	2.79603504	-29.09480724
6.15	615	0.037	-0.076	-0.982	2.3491278	-1.6615782	1.2032118	3.30596766	2.76165756	-29.08334808
6.16	616	0.041	-0.073	-0.986	1.8334656	-1.2605076	0.7448454	3.32888598	2.7501984	-29.0776185
6.17	617	0.046	-0.073	-0.991	1.7761698	-1.0313244	0.5156622	3.34607472	2.73873924	-29.07188892
6.18	618	0.051	-0.08	-0.989	1.6615782	-0.572958	0.4583664	3.36326346	2.73300966	-29.06615934
6.19	619	0.056	-0.087	-0.982	0.9167328	-0.3437748	0.5156622	3.37472262	2.72728008	-29.06042976
6.2	620	0.057	-0.093	-0.982	-0.0572958	-0.5156622	0.6302538	3.41482968	2.73873924	-29.05470018
6.21	621	0.061	-0.094	-0.989	-0.286479	-1.0313244	0.8021412	3.41482968	2.72728008	-29.0489706
6.22	622	0.066	-0.091	-0.992	0	-1.432395	0.8021412	3.41482968	2.71009134	-29.04324102
6.23	623	0.072	-0.089	-0.991	0.2291832	-1.8907614	0.859437	3.41482968	2.6929026	-29.03178186
6.24	624	0.072	-0.087	-0.99	0.1145916	-2.2345362	0.7448454	3.42055926	2.66998428	-29.02605228
6.25	625	0.07	-0.079	-0.99	-0.0572958	-2.4064236	0.6875496	3.4091001	2.66998428	-29.02605228
6.26	626	0.066	-0.072	-0.988	-0.0572958	-2.6929026	0.572958	3.4091001	2.64133638	-29.0203227
6.27	627	0.063	-0.066	-0.992	0	-2.86479	0.4010706	3.4091001	2.61268848	-29.0203227
6.28	628	0.059	-0.067	-0.986	-0.1145916	-3.3804522	0.286479	3.4091001	2.578311	-29.0203227
6.29	629	0.055	-0.073	-0.975	-1.2032118	-4.297185	0.0572958	3.39764094	2.53247436	-29.0203227
6.3	630	0.051	-0.073	-0.97	-2.005353	-4.5263682	-0.1145916	3.37472262	2.4923673	-29.02605228
6.31	631	0.047	-0.073	-0.97	-2.1199446	-4.3544808	-0.286479	3.3518043	2.44653066	-29.03178186
6.32	632	0.044	-0.07	-0.977	-1.6042824	-4.1252976	-0.4010706	3.33461556	2.4064236	-29.03751144
6.33	633	0.042	-0.068	-0.985	-0.572958	-3.6669312	-0.572958	3.32888598	2.37204612	-29.0489706
6.34	634	0.041	-0.069	-0.995	0.4010706	-3.3231564	-0.7448454	3.33461556	2.33766864	-29.06042976
6.35	635	0.038	-0.074	-1.003	0.6302538	-3.437748	-1.145916	3.34034514	2.291832	-29.07188892
6.36	636	0.037	-0.082	-0.991	-0.3437748	-3.6669312	-1.4896908	3.33461556	2.25745452	-29.09480724
6.37	637	0.039	-0.081	-0.979	-2.0626488	-3.437748	-1.6615782	3.31169724	2.22307704	-29.11199598
6.38	638	0.041	-0.076	-0.978	-2.578311	-2.9220858	-1.6615782	3.28304934	2.19442914	-29.12918472
6.39	639	0.044	-0.071	-0.98	-2.291832	-2.3491278	-1.432395	3.26013102	2.17151082	-29.14637346
6.4	640	0.045	-0.067	-0.984	-2.0626488	-1.7761698	-1.3178034	3.22575354	2.16005166	-29.1635622
6.41	641	0.045	-0.07	-0.987	-2.1199446	-1.4896908	-1.145916	3.2085648	2.14286292	-29.17502136
6.42	642	0.045	-0.074	-0.988	-2.3491278	-1.4896908	-1.145916	3.1799169	2.12567418	-29.18648052
6.43	643	0.048	-0.077	-0.989	-2.4637194	-1.718874	-1.145916	3.15699858	2.10848544	-29.19793968
6.44	644	0.047	-0.082	-0.985	-2.6929026	-2.291832	-0.9740286	3.12835068	2.0912967	-29.20939884
6.45	645	0.046	-0.086	-0.98	-3.4950438	-3.3804522	-0.859437	3.09970278	2.05691922	-29.220858
6.46	646	0.044	-0.083	-0.979	-3.8961144	-4.4117766	-0.8021412	3.05959572	2.01108258	-29.23231716
6.47	647	0.042	-0.079	-0.983	-3.437748	-4.583664	-0.6875496	3.02521824	1.96524594	-29.24377632
6.48	648	0.04	-0.076	-0.992	-2.4637194	-4.0680018	-0.572958	3.00229992	1.92513888	-29.25523548
6.49	649	0.036	-0.076	-0.996	-1.7761698	-3.3804522	-0.4010706	2.98511118	1.89649098	-29.26096506
6.5	650	0.035	-0.078	-0.997	-1.3750992	-2.6356068	-0.3437748	2.97365202	1.8621135	-29.26669464
6.51	651	0.034	-0.08	-0.999	-1.0886202	-1.8334656	-0.2291832	2.96792244	1.84492476	-29.27242422
6.52	652	0.033	-0.078	-0.998	-0.7448454	-1.2032118	-0.1718874	2.95646328	1.8334656	-29.27242422
6.53	653	0.035	-0.075	-0.995	-0.5156622	-0.572958	0	2.9507337	1.82773602	-29.27242422
6.54	654	0.036	-0.073	-0.988	-0.6302538	-0.2291832	0.0572958	2.94500412	1.82200644	-29.27242422
6.55	655	0.036	-0.069	-0.984	-0.9740286	0	0.1718874	2.9220858	1.81054728	-29.27242422
6.56	656	0.036	-0.069	-0.982	-0.9740286	-0.1145916	0.2291832	2.91635622	1.81054728	-29.27242422
6.57	657	0.037	-0.068	-0.982	-0.859437	-0.1145916	0.286479	2.90489706	1.8048177	-29.26669464
6.58	658	0.037	-0.07	-0.982	-0.6875496	-0.4010706	0.286479	2.89916748	1.8048177	-29.26096506
6.59	659	0.038	-0.072	-0.982	-0.7448454	-0.859437	0.3437748	2.8934379	1.79335854	-29.26096506
6.6	660	0.04	-0.075	-0.986	-0.859437	-1.2605076	0.286479	2.8934379	1.78189938	-29.26096506
6.61	661	0.038	-0.078	-0.984	-1.3750992	-1.718874	0.0572958	2.88197874	1.76471064	-29.26096506
6.62	662	0.037	-0.076	-0.983	-1.6042824	-1.718874	-0.1718874	2.86479	1.7475219	-29.26096506
6.63	663	0.036	-0.074	-0.986	-1.6042824	-1.3750992	-0.3437748	2.84760126	1.73606274	-29.26669464
6.64	664	0.034	-0.072	-0.985	-1.4896908	-1.2605076	-0.4010706	2.83041252	1.72460358	-29.27242422
6.65	665	0.033	-0.069	-0.987	-1.4896908	-1.0313244	-0.572958	2.81322378	1.70168526	-29.2781538
6.66	666	0.032	-0.068	-0.992	-0.9740286	-0.572958	-0.7448454	2.80176462	1.69595568	-29.28388338
6.67	667	0.033	-0.065	-0.997	-0.286479	0	-0.8021412	2.80176462	1.70168526	-29.29534254
6.68	668	0.034	-0.065	-0.998	0.2291832	0.1145916	-0.572958	2.80176462	1.70168526	-29.30107212
6.69	669	0.037	-0.066	-0.996	0.5156622	-0.1145916	-0.3437748	2.8074942	1.70168526	-29.3068017
6.7	670	0.04	-0.066	-0.997	0.7448454	-0.6302538	-0.0572958	2.8074942	1.70168526	-29.3068017
6.71	671	0.04	-0.07	-0.993	0.7448454	-1.3750992	0.0572958	2.81895336	1.6902261	-29.3068017
6.72	672	0.039	-0.073	-0.986	0.1145916	-1.6615782	0	2.81895336	1.67303736	-29.3068017
6.73	673	0.043	-0.074	-0.981	-0.5156622	-1.6615782	0.1145916	2.81322378	1.65584862	-29.3068017
6.74	674	0.046	-0.074	-0.98	-0.8021412	-1.3750992	0.3437748	2.80176462	1.64438946	-29.3068017
6.75	675	0.042	-0.074	-0.978	-0.859437	-1.2605076	0.4583664	2.80176462	1.63865988	-29.30107212
6.76	676	0.038	-0.071	-0.98	-1.0313244	-0.9740286	0.2291832	2.79030546	1.62720072	-29.30107212
6.77	677	0.038	-0.071	-0.985	-1.0313244	-0.572958	-0.2291832	2.7788463	1.62147114	-29.30107212
6.78	678	0.04	-0.072	-0.988	-0.859437	-0.8021412	-0.5156622	2.77311672	1.61574156	-29.3068017
6.79	679	0.043	-0.074	-0.984	-0.9740286	-1.3178034	-0.6875496	2.76165756	1.59855282	-29.31826086
6.8	680	0.045	-0.076	-0.981	-1.0313244	-1.5469866	-0.859437	2.76165756	1.6042824	-29.32399044
6.81	681	0.043	-0.077	-0.983	-0.9167328	-1.718874	-0.8021412	2.75592798	1.58709366	-29.3354496
6.82	682	0.038	-0.076	-0.988	-0.9167328	-1.5469866	-0.7448454	2.74446882	1.56990492	-29.34690876
6.83	683	0.036	-0.073	-0.989	-1.3750992	-1.2032118	-0.8021412	2.72728008	1.55844576	-29.35263834
6.84	684	0.036	-0.072	-0.989	-1.9480572	-0.5156622	-0.9740286	2.71009134	1.55271618	-29.3640975
6.85	685	0.034	-0.068	-0.988	-2.4064236	-0.1718874	-1.0313244	2.68144344	1.5469866	-29.37555666
6.86	686	0.031	-0.064	-0.988	-2.2345362	-0.286479	-1.2605076	2.65852512	1.5469866	-29.38701582
6.87	687	0.029	-0.061	-0.987	-2.0626488	-0.5156622	-1.4896908	2.64133638	1.54125702	-29.40420456
6.88	688	0.027	-0.059	-0.989	-1.8334656	-0.6875496	-1.6615782	2.61841806	1.53552744	-29.4213933
6.89	689	0.025	-0.06	-0.985	-1.6615782	-1.145916	-1.8907614	2.60122932	1.52406828	-29.43858204
6.9	690	0.025	-0.06	-0.98	-1.7761698	-1.6042824	-1.8907614	2.578311	1.50114996	-29.46150036
6.91	691	0.027	-0.06	-0.978	-1.4896908	-1.6615782	-1.718874	2.56112226	1.48396122	-29.4786891
6.92	692	0.027	-0.06	-0.978	-1.3750992	-1.2605076	-1.432395	2.5496631	1.47250206	-29.49587784
6.93	693	0.026	-0.061	-0.98	-1.2605076	-0.6302538	-1.145916	2.53247436	1.46677248	-29.507337
6.94	694	0.027	-0.063	-0.985	-1.2032118	-0.286479	-0.9740286	2.5210152	1.46677248	-29.51306658
6.95	695	0.03	-0.064	-0.988	-0.859437	0	-0.8021412	2.51528562	1.45531332	-29.52452574
6.96	696	0.031	-0.066	-0.985	-0.7448454	0.2291832	-0.6875496	2.50955604	1.4610429	-29.53025532
6.97	697	0.035	-0.067	-0.987	-0.6302538	0.4583664	-0.4010706	2.49809688	1.46677248	-29.5359849
6.98	698	0.038	-0.067	-0.989	-0.572958	0.572958	-0.1145916	2.4923673	1.47250206	-29.5359849
6.99	699	0.038	-0.066	-0.994	-0.3437748	0.5156622	0.0572958	2.4923673	1.47823164	-29.53025532
7	700	0.04	-0.067	-0.993	-0.2291832	0.5156622	0.2291832	2.50382646	1.50687954	-29.53025532
7.01	701	0.039	-0.069	-0.992	-0.5156622	0.4010706	0.4010706	2.49809688	1.51260912	-29.52452574
7.02	702	0.039	-0.071	-0.989	-0.9167328	0	0.3437748	2.48663772	1.51260912	-29.51879616
7.03	703	0.04	-0.07	-0.988	-1.0313244	-0.3437748	0.4010706	2.47517856	1.50687954	-29.51879616
7.04	704	0.04	-0.069	-0.988	-1.0313244	-0.572958	0.4010706	2.4637194	1.50114996	-29.51306658
7.05	705	0.037	-0.067	-0.986	-1.2032118	-0.572958	0.4583664	2.45798982	1.50114996	-29.507337
7.06	706	0.034	-0.067	-0.986	-1.2032118	-0.572958	0.4583664	2.44653066	1.49542038	-29.50160742
7.07	707	0.031	-0.068	-0.986	-1.145916	-0.3437748	0.5156622	2.4350715	1.4896908	-29.49587784
7.08	708	0.031	-0.068	-0.988	-0.9167328	0.1145916	0.572958	2.42361234	1.4896908	-29.49014826
7.09	709	0.034	-0.068	-0.991	-0.859437	0.9167328	0.5156622	2.41788276	1.50114996	-29.48441868
7.1	710	0.035	-0.068	-0.992	-0.9167328	1.0886202	0.4010706	2.41788276	1.5183387	-29.4786891
7.11	711	0.035	-0.069	-0.992	-0.9740286	1.0886202	0.3437748	2.4064236	1.52406828	-29.4786891
7.12	712	0.035	-0.072	-0.99	-1.2605076	0.9740286	0.2291832	2.39496444	1.53552744	-29.47295952
7.13	713	0.035	-0.074	-0.987	-1.6042824	1.0313244	0	2.3777757	1.5469866	-29.47295952
7.14	714	0.036	-0.072	-0.988	-1.6615782	0.9167328	-0.0572958	2.36058696	1.55844576	-29.47295952
7.15	715	0.038	-0.068	-0.987	-1.6615782	0.6875496	-0.0572958	2.35485738	1.5756345	-29.47295952
7.16	716	0.038	-0.062	-0.987	-1.8334656	0.8021412	-0.0572958	2.33766864	1.58136408	-29.47295952
7.17	717	0.038	-0.055	-0.986	-2.0626488	0.5156622	0	2.31475032	1.58709366	-29.47295952
7.18	718	0.038	-0.054	-0.987	-2.2345362	0.4583664	-0.0572958	2.291832	1.59282324	-29.47295952
7.19	719	0.037	-0.053	-0.988	-2.1199446	0.3437748	0	2.26891368	1.59855282	-29.47295952
7.2	720	0.035	-0.054	-0.989	-1.9480572	0.1718874	-0.0572958	2.24026578	1.59282324	-29.47295952
7.21	721	0.033	-0.055	-0.989	-1.8907614	0.286479	0	2.22307704	1.59855282	-29.47295952
7.22	722	0.033	-0.053	-0.989	-2.005353	0.3437748	0	2.20015872	1.6042824	-29.47295952
7.23	723	0.033	-0.052	-0.991	-1.8334656	0.4010706	0	2.18296998	1.6042824	-29.47295952
7.24	724	0.033	-0.052	-0.99	-1.5469866	0.5156622	0	2.16578124	1.61001198	-29.47295952
7.25	725	0.034	-0.054	-0.989	-1.145916	0.7448454	-0.1145916	2.1485925	1.62147114	-29.47295952
7.26	726	0.037	-0.058	-0.989	-1.0886202	0.6875496	-0.286479	2.13713334	1.62720072	-29.47295952
7.27	727	0.038	-0.062	-0.984	-1.2605076	0.286479	-0.4010706	2.12567418	1.62720072	-29.4786891
7.28	728	0.038	-0.062	-0.983	-1.2605076	0	-0.4010706	2.10848544	1.62720072	-29.48441868
7.29	729	0.036	-0.058	-0.986	-0.9740286	-0.1718874	-0.286479	2.10275586	1.62720072	-29.48441868
7.3	730	0.036	-0.055	-0.989	-0.572958	-0.1145916	-0.1145916	2.08556712	1.61574156	-29.49014826
7.31	731	0.035	-0.055	-0.989	-0.6875496	0.0572958	0	2.07410796	1.61574156	-29.48441868
7.32	732	0.034	-0.057	-0.988	-0.8021412	0.286479	0	2.06837838	1.62147114	-29.48441868
7.33	733	0.035	-0.058	-0.988	-1.0886202	0.7448454	-0.0572958	2.05691922	1.62720072	-29.48441868
7.34	734	0.037	-0.057	-0.992	-1.2032118	1.0313244	-0.0572958	2.03973048	1.63865988	-29.48441868
7.35	735	0.038	-0.056	-0.995	-1.145916	0.5156622	0.1718874	2.0340009	1.65011904	-29.48441868
7.36	736	0.036	-0.059	-0.989	-1.2605076	-0.0572958	0.3437748	2.02254174	1.65011904	-29.4786891
7.37	737	0.033	-0.059	-0.981	-1.8907614	0.1145916	0.286479	1.99962342	1.65011904	-29.4786891
7.38	738	0.03	-0.059	-0.981	-2.4637194	0.7448454	0.0572958	1.9767051	1.65584862	-29.4786891
7.39	739	0.029	-0.057	-0.987	-2.2345362	1.145916	0	1.95378678	1.66730778	-29.47295952
7.4	740	0.033	-0.056	-0.989	-1.6615782	1.2032118	0	1.93659804	1.67876694	-29.47295952
7.41	741	0.037	-0.055	-0.985	-1.3178034	1.6042824	0.286479	1.92513888	1.69595568	-29.47295952
7.42	742	0.038	-0.055	-0.982	-0.859437	2.1772404	0.9167328	1.91367972	1.71314442	-29.46150036
7.43	743	0.039	-0.053	-0.979	-0.6302538	3.7815228	1.6042824	1.90795014	1.75325148	-29.43858204
7.44	744	0.04	-0.053	-0.976	-0.4010706	5.443101	2.005353	1.90795014	1.8048177	-29.41566372
7.45	745	0.041	-0.052	-0.975	-0.3437748	6.4171296	1.8907614	1.90222056	1.86784308	-29.3927454
7.46	746	0.037	-0.052	-0.98	-0.1718874	6.875496	1.432395	1.89649098	1.93659804	-29.37555666
7.47	747	0.035	-0.054	-0.983	0	7.3338624	0.9167328	1.89649098	2.01108258	-29.3640975
7.48	748	0.035	-0.055	-0.985	-0.1145916	7.448454	0.286479	1.89649098	2.08556712	-29.35263834
7.49	749	0.036	-0.053	-0.993	-0.2291832	6.7036086	-0.1145916	1.8907614	2.1485925	-29.35263834
7.5	750	0.041	-0.052	-0.995	-0.3437748	5.5576926	-0.2291832	1.88503182	2.2058883	-29.35263834
7.51	751	0.048	-0.05	-0.993	-0.3437748	4.2398892	-0.4010706	1.87930224	2.24599536	-29.35263834
7.52	752	0.056	-0.052	-0.994	-0.286479	2.86479	-0.2291832	1.87930224	2.27464326	-29.35263834
7.53	753	0.058	-0.051	-0.996	-0.1145916	1.432395	0.0572958	1.87930224	2.291832	-29.35263834
7.54	754	0.059	-0.052	-1	0.2291832	0.3437748	0.1145916	1.87930224	2.291832	-29.35263834
7.55	755	0.059	-0.055	-1.001	0.4010706	-0.3437748	0.286479	1.8907614	2.32620948	-29.34690876
7.56	756	0.058	-0.057	-1.002	0.4010706	-0.6875496	0.3437748	1.89649098	2.3204799	-29.34690876
7.57	757	0.058	-0.06	-0.999	0.2291832	-0.3437748	0.5156622	1.90222056	2.3204799	-29.34117918
7.58	758	0.058	-0.061	-0.994	-0.4010706	0.0572958	0.4010706	1.89649098	2.3204799	-29.3354496
7.59	759	0.056	-0.06	-0.987	-0.9740286	0.1718874	0.3437748	1.88503182	2.3204799	-29.32972002
7.6	760	0.055	-0.058	-0.985	-0.9167328	0	0.286479	1.89649098	2.34339822	-29.32972002
7.61	761	0.055	-0.058	-0.983	-0.9740286	0	0.2291832	1.88503182	2.34339822	-29.32399044
7.62	762	0.054	-0.057	-0.98	-1.3178034	-0.1718874	0.286479	1.87357266	2.34339822	-29.32399044
7.63	763	0.051	-0.055	-0.979	-1.5469866	-0.2291832	0.286479	1.85638392	2.33766864	-29.31826086
7.64	764	0.048	-0.056	-0.984	-1.3178034	0	0.286479	1.84492476	2.33766864	-29.31826086
7.65	765	0.046	-0.058	-0.989	-1.2032118	0.4010706	0.0572958	1.84492476	2.33766864	-29.31253128
7.66	766	0.047	-0.059	-0.99	-1.2032118	0.4583664	-0.0572958	1.8334656	2.34339822	-29.31253128
7.67	767	0.047	-0.062	-0.994	-1.2032118	0.4583664	-0.1145916	1.82200644	2.34339822	-29.31253128
7.68	768	0.047	-0.065	-0.996	-1.2032118	0.1718874	-0.1145916	1.81054728	2.3491278	-29.31826086
7.69	769	0.046	-0.064	-0.992	-1.432395	0	-0.0572958	1.79335854	2.3491278	-29.31826086
7.7	770	0.045	-0.06	-0.988	-1.7761698	0	0	1.78762896	2.34339822	-29.31826086
7.71	771	0.047	-0.053	-0.99	-1.6042824	0	0	1.77044022	2.34339822	-29.31826086
7.72	772	0.049	-0.048	-0.994	-1.0886202	-0.0572958	0	1.76471064	2.33766864	-29.31826086
7.73	773	0.049	-0.046	-0.994	-0.8021412	0	0	1.75325148	2.33766864	-29.31826086
7.74	774	0.049	-0.048	-0.992	-0.6875496	0.1718874	-0.0572958	1.7475219	2.34339822	-29.31826086
7.75	775	0.05	-0.05	-0.993	-0.5156622	0.1718874	-0.0572958	1.7475219	2.36058696	-29.31826086
7.76	776	0.052	-0.054	-0.991	-0.4583664	0.1145916	-0.0572958	1.74179232	2.36058696	-29.31826086
7.77	777	0.053	-0.056	-0.989	-0.4010706	0.0572958	-0.0572958	1.74179232	2.36058696	-29.31826086
7.78	778	0.053	-0.06	-0.989	-0.4583664	-0.4010706	-0.1718874	1.73606274	2.35485738	-29.32399044
7.79	779	0.052	-0.063	-0.985	-0.572958	-0.9167328	-0.286479	1.73033316	2.3491278	-29.32399044
7.8	780	0.05	-0.062	-0.98	-0.9740286	-0.9167328	-0.5156622	1.73606274	2.33766864	-29.32972002
7.81	781	0.05	-0.06	-0.982	-1.3750992	-0.6302538	-0.6875496	1.72460358	2.33193906	-29.3354496
7.82	782	0.05	-0.053	-0.984	-1.4896908	-0.4010706	-0.7448454	1.70741484	2.33193906	-29.34690876
7.83	783	0.049	-0.047	-0.988	-1.432395	-0.3437748	-0.7448454	1.6902261	2.32620948	-29.35263834
7.84	784	0.049	-0.047	-0.993	-1.6615782	-0.4010706	-0.6302538	1.67303736	2.3204799	-29.35836792
7.85	785	0.051	-0.045	-0.989	-2.0626488	-0.8021412	-0.4583664	1.65011904	2.3204799	-29.3640975
7.86	786	0.051	-0.046	-0.986	-2.4637194	-1.0886202	-0.286479	1.62147114	2.30902074	-29.36982708
7.87	787	0.052	-0.046	-0.985	-2.4637194	-1.145916	-0.0572958	1.59855282	2.29756158	-29.36982708
7.88	788	0.053	-0.044	-0.987	-2.1199446	-0.9740286	0.1145916	1.5756345	2.28610242	-29.36982708
7.89	789	0.051	-0.044	-0.991	-1.4896908	-0.572958	0.2291832	1.56417534	2.28037284	-29.3640975
7.9	790	0.048	-0.046	-0.993	-1.0886202	-0.1145916	0.1145916	1.55271618	2.28037284	-29.3640975
7.91	791	0.046	-0.05	-0.996	-0.9167328	0.3437748	0	1.54125702	2.28037284	-29.3640975
7.92	792	0.045	-0.05	-0.992	-0.859437	0.6302538	-0.1145916	1.52979786	2.291832	-29.3640975
7.93	793	0.046	-0.047	-0.99	-0.859437	0.859437	-0.1718874	1.52406828	2.29756158	-29.36982708
7.94	794	0.047	-0.047	-0.988	-1.145916	0.8021412	-0.2291832	1.51260912	2.30902074	-29.36982708
7.95	795	0.048	-0.044	-0.986	-1.3750992	0.572958	-0.2291832	1.48396122	2.31475032	-29.36982708
7.96	796	0.048	-0.041	-0.987	-1.145916	0.4583664	-0.286479	1.47250206	2.3204799	-29.37555666
7.97	797	0.051	-0.042	-0.988	-0.9167328	-0.0572958	-0.286479	1.4610429	2.3204799	-29.37555666
7.98	798	0.053	-0.044	-0.987	-0.9167328	-0.859437	-0.2291832	1.45531332	2.30902074	-29.38128624
7.99	799	0.05	-0.047	-0.989	-0.859437	-1.3750992	0	1.44385416	2.29756158	-29.38128624
8	800	0.046	-0.049	-0.99	-1.0886202	-1.4896908	0.0572958	1.44385416	2.28037284	-29.38128624
8.01	801	0.045	-0.052	-0.988	-1.145916	-1.2605076	0.1145916	1.432395	2.2631841	-29.38128624
8.02	802	0.046	-0.057	-0.98	-1.5469866	-0.9740286	0.0572958	1.41520626	2.25745452	-29.38128624
8.03	803	0.048	-0.058	-0.98	-1.6615782	-1.145916	0.1718874	1.39801752	2.24599536	-29.37555666
8.04	804	0.044	-0.055	-0.987	-1.5469866	-1.6042824	0.4010706	1.38082878	2.22880662	-29.37555666
8.05	805	0.039	-0.051	-0.994	-1.0886202	-1.2605076	0.5156622	1.38082878	2.20015872	-29.36982708
8.06	806	0.041	-0.051	-0.998	-1.0886202	-0.4010706	0.4010706	1.36936962	2.20015872	-29.3640975
8.07	807	0.045	-0.051	-0.994	-1.3178034	-0.0572958	0.2291832	1.35791046	2.19442914	-29.3640975
8.08	808	0.05	-0.052	-0.992	-1.6042824	-0.1718874	0.1718874	1.34072172	2.19442914	-29.35836792
8.09	809	0.054	-0.048	-0.986	-1.6042824	-1.145916	0.286479	1.32353298	2.18296998	-29.35836792
8.1	810	0.056	-0.044	-0.983	-1.432395	-2.2345362	0.5156622	1.31207382	2.17151082	-29.35263834
8.11	811	0.055	-0.039	-0.991	-0.9167328	-2.5210152	0.6875496	1.30061466	2.1485925	-29.34690876
8.12	812	0.051	-0.037	-0.994	-0.5156622	-2.4637194	0.8021412	1.29488508	2.1199446	-29.34117918
8.13	813	0.051	-0.038	-0.993	-0.286479	-2.4064236	1.0886202	1.29488508	2.09702628	-29.32972002
8.14	814	0.053	-0.04	-0.992	-0.2291832	-2.1772404	1.145916	1.29488508	2.07410796	-29.31826086
8.15	815	0.056	-0.041	-0.993	-0.2291832	-2.0626488	1.3750992	1.2891555	2.06837838	-29.3068017
8.16	816	0.058	-0.04	-0.994	-0.286479	-2.3491278	1.4896908	1.2891555	2.04546006	-29.29534254
8.17	817	0.057	-0.039	-0.997	-0.286479	-2.578311	1.4896908	1.28342592	2.01681216	-29.2781538
8.18	818	0.054	-0.04	-0.998	-0.2291832	-2.578311	1.3178034	1.28342592	1.99389384	-29.26669464
8.19	819	0.048	-0.042	-0.997	-0.1718874	-2.5210152	1.145916	1.28342592	1.96524594	-29.25523548
8.2	820	0.042	-0.043	-0.994	-0.286479	-2.4064236	0.9167328	1.27769634	1.94232762	-29.2495059
8.21	821	0.038	-0.045	-0.994	-0.4010706	-2.005353	0.3437748	1.27196676	1.92513888	-29.24377632
8.22	822	0.037	-0.045	-0.996	-0.1718874	-1.718874	0	1.27196676	1.90222056	-29.24377632
8.23	823	0.038	-0.044	-0.997	0	-1.5469866	-0.3437748	1.27196676	1.8907614	-29.2495059
8.24	824	0.04	-0.043	-0.994	0.0572958	-1.3178034	-0.6302538	1.27196676	1.87357266	-29.25523548
8.25	825	0.041	-0.041	-0.995	0.0572958	-1.2605076	-0.8021412	1.27196676	1.86784308	-29.26669464
8.26	826	0.042	-0.042	-0.995	0	-1.2605076	-0.6875496	1.27196676	1.85638392	-29.27242422
8.27	827	0.043	-0.043	-0.991	-0.0572958	-1.3750992	-0.7448454	1.26623718	1.83919518	-29.28388338
8.28	828	0.042	-0.043	-0.988	-0.1145916	-1.4896908	-0.7448454	1.26623718	1.82773602	-29.28961296
8.29	829	0.041	-0.043	-0.99	-0.2291832	-1.3178034	-0.7448454	1.26623718	1.81054728	-29.30107212
8.3	830	0.037	-0.044	-0.992	0	-1.3750992	-0.8021412	1.26623718	1.79335854	-29.3068017
8.31	831	0.036	-0.044	-0.989	0	-1.2605076	-0.8021412	1.26623718	1.78189938	-29.31826086
8.32	832	0.037	-0.045	-0.988	0.2291832	-1.0886202	-0.7448454	1.26623718	1.77044022	-29.32972002
8.33	833	0.039	-0.045	-0.99	0.286479	-0.6302538	-0.6302538	1.27196676	1.76471064	-29.3354496
8.34	834	0.041	-0.046	-0.992	0.3437748	-0.1718874	-0.5156622	1.27196676	1.76471064	-29.34117918
8.35	835	0.043	-0.047	-0.992	0.1718874	0	-0.4010706	1.31207382	1.8048177	-29.34117918
8.36	836	0.046	-0.049	-0.994	0.2291832	-0.1718874	-0.3437748	1.3178034	1.8048177	-29.34690876
8.37	837	0.048	-0.049	-0.992	0.1718874	-0.572958	-0.2291832	1.3178034	1.79908812	-29.34690876
8.38	838	0.047	-0.049	-0.993	0.1718874	-1.0313244	-0.1145916	1.3178034	1.78762896	-29.35263834
8.39	839	0.045	-0.047	-0.99	0	-1.6042824	0	1.3178034	1.77044022	-29.35263834
8.4	840	0.043	-0.045	-0.987	-0.0572958	-1.8907614	0.0572958	1.32353298	1.75898106	-29.35263834
8.41	841	0.041	-0.043	-0.987	0	-2.1772404	0.1145916	1.32353298	1.74179232	-29.35263834
8.42	842	0.039	-0.042	-0.989	0	-2.4064236	0.1718874	1.32353298	1.718874	-29.35263834
8.43	843	0.037	-0.044	-0.99	0.0572958	-2.5210152	0.286479	1.32353298	1.6902261	-29.35263834
8.44	844	0.037	-0.046	-0.99	-0.1145916	-2.4064236	0.286479	1.32353298	1.66730778	-29.34690876
8.45	845	0.038	-0.048	-0.985	-0.3437748	-2.1772404	0.286479	1.32353298	1.65011904	-29.34690876
8.46	846	0.04	-0.048	-0.986	-0.4010706	-2.1199446	0.4010706	1.32353298	1.62720072	-29.34117918
8.47	847	0.044	-0.046	-0.987	-0.2291832	-2.1199446	0.6302538	1.3178034	1.61001198	-29.3354496
8.48	848	0.044	-0.042	-0.989	-0.1145916	-2.005353	0.6302538	1.3178034	1.58709366	-29.32972002
8.49	849	0.041	-0.041	-0.989	0.0572958	-1.8907614	0.5156622	1.3178034	1.56990492	-29.32972002
8.5	850	0.037	-0.042	-0.991	0.2291832	-1.432395	0.286479	1.32353298	1.55844576	-29.32399044
8.51	851	0.031	-0.045	-0.991	0.4010706	-0.859437	0.1145916	1.32353298	1.5469866	-29.32399044
8.52	852	0.028	-0.047	-0.991	0.4583664	-0.4010706	-0.0572958	1.32926256	1.54125702	-29.32399044
8.53	853	0.027	-0.047	-0.989	0.5156622	0.0572958	-0.0572958	1.33499214	1.54125702	-29.32399044
8.54	854	0.029	-0.046	-0.99	0.3437748	0	-0.1145916	1.34072172	1.54125702	-29.32972002
8.55	855	0.03	-0.045	-0.987	0.3437748	-0.572958	-0.2291832	1.34072172	1.52406828	-29.32972002
8.56	856	0.033	-0.043	-0.988	0.1145916	-0.9167328	-0.2291832	1.34072172	1.5183387	-29.3354496
8.57	857	0.036	-0.044	-0.989	0.2291832	-0.9740286	-0.0572958	1.34072172	1.50687954	-29.3354496
8.58	858	0.036	-0.043	-0.989	0.3437748	-0.8021412	0.0572958	1.3464513	1.50114996	-29.3354496
8.59	859	0.033	-0.043	-0.987	0.6875496	-0.1145916	0.2291832	1.35218088	1.49542038	-29.32972002
8.6	860	0.034	-0.041	-0.99	1.3750992	2.291832	0.3437748	1.36364004	1.52406828	-29.32972002
8.61	861	0.04	-0.036	-0.996	2.6929026	6.9327918	0.6302538	1.39228794	1.59282324	-29.31826086
8.62	862	0.052	-0.032	-0.993	4.870143	13.0634424	1.145916	1.44385416	1.718874	-29.30107212
8.63	863	0.058	-0.027	-0.984	6.9327918	19.6524594	1.6615782	1.51260912	1.91367972	-29.27242422
8.64	864	0.053	-0.03	-0.975	8.880849	24.0069402	2.291832	1.59855282	2.15432208	-29.23804674
8.65	865	0.046	-0.041	-0.968	9.2246238	24.4653066	2.1199446	1.6902261	2.39496444	-29.20366926
8.66	866	0.044	-0.057	-0.973	8.1360036	22.1161788	1.5469866	1.77044022	2.61268848	-29.17502136
8.67	867	0.045	-0.069	-0.974	7.1046792	18.2773602	1.3178034	1.84492476	2.79603504	-29.15210304
8.68	868	0.051	-0.078	-0.978	6.1306506	13.4072172	0.9740286	1.90222056	2.92781538	-29.1349143
8.69	869	0.052	-0.077	-0.989	5.2712136	8.3651868	0.9167328	1.95951636	3.0080295	-29.11772556
