TimeStamp(s)	FrameCounter	AccX	AccY	AccZ	GyrX	GyrY	GyrZ	EulerX	EulerY	EulerZ
0.01	1	-0.03	-1.007	0.067	0.1145916	-1.3178034	-0.572958	91.67328	0.36669312	-20.0248821
0.02	2	-0.029	-1.008	0.067	0.1718874	-1.0313244	-0.5156622	91.67328	0.3724227	-20.03061168
0.03	3	-0.027	-1.007	0.067	-0.1145916	-0.9167328	-0.6302538	91.67328	0.37815228	-20.04207084
0.04	4	-0.023	-1.005	0.068	-0.1145916	-0.8021412	-0.6302538	91.67328	0.38388186	-20.04780042
0.05	5	-0.02	-1.003	0.068	0	-0.572958	-0.6875496	91.7305758	0.27501984	-19.9962342
0.06	6	-0.016	-1.001	0.066	0.2291832	0	-0.6875496	91.7305758	0.28074942	-19.9962342
0.07	7	-0.018	-1.002	0.069	1.0886202	0.9167328	-0.6302538	91.74203496	0.286479	-19.98477504
0.08	8	-0.021	-1.004	0.07	1.4896908	1.4896908	-0.5156622	91.7592237	0.29220858	-19.97331588
0.09	9	-0.023	-1.006	0.068	1.3178034	1.718874	-0.4010706	91.77068286	0.29793816	-19.95612714
0.1	10	-0.024	-1.007	0.069	1.2605076	1.6042824	-0.4010706	91.81078992	0.23491278	-19.90456092
0.11	11	-0.023	-1.007	0.071	1.0313244	1.4896908	-0.3437748	91.82224908	0.23491278	-19.88737218
0.12	12	-0.021	-1.008	0.071	0.9740286	1.2605076	-0.4010706	91.83370824	0.24064236	-19.87591302
0.13	13	-0.02	-1.007	0.07	0.8021412	1.0886202	-0.4010706	91.83943782	0.24064236	-19.86445386
0.14	14	-0.019	-1.005	0.069	0.6302538	1.0886202	-0.4010706	91.85089698	0.24637194	-19.8529947
0.15	15	-0.018	-1.004	0.067	0.5156622	1.0313244	-0.3437748	91.88527446	0.16615782	-19.80142848
0.16	16	-0.018	-1.004	0.068	0.5156622	0.572958	-0.286479	91.89100404	0.1718874	-19.7956989
0.17	17	-0.017	-1.004	0.07	0.4010706	0.1718874	-0.3437748	91.89673362	0.1718874	-19.7956989
0.18	18	-0.017	-1.006	0.069	0.1718874	-0.1718874	-0.4010706	91.89673362	0.17761698	-19.7956989
0.19	19	-0.018	-1.007	0.067	0	-0.4010706	-0.572958	91.89673362	0.18334656	-19.80142848
0.2	20	-0.018	-1.006	0.064	0.1718874	-0.4010706	-0.7448454	91.91965194	0.10313244	-19.76132142
0.21	21	-0.019	-1.005	0.063	0.9167328	0.1718874	-0.6875496	91.9311111	0.10886202	-19.75559184
0.22	22	-0.022	-1.006	0.063	1.2032118	0.9740286	-0.5156622	91.94257026	0.1145916	-19.74413268
0.23	23	-0.022	-1.005	0.064	1.0886202	1.3750992	-0.4583664	91.95402942	0.12032118	-19.73267352
0.24	24	-0.021	-1.005	0.066	1.2032118	1.718874	-0.286479	91.96548858	0.12032118	-19.71548478
0.25	25	-0.018	-1.004	0.07	1.2605076	1.6042824	-0.286479	91.99986606	0.0859437	-19.6811073
0.26	26	-0.016	-1.005	0.073	1.2605076	1.2032118	-0.1718874	92.0170548	0.0859437	-19.66391856
0.27	27	-0.017	-1.007	0.074	1.2605076	0.8021412	-0.1145916	92.02851396	0.0859437	-19.65818898
0.28	28	-0.015	-1.008	0.073	1.0313244	0.286479	-0.286479	92.03997312	0.09167328	-19.6524594
0.29	29	-0.015	-1.009	0.073	0.6302538	0	-0.4010706	92.0457027	0.09167328	-19.6524594
0.3	30	-0.018	-1.007	0.071	0.4010706	-0.3437748	-0.572958	92.08580976	0.0286479	-19.6238115
0.31	31	-0.02	-1.005	0.07	0.2291832	-0.6302538	-0.6875496	92.09153934	0.03437748	-19.62954108
0.32	32	-0.02	-1.004	0.065	0.1718874	-0.572958	-0.7448454	92.09153934	0.04010706	-19.63527066
0.33	33	-0.019	-1.006	0.063	0.2291832	-0.0572958	-0.6875496	92.09726892	0.05156622	-19.63527066
0.34	34	-0.016	-1.005	0.063	0.4583664	0.4010706	-0.5156622	92.1029985	0.05156622	-19.62954108
0.35	35	-0.015	-1.006	0.067	0.6875496	0.6875496	-0.3437748	92.1316464	0.01718874	-19.60662276
0.36	36	-0.013	-1.006	0.069	0.6302538	0.4010706	-0.2291832	92.13737598	0.02291832	-19.60089318
0.37	37	-0.013	-1.006	0.07	0.4010706	-0.1718874	-0.1718874	92.14310556	0.02291832	-19.60089318
0.38	38	-0.013	-1.006	0.071	0	-0.7448454	-0.1718874	92.14310556	0.0286479	-19.61235234
0.39	39	-0.016	-1.007	0.07	0	-1.0886202	-0.1718874	92.14310556	0.0286479	-19.61808192
0.4	40	-0.02	-1.008	0.067	-0.0572958	-1.0313244	-0.4010706	92.16602388	-0.0286479	-19.5951636
0.41	41	-0.024	-1.009	0.065	-0.0572958	-0.6875496	-0.4583664	92.1602943	-0.02291832	-19.60662276
0.42	42	-0.025	-1.01	0.066	-0.2291832	-0.2291832	-0.4583664	92.1602943	-0.01718874	-19.60662276
0.43	43	-0.025	-1.006	0.066	-0.286479	-0.286479	-0.4010706	92.15456472	-0.01145916	-19.61235234
0.44	44	-0.02	-1.003	0.068	-0.1718874	-0.2291832	-0.286479	92.15456472	-0.01145916	-19.61235234
0.45	45	-0.015	-1.003	0.067	-0.4583664	0	-0.4010706	92.17748304	-0.05156622	-19.5951636
0.46	46	-0.01	-1.002	0.065	-0.572958	0	-0.4010706	92.16602388	-0.04583664	-19.58943402
0.47	47	-0.007	-1.002	0.067	-0.4583664	-0.1145916	-0.4583664	92.16602388	-0.04010706	-19.5951636
0.48	48	-0.009	-1.003	0.065	0	-0.2291832	-0.4583664	92.16602388	-0.03437748	-19.5951636
0.49	49	-0.012	-1.003	0.066	0.4010706	-0.286479	-0.4583664	92.16602388	-0.0286479	-19.60089318
0.5	50	-0.017	-1.004	0.068	0.4583664	-0.1718874	-0.286479	92.22331968	-0.12605076	-19.55505654
0.51	51	-0.023	-1.005	0.07	0.5156622	0	-0.3437748	92.22904926	-0.12032118	-19.55505654
0.52	52	-0.024	-1.006	0.07	0.4583664	0.2291832	-0.3437748	92.23477884	-0.1145916	-19.55505654
0.53	53	-0.02	-1.006	0.071	0.6875496	0.4583664	-0.4583664	92.24050842	-0.1145916	-19.54932696
0.54	54	-0.018	-1.009	0.072	0.8021412	0.572958	-0.572958	92.246238	-0.10886202	-19.54359738
0.55	55	-0.014	-1.009	0.071	0.6302538	0.5156622	-0.6875496	92.2748859	-0.12605076	-19.52640864
0.56	56	-0.013	-1.009	0.071	0.6875496	0.2291832	-0.7448454	92.28634506	-0.12032118	-19.52067906
0.57	57	-0.013	-1.008	0.07	0.6302538	0.1718874	-0.8021412	92.29207464	-0.10886202	-19.52067906
0.58	58	-0.013	-1.007	0.067	0.572958	0	-0.572958	92.29780422	-0.10313244	-19.52067906
0.59	59	-0.014	-1.005	0.065	0.572958	-0.1145916	-0.4010706	92.3035338	-0.09740286	-19.52067906
0.6	60	-0.014	-1.006	0.063	0.9167328	0.1718874	-0.286479	92.31499296	-0.12605076	-19.50349032
0.61	61	-0.017	-1.007	0.066	1.145916	0.7448454	-0.1145916	92.32645212	-0.12605076	-19.49776074
0.62	62	-0.02	-1.005	0.067	1.3178034	1.3750992	-0.0572958	92.33791128	-0.12605076	-19.480572
0.63	63	-0.022	-1.006	0.069	1.3750992	1.7761698	0	92.35510002	-0.12605076	-19.46338326
0.64	64	-0.021	-1.007	0.073	1.3178034	1.7761698	0	92.36655918	-0.12605076	-19.44619452
0.65	65	-0.018	-1.006	0.076	1.432395	1.3178034	0.1718874	92.40666624	-0.14896908	-19.4232762
0.66	66	-0.015	-1.005	0.077	1.6615782	0.8021412	0.1718874	92.42385498	-0.15469866	-19.41754662
0.67	67	-0.012	-1.007	0.077	1.6615782	0.3437748	0.1145916	92.44104372	-0.15469866	-19.41181704
0.68	68	-0.011	-1.007	0.074	1.3750992	0.1718874	0.0572958	92.45250288	-0.15469866	-19.41181704
0.69	69	-0.011	-1.007	0.074	1.0313244	0	0	92.46396204	-0.15469866	-19.41181704
0.7	70	-0.012	-1.007	0.072	0.859437	-0.1718874	0	92.49833952	-0.18334656	-19.40035788
0.71	71	-0.015	-1.006	0.069	0.7448454	-0.1145916	0.1145916	92.5040691	-0.18907614	-19.40035788
0.72	72	-0.018	-1.005	0.066	0.6302538	0.1718874	0.2291832	92.50979868	-0.18907614	-19.40035788
0.73	73	-0.019	-1.004	0.066	0.8021412	0.2291832	0.4010706	92.52125784	-0.19480572	-19.3946283
0.74	74	-0.018	-1.004	0.067	1.2032118	0.3437748	0.5156622	92.532717	-0.2005353	-19.3946283
0.75	75	-0.018	-1.003	0.066	1.4896908	0.4010706	0.572958	92.54417616	-0.2291832	-19.37743956
0.76	76	-0.017	-1.003	0.066	1.432395	0.4583664	0.572958	92.5613649	-0.23491278	-19.37170998
0.77	77	-0.016	-1.002	0.069	1.6042824	0.3437748	0.4583664	92.57282406	-0.24064236	-19.37170998
0.78	78	-0.015	-1.003	0.072	1.7761698	0.1145916	0.4583664	92.59574238	-0.24637194	-19.3659804
0.79	79	-0.016	-1.005	0.073	1.6615782	-0.0572958	0.2291832	92.61293112	-0.24637194	-19.3659804
0.8	80	-0.019	-1.006	0.075	1.432395	-0.286479	0.1718874	92.64157902	-0.28074942	-19.36025082
0.81	81	-0.02	-1.007	0.076	1.2605076	-0.572958	0.0572958	92.65303818	-0.28074942	-19.3659804
0.82	82	-0.022	-1.008	0.075	1.0886202	-0.6302538	-0.1145916	92.66449734	-0.28074942	-19.37170998
0.83	83	-0.022	-1.008	0.075	0.7448454	-0.4010706	-0.1145916	92.6759565	-0.27501984	-19.37743956
0.84	84	-0.021	-1.007	0.072	0.6302538	-0.0572958	-0.1145916	92.68168608	-0.27501984	-19.37743956
0.85	85	-0.021	-1.009	0.072	0.6302538	0	-0.0572958	92.68741566	-0.3437748	-19.34306208
0.86	86	-0.02	-1.01	0.07	0.5156622	0	0	92.69314524	-0.3437748	-19.34306208
0.87	87	-0.018	-1.009	0.066	0.286479	-0.0572958	0	92.69314524	-0.3437748	-19.34306208
0.88	88	-0.017	-1.007	0.063	0.0572958	0.1145916	0.1145916	92.69314524	-0.34950438	-19.34306208
0.89	89	-0.017	-1.005	0.06	0.2291832	0.2291832	0.1145916	92.69887482	-0.34950438	-19.3373325
0.9	90	-0.016	-1.003	0.061	0.6875496	0.3437748	0.1145916	92.68168608	-0.36669312	-19.32587334
0.91	91	-0.017	-1.003	0.066	1.145916	0.3437748	0.1718874	92.69314524	-0.3724227	-19.32587334
0.92	92	-0.017	-1.003	0.069	1.145916	0.3437748	0.1718874	92.7046044	-0.3724227	-19.32014376
0.93	93	-0.018	-1.002	0.071	1.0886202	0.286479	0.1145916	92.71606356	-0.37815228	-19.31441418
0.94	94	-0.018	-1.001	0.074	1.0313244	0.4010706	0	92.72752272	-0.37815228	-19.31441418
0.95	95	-0.018	-1.006	0.076	0.859437	0.1718874	-0.1145916	92.75617062	-0.41252976	-19.29722544
0.96	96	-0.019	-1.009	0.073	0.4010706	-0.3437748	-0.1145916	92.7619002	-0.40680018	-19.29722544
0.97	97	-0.019	-1.008	0.071	0.286479	-0.5156622	-0.2291832	92.76762978	-0.40680018	-19.30295502
0.98	98	-0.019	-1.009	0.071	0.2291832	-0.5156622	-0.286479	92.76762978	-0.4010706	-19.3086846
0.99	99	-0.02	-1.007	0.072	0	-0.6302538	-0.1145916	92.76762978	-0.4010706	-19.31441418
1	100	-0.019	-1.005	0.069	-0.0572958	-0.8021412	-0.1145916	92.7619002	-0.44117766	-19.30295502
1.01	101	-0.019	-1.007	0.07	-0.2291832	-0.6302538	-0.1145916	92.7619002	-0.43544808	-19.3086846
1.02	102	-0.019	-1.007	0.065	0	-0.2291832	-0.1718874	92.7619002	-0.43544808	-19.31441418
1.03	103	-0.019	-1.006	0.066	0.6875496	0.1145916	-0.1145916	92.76762978	-0.43544808	-19.31441418
1.04	104	-0.019	-1.007	0.072	1.0886202	0.5156622	0.0572958	92.77908894	-0.43544808	-19.3086846
1.05	105	-0.018	-1.007	0.076	0.9167328	0.3437748	0.286479	92.81346642	-0.4583664	-19.29722544
1.06	106	-0.017	-1.004	0.08	0.6302538	0	0.3437748	92.819196	-0.46409598	-19.29722544
1.07	107	-0.012	-1.001	0.082	0.2291832	0	0.286479	92.82492558	-0.46982556	-19.29722544
1.08	108	-0.01	-1.003	0.083	0.2291832	0.2291832	0.0572958	92.82492558	-0.46982556	-19.29149586
1.09	109	-0.012	-1.004	0.079	0.1718874	0.3437748	-0.0572958	92.82492558	-0.46982556	-19.28576628
1.1	110	-0.015	-1.006	0.077	0.2291832	0.3437748	-0.1145916	92.8478439	-0.49274388	-19.27430712
1.11	111	-0.02	-1.006	0.073	0.2291832	0.1718874	-0.1145916	92.8478439	-0.4870143	-19.27430712
1.12	112	-0.021	-1.004	0.07	0.4010706	-0.0572958	0	92.85357348	-0.4870143	-19.27430712
1.13	113	-0.02	-1.005	0.069	0.6875496	0	-0.0572958	92.86503264	-0.4870143	-19.27430712
1.14	114	-0.021	-1.005	0.07	0.7448454	0	-0.0572958	92.87076222	-0.4870143	-19.27430712
1.15	115	-0.019	-1.003	0.071	0.6875496	-0.1145916	-0.0572958	92.88222138	-0.50993262	-19.26284796
1.16	116	-0.017	-1.005	0.07	0.4583664	-0.3437748	-0.1145916	92.88222138	-0.50993262	-19.26857754
1.17	117	-0.014	-1.005	0.072	0.286479	-0.6875496	-0.286479	92.88795096	-0.50420304	-19.27430712
1.18	118	-0.014	-1.005	0.072	0.3437748	-0.859437	-0.2291832	92.89368054	-0.50420304	-19.28576628
1.19	119	-0.014	-1.004	0.069	0.4010706	-0.6875496	-0.286479	92.89368054	-0.49847346	-19.29149586
1.2	120	-0.016	-1.004	0.072	0.859437	-0.4583664	-0.1718874	92.91086928	-0.50993262	-19.29149586
1.21	121	-0.02	-1.005	0.076	1.0313244	-0.7448454	-0.1718874	92.92232844	-0.50420304	-19.29722544
1.22	122	-0.023	-1.006	0.076	0.9740286	-0.9740286	-0.1718874	92.92805802	-0.50420304	-19.3086846
1.23	123	-0.024	-1.005	0.075	0.859437	-0.8021412	-0.2291832	92.93951718	-0.49847346	-19.31441418
1.24	124	-0.024	-1.005	0.074	0.9167328	-0.286479	-0.0572958	92.95097634	-0.49847346	-19.32014376
1.25	125	-0.024	-1.006	0.075	0.859437	0.4010706	-0.0572958	92.9624355	-0.52139178	-19.30295502
1.26	126	-0.023	-1.008	0.076	0.8021412	0.8021412	0	92.96816508	-0.52712136	-19.29722544
1.27	127	-0.021	-1.007	0.078	0.8021412	0.572958	0.0572958	92.97962424	-0.52712136	-19.29149586
1.28	128	-0.018	-1.005	0.077	0.4010706	0.1718874	0.0572958	92.98535382	-0.52712136	-19.28576628
1.29	129	-0.015	-1.005	0.076	0.2291832	-0.1718874	0.1718874	92.98535382	-0.52712136	-19.29149586
1.3	130	-0.014	-1.006	0.075	0	-0.2291832	0.2291832	92.98535382	-0.53858052	-19.29149586
1.31	131	-0.015	-1.008	0.074	-0.1718874	-0.286479	0.286479	92.98535382	-0.53858052	-19.29149586
1.32	132	-0.018	-1.009	0.072	-0.572958	-0.5156622	0.2291832	92.97962424	-0.5443101	-19.29722544
1.33	133	-0.018	-1.008	0.069	-0.859437	-0.6302538	0.2291832	92.96816508	-0.5443101	-19.30295502
1.34	134	-0.02	-1.008	0.068	-1.0886202	-0.6302538	0.286479	92.95670592	-0.5443101	-19.31441418
1.35	135	-0.022	-1.005	0.068	-1.145916	-0.5156622	0.3437748	92.93951718	-0.56722842	-19.3086846
1.36	136	-0.022	-1.003	0.069	-0.7448454	-0.286479	0.5156622	92.9337876	-0.572958	-19.31441418
1.37	137	-0.021	-1.001	0.071	-0.286479	-0.1718874	0.5156622	92.9337876	-0.57868758	-19.31441418
1.38	138	-0.018	-1.002	0.075	0	-0.286479	0.5156622	92.92805802	-0.58441716	-19.32014376
1.39	139	-0.017	-1.004	0.076	0.1718874	-0.286479	0.4583664	92.9337876	-0.59014674	-19.32587334
1.4	140	-0.016	-1.002	0.076	0.5156622	-0.1145916	0.4583664	92.95097634	-0.6016059	-19.32014376
1.41	141	-0.019	-1.002	0.077	0.6302538	-0.2291832	0.4010706	92.95670592	-0.6016059	-19.32587334
1.42	142	-0.022	-1.003	0.076	0.4583664	-0.4010706	0.286479	92.9624355	-0.60733548	-19.33160292
1.43	143	-0.024	-1.006	0.075	0.4010706	-0.4583664	0.2291832	92.96816508	-0.60733548	-19.3373325
1.44	144	-0.026	-1.007	0.075	0.286479	-0.4583664	0	92.97389466	-0.60733548	-19.3373325
1.45	145	-0.025	-1.007	0.073	0.1718874	-0.286479	0	92.96816508	-0.6875496	-19.31441418
1.46	146	-0.024	-1.007	0.073	0.0572958	-0.1145916	0.0572958	92.96816508	-0.6875496	-19.31441418
1.47	147	-0.022	-1.006	0.072	0	0	0.0572958	92.96816508	-0.6875496	-19.31441418
1.48	148	-0.021	-1.005	0.072	0	0.2291832	0.1145916	92.96816508	-0.69327918	-19.3086846
1.49	149	-0.019	-1.004	0.073	0.2291832	0.4010706	0.3437748	92.96816508	-0.69327918	-19.3086846
1.5	150	-0.017	-1.003	0.074	0.2291832	0.572958	0.3437748	92.97389466	-0.69900876	-19.30295502
1.51	151	-0.015	-1.003	0.075	0.286479	0.2291832	0.572958	92.97962424	-0.70473834	-19.29722544
1.52	152	-0.016	-1.004	0.075	0	-0.1145916	0.4010706	92.97962424	-0.71046792	-19.30295502
1.53	153	-0.018	-1.004	0.075	-0.1145916	-0.4583664	0.2291832	92.97962424	-0.71046792	-19.3086846
1.54	154	-0.02	-1.004	0.073	-0.1145916	-0.4583664	0.1145916	92.97962424	-0.71046792	-19.3086846
1.55	155	-0.022	-1.002	0.071	-0.2291832	-0.2291832	0	92.94524676	-0.7448454	-19.30295502
1.56	156	-0.024	-1.004	0.07	-0.3437748	-0.286479	-0.0572958	92.94524676	-0.7448454	-19.30295502
1.57	157	-0.025	-1.007	0.069	-0.4010706	-0.4010706	-0.1145916	92.93951718	-0.73911582	-19.3086846
1.58	158	-0.025	-1.006	0.069	-0.572958	-0.1718874	-0.0572958	92.9337876	-0.73911582	-19.3086846
1.59	159	-0.022	-1.006	0.07	-0.9740286	-0.2291832	0.0572958	92.92232844	-0.73911582	-19.31441418
1.6	160	-0.016	-1.007	0.072	-1.2605076	-0.6302538	0.1145916	92.91086928	-0.73338624	-19.32014376
1.61	161	-0.012	-1.005	0.073	-1.145916	-0.9740286	0.2291832	92.89941012	-0.73911582	-19.33160292
1.62	162	-0.011	-1.003	0.071	-0.6875496	-1.145916	0.2291832	92.89368054	-0.73911582	-19.34306208
1.63	163	-0.015	-1.006	0.073	-0.286479	-1.0313244	0.1718874	92.89368054	-0.73911582	-19.35452124
1.64	164	-0.021	-1.006	0.073	0.0572958	-0.5156622	0.1718874	92.89368054	-0.73911582	-19.36025082
1.65	165	-0.024	-1.006	0.071	0.3437748	0.0572958	0.1718874	92.89941012	-0.7734933	-19.34879166
1.66	166	-0.024	-1.009	0.077	0.4010706	0.6302538	0.286479	92.89941012	-0.7734933	-19.34306208
1.67	167	-0.021	-1.007	0.081	0.0572958	0.4583664	0.1718874	92.89941012	-0.77922288	-19.3373325
1.68	168	-0.016	-1.004	0.078	-0.1718874	0.0572958	0.2291832	92.89941012	-0.77922288	-19.3373325
1.69	169	-0.012	-1.004	0.075	-0.4010706	-0.1718874	0.1145916	92.89368054	-0.77922288	-19.3373325
1.7	170	-0.012	-1.006	0.072	-0.5156622	-0.0572958	0	92.88222138	-0.75630456	-19.34879166
1.71	171	-0.015	-1.006	0.069	-0.5156622	0	-0.0572958	92.8764918	-0.75630456	-19.34879166
1.72	172	-0.018	-1.004	0.065	-0.572958	0.1718874	-0.1718874	92.87076222	-0.75057498	-19.34306208
1.73	173	-0.02	-1.002	0.064	-0.4010706	0.0572958	-0.0572958	92.86503264	-0.75057498	-19.34306208
1.74	174	-0.022	-1.002	0.062	-0.1145916	0	-0.0572958	92.86503264	-0.75057498	-19.34306208
1.75	175	-0.021	-1.005	0.065	0.1145916	-0.1145916	-0.1718874	92.84211432	-0.76203414	-19.34306208
1.76	176	-0.021	-1.007	0.065	0.3437748	-0.1718874	-0.286479	92.8478439	-0.76203414	-19.34306208
1.77	177	-0.02	-1.006	0.065	0.4583664	-0.1718874	-0.286479	92.85357348	-0.75630456	-19.34306208
1.78	178	-0.019	-1.006	0.068	0.4583664	0.0572958	-0.4010706	92.85357348	-0.75057498	-19.34306208
1.79	179	-0.018	-1.006	0.071	0.4583664	0.3437748	-0.4583664	92.85930306	-0.7448454	-19.3373325
1.8	180	-0.019	-1.007	0.074	0.2291832	0.3437748	-0.5156622	92.87076222	-0.7448454	-19.3373325
1.81	181	-0.019	-1.007	0.073	-0.0572958	0.286479	-0.6302538	92.87076222	-0.73911582	-19.33160292
1.82	182	-0.019	-1.006	0.072	-0.4583664	0.3437748	-0.8021412	92.87076222	-0.73338624	-19.32587334
1.83	183	-0.018	-1.006	0.074	-0.4010706	0.0572958	-0.9167328	92.86503264	-0.72192708	-19.32587334
1.84	184	-0.019	-1.007	0.071	-0.6302538	-0.1145916	-0.9740286	92.85930306	-0.71046792	-19.32587334
1.85	185	-0.022	-1.005	0.068	-0.7448454	0	-0.9740286	92.84211432	-0.71046792	-19.32587334
1.86	186	-0.024	-1.006	0.067	-0.572958	0.3437748	-0.859437	92.83638474	-0.69900876	-19.32014376
1.87	187	-0.025	-1.009	0.071	-0.2291832	0.4583664	-0.7448454	92.83065516	-0.69327918	-19.31441418
1.88	188	-0.025	-1.009	0.071	-0.3437748	0.4583664	-0.8021412	92.83065516	-0.6875496	-19.3086846
1.89	189	-0.024	-1.009	0.071	-0.5156622	0.4010706	-0.6875496	92.82492558	-0.68182002	-19.30295502
1.9	190	-0.021	-1.006	0.072	-0.6875496	0.286479	-0.7448454	92.81346642	-0.67609044	-19.30295502
1.91	191	-0.02	-1.006	0.068	-0.7448454	0.3437748	-0.6875496	92.80773684	-0.67036086	-19.29722544
1.92	192	-0.018	-1.005	0.066	-0.7448454	0.4010706	-0.572958	92.79627768	-0.66463128	-19.29149586
1.93	193	-0.018	-1.005	0.064	-0.5156622	0.2291832	-0.5156622	92.7905481	-0.6589017	-19.29149586
1.94	194	-0.019	-1.005	0.062	-0.4583664	0.0572958	-0.4010706	92.7905481	-0.65317212	-19.29149586
1.95	195	-0.021	-1.007	0.059	-0.3437748	-0.0572958	-0.3437748	92.73898188	-0.67036086	-19.2800367
1.96	196	-0.022	-1.006	0.06	-0.6302538	-0.1718874	-0.1718874	92.7332523	-0.66463128	-19.28576628
1.97	197	-0.022	-1.005	0.062	-0.859437	-0.3437748	0	92.72752272	-0.66463128	-19.28576628
1.98	198	-0.023	-1.002	0.063	-0.9740286	-0.4010706	0.1145916	92.71606356	-0.67036086	-19.29149586
1.99	199	-0.02	-1.002	0.065	-0.9167328	-0.4010706	0.286479	92.7046044	-0.67036086	-19.29722544
2	200	-0.021	-1.002	0.065	-0.6302538	-0.6875496	0.1718874	92.69314524	-0.68182002	-19.29722544
2.01	201	-0.02	-1.004	0.064	-0.5156622	-0.6875496	0.1145916	92.68741566	-0.68182002	-19.3086846
2.02	202	-0.02	-1.005	0.063	-0.3437748	-0.572958	0.1145916	92.68741566	-0.6875496	-19.31441418
2.03	203	-0.021	-1.003	0.062	0	-0.3437748	0.5156622	92.68168608	-0.69327918	-19.31441418
2.04	204	-0.02	-1.003	0.062	0.286479	-0.1718874	0.6302538	92.68741566	-0.69900876	-19.32014376
2.05	205	-0.021	-1.003	0.063	0.5156622	-0.1145916	0.572958	92.68168608	-0.71046792	-19.32014376
2.06	206	-0.019	-1.003	0.063	0.6875496	0	0.6302538	92.68741566	-0.7161975	-19.32014376
2.07	207	-0.019	-1.003	0.065	0.859437	-0.1145916	0.572958	92.69887482	-0.72192708	-19.32014376
2.08	208	-0.018	-1.005	0.067	0.9740286	-0.286479	0.4010706	92.71033398	-0.72192708	-19.32014376
2.09	209	-0.016	-1.006	0.069	0.9740286	-0.286479	0.286479	92.72179314	-0.72765666	-19.32587334
2.1	210	-0.017	-1.007	0.067	1.145916	-0.1718874	0.1145916	92.72752272	-0.72765666	-19.32587334
2.11	211	-0.017	-1.006	0.064	1.145916	-0.0572958	0.0572958	92.73898188	-0.72765666	-19.32587334
2.12	212	-0.018	-1.006	0.065	1.0313244	-0.0572958	0.2291832	92.75044104	-0.73338624	-19.33160292
2.13	213	-0.017	-1.006	0.063	0.859437	-0.3437748	0.3437748	92.75617062	-0.73338624	-19.33160292
2.14	214	-0.015	-1.007	0.064	0.7448454	-0.6875496	0.4010706	92.76762978	-0.73911582	-19.3373325
2.15	215	-0.015	-1.007	0.064	0.572958	-0.859437	0.3437748	92.7619002	-0.73911582	-19.34879166
2.16	216	-0.016	-1.007	0.065	0.286479	-1.2605076	0.1718874	92.7619002	-0.73911582	-19.36025082
2.17	217	-0.018	-1.008	0.063	0.1145916	-1.432395	0	92.76762978	-0.73911582	-19.37743956
2.18	218	-0.02	-1.008	0.061	0	-1.8907614	-0.1145916	92.76762978	-0.73338624	-19.3946283
2.19	219	-0.02	-1.01	0.062	-0.286479	-2.1772404	-0.1145916	92.7619002	-0.73338624	-19.41754662
2.2	220	-0.02	-1.011	0.061	-1.145916	-2.86479	-0.1145916	92.74471146	-0.72765666	-19.44619452
2.21	221	-0.018	-1.008	0.063	-1.8334656	-3.6096354	0	92.72752272	-0.72765666	-19.480572
2.22	222	-0.016	-1.005	0.063	-2.1199446	-4.583664	0	92.71033398	-0.72192708	-19.52640864
2.23	223	-0.014	-1.006	0.064	-2.1772404	-5.2139178	0	92.68741566	-0.72192708	-19.57797486
2.24	224	-0.014	-1.007	0.062	-1.8334656	-5.443101	0	92.67022692	-0.7161975	-19.63527066
2.25	225	-0.018	-1.007	0.059	-1.3750992	-5.2139178	-0.0572958	92.65303818	-0.71046792	-19.68683688
2.26	226	-0.018	-1.009	0.059	-1.0313244	-4.4117766	-0.0572958	92.64157902	-0.71046792	-19.72694394
2.27	227	-0.019	-1.008	0.061	-0.7448454	-3.6096354	0	92.63584944	-0.70473834	-19.76132142
2.28	228	-0.018	-1.002	0.06	-0.0572958	-3.151269	0.0572958	92.63584944	-0.70473834	-19.7956989
2.29	229	-0.015	-1	0.059	0.3437748	-2.5210152	0.286479	92.63584944	-0.70473834	-19.81861722
2.3	230	-0.011	-1.001	0.062	0.7448454	-1.8907614	0.3437748	92.64157902	-0.69900876	-19.84153554
2.31	231	-0.009	-1.004	0.064	1.0313244	-1.6042824	0.4010706	92.65303818	-0.70473834	-19.85872428
2.32	232	-0.014	-1.003	0.062	1.2032118	-1.3750992	0.4010706	92.67022692	-0.70473834	-19.87018344
2.33	233	-0.014	-1.007	0.061	1.2032118	-1.3178034	0.1718874	92.68168608	-0.71046792	-19.88737218
2.34	234	-0.019	-1.007	0.063	1.145916	-1.8907614	-0.1145916	92.69314524	-0.70473834	-19.90456092
2.35	235	-0.022	-1.007	0.061	1.2032118	-2.005353	-0.2291832	92.69887482	-0.70473834	-19.92174966
2.36	236	-0.023	-1.006	0.057	1.0886202	-1.718874	-0.3437748	92.71033398	-0.69900876	-19.9389384
2.37	237	-0.022	-1.005	0.057	1.0886202	-1.2605076	-0.5156622	92.72179314	-0.69327918	-19.95039756
2.38	238	-0.02	-1.006	0.056	1.0313244	-0.8021412	-0.572958	92.7332523	-0.6875496	-19.96185672
2.39	239	-0.017	-1.007	0.056	1.2032118	-0.286479	-0.572958	92.74471146	-0.68182002	-19.96185672
2.4	240	-0.015	-1.007	0.058	1.3178034	0.0572958	-0.572958	92.74471146	-0.67036086	-19.96185672
2.41	241	-0.014	-1.005	0.062	1.8907614	-0.0572958	-0.5156622	92.7619002	-0.67036086	-19.96185672
2.42	242	-0.017	-1.006	0.063	1.8334656	-0.1718874	-0.3437748	92.78481852	-0.66463128	-19.96185672
2.43	243	-0.018	-1.005	0.063	1.6042824	-0.2291832	-0.2291832	92.79627768	-0.6589017	-19.9675863
2.44	244	-0.02	-1.007	0.062	1.3750992	-0.1718874	-0.3437748	92.81346642	-0.6589017	-19.9675863
2.45	245	-0.022	-1.008	0.063	1.145916	-0.0572958	-0.5156622	92.80773684	-0.67036086	-19.96185672
2.46	246	-0.023	-1.007	0.061	1.0886202	0.1718874	-0.572958	92.819196	-0.66463128	-19.96185672
2.47	247	-0.024	-1.005	0.058	1.0886202	0.7448454	-0.4583664	92.83065516	-0.6589017	-19.95039756
2.48	248	-0.023	-1.006	0.06	1.0886202	0.9740286	-0.286479	92.84211432	-0.65317212	-19.9389384
2.49	249	-0.02	-1.006	0.06	1.0313244	0.9167328	-0.1718874	92.85357348	-0.65317212	-19.93320882
2.5	250	-0.018	-1.007	0.061	0.9167328	0.5156622	-0.1718874	92.83638474	-0.65317212	-19.92747924
2.51	251	-0.017	-1.006	0.058	0.859437	0.2291832	-0.1718874	92.8478439	-0.65317212	-19.92174966
2.52	252	-0.016	-1.006	0.057	0.859437	0.2291832	-0.1718874	92.85930306	-0.65317212	-19.92174966
2.53	253	-0.015	-1.005	0.06	1.0886202	0.286479	-0.1145916	92.87076222	-0.64744254	-19.91602008
2.54	254	-0.014	-1.005	0.063	1.0886202	0.3437748	-0.2291832	92.8764918	-0.64744254	-19.9102905
2.55	255	-0.016	-1.006	0.063	1.0313244	0.3437748	-0.2291832	92.87076222	-0.64171296	-19.9102905
2.56	256	-0.016	-1.006	0.063	1.0313244	0.2291832	-0.1145916	92.8764918	-0.64171296	-19.90456092
2.57	257	-0.014	-1.007	0.064	0.9167328	0.1718874	0	92.88795096	-0.64171296	-19.90456092
2.58	258	-0.014	-1.007	0.065	0.859437	0.1145916	0	92.89941012	-0.64171296	-19.89883134
2.59	259	-0.015	-1.008	0.063	0.8021412	0.1145916	-0.0572958	92.9051397	-0.64171296	-19.89883134
2.6	260	-0.016	-1.007	0.059	0.7448454	0.2291832	-0.1145916	92.8764918	-0.64171296	-19.89310176
2.61	261	-0.018	-1.005	0.06	0.859437	0.4583664	-0.1145916	92.88795096	-0.64171296	-19.88737218
2.62	262	-0.02	-1.003	0.058	0.859437	0.6875496	0	92.89368054	-0.64171296	-19.8816426
2.63	263	-0.018	-1.005	0.058	0.9740286	0.7448454	0.0572958	92.9051397	-0.64171296	-19.87591302
2.64	264	-0.016	-1.006	0.059	1.0313244	0.5156622	0.1718874	92.91659886	-0.64744254	-19.87018344
2.65	265	-0.013	-1.008	0.06	0.9167328	0.2291832	0.1718874	92.88795096	-0.63598338	-19.87018344
2.66	266	-0.011	-1.007	0.06	0.859437	0	0.1718874	92.89941012	-0.63598338	-19.87018344
2.67	267	-0.012	-1.008	0.06	0.859437	-0.1718874	0.0572958	92.9051397	-0.64171296	-19.87018344
2.68	268	-0.011	-1.008	0.059	0.6875496	-0.2291832	0	92.91659886	-0.63598338	-19.87591302
2.69	269	-0.013	-1.009	0.06	0.4583664	-0.4010706	0	92.91659886	-0.63598338	-19.87591302
2.7	270	-0.015	-1.007	0.058	0.3437748	-0.4583664	-0.1145916	92.86503264	-0.64171296	-19.8816426
2.71	271	-0.016	-1.004	0.057	0.286479	-0.1718874	-0.1145916	92.87076222	-0.63598338	-19.8816426
2.72	272	-0.018	-1.003	0.059	0.4583664	0.0572958	0	92.8764918	-0.63598338	-19.8816426
2.73	273	-0.015	-1.003	0.062	0.859437	0.1145916	0.1145916	92.88222138	-0.64171296	-19.87591302
2.74	274	-0.012	-1.005	0.064	1.2032118	0.1145916	0.286479	92.89941012	-0.64171296	-19.87591302
2.75	275	-0.012	-1.007	0.064	1.0313244	-0.0572958	0.286479	92.89368054	-0.63598338	-19.8816426
2.76	276	-0.013	-1.009	0.064	0.859437	-0.5156622	0.1718874	92.9051397	-0.63598338	-19.88737218
2.77	277	-0.014	-1.008	0.062	0.6302538	-0.7448454	0	92.91086928	-0.63598338	-19.89310176
2.78	278	-0.015	-1.006	0.057	0.6875496	-0.6302538	-0.0572958	92.91659886	-0.63598338	-19.89883134
2.79	279	-0.017	-1.007	0.058	1.145916	-0.286479	0	92.92805802	-0.63598338	-19.90456092
2.8	280	-0.017	-1.005	0.06	1.2032118	-0.2291832	0.0572958	92.91659886	-0.63598338	-19.90456092
2.81	281	-0.017	-1.006	0.062	1.2032118	-0.1145916	0.1718874	92.92805802	-0.64171296	-19.90456092
2.82	282	-0.015	-1.005	0.066	0.859437	0.0572958	0.2291832	92.9337876	-0.64171296	-19.90456092
2.83	283	-0.011	-1.004	0.069	0.9740286	-0.0572958	0.4010706	92.94524676	-0.64744254	-19.90456092
2.84	284	-0.008	-1.006	0.07	0.859437	-0.5156622	0.4583664	92.95670592	-0.65317212	-19.9102905
2.85	285	-0.008	-1.008	0.069	0.6875496	-0.859437	0.5156622	92.95670592	-0.64171296	-19.92174966
2.86	286	-0.012	-1.011	0.065	0.6302538	-1.0313244	0.4010706	92.9624355	-0.64744254	-19.93320882
2.87	287	-0.018	-1.011	0.06	0.4010706	-0.6875496	0.286479	92.96816508	-0.65317212	-19.9389384
2.88	288	-0.022	-1.009	0.058	0.4583664	-0.0572958	0.286479	92.97389466	-0.65317212	-19.9389384
2.89	289	-0.023	-1.006	0.058	0.5156622	0.0572958	0.286479	92.97389466	-0.6589017	-19.9389384
2.9	290	-0.019	-1	0.059	0.7448454	-0.286479	0.5156622	92.9624355	-0.66463128	-19.9389384
2.91	291	-0.014	-0.999	0.062	0.9740286	-0.9167328	0.6875496	92.97389466	-0.67036086	-19.95039756
2.92	292	-0.008	-1	0.063	0.8021412	-0.7448454	0.6302538	92.97962424	-0.67609044	-19.95612714
2.93	293	-0.005	-1.001	0.064	0.8021412	-0.859437	0.6875496	92.9910834	-0.68182002	-19.9675863
2.94	294	-0.005	-1.004	0.064	0.9167328	-0.859437	0.6875496	93.00254256	-0.6875496	-19.97331588
2.95	295	-0.007	-1.005	0.063	1.0886202	-0.6302538	0.572958	92.99681298	-0.68182002	-19.98477504
2.96	296	-0.013	-1.004	0.063	1.2605076	-0.7448454	0.6875496	93.00827214	-0.6875496	-19.99050462
2.97	297	-0.016	-1.006	0.062	1.2605076	-1.0886202	0.6302538	93.0197313	-0.69327918	-20.00196378
2.98	298	-0.019	-1.009	0.062	0.9740286	-0.9740286	0.6302538	93.03119046	-0.69900876	-20.01342294
2.99	299	-0.021	-1.008	0.063	0.9740286	-0.859437	0.6302538	93.04264962	-0.70473834	-20.0248821
3	300	-0.022	-1.008	0.064	1.2605076	-0.572958	0.5156622	93.03692004	-0.72192708	-20.0248821
3.01	301	-0.019	-1.008	0.063	1.3178034	-0.3437748	0.4583664	93.0483792	-0.72765666	-20.03061168
3.02	302	-0.014	-1.01	0.063	1.432395	-0.1718874	0.4583664	93.06556794	-0.72765666	-20.03061168
3.03	303	-0.011	-1.011	0.057	1.432395	-0.8021412	0.5156622	93.0770271	-0.73338624	-20.04207084
3.04	304	-0.013	-1.012	0.055	1.2605076	-2.291832	0.7448454	93.09421584	-0.73911582	-20.06498916
3.05	305	-0.012	-1.015	0.053	1.432395	-3.151269	0.6302538	93.08848626	-0.73911582	-20.09363706
3.06	306	-0.009	-1.016	0.049	1.6042824	-3.6669312	0.3437748	93.105675	-0.73911582	-20.12801454
3.07	307	-0.009	-1.014	0.045	1.432395	-3.8388186	0.1718874	93.12286374	-0.73911582	-20.1681216
3.08	308	-0.013	-1.01	0.043	0.9740286	-3.8961144	0	93.1343229	-0.73911582	-20.20822866
3.09	309	-0.013	-1.005	0.037	0.8021412	-3.8961144	-0.0572958	93.14578206	-0.73338624	-20.24833572
3.1	310	-0.015	-1.008	0.031	0.6302538	-4.297185	0	93.12286374	-0.72765666	-20.28844278
3.11	311	-0.021	-1.015	0.031	-0.2291832	-5.156622	-0.1145916	93.11713416	-0.72192708	-20.340009
3.12	312	-0.022	-1.021	0.024	-0.1718874	-6.4171296	-0.0572958	93.11713416	-0.7161975	-20.40303438
3.13	313	-0.022	-1.029	0.016	-0.0572958	-6.9900876	-0.0572958	93.11713416	-0.71046792	-20.47178934
3.14	314	-0.034	-1.019	0.031	-0.6875496	-6.8182002	-0.286479	93.11713416	-0.69900876	-20.5405443
3.15	315	-0.038	-1.006	0.03	-1.0313244	-4.3544808	-0.8021412	93.06556794	-0.70473834	-20.57492178
3.16	316	-0.032	-1.004	0.021	-0.9740286	-0.6875496	-1.145916	93.05983836	-0.69327918	-20.58065136
3.17	317	-0.017	-1.006	0.011	-0.6302538	2.1199446	-0.572958	93.0483792	-0.6875496	-20.56346262
3.18	318	0.001	-1.011	0.004	-0.1145916	2.578311	0.6302538	93.0483792	-0.69327918	-20.53481472
3.19	319	0.01	-1.01	0.012	-0.1145916	1.4896908	2.1199446	93.0483792	-0.7161975	-20.52335556
3.2	320	0.01	-1.007	0.018	-0.572958	-0.0572958	2.4637194	92.9910834	-0.72192708	-20.52908514
3.21	321	0	-1.008	0.016	-1.6042824	-1.432395	1.8907614	92.97389466	-0.73911582	-20.54627388
3.22	322	-0.009	-1.009	0.008	-2.9793816	-2.5210152	0.4583664	92.94524676	-0.73911582	-20.5691922
3.23	323	-0.007	-1.021	-0.003	-3.724227	-2.8074942	-0.9167328	92.9051397	-0.72765666	-20.5978401
3.24	324	-0.004	-1.027	-0.006	-4.4690724	-3.9534102	-1.8907614	92.86503264	-0.71046792	-20.63794716
3.25	325	-0.003	-1.024	-0.004	-5.5003968	-5.6149884	-2.291832	92.7905481	-0.67609044	-20.68951338
3.26	326	-0.001	-1.012	-0.003	-7.161975	-6.4171296	-2.3491278	92.71606356	-0.64744254	-20.75253876
3.27	327	-0.002	-0.994	0.006	-8.880849	-7.1046792	-2.2345362	92.63011986	-0.62452422	-20.8270233
3.28	328	-0.002	-0.997	0.011	-9.9694692	-7.6203414	-2.4637194	92.52698742	-0.59587632	-20.90150784
3.29	329	-0.008	-1.002	0.014	-11.4018642	-7.734933	-2.6356068	92.41239582	-0.56149884	-20.97599238
3.3	330	-0.018	-1.007	0.017	-11.9175264	-7.6776372	-2.4637194	92.28634506	-0.53285094	-21.05047692
3.31	331	-0.021	-1.017	0.016	-12.2613012	-7.0473834	-2.0626488	92.16602388	-0.50993262	-21.12496146
3.32	332	-0.017	-1.03	0.012	-13.178034	-6.6463128	-1.9480572	92.03424354	-0.4870143	-21.18798684
3.33	333	-0.008	-1.035	0.006	-14.0947668	-6.4171296	-2.291832	91.89100404	-0.4583664	-21.25101222
3.34	334	-0.006	-1.035	0.005	-14.8396122	-6.7036086	-2.9793816	91.74203496	-0.4297185	-21.31976718
3.35	335	-0.007	-1.026	0.017	-17.18874	-6.6463128	-4.1252976	91.56441798	-0.38388186	-21.38852214
3.36	336	-0.003	-1.011	0.018	-19.0795014	-6.0733548	-5.3285094	91.36961226	-0.33231564	-21.44581794
3.37	337	0.004	-1.011	0.021	-20.626488	-6.7036086	-6.1879464	91.16334738	-0.26356068	-21.5145729
3.38	338	0.001	-1.011	0.005	-23.0902074	-8.6516658	-7.1046792	90.9284346	-0.19480572	-21.6005166
3.39	339	-0.012	-1.006	-0.02	-26.0122932	-12.1467096	-7.9068204	90.66487392	-0.10886202	-21.72656736
3.4	340	-0.019	-0.992	-0.04	-29.1062664	-14.3812458	-8.880849	90.36693576	-0.02291832	-21.86980686
3.41	341	-0.031	-0.957	-0.034	-31.9710564	-15.2979786	-10.4278356	90.04607928	0.08021412	-22.02450552
3.42	342	-0.028	-0.913	-0.02	-34.0337052	-12.3758928	-12.7769634	89.6965749	0.20626488	-22.15055628
3.43	343	-0.012	-0.908	-0.006	-38.5600734	-7.7922288	-15.183387	89.30696346	0.35523396	-22.2307704
3.44	344	-0.005	-0.882	0.043	-44.3469492	-4.1825934	-16.615782	88.86005622	0.5156622	-22.28233662
3.45	345	-0.005	-0.853	0.05	-45.3209778	-5.9587632	-17.0741484	88.40168982	0.68182002	-22.35109158
3.46	346	0.005	-0.882	0.04	-45.83664	-6.4171296	-17.0168526	87.93759384	0.84797784	-22.42557612
3.47	347	0.029	-0.921	0.019	-46.123119	-5.156622	-16.9595568	87.46776828	1.01413566	-22.48287192
3.48	348	0.067	-0.966	-0.003	-45.550161	-3.151269	-16.2147114	87.0036723	1.16883432	-22.52870856
3.49	349	0.109	-0.997	-0.011	-44.404245	-0.286479	-14.2093584	86.55103548	1.30634424	-22.5458973
3.5	350	0.125	-1.028	0.005	-43.3729206	-0.0572958	-10.886202	86.1155874	1.41520626	-22.55735646
3.51	351	0.123	-1.043	0.053	-46.123119	-2.2345362	-8.7089616	85.64576184	1.50114996	-22.59173394
3.52	352	0.106	-0.988	0.048	-45.7793442	-8.1932994	-8.2505952	85.18166586	1.56990492	-22.68340722
3.53	353	0.079	-0.966	0.005	-42.7426668	-14.2093584	-8.307891	84.74621778	1.64438946	-22.83810588
3.54	354	0.057	-0.987	-0.005	-41.8832298	-15.756345	-8.880849	84.31649928	1.718874	-23.0042637
3.55	355	0.039	-1.017	0.016	-42.3415962	-14.4385416	-10.8289062	83.89251036	1.81054728	-23.16469194
3.56	356	0.028	-1.05	0.018	-42.685371	-11.2299768	-14.6677248	83.4513327	1.94232762	-23.29647228
3.57	357	0.03	-1.088	-0.012	-42.398892	-8.0787078	-18.048177	83.0216142	2.10848544	-23.39960472
3.58	358	0.015	-1.113	-0.029	-43.0291458	-7.5057498	-18.7930224	82.58043654	2.28037284	-23.50273716
3.59	359	0.013	-1.104	-0.051	-43.1437374	-6.1879464	-16.615782	82.13925888	2.4350715	-23.58868086
3.6	360	0.03	-1.072	-0.033	-41.4248634	-1.6042824	-12.891555	81.72672912	2.55539268	-23.62305834
3.61	361	0.035	-1.025	0.001	-39.4768062	1.432395	-9.6256944	81.32565852	2.65279554	-23.62878792
3.62	362	0.016	-0.992	0	-37.1276784	2.0626488	-6.5317212	80.94750624	2.71582092	-23.62305834
3.63	363	0.001	-0.987	-0.012	-35.236917	2.86479	-4.0680018	80.5865427	2.75592798	-23.60014002
3.64	364	0.002	-1.021	-0.017	-33.8618178	4.6982556	-2.4637194	80.24849748	2.7788463	-23.56576254
3.65	365	0.023	-1.047	-0.023	-34.2628884	8.880849	-3.6096354	79.91045226	2.82468294	-23.48554842
3.66	366	0.037	-1.077	-0.042	-35.0077338	13.9801752	-5.7868758	79.56094788	2.89916748	-23.35949766
3.67	367	0.037	-1.078	-0.067	-36.7266078	17.3606274	-7.2765666	79.19425476	2.99657034	-23.21052858
3.68	368	0.031	-1.068	-0.114	-38.674665	18.2773602	-7.448454	78.80464332	3.0939732	-23.05010034
3.69	369	0.027	-1.05	-0.136	-39.3049188	18.1054728	-7.161975	78.41503188	3.19137606	-22.8896721
3.7	370	0.03	-1.02	-0.146	-40.2789474	17.3606274	-7.2765666	78.01396128	3.28304934	-22.73497344
3.71	371	0.037	-0.988	-0.142	-41.9405256	16.5584862	-7.3911582	77.58997236	3.3804522	-22.59746352
3.72	372	0.059	-0.966	-0.099	-45.9512316	14.9542038	-7.1046792	77.13160596	3.47212548	-22.47141276
3.73	373	0.059	-0.961	-0.123	-48.414951	12.5477802	-5.5576926	76.64459166	3.54661002	-22.36255074
3.74	374	0.071	-0.983	-0.155	-51.3943326	12.4331886	-3.0939732	76.12892946	3.59817624	-22.25368872
3.75	375	0.079	-1.017	-0.166	-55.1185596	12.6623718	-1.2605076	75.57888978	3.63255372	-22.13909712
3.76	376	0.073	-1.025	-0.185	-59.2438572	12.7196676	-1.7761698	74.98301346	3.67266078	-22.0302351
3.77	377	0.058	-1.007	-0.212	-61.7648724	12.0894138	-3.2085648	74.35848924	3.724227	-21.92710266
3.78	378	0.048	-0.986	-0.268	-63.2545632	12.2613012	-4.4690724	73.72250586	3.79298196	-21.82397022
3.79	379	0.056	-0.973	-0.266	-66.4058322	15.3552744	-6.0733548	73.052145	3.88465524	-21.70364904
3.8	380	0.059	-0.932	-0.216	-66.9787902	16.7876694	-6.8182002	72.38178414	3.9820581	-21.56613912
3.81	381	0.049	-0.884	-0.207	-65.6609868	15.8136408	-5.9587632	71.72288244	4.07946096	-21.44008836
3.82	382	0.06	-0.893	-0.219	-66.463128	15.0687954	-4.2398892	71.05825116	4.1539455	-21.3140376
3.83	383	0.057	-0.935	-0.244	-67.036086	11.6883432	-1.8334656	70.38216072	4.19978214	-21.21663474
3.84	384	0.05	-0.992	-0.3	-67.036086	10.7716104	-1.3178034	69.70607028	4.2398892	-21.12496146
3.85	385	0.06	-1.042	-0.324	-67.9528188	13.5218088	-2.7501984	69.02425026	4.297185	-21.01036986
3.86	386	0.074	-1.049	-0.301	-71.2759752	15.756345	-4.6982556	68.30805276	4.38885828	-20.89004868
3.87	387	0.088	-1.005	-0.288	-73.1094408	16.2720072	-6.4171296	67.57466652	4.49199072	-20.76399792
3.88	388	0.128	-0.965	-0.258	-72.3645954	17.6471064	-8.1360036	66.84700986	4.62377106	-20.63794716
3.89	389	0.152	-0.928	-0.229	-68.6976642	18.1054728	-8.4797784	66.15373068	4.76128098	-20.5118964
3.9	390	0.133	-0.9	-0.26	-67.2652692	19.480572	-7.2765666	65.4890994	4.89306132	-20.3686569
3.91	391	0.127	-0.918	-0.297	-66.749607	22.345362	-4.7555514	64.82446812	5.01911208	-20.18531034
3.92	392	0.105	-0.979	-0.335	-68.5830726	21.4286292	-1.2605076	64.1426481	5.10505578	-20.00196378
3.93	393	0.088	-1.013	-0.414	-69.6716928	19.8243468	0.6875496	63.44363934	5.17381074	-19.8243468
3.94	394	0.074	-1.012	-0.418	-71.1613836	20.1681216	0.9167328	62.738901	5.2425657	-19.64672982
3.95	395	0.079	-0.961	-0.407	-70.473834	19.7097552	-0.4583664	62.03989224	5.32277982	-19.47484242
3.96	396	0.075	-0.944	-0.42	-69.7862844	15.3552744	-1.7761698	61.34088348	5.39726436	-19.34879166
3.97	397	0.104	-0.965	-0.423	-70.187355	12.7196676	-2.5210152	60.63614514	5.46601932	-19.25711838
3.98	398	0.148	-0.985	-0.382	-69.327918	10.6570188	-2.8074942	59.93713638	5.53477428	-19.18263384
3.99	399	0.15	-0.983	-0.363	-69.7289886	8.9954406	-3.0366774	59.23239804	5.59207008	-19.11960846
4	400	0.129	-0.964	-0.417	-67.895523	8.1360036	-2.1772404	58.5563076	5.6436363	-19.06804224
4.01	401	0.114	-0.971	-0.408	-66.749607	7.734933	-0.2291832	57.88021716	5.67801378	-19.00501686
4.02	402	0.09	-0.931	-0.357	-65.3745078	7.6203414	0.859437	57.22131546	5.7009321	-18.9362619
4.03	403	0.07	-0.882	-0.374	-63.7129296	9.2819196	1.3178034	56.58533208	5.72958	-18.85604778
4.04	404	0.082	-0.875	-0.373	-62.8534926	11.8029348	1.718874	55.95507828	5.76968706	-18.74718576
4.05	405	0.104	-0.884	-0.348	-62.3951262	13.2926256	2.1772404	55.34201322	5.8155237	-18.62686458
4.06	406	0.096	-0.871	-0.388	-61.3638018	12.3758928	2.578311	54.72894816	5.84990118	-18.51227298
4.07	407	0.087	-0.868	-0.412	-60.16059	12.605076	2.4637194	54.12734226	5.89573782	-18.39768138
4.08	408	0.095	-0.859	-0.425	-59.6449278	12.6623718	2.1199446	53.53719552	5.94157446	-18.28308978
4.09	409	0.104	-0.846	-0.437	-60.2178858	12.5477802	2.005353	52.93558962	5.9874111	-18.17422776
4.1	410	0.105	-0.841	-0.392	-63.1972674	12.605076	2.0626488	52.31679498	6.03897732	-18.05963616
4.11	411	0.131	-0.836	-0.358	-65.317212	13.464513	2.1772404	51.66362286	6.09054354	-17.93931498
4.12	412	0.147	-0.814	-0.389	-66.0620574	12.605076	3.6096354	51.00472116	6.12492102	-17.8189938
4.13	413	0.162	-0.809	-0.426	-66.0047616	10.4278356	6.8182002	50.34581946	6.1306506	-17.69867262
4.14	414	0.159	-0.825	-0.423	-66.9214944	7.3911582	10.2559482	49.6754586	6.08481396	-17.57835144
4.15	415	0.146	-0.82	-0.438	-68.0674104	2.9793816	11.9175264	49.00509774	6.01032942	-17.475219
4.16	416	0.139	-0.805	-0.458	-68.6976642	-2.1199446	12.4331886	48.31754814	5.89573782	-17.41219362
4.17	417	0.14	-0.795	-0.445	-70.8176088	-6.7609044	12.1467096	47.60135064	5.75249832	-17.38354572
4.18	418	0.107	-0.791	-0.394	-76.0315266	-10.5424272	11.6310474	46.83358692	5.5863405	-17.3892753
4.19	419	0.102	-0.82	-0.328	-83.1362058	-9.167328	10.599723	45.99133866	5.43737142	-17.38354572
4.2	420	0.13	-0.85	-0.303	-86.4020664	-5.156622	9.0527364	45.13190166	5.3285094	-17.3606274
4.21	421	0.101	-0.845	-0.285	-88.4647152	-0.4010706	7.1046792	44.23808718	5.26548402	-17.31479076
4.22	422	0.061	-0.832	-0.308	-85.7718126	3.2658606	8.021412	43.37865018	5.21964738	-17.23457664
4.23	423	0.04	-0.853	-0.384	-83.4799806	2.1772404	10.5424272	42.53640192	5.15089242	-17.14863294
4.24	424	0.01	-0.85	-0.403	-85.7145168	2.1199446	11.3445684	41.67696492	5.07640788	-17.05123008
4.25	425	-0.015	-0.825	-0.444	-88.1782362	1.2605076	10.8289062	40.80033918	5.00192334	-16.9595568
4.26	426	-0.013	-0.784	-0.496	-88.0636446	-3.2658606	9.8548776	39.91225428	4.8987909	-16.90799058
4.27	427	-0.006	-0.718	-0.495	-87.5479824	-4.1252976	7.7922288	39.02989896	4.80711762	-16.8736131
4.28	428	0.011	-0.687	-0.417	-86.516658	-3.2085648	6.6463128	38.15327322	4.7269035	-16.8449652
4.29	429	0.076	-0.655	-0.362	-88.0636446	-2.3491278	6.0733548	37.26518832	4.66387812	-16.81058772
4.3	430	0.133	-0.629	-0.359	-86.516658	-3.0366774	5.72958	36.40002174	4.59512316	-16.7876694
4.31	431	0.126	-0.631	-0.323	-84.3967134	-7.2192708	7.448454	35.54631432	4.48053156	-16.77048066
4.32	432	0.111	-0.617	-0.254	-81.5319234	-13.9801752	9.9121734	34.7212548	4.30291458	-16.77048066
4.33	433	0.069	-0.572	-0.237	-79.641162	-17.5325148	11.1153852	33.91338402	4.09092012	-16.78193982
4.34	434	-0.071	-0.491	-0.263	-79.8703452	-16.7303736	9.5111028	33.10551324	3.89038482	-16.79912856
4.35	435	-0.238	-0.38	-0.286	-74.771019	-14.9542038	7.1046792	32.34920868	3.70130868	-16.82204688
4.36	436	-0.346	-0.284	-0.184	-67.609044	-5.6722842	3.7815228	31.66738866	3.62682414	-16.82204688
4.37	437	-0.409	-0.163	-0.129	-58.728195	7.5057498	0.1145916	31.07151234	3.68411994	-16.77621024
4.38	438	-0.346	-0.052	-0.088	-45.550161	26.2987722	-2.8074942	30.61314594	3.90757356	-16.66161864
4.39	439	-0.292	0.005	0.011	-32.1429438	44.6334282	-1.8907614	30.29801904	4.29145542	-16.4438946
4.4	440	-0.203	0.06	0.117	-20.2827132	57.009321	3.724227	30.1089429	4.73836266	-16.11157896
4.41	441	-0.103	0.094	0.084	-8.6516658	61.592985	11.6310474	30.0516471	5.19672906	-15.68759004
4.42	442	-0.058	0.088	0.024	4.6982556	55.8061092	21.2567418	30.13186122	5.56342218	-15.2120349
4.43	443	-0.021	0.088	0.009	15.5271618	50.706783	31.5699858	30.3381261	5.83271244	-14.67918396
4.44	444	0.052	0.083	0	21.485925	48.5295426	39.7632852	30.61314594	6.03897732	-14.07757806
4.45	445	0.111	0.042	-0.022	23.6058696	44.5761324	43.9458786	30.9110841	6.19940556	-13.464513
4.46	446	0.056	0	-0.071	21.199446	40.5081306	43.4875122	31.18610394	6.31399716	-12.88009584
4.47	447	-0.068	-0.047	-0.05	21.3713334	43.6021038	39.4195104	31.46112378	6.4744254	-12.30713784
4.48	448	-0.191	-0.119	-0.154	20.912967	52.7694318	34.5493674	31.73041404	6.7322565	-11.72272068
4.49	449	-0.323	-0.182	-0.284	19.1367972	53.858052	31.0543236	31.98824514	7.0187355	-11.16695142
4.5	450	-0.463	-0.203	-0.251	24.1788276	55.3477428	30.3094782	32.29764246	7.29375534	-10.599723
4.51	451	-0.47	-0.218	-0.279	35.5806918	66.8641986	30.9970278	32.73309054	7.6776372	-9.96373962
4.52	452	-0.347	-0.228	-0.314	39.820581	74.5991316	28.4760126	33.22010484	8.1360036	-9.30483792
4.53	453	-0.102	-0.249	-0.302	48.2430636	78.8390208	22.2307704	33.79306284	8.65739538	-8.66312496
4.54	454	0.244	-0.324	-0.29	55.9207008	77.5785132	17.2460358	34.44623496	9.19024632	-8.06724864
4.55	455	0.602	-0.511	-0.29	42.5707794	69.5571012	14.1520626	34.96762674	9.70590852	-7.54012728
4.56	456	0.89	-0.689	-0.385	21.9442914	50.993262	13.3499214	35.25410574	10.03249458	-7.12186794
4.57	457	1.174	-0.907	-0.5	12.5477802	19.7097552	14.6677248	35.42026356	10.10697912	-6.88695516
4.58	458	1.448	-1.165	-0.616	-2.4637194	-12.3758928	18.4492476	35.41453398	9.90071424	-6.80674104
4.59	459	1.542	-1.366	-0.734	-31.2835068	-41.3675676	15.6990492	35.08221834	9.4824549	-6.92706222
4.6	460	1.382	-1.663	-0.854	-59.0719698	-62.0513514	5.9014674	34.44050538	8.94387438	-7.2479187
4.61	461	1.134	-2.312	-0.95	-82.9070226	-76.8336678	3.0366774	33.5466909	8.29643184	-7.67190762
4.62	462	0.739	-2.918	-0.809	-110.4090066	-90.9857304	2.578311	32.372127	7.52866812	-8.15892192
4.63	463	0.145	-2.934	-0.4	-140.5465974	-112.872726	-12.4331886	30.87097704	6.64058322	-8.880849
4.64	464	-0.811	-2.298	-0.073	-150.7452498	-124.4464776	-48.3003594	29.23804674	5.80979412	-9.94655088
4.65	465	-1.777	-2.166	0.069	-155.1570264	-107.3150334	-86.1155874	27.55355022	5.27694318	-11.23570638
4.66	466	-2.169	-1.858	0.008	-170.741484	-66.1193532	-114.1905294	25.70862546	5.19099948	-12.55923936
4.67	467	-2.281	-1.298	0.242	-175.7262186	-21.3140376	-127.1393802	23.81213448	5.51185596	-13.79682864
4.68	468	-2.216	-0.601	-0.192	-180.5963616	54.717489	-120.3784758	21.88126602	6.4457775	-14.67345438
4.69	469	-1.544	0.225	-0.388	-183.633039	119.748222	-119.461743	19.91602008	7.94119788	-15.3266265
4.7	470	-0.481	0.963	-0.016	-190.795014	147.3647976	-125.5350978	17.8476417	9.68871978	-16.00271694
4.71	471	0.266	1.364	0.325	-194.8630158	158.9385492	-106.570188	15.75061542	11.46488958	-16.51837914
4.72	472	0.6	1.736	0.256	-186.21135	149.4274464	-70.5311298	13.78536948	13.0347945	-16.77621024
4.73	473	0.801	1.776	0.071	-151.1463204	132.8116644	-45.4355694	12.20973498	14.39270496	-16.87934268
4.74	474	1.192	1.608	-0.043	-124.8475482	100.4968332	-36.955791	10.89193158	15.41829978	-17.01112302
4.75	475	1.458	1.352	-0.393	-106.856667	38.7892566	-38.5600734	9.71736768	15.85374786	-17.31479076
4.76	476	1.383	1.067	-1.166	-74.198061	-47.7274014	-40.4508348	8.83501236	15.4412181	-17.81326422
4.77	477	2.489	0.814	-2.934	-37.5860448	-211.2496146	-33.4034514	8.30216142	13.4358651	-18.52373214
4.78	478	2.698	0.815	-3.996	-3.3804522	-387.7206786	-15.756345	8.15319234	9.67726062	-19.34879166
4.79	479	3.838	1.531	-3.996	-67.2079734	-274.9052484	-18.6784308	7.41407652	7.0187355	-19.98477504
4.8	480	1.04	2.727	-3.996	-56.0925882	-232.04799	3.2085648	6.8468481	4.73836266	-20.29417236
4.81	481	-2.539	1.424	-3.996	60.3897732	-197.67051	-43.3729206	7.43699484	2.87051958	-21.0275586
4.82	482	-1.183	0.619	-3.64	-60.2751816	-97.6320432	-30.0229992	6.8182002	1.9480572	-21.46873626
4.83	483	0.348	-0.394	-2.686	-98.6060718	19.4232762	27.8457588	5.82698286	2.09702628	-21.15933894
4.84	484	0.655	-1.1	-2.611	-58.6136034	5.9587632	48.8733174	5.24829528	2.09702628	-20.66086548
4.85	485	0.009	-0.978	-1.265	-48.3003594	-11.1153852	50.2484166	4.80711762	1.93659804	-20.17385118
4.86	486	-0.105	-0.233	-0.493	-68.6403684	-18.334656	43.0864416	4.1252976	1.71314442	-19.76132142
4.87	487	-0.225	0.356	-0.569	-75.1147938	-37.24227	33.8618178	3.3804522	1.31207382	-19.4519241
4.88	488	-0.319	0.552	-0.704	-67.4371566	-39.7632852	12.1467096	2.70436176	0.90527364	-19.36025082
4.89	489	-0.382	0.729	-0.735	-58.728195	-28.4187168	-5.3285094	2.10848544	0.61879464	-19.42900578
4.9	490	-0.332	0.844	-0.661	-52.4829528	-14.32395	-15.4125702	1.5183387	0.4583664	-19.58370444
4.91	491	-0.207	0.794	-0.57	-42.398892	-4.6409598	-22.91832	1.0886202	0.41252976	-19.81288764
4.92	492	-0.038	0.43	-0.496	-19.3659804	-5.5003968	-27.6165756	0.8880849	0.36096354	-20.08790748
4.93	493	0.116	0.067	-0.371	-1.6042824	-11.3445684	-24.9809688	0.87662574	0.25210152	-20.340009
4.94	494	0.27	0.006	-0.209	9.453807	-22.631841	-11.5164558	0.9740286	0.03437748	-20.46605976
4.95	495	0.322	0.163	-0.131	18.7930224	-11.9175264	6.5317212	1.15164558	-0.0572958	-20.40876396
4.96	496	0.232	0.33	-0.278	30.939732	0	16.5584862	1.4610429	-0.0572958	-20.24833572
4.97	497	0.053	0.415	-0.323	35.523396	-3.7815228	18.8503182	1.82773602	-0.09740286	-20.06498916
4.98	498	-0.138	0.474	-0.384	45.263682	-3.724227	14.4958374	2.28610242	-0.13750992	-19.92747924
4.99	499	-0.239	0.382	-0.409	54.9466722	7.2192708	7.5057498	2.84187168	-0.06302538	-19.84726512
5	500	-0.304	0.283	-0.392	56.0352924	10.6570188	1.9480572	3.38618178	0.02291832	-19.8243468
5.01	501	-0.297	0.308	-0.536	62.5670136	10.7716104	1.2032118	4.02216516	0.13750992	-19.80715806
5.02	502	-0.243	0.322	-0.566	59.9314068	11.8602306	-0.6302538	4.62950064	0.26356068	-19.80142848
5.03	503	-0.144	0.384	-0.743	48.7587258	10.0840608	-6.4171296	5.12224452	0.3724227	-19.85872428
5.04	504	-0.139	0.331	-1.015	48.4722468	16.7303736	-10.313244	5.60925882	0.55576926	-19.94466798
5.05	505	-0.11	0.167	-1.25	37.3568616	18.7357266	-13.2926256	5.97595194	0.75057498	-20.05353
5.06	506	-0.098	0.064	-1.43	28.1895336	11.6883432	-13.750992	6.25670136	0.88235532	-20.17958076
5.07	507	-0.087	0.019	-1.466	17.8189938	4.6982556	-11.5164558	6.44004792	0.9453807	-20.28844278
5.08	508	-0.063	0.023	-1.409	4.7555514	8.1360036	-8.4224826	6.48588456	1.03705398	-20.35719774
5.09	509	-0.044	0.06	-1.394	-3.5523396	16.902261	-6.7609044	6.4457775	1.20894138	-20.40303438
5.1	510	0.008	0.072	-1.385	-7.2765666	20.7410796	-6.0733548	6.35410422	1.42093584	-20.43168228
5.11	511	0.048	0.047	-1.319	-13.1207382	22.1161788	-4.9274388	6.22232388	1.63865988	-20.44887102
5.12	512	0.003	0.051	-1.264	-17.4179232	20.7410796	-3.0366774	6.03897732	1.84492476	-20.4546006
5.13	513	-0.049	0.075	-1.134	-22.345362	15.6417534	-1.432395	5.80979412	1.99962342	-20.44314144
5.14	514	-0.087	0.124	-1.03	-28.8770832	5.2712136	-0.6875496	5.51758554	2.04546006	-20.44314144
5.15	515	-0.17	0.211	-1.048	-32.085648	-8.880849	-0.5156622	5.156622	1.93086846	-20.4546006
5.16	516	-0.199	0.274	-1.043	-27.2728008	-17.9908812	-1.9480572	4.88160216	1.75325148	-20.49470766
5.17	517	-0.167	0.286	-0.992	-21.1421502	-22.2880662	-2.86479	4.66387812	1.52979786	-20.54627388
5.18	518	-0.155	0.307	-0.955	-15.183387	-22.0015872	-2.4637194	4.51490904	1.3178034	-20.59211052
5.19	519	-0.142	0.291	-0.944	-7.448454	-17.8762896	-0.7448454	4.4404245	1.14018642	-20.62075842
5.2	520	-0.127	0.236	-0.9	-3.0366774	-15.2979786	0.4583664	4.31437374	0.93965112	-20.626488
5.21	521	-0.08	0.179	-0.872	-1.5469866	-12.4904844	1.3178034	4.297185	0.81360036	-20.62075842
5.22	522	-0.008	0.109	-0.856	1.8907614	-9.167328	2.7501984	4.32010332	0.72192708	-20.60356968
5.23	523	0.042	0.033	-0.843	3.0939732	-4.870143	4.1252976	4.34875122	0.67036086	-20.5691922
5.24	524	0.085	-0.025	-0.91	6.1306506	0.286479	4.6409598	4.4117766	0.67036086	-20.52335556
5.25	525	0.144	-0.058	-1.002	8.3651868	2.3491278	4.2398892	4.48626114	0.7448454	-20.4832485
5.26	526	0.177	-0.092	-1.032	7.7922288	1.145916	4.2398892	4.56647526	0.75630456	-20.44314144
5.27	527	0.186	-0.099	-1.043	6.4744254	-1.2605076	6.016059	4.63523022	0.73911582	-20.38584564
5.28	528	0.177	-0.095	-1.059	4.6409598	-3.8961144	8.3651868	4.68106686	0.69327918	-20.30563152
5.29	529	0.173	-0.093	-1.063	2.9220858	-7.6203414	9.9694692	4.71544434	0.60733548	-20.21395824
5.3	530	0.175	-0.085	-1.042	0.0572958	-11.172681	10.1986524	4.71544434	0.53285094	-20.12801454
5.31	531	0.177	-0.085	-1.026	-2.8074942	-12.2613012	9.453807	4.68679644	0.4010706	-20.04780042
5.32	532	0.183	-0.101	-1.021	-4.010706	-11.5737516	8.7089616	4.64668938	0.28074942	-19.97331588
5.33	533	0.185	-0.127	-1.02	-4.8128472	-11.5164558	7.7922288	4.60085274	0.16042824	-19.9102905
5.34	534	0.178	-0.157	-1.009	-4.9847346	-12.2040054	6.8182002	4.54928652	0.03437748	-19.8529947
5.35	535	0.17	-0.175	-0.99	-4.9847346	-12.891555	5.9587632	4.52063862	-0.05156622	-19.81288764
5.36	536	0.146	-0.175	-0.975	-4.4117766	-12.318597	4.870143	4.48053156	-0.17761698	-19.77851016
5.37	537	0.116	-0.165	-0.941	-4.297185	-11.172681	3.724227	4.43469492	-0.286479	-19.74986226
5.38	538	0.093	-0.153	-0.941	-3.3804522	-8.3651868	3.0939732	4.40604702	-0.3724227	-19.73267352
5.39	539	0.075	-0.144	-0.948	-2.4637194	-4.4690724	2.86479	4.37739912	-0.41825934	-19.70402562
5.4	540	0.055	-0.132	-0.937	-1.7761698	-1.4896908	2.3491278	4.40031744	-0.37815228	-19.69256646
5.41	541	0.045	-0.12	-0.934	-1.2605076	-0.0572958	1.2605076	4.38885828	-0.38388186	-19.67537772
5.42	542	0.043	-0.119	-0.953	-0.4010706	-0.6875496	0.4010706	4.3831287	-0.38961144	-19.67537772
5.43	543	0.041	-0.121	-0.973	-0.0572958	-1.0886202	-0.4010706	4.3831287	-0.4010706	-19.6811073
5.44	544	0.033	-0.117	-0.991	-0.572958	-0.1718874	-1.4896908	4.37739912	-0.4010706	-19.69256646
5.45	545	0.025	-0.107	-1.009	-1.0313244	0.1145916	-2.4064236	4.37166954	-0.36669312	-19.72121436
5.46	546	0.016	-0.095	-1.016	-1.145916	-0.3437748	-3.0939732	4.36021038	-0.36669312	-19.75559184
5.47	547	0.008	-0.087	-1.019	-1.145916	-1.3178034	-3.2658606	4.34875122	-0.37815228	-19.78996932
5.48	548	0.003	-0.083	-1.022	-1.6042824	-2.3491278	-3.151269	4.33156248	-0.4010706	-19.81861722
5.49	549	-0.004	-0.079	-1.013	-2.291832	-3.0366774	-3.0939732	4.30864416	-0.4297185	-19.8529947
5.5	550	-0.016	-0.075	-0.986	-2.9220858	-3.4950438	-3.3804522	4.2685371	-0.46982556	-19.89310176
5.51	551	-0.019	-0.065	-0.968	-4.6982556	-4.4690724	-4.0680018	4.21697088	-0.50993262	-19.93320882
5.52	552	-0.02	-0.043	-0.97	-4.9847346	-5.2712136	-4.1825934	4.17113424	-0.56149884	-19.98477504
5.53	553	-0.019	-0.016	-0.968	-5.156622	-5.5576926	-4.1825934	4.11956802	-0.61306506	-20.03061168
5.54	554	-0.019	0.009	-0.966	-5.6149884	-5.156622	-4.4117766	4.06227222	-0.66463128	-20.07644832
5.55	555	-0.028	0.021	-0.965	-5.6149884	-4.6982556	-4.5263682	3.95913978	-0.72192708	-20.12228496
5.56	556	-0.042	0.025	-0.968	-5.5003968	-4.8128472	-4.2398892	3.90184398	-0.76776372	-20.17385118
5.57	557	-0.054	0.02	-0.976	-4.870143	-4.9847346	-3.7815228	3.85600734	-0.81360036	-20.21395824
5.58	558	-0.062	0.012	-0.982	-4.4690724	-4.870143	-3.2085648	3.8101707	-0.859437	-20.24833572
5.59	559	-0.062	0.008	-0.987	-4.1252976	-4.2398892	-2.4064236	3.77006364	-0.89954406	-20.27698362
5.6	560	-0.061	0.006	-0.991	-3.8961144	-3.8388186	-1.6615782	3.66120162	-0.9740286	-20.29417236
5.61	561	-0.06	0.007	-0.992	-3.5523396	-3.7815228	-0.9167328	3.62682414	-1.01413566	-20.30563152
5.62	562	-0.06	0.013	-0.986	-3.2085648	-4.297185	-0.286479	3.59244666	-1.05424272	-20.3113611
5.63	563	-0.057	0.017	-0.986	-2.1199446	-3.437748	0.0572958	3.57525792	-1.0886202	-20.3113611
5.64	564	-0.054	0.016	-0.99	-0.572958	-2.005353	0.2291832	3.56952834	-1.11153852	-20.3113611
5.65	565	-0.044	0.005	-0.994	-0.2291832	-1.3750992	0.286479	3.30596766	-1.20894138	-20.29417236
5.66	566	-0.03	-0.004	-1.003	-0.4010706	-1.3750992	0	3.30023808	-1.22040054	-20.29417236
5.67	567	-0.016	-0.013	-1.014	-0.3437748	-1.2032118	-0.286479	3.30023808	-1.2318597	-20.29990194
5.68	568	-0.005	-0.021	-1.02	-0.4010706	-0.9740286	-0.7448454	3.2945085	-1.24331886	-20.3113611
5.69	569	0.001	-0.026	-1.021	-0.3437748	-0.4010706	-0.9167328	3.28877892	-1.24331886	-20.31709068
5.7	570	0.004	-0.032	-1.017	-0.2291832	0.1145916	-1.0313244	3.16272816	-1.18602306	-20.33427942
5.71	571	0.004	-0.038	-1.004	-0.572958	0.859437	-1.145916	3.15699858	-1.1745639	-20.340009
5.72	572	0.005	-0.043	-0.987	-0.7448454	2.1772404	-1.145916	3.151269	-1.15737516	-20.35146816
5.73	573	0.007	-0.047	-0.974	-1.145916	3.6669312	-0.9740286	3.13408026	-1.1172681	-20.35719774
5.74	574	0.009	-0.046	-0.971	-0.9167328	4.3544808	-0.6302538	3.12835068	-1.07143146	-20.36292732
5.75	575	0.008	-0.041	-0.968	-0.4583664	4.9847346	0.1145916	3.08824362	-1.00840608	-20.35719774
5.76	576	0.005	-0.037	-0.97	-0.5156622	5.0993262	0.572958	3.08251404	-0.95683986	-20.34573858
5.77	577	0.007	-0.034	-0.977	-0.4010706	4.6982556	0.5156622	3.07678446	-0.91100322	-20.340009
5.78	578	0.013	-0.035	-0.979	-0.2291832	3.8961144	0.3437748	3.07105488	-0.87089616	-20.32854984
5.79	579	0.015	-0.039	-0.978	-0.5156622	3.0366774	0.286479	3.0653253	-0.84224826	-20.32282026
5.8	580	0.014	-0.039	-0.978	-1.145916	2.291832	0.2291832	3.00229992	-0.79068204	-20.32282026
5.81	581	0.012	-0.037	-0.988	-1.432395	2.1772404	0.4010706	2.98511118	-0.76776372	-20.31709068
5.82	582	0.013	-0.034	-1.003	-1.4896908	1.8907614	0.6302538	2.96792244	-0.75057498	-20.30563152
5.83	583	0.013	-0.028	-1.011	-1.6042824	2.291832	0.859437	2.9507337	-0.72765666	-20.29417236
5.84	584	0.007	-0.029	-1.016	-1.432395	2.578311	1.0886202	2.93927454	-0.70473834	-20.2827132
5.85	585	0.003	-0.032	-1.013	-1.2032118	2.8074942	1.0313244	2.88197874	-0.66463128	-20.27125404
5.86	586	0.004	-0.035	-1.001	-1.432395	2.9220858	0.9740286	2.86479	-0.63598338	-20.25979488
5.87	587	0.006	-0.033	-0.986	-2.1772404	2.86479	0.8021412	2.84187168	-0.61306506	-20.24833572
5.88	588	0.009	-0.022	-0.978	-2.4637194	2.7501984	0.4583664	2.81895336	-0.58441716	-20.24260614
5.89	589	0.015	-0.014	-0.981	-1.8907614	2.578311	0	2.79603504	-0.55576926	-20.23687656
5.9	590	0.019	-0.009	-0.979	-1.432395	2.2345362	-0.0572958	2.68717302	-0.49847346	-20.23687656
5.91	591	0.021	-0.01	-0.983	-1.145916	2.4064236	-0.2291832	2.67571386	-0.47555514	-20.23687656
5.92	592	0.021	-0.016	-0.982	-1.3750992	2.3491278	-0.4010706	2.65852512	-0.45263682	-20.24260614
5.93	593	0.021	-0.019	-0.98	-1.6042824	2.005353	-0.6302538	2.64133638	-0.43544808	-20.24833572
5.94	594	0.024	-0.02	-0.974	-1.7761698	1.5469866	-0.6875496	2.62414764	-0.41825934	-20.2540653
5.95	595	0.028	-0.017	-0.975	-1.6615782	1.432395	-0.6302538	2.5210152	-0.34950438	-20.25979488
5.96	596	0.032	-0.009	-0.981	-1.3178034	1.3178034	-0.286479	2.50955604	-0.33804522	-20.25979488
5.97	597	0.032	0.005	-0.988	-1.0313244	0.9740286	0.0572958	2.49809688	-0.32658606	-20.25979488
5.98	598	0.026	0.015	-0.995	-0.6875496	0.5156622	0.1718874	2.4923673	-0.32085648	-20.25979488
5.99	599	0.018	0.018	-1	-0.1718874	-0.0572958	0.3437748	2.48663772	-0.32085648	-20.2540653
6	600	0.011	0.008	-1.004	-0.0572958	-0.6302538	0.3437748	2.1772404	-0.29793816	-20.24833572
6.01	601	0.004	-0.004	-1.008	-0.0572958	-0.859437	0.1718874	2.1772404	-0.30366774	-20.24833572
6.02	602	0	-0.018	-1.009	-0.1145916	-0.9167328	0.1145916	2.17151082	-0.3151269	-20.24833572
6.03	603	-0.004	-0.028	-1.006	-0.1145916	-0.8021412	0	2.17151082	-0.32658606	-20.24833572
6.04	604	-0.005	-0.035	-1	0	-0.6302538	-0.1718874	2.17151082	-0.33231564	-20.2540653
6.05	605	-0.003	-0.038	-0.993	0.2291832	-0.1145916	-0.0572958	1.99962342	-0.36096354	-20.24833572
6.06	606	0.001	-0.037	-0.989	0.2291832	0.2291832	0.0572958	2.005353	-0.36096354	-20.24833572
6.07	607	0.009	-0.029	-0.988	0.4010706	0.572958	0.3437748	2.005353	-0.35523396	-20.24260614
6.08	608	0.012	-0.022	-0.987	0.8021412	0.286479	0.6875496	2.01681216	-0.34950438	-20.23687656
6.09	609	0.011	-0.016	-0.989	1.2032118	-0.286479	0.9167328	2.02827132	-0.35523396	-20.2254174
6.1	610	0.01	-0.014	-0.992	1.145916	-0.6875496	0.859437	1.95378678	-0.3437748	-20.21968782
6.11	611	0.009	-0.014	-0.991	1.0313244	-0.6302538	0.9167328	1.96524594	-0.34950438	-20.20822866
6.12	612	0.009	-0.015	-0.992	0.6875496	-0.5156622	0.7448454	1.97097552	-0.35523396	-20.20249908
6.13	613	0.011	-0.014	-0.993	0.286479	-0.2291832	0.6302538	1.9767051	-0.36096354	-20.1967695
6.14	614	0.012	-0.013	-0.994	0.2291832	0.1145916	0.4010706	1.9767051	-0.36096354	-20.19103992
6.15	615	0.011	-0.011	-0.993	0.4583664	0.5156622	0.4583664	1.85065434	-0.32085648	-20.19103992
6.16	616	0.01	-0.01	-0.992	0.6302538	0.7448454	0.5156622	1.85638392	-0.3151269	-20.17958076
6.17	617	0.01	-0.008	-0.991	0.572958	0.8021412	0.6875496	1.8621135	-0.30939732	-20.17385118
6.18	618	0.012	-0.004	-0.99	0.6302538	1.0313244	0.8021412	1.86784308	-0.29793816	-20.1681216
6.19	619	0.015	-0.003	-0.992	0.859437	0.859437	0.6875496	1.87930224	-0.286479	-20.15666244
6.2	620	0.017	-0.006	-0.996	1.145916	0.6302538	0.572958	1.78762896	-0.25210152	-20.15093286
6.21	621	0.02	-0.009	-0.996	1.432395	0.4583664	0.4010706	1.79908812	-0.24637194	-20.15093286
6.22	622	0.021	-0.012	-0.995	1.6615782	0	0.4583664	1.81627686	-0.24637194	-20.14520328
6.23	623	0.021	-0.015	-0.991	1.432395	-0.1718874	0.4583664	1.8334656	-0.25210152	-20.1394737
6.24	624	0.019	-0.015	-0.99	1.2032118	0	0.6302538	1.84492476	-0.25210152	-20.13374412
6.25	625	0.018	-0.015	-0.989	1.145916	0	0.6875496	1.7475219	-0.21199446	-20.12801454
6.26	626	0.015	-0.016	-0.985	1.0886202	-0.1145916	0.5156622	1.75898106	-0.21199446	-20.12228496
6.27	627	0.015	-0.017	-0.981	0.4010706	-0.1718874	0.4010706	1.76471064	-0.21199446	-20.11655538
6.28	628	0.015	-0.017	-0.982	-0.1718874	0	0.2291832	1.76471064	-0.21199446	-20.11655538
6.29	629	0.015	-0.015	-0.983	-0.1145916	0	0.1718874	1.76471064	-0.21199446	-20.1108258
6.3	630	0.016	-0.014	-0.988	0.2291832	0	0.1145916	1.4896908	-0.12032118	-20.11655538
6.31	631	0.014	-0.015	-0.992	0.7448454	0.1145916	0.2291832	1.50114996	-0.1145916	-20.1108258
6.32	632	0.011	-0.017	-0.992	1.0313244	0.1145916	0.286479	1.51260912	-0.1145916	-20.1108258
6.33	633	0.011	-0.019	-0.993	1.0313244	-0.1718874	0.3437748	1.5183387	-0.1145916	-20.10509622
6.34	634	0.014	-0.019	-0.996	0.859437	-0.572958	0.3437748	1.52979786	-0.12032118	-20.10509622
6.35	635	0.016	-0.019	-0.994	0.8021412	-0.859437	0.4583664	1.47250206	-0.10313244	-20.09936664
6.36	636	0.015	-0.019	-0.989	0.7448454	-0.8021412	0.4583664	1.48396122	-0.10886202	-20.09363706
6.37	637	0.012	-0.016	-0.989	0.859437	-0.5156622	0.286479	1.4896908	-0.1145916	-20.09363706
6.38	638	0.011	-0.012	-0.986	0.9740286	-0.3437748	0.0572958	1.50114996	-0.12032118	-20.09363706
6.39	639	0.015	-0.013	-0.983	0.9167328	-0.286479	0	1.51260912	-0.12032118	-20.09363706
6.4	640	0.018	-0.014	-0.985	0.8021412	-0.5156622	0.0572958	1.42093584	-0.0859437	-20.09363706
6.41	641	0.02	-0.014	-0.988	0.9740286	-0.9167328	0.2291832	1.432395	-0.09740286	-20.09363706
6.42	642	0.021	-0.013	-0.993	1.2605076	-1.145916	0.572958	1.44385416	-0.10886202	-20.08790748
6.43	643	0.02	-0.015	-0.996	1.3750992	-1.2605076	0.6875496	1.4610429	-0.12032118	-20.0821779
6.44	644	0.016	-0.017	-0.999	1.2032118	-1.145916	0.6875496	1.47250206	-0.13178034	-20.07644832
6.45	645	0.011	-0.018	-0.998	1.0886202	-1.0886202	0.572958	1.432395	-0.13750992	-20.07071874
6.46	646	0.006	-0.019	-0.992	0.9167328	-0.9740286	0.4583664	1.43812458	-0.1432395	-20.06498916
6.47	647	0.005	-0.017	-0.989	0.859437	-0.6875496	0.2291832	1.44958374	-0.15469866	-20.06498916
6.48	648	0.007	-0.014	-0.985	0.9167328	-0.6302538	0.0572958	1.4610429	-0.16042824	-20.06498916
6.49	649	0.009	-0.011	-0.987	0.9740286	-0.5156622	0.1145916	1.46677248	-0.16615782	-20.06498916
6.5	650	0.012	-0.009	-0.986	1.145916	-0.3437748	0.2291832	1.39228794	-0.14896908	-20.05925958
6.51	651	0.011	-0.01	-0.988	1.3750992	-0.4010706	0.286479	1.40947668	-0.14896908	-20.05925958
6.52	652	0.011	-0.013	-0.989	1.432395	-0.1718874	0.286479	1.42093584	-0.15469866	-20.05353
6.53	653	0.009	-0.016	-0.992	1.3750992	0	0.4010706	1.43812458	-0.15469866	-20.05353
6.54	654	0.012	-0.018	-0.995	1.2605076	0.1145916	0.286479	1.44958374	-0.15469866	-20.04780042
6.55	655	0.014	-0.018	-0.996	1.2032118	0.1718874	0.2291832	1.38082878	-0.12032118	-20.04780042
6.56	656	0.017	-0.016	-0.994	1.0886202	0.1145916	0.3437748	1.39228794	-0.1145916	-20.04207084
6.57	657	0.019	-0.015	-0.991	0.9740286	0.1718874	0.286479	1.4037471	-0.1145916	-20.04207084
6.58	658	0.018	-0.012	-0.987	1.2605076	-0.0572958	0.4010706	1.41520626	-0.1145916	-20.03634126
6.59	659	0.015	-0.011	-0.986	1.4896908	-0.2291832	0.4010706	1.432395	-0.12032118	-20.03061168
6.6	660	0.012	-0.013	-0.985	1.3750992	-0.4010706	0.4010706	1.3750992	-0.10886202	-20.03061168
6.61	661	0.011	-0.015	-0.985	1.2032118	-0.3437748	0.4583664	1.38655836	-0.1145916	-20.0248821
6.62	662	0.009	-0.018	-0.988	1.0886202	-0.1718874	0.4583664	1.39801752	-0.1145916	-20.01915252
6.63	663	0.01	-0.021	-0.991	1.2605076	0	0.3437748	1.41520626	-0.1145916	-20.01342294
6.64	664	0.01	-0.021	-0.991	1.2032118	0.2291832	0.286479	1.42666542	-0.1145916	-20.01342294
6.65	665	0.01	-0.022	-0.992	1.3178034	0.0572958	0.286479	1.36364004	-0.10313244	-20.00769336
6.66	666	0.01	-0.02	-0.992	1.3750992	-0.1718874	0.286479	1.38082878	-0.10313244	-20.00769336
6.67	667	0.011	-0.021	-0.991	1.3750992	-0.0572958	0.286479	1.39228794	-0.10313244	-20.00196378
6.68	668	0.014	-0.021	-0.989	1.0886202	0	0.3437748	1.4037471	-0.10313244	-20.00196378
6.69	669	0.015	-0.019	-0.988	0.859437	0.1718874	0.3437748	1.41520626	-0.10313244	-19.9962342
6.7	670	0.015	-0.019	-0.989	1.0313244	0.2291832	0.4583664	1.36364004	-0.08021412	-19.9962342
6.71	671	0.013	-0.02	-0.99	1.2032118	0.1718874	0.4010706	1.3750992	-0.08021412	-19.99050462
6.72	672	0.013	-0.02	-0.987	1.145916	0.1718874	0.3437748	1.38655836	-0.07448454	-19.98477504
6.73	673	0.014	-0.019	-0.985	0.9740286	0.2291832	0.4010706	1.39801752	-0.07448454	-19.97904546
6.74	674	0.018	-0.017	-0.985	0.7448454	0.3437748	0.4010706	1.40947668	-0.06875496	-19.97904546
6.75	675	0.02	-0.014	-0.989	0.9167328	0.4583664	0.4010706	1.34072172	-0.0286479	-19.97331588
6.76	676	0.02	-0.013	-0.989	1.2032118	0.4010706	0.572958	1.35218088	-0.02291832	-19.9675863
6.77	677	0.02	-0.012	-0.991	1.2032118	0.3437748	0.6302538	1.36364004	-0.02291832	-19.96185672
6.78	678	0.017	-0.014	-0.993	1.2605076	0.0572958	0.6302538	1.3750992	-0.02291832	-19.95612714
6.79	679	0.014	-0.017	-0.994	1.3750992	0	0.6302538	1.39228794	-0.02291832	-19.95039756
6.8	680	0.013	-0.02	-0.993	1.3750992	-0.1145916	0.5156622	1.35218088	-0.00572958	-19.94466798
6.81	681	0.014	-0.021	-0.993	1.2605076	-0.1718874	0.4583664	1.36364004	-0.01145916	-19.9389384
6.82	682	0.015	-0.022	-0.991	1.145916	-0.2291832	0.4583664	1.3750992	-0.01145916	-19.93320882
6.83	683	0.017	-0.019	-0.988	1.145916	-0.1145916	0.4010706	1.38655836	-0.01145916	-19.92747924
6.84	684	0.016	-0.018	-0.987	1.145916	-0.1145916	0.4583664	1.39801752	-0.01718874	-19.92747924
6.85	685	0.015	-0.017	-0.987	0.5156622	-0.286479	0.2291832	1.18602306	0.03437748	-19.92747924
6.86	686	0.014	-0.019	-0.986	-0.2291832	-0.286479	-0.0572958	1.18029348	0.0286479	-19.92747924
6.87	687	0.015	-0.019	-0.984	-0.4583664	-0.286479	-0.1145916	1.18029348	0.0286479	-19.92747924
6.88	688	0.014	-0.018	-0.984	-0.5156622	-0.286479	-0.1145916	1.1745639	0.02291832	-19.92747924
6.89	689	0.014	-0.017	-0.986	-0.4583664	-0.286479	-0.1718874	1.16883432	0.02291832	-19.93320882
6.9	690	0.014	-0.015	-0.991	-0.286479	-0.1718874	-0.1718874	1.0026765	0.05156622	-19.93320882
6.91	691	0.015	-0.014	-0.994	-0.1145916	-0.1145916	-0.1145916	1.0026765	0.05156622	-19.9389384
6.92	692	0.016	-0.015	-0.994	0	-0.286479	-0.0572958	1.0026765	0.04583664	-19.9389384
6.93	693	0.016	-0.018	-0.993	0	0	-0.0572958	1.0026765	0.04583664	-19.9389384
6.94	694	0.014	-0.02	-0.99	0	0.2291832	-0.0572958	1.0026765	0.05156622	-19.9389384
6.95	695	0.017	-0.019	-0.992	-0.2291832	0	-0.0572958	0.89381448	0.1145916	-19.94466798
6.96	696	0.017	-0.021	-0.989	-0.1145916	-0.4583664	0.0572958	0.8880849	0.10886202	-19.94466798
6.97	697	0.014	-0.022	-0.985	-0.1145916	-0.1718874	0	0.8880849	0.10886202	-19.94466798
6.98	698	0.011	-0.021	-0.983	-0.5156622	0	-0.1718874	0.88235532	0.10886202	-19.94466798
6.99	699	0.014	-0.019	-0.983	-0.4583664	-0.1145916	-0.286479	0.87662574	0.10886202	-19.95039756
7	700	0.016	-0.021	-0.982	-0.4583664	0	-0.286479	0.82505952	0.13178034	-19.95039756
7.01	701	0.015	-0.023	-0.985	-0.8021412	-0.2291832	-0.1718874	0.81932994	0.13178034	-19.95612714
7.02	702	0.015	-0.021	-0.986	-0.859437	-0.3437748	0	0.80787078	0.12605076	-19.95612714
7.03	703	0.016	-0.019	-0.989	-0.6875496	-0.1145916	0.1145916	0.8021412	0.12605076	-19.95039756
7.04	704	0.015	-0.018	-0.992	-0.5156622	0	0.0572958	0.79641162	0.12605076	-19.95039756
7.05	705	0.012	-0.019	-0.997	-0.3437748	0.0572958	0	0.68182002	0.1432395	-19.95039756
7.06	706	0.011	-0.021	-0.994	-0.0572958	0.2291832	-0.1145916	0.67609044	0.1432395	-19.95612714
7.07	707	0.012	-0.02	-0.992	0	0.2291832	-0.2291832	0.67609044	0.1432395	-19.95612714
7.08	708	0.012	-0.02	-0.99	0	0.1718874	-0.286479	0.67609044	0.14896908	-19.96185672
7.09	709	0.015	-0.017	-0.989	-0.0572958	0.1145916	-0.286479	0.67609044	0.14896908	-19.96185672
7.1	710	0.019	-0.014	-0.985	-0.1718874	0.2291832	-0.1718874	0.572958	0.20626488	-19.9675863
7.11	711	0.021	-0.014	-0.984	-0.2291832	0	0	0.56722842	0.20626488	-19.9675863
7.12	712	0.021	-0.016	-0.981	-0.286479	0	0	0.56722842	0.20626488	-19.9675863
7.13	713	0.019	-0.017	-0.984	-0.286479	0	-0.0572958	0.56149884	0.20626488	-19.9675863
7.14	714	0.019	-0.019	-0.987	-0.3437748	0.0572958	-0.0572958	0.55576926	0.20626488	-19.9675863
7.15	715	0.017	-0.019	-0.99	-0.3437748	0	-0.0572958	0.49274388	0.24064236	-19.9675863
7.16	716	0.018	-0.019	-0.991	-0.3437748	0.0572958	0	0.4870143	0.24064236	-19.9675863
7.17	717	0.018	-0.018	-0.991	-0.3437748	0.1145916	0	0.4870143	0.24064236	-19.9675863
7.18	718	0.018	-0.02	-0.987	-0.4010706	0	0.0572958	0.48128472	0.24064236	-19.9675863
7.19	719	0.017	-0.019	-0.986	-0.4583664	-0.1145916	0	0.47555514	0.24064236	-19.9675863
7.2	720	0.016	-0.021	-0.989	-0.4583664	0	0	0.43544808	0.26356068	-19.9675863
7.21	721	0.016	-0.02	-0.99	-0.6875496	0	0	0.42398892	0.26356068	-19.9675863
7.22	722	0.016	-0.018	-0.992	-0.6875496	0	0	0.41825934	0.26356068	-19.9675863
7.23	723	0.017	-0.02	-0.992	-0.7448454	0	0	0.41252976	0.26356068	-19.9675863
7.24	724	0.018	-0.019	-0.991	-0.6302538	0.1145916	0	0.4010706	0.26929026	-19.9675863
7.25	725	0.018	-0.018	-0.99	-0.6302538	0.2291832	-0.0572958	0.35523396	0.29220858	-19.9675863
7.26	726	0.016	-0.02	-0.989	-0.4010706	0	0	0.34950438	0.29220858	-19.9675863
7.27	727	0.014	-0.02	-0.986	-0.4583664	0	0	0.34950438	0.29220858	-19.9675863
7.28	728	0.013	-0.019	-0.986	-0.572958	0.1145916	0	0.33804522	0.29220858	-19.9675863
7.29	729	0.015	-0.017	-0.987	-0.4583664	0.3437748	0.0572958	0.33804522	0.29793816	-19.9675863
7.3	730	0.017	-0.015	-0.988	-0.2291832	0.4010706	0.1145916	0.286479	0.32658606	-19.9675863
7.31	731	0.016	-0.016	-0.992	-0.1145916	0.572958	0.1145916	0.286479	0.33231564	-19.9675863
7.32	732	0.016	-0.015	-0.994	0	0.5156622	0	0.286479	0.33804522	-19.9675863
7.33	733	0.015	-0.015	-0.994	0	0.5156622	0.0572958	0.286479	0.3437748	-19.9675863
7.34	734	0.016	-0.016	-0.992	0.0572958	0.572958	0	0.286479	0.34950438	-19.96185672
7.35	735	0.018	-0.016	-0.99	0	0.5156622	0	0.24064236	0.38388186	-19.9675863
7.36	736	0.021	-0.015	-0.99	0	0.5156622	0	0.24064236	0.38961144	-19.9675863
7.37	737	0.021	-0.014	-0.989	0.1145916	0.2291832	0.0572958	0.24064236	0.39534102	-19.96185672
7.38	738	0.021	-0.014	-0.986	0	0.1718874	0.0572958	0.24064236	0.39534102	-19.96185672
7.39	739	0.02	-0.014	-0.988	0	-0.0572958	0.0572958	0.24064236	0.39534102	-19.96185672
7.4	740	0.02	-0.016	-0.989	0.0572958	-0.1718874	0.0572958	0.18907614	0.44117766	-19.96185672
7.41	741	0.021	-0.018	-0.989	0	-0.0572958	0	0.18907614	0.43544808	-19.96185672
7.42	742	0.022	-0.018	-0.989	0	0	0	0.18907614	0.43544808	-19.96185672
7.43	743	0.021	-0.018	-0.99	0	0	0	0.18907614	0.43544808	-19.96185672
7.44	744	0.019	-0.017	-0.991	0.0572958	0.0572958	0	0.18907614	0.44117766	-19.96185672
7.45	745	0.02	-0.017	-0.991	0.0572958	0.2291832	0.0572958	0.1432395	0.47555514	-19.96185672
7.46	746	0.021	-0.017	-0.992	0.1145916	0.3437748	0	0.14896908	0.48128472	-19.96185672
7.47	747	0.021	-0.015	-0.992	0.1145916	0.3437748	-0.0572958	0.14896908	0.48128472	-19.96185672
7.48	748	0.021	-0.016	-0.988	0.1718874	0.3437748	0	0.14896908	0.4870143	-19.96185672
7.49	749	0.021	-0.015	-0.988	0.1718874	0.286479	0	0.15469866	0.4870143	-19.96185672
7.5	750	0.018	-0.014	-0.989	0.286479	0	-0.0572958	0.12605076	0.49274388	-19.9675863
7.51	751	0.013	-0.012	-0.989	0.9167328	-0.7448454	-0.1718874	0.13750992	0.48128472	-19.9675863
7.52	752	0.009	-0.013	-0.988	1.145916	-1.2605076	-0.2291832	0.14896908	0.46982556	-19.97331588
7.53	753	0.016	-0.018	-0.989	1.0313244	-1.2032118	-0.1718874	0.16042824	0.4583664	-19.97331588
7.54	754	0.026	-0.022	-0.993	0.7448454	-1.0313244	0.1145916	0.1718874	0.44690724	-19.97331588
7.55	755	0.032	-0.022	-0.997	0.7448454	-1.145916	0.4010706	0.1718874	0.4583664	-19.9675863
7.56	756	0.037	-0.02	-0.999	0.6875496	-1.145916	0.286479	0.18334656	0.44690724	-19.9675863
7.57	757	0.037	-0.016	-0.995	0.5156622	-1.3750992	0.0572958	0.18907614	0.4297185	-19.9675863
7.58	758	0.028	-0.014	-0.986	0.5156622	-1.3750992	-0.0572958	0.19480572	0.41825934	-19.9675863
7.59	759	0.022	-0.015	-0.981	0.572958	-0.9740286	-0.1718874	0.2005353	0.40680018	-19.9675863
7.6	760	0.017	-0.015	-0.982	0.572958	-0.3437748	-0.2291832	0.18334656	0.41252976	-19.97331588
7.61	761	0.017	-0.015	-0.986	0.4583664	-0.2291832	-0.1145916	0.18907614	0.40680018	-19.97331588
7.62	762	0.017	-0.015	-0.985	0.1718874	-0.3437748	-0.0572958	0.18907614	0.40680018	-19.97331588
7.63	763	0.013	-0.016	-0.985	-0.1718874	-0.1718874	-0.1718874	0.18907614	0.4010706	-19.97904546
7.64	764	0.011	-0.015	-0.988	-0.4583664	0.1145916	-0.4010706	0.18334656	0.40680018	-19.97904546
7.65	765	0.011	-0.016	-0.986	-0.6302538	0.1718874	-0.572958	0.16615782	0.4010706	-19.98477504
7.66	766	0.011	-0.02	-0.985	-0.8021412	0.1718874	-0.572958	0.16042824	0.40680018	-19.99050462
7.67	767	0.012	-0.021	-0.984	-0.9167328	-0.0572958	-0.4010706	0.14896908	0.40680018	-19.9962342
7.68	768	0.017	-0.02	-0.989	-0.859437	0	-0.1718874	0.1432395	0.40680018	-19.9962342
7.69	769	0.02	-0.018	-0.992	-0.6302538	0.4010706	-0.0572958	0.13178034	0.40680018	-20.00196378
7.7	770	0.019	-0.016	-0.996	-0.4010706	0.6302538	-0.1718874	0.1145916	0.42398892	-20.00196378
7.71	771	0.019	-0.014	-0.997	-0.2291832	0.4583664	-0.2291832	0.10886202	0.4297185	-20.00196378
7.72	772	0.019	-0.014	-0.995	0	0.2291832	-0.1718874	0.10886202	0.4297185	-20.00769336
7.73	773	0.018	-0.014	-0.992	0.0572958	0	-0.1145916	0.10886202	0.4297185	-20.00769336
7.74	774	0.016	-0.014	-0.99	0	0	0	0.10886202	0.4297185	-20.00769336
7.75	775	0.018	-0.012	-0.987	-0.2291832	0.0572958	-0.0572958	0.0572958	0.45263682	-20.00769336
7.76	776	0.02	-0.01	-0.986	-0.4010706	0.1145916	0	0.0572958	0.45263682	-20.00769336
7.77	777	0.022	-0.009	-0.986	-0.572958	0.0572958	0	0.04583664	0.45263682	-20.00769336
7.78	778	0.022	-0.009	-0.986	-0.6302538	-0.1145916	0	0.04010706	0.45263682	-20.00769336
7.79	779	0.021	-0.01	-0.986	-0.3437748	-0.2291832	0	0.04010706	0.45263682	-20.00769336
7.8	780	0.02	-0.011	-0.989	0	-0.1145916	0	-0.06302538	0.49847346	-20.01342294
7.81	781	0.021	-0.014	-0.993	0	0	0	-0.06302538	0.49847346	-20.01342294
7.82	782	0.024	-0.014	-0.995	0	0	0.0572958	-0.06302538	0.49847346	-20.00769336
7.83	783	0.026	-0.015	-0.993	-0.0572958	-0.1718874	0	-0.06302538	0.49847346	-20.00769336
7.84	784	0.027	-0.015	-0.993	0	-0.4583664	0	-0.06302538	0.49274388	-20.00769336
7.85	785	0.029	-0.015	-0.992	-0.0572958	-0.572958	-0.1718874	-0.08021412	0.52139178	-20.01342294
7.86	786	0.028	-0.013	-0.992	0	-0.4583664	-0.1718874	-0.08021412	0.5156622	-20.01342294
7.87	787	0.028	-0.012	-0.992	0	-0.1718874	-0.3437748	-0.08021412	0.5156622	-20.01915252
7.88	788	0.025	-0.012	-0.986	-0.0572958	0	-0.4010706	-0.08021412	0.5156622	-20.0248821
7.89	789	0.024	-0.013	-0.986	-0.2291832	0.2291832	-0.5156622	-0.0859437	0.5156622	-20.03061168
7.9	790	0.022	-0.015	-0.986	-0.286479	0.4010706	-0.4583664	-0.09167328	0.53285094	-20.03061168
7.91	791	0.022	-0.015	-0.987	-0.4010706	0.286479	-0.4010706	-0.09740286	0.53858052	-20.03634126
7.92	792	0.022	-0.014	-0.987	-0.3437748	0.1145916	-0.4010706	-0.10313244	0.53858052	-20.04207084
7.93	793	0.02	-0.014	-0.987	-0.2291832	-0.0572958	-0.286479	-0.10313244	0.53858052	-20.04207084
7.94	794	0.018	-0.014	-0.987	0	-0.1145916	-0.2291832	-0.10313244	0.53858052	-20.04780042
7.95	795	0.019	-0.015	-0.989	0	-0.1145916	-0.1718874	-0.12605076	0.55576926	-20.04780042
7.96	796	0.02	-0.014	-0.991	-0.0572958	-0.1145916	-0.1145916	-0.12605076	0.55576926	-20.04780042
7.97	797	0.021	-0.013	-0.992	-0.0572958	-0.1145916	0	-0.12605076	0.55003968	-20.05353
7.98	798	0.021	-0.013	-0.992	0	-0.1718874	0	-0.12605076	0.55003968	-20.05353
7.99	799	0.02	-0.014	-0.993	0.0572958	-0.0572958	0.0572958	-0.12605076	0.55003968	-20.04780042
8	800	0.019	-0.014	-0.991	0.1145916	0	0.1145916	-0.15469866	0.572958	-20.04780042
8.01	801	0.02	-0.012	-0.991	0.0572958	0.1718874	0.0572958	-0.15469866	0.57868758	-20.04780042
8.02	802	0.022	-0.012	-0.99	0	0.1718874	0.1145916	-0.15469866	0.57868758	-20.04780042
8.03	803	0.022	-0.01	-0.99	0.0572958	0	0.1145916	-0.15469866	0.57868758	-20.04780042
8.04	804	0.023	-0.009	-0.99	0.1718874	-0.2291832	0.286479	-0.15469866	0.57868758	-20.04207084
8.05	805	0.022	-0.008	-0.991	0.1718874	-0.2291832	0.1718874	-0.17761698	0.58441716	-20.04207084
8.06	806	0.02	-0.009	-0.99	0.286479	-0.1145916	0.0572958	-0.1718874	0.58441716	-20.04207084
8.07	807	0.019	-0.012	-0.989	0.1718874	0.1718874	0	-0.1718874	0.59014674	-20.04207084
8.08	808	0.022	-0.012	-0.99	0.1718874	0.4010706	-0.0572958	-0.1718874	0.59014674	-20.04207084
8.09	809	0.023	-0.012	-0.989	0.1718874	0.3437748	0	-0.16615782	0.59587632	-20.04207084
8.1	810	0.024	-0.011	-0.989	0.1718874	0.3437748	0.0572958	-0.19480572	0.62452422	-20.04207084
8.11	811	0.025	-0.009	-0.99	0.1145916	0.3437748	0.1718874	-0.19480572	0.6302538	-20.03634126
8.12	812	0.026	-0.009	-0.992	0.1145916	0.286479	0.1718874	-0.19480572	0.63598338	-20.03634126
8.13	813	0.026	-0.01	-0.994	0.1718874	0.1718874	0.1718874	-0.19480572	0.63598338	-20.03634126
8.14	814	0.031	-0.009	-0.997	0.286479	0.1145916	0.2291832	-0.18907614	0.63598338	-20.03061168
8.15	815	0.031	-0.011	-0.995	0.286479	0	0.4010706	-0.19480572	0.67036086	-20.0248821
8.16	816	0.03	-0.012	-0.99	-0.0572958	-0.0572958	0.4583664	-0.2005353	0.67036086	-20.0248821
8.17	817	0.03	-0.011	-0.986	-0.286479	0.1145916	0.2291832	-0.2005353	0.67036086	-20.01915252
8.18	818	0.028	-0.008	-0.987	-0.1718874	0.1718874	0.0572958	-0.2005353	0.67036086	-20.01915252
8.19	819	0.029	-0.004	-0.991	0	0.1145916	-0.1718874	-0.20626488	0.67036086	-20.01915252
8.2	820	0.03	-0.003	-0.993	0	-0.0572958	-0.286479	-0.24637194	0.70473834	-20.0248821
8.21	821	0.03	-0.004	-0.991	-0.0572958	-0.5156622	-0.2291832	-0.25210152	0.69900876	-20.0248821
8.22	822	0.029	-0.007	-0.988	0	-0.9167328	-0.286479	-0.25210152	0.6875496	-20.03061168
8.23	823	0.028	-0.01	-0.984	0.2291832	-1.0313244	-0.4010706	-0.24637194	0.68182002	-20.03634126
8.24	824	0.027	-0.012	-0.985	0.2291832	-1.0886202	-0.4010706	-0.24637194	0.67036086	-20.04207084
8.25	825	0.025	-0.012	-0.989	0.286479	-1.3750992	-0.2291832	-0.24637194	0.6589017	-20.04207084
8.26	826	0.025	-0.01	-0.989	0.4010706	-1.5469866	-0.0572958	-0.24064236	0.64744254	-20.04207084
8.27	827	0.023	-0.01	-0.989	0.4583664	-1.8334656	0	-0.23491278	0.62452422	-20.04207084
8.28	828	0.021	-0.012	-0.987	0.4010706	-1.9480572	0.1718874	-0.23491278	0.60733548	-20.04207084
8.29	829	0.021	-0.015	-0.986	0.0572958	-1.6615782	0.1718874	-0.2291832	0.59014674	-20.04207084
8.3	830	0.021	-0.015	-0.99	-0.0572958	-1.4896908	0.2291832	-0.23491278	0.57868758	-20.03634126
