TimeStamp(s)	FrameCounter	AccX	AccY	AccZ	GyrX	GyrY	GyrZ	EulerX	EulerY	EulerZ
0.01	1	0.004	-1.006	0.152	-0.6302538	3.9534102	-1.3750992	104.5533758	0.2578311	-48.82748076
0.02	2	0.003	-1.006	0.157	-0.7448454	3.5523396	-1.432395	104.5476463	0.2578311	-48.79310328
0.03	3	0.006	-1.006	0.167	-1.6615782	2.9220858	-1.718874	104.5304575	0.26929026	-48.7587258
0.04	4	0.009	-1.003	0.167	-2.291832	2.5210152	-1.8907614	104.5075392	0.28074942	-48.7300779
0.05	5	0.012	-0.999	0.159	-2.1772404	2.8074942	-1.8907614	104.4445138	0.29793816	-48.70715958
0.06	6	0.014	-1.001	0.152	-1.8907614	3.2658606	-1.8907614	104.4215955	0.30366774	-48.66705252
0.07	7	0.016	-1.004	0.151	-1.6042824	3.437748	-1.7761698	104.4044068	0.30939732	-48.63267504
0.08	8	0.019	-1.006	0.148	-1.6042824	3.2658606	-1.6615782	104.387218	0.32085648	-48.59829756
0.09	9	0.022	-1.003	0.149	-1.432395	3.0939732	-1.432395	104.3757589	0.32658606	-48.56392008
0.1	10	0.021	-0.993	0.145	-1.0886202	3.0366774	-1.2605076	104.3012743	0.33804522	-48.54100176
0.11	11	0.024	-0.987	0.147	-0.7448454	2.9793816	-1.145916	104.2955447	0.3437748	-48.50662428
0.12	12	0.025	-0.984	0.15	-0.5156622	3.0366774	-1.0886202	104.2898152	0.3437748	-48.4722468
0.13	13	0.025	-0.984	0.152	-0.4583664	3.0366774	-0.9740286	104.2840856	0.3437748	-48.4435989
0.14	14	0.024	-0.988	0.153	-0.4010706	2.9220858	-0.7448454	104.278356	0.3437748	-48.414951
0.15	15	0.024	-0.993	0.151	-0.4583664	2.4637194	-0.7448454	104.1981419	0.36096354	-48.39776226
0.16	16	0.026	-0.994	0.152	-0.5156622	1.9480572	-0.9167328	104.1924123	0.36669312	-48.37484394
0.17	17	0.028	-0.994	0.153	-0.4010706	1.7761698	-0.9740286	104.1866827	0.3724227	-48.3576552
0.18	18	0.032	-0.993	0.151	-0.1718874	1.6042824	-0.859437	104.1866827	0.3724227	-48.34046646
0.19	19	0.032	-0.995	0.153	0	0.6875496	-0.859437	104.1866827	0.37815228	-48.3290073
0.2	20	0.029	-0.998	0.154	0.0572958	0.3437748	-0.6302538	103.9460404	0.44117766	-48.35192562
0.21	21	0.027	-0.998	0.155	0	0	-0.6302538	103.9460404	0.44690724	-48.35192562
0.22	22	0.024	-0.995	0.159	-0.1718874	-0.6875496	-0.6875496	103.9460404	0.4583664	-48.3576552
0.23	23	0.024	-0.994	0.164	-0.4583664	-1.5469866	-0.8021412	103.9403108	0.46982556	-48.36911436
0.24	24	0.025	-0.994	0.161	-0.6302538	-2.2345362	-0.8021412	103.9345812	0.4870143	-48.39203268
0.25	25	0.025	-0.996	0.161	-0.6875496	-2.6929026	-0.8021412	103.8658262	0.50993262	-48.42068058
0.26	26	0.024	-1.002	0.16	-0.7448454	-2.9793816	-0.7448454	103.8600967	0.52712136	-48.44932848
0.27	27	0.025	-1.005	0.162	-0.6875496	-3.437748	-0.6875496	103.8543671	0.5443101	-48.47797638
0.28	28	0.022	-1.003	0.16	-0.859437	-3.8388186	-0.5156622	103.8429079	0.56149884	-48.51808344
0.29	29	0.018	-0.999	0.155	-0.6875496	-3.7815228	-0.4583664	103.8371783	0.572958	-48.55246092
0.3	30	0.013	-0.998	0.151	-0.3437748	-3.3804522	-0.286479	103.7626938	0.59014674	-48.59256798
0.31	31	0.013	-0.998	0.153	0.1145916	-3.0366774	-0.1145916	103.7626938	0.6016059	-48.62121588
0.32	32	0.012	-0.997	0.154	0.286479	-3.0939732	-0.1145916	103.7684234	0.61306506	-48.64986378
0.33	33	0.012	-0.996	0.156	0.2291832	-3.4950438	0.0572958	103.7684234	0.61879464	-48.68424126
0.34	34	0.009	-0.997	0.154	0.286479	-3.724227	0.2291832	103.774153	0.62452422	-48.71861874
0.35	35	0.006	-1.001	0.156	0.2291832	-3.8961144	0.286479	103.705398	0.63598338	-48.76445538
0.36	36	0.005	-1.003	0.156	-0.2291832	-3.6669312	0.2291832	103.6996684	0.64171296	-48.79883286
0.37	37	0.004	-1.001	0.156	-0.5156622	-3.2658606	0.1145916	103.6939388	0.64744254	-48.83321034
0.38	38	0.003	-0.997	0.152	-0.572958	-3.0939732	0.1145916	103.6882093	0.65317212	-48.86185824
0.39	39	0.001	-0.993	0.151	-0.4010706	-2.9793816	0.1145916	103.6882093	0.6589017	-48.89050614
0.4	40	0	-0.995	0.152	-0.4010706	-2.9220858	0.0572958	103.596536	0.66463128	-48.9306132
0.41	41	0	-0.996	0.151	-0.4583664	-2.6929026	0.0572958	103.596536	0.67036086	-48.95353152
0.42	42	-0.001	-0.995	0.155	-0.5156622	-2.578311	0	103.5908064	0.67609044	-48.98217942
0.43	43	-0.001	-0.995	0.155	-0.3437748	-2.5210152	0.1145916	103.5850768	0.68182002	-49.00509774
0.44	44	0	-0.995	0.154	-0.4010706	-2.3491278	0.0572958	103.5793472	0.6875496	-49.02801606
0.45	45	-0.002	-0.997	0.151	-0.2291832	-2.1772404	0	103.4475669	0.68182002	-49.06239354
0.46	46	-0.003	-0.999	0.149	0	-1.6615782	0.0572958	103.4475669	0.6875496	-49.07958228
0.47	47	-0.003	-0.999	0.151	0.1718874	-1.4896908	0.1718874	103.4475669	0.6875496	-49.09104144
0.48	48	-0.001	-0.997	0.153	0.0572958	-1.3750992	0.2291832	103.4532965	0.6875496	-49.10823018
0.49	49	-0.001	-0.996	0.156	-0.1718874	-1.4896908	0.1718874	103.4475669	0.69327918	-49.11968934
0.5	50	-0.006	-0.997	0.159	-0.4010706	-1.145916	0	103.2814091	0.67036086	-49.14833724
0.51	51	-0.005	-0.997	0.156	-0.5156622	-0.5156622	-0.2291832	103.2756795	0.67036086	-49.15406682
0.52	52	0	-0.998	0.153	-0.4010706	-0.4583664	-0.5156622	103.2699499	0.68182002	-49.15406682
0.53	53	0.003	-1	0.156	-0.5156622	-0.6302538	-0.5156622	103.2642203	0.6875496	-49.1597964
0.54	54	0.002	-1.001	0.158	-0.3437748	-0.572958	-0.2291832	103.2642203	0.6875496	-49.16552598
0.55	55	0.004	-1.003	0.157	-0.4010706	-0.2291832	-0.1145916	102.9261751	0.6875496	-49.19990346
0.56	56	0.007	-1.005	0.155	-0.572958	0.3437748	0	102.9204455	0.6875496	-49.19990346
0.57	57	0.01	-0.999	0.152	-0.6875496	0.9167328	-0.0572958	102.914716	0.6875496	-49.1884443
0.58	58	0.009	-0.992	0.152	-0.7448454	0.7448454	-0.1718874	102.9089864	0.6875496	-49.18271472
0.59	59	0.009	-0.988	0.15	-0.8021412	0.5156622	-0.1145916	102.8975272	0.6875496	-49.17698514
0.6	60	0.008	-0.992	0.154	-0.8021412	0.1145916	-0.286479	102.7256398	0.69327918	-49.1884443
0.61	61	0.007	-0.996	0.157	-1.0886202	0.1718874	-0.5156622	102.7141807	0.69900876	-49.1884443
0.62	62	0.008	-0.997	0.154	-1.3750992	0.572958	-0.6302538	102.7027215	0.70473834	-49.17698514
0.63	63	0.009	-0.998	0.151	-1.6615782	0.8021412	-0.6875496	102.6855328	0.71046792	-49.17125556
0.64	64	0.011	-1.001	0.151	-1.6615782	0.4583664	-0.8021412	102.668344	0.7161975	-49.16552598
0.65	65	0.012	-1.001	0.153	-1.718874	-0.0572958	-0.9167328	102.559482	0.73338624	-49.17125556
0.66	66	0.014	-0.997	0.159	-1.5469866	0	-0.9167328	102.5422933	0.73911582	-49.17125556
0.67	67	0.014	-0.993	0.156	-1.4896908	0.4010706	-1.0313244	102.5251045	0.75057498	-49.16552598
0.68	68	0.018	-0.992	0.154	-1.2605076	0.7448454	-1.0886202	102.5136454	0.75630456	-49.15406682
0.69	69	0.018	-0.992	0.151	-0.9740286	1.0313244	-0.9740286	102.5021862	0.76776372	-49.14260766
0.7	70	0.017	-0.992	0.154	-0.859437	1.0313244	-0.8021412	102.3933242	0.77922288	-49.13687808
0.71	71	0.017	-0.992	0.157	-0.859437	0.572958	-0.6302538	102.3875946	0.78495246	-49.1311485
0.72	72	0.021	-0.994	0.156	-0.6302538	0.286479	-0.5156622	102.3761354	0.79068204	-49.12541892
0.73	73	0.023	-0.999	0.157	-0.6302538	0	-0.4010706	102.3704059	0.79641162	-49.12541892
0.74	74	0.023	-1.005	0.154	-0.2291832	-0.1718874	-0.2291832	102.3704059	0.79641162	-49.1311485
0.75	75	0.023	-1.007	0.153	-0.0572958	-0.0572958	-0.2291832	101.9464169	0.87089616	-49.17125556
0.76	76	0.022	-1.004	0.15	0	-0.2291832	-0.2291832	101.9464169	0.87089616	-49.17125556
0.77	77	0.02	-1	0.153	0	-0.2291832	-0.2291832	101.9464169	0.87662574	-49.17125556
0.78	78	0.02	-0.996	0.154	-0.0572958	-0.4010706	-0.1145916	101.9464169	0.87662574	-49.17698514
0.79	79	0.021	-0.994	0.154	-0.0572958	-0.4583664	0	101.9464169	0.87662574	-49.18271472
0.8	80	0.024	-0.996	0.156	0	-0.4010706	0	101.6083717	0.95111028	-49.2170922
0.81	81	0.024	-0.995	0.155	-0.0572958	-0.4583664	0	101.6083717	0.95111028	-49.22282178
0.82	82	0.023	-0.995	0.153	0	-0.8021412	0.0572958	101.6083717	0.95683986	-49.22855136
0.83	83	0.021	-0.997	0.153	0	-0.7448454	0.2291832	101.6083717	0.95111028	-49.24001052
0.84	84	0.022	-0.999	0.153	0	-0.6302538	0.2291832	101.6083717	0.95111028	-49.2457401
0.85	85	0.021	-0.998	0.148	0	-0.6875496	0.3437748	101.4364843	0.9740286	-49.26865842
0.86	86	0.021	-0.997	0.148	0.0572958	-0.6875496	0.4583664	101.4364843	0.96829902	-49.28011758
0.87	87	0.02	-0.994	0.149	0.1718874	-0.859437	0.572958	101.4364843	0.96256944	-49.28584716
0.88	88	0.02	-0.995	0.149	0.286479	-0.859437	0.572958	101.4422139	0.96256944	-49.29730632
0.89	89	0.017	-0.998	0.147	0.2291832	-0.9167328	0.7448454	101.4422139	0.95683986	-49.30876548
0.9	90	0.014	-1.001	0.146	0.3437748	-1.3178034	0.7448454	101.3677294	0.95111028	-49.3316838
0.91	91	0.013	-1.001	0.15	0.1718874	-1.145916	0.7448454	101.3734589	0.9453807	-49.34314296
0.92	92	0.014	-1	0.149	0.1145916	-0.9740286	0.7448454	101.3734589	0.93965112	-49.35460212
0.93	93	0.013	-1	0.147	0.1145916	-0.572958	0.8021412	101.3734589	0.93392154	-49.3603317
0.94	94	0.011	-1	0.148	0.0572958	-0.5156622	0.8021412	101.3734589	0.92819196	-49.36606128
0.95	95	0.01	-0.998	0.15	0.1145916	-0.572958	0.8021412	101.2588673	0.92246238	-49.38325002
0.96	96	0.01	-0.999	0.149	0	-0.5156622	0.8021412	101.2588673	0.9167328	-49.39470918
0.97	97	0.01	-1	0.149	-0.1145916	-0.286479	0.8021412	101.2588673	0.91100322	-49.39470918
0.98	98	0.011	-1	0.151	-0.1145916	-0.1718874	0.8021412	101.2531378	0.89954406	-49.40043876
0.99	99	0.012	-0.999	0.15	-0.4583664	-0.1718874	0.7448454	101.2531378	0.89381448	-49.40616834
1	100	0.011	-0.999	0.15	-0.286479	-0.1145916	0.859437	101.0869799	0.8880849	-49.42335708
1.01	101	0.012	-0.997	0.149	-0.2291832	0.1718874	0.7448454	101.0812504	0.88235532	-49.42335708
1.02	102	0.01	-0.997	0.149	-0.1145916	0.4010706	0.859437	101.0812504	0.87089616	-49.4176275
1.03	103	0.009	-0.996	0.152	0	0.3437748	0.9167328	101.0812504	0.86516658	-49.4176275
1.04	104	0.008	-0.997	0.153	-0.0572958	0.286479	0.9740286	101.0812504	0.85370742	-49.4176275
1.05	105	0.006	-0.997	0.151	-0.1718874	0.4010706	1.0313244	100.9838475	0.83651868	-49.42335708
1.06	106	0.004	-0.996	0.151	-0.3437748	0.6875496	0.9740286	100.9838475	0.82505952	-49.4176275
1.07	107	0.005	-0.991	0.151	-0.0572958	1.0886202	0.9740286	100.9838475	0.81360036	-49.40616834
1.08	108	0.007	-0.992	0.149	0.0572958	1.2032118	0.8021412	100.9838475	0.8021412	-49.40043876
1.09	109	0.008	-0.996	0.154	0.1718874	1.145916	0.6302538	100.9838475	0.79068204	-49.3889796
1.1	110	0.006	-1.001	0.155	0	1.2605076	0.6875496	100.909363	0.77922288	-49.38325002
1.11	111	0.005	-1.004	0.156	-0.1718874	1.6042824	0.7448454	100.909363	0.76776372	-49.36606128
1.12	112	0.005	-1.003	0.158	-0.5156622	1.8334656	0.8021412	100.9036334	0.75630456	-49.34887254
1.13	113	0.008	-0.999	0.158	-0.4010706	1.6615782	0.8021412	100.8979038	0.7448454	-49.33741338
1.14	114	0.012	-0.997	0.152	-0.2291832	1.4896908	0.7448454	100.8979038	0.73338624	-49.32595422
1.15	115	0.012	-1.004	0.152	-0.1718874	1.3178034	0.7448454	100.8291488	0.72765666	-49.32022464
1.16	116	0.012	-1.004	0.155	-0.1718874	1.6042824	0.7448454	100.8234193	0.7161975	-49.3030359
1.17	117	0.013	-0.999	0.156	-0.286479	1.9480572	0.7448454	100.8234193	0.70473834	-49.28584716
1.18	118	0.011	-0.994	0.157	-0.286479	2.005353	0.859437	100.8176897	0.69327918	-49.26865842
1.19	119	0.01	-0.992	0.158	-0.1145916	1.7761698	0.9740286	100.8176897	0.68182002	-49.25146968
1.2	120	0.009	-0.992	0.155	-0.1145916	1.4896908	0.859437	100.7546643	0.67036086	-49.2457401
1.21	121	0.011	-0.995	0.157	-0.1145916	1.432395	0.6875496	100.7489347	0.6589017	-49.23428094
1.22	122	0.011	-0.999	0.158	-0.1145916	1.2605076	0.5156622	100.7489347	0.65317212	-49.22282178
1.23	123	0.01	-1	0.155	-0.3437748	0.9167328	0.4583664	100.7432051	0.64744254	-49.21136262
1.24	124	0.007	-1	0.153	-0.4010706	1.0313244	0.3437748	100.7374756	0.64171296	-49.20563304
1.25	125	0.006	-1	0.154	-0.4010706	1.2605076	0.286479	100.6572614	0.63598338	-49.19990346
1.26	126	0.006	-0.999	0.155	-0.4583664	1.3178034	0.3437748	100.6515319	0.6302538	-49.18271472
1.27	127	0.006	-0.996	0.155	-0.4583664	1.2032118	0.4010706	100.6458023	0.62452422	-49.17125556
1.28	128	0.01	-0.994	0.156	-0.3437748	1.2605076	0.4010706	100.6400727	0.61306506	-49.1597964
1.29	129	0.01	-0.993	0.158	-0.286479	1.145916	0.3437748	100.6400727	0.60733548	-49.15406682
1.3	130	0.009	-0.995	0.154	-0.3437748	1.0886202	0.3437748	100.554129	0.60733548	-49.14833724
1.31	131	0.01	-0.998	0.151	-0.2291832	1.2032118	0.3437748	100.554129	0.6016059	-49.13687808
1.32	132	0.009	-0.999	0.152	-0.1718874	1.2032118	0.4583664	100.5483994	0.59587632	-49.12541892
1.33	133	0.008	-1.003	0.154	-0.2291832	1.2032118	0.4010706	100.5483994	0.59014674	-49.11395976
1.34	134	0.011	-1.003	0.153	-0.2291832	1.3750992	0.4010706	100.5483994	0.58441716	-49.1025006
1.35	135	0.01	-1.001	0.149	-0.4010706	1.0886202	0.4010706	100.4567261	0.58441716	-49.09677102
1.36	136	0.01	-0.997	0.148	-0.4010706	0.8021412	0.4010706	100.4509966	0.57868758	-49.09104144
1.37	137	0.01	-0.996	0.147	-0.286479	0.572958	0.286479	100.445267	0.572958	-49.08531186
1.38	138	0.011	-0.998	0.15	-0.1145916	0.4010706	0.1718874	100.445267	0.572958	-49.08531186
1.39	139	0.009	-1.002	0.15	-0.3437748	0.1145916	0.1145916	100.4395374	0.572958	-49.07958228
1.4	140	0.009	-1.003	0.156	-0.6302538	0	0.1718874	100.3077571	0.57868758	-49.09104144
1.41	141	0.009	-1.002	0.155	-0.6875496	0.1145916	0.1718874	100.3020275	0.57868758	-49.09104144
1.42	142	0.006	-1.002	0.151	-0.859437	0.4010706	0	100.2905683	0.57868758	-49.08531186
1.43	143	0.007	-1.004	0.149	-0.8021412	0.3437748	0.0572958	100.2848387	0.572958	-49.08531186
1.44	144	0.009	-1.003	0.15	-0.7448454	0.3437748	0	100.2733796	0.572958	-49.07958228
1.45	145	0.012	-1	0.151	-0.7448454	0.286479	0	100.1244105	0.6016059	-49.08531186
1.46	146	0.012	-0.996	0.152	-0.6302538	0.1145916	0.0572958	100.1186809	0.59587632	-49.08531186
1.47	147	0.012	-0.995	0.153	-0.6302538	0.1145916	0.1145916	100.1129513	0.59587632	-49.08531186
1.48	148	0.012	-0.997	0.154	-0.6875496	0.1718874	0.1718874	100.1014922	0.59587632	-49.08531186
1.49	149	0.013	-0.999	0.156	-0.9167328	0.0572958	0.1145916	100.0957626	0.59014674	-49.08531186
1.5	150	0.012	-0.998	0.155	-1.0313244	0	0.1145916	99.98690058	0.60733548	-49.09104144
1.51	151	0.012	-0.997	0.156	-1.3178034	-0.0572958	0.1718874	99.97544142	0.6016059	-49.09104144
1.52	152	0.012	-0.994	0.156	-1.3750992	-0.2291832	0.1145916	99.95825268	0.6016059	-49.09104144
1.53	153	0.013	-0.994	0.155	-1.0313244	-0.286479	0.1718874	99.9525231	0.6016059	-49.09677102
1.54	154	0.012	-0.996	0.157	-0.9167328	-0.3437748	0.1145916	99.94106394	0.6016059	-49.1025006
1.55	155	0.011	-0.998	0.157	-0.859437	-0.5156622	0	99.86084982	0.61306506	-49.11395976
1.56	156	0.011	-0.998	0.155	-0.859437	-0.5156622	0	99.84939066	0.61306506	-49.11968934
1.57	157	0.009	-1	0.155	-0.9167328	-0.4010706	0	99.8379315	0.61879464	-49.11968934
1.58	158	0.009	-0.999	0.154	-0.8021412	-0.286479	0	99.83220192	0.61879464	-49.12541892
1.59	159	0.008	-1	0.153	-0.9167328	-0.2291832	-0.0572958	99.82074276	0.61879464	-49.12541892
1.6	160	0.009	-0.999	0.154	-1.0313244	-0.2291832	0	99.72906948	0.62452422	-49.13687808
1.61	161	0.008	-0.998	0.153	-1.145916	-0.1718874	0	99.71761032	0.62452422	-49.13687808
1.62	162	0.006	-0.997	0.152	-0.9740286	-0.1145916	0.1145916	99.70615116	0.62452422	-49.13687808
1.63	163	0.006	-1	0.153	-0.859437	-0.1145916	0.1145916	99.70042158	0.62452422	-49.14260766
1.64	164	0.005	-1.004	0.151	-1.0313244	-0.0572958	0	99.68896242	0.62452422	-49.14260766
1.65	165	0.005	-1.005	0.153	-1.432395	0.1718874	-0.1718874	99.62020746	0.62452422	-49.14260766
1.66	166	0.004	-0.999	0.155	-1.6615782	0.3437748	0	99.60301872	0.62452422	-49.14260766
1.67	167	0.004	-0.997	0.154	-1.718874	0.1718874	0.1145916	99.58582998	0.61879464	-49.13687808
1.68	168	0.003	-0.997	0.151	-1.8334656	-0.0572958	0	99.56864124	0.61879464	-49.14260766
1.69	169	0.003	-1.001	0.148	-1.6615782	-0.1145916	-0.1718874	99.5514525	0.62452422	-49.14260766
1.7	170	0.009	-1.006	0.15	-1.8907614	0.1145916	-0.1718874	99.48842712	0.6302538	-49.14260766
1.71	171	0.009	-1.009	0.154	-2.4637194	0.286479	-0.1145916	99.4655088	0.6302538	-49.13687808
1.72	172	0.008	-1.007	0.151	-2.7501984	0	0	99.4368609	0.6302538	-49.13687808
1.73	173	0.009	-1.001	0.148	-2.578311	-0.1718874	-0.1145916	99.408213	0.6302538	-49.14260766
1.74	174	0.01	-0.999	0.147	-2.4064236	-0.1718874	-0.1145916	99.38529468	0.6302538	-49.14260766
1.75	175	0.009	-0.998	0.148	-2.291832	0	-0.1145916	99.3222693	0.63598338	-49.14260766
1.76	176	0.008	-1	0.149	-2.3491278	0.2291832	-0.2291832	99.29935098	0.63598338	-49.14260766
1.77	177	0.008	-0.999	0.149	-2.4064236	0.4010706	-0.286479	99.27070308	0.64171296	-49.13687808
1.78	178	0.009	-0.998	0.145	-2.4064236	0.572958	-0.2291832	99.24778476	0.64171296	-49.1311485
1.79	179	0.01	-0.998	0.146	-2.2345362	0.3437748	-0.3437748	99.22486644	0.64171296	-49.12541892
1.8	180	0.011	-0.997	0.147	-2.1772404	-0.1145916	-0.572958	99.16757064	0.65317212	-49.1311485
1.81	181	0.012	-0.993	0.149	-2.2345362	-0.1145916	-0.6875496	99.14465232	0.66463128	-49.1311485
1.82	182	0.01	-0.993	0.149	-2.1199446	0	-0.6302538	99.12746358	0.67036086	-49.1311485
1.83	183	0.009	-0.995	0.146	-2.4064236	0.1718874	-0.5156622	99.09881568	0.67609044	-49.12541892
1.84	184	0.007	-1	0.142	-2.578311	0.5156622	-0.4010706	99.07589736	0.67609044	-49.11968934
1.85	185	0.008	-1	0.145	-2.7501984	0.8021412	-0.286479	99.02433114	0.68182002	-49.11395976
1.86	186	0.011	-0.999	0.151	-3.0939732	1.3178034	-0.1718874	98.98995366	0.67609044	-49.1025006
1.87	187	0.02	-0.998	0.162	-3.9534102	2.291832	-0.1145916	98.9498466	0.67609044	-49.07958228
1.88	188	0.029	-0.998	0.172	-5.2139178	3.2658606	0	98.89828038	0.67036086	-49.05093438
1.89	189	0.027	-1.002	0.177	-7.161975	3.437748	0.3437748	98.82379584	0.6589017	-49.0165569
1.9	190	0.013	-1.011	0.155	-9.2819196	2.3491278	0.7448454	98.7206634	0.64744254	-48.99363858
1.91	191	0	-1.02	0.139	-9.5683986	1.2605076	0.9167328	98.62326054	0.63598338	-48.987909
1.92	192	0.002	-1.023	0.139	-8.4224826	0	0.7448454	98.53731684	0.62452422	-48.987909
1.93	193	0.01	-1.026	0.136	-7.6203414	-1.3750992	0.572958	98.4628323	0.62452422	-49.00509774
1.94	194	0.015	-1.027	0.145	-6.9327918	-2.291832	0.3437748	98.38834776	0.62452422	-49.02801606
1.95	195	0.018	-1.031	0.157	-6.9900876	-2.6356068	0.0572958	98.31386322	0.6302538	-49.05666396
1.96	196	0.019	-1.03	0.167	-7.5057498	-2.1199446	-0.3437748	98.23937868	0.63598338	-49.07958228
1.97	197	0.02	-1.026	0.167	-8.5370742	-0.9167328	-0.5156622	98.15343498	0.64171296	-49.08531186
1.98	198	0.016	-1.023	0.161	-9.167328	0.1145916	-0.6875496	98.0617617	0.64744254	-49.08531186
1.99	199	0.008	-1.026	0.157	-9.453807	0.8021412	-0.9167328	97.96435884	0.6589017	-49.07958228
2	200	0.002	-1.032	0.155	-9.8548776	1.3178034	-1.0886202	97.8612264	0.66463128	-49.06239354
2.01	201	0	-1.033	0.152	-11.0007936	1.6615782	-1.145916	97.7466348	0.67036086	-49.0452048
2.02	202	0.003	-1.028	0.145	-12.318597	1.8907614	-1.0886202	97.62058404	0.67609044	-49.02801606
2.03	203	0.007	-1.021	0.137	-13.5791046	2.1772404	-0.7448454	97.48307412	0.68182002	-49.00509774
2.04	204	0.009	-1.009	0.137	-14.2093584	2.1772404	-0.572958	97.33983462	0.68182002	-48.987909
2.05	205	0.008	-1	0.137	-14.6677248	1.8907614	-0.6302538	97.19086554	0.6875496	-48.97072026
2.06	206	0.007	-0.992	0.142	-14.8396122	1.6042824	-0.8021412	97.03616688	0.69327918	-48.95353152
2.07	207	0.008	-0.992	0.145	-15.2979786	1.718874	-1.0313244	96.88146822	0.69900876	-48.93634278
2.08	208	0.01	-0.996	0.137	-16.1574156	2.0626488	-1.2605076	96.72103998	0.70473834	-48.91915404
2.09	209	0.009	-1.003	0.127	-16.9595568	2.1199446	-1.2032118	96.54915258	0.7161975	-48.89623572
2.1	210	0.009	-1.008	0.123	-17.3606274	1.8334656	-0.9740286	96.36580602	0.72192708	-48.87904698
2.11	211	0.01	-1.014	0.119	-17.6471064	1.6042824	-0.8021412	96.18818904	0.72765666	-48.86185824
2.12	212	0.011	-1.02	0.117	-17.9908812	1.4896908	-0.5156622	96.00484248	0.72765666	-48.85039908
2.13	213	0.013	-1.024	0.115	-18.6784308	1.4896908	-0.3437748	95.81576634	0.72765666	-48.83893992
2.14	214	0.014	-1.027	0.114	-19.7097552	1.6615782	-0.1145916	95.61523104	0.72765666	-48.82175118
2.15	215	0.013	-1.028	0.104	-20.912967	1.9480572	-0.0572958	95.397507	0.72192708	-48.80456244
2.16	216	0.013	-1.031	0.096	-22.0015872	2.4064236	-0.1145916	95.17405338	0.72192708	-48.7873737
2.17	217	0.012	-1.031	0.095	-22.91832	2.4637194	-0.3437748	94.94487018	0.72192708	-48.76445538
2.18	218	0.009	-1.024	0.105	-23.9496444	2.4064236	-0.7448454	94.69849824	0.72192708	-48.74153706
2.19	219	0.01	-1.022	0.108	-25.4393352	2.0626488	-0.9740286	94.44066714	0.72765666	-48.72434832
2.2	220	0.013	-1.032	0.097	-27.215505	2.0626488	-1.145916	94.1656473	0.73911582	-48.70715958
2.21	221	0.019	-1.047	0.078	-29.1062664	2.578311	-1.3750992	93.86770914	0.7448454	-48.68424126
2.22	222	0.023	-1.059	0.064	-30.653253	2.5210152	-1.432395	93.55831182	0.75630456	-48.66132294
2.23	223	0.022	-1.065	0.055	-31.6272816	2.1199446	-1.5469866	93.23745534	0.76776372	-48.6441342
2.24	224	0.021	-1.073	0.061	-32.8877892	1.3178034	-1.8907614	92.89941012	0.78495246	-48.63267504
2.25	225	0.017	-1.075	0.077	-35.4661002	-0.2291832	-2.1199446	92.54417616	0.8021412	-48.63840462
2.26	226	0.01	-1.072	0.098	-39.7059894	-3.0366774	-2.5210152	92.13737598	0.82505952	-48.6727821
2.27	227	0.003	-1.057	0.098	-44.690724	-5.6722842	-2.86479	91.68473916	0.85370742	-48.7300779
2.28	228	-0.001	-1.042	0.076	-47.4982182	-4.6409598	-3.0939732	91.20345444	0.8880849	-48.78164412
2.29	229	0.001	-1.042	0.058	-49.7327544	-2.0626488	-3.3231564	90.6992514	0.9167328	-48.81029202
2.3	230	0.011	-1.06	0.051	-52.2537696	-0.6875496	-3.3804522	90.16640046	0.9453807	-48.82175118
2.31	231	0.017	-1.08	0.054	-55.4050386	-1.2032118	-3.151269	89.60490162	0.9740286	-48.83893992
2.32	232	0.015	-1.086	0.062	-59.1865614	-1.6042824	-2.9793816	89.00329572	0.99694692	-48.86185824
2.33	233	0.01	-1.073	0.067	-62.738901	-1.145916	-2.7501984	88.36731234	1.01986524	-48.87904698
2.34	234	0.006	-1.047	0.073	-64.457775	-1.432395	-2.578311	87.71414022	1.04278356	-48.9019653
2.35	235	0.008	-1.047	0.055	-65.3745078	-1.8334656	-2.7501984	87.04950894	1.06570188	-48.9306132
2.36	236	0.006	-1.059	0.034	-66.3485364	0	-2.9220858	86.37914808	1.0886202	-48.94207236
2.37	237	0.006	-1.07	0.04	-68.1247062	2.1772404	-2.9793816	85.6858689	1.11153852	-48.9306132
2.38	238	0.006	-1.08	0.061	-71.333271	2.1772404	-2.6929026	84.96394182	1.13445684	-48.91342446
2.39	239	0.008	-1.072	0.051	-75.4585686	1.6042824	-2.578311	84.1961781	1.15164558	-48.90769488
2.4	240	0.017	-1.063	0.012	-78.0941754	2.6929026	-2.6929026	83.40549606	1.1745639	-48.89623572
2.41	241	0.031	-1.059	-0.017	-79.9849368	3.724227	-2.7501984	82.59762528	1.19748222	-48.86758782
2.42	242	0.027	-1.053	-0.024	-81.0162612	3.2658606	-3.3804522	81.77256576	1.22613012	-48.85039908
2.43	243	0.016	-1.048	-0.018	-82.1048814	2.1199446	-3.8961144	80.93604708	1.2605076	-48.8446695
2.44	244	0.006	-1.034	-0.013	-82.792431	1.2605076	-4.4117766	80.0995284	1.30061466	-48.8446695
2.45	245	0.01	-1.019	-0.028	-83.8237554	1.2605076	-5.0420304	79.25155056	1.34072172	-48.85039908
2.46	246	0.013	-1.022	-0.055	-85.7145168	2.005353	-5.2712136	78.3806544	1.38655836	-48.85039908
2.47	247	0.007	-1.036	-0.057	-87.8344614	2.2345362	-5.2712136	77.48683992	1.432395	-48.8446695
2.48	248	0.007	-1.039	-0.073	-89.3241522	2.7501984	-5.3285094	76.58156628	1.47823164	-48.83893992
2.49	249	0.01	-1.033	-0.091	-90.0117018	5.5003968	-5.6149884	75.67056306	1.53552744	-48.80456244
2.5	250	0.015	-1.018	-0.093	-90.1262934	8.4797784	-5.3285094	74.75955984	1.59855282	-48.74726664
2.51	251	0.014	-1.01	-0.102	-87.949053	10.3705398	-5.2139178	73.86574536	1.6615782	-48.66705252
2.52	252	0.027	-1.023	-0.118	-85.5999252	12.032118	-5.7868758	73.00057878	1.74179232	-48.57537924
2.53	253	0.038	-1.032	-0.149	-84.9696714	15.2979786	-5.9014674	72.14114178	1.82773602	-48.45505806
2.54	254	0.032	-1.037	-0.197	-84.0529386	20.4546006	-6.0733548	71.28743436	1.93659804	-48.28890024
2.55	255	0.033	-1.083	-0.224	-81.4173318	24.350715	-7.1046792	70.46810442	2.0626488	-48.08836494
2.56	256	0.03	-1.159	-0.289	-84.7404882	23.8923486	-7.9641162	69.614397	2.2058883	-47.89355922
2.57	257	0.044	-1.222	-0.354	-89.5533354	18.3919518	-8.1360036	68.70912336	2.33193906	-47.76177888
2.58	258	0.069	-1.247	-0.476	-91.6159842	15.6417534	-8.1932994	67.7809314	2.44653066	-47.65291686
2.59	259	0.093	-1.197	-0.581	-86.9750244	13.6364004	-8.021412	66.89857608	2.56112226	-47.56124358
2.6	260	0.112	-1.139	-0.592	-78.3233586	8.1360036	-7.9068204	66.10216446	2.65279554	-47.52113652
2.61	261	0.115	-1.09	-0.594	-68.4111852	6.0733548	-7.9641162	65.40888528	2.74446882	-47.50394778
2.62	262	0.133	-1.063	-0.627	-58.6708992	2.0626488	-7.7922288	64.80727938	2.81322378	-47.52113652
2.63	263	0.13	-1.039	-0.602	-50.133825	-3.8961144	-6.1879464	64.29734676	2.84760126	-47.58989148
2.64	264	0.115	-1.041	-0.589	-43.2010332	-5.6149884	-4.0680018	63.8561691	2.85906042	-47.65864644
2.65	265	0.106	-1.059	-0.592	-38.3308902	-6.3598338	-2.291832	63.46082808	2.84760126	-47.73313098
2.66	266	0.105	-1.059	-0.589	-35.1796212	-6.3598338	-1.2605076	63.09986454	2.83041252	-47.79615636
2.67	267	0.105	-1.056	-0.608	-31.799169	-6.0733548	-0.3437748	62.77327848	2.80176462	-47.85345216
2.68	268	0.103	-1.042	-0.621	-29.3354496	-5.2712136	0.1145916	62.47534032	2.77311672	-47.8992888
2.69	269	0.101	-1.024	-0.625	-26.7571386	-5.8441716	0.4010706	62.20032048	2.73873924	-47.9565846
2.7	270	0.105	-1.015	-0.612	-24.1788276	-6.7609044	1.0886202	61.94821896	2.70436176	-48.0138804
2.71	271	0.103	-1.002	-0.585	-22.345362	-7.448454	2.1772404	61.71903576	2.64706596	-48.0711762
2.72	272	0.085	-0.964	-0.563	-20.4546006	-7.2192708	2.9220858	61.51277088	2.58404058	-48.12274242
2.73	273	0.078	-0.916	-0.545	-18.048177	-5.8441716	2.5210152	61.32369474	2.53820394	-48.16284948
2.74	274	0.088	-0.871	-0.53	-15.9855282	-4.870143	1.7761698	61.1632665	2.49809688	-48.19722696
2.75	275	0.11	-0.849	-0.509	-12.7196676	-4.4690724	1.5469866	61.020027	2.48090814	-48.23160444
2.76	276	0.132	-0.844	-0.508	-10.313244	-3.9534102	1.6615782	60.91116498	2.44653066	-48.26025234
2.77	277	0.136	-0.842	-0.51	-7.9068204	-4.1252976	2.0626488	60.83095086	2.4064236	-48.28317066
2.78	278	0.136	-0.845	-0.509	-5.72958	-4.6409598	2.005353	60.77365506	2.36631654	-48.31754814
2.79	279	0.123	-0.853	-0.52	-4.583664	-5.3285094	1.6042824	60.72781842	2.32620948	-48.3576552
2.8	280	0.109	-0.861	-0.513	-3.4950438	-6.5317212	1.0313244	60.67052262	2.31475032	-48.40922142
2.81	281	0.091	-0.859	-0.507	-2.6929026	-7.448454	0.572958	60.64187472	2.27464326	-48.4722468
2.82	282	0.086	-0.834	-0.495	-2.005353	-7.0473834	-0.4583664	60.6189564	2.24599536	-48.53527218
2.83	283	0.099	-0.802	-0.5	-1.718874	-6.7609044	-0.9167328	60.59603808	2.22307704	-48.59829756
2.84	284	0.104	-0.771	-0.492	-0.9167328	-7.6203414	-0.4010706	60.5903085	2.18869956	-48.66705252
2.85	285	0.104	-0.75	-0.494	0.1145916	-8.59437	-0.286479	60.5616606	2.17151082	-48.74726664
2.86	286	0.097	-0.735	-0.477	1.0886202	-9.167328	-0.7448454	60.57311976	2.13713334	-48.83321034
2.87	287	0.089	-0.726	-0.475	1.8907614	-10.026765	-1.3178034	60.5903085	2.10275586	-48.92488362
2.88	288	0.084	-0.725	-0.468	3.2085648	-10.4851314	-1.8907614	60.6189564	2.07410796	-49.02801606
2.89	289	0.086	-0.722	-0.473	4.2398892	-11.172681	-1.8907614	60.65906346	2.03973048	-49.13687808
2.9	290	0.094	-0.724	-0.467	5.6722842	-11.9175264	-1.4896908	60.7049001	2.005353	-49.2457401
2.91	291	0.093	-0.729	-0.449	6.875496	-13.2353298	-0.9740286	60.77365506	1.95378678	-49.36606128
2.92	292	0.089	-0.728	-0.437	8.1932994	-14.037471	-0.859437	60.85386918	1.90222056	-49.49211204
2.93	293	0.083	-0.728	-0.422	9.167328	-14.5531332	-1.0886202	60.94554246	1.84492476	-49.62962196
2.94	294	0.092	-0.724	-0.415	9.9694692	-14.6677248	-0.9740286	61.04294532	1.78762896	-49.7614023
2.95	295	0.093	-0.731	-0.414	10.8289062	-15.4125702	-0.2291832	61.15180734	1.73033316	-49.89891222
2.96	296	0.091	-0.734	-0.404	11.5737516	-16.4438946	0.2291832	61.26639894	1.65584862	-50.04215172
2.97	297	0.09	-0.732	-0.408	12.0894138	-16.9595568	0.7448454	61.38672012	1.56990492	-50.18539122
2.98	298	0.096	-0.727	-0.413	12.6623718	-17.761698	1.145916	61.51277088	1.48396122	-50.3343603
2.99	299	0.086	-0.72	-0.4	13.3499214	-19.3659804	1.6042824	61.6502808	1.38655836	-50.49478854
3	300	0.083	-0.724	-0.404	13.4072172	-20.2827132	1.718874	61.77633156	1.2891555	-50.66667594
3.01	301	0.088	-0.73	-0.423	13.3499214	-21.3140376	1.5469866	61.91384148	1.18029348	-50.8500225
3.02	302	0.093	-0.738	-0.416	13.5791046	-22.631841	1.432395	62.0513514	1.07143146	-51.04482822
3.03	303	0.099	-0.74	-0.421	13.6364004	-24.1788276	1.718874	62.18886132	0.95111028	-51.24536352
3.04	304	0.102	-0.745	-0.432	13.6936962	-25.496631	1.7761698	62.32637124	0.82505952	-51.46308756
3.05	305	0.091	-0.751	-0.415	13.8082878	-27.6165756	2.005353	62.46388116	0.69900876	-51.69800034
3.06	306	0.08	-0.757	-0.422	13.178034	-28.4760126	2.005353	62.60139108	0.55576926	-51.94437228
3.07	307	0.067	-0.763	-0.428	12.2040054	-28.9916748	1.8334656	62.72744184	0.41825934	-52.19074422
3.08	308	0.056	-0.762	-0.427	11.5737516	-30.1375908	1.8907614	62.84776302	0.27501984	-52.4543049
3.09	309	0.049	-0.762	-0.424	10.5424272	-31.5699858	1.6042824	62.95662504	0.12605076	-52.72359516
3.1	310	0.045	-0.764	-0.428	9.5683986	-32.8304934	0.9740286	63.04829832	-0.01145916	-53.01580374
3.11	311	0.042	-0.766	-0.434	8.7089616	-34.091001	0.286479	63.14570118	-0.15469866	-53.31947148
3.12	312	0.039	-0.767	-0.433	7.448454	-35.4661002	-0.3437748	63.2259153	-0.30366774	-53.63459838
3.13	313	0.042	-0.772	-0.437	6.1879464	-36.669312	-0.6875496	63.29467026	-0.44690724	-53.96691402
3.14	314	0.05	-0.783	-0.436	5.0420304	-37.1276784	-0.859437	63.35769564	-0.59587632	-54.30495924
3.15	315	0.053	-0.788	-0.441	3.8961144	-36.382833	-1.0886202	63.3978027	-0.72765666	-54.6315453
3.16	316	0.048	-0.791	-0.45	3.724227	-35.523396	-1.2605076	63.44363934	-0.86516658	-54.95813136
3.17	317	0.038	-0.797	-0.437	3.5523396	-33.2888598	-1.3750992	63.48947598	-0.99121734	-55.2617991
3.18	318	0.021	-0.809	-0.44	2.578311	-30.8824362	-1.2605076	63.52385346	-1.11153852	-55.5482781
3.19	319	0.007	-0.818	-0.434	1.718874	-28.3041252	-1.3178034	63.55250136	-1.21467096	-55.8061092
3.2	320	0.004	-0.824	-0.427	0.859437	-25.6112226	-0.9740286	63.56396052	-1.30634424	-56.04102198
3.21	321	0.009	-0.819	-0.418	0	-23.1475032	0	63.5696901	-1.4037471	-56.24728686
3.22	322	0.019	-0.813	-0.418	-0.6875496	-22.1734746	1.145916	63.5696901	-1.50687954	-56.44209258
3.23	323	0.018	-0.811	-0.425	-0.6302538	-22.7464326	1.7761698	63.57541968	-1.61574156	-56.6368983
3.24	324	0.016	-0.82	-0.421	-1.0313244	-24.1215318	1.6615782	63.5696901	-1.73033316	-56.84889276
3.25	325	0.019	-0.834	-0.434	-1.9480572	-24.637194	1.0313244	63.55250136	-1.8334656	-57.0666168
3.26	326	0.023	-0.845	-0.436	-2.4064236	-24.9809688	0.4010706	63.5410422	-1.94232762	-57.28434084
3.27	327	0.02	-0.846	-0.442	-2.86479	-25.3247436	0.0572958	63.52385346	-2.05118964	-57.51352404
3.28	328	0.014	-0.847	-0.437	-2.578311	-25.2674478	0.1145916	63.50666472	-2.15432208	-57.74270724
3.29	329	0.008	-0.845	-0.434	-2.9220858	-25.0382646	0.286479	63.48947598	-2.2631841	-57.96616086
3.3	330	0.007	-0.847	-0.438	-3.0939732	-24.9809688	0.4010706	63.46082808	-2.36631654	-58.1838849
3.31	331	0.023	-0.843	-0.433	-3.437748	-24.8663772	0.7448454	63.43790976	-2.47517856	-58.40733852
3.32	332	0.031	-0.839	-0.421	-3.5523396	-25.8404058	1.6042824	63.42072102	-2.59549974	-58.63079214
3.33	333	0.024	-0.84	-0.426	-3.9534102	-26.5852512	2.291832	63.39207312	-2.73300966	-58.85997534
3.34	334	0.016	-0.844	-0.426	-4.1825934	-27.8457588	2.5210152	63.36342522	-2.87051958	-59.1006177
3.35	335	0.011	-0.848	-0.421	-4.8128472	-29.3354496	2.1199446	63.32904774	-3.00229992	-59.35271922
3.36	336	0.016	-0.849	-0.429	-5.5576926	-29.9084076	1.4896908	63.28894068	-3.14553942	-59.6162799
3.37	337	0.017	-0.846	-0.433	-6.0733548	-30.5386614	0.8021412	63.24883362	-3.27731976	-59.88557016
3.38	338	0.018	-0.838	-0.431	-6.5317212	-30.9970278	0.286479	63.20299698	-3.41482968	-60.16059
3.39	339	0.013	-0.832	-0.427	-6.8182002	-32.3148312	0	63.15716034	-3.5523396	-60.45279858
3.4	340	0.013	-0.835	-0.424	-7.1046792	-33.2888598	-0.1145916	63.09986454	-3.68411994	-60.75073674
3.41	341	0.024	-0.843	-0.42	-7.9068204	-34.4347758	-0.2291832	63.04829832	-3.82735944	-61.06013406
3.42	342	0.028	-0.847	-0.426	-9.0527364	-36.2682414	0.0572958	62.97954336	-3.9820581	-61.38672012
3.43	343	0.022	-0.844	-0.427	-9.9694692	-38.1590028	0.3437748	62.9107884	-4.14821592	-61.72476534
3.44	344	0.006	-0.838	-0.428	-10.6570188	-39.0184398	0.3437748	62.83057428	-4.32010332	-62.07426972
3.45	345	-0.01	-0.834	-0.427	-11.2299768	-39.534102	0.4010706	62.75036016	-4.48626114	-62.42950368
3.46	346	-0.017	-0.836	-0.427	-11.9748222	-40.6227222	0.9167328	62.65868688	-4.6696077	-62.79046722
3.47	347	-0.02	-0.84	-0.41	-12.5477802	-41.7686382	1.5469866	62.57274318	-4.86441342	-63.15716034
3.48	348	-0.018	-0.837	-0.413	-12.8342592	-42.112413	1.8907614	62.47534032	-5.06494872	-63.52385346
3.49	349	-0.016	-0.836	-0.404	-12.7196676	-42.4561878	1.7761698	62.38939662	-5.2712136	-63.89627616
3.5	350	-0.003	-0.848	-0.393	-13.1207382	-43.1437374	1.2605076	62.29772334	-5.46028974	-64.27442844
3.51	351	0.003	-0.859	-0.394	-13.6936962	-43.4875122	0.572958	62.20032048	-5.65509546	-64.6583103
3.52	352	0.002	-0.863	-0.397	-14.3812458	-43.7166954	0.5156622	62.10291762	-5.85563076	-65.04792174
3.53	353	-0.005	-0.863	-0.401	-15.1260912	-44.117766	1.0886202	61.9940556	-6.06189564	-65.43753318
3.54	354	-0.019	-0.867	-0.411	-15.9855282	-44.2896534	2.4064236	61.879464	-6.27961968	-65.82141504
3.55	355	-0.034	-0.875	-0.416	-16.8449652	-44.690724	3.9534102	61.75914282	-6.50880288	-66.19956732
3.56	356	-0.035	-0.879	-0.419	-16.9595568	-45.3209778	4.8128472	61.63309206	-6.75517482	-66.58344918
3.57	357	-0.038	-0.878	-0.418	-16.902261	-45.6074568	5.2712136	61.51277088	-7.00727634	-66.96160146
3.58	358	-0.048	-0.873	-0.417	-17.3606274	-45.83664	5.5576926	61.3924497	-7.26510744	-67.34548332
3.59	359	-0.048	-0.883	-0.406	-17.7044022	-45.550161	5.6722842	61.26639894	-7.51720896	-67.7236356
3.6	360	-0.041	-0.891	-0.397	-17.761698	-45.2063862	5.7868758	61.14607776	-7.76931048	-68.10178788
3.61	361	-0.038	-0.893	-0.384	-17.8189938	-44.690724	5.8441716	61.02575658	-8.02714158	-68.468481
3.62	362	-0.029	-0.893	-0.376	-17.9908812	-43.831287	5.9587632	60.89970582	-8.2792431	-68.82944454
3.63	363	-0.013	-0.891	-0.377	-18.2200644	-43.8885828	6.7036086	60.76792548	-8.54280378	-69.1846785
3.64	364	-0.005	-0.885	-0.389	-18.5638392	-45.2063862	8.307891	60.64187472	-8.8235532	-69.54564204
3.65	365	-0.002	-0.879	-0.391	-18.621135	-46.7533728	10.026765	60.52155354	-9.11576178	-69.91233516
3.66	366	0	-0.881	-0.386	-19.0222056	-48.5295426	11.0007936	60.39550278	-9.44234784	-70.29048744
3.67	367	-0.004	-0.885	-0.389	-19.5378678	-49.9619376	11.0007936	60.26945202	-9.7689339	-70.68009888
3.68	368	-0.021	-0.89	-0.395	-19.6524594	-50.7640788	10.599723	60.14340126	-10.10124954	-71.0754399
3.69	369	-0.043	-0.891	-0.389	-19.194093	-50.3630082	10.1986524	60.02880966	-10.4278356	-71.47078092
3.7	370	-0.047	-0.892	-0.38	-19.2513888	-49.1597964	9.740286	59.91421806	-10.73723292	-71.86039236
3.71	371	-0.044	-0.885	-0.387	-19.480572	-48.0138804	9.6829902	59.79389688	-11.05235982	-72.23854464
3.72	372	-0.032	-0.877	-0.389	-19.1367972	-48.1857678	10.599723	59.67930528	-11.3732163	-72.61096734
3.73	373	-0.012	-0.876	-0.378	-18.6784308	-49.7327544	12.032118	59.57617284	-11.7169911	-72.98911962
3.74	374	0.013	-0.875	-0.362	-18.3919518	-51.7381074	13.0061466	59.4730404	-12.07795464	-73.37873106
3.75	375	0.038	-0.868	-0.354	-18.2773602	-54.0299394	13.0634424	59.39282628	-12.4331886	-73.7969904
3.76	376	0.042	-0.863	-0.342	-18.334656	-56.2644756	12.6623718	59.30688258	-12.81134088	-74.2267089
3.77	377	0.028	-0.857	-0.333	-17.9908812	-58.2698286	12.2613012	59.23812762	-13.20095232	-74.6850753
3.78	378	0	-0.858	-0.341	-17.6471064	-60.0459984	11.5164558	59.17510224	-13.59056376	-75.15490086
3.79	379	-0.015	-0.86	-0.341	-17.3033316	-61.0773228	10.599723	59.12353602	-13.9801752	-75.64191516
3.8	380	-0.006	-0.858	-0.329	-17.0168526	-61.8221682	10.026765	59.08915854	-14.3525979	-76.1461182
3.81	381	0.005	-0.85	-0.348	-16.7876694	-62.5097178	10.0840608	59.05478106	-14.74220934	-76.65032124
3.82	382	0.004	-0.84	-0.34	-16.1574156	-63.6556338	10.4278356	59.03186274	-15.14327994	-77.16025386
3.83	383	0.013	-0.832	-0.335	-15.756345	-65.2599162	10.9434978	59.02040358	-15.5558097	-77.68737522
3.84	384	0.036	-0.835	-0.321	-15.469866	-67.322565	11.172681	59.02040358	-15.97979862	-78.23168532
3.85	385	0.051	-0.823	-0.306	-15.5271618	-69.9581718	11.1153852	59.03759232	-16.39805796	-78.80464332
3.86	386	0.065	-0.822	-0.293	-15.2979786	-72.5937786	9.6829902	59.06624022	-16.83350604	-79.40624922
3.87	387	0.074	-0.809	-0.285	-14.3812458	-74.7137232	8.4797784	59.11207686	-17.26895412	-80.03650302
3.88	388	0.063	-0.795	-0.285	-13.178034	-76.0315266	8.021412	59.1865614	-17.71013178	-80.68394556
3.89	389	0.047	-0.789	-0.269	-12.891555	-77.922288	8.4224826	59.26677552	-18.15703902	-81.34284726
3.9	390	0.039	-0.777	-0.254	-13.3499214	-81.4173318	9.2246238	59.36990796	-18.61540542	-82.04185602
3.91	391	0.024	-0.761	-0.256	-13.5218088	-82.792431	9.5111028	59.4730404	-19.09096056	-82.74659436
3.92	392	0.014	-0.746	-0.256	-13.3499214	-83.07891	8.2505952	59.587632	-19.56078612	-83.46852144
3.93	393	0.012	-0.73	-0.269	-13.0634424	-83.2507974	6.1879464	59.71368276	-20.01342294	-84.20190768
3.94	394	0.01	-0.719	-0.262	-11.0580894	-82.8497268	5.5576926	59.86838142	-20.4546006	-84.9410235
3.95	395	-0.009	-0.72	-0.243	-9.2819196	-81.7611066	5.9587632	60.05172798	-20.87858952	-85.66868016
3.96	396	0	-0.71	-0.246	-7.8495246	-80.3860074	6.3598338	60.24080412	-21.30830802	-86.38487766
3.97	397	-0.011	-0.647	-0.197	-5.443101	-79.2400914	6.589017	60.45279858	-21.73802652	-87.09534558
3.98	398	-0.022	-0.621	-0.164	-3.6096354	-76.3180056	5.0420304	60.68771136	-22.13336754	-87.78862476
3.99	399	-0.083	-0.593	-0.167	-0.6875496	-71.046792	2.291832	60.93981288	-22.47714234	-88.44752646
4	400	-0.116	-0.543	-0.165	1.6042824	-65.4318036	0	61.21483272	-22.76935092	-89.07205068
4.01	401	-0.159	-0.466	-0.136	3.6096354	-60.0459984	-0.6875496	61.48412298	-23.0329116	-89.65073826
4.02	402	-0.195	-0.368	-0.094	5.6149884	-52.712136	0.4010706	61.74195408	-23.27355396	-90.1549413
4.03	403	-0.191	-0.283	-0.062	6.8182002	-43.6021038	2.4637194	61.98259644	-23.48554842	-90.56174148
4.04	404	-0.17	-0.223	-0.025	8.5370742	-37.7006364	4.6982556	62.21177964	-23.6918133	-90.8997867
4.05	405	-0.14	-0.185	-0.006	9.6829902	-33.4607472	6.016059	62.43523326	-23.8923486	-91.19772486
4.06	406	-0.097	-0.161	0.013	11.6883432	-31.51269	7.734933	62.67014604	-24.09861348	-91.46701512
4.07	407	-0.049	-0.14	0.057	13.4072172	-30.939732	8.7089616	62.91651798	-24.30487836	-91.72484622
4.08	408	-0.004	-0.101	0.088	13.6364004	-33.518043	9.8548776	63.17434908	-24.53406156	-92.00559564
4.09	409	0.015	-0.079	0.114	13.6364004	-33.804522	11.4018642	63.43218018	-24.77470392	-92.28061548
4.1	410	0.012	-0.073	0.073	13.2353298	-35.1223254	13.1207382	63.70147044	-25.03253502	-92.56709448
4.11	411	0.042	-0.106	-0.038	9.9121734	-36.2109456	13.5218088	63.93065364	-25.30182528	-92.85930306
4.12	412	0.109	-0.172	-0.196	6.5317212	-34.5493674	13.750992	64.11972978	-25.56538596	-93.14005248
4.13	413	0.202	-0.251	-0.258	5.7868758	-43.6593996	18.2773602	64.33745382	-25.90343118	-93.48955686
4.14	414	0.311	-0.292	-0.295	4.1252976	-56.7801378	27.501984	64.58382576	-26.37898632	-93.93073452
4.15	415	0.394	-0.345	-0.36	1.0313244	-75.9742308	39.3049188	64.8588456	-27.00351054	-94.5094221
4.16	416	0.452	-0.353	-0.337	-2.0626488	-101.3562702	50.2484166	65.21980914	-27.85148838	-95.3115633
4.17	417	0.38	-0.342	-0.34	-4.6982556	-130.2906492	60.6762522	65.69536428	-28.9057311	-96.37726518
4.18	418	0.264	-0.268	-0.333	-7.6776372	-156.2456466	69.1560306	66.2912406	-30.12613164	-97.70079816
4.19	419	0.096	-0.193	-0.252	-8.880849	-184.8362508	77.4639216	67.05900432	-31.50696042	-99.3222693
4.2	420	-0.013	-0.122	-0.145	-7.7922288	-201.7385118	87.4906866	67.97573712	-33.02529912	-101.1328166
4.21	421	-0.161	-0.115	-0.076	-5.72958	-210.6766566	98.8925508	69.01852068	-34.64677026	-103.063685
4.22	422	-0.3	-0.237	-0.079	-3.3231564	-214.5154752	105.9399342	70.187355	-36.31980762	-105.0804972
4.23	423	-0.469	-0.397	-0.103	-1.6615782	-215.0884332	110.294415	71.46505134	-37.99857456	-107.1775235
4.24	424	-0.701	-0.543	-0.115	-1.145916	-218.5261812	122.3838288	72.86306886	-39.7632852	-109.366223
4.25	425	-0.893	-0.275	-0.015	-8.0787078	-226.2611142	156.6467172	74.30119344	-41.83739316	-111.6465959
4.26	426	-1.806	-0.206	-0.206	-1.2605076	-226.7194806	215.145729	75.85390962	-44.42143374	-113.8925912
4.27	427	-2.418	-1.055	-0.003	16.902261	-208.6140078	218.583477	77.61862026	-46.9539081	-116.0755612
4.28	428	-2.575	-0.973	-0.007	22.8610242	-179.5650372	233.8814556	79.3260351	-49.5322191	-118.0064297
4.29	429	-2.926	-0.638	0.228	24.2361234	-159.5115072	254.1641688	80.9876133	-52.24231044	-119.8055178
4.3	430	-3.718	-0.69	0.16	33.804522	-134.8170174	254.5652394	82.66638024	-54.89510598	-121.4384481
4.31	431	-3.999	-1.047	0.06	45.0917946	-98.4341844	236.2878792	84.18471894	-57.30725916	-122.6932261
4.32	432	-3.999	-1.234	0.08	38.6173692	-39.1903272	226.2038184	84.87226854	-59.57044326	-123.0312713
4.33	433	-3.999	-1.054	0.127	35.3515086	-21.6005166	238.5224154	85.2561504	-61.9367598	-123.0541897
4.34	434	-3.694	-0.409	0.286	41.9978214	11.4018642	231.9333984	85.084263	-64.22286222	-122.3838288
4.35	435	-2.843	0.479	0.397	40.3362432	30.0229992	203.973048	84.4540092	-66.22248564	-121.2379128
4.36	436	-3.337	0.184	0.543	56.6082504	35.2942128	157.1623794	83.82948498	-67.74082434	-119.9315686
4.37	437	-2.874	0.03	0.726	32.5440144	28.1895336	117.9147564	83.12474664	-68.88101076	-118.82003
4.38	438	-2.234	-0.092	0.75	46.4668938	14.8396122	95.8558734	82.88983386	-69.80347314	-118.0694551
4.39	439	-1.894	-0.271	0.758	37.0130868	9.6256944	79.068204	82.72940562	-70.57123686	-117.4964971
4.4	440	-1.785	-0.218	0.709	25.2674478	-2.5210152	69.3852138	82.81534932	-71.25878646	-117.3131505
4.41	441	-1.885	-0.041	0.483	14.037471	5.2712136	58.0406454	82.58043654	-71.82601488	-116.9178095
4.42	442	-1.821	0.446	0.22	17.6471064	22.631841	57.6968706	81.82986156	-72.3645954	-115.9380513
4.43	443	-1.509	0.454	0.042	35.6379876	41.7113424	56.9520252	80.59800186	-72.86879844	-114.2707435
4.44	444	-1.208	0.238	-0.053	49.0452048	48.70143	50.3630082	79.22290266	-73.28705778	-112.3226863
4.45	445	-0.938	0.25	-0.109	54.9466722	47.7274014	42.7999626	77.87645136	-73.63656216	-110.3459812
4.46	446	-0.794	0.303	-0.141	63.598338	39.8778768	36.382833	76.89669318	-73.911582	-108.6614847
4.47	447	-0.76	0.356	-0.134	75.057498	33.6899304	32.372127	76.2320619	-74.14649478	-107.1775235
4.48	448	-0.712	0.277	-0.121	86.6312496	31.226211	25.9549974	75.79088424	-74.31838218	-105.8081539
4.49	449	-0.645	0.125	-0.089	97.6320432	32.3148312	19.1367972	75.46429818	-74.42151462	-104.4445138
4.5	450	-0.564	0.051	-0.027	101.7573408	29.793816	12.1467096	75.32105868	-74.47308084	-103.2298429
4.51	451	-0.476	0.028	0.062	102.7313694	24.4653066	4.9274388	75.4299207	-74.45016252	-102.2672734
4.52	452	-0.395	0.012	0.079	99.8092836	18.2773602	-0.4010706	75.77942508	-74.3985963	-101.5797238
4.53	453	-0.318	-0.022	0.029	96.0850566	8.3651868	-5.2139178	76.47843384	-74.31838218	-101.2875152
4.54	454	-0.225	-0.053	0.019	93.3348582	0.1145916	-11.1153852	77.47538076	-74.20379058	-101.344811
4.55	455	-0.146	-0.13	-0.033	93.9078162	-9.2819196	-18.7930224	78.84475038	-74.02044402	-101.7745295
4.56	456	-0.337	-0.199	-0.048	92.8764918	-17.3033316	-25.8404058	80.500599	-73.77980166	-102.5136454
4.57	457	-0.352	-0.162	-0.035	92.9337876	-19.8816426	-26.4706596	82.21374342	-73.5391593	-103.310057
4.58	458	-0.507	-0.166	-0.012	92.9910834	-21.3713334	-17.4179232	83.90396952	-73.37873106	-104.0892799
4.59	459	-0.693	-0.318	0.047	90.1262934	-22.1161788	-14.2666542	85.55981814	-73.24122114	-104.8627732
4.6	460	-0.77	-0.435	0.01	84.4540092	-23.9496444	-12.1467096	87.19847802	-73.1094408	-105.6763735
4.61	461	-0.808	-0.539	0.001	77.2920342	-27.4446882	-11.5164558	88.86005622	-72.98911962	-106.5873767
4.62	462	-0.806	-0.603	-0.029	69.5571012	-34.3201842	-11.745639	90.65341476	-72.85733928	-107.716104
4.63	463	-0.907	-0.599	0.07	62.165943	-42.4561878	-9.1100322	92.60720154	-72.7370181	-109.1026624
4.64	464	-0.997	-0.57	0.127	52.2537696	-43.0864416	-6.2452422	94.47504462	-72.63388566	-110.4949503
4.65	465	-1.113	-0.563	0.146	44.8626114	-45.0344988	-4.5263682	96.31996938	-72.52502364	-111.944534
4.66	466	-1.171	-0.621	0.124	38.0444112	-48.128472	-5.2139178	98.16489414	-72.39897288	-113.4686023
4.67	467	-1.224	-0.597	0.072	28.5333084	-50.3057124	-4.010706	99.96971184	-72.26146296	-115.0442368
4.68	468	-1.219	-0.615	0.05	25.8404058	-55.003968	1.6042824	101.8948507	-72.15833052	-116.7860291
4.69	469	-1.263	-0.67	0.082	23.8923486	-58.4990118	7.9068204	103.9288516	-72.08957556	-118.6596018
4.7	470	-1.31	-0.63	0.118	17.0168526	-60.0459984	13.178034	105.9628525	-72.04373892	-120.607659
4.71	471	-1.389	-0.515	0.155	12.3758928	-64.2285918	17.0741484	108.0999859	-72.00363186	-122.7104149
4.72	472	-1.429	-0.479	0.248	6.9327918	-59.014674	17.761698	110.0365839	-71.9635248	-124.6642016
4.73	473	-1.44	-0.389	0.297	-1.432395	-49.9619376	17.2460358	111.617948	-71.9348769	-126.337239
4.74	474	-1.355	-0.348	0.293	-10.2559482	-41.7686382	16.7303736	112.8784556	-71.92341774	-127.7639044
4.75	475	-1.181	-0.362	0.229	-17.761698	-35.809875	17.4179232	113.90978	-71.92914732	-129.0358712
4.76	476	-1.103	-0.378	0.199	-24.9809688	-29.2781538	19.4232762	114.7176508	-71.98071354	-130.1474097
4.77	477	-1.061	-0.392	0.195	-34.2628884	-10.1413566	22.4026578	114.9525635	-72.1354122	-130.7604748
4.78	478	-0.884	-0.331	0.119	-36.669312	2.6356068	26.5852512	114.8723494	-72.38751372	-131.0641425
4.79	479	-0.816	-0.227	0.162	-25.8404058	0.286479	32.4294228	115.0499664	-72.6797223	-131.5225089
4.8	480	-0.836	-0.164	0.215	-17.5325148	-5.3285094	36.7266078	115.5885469	-72.98911962	-132.2730839
4.81	481	-0.899	-0.139	0.235	-11.172681	-9.8548776	37.24227	116.3047444	-73.27559862	-133.1382505
4.82	482	-0.883	-0.122	0.253	-7.1046792	-11.8602306	33.0596766	117.0839673	-73.51624098	-134.0206058
4.83	483	-0.817	-0.127	0.222	-4.4117766	-11.0007936	29.1062664	117.8230831	-73.71677628	-134.8399357
4.84	484	-0.797	-0.131	0.217	-1.0313244	-10.0840608	28.8770832	118.5851173	-73.92304116	-135.6363473
4.85	485	-0.833	-0.134	0.209	0.5156622	-6.1306506	28.7624916	119.3356922	-74.14649478	-136.4098406
4.86	486	-0.878	-0.137	0.222	2.4064236	-0.2291832	27.788463	119.8513544	-74.38140756	-136.9197733
4.87	487	-0.905	-0.142	0.238	4.2398892	5.72958	27.1582092	120.212318	-74.64496824	-137.2463593
4.88	488	-0.936	-0.139	0.237	6.875496	10.7143146	26.5279554	120.4357716	-74.93144724	-137.4067876
4.89	489	-0.989	-0.136	0.237	7.9641162	14.7823164	25.210152	120.5274449	-75.22365582	-137.4182467
4.9	490	-1.032	-0.127	0.231	6.302538	19.767051	22.5745452	120.4472308	-75.52732356	-137.2692776
4.91	491	-1.064	-0.117	0.219	4.010706	25.0382646	18.4492476	120.0232418	-75.81380256	-136.7937225
4.92	492	-1.078	-0.117	0.211	3.151269	27.1582092	14.7823164	119.4273655	-76.08309282	-136.14628
4.93	493	-1.084	-0.128	0.217	1.7761698	29.2781538	11.0580894	118.6424131	-76.32373518	-135.32695
4.94	494	-1.081	-0.13	0.189	0.1718874	30.7105488	7.9641162	117.7027619	-76.5471888	-134.3643806
4.95	495	-1.074	-0.134	0.164	0	30.5959572	5.2139178	116.7287333	-76.7477241	-133.3674337
4.96	496	-1.055	-0.141	0.142	-0.5156622	30.0229992	2.7501984	115.6515723	-76.91388192	-132.2673543
4.97	497	-1.038	-0.157	0.118	-1.3178034	29.0489706	0.7448454	114.5400338	-77.04566226	-131.1443566
4.98	498	-1.023	-0.169	0.105	-2.005353	27.3300966	-0.572958	113.4399544	-77.16025386	-130.0385477
4.99	499	-1.021	-0.169	0.084	-2.5210152	26.0122932	-1.0886202	112.3627934	-77.25765672	-128.9613866
5	500	-1.019	-0.167	0.056	-1.718874	26.069589	-0.9167328	111.2455253	-77.36078916	-127.8441185
5.01	501	-1.022	-0.173	0.042	0	25.0382646	-0.859437	110.2027417	-77.44673286	-126.7784167
5.02	502	-1.002	-0.182	0.037	1.6615782	23.3193906	-0.6302538	109.2401723	-77.52694698	-125.7757402
5.03	503	-0.972	-0.187	0.029	2.291832	21.5432208	-0.3437748	108.3463578	-77.59570194	-124.8418186
5.04	504	-0.958	-0.192	0.03	2.4637194	20.1681216	-0.0572958	107.5098391	-77.6644569	-123.9594633
5.05	505	-0.954	-0.196	0.048	1.432395	19.3659804	0.1145916	106.6618613	-77.72748228	-123.0828376
5.06	506	-0.956	-0.192	0.055	-0.6875496	19.3659804	0.5156622	105.819613	-77.79050766	-122.2291301
5.07	507	-0.952	-0.184	0.062	-2.8074942	18.9649098	0.7448454	104.9659056	-77.85353304	-121.3926115
5.08	508	-0.946	-0.182	0.053	-5.6149884	18.334656	0.7448454	104.1064686	-77.91082884	-120.5732815
5.09	509	-0.96	-0.183	0.032	-8.6516658	16.615782	0.4010706	103.2814091	-77.96239506	-119.8227065
5.1	510	-0.954	-0.182	0.016	-10.1986524	13.2926256	0.4010706	102.5308341	-78.0082317	-119.1638048
5.11	511	-0.952	-0.18	-0.005	-11.0007936	9.6829902	0.1145916	101.986524	-78.03115002	-118.7226272
5.12	512	-0.949	-0.173	-0.026	-11.5164558	7.5630456	-0.0572958	101.5281576	-78.04833876	-118.3788524
5.13	513	-0.952	-0.17	-0.045	-10.8289062	6.4171296	-0.4010706	101.1328166	-78.05979792	-118.0809142
5.14	514	-0.955	-0.17	-0.051	-9.3965112	5.3285094	-0.9167328	100.7890418	-78.05979792	-117.8288127
5.15	515	-0.952	-0.168	-0.046	-7.734933	4.2398892	-1.4896908	100.2791092	-78.08271624	-117.3990942
5.16	516	-0.947	-0.169	-0.037	-6.1306506	3.6669312	-1.718874	100.0384668	-78.07125708	-117.2157476
5.17	517	-0.95	-0.171	-0.027	-4.4690724	3.6669312	-1.7761698	99.8092836	-78.0655275	-117.0324011
5.18	518	-0.953	-0.177	-0.02	-2.6929026	3.6096354	-1.432395	99.60301872	-78.05406834	-116.8490545
5.19	519	-0.95	-0.182	-0.015	-1.432395	3.3231564	-1.0313244	99.42540174	-78.05406834	-116.6886263
5.2	520	-0.951	-0.184	-0.009	-0.572958	2.7501984	-0.6875496	98.8639029	-78.0941754	-116.1385866
5.21	521	-0.958	-0.186	0.001	0	2.2345362	-0.286479	98.75504088	-78.0941754	-116.0297246
5.22	522	-0.963	-0.187	0.014	0.4583664	1.718874	0.0572958	98.68055634	-78.0941754	-115.9437809
5.23	523	-0.969	-0.187	0.019	0.9740286	1.145916	0.4583664	98.64044928	-78.10563456	-115.8979442
5.24	524	-0.975	-0.187	0.027	1.0313244	0.859437	1.0313244	98.61753096	-78.11709372	-115.8578372
5.25	525	-0.983	-0.189	0.029	0.6875496	1.0313244	1.4896908	98.48575062	-78.16865994	-115.7203273
5.26	526	-0.988	-0.187	0.029	0.7448454	0.5156622	1.7761698	98.48002104	-78.18584868	-115.7088681
5.27	527	-0.992	-0.181	0.036	0.4010706	-0.7448454	1.7761698	98.53731684	-78.20303742	-115.7604343
5.28	528	-0.991	-0.177	0.037	0	-1.3178034	1.6042824	98.61180138	-78.21449658	-115.8349189
5.29	529	-0.992	-0.174	0.036	0.1718874	-1.9480572	1.3750992	98.71493382	-78.22595574	-115.9380513
5.3	530	-0.995	-0.174	0.041	0.859437	-1.9480572	1.2605076	98.88682122	-78.28898112	-116.1042091
5.31	531	-0.996	-0.178	0.052	0.572958	-1.0886202	1.145916	98.95557618	-78.2947107	-116.1672345
5.32	532	-0.993	-0.183	0.063	-0.9740286	-0.9740286	0.9167328	98.99568324	-78.30616986	-116.2245303
5.33	533	-0.991	-0.183	0.068	-2.6929026	-1.432395	0.6875496	99.04724946	-78.30616986	-116.2990148
5.34	534	-0.993	-0.182	0.067	-4.0680018	-1.718874	0.572958	99.0930861	-78.31189944	-116.3906881
5.35	535	-0.994	-0.181	0.062	-5.2139178	-2.005353	0.4583664	99.22486644	-78.32908818	-116.5797643
5.36	536	-0.991	-0.176	0.052	-5.5576926	-1.9480572	0.572958	99.27070308	-78.33481776	-116.6828967
5.37	537	-0.989	-0.172	0.039	-5.2712136	-1.7761698	0.5156622	99.31081014	-78.33481776	-116.77457
5.38	538	-0.989	-0.171	0.037	-4.6409598	-2.1772404	0.5156622	99.37383552	-78.33481776	-116.8891616
5.39	539	-0.987	-0.169	0.033	-3.8961144	-2.291832	0.4010706	99.44832006	-78.33481776	-117.0037532
5.4	540	-0.988	-0.17	0.028	-3.0366774	-2.005353	0.2291832	99.44259048	-78.3806544	-117.0324011
5.41	541	-0.992	-0.174	0.031	-2.1199446	-1.4896908	0.0572958	99.4941567	-78.3806544	-117.1068856
5.42	542	-0.993	-0.177	0.036	-1.3750992	-0.7448454	0	99.51707502	-78.3806544	-117.1469927
5.43	543	-0.992	-0.177	0.039	-0.6875496	-0.0572958	0	99.51134544	-78.3806544	-117.1527223
5.44	544	-0.992	-0.177	0.036	-0.0572958	0.2291832	0	99.49988628	-78.3806544	-117.1412631
5.45	545	-0.992	-0.179	0.034	0.572958	0.286479	0.1145916	99.408213	-78.48951642	-117.0438602
5.46	546	-0.994	-0.178	0.037	0.859437	0.286479	0.286479	99.40248342	-78.495246	-117.0324011
5.47	547	-0.995	-0.176	0.041	0.9167328	0.4583664	0.2291832	99.39102426	-78.50097558	-117.0094828
5.48	548	-0.992	-0.177	0.039	0.8021412	0.7448454	0.1718874	99.36237636	-78.50097558	-116.9751053
5.49	549	-0.99	-0.179	0.038	0.8021412	0.572958	0.1145916	99.34518762	-78.50670516	-116.9407278
5.5	550	-0.988	-0.182	0.039	0.6875496	0.5156622	0.1718874	99.3222693	-78.56973054	-116.9178095
5.51	551	-0.987	-0.18	0.042	0.3437748	0.4583664	0.3437748	99.30508056	-78.57546012	-116.8948912
5.52	552	-0.988	-0.178	0.043	-0.0572958	0.6302538	0.3437748	99.27643266	-78.5811897	-116.8662433
5.53	553	-0.989	-0.176	0.044	-0.286479	0.9740286	0.286479	99.22486644	-78.58691928	-116.8204066
5.54	554	-0.989	-0.176	0.043	-0.286479	1.432395	0.1718874	99.15611148	-78.59264886	-116.7459221
5.55	555	-0.987	-0.177	0.04	-0.286479	1.8907614	0	99.07589736	-78.6384855	-116.6771671
5.56	556	-0.984	-0.18	0.037	-0.4583664	2.1772404	0	98.96703534	-78.64421508	-116.5683051
5.57	557	-0.983	-0.18	0.038	-0.6302538	2.291832	-0.1145916	98.84671416	-78.64994466	-116.4537135
5.58	558	-0.983	-0.179	0.039	-0.6875496	2.578311	-0.0572958	98.71493382	-78.64994466	-116.3219332
5.59	559	-0.984	-0.18	0.041	-0.6875496	2.6356068	0	98.5774239	-78.65567424	-116.1901528
5.6	560	-0.984	-0.179	0.043	-0.7448454	2.578311	-0.0572958	98.49720978	-78.68432214	-116.1156683
5.61	561	-0.988	-0.181	0.042	-0.859437	2.9793816	0	98.34251112	-78.69005172	-115.9666992
5.62	562	-0.989	-0.181	0.04	-1.2032118	3.2085648	0.1145916	98.1763533	-78.70151088	-115.8120005
5.63	563	-0.989	-0.181	0.036	-1.3750992	3.3231564	0.286479	97.99873632	-78.70724046	-115.6458427
5.64	564	-0.988	-0.181	0.035	-1.5469866	3.151269	0.4010706	97.8325785	-78.71869962	-115.4911441
5.65	565	-0.986	-0.179	0.034	-1.7761698	2.9220858	0.4010706	97.67787984	-78.74734752	-115.3536341
5.66	566	-0.985	-0.18	0.031	-2.0626488	2.86479	0.4010706	97.5174516	-78.7530771	-115.2161242
5.67	567	-0.984	-0.179	0.025	-1.8907614	2.7501984	0.6302538	97.36848252	-78.76453626	-115.0843439
5.68	568	-0.984	-0.178	0.023	-1.6615782	2.86479	0.6875496	97.21378386	-78.77599542	-114.9411044
5.69	569	-0.984	-0.176	0.022	-1.4896908	2.9793816	0.6875496	97.05335562	-78.78745458	-114.7978649
5.7	570	-0.984	-0.176	0.022	-1.3178034	2.7501984	0.7448454	96.84136116	-78.82756164	-114.5973296
5.71	571	-0.985	-0.174	0.023	-1.3178034	2.6356068	0.572958	96.69812166	-78.8390208	-114.4655492
5.72	572	-0.987	-0.176	0.023	-1.2032118	2.2345362	0.6302538	96.57780048	-78.84475038	-114.3566872
5.73	573	-0.988	-0.175	0.023	-1.3178034	1.8907614	0.4583664	96.47466804	-78.85620954	-114.2650139
5.74	574	-0.988	-0.174	0.022	-1.4896908	1.6042824	0.2291832	96.38299476	-78.86193912	-114.1847998
5.75	575	-0.988	-0.175	0.022	-1.3178034	1.3178034	0.1145916	96.2282961	-78.90777576	-114.0472899
5.76	576	-0.985	-0.176	0.023	-1.145916	1.145916	0	96.15954114	-78.91350534	-113.9899941
5.77	577	-0.983	-0.176	0.02	-1.0313244	0.9167328	0	96.10224534	-78.91350534	-113.9441575
5.78	578	-0.982	-0.177	0.018	-0.9740286	0.5156622	0	96.06213828	-78.91350534	-113.9155096
5.79	579	-0.983	-0.176	0.019	-0.8021412	0.1718874	0	96.04494954	-78.91350534	-113.9040504
5.8	580	-0.986	-0.176	0.021	-0.572958	0	-0.0572958	95.7412818	-79.02809694	-113.6118418
5.81	581	-0.987	-0.176	0.022	-0.5156622	-0.1145916	-0.1718874	95.7412818	-79.02236736	-113.623301
5.82	582	-0.989	-0.177	0.029	-0.572958	0.0572958	-0.1145916	95.72982264	-79.02236736	-113.6175714
5.83	583	-0.987	-0.178	0.029	-0.6875496	0.572958	-0.1145916	95.69544516	-79.02236736	-113.5889235
5.84	584	-0.988	-0.179	0.027	-0.572958	0.5156622	-0.0572958	95.66106768	-79.02236736	-113.5602756
5.85	585	-0.986	-0.178	0.027	-0.7448454	-0.4010706	-0.1718874	95.67825642	-79.05674484	-113.5831939
5.86	586	-0.987	-0.177	0.028	-1.2605076	-0.9167328	-0.3437748	95.7126339	-79.05101526	-113.6290306
5.87	587	-0.987	-0.177	0.027	-1.432395	-0.6875496	-0.572958	95.72982264	-79.04528568	-113.663408
5.88	588	-0.985	-0.175	0.024	-0.8021412	-0.286479	-0.6302538	95.73555222	-79.0395561	-113.6805968
5.89	589	-0.984	-0.18	0.029	-0.3437748	0	-0.6302538	95.72982264	-79.03382652	-113.6748672
5.9	590	-0.984	-0.189	0.035	-1.2032118	-0.0572958	-0.6302538	95.7985776	-79.02809694	-113.7550813
5.91	591	-0.982	-0.186	0.035	-2.0626488	-0.6875496	-0.4583664	95.81003676	-79.02236736	-113.7951884
5.92	592	-0.982	-0.182	0.032	-2.1199446	-1.0313244	-0.2291832	95.84441424	-79.02236736	-113.8467546
5.93	593	-0.984	-0.18	0.028	-1.5469866	-0.6302538	-0.0572958	95.86160298	-79.01663778	-113.8811321
5.94	594	-0.982	-0.18	0.023	-0.8021412	0.2291832	0.3437748	95.84441424	-79.02236736	-113.8696729
5.95	595	-0.983	-0.18	0.019	-0.3437748	1.0313244	0.5156622	95.66106768	-79.05674484	-113.6920559
5.96	596	-0.985	-0.181	0.023	-0.1718874	1.3178034	0.6875496	95.59231272	-79.068204	-113.6290306
5.97	597	-0.989	-0.18	0.031	-0.3437748	1.4896908	0.7448454	95.51782818	-79.07393358	-113.554546
5.98	598	-0.994	-0.18	0.033	-0.7448454	1.5469866	0.8021412	95.43188448	-79.08539274	-113.4743319
5.99	599	-0.998	-0.179	0.033	-0.9740286	1.6615782	0.9167328	95.3402112	-79.0968519	-113.3941178
6	600	-0.996	-0.179	0.028	-1.0313244	1.7761698	0.9740286	95.24853792	-79.1254998	-113.3081741
6.01	601	-0.992	-0.179	0.025	-0.8021412	1.6615782	0.9740286	95.15686464	-79.13695896	-113.22796
6.02	602	-0.989	-0.178	0.024	-0.4583664	1.718874	1.0313244	95.06519136	-79.1541477	-113.1420163
6.03	603	-0.99	-0.175	0.026	-0.1145916	1.718874	1.2032118	94.97924766	-79.16560686	-113.0560726
6.04	604	-0.99	-0.175	0.025	0	1.8334656	1.0886202	94.88757438	-79.17706602	-112.9643993
6.05	605	-0.989	-0.177	0.024	0.2291832	1.8907614	0.9740286	94.7959011	-79.2114435	-112.8669964
6.06	606	-0.989	-0.176	0.026	0.4010706	1.718874	1.0313244	94.71568698	-79.22290266	-112.7753231
6.07	607	-0.989	-0.173	0.026	0.2291832	1.9480572	1.0313244	94.61828412	-79.2400914	-112.6779203
6.08	608	-0.99	-0.174	0.024	0.3437748	2.1199446	0.9167328	94.51515168	-79.25155056	-112.5690583
6.09	609	-0.99	-0.175	0.026	0.5156622	2.005353	0.8021412	94.41774882	-79.25728014	-112.4659258
6.1	610	-0.987	-0.176	0.024	0.4583664	1.9480572	0.6875496	94.32607554	-79.28592804	-112.3627934
6.11	611	-0.985	-0.177	0.022	0.4010706	1.8334656	0.6875496	94.23440226	-79.29165762	-112.2711201
6.12	612	-0.985	-0.177	0.016	0.4010706	1.8907614	0.6302538	94.14272898	-79.30311678	-112.1679877
6.13	613	-0.986	-0.177	0.016	0.5156622	1.8907614	0.6302538	94.0510557	-79.30884636	-112.0705848
6.14	614	-0.986	-0.177	0.018	0.6302538	1.718874	0.6302538	93.97084158	-79.32030552	-111.9846411
6.15	615	-0.985	-0.178	0.022	0.7448454	1.7761698	0.6302538	93.8791683	-79.33749426	-111.8815087
6.16	616	-0.983	-0.177	0.019	0.8021412	1.8334656	0.7448454	93.78749502	-79.34895342	-111.7841058
6.17	617	-0.982	-0.177	0.018	0.9167328	1.8334656	0.859437	93.7072809	-79.36041258	-111.6867029
6.18	618	-0.983	-0.178	0.017	1.0313244	1.8907614	0.9740286	93.6213372	-79.37187174	-111.5893001
6.19	619	-0.984	-0.179	0.019	0.859437	1.9480572	0.9740286	93.52393434	-79.3833309	-111.4861676
6.2	620	-0.987	-0.178	0.02	0.7448454	1.8334656	1.0313244	93.43799064	-79.40624922	-111.3887648
6.21	621	-0.989	-0.177	0.019	0.572958	1.6615782	1.145916	93.35777652	-79.41770838	-111.3028211
6.22	622	-0.988	-0.177	0.018	0.572958	1.5469866	1.145916	93.28329198	-79.43489712	-111.222607
6.23	623	-0.988	-0.177	0.019	0.5156622	1.718874	1.0886202	93.20307786	-79.44635628	-111.1309337
6.24	624	-0.987	-0.175	0.019	0.5156622	1.718874	1.145916	93.11713416	-79.45781544	-111.0392604
6.25	625	-0.985	-0.174	0.019	0.572958	1.5469866	1.145916	93.03119046	-79.48646334	-110.9533167
6.26	626	-0.987	-0.177	0.02	0.8021412	1.6042824	1.3178034	92.95670592	-79.50365208	-110.867373
6.27	627	-0.988	-0.176	0.021	0.7448454	1.7761698	1.3178034	92.8764918	-79.51511124	-110.7699701
6.28	628	-0.989	-0.175	0.02	0.572958	1.718874	1.3178034	92.7905481	-79.53229998	-110.6782969
6.29	629	-0.989	-0.174	0.02	0.4583664	1.4896908	1.2605076	92.71606356	-79.54375914	-110.6038123
6.3	630	-0.992	-0.173	0.02	0.0572958	1.3178034	1.2032118	92.68168608	-79.57813662	-110.5637053
6.31	631	-0.991	-0.172	0.019	0	1.3750992	1.0313244	92.60720154	-79.58959578	-110.4892207
6.32	632	-0.989	-0.172	0.022	0	1.432395	0.9740286	92.532717	-79.60105494	-110.4147362
6.33	633	-0.986	-0.172	0.018	0	1.718874	0.9740286	92.44104372	-79.6125141	-110.3230629
6.34	634	-0.986	-0.172	0.016	0.4010706	1.7761698	1.0886202	92.35510002	-79.62397326	-110.22566
6.35	635	-0.986	-0.173	0.014	0.5156622	1.6042824	1.0313244	92.23477884	-79.64689158	-110.0996093
6.36	636	-0.986	-0.173	0.017	0.4583664	1.432395	0.9167328	92.1602943	-79.65835074	-110.0193952
6.37	637	-0.986	-0.172	0.017	0.3437748	1.432395	0.859437	92.08580976	-79.6698099	-109.939181
6.38	638	-0.987	-0.172	0.017	0.286479	1.3750992	0.8021412	92.01132522	-79.67553948	-109.8646965
6.39	639	-0.99	-0.174	0.016	0.3437748	1.145916	0.7448454	91.95402942	-79.68699864	-109.8016711
6.4	640	-0.99	-0.173	0.015	0.4583664	1.0886202	0.9167328	91.89673362	-79.70991696	-109.7386457
6.41	641	-0.991	-0.173	0.015	0.4010706	1.4896908	1.0886202	91.82224908	-79.72137612	-109.6584316
6.42	642	-0.99	-0.172	0.013	0.5156622	1.432395	0.6302538	91.74776454	-79.73283528	-109.5782175
6.43	643	-0.987	-0.17	0.012	0.286479	0	0.1145916	91.75349412	-79.73283528	-109.5782175
6.44	644	-0.986	-0.171	0.015	0.0572958	-0.6875496	-0.0572958	91.7878716	-79.73283528	-109.6183246
6.45	645	-0.989	-0.17	0.016	-0.2291832	-0.7448454	-0.4010706	91.83370824	-79.76721276	-109.6641612
6.46	646	-0.99	-0.171	0.011	0	-0.5156622	-0.5156622	91.86235614	-79.76148318	-109.6928091
6.47	647	-0.989	-0.173	0.01	0.572958	-0.1718874	-0.572958	91.87954488	-79.7557536	-109.7042683
6.48	648	-0.987	-0.18	0.018	0.1145916	0.1145916	-0.572958	91.8738153	-79.75002402	-109.6928091
6.49	649	-0.984	-0.181	0.024	-0.9740286	-0.286479	-0.5156622	91.87954488	-79.74429444	-109.7099978
6.5	650	-0.984	-0.175	0.028	-1.8334656	-1.145916	-0.286479	92.01132522	-79.75002402	-109.8646965
6.51	651	-0.983	-0.17	0.017	-1.8334656	-1.0886202	0	92.05716186	-79.75002402	-109.9277219
6.52	652	-0.981	-0.17	0.004	-1.2032118	-0.7448454	0.0572958	92.08580976	-79.75002402	-109.9678289
6.53	653	-0.982	-0.171	0.002	-0.7448454	-0.286479	0.2291832	92.09726892	-79.75002402	-109.9907473
6.54	654	-0.983	-0.169	0.007	-0.4583664	0	0.3437748	92.09153934	-79.7557536	-109.9907473
6.55	655	-0.986	-0.167	0.013	-0.1718874	0	0.2291832	92.02851396	-79.87607478	-109.9334515
6.56	656	-0.99	-0.169	0.015	-0.1718874	0.0572958	0.1145916	92.02278438	-79.87607478	-109.9277219
6.57	657	-0.993	-0.17	0.014	-0.1718874	-0.1145916	0.0572958	92.02851396	-79.87607478	-109.939181
6.58	658	-0.993	-0.168	0.013	-0.2291832	0	0.0572958	92.02278438	-79.87607478	-109.9334515
6.59	659	-0.992	-0.167	0.011	-0.0572958	0.0572958	0	92.0170548	-79.87607478	-109.9334515
6.6	660	-0.991	-0.167	0.013	0	0.0572958	0	91.85662656	-80.03650302	-109.7730232
6.61	661	-0.991	-0.169	0.013	0.0572958	0	-0.1145916	91.85662656	-80.03077344	-109.7672936
6.62	662	-0.99	-0.169	0.014	0.1718874	-0.1718874	-0.2291832	91.86808572	-80.03077344	-109.7787528
6.63	663	-0.989	-0.168	0.014	0.1145916	-0.286479	-0.1718874	91.88527446	-80.02504386	-109.7959415
6.64	664	-0.993	-0.168	0.012	0.2291832	-0.2291832	-0.2291832	91.9024632	-80.02504386	-109.8131303
6.65	665	-0.991	-0.168	0.009	0.0572958	-0.286479	-0.3437748	91.75349412	-80.04796218	-109.6641612
6.66	666	-0.988	-0.166	0.009	0	-0.572958	-0.4583664	91.78214202	-80.0422326	-109.6985387
6.67	667	-0.986	-0.168	0.007	0	-0.572958	-0.4010706	91.8165195	-80.0422326	-109.7329162
6.68	668	-0.986	-0.168	0.007	0.1718874	-0.5156622	-0.4583664	91.85089698	-80.03650302	-109.7615641
6.69	669	-0.986	-0.169	0.009	0.0572958	-0.572958	-0.572958	91.88527446	-80.03077344	-109.7959415
6.7	670	-0.984	-0.17	0.008	0	-0.7448454	-0.6302538	91.79360118	-80.03077344	-109.7099978
6.71	671	-0.986	-0.169	0.006	0	-0.8021412	-0.6875496	91.83943782	-80.02504386	-109.7558345
6.72	672	-0.987	-0.171	0.008	0	-0.572958	-0.6875496	91.8738153	-80.01931428	-109.790212
6.73	673	-0.987	-0.173	0.011	-0.1145916	-0.4010706	-0.572958	91.89673362	-80.00785512	-109.8131303
6.74	674	-0.985	-0.172	0.01	-0.3437748	-0.6875496	-0.572958	91.9311111	-80.00212554	-109.8532373
6.75	675	-0.983	-0.171	0.008	-0.3437748	-0.9740286	-0.4010706	91.88527446	-80.00785512	-109.8131303
6.76	676	-0.983	-0.171	0.005	-0.4583664	-0.9167328	-0.3437748	91.9311111	-80.00212554	-109.8646965
6.77	677	-0.983	-0.171	0.005	-0.5156622	-0.859437	-0.286479	91.97694774	-79.99639596	-109.9105331
6.78	678	-0.985	-0.171	0.01	-0.572958	-0.859437	-0.286479	92.0170548	-79.99639596	-109.9620994
6.79	679	-0.985	-0.17	0.013	-0.6302538	-0.9167328	-0.2291832	92.06289144	-79.99066638	-110.0193952
6.8	680	-0.988	-0.17	0.012	-0.7448454	-0.9740286	-0.1718874	92.0743506	-80.00212554	-110.0365839
6.81	681	-0.991	-0.169	0.012	-0.859437	-0.9740286	-0.1145916	92.12018724	-79.99639596	-110.0938797
6.82	682	-0.991	-0.169	0.012	-0.9167328	-1.145916	-0.1145916	92.17748304	-79.99639596	-110.1569051
6.83	683	-0.99	-0.167	0.01	-0.9740286	-1.145916	-0.286479	92.23477884	-79.99066638	-110.22566
6.84	684	-0.989	-0.168	0.011	-1.0313244	-1.3178034	-0.286479	92.29780422	-79.99066638	-110.3058742
6.85	685	-0.989	-0.166	0.012	-1.2032118	-1.4896908	-0.3437748	92.33791128	-79.99639596	-110.3574404
6.86	686	-0.989	-0.164	0.013	-1.432395	-1.5469866	-0.572958	92.41239582	-79.99066638	-110.4491137
6.87	687	-0.99	-0.165	0.014	-1.5469866	-1.7761698	-0.6875496	92.49833952	-79.97920722	-110.5522461
6.88	688	-0.991	-0.165	0.012	-1.7761698	-2.2345362	-0.8021412	92.60720154	-79.97347764	-110.6782969
6.89	689	-0.988	-0.164	0.011	-1.9480572	-2.5210152	-1.0886202	92.72752272	-79.9562889	-110.8215364
6.9	690	-0.986	-0.164	0.009	-1.8907614	-2.578311	-1.2605076	92.80773684	-79.95055932	-110.9246688
6.91	691	-0.983	-0.163	0.007	-1.5469866	-2.5210152	-1.3178034	92.9337876	-79.93337058	-111.0679083
6.92	692	-0.982	-0.165	0.008	-1.0886202	-2.6356068	-1.3750992	93.06556794	-79.92191142	-111.2111478
6.93	693	-0.981	-0.167	0.006	-0.859437	-2.4637194	-1.3750992	93.1916187	-79.90472268	-111.3486577
6.94	694	-0.982	-0.17	0.005	-0.572958	-2.1772404	-1.3750992	93.3062103	-79.88753394	-111.4689789
6.95	695	-0.985	-0.17	0.007	-0.5156622	-2.0626488	-1.3178034	93.32912862	-79.88180436	-111.5033564
6.96	696	-0.987	-0.17	0.011	-0.859437	-2.0626488	-1.3750992	93.43226106	-79.86461562	-111.617948
6.97	697	-0.989	-0.17	0.01	-1.0886202	-2.2345362	-1.3750992	93.54112308	-79.84742688	-111.7382692
6.98	698	-0.991	-0.171	0.01	-1.3178034	-2.3491278	-1.2605076	93.65571468	-79.83596772	-111.8700495
6.99	699	-0.993	-0.171	0.011	-1.432395	-2.291832	-1.2032118	93.7645767	-79.81877898	-111.9903707
7	700	-0.99	-0.171	0.009	-1.6042824	-1.9480572	-1.0886202	93.77603586	-79.8130494	-112.0247482
7.01	701	-0.987	-0.169	0.007	-1.3750992	-1.8907614	-1.0313244	93.86770914	-79.80159024	-112.1278806
7.02	702	-0.987	-0.166	0.008	-1.145916	-2.6929026	-1.0313244	93.99948948	-79.79013108	-112.2768497
7.03	703	-0.989	-0.167	0.013	-1.432395	-3.151269	-1.3750992	94.15418814	-79.77294234	-112.4487371
7.04	704	-0.992	-0.167	0.009	-1.6042824	-2.8074942	-1.6042824	94.28596848	-79.7557536	-112.5977062
7.05	705	-0.991	-0.167	0.003	-0.859437	-2.4637194	-1.6615782	94.3088868	-79.75002402	-112.6320836
7.06	706	-0.989	-0.175	0.014	-0.4583664	-1.9480572	-1.6042824	94.40628966	-79.7271057	-112.7352161
7.07	707	-0.987	-0.179	0.02	-1.6615782	-2.1772404	-1.5469866	94.49796294	-79.70991696	-112.8498077
7.08	708	-0.986	-0.173	0.024	-2.578311	-2.86479	-1.3750992	94.6240137	-79.69272822	-113.0045063
7.09	709	-0.985	-0.168	0.021	-2.86479	-3.3804522	-1.3178034	94.77871236	-79.68126906	-113.1878529
7.1	710	-0.984	-0.168	0.013	-2.7501984	-3.2658606	-1.2605076	94.86465606	-79.6698099	-113.3081741
7.11	711	-0.981	-0.168	0.002	-2.3491278	-2.86479	-1.2032118	94.9964364	-79.65262116	-113.4628727
7.12	712	-0.983	-0.166	0.003	-1.7761698	-2.578311	-1.145916	95.111028	-79.641162	-113.6003827
7.13	713	-0.988	-0.167	0.011	-1.3178034	-2.4637194	-1.2032118	95.2256196	-79.62397326	-113.732163
7.14	714	-0.991	-0.168	0.013	-1.0886202	-2.291832	-1.3750992	95.33448162	-79.60678452	-113.8524842
7.15	715	-0.992	-0.169	0.015	-1.145916	-2.2345362	-1.432395	95.38031826	-79.60678452	-113.90978
7.16	716	-0.992	-0.17	0.013	-1.145916	-2.1772404	-1.5469866	95.47772112	-79.5838662	-114.0243716
7.17	717	-0.991	-0.17	0.013	-1.145916	-2.005353	-1.5469866	95.5693944	-79.56667746	-114.127504
7.18	718	-0.989	-0.17	0.012	-0.9740286	-1.9480572	-1.6042824	95.6553381	-79.54948872	-114.2249069
7.19	719	-0.987	-0.17	0.013	-0.7448454	-2.005353	-1.5469866	95.74701138	-79.53229998	-114.3280393
7.2	720	-0.99	-0.17	0.015	-0.6875496	-2.005353	-1.4896908	95.78138886	-79.5265704	-114.3681464
7.21	721	-0.99	-0.17	0.016	-0.7448454	-2.1772404	-1.6042824	95.87879172	-79.50938166	-114.4770084
7.22	722	-0.991	-0.171	0.014	-0.9740286	-2.6929026	-1.718874	96.00484248	-79.48646334	-114.6145183
7.23	723	-0.988	-0.172	0.016	-1.0886202	-2.7501984	-1.8334656	96.13089324	-79.46354502	-114.7520282
7.24	724	-0.986	-0.171	0.015	-1.145916	-2.86479	-1.8334656	96.26267358	-79.4406267	-114.8952677
7.25	725	-0.986	-0.171	0.013	-1.2605076	-2.7501984	-1.8334656	96.3142398	-79.42916754	-114.9640227
7.26	726	-0.985	-0.173	0.012	-0.9740286	-2.8074942	-1.718874	96.44029056	-79.4119788	-115.1072622
7.27	727	-0.985	-0.174	0.013	-1.0313244	-2.86479	-1.7761698	96.56634132	-79.38906048	-115.2505017
7.28	728	-0.984	-0.176	0.012	-1.0313244	-2.8074942	-1.718874	96.69812166	-79.36614216	-115.3880116
7.29	729	-0.986	-0.174	0.008	-1.0886202	-2.6929026	-1.718874	96.81844284	-79.34895342	-115.519792
7.3	730	-0.986	-0.174	0.01	-0.6302538	-2.5210152	-1.6042824	96.829902	-79.33749426	-115.5427103
7.31	731	-0.985	-0.174	0.012	-0.7448454	-2.2345362	-1.6615782	96.92730486	-79.32030552	-115.6515723
7.32	732	-0.985	-0.174	0.017	-0.8021412	-2.1772404	-1.6042824	97.02470772	-79.2973872	-115.7604343
7.33	733	-0.985	-0.175	0.017	-0.859437	-2.3491278	-1.4896908	97.12784016	-79.28019846	-115.8750259
7.34	734	-0.985	-0.174	0.016	-0.8021412	-2.4637194	-1.3750992	97.24243176	-79.26300972	-115.9953471
7.35	735	-0.988	-0.174	0.017	-0.9740286	-2.4637194	-1.3178034	97.28253882	-79.25728014	-116.0526429
7.36	736	-0.988	-0.173	0.017	-1.0313244	-2.3491278	-1.2605076	97.38567126	-79.24582098	-116.1672345
7.37	737	-0.989	-0.174	0.019	-1.145916	-2.4637194	-1.5469866	97.49453328	-79.22290266	-116.2875557
7.38	738	-0.986	-0.174	0.019	-1.2605076	-2.6929026	-1.432395	97.60912488	-79.20571392	-116.419336
7.39	739	-0.988	-0.172	0.019	-1.2605076	-2.6929026	-1.3750992	97.72371648	-79.18852518	-116.5511164
7.4	740	-0.988	-0.172	0.017	-1.145916	-2.5210152	-1.3178034	97.76382354	-79.1827956	-116.6026826
7.41	741	-0.987	-0.173	0.015	-0.9167328	-2.291832	-1.3178034	97.8612264	-79.16560686	-116.7172742
7.42	742	-0.986	-0.174	0.011	-0.6302538	-2.291832	-1.2032118	97.96435884	-79.1541477	-116.8261362
