TimeStamp(s)	FrameCounter	AccX	AccY	AccZ	GyrX	GyrY	GyrZ	EulerX	EulerY	EulerZ
0.01	1	-0.014	-1.005	0.028	-1.8334656	-6.016059	2.0626488	88.57357722	-1.67876694	-62.8248447
0.02	2	-0.006	-1.008	0.041	-3.3231564	-1.8334656	0.4583664	88.54492932	-1.68449652	-62.84203344
0.03	3	-0.01	-1.007	0.039	-3.2085648	-1.5469866	0.286479	88.51055184	-1.6902261	-62.85922218
0.04	4	-0.013	-1.007	0.038	-3.0366774	-1.2032118	0.2291832	88.48190394	-1.6902261	-62.87068134
0.05	5	-0.012	-1.006	0.037	-3.151269	-0.6875496	0.2291832	88.50482226	-1.66730778	-62.87641092
0.06	6	-0.01	-1.005	0.037	-3.151269	-0.4583664	0.286479	88.47044478	-1.67303736	-62.8821405
0.07	7	-0.008	-1.003	0.036	-2.9793816	-0.2291832	0.4010706	88.44179688	-1.67876694	-62.8821405
0.08	8	-0.005	-1.002	0.036	-2.86479	-0.1145916	0.286479	88.41314898	-1.67876694	-62.8821405
0.09	9	-0.003	-1.001	0.037	-2.578311	-0.286479	0.1718874	88.38450108	-1.68449652	-62.88787008
0.1	10	-0.002	-1.003	0.039	-2.2345362	-0.4010706	0.1718874	88.44752646	-1.6329303	-62.88787008
0.11	11	-0.002	-1.006	0.039	-2.005353	-0.5156622	0.1718874	88.42460814	-1.63865988	-62.89359966
0.12	12	-0.003	-1.005	0.039	-1.718874	-0.572958	0.2291832	88.4074194	-1.63865988	-62.89932924
0.13	13	-0.004	-1.005	0.04	-1.432395	-0.6875496	0.3437748	88.39596024	-1.64438946	-62.90505882
0.14	14	-0.005	-1.005	0.04	-1.3178034	-0.8021412	0.2291832	88.38450108	-1.64438946	-62.91651798
0.15	15	-0.005	-1.006	0.04	-1.432395	-0.8021412	0.1718874	88.45898562	-1.59855282	-62.91651798
0.16	16	-0.008	-1.007	0.04	-1.4896908	-0.7448454	0.0572958	88.44752646	-1.59855282	-62.92797714
0.17	17	-0.01	-1.005	0.039	-1.3178034	-0.5156622	0	88.43033772	-1.59855282	-62.93370672
0.18	18	-0.009	-1.008	0.04	-0.8021412	-0.1718874	0	88.42460814	-1.59855282	-62.93370672
0.19	19	-0.004	-1.009	0.043	-0.6875496	-0.1718874	-0.1718874	88.41887856	-1.59282324	-62.93370672
0.2	20	-0.002	-1.01	0.044	-0.859437	-0.2291832	-0.2291832	88.5506589	-1.50687954	-62.93370672
0.21	21	0.003	-1.012	0.04	-1.3750992	-0.3437748	-0.4010706	88.53919974	-1.50114996	-62.93370672
0.22	22	0.012	-1.012	0.036	-1.9480572	-0.7448454	-0.4010706	88.51628142	-1.50114996	-62.94516588
0.23	23	0.016	-1.01	0.038	-2.2345362	-1.145916	-0.3437748	88.49909268	-1.49542038	-62.95662504
0.24	24	0.015	-1.011	0.04	-1.9480572	-1.2032118	-0.4010706	88.47617436	-1.4896908	-62.9680842
0.25	25	0.012	-1.021	0.04	-2.5210152	-0.8021412	-0.9740286	88.48763352	-1.43812458	-62.97954336
0.26	26	0.022	-1.026	0.034	-4.0680018	-0.6302538	-1.4896908	88.44752646	-1.42666542	-62.98527294
0.27	27	0.036	-1.025	0.032	-4.9274388	-1.145916	-1.6615782	88.39596024	-1.40947668	-62.9967321
0.28	28	0.045	-1.025	0.033	-5.72958	-1.8907614	-1.432395	88.33866444	-1.39228794	-63.01965042
0.29	29	0.049	-1.027	0.035	-6.5317212	-2.8074942	-0.859437	88.27563906	-1.38655836	-63.04829832
0.3	30	0.049	-1.023	0.037	-7.2765666	-3.8961144	-0.286479	88.21834326	-1.35218088	-63.08840538
0.31	31	0.045	-1.019	0.041	-8.2505952	-5.156622	0.286479	88.13812914	-1.35218088	-63.1399716
0.32	32	0.039	-1.017	0.04	-9.3965112	-6.5317212	0.6302538	88.04645586	-1.36364004	-63.20872656
0.33	33	0.037	-1.015	0.035	-10.4851314	-7.3911582	0.6875496	87.94332342	-1.36936962	-63.2832111
0.34	34	0.037	-1.011	0.031	-10.8289062	-8.1360036	0.6875496	87.8344614	-1.38082878	-63.36342522
0.35	35	0.036	-1.007	0.03	-10.599723	-8.880849	0.6875496	87.74278812	-1.36936962	-63.4550985
0.36	36	0.034	-1.006	0.034	-10.2559482	-9.3392154	0.4583664	87.63965568	-1.38082878	-63.54677178
0.37	37	0.033	-1.008	0.036	-10.0840608	-9.740286	0.4583664	87.54225282	-1.38655836	-63.64417464
0.38	38	0.035	-1.013	0.035	-10.1413566	-9.9694692	0.572958	87.44484996	-1.39228794	-63.74730708
0.39	39	0.038	-1.018	0.033	-10.599723	-10.2559482	0.859437	87.33598794	-1.4037471	-63.85043952
0.4	40	0.042	-1.016	0.029	-11.3445684	-10.4851314	1.145916	87.23858508	-1.4037471	-63.95357196
0.41	41	0.044	-1.015	0.023	-11.9175264	-10.886202	1.4896908	87.12399348	-1.42093584	-64.06243398
0.42	42	0.042	-1.015	0.024	-12.4331886	-11.4018642	1.8907614	86.99794272	-1.44385416	-64.17702558
0.43	43	0.038	-1.013	0.023	-13.0061466	-12.0894138	2.1199446	86.87189196	-1.47250206	-64.29734676
0.44	44	0.036	-1.011	0.021	-13.8655836	-12.4904844	2.291832	86.73438204	-1.49542038	-64.41766794
0.45	45	0.033	-1.007	0.014	-14.6677248	-12.4904844	2.4064236	86.6026017	-1.5183387	-64.5437187
0.46	46	0.027	-1.004	0.012	-15.1260912	-12.2040054	2.5210152	86.45363262	-1.5469866	-64.66403988
0.47	47	0.025	-1.001	0.007	-15.2979786	-11.8602306	2.8074942	86.30466354	-1.58136408	-64.78436106
0.48	48	0.02	-1.002	0.005	-15.0687954	-11.4018642	2.9793816	86.15569446	-1.61574156	-64.89322308
0.49	49	0.017	-1.002	0.003	-14.896908	-11.0007936	3.2658606	86.00672538	-1.65584862	-65.0020851
0.5	50	0.015	-1.001	0.003	-14.5531332	-10.4851314	3.3804522	85.87494504	-1.68449652	-65.10521754
0.51	51	0.009	-1	0.002	-14.0947668	-9.8548776	3.3804522	85.73170554	-1.72460358	-65.2026204
0.52	52	0.003	-1.001	0.001	-13.5791046	-9.1100322	3.3804522	85.5999252	-1.76471064	-65.29429368
0.53	53	0	-1	-0.002	-13.464513	-8.5370742	3.5523396	85.46814486	-1.8048177	-65.3745078
0.54	54	-0.001	-1.001	-0.003	-13.5791046	-8.1932994	3.8961144	85.33063494	-1.85065434	-65.45472192
0.55	55	-0.002	-1.008	-0.004	-14.2093584	-7.6203414	4.4690724	85.20458418	-1.8907614	-65.52920646
0.56	56	0	-1.015	-0.008	-15.2979786	-7.3911582	4.8128472	85.04988552	-1.94232762	-65.59796142
0.57	57	0.001	-1.017	-0.013	-16.1574156	-7.7922288	5.156622	84.88945728	-1.99962342	-65.67244596
0.58	58	0.002	-1.016	-0.025	-17.761698	-8.1360036	5.2139178	84.7118403	-2.0626488	-65.75266008
0.59	59	0.001	-1.011	-0.045	-20.1681216	-8.59437	5.3858052	84.511305	-2.1199446	-65.8328742
0.6	60	-0.004	-1.004	-0.065	-21.8869956	-9.5683986	5.3285094	84.29931054	-2.1772404	-65.92454748
0.61	61	-0.011	-0.984	-0.082	-22.4599536	-11.1153852	5.0420304	84.07585692	-2.24026578	-66.0334095
0.62	62	-0.017	-0.959	-0.082	-21.0275586	-13.5218088	4.583664	83.86959204	-2.29756158	-66.16518984
0.63	63	-0.032	-0.947	-0.066	-19.6524594	-16.8449652	3.2658606	83.67478632	-2.34339822	-66.33134766
0.64	64	-0.048	-0.942	-0.061	-20.6837838	-20.1108258	1.3178034	83.4799806	-2.3777757	-66.53188296
0.65	65	-0.055	-0.933	-0.075	-22.631841	-22.345362	-1.432395	83.26225656	-2.38350528	-66.75533658
0.66	66	-0.052	-0.915	-0.084	-23.2620948	-24.4080108	-4.8128472	83.03880294	-2.36058696	-67.00170852
0.67	67	-0.047	-0.899	-0.07	-21.6578124	-26.6998428	-8.1932994	82.83253806	-2.30902074	-67.27672836
0.68	68	-0.04	-0.917	-0.042	-20.1108258	-28.7051958	-10.8289062	82.64346192	-2.22880662	-67.57466652
0.69	69	-0.035	-0.972	-0.009	-19.8243468	-30.366774	-11.745639	82.46011536	-2.1485925	-67.88979342
0.7	70	-0.017	-1.041	0.026	-20.4546006	-30.9970278	-11.0580894	82.28249838	-2.06837838	-68.2106499
0.71	71	0.003	-1.084	0.041	-19.5951636	-30.8824362	-9.5111028	82.09915182	-2.01108258	-68.53150638
0.72	72	0.002	-1.104	0.053	-17.1314442	-30.3094782	-7.5630456	81.93872358	-1.97097552	-68.8409037
0.73	73	-0.006	-1.094	0.071	-14.9542038	-29.7365202	-5.8441716	81.80121366	-1.9480572	-69.14457144
0.74	74	-0.018	-1.073	0.083	-13.1207382	-28.8197874	-4.2398892	81.68089248	-1.94232762	-69.43678002
0.75	75	-0.031	-1.059	0.079	-12.318597	-27.7311672	-2.8074942	81.59494878	-1.9480572	-69.70607028
0.76	76	-0.045	-1.05	0.068	-11.5737516	-27.1582092	-1.432395	81.49181634	-1.96524594	-69.98109012
0.77	77	-0.055	-1.06	0.072	-11.5164558	-26.6998428	0	81.3886839	-1.99962342	-70.2446508
0.78	78	-0.052	-1.08	0.076	-12.7769634	-25.78311	1.432395	81.26836272	-2.04546006	-70.49675232
0.79	79	-0.043	-1.092	0.071	-14.2666542	-24.4080108	3.6096354	81.13658238	-2.11421502	-70.7316651
0.8	80	-0.043	-1.074	0.056	-14.4385416	-23.491278	4.9847346	81.02772036	-2.19442914	-70.94938914
0.81	81	-0.047	-1.045	0.033	-13.464513	-23.491278	5.5576926	80.9016696	-2.28037284	-71.17284276
0.82	82	-0.049	-1.014	0.017	-11.9748222	-23.7204612	5.6722842	80.79280758	-2.36631654	-71.40202596
0.83	83	-0.046	-0.984	0.02	-10.5424272	-23.2620948	5.6149884	80.69540472	-2.45798982	-71.61975
0.84	84	-0.054	-0.96	0.029	-9.2246238	-22.1161788	5.443101	80.6151906	-2.53820394	-71.83174446
0.85	85	-0.055	-0.948	0.03	-8.880849	-20.5118964	5.2712136	80.56362438	-2.62414764	-72.0208206
0.86	86	-0.059	-0.941	0.015	-8.8235532	-19.194093	5.6149884	80.48913984	-2.70436176	-72.19843758
0.87	87	-0.06	-0.931	-0.004	-6.7036086	-18.5638392	5.6149884	80.43184404	-2.79030546	-72.37032498
0.88	88	-0.057	-0.921	-0.005	-2.291832	-19.2513888	5.5576926	80.42038488	-2.87051958	-72.55367154
0.89	89	-0.051	-0.917	0.012	2.86479	-19.9389384	5.6149884	80.46049194	-2.9507337	-72.7370181
0.9	90	-0.05	-0.928	0.065	6.0733548	-19.5951636	5.6149884	80.58081312	-3.0366774	-72.91463508
0.91	91	-0.05	-0.948	0.108	4.010706	-17.3033316	5.3858052	80.63237934	-3.11116194	-73.07506332
0.92	92	-0.054	-0.947	0.093	1.5469866	-15.5271618	4.7555514	80.65529766	-3.1799169	-73.2240324
0.93	93	-0.058	-0.935	0.091	1.145916	-15.1260912	4.0680018	80.67821598	-3.2372127	-73.36154232
0.94	94	-0.055	-0.935	0.104	0.7448454	-14.2666542	3.2658606	80.69540472	-3.28877892	-73.49905224
0.95	95	-0.038	-0.935	0.105	-0.4010706	-13.178034	2.6929026	80.787078	-3.32888598	-73.61364384
0.96	96	-0.031	-0.937	0.103	-0.3437748	-12.6623718	2.4637194	80.79280758	-3.36899304	-73.73396502
0.97	97	-0.034	-0.937	0.109	0.9167328	-11.9175264	2.291832	80.80999632	-3.4091001	-73.84855662
0.98	98	-0.041	-0.937	0.111	2.6929026	-10.8289062	1.718874	80.8443738	-3.44347758	-73.95168906
0.99	99	-0.055	-0.95	0.122	4.1252976	-9.3392154	1.2032118	80.89594002	-3.4663959	-74.04336234
1	100	-0.07	-0.975	0.135	4.1825934	-7.5630456	0.9167328	81.09647532	-3.4950438	-74.09492856
1.01	101	-0.076	-1.003	0.15	3.3231564	-5.5576926	1.4896908	81.13658238	-3.51796212	-74.14649478
1.02	102	-0.081	-1.026	0.151	2.86479	-3.6669312	2.1772404	81.16523028	-3.54661002	-74.18087226
1.03	103	-0.094	-1.057	0.157	3.151269	-1.145916	3.724227	81.19960776	-3.5809875	-74.18660184
1.04	104	-0.107	-1.087	0.152	3.7815228	2.86479	5.5003968	81.23398524	-3.63255372	-74.14649478
1.05	105	-0.13	-1.104	0.131	4.9274388	7.6203414	7.2192708	81.3313881	-3.71276784	-74.0548215
1.06	106	-0.153	-1.103	0.103	6.4171296	12.7196676	8.7089616	81.3886839	-3.7815228	-73.91731158
1.07	107	-0.175	-1.084	0.13	10.5424272	16.329303	10.0840608	81.48035718	-3.85600734	-73.7396946
1.08	108	-0.189	-1.081	0.196	13.5791046	19.5951636	10.8289062	81.60067836	-3.94195104	-73.52770014
1.09	109	-0.203	-1.106	0.243	13.2926256	23.6631654	10.0840608	81.71526996	-4.010706	-73.2813282
1.1	110	-0.203	-1.152	0.258	12.4331886	27.3300966	8.3651868	81.85277988	-4.07373138	-72.9948492
1.11	111	-0.191	-1.195	0.254	12.4331886	30.1948866	6.589017	81.95018274	-4.10237928	-72.68545188
1.12	112	-0.169	-1.208	0.238	12.891555	32.7731976	6.2452422	82.05331518	-4.1252976	-72.35313624
1.13	113	-0.152	-1.196	0.207	13.9228794	34.2055926	6.7036086	82.16790678	-4.1539455	-72.00363186
1.14	114	-0.121	-1.231	0.171	12.6623718	34.6066632	7.5630456	82.26530964	-4.18832298	-71.65412748
1.15	115	-0.052	-1.307	0.124	8.4224826	31.226211	11.3445684	82.3340646	-4.26280752	-71.32754142
1.16	116	-0.011	-1.436	0.045	2.9220858	21.6578124	17.9908812	82.33979418	-4.41750618	-71.09262864
1.17	117	0.002	-1.466	-0.031	2.3491278	11.6310474	22.4599536	82.35125334	-4.62950064	-70.94365956
1.18	118	-0.066	-1.315	-0.08	11.5737516	10.9434978	20.9702628	82.46011536	-4.82430636	-70.81187922
1.19	119	-0.136	-1.21	-0.085	17.7044022	14.610429	13.178034	82.62627318	-4.93889796	-70.6457214
1.2	120	-0.122	-1.153	-0.116	16.3865988	21.8869956	8.5370742	82.7637831	-4.99619376	-70.4165382
1.21	121	-0.105	-1.08	-0.168	18.621135	29.2781538	6.1879464	82.92421134	-5.03057124	-70.11860004
1.22	122	-0.115	-0.995	-0.193	20.626488	32.7159018	3.2658606	83.10182832	-5.03057124	-69.7862844
1.23	123	-0.144	-0.932	-0.228	21.1421502	37.0130868	-0.1145916	83.2794453	-4.99619376	-69.41959128
1.24	124	-0.169	-0.889	-0.204	21.8296998	38.8465524	-2.6929026	83.46279186	-4.93316838	-69.03570942
1.25	125	-0.153	-0.854	-0.159	19.8243468	40.2216516	-3.6669312	83.61749052	-4.86441342	-68.6403684
1.26	126	-0.074	-0.807	-0.192	13.6936962	44.5761324	-2.9793816	83.71489338	-4.79565846	-68.20492032
1.27	127	0.01	-0.752	-0.229	8.9381448	49.274388	-1.2605076	83.75500044	-4.74409224	-67.71790602
1.28	128	0.047	-0.704	-0.227	5.156622	49.274388	0.8021412	83.76073002	-4.70971476	-67.22516214
1.29	129	0.031	-0.698	-0.218	1.145916	44.6334282	4.010706	83.73208212	-4.71544434	-66.7782549
1.3	130	0.003	-0.754	-0.201	-2.5210152	38.5027776	7.1046792	83.651868	-4.74409224	-66.39437304
1.31	131	-0.001	-0.868	-0.176	-5.3285094	33.6899304	8.7089616	83.5659243	-4.80711762	-66.05059824
1.32	132	0.013	-0.98	-0.183	-8.9954406	31.9137606	9.0527364	83.44560312	-4.870143	-65.72974176
1.33	133	0.034	-1.04	-0.193	-10.2559482	30.7105488	8.3651868	83.3080932	-4.9274388	-65.41461486
1.34	134	0.031	-1.031	-0.181	-7.9641162	27.7311672	6.3598338	83.19923118	-4.96754586	-65.13386544
1.35	135	0.021	-0.996	-0.162	-3.6096354	24.4653066	2.4064236	83.11901706	-4.93889796	-64.89895266
1.36	136	0.011	-0.96	-0.14	2.9793816	20.8556712	-2.6929026	83.13047622	-4.89306132	-64.69268778
1.37	137	0.013	-0.934	-0.114	8.880849	17.7044022	-7.161975	83.20496076	-4.80138804	-64.52652996
1.38	138	0.019	-0.924	-0.09	12.4331886	14.4385416	-10.7716104	83.31382278	-4.68106686	-64.39474962
1.39	139	0.021	-0.926	-0.068	13.6364004	11.172681	-13.0061466	83.44560312	-4.54355694	-64.29734676
1.4	140	0.029	-0.939	-0.045	13.5218088	8.307891	-13.8082878	83.58311304	-4.37739912	-64.2285918
1.41	141	0.017	-0.967	-0.023	10.7143146	6.0733548	-13.5218088	83.68624548	-4.2398892	-64.18275516
1.42	142	0.004	-1.001	-0.013	6.1879464	5.3858052	-12.4904844	83.74927086	-4.10810886	-64.1426481
1.43	143	0.008	-1.018	-0.007	0.859437	5.6149884	-10.2559482	83.75500044	-4.00497642	-64.09681146
1.44	144	0.023	-1.027	-0.009	-5.0420304	5.9014674	-7.448454	83.69770464	-3.9247623	-64.04524524
1.45	145	0.038	-1.014	-0.016	-8.7089616	5.72958	-6.0733548	83.6232201	-3.82735944	-63.9994086
1.46	146	0.046	-0.989	-0.026	-10.5424272	4.5263682	-6.1306506	83.51435808	-3.75860448	-63.96503112
1.47	147	0.047	-0.961	-0.029	-10.599723	2.4064236	-6.875496	83.40549606	-3.68984952	-63.94784238
1.48	148	0.043	-0.932	-0.026	-9.7975818	-0.3437748	-7.5630456	83.3080932	-3.62109456	-63.96503112
1.49	149	0.036	-0.905	-0.014	-8.3651868	-3.437748	-8.1932994	83.2221495	-3.54088044	-64.00513818
1.5	150	0.02	-0.882	0.002	-6.875496	-6.0733548	-9.0527364	83.18204244	-3.44347758	-64.07962272
1.51	151	0.006	-0.87	0.014	-5.9587632	-8.59437	-9.5111028	83.12474664	-3.35753388	-64.17702558
1.52	152	0.005	-0.873	0.022	-5.6722842	-10.5424272	-9.5683986	83.07318042	-3.27159018	-64.29161718
1.53	153	0.021	-0.881	0.03	-5.156622	-11.5164558	-9.2246238	83.03307336	-3.19137606	-64.41766794
1.54	154	0.027	-0.888	0.041	-5.2139178	-12.4331886	-8.307891	82.98723672	-3.1226211	-64.54944828
1.55	155	0.029	-0.901	0.049	-5.6149884	-12.6623718	-7.161975	82.97004798	-3.04813656	-64.68122862
1.56	156	0.016	-0.914	0.057	-6.2452422	-12.3758928	-5.6149884	82.91848176	-3.00229992	-64.81300896
1.57	157	0.016	-0.917	0.068	-6.875496	-11.745639	-4.1252976	82.85545638	-2.97365202	-64.93333014
1.58	158	0.013	-0.908	0.073	-7.9068204	-11.172681	-2.6356068	82.78097184	-2.95646328	-65.04792174
1.59	159	0.021	-0.912	0.075	-7.9068204	-11.0580894	-1.3750992	82.7064873	-2.95646328	-65.16251334
1.6	160	0.044	-0.926	0.078	-7.2192708	-11.4018642	0.1718874	82.70075772	-2.93927454	-65.27137536
1.61	161	0.057	-0.937	0.08	-5.5576926	-12.2613012	1.8907614	82.6491915	-2.97365202	-65.39169654
1.62	162	0.063	-0.937	0.089	-2.6356068	-13.9801752	3.6096354	82.63200276	-3.01948866	-65.52347688
1.63	163	0.066	-0.938	0.103	0.286479	-16.615782	5.2139178	82.6491915	-3.08824362	-65.68390512
1.64	164	0.076	-0.947	0.117	2.6356068	-19.5951636	6.4744254	82.68356898	-3.17418732	-65.86725168
1.65	165	0.085	-0.966	0.127	4.1252976	-23.1475032	7.2765666	82.78670142	-3.24294228	-66.08497572
1.66	166	0.092	-1	0.135	5.156622	-28.074942	7.9068204	82.86118596	-3.34607472	-66.35426598
1.67	167	0.099	-1.039	0.153	6.2452422	-33.804522	7.7922288	82.94712966	-3.45493674	-66.67512246
1.68	168	0.107	-1.088	0.172	7.0473834	-38.6173692	6.4744254	83.04453252	-3.5523396	-67.04754516
1.69	169	0.104	-1.135	0.184	7.2765666	-41.3102718	4.0680018	83.15339454	-3.63255372	-67.45434534
1.7	170	0.088	-1.176	0.193	8.4224826	-41.0237928	1.0313244	83.29090446	-3.6669312	-67.85541594
1.71	171	0.049	-1.194	0.209	11.1153852	-38.1590028	-1.6615782	83.43414396	-3.67839036	-68.23356822
1.72	172	0.005	-1.181	0.243	14.1520626	-35.0650296	-4.297185	83.60603136	-3.6669312	-68.5830726
1.73	173	-0.017	-1.157	0.286	15.8136408	-30.3094782	-7.6203414	83.78937792	-3.61536498	-68.88674034
1.74	174	-0.02	-1.163	0.334	16.4438946	-23.0329116	-11.45916	83.97272448	-3.51796212	-69.1273827
1.75	175	-0.01	-1.168	0.363	15.2406828	-16.1574156	-13.6936962	84.18471894	-3.38618178	-69.29354052
1.76	176	0.04	-1.153	0.337	13.4072172	-11.45916	-13.464513	84.32795844	-3.26013102	-69.41959128
1.77	177	-0.042	-1.209	0.132	13.8082878	-17.6471064	-16.1001198	84.4826571	-3.11116194	-69.60866742
1.78	178	-0.026	-1.465	0.241	24.637194	2.1199446	-27.5592798	84.73475862	-2.8361421	-69.60866742
1.79	179	0.051	-1.314	-0.188	20.2254174	19.6524594	-33.7472262	84.92956434	-2.48663772	-69.4425096
1.8	180	0.014	-1.244	-0.038	49.847346	10.313244	-34.1482968	85.4280378	-2.13713334	-69.36229548
1.81	181	-0.068	-1.322	-0.168	49.7327544	6.1306506	-37.0703826	85.93224084	-1.76471064	-69.32218842
1.82	182	-0.155	-1.379	-0.405	41.6540466	5.0993262	-38.0444112	86.35050018	-1.38082878	-69.29354052
1.83	183	-0.341	-1.515	-0.399	39.0184398	0.5156622	-42.1697088	86.7458412	-0.95683986	-69.30499968
1.84	184	-0.434	-1.53	-0.45	19.6524594	4.4117766	-48.1857678	86.9463765	-0.47555514	-69.28781094
1.85	185	-0.328	-1.271	-0.519	18.5065434	-4.1252976	-45.6647526	87.11253432	-0.03437748	-69.35083632
1.86	186	-0.028	-1.059	-0.501	14.5531332	-6.2452422	-38.7892566	87.2615034	0.3437748	-69.42532086
1.87	187	0.224	-0.879	-0.456	11.2299768	-5.0420304	-31.5699858	87.376095	0.6589017	-69.48834624
1.88	188	0.362	-0.805	-0.346	5.443101	-6.4744254	-23.7204612	87.4333908	0.89381448	-69.56283078
1.89	189	0.386	-0.836	-0.257	-3.4950438	-7.6203414	-16.5011904	87.39328374	1.05424272	-69.6430449
1.9	190	0.316	-0.915	-0.19	-11.0580894	-10.7716104	-7.448454	87.23858508	1.19748222	-69.77482524
1.91	191	0.212	-0.983	-0.157	-15.469866	-15.5844576	3.5523396	87.07815684	1.15737516	-69.9295239
1.92	192	0.112	-1.019	-0.148	-16.042824	-18.4492476	11.8602306	86.9177286	1.0313244	-70.10714088
1.93	193	0.021	-1.029	-0.141	-13.464513	-17.9335854	16.7303736	86.78021868	0.859437	-70.27902828
1.94	194	-0.052	-1.018	-0.144	-10.4851314	-15.469866	19.0795014	86.67135666	0.66463128	-70.42226778
1.95	195	-0.087	-0.971	-0.15	-7.6776372	-13.1207382	19.9962342	86.5739538	0.44690724	-70.54258896
1.96	196	-0.105	-0.91	-0.131	-5.5576926	-11.745639	19.5378678	86.516658	0.24637194	-70.6457214
1.97	197	-0.126	-0.865	-0.108	-6.016059	-11.5737516	19.1367972	86.4593622	0.05156622	-70.74885384
1.98	198	-0.146	-0.842	-0.079	-8.8235532	-11.2299768	19.0222056	86.3734185	-0.13750992	-70.85198628
1.99	199	-0.171	-0.841	-0.061	-13.3499214	-8.9954406	18.1627686	86.23590858	-0.32085648	-70.9322004
2	200	-0.184	-0.855	-0.059	-18.048177	-5.6149884	17.3033316	86.05256202	-0.52139178	-70.97230746
2.01	201	-0.164	-0.878	-0.059	-20.05353	-1.9480572	16.3865988	85.85202672	-0.6875496	-70.98376662
2.02	202	-0.114	-0.904	-0.054	-19.8243468	0.4010706	15.8709366	85.65149142	-0.84797784	-70.97230746
2.03	203	-0.063	-0.911	-0.043	-18.2773602	1.8907614	15.756345	85.46241528	-1.0026765	-70.94365956
2.04	204	-0.017	-0.907	-0.023	-16.329303	2.6356068	15.8136408	85.29625746	-1.16310474	-70.90928208
2.05	205	0.023	-0.902	-0.004	-14.6677248	3.0366774	16.1001198	85.15874754	-1.30634424	-70.86344544
2.06	206	0.05	-0.89	0.007	-13.6936962	2.5210152	16.6730778	85.01550804	-1.47250206	-70.82906796
2.07	207	0.051	-0.876	0.006	-13.0061466	0.572958	16.5011904	84.8837277	-1.63865988	-70.81187922
2.08	208	0.041	-0.865	0.007	-12.2613012	-2.005353	15.3552744	84.76340652	-1.79335854	-70.8176088
2.09	209	0.031	-0.861	0.016	-11.2872726	-4.6409598	13.178034	84.64881492	-1.92513888	-70.85198628
2.1	210	0.015	-0.869	0.027	-10.5424272	-7.0473834	10.599723	84.56287122	-2.02827132	-70.91501166
2.11	211	-0.007	-0.881	0.03	-9.7975818	-9.0527364	8.5370742	84.47119794	-2.1199446	-70.99522578
2.12	212	-0.036	-0.889	0.025	-8.59437	-10.5424272	7.2192708	84.38525424	-2.20015872	-71.09262864
2.13	213	-0.057	-0.884	0.036	-6.4744254	-10.9434978	6.6463128	84.32795844	-2.27464326	-71.19576108
2.14	214	-0.079	-0.872	0.053	-4.9847346	-10.313244	6.1306506	84.2821218	-2.34339822	-71.29316394
2.15	215	-0.089	-0.864	0.069	-4.6409598	-9.740286	5.3858052	84.2821218	-2.41788276	-71.37910764
2.16	216	-0.089	-0.856	0.085	-5.6149884	-8.8235532	4.1252976	84.23055558	-2.46944898	-71.46505134
2.17	217	-0.081	-0.855	0.087	-7.2192708	-7.9068204	2.6929026	84.16180062	-2.49809688	-71.53953588
2.18	218	-0.082	-0.863	0.082	-8.7662574	-7.3911582	1.3178034	84.07585692	-2.5210152	-71.61402042
2.19	219	-0.082	-0.878	0.076	-9.6256944	-7.2192708	0.286479	83.97845406	-2.53247436	-71.68277538
2.2	220	-0.083	-0.894	0.071	-9.6256944	-6.9900876	-0.4010706	83.94407658	-2.5496631	-71.74580076
2.21	221	-0.085	-0.9	0.08	-8.0787078	-6.1879464	-1.145916	83.86386246	-2.54393352	-71.80882614
2.22	222	-0.094	-0.897	0.098	-6.1306506	-4.7555514	-2.4637194	83.80656666	-2.52674478	-71.86039236
2.23	223	-0.107	-0.897	0.113	-3.7815228	-2.3491278	-4.4690724	83.7664596	-2.48090814	-71.88904026
2.24	224	-0.125	-0.912	0.128	-1.432395	0.5156622	-6.7036086	83.75500044	-2.41215318	-71.89476984
2.25	225	-0.142	-0.933	0.142	-0.1718874	3.7815228	-8.880849	83.86386246	-2.38350528	-71.8489332
2.26	226	-0.159	-0.951	0.139	0	8.1360036	-10.2559482	83.85813288	-2.27464326	-71.77444866
2.27	227	-0.189	-0.958	0.136	0.572958	12.8342592	-11.0580894	83.85813288	-2.15432208	-71.65985706
2.28	228	-0.211	-0.965	0.138	1.3750992	18.3919518	-11.5164558	83.86386246	-2.02827132	-71.49369924
2.29	229	-0.213	-0.977	0.131	2.1772404	24.350715	-11.0007936	83.87532162	-1.89649098	-71.26451604
2.3	230	-0.184	-0.992	0.143	3.0939732	29.3927454	-9.6256944	83.938347	-1.8048177	-70.97230746
2.31	231	-0.15	-1.011	0.164	3.724227	33.4034514	-7.448454	83.96126532	-1.70741484	-70.65145098
2.32	232	-0.107	-1.042	0.188	3.151269	36.2682414	-5.6149884	83.97845406	-1.62147114	-70.3019466
2.33	233	-0.043	-1.066	0.217	3.3231564	37.815228	-4.870143	83.9956428	-1.5469866	-69.9295239
2.34	234	0.015	-1.074	0.261	6.1879464	37.4714532	-4.583664	84.04720902	-1.47250206	-69.56283078
2.35	235	0.049	-1.088	0.303	10.5424272	35.6952834	-4.4117766	84.18471894	-1.39228794	-69.2133264
2.36	236	0.047	-1.127	0.334	13.1207382	31.2835068	-3.2085648	84.30504012	-1.33499214	-68.90392908
2.37	237	0.024	-1.171	0.349	13.178034	23.9496444	-1.0313244	84.43109088	-1.30634424	-68.6690163
2.38	238	0.001	-1.213	0.381	11.745639	15.3552744	0.6302538	84.54568248	-1.30061466	-68.51431764
2.39	239	-0.016	-1.266	0.387	5.5576926	1.2032118	1.9480572	84.60297828	-1.3178034	-68.50285848
2.4	240	-0.034	-1.364	0.317	-4.4690724	-16.2720072	3.0939732	84.58005996	-1.36364004	-68.65755714
2.41	241	-0.021	-1.481	0.182	-12.032118	-22.345362	3.6669312	84.46546836	-1.41520626	-68.87528118
2.42	242	0.023	-1.594	0.024	-12.2040054	-21.4286292	5.2139178	84.35087676	-1.48396122	-69.08154606
2.43	243	0.084	-1.648	-0.147	-0.572958	-16.329303	9.2819196	84.35087676	-1.58709366	-69.23624472
2.44	244	0.12	-1.653	-0.253	6.6463128	-13.6936962	15.756345	84.4253613	-1.75325148	-69.3565659
2.45	245	0.066	-1.584	-0.482	0.0572958	-17.8189938	19.9389384	84.4253613	-1.95951636	-69.51126456
2.46	246	0.04	-1.44	-0.751	-1.2605076	-18.4492476	20.912967	84.41963172	-2.1772404	-69.67742238
2.47	247	0.011	-1.307	-0.851	0	-26.5279554	22.0015872	84.43109088	-2.41215318	-69.91806474
2.48	248	-0.021	-1.16	-0.895	-0.7448454	-34.5493674	22.2307704	84.44255004	-2.65852512	-70.23892122
2.49	249	-0.099	-1.06	-0.857	-0.572958	-37.7579322	20.5691922	84.45973878	-2.88770832	-70.59415518
2.5	250	-0.211	-1.004	-0.768	2.1199446	-35.236917	15.4125702	84.4540092	-3.07678446	-70.9322004
2.51	251	-0.329	-0.958	-0.676	4.583664	-28.2468294	10.026765	84.52276416	-3.19710564	-71.20149066
2.52	252	-0.44	-0.921	-0.542	7.9641162	-24.350715	5.3858052	84.62016702	-3.2658606	-71.43640344
2.53	253	-0.492	-0.915	-0.413	8.1360036	-19.5951636	0.2291832	84.7118403	-3.27731976	-71.62547958
2.54	254	-0.416	-0.943	-0.306	3.8388186	-14.037471	-5.3858052	84.76340652	-3.23148312	-71.76871908
2.55	255	-0.276	-0.986	-0.253	-0.6875496	-12.0894138	-12.1467096	84.72329946	-3.15699858	-71.90049942
2.56	256	-0.119	-1.021	-0.224	-3.7815228	-11.6883432	-19.4232762	84.69465156	-2.97365202	-72.03227976
2.57	257	0.009	-1.035	-0.195	-3.8388186	-11.5737516	-25.0382646	84.66027408	-2.73300966	-72.16978968
2.58	258	0.098	-1.026	-0.148	-2.9220858	-13.2353298	-27.9030546	84.63735576	-2.4637194	-72.32448834
2.59	259	0.126	-1.001	-0.114	-3.724227	-13.9228794	-29.2781538	84.60870786	-2.18296998	-72.49064616
2.6	260	0.105	-0.952	-0.101	-5.3858052	-12.605076	-29.6219286	84.55141206	-1.87930224	-72.64534482
2.61	261	0.081	-0.889	-0.092	-5.2712136	-12.318597	-28.6479	84.50557542	-1.6042824	-72.7943139
2.62	262	0.074	-0.827	-0.062	-5.9014674	-13.3499214	-27.7311672	84.44827962	-1.34072172	-72.95474214
2.63	263	0.082	-0.772	-0.048	-6.3598338	-15.2406828	-27.6165756	84.39098382	-1.07716104	-73.13235912
2.64	264	0.094	-0.748	-0.034	-7.3338624	-17.8762896	-28.361421	84.32222886	-0.80787078	-73.33289442
2.65	265	0.103	-0.768	-0.03	-8.880849	-20.05353	-29.220858	84.23628516	-0.52139178	-73.56207762
2.66	266	0.104	-0.812	-0.022	-9.9694692	-22.4026578	-30.3094782	84.1388823	-0.24064236	-73.81417914
2.67	267	0.102	-0.87	-0.019	-11.2872726	-24.4080108	-31.6845774	84.03002028	0.04583664	-74.08919898
2.68	268	0.086	-0.906	-0.01	-11.5164558	-25.3820394	-32.6013102	83.91542868	0.34950438	-74.37567798
2.69	269	0.072	-0.931	0	-12.032118	-25.8404058	-32.6013102	83.78937792	0.65317212	-74.66215698
2.7	270	0.058	-0.937	-0.023	-13.2353298	-25.210152	-31.4553942	83.66332716	0.9453807	-74.94863598
2.71	271	0.05	-0.93	-0.064	-14.610429	-23.0329116	-30.0229992	83.5086285	1.22040054	-75.20646708
2.72	272	0.055	-0.919	-0.099	-14.4958374	-18.2200644	-29.2781538	83.35965942	1.49542038	-75.41846154
2.73	273	0.089	-0.89	-0.118	-13.5218088	-13.3499214	-29.1062664	83.21641992	1.77044022	-75.59034894
2.74	274	0.138	-0.874	-0.114	-11.172681	-9.2819196	-28.7624916	83.10182832	2.03973048	-75.7163997
2.75	275	0.166	-0.878	-0.095	-9.3965112	-6.875496	-27.3300966	82.99869588	2.33193906	-75.81953214
2.76	276	0.169	-0.894	-0.095	-7.9068204	-5.9587632	-24.350715	82.91848176	2.56685184	-75.90547584
2.77	277	0.159	-0.91	-0.113	-6.1879464	-6.2452422	-20.2827132	82.8497268	2.76165756	-75.99141954
2.78	278	0.165	-0.899	-0.108	-3.8961144	-7.9641162	-15.5844576	82.80389016	2.90489706	-76.09455198
2.79	279	0.194	-0.877	-0.085	-0.7448454	-12.1467096	-10.9434978	82.792431	3.00229992	-76.22633232
2.8	280	0.241	-0.868	-0.019	2.6356068	-19.5378678	-7.3338624	82.83253806	3.10543236	-76.42686762
2.81	281	0.278	-0.9	0.047	3.7815228	-30.0229992	-4.010706	82.86118596	3.11689152	-76.73053536
2.82	282	0.283	-0.96	0.045	1.718874	-40.2789474	-0.8021412	82.86118596	3.08251404	-77.12587638
2.83	283	0.255	-1.008	0.024	1.6615782	-48.3003594	0.9740286	82.86118596	3.03094782	-77.60143152
2.84	284	0.227	-1.029	0.044	3.8961144	-54.717489	1.3750992	82.8783747	2.96219286	-78.14001204
2.85	285	0.197	-1.026	0.076	5.3285094	-58.8427866	0.4583664	82.92994092	2.91635622	-78.71297004
2.86	286	0.168	-1.021	0.106	4.6982556	-61.9367598	-0.0572958	82.95858882	2.85906042	-79.3260351
2.87	287	0.151	-1.025	0.12	1.432395	-63.1972674	1.432395	82.95285924	2.79030546	-79.94482974
2.88	288	0.142	-1.042	0.134	-2.6929026	-63.6556338	4.297185	82.90129302	2.68717302	-80.56935396
2.89	289	0.146	-1.063	0.152	-8.3651868	-65.9474658	7.5630456	82.79816058	2.54393352	-81.21106692
2.9	290	0.137	-1.1	0.144	-18.048177	-72.479187	10.6570188	82.60908444	2.37204612	-81.91007568
2.91	291	0.102	-1.136	0.089	-29.3354496	-77.8076964	11.5164558	82.29395754	2.1772404	-82.66065066
2.92	292	0.066	-1.147	-0.005	-36.6120162	-77.1201468	9.3965112	81.9043461	1.99962342	-83.41122564
2.93	293	0.039	-1.132	-0.094	-36.7839036	-71.2759752	5.443101	81.51473466	1.85638392	-84.1102344
2.94	294	0.04	-1.086	-0.153	-31.9710564	-64.457775	1.6042824	81.18241902	1.75898106	-84.7404882
2.95	295	0.081	-1.008	-0.158	-24.350715	-59.8168152	1.2605076	80.91885834	1.67876694	-85.33063494
2.96	296	0.144	-0.919	-0.133	-19.9962342	-61.2492102	4.583664	80.70686388	1.55271618	-85.92651126
2.97	297	0.187	-0.862	-0.084	-18.2773602	-68.0101146	8.9954406	80.51205816	1.36936962	-86.57968338
2.98	298	0.193	-0.844	-0.068	-21.199446	-77.1201468	12.4331886	80.29433412	1.14018642	-87.3187992
2.99	299	0.169	-0.859	-0.071	-25.3247436	-84.9123756	13.2353298	80.03650302	0.8880849	-88.12666998
3	300	0.126	-0.895	-0.092	-28.8770832	-88.235532	11.45916	79.74429444	0.64744254	-88.97464782
3.01	301	0.077	-0.925	-0.126	-30.8251404	-85.1988546	7.9641162	79.43489712	0.43544808	-89.79397776
3.02	302	0.041	-0.922	-0.109	-30.8251404	-81.4746276	5.3858052	79.1254998	0.25210152	-90.5846598
3.03	303	0.035	-0.904	-0.087	-32.085648	-80.500599	6.3598338	78.8103729	0.0572958	-91.36388268
3.04	304	0.072	-0.891	-0.049	-34.3201842	-85.1415588	10.886202	78.47232768	-0.18907614	-92.17175346
3.05	305	0.122	-0.895	0.001	-36.1536498	-95.3402112	16.2147114	78.13428246	-0.50420304	-93.07129752
3.06	306	0.165	-0.919	-0.006	-39.9351726	-104.278356	20.2254174	77.75613018	-0.89381448	-94.04532612
3.07	307	0.213	-0.927	-0.015	-42.2843004	-110.9246688	22.0015872	77.36078916	-1.3178034	-95.0823801
3.08	308	0.242	-0.902	0.002	-42.7999626	-117.2272068	22.4599536	76.97117772	-1.77044022	-96.17672988
3.09	309	0.252	-0.862	0.042	-43.4302164	-124.1599986	22.9756158	76.58729586	-2.24026578	-97.32837546
3.1	310	0.254	-0.819	0.073	-45.7220484	-132.8116644	23.491278	76.20914358	-2.73300966	-98.56596474
3.11	311	0.277	-0.804	0.062	-50.7640788	-145.531332	24.8090814	75.78515466	-3.28877892	-99.91814562
3.12	312	0.288	-0.792	0.07	-52.3683612	-156.990492	26.929026	75.36689532	-3.8961144	-101.3734589
3.13	313	0.3	-0.758	0.092	-51.0505578	-168.3350604	28.5333084	74.98874304	-4.56074568	-102.9319047
3.14	314	0.33	-0.715	0.11	-50.0765292	-178.476417	29.4500412	74.64496824	-5.25975444	-104.5820237
3.15	315	0.341	-0.674	0.106	-48.8160216	-190.508535	31.3980984	74.35848924	-6.00459984	-106.3352752
3.16	316	0.355	-0.633	0.134	-45.6074568	-201.967695	34.5493674	74.12930604	-6.82965936	-108.1973887
3.17	317	0.352	-0.588	0.146	-41.9405256	-210.2182902	39.0184398	73.97460738	-7.72347384	-110.1225276
3.18	318	0.321	-0.536	0.13	-38.101707	-215.9478702	43.4302164	73.90012284	-8.67458412	-112.0935031
3.19	319	0.299	-0.472	0.097	-33.7472262	-221.3909712	47.4982182	73.911582	-9.6829902	-114.1160449
3.2	320	0.264	-0.397	0.075	-25.8404058	-226.9486638	51.2224452	74.0548215	-10.72004418	-116.1844232
3.21	321	0.247	-0.332	0.063	-16.5584862	-231.0166656	54.717489	74.32984134	-11.80866438	-118.2929087
3.22	322	0.258	-0.258	0.081	-6.6463128	-234.1679346	58.0979412	74.75383026	-12.9202029	-120.4357716
3.23	323	0.239	-0.219	0.082	-1.3178034	-234.339822	60.3897732	75.27522204	-14.037471	-122.5958233
3.24	324	0.143	-0.143	0.047	-1.9480572	-232.1052858	61.879464	75.8309913	-15.14327994	-124.7501453
3.25	325	0.028	-0.021	0.026	4.4690724	-231.761511	59.6449278	76.50135216	-16.20898182	-126.9331153
3.26	326	-0.041	0.052	0.118	9.167328	-231.6469194	54.4883058	77.2633863	-17.19446958	-129.1447332
3.27	327	-0.118	0.086	0.243	4.7555514	-226.7194806	49.5035712	78.01396128	-18.09401364	-131.3506215
3.28	328	-0.25	0.119	0.286	-3.6669312	-218.5261812	47.3263308	78.68432214	-18.93053232	-133.4934844
3.29	329	-0.403	0.127	0.266	-14.7250206	-206.3794716	48.8160216	79.2400914	-19.74413268	-135.5332149
3.3	330	-0.558	0.146	0.166	-24.8663772	-183.1746726	54.2018268	79.63543242	-20.58638094	-137.3380326
3.31	331	-0.632	0.163	0.068	-27.6165756	-154.5840684	61.7648724	79.91618184	-21.42289962	-138.8449121
3.32	332	-0.609	0.151	-0.022	-28.5333084	-129.6603954	69.1560306	80.11098756	-22.2880662	-140.088231
3.33	333	-0.519	0.111	-0.059	-29.7365202	-113.9040504	72.2500038	80.2427679	-23.15896236	-141.1711216
3.34	334	-0.332	0.064	-0.137	-31.51269	-107.429625	72.0208206	80.34590034	-24.01839936	-142.1909869
3.35	335	-0.128	0.049	-0.089	-29.3354496	-104.2210602	69.7289886	80.46622152	-24.86064762	-143.1879338
3.36	336	-0.042	0.073	0.014	-28.8770832	-102.559482	66.5204238	80.60946102	-25.65132966	-144.1848807
3.37	337	-0.079	0.117	0.081	-31.3980984	-103.991877	64.3431834	80.7584301	-26.42482296	-145.2104755
3.38	338	-0.171	0.16	0.07	-33.3461556	-104.6221308	64.171296	80.9016696	-27.19258668	-146.2475295
3.39	339	-0.266	0.194	0.109	-34.1482968	-104.278356	65.7182826	81.05636826	-27.97180956	-147.2903131
3.4	340	-0.333	0.175	0.105	-38.0444112	-101.986524	68.2965936	81.17668944	-28.79686908	-148.3216375
3.41	341	-0.387	0.034	0.143	-44.6334282	-97.5747474	72.7083702	81.21106692	-29.63911734	-149.3013956
3.42	342	-0.356	-0.23	-0.139	-58.3271244	-86.9177286	78.5525418	81.06209784	-30.52147266	-150.1551031
3.43	343	-0.254	-0.62	-0.463	-78.3806544	-76.2607098	91.9024632	80.64956808	-31.52987874	-150.8713006
3.44	344	-0.104	-0.997	-0.884	-99.7519878	-75.6877518	108.4609494	80.00785512	-32.71017222	-151.547391
3.45	345	-0.077	-1.25	-1.328	-110.9819646	-84.9123756	127.3112676	79.29165762	-34.08527142	-152.2807772
3.46	346	-0.099	-1.298	-1.414	-101.0697912	-106.4555964	145.0729656	78.82756164	-35.68382424	-153.2318875
3.47	347	-0.18	-1.1	-1.154	-76.8909636	-126.1653516	150.9171372	78.77026584	-37.37405034	-154.412181
3.48	348	-0.225	-0.852	-0.696	-52.1964738	-146.3334732	152.406828	79.16560686	-39.09865392	-155.8732239
3.49	349	-0.42	-0.564	-0.122	-47.6128098	-165.3556788	165.6994536	79.81877898	-40.97795616	-157.5978275
3.5	350	-0.809	-0.352	0.508	-47.1544434	-175.1532606	184.8935466	80.65529766	-43.04633454	-159.5115072
3.51	351	-1.145	-0.484	0.563	-71.9635248	-173.8354572	190.9669014	81.32565852	-45.1490904	-161.4882123
3.52	352	-1.397	-0.685	0.445	-81.2454444	-162.3762972	185.8102794	81.92153484	-47.17163214	-163.4248103
3.53	353	-1.58	-0.722	0.31	-86.0582916	-156.3029424	192.7430712	82.51741116	-49.2457401	-165.3614084
3.54	354	-1.915	-0.711	0.177	-81.7611066	-149.4274464	220.875309	83.17631286	-51.57194958	-167.2578994
3.55	355	-2.516	-0.963	0.004	-68.8695516	-135.4472712	258.8624244	83.89823994	-54.24766344	-169.0111508
3.56	356	-3.109	-1.352	-0.033	-52.8840234	-108.4036536	292.3231716	84.53422332	-57.22131546	-170.4148979
3.57	357	-3.479	-1.834	0.13	-35.6379876	-70.8176088	307.5638544	84.89518686	-60.30955908	-171.245687
3.58	358	-3.303	-2.214	0.444	-25.3247436	-41.7686382	297.1933146	84.95248266	-63.27748152	-171.5837323
3.59	359	-3.353	-2.239	0.288	-2.6356068	-46.3523022	245.512503	85.47960402	-65.73547134	-172.1910677
3.6	360	-2.978	-1.073	0.228	-24.2934192	-16.8449652	217.3229694	85.24469124	-67.895523	-172.1967973
3.61	361	-2.794	0.713	0.232	-15.2406828	-5.156622	256.6278882	84.6545445	-70.43945652	-171.7269718
3.62	362	-2.926	0.613	0.537	27.1009134	-43.0291458	260.4667068	85.5712773	-73.04068584	-172.391603
3.63	363	-3.088	0.039	0.607	41.539455	-33.2888598	229.6415664	86.62552002	-75.32678826	-173.033316
3.64	364	-2.759	-0.35	0.616	29.6792244	-28.7624916	211.135023	87.6912219	-77.42381454	-173.8125389
3.65	365	-2.295	-0.441	0.675	17.8762896	-28.8770832	219.3856182	89.0090253	-79.60105494	-174.9641845
3.66	366	-1.967	-0.396	0.531	14.4385416	-50.3057124	223.5682116	92.40093666	-81.79548408	-178.2415042
3.67	367	-1.718	-0.221	0.516	0.572958	-76.0888224	222.880662	100.3822416	-83.89823994	173.7323248
3.68	368	-1.675	0.029	0.487	-20.5118964	-90.4700682	220.5315342	117.3016913	-85.67440974	156.5493143
3.69	369	-1.666	0.426	0.356	-36.3255372	-100.0957626	216.6354198	149.7024662	-86.56822422	123.7245505
3.7	370	-1.733	0.793	0.208	-41.825934	-100.8979038	202.8844278	-176.5856556	-86.02391412	89.54760582
3.71	371	-1.682	0.897	0.182	-53.5142772	-94.3661826	178.6483044	-158.4286166	-84.70611072	70.80042006
3.72	372	-1.34	0.788	0.041	-36.8984952	-97.6320432	148.7398968	-150.3670975	-83.19923118	62.3378304
3.73	373	-0.995	0.476	-0.109	-14.32395	-99.694692	119.3471514	-146.9064312	-81.74964744	58.71673584
3.74	374	-0.841	0.264	-0.141	-7.2765666	-96.6580146	94.824549	-145.5084137	-80.4433032	57.24423378
3.75	375	-0.819	0.206	-0.14	0.286479	-91.6159842	79.927641	-144.7750274	-79.26300972	56.51084754
3.76	376	-0.815	0.281	-0.016	9.9694692	-82.0475856	70.5884256	-144.2536357	-78.208767	56.09831778
3.77	377	-0.679	0.379	0.162	18.9649098	-76.6617804	60.6762522	-143.9270496	-77.25765672	55.97226702
3.78	378	-0.62	0.408	0.1	24.2361234	-76.0888224	47.7274014	-143.9958046	-76.38676056	56.31031224
3.79	379	-0.493	0.326	0.054	24.0069402	-73.7396946	34.6066632	-144.4026047	-75.60753768	56.98640268
3.8	380	-0.408	0.277	0.038	17.1314442	-73.7396946	27.5592798	-144.9641036	-74.86269228	57.75989598
3.81	381	-0.462	0.331	0.052	6.6463128	-73.5105114	25.6112226	-145.6803011	-74.12930604	58.59068508
3.82	382	-0.516	0.395	0.092	0	-71.5051584	25.3820394	-146.3678507	-73.41310854	59.31261216
3.83	383	-0.474	0.414	0.108	-4.9274388	-68.182002	27.1009134	-146.9408087	-72.71409978	59.86838142
3.84	384	-0.475	0.384	0.097	-5.9587632	-68.2965936	29.4500412	-147.4163638	-71.99790228	60.31528866
3.85	385	-0.553	0.331	0.12	-6.5317212	-70.4165382	28.9916748	-147.8575415	-71.25305688	60.72781842
3.86	386	-0.663	0.293	0.201	-9.3965112	-71.8489332	23.0902074	-148.5107136	-70.53685938	61.32369474
3.87	387	-0.735	0.307	0.26	-14.6677248	-71.5051584	13.5791046	-149.3873393	-69.8722281	62.1086472
3.88	388	-0.75	0.333	0.261	-14.610429	-70.2446508	6.016059	-150.3670975	-69.24770388	63.00819126
3.89	389	-0.761	0.344	0.223	-14.1520626	-69.9581718	0.3437748	-151.4098811	-68.65182756	63.97649028
3.9	390	-0.784	0.354	0.185	-14.896908	-70.8749046	-6.016059	-152.4870421	-68.0674104	64.99062594
3.91	391	-0.808	0.364	0.213	-18.4492476	-72.5364828	-14.6677248	-153.8220343	-67.50018198	66.23967438
3.92	392	-0.816	0.361	0.256	-21.4286292	-72.5364828	-22.4599536	-155.2830772	-66.9501423	67.60331442
3.93	393	-0.844	0.351	0.29	-22.4026578	-71.2759752	-29.3354496	-156.8243342	-66.4344801	69.041439
3.94	394	-0.878	0.345	0.322	-22.9756158	-69.041439	-36.2109456	-158.4286166	-65.94173622	70.54831854
3.95	395	-0.912	0.34	0.348	-20.9702628	-67.6663398	-43.8885828	-160.0672765	-65.47764024	72.12395304
3.96	396	-0.927	0.333	0.386	-20.7410796	-70.0154676	-50.6494872	-161.8262575	-64.99062594	73.83709746
3.97	397	-0.98	0.29	0.451	-24.923673	-77.8649922	-56.5509546	-163.7284781	-64.42339752	75.67056306
3.98	398	-1.015	0.254	0.529	-33.6326346	-86.4020664	-62.5670136	-165.7968565	-63.7702254	77.6071611
3.99	399	-0.99	0.221	0.543	-32.085648	-86.1155874	-68.8122558	-167.876694	-63.09986454	79.57240704
4	400	-0.99	0.148	0.578	-28.074942	-80.9016696	-72.7083702	-169.8648583	-62.452422	81.5032755
4.01	401	-1.001	0.104	0.669	-29.2781538	-78.1514712	-76.3180056	-171.8415634	-61.81070904	83.41122564
4.02	402	-0.997	0.121	0.764	-30.9970278	-73.338624	-78.6671334	-173.7724318	-61.1919144	85.26187998
4.03	403	-1.008	0.111	0.82	-26.7571386	-65.8328742	-80.3860074	-175.6001678	-60.6189564	87.04950894
4.04	404	-1.029	0.06	0.774	-18.5065434	-54.0872352	-81.646515	-177.2903939	-60.1319421	88.7798421
4.05	405	-1.014	0.007	0.741	-12.2040054	-41.539455	-79.1827956	-178.8144622	-59.74806024	90.40131324
4.06	406	-1.045	-0.071	0.717	-3.3231564	-33.1742682	-73.1667366	179.8916233	-59.42720376	91.86235614
4.07	407	-1.026	-0.14	0.744	4.9847346	-26.6998428	-68.1247062	178.7972735	-59.1579135	93.19734828
4.08	408	-1.022	-0.078	0.769	4.9274388	-27.501984	-56.4936588	177.9206477	-58.8714345	94.28596848
4.09	409	-1.013	0	0.756	10.1986524	-26.5279554	-47.3263308	177.2560165	-58.59068508	95.18551254
4.1	410	-0.962	0.068	0.746	17.761698	-26.9863218	-42.3415962	176.7747317	-58.2984765	95.96473542
4.11	411	-1.044	0.037	0.791	27.6165756	-23.1475032	-48.128472	176.2991766	-58.04637498	96.86427948
4.12	412	-1.014	0.033	0.856	32.0283522	-8.59437	-57.7541664	175.7090299	-57.9260538	97.94144052
4.13	413	-0.89	-0.073	0.81	34.8358464	13.4072172	-69.1560306	174.9527253	-58.00626792	99.24778476
4.14	414	-0.812	-0.174	0.636	33.1169724	30.5386614	-77.8076964	174.0073446	-58.2411807	100.7546643
4.15	415	-0.838	-0.027	0.617	26.642547	34.37748	-65.3745078	173.1880147	-58.50474138	102.0266311
4.16	416	-0.891	0.078	0.643	36.2109456	33.2888598	-54.8320806	172.6093271	-58.77403164	103.13244
4.17	417	-0.887	0.127	0.649	46.5814854	38.0444112	-51.7381074	172.1566903	-59.08342896	104.209601
4.18	418	-0.834	0.039	0.681	50.0765292	43.0291458	-53.571573	171.6811351	-59.43866292	105.3440579
4.19	419	-0.802	0.045	0.596	49.7327544	46.8679644	-48.70143	171.2571462	-59.83400394	106.4097598
4.2	420	-0.75	-0.039	0.542	55.8061092	47.4409224	-45.7220484	170.9248306	-60.22934496	107.4410842
4.21	421	-0.717	-0.135	0.497	56.9520252	42.5707794	-42.2843004	170.6612699	-60.58457892	108.4036536
4.22	422	-0.714	-0.283	0.48	59.587632	36.7266078	-42.0551172	170.4206275	-60.88251708	109.3604935
4.23	423	-0.772	-0.353	0.44	51.56622	33.8618178	-41.7113424	170.1112302	-61.15180734	110.3116037
4.24	424	-0.806	-0.326	0.415	45.7220484	36.2682414	-37.5860448	169.7903737	-61.4497455	111.1996886
4.25	425	-0.828	-0.265	0.405	38.388186	36.8984952	-27.7311672	169.5210835	-61.7648724	111.9330749
4.26	426	-0.84	-0.222	0.408	36.1536498	39.0757356	-18.3919518	169.4294102	-62.11437678	112.4487371
4.27	427	-0.875	-0.199	0.43	33.9764094	38.8465524	-8.5370742	169.486706	-62.4810699	112.763864
4.28	428	-0.914	-0.249	0.459	34.3201842	38.2735944	-4.9847346	169.6184863	-62.8534926	113.0045063
4.29	429	-0.942	-0.333	0.453	32.7731976	37.815228	-4.1252976	169.7445371	-63.22018572	113.22796
4.3	430	-0.947	-0.408	0.43	24.8090814	39.5913978	-3.2658606	169.70443	-63.598338	113.5316277
4.31	431	-0.948	-0.438	0.401	13.5218088	43.3156248	-0.7448454	169.6872413	-64.02232692	113.6977855
4.32	432	-0.943	-0.42	0.388	4.7555514	44.8053156	2.578311	169.6414046	-64.46350458	113.7951884
4.33	433	-0.937	-0.357	0.378	-3.8388186	45.0917946	6.7609044	169.595568	-64.9161414	113.7951884
4.34	434	-0.923	-0.268	0.355	-12.1467096	43.4875122	11.6883432	169.5726497	-65.36304864	113.6805968
4.35	435	-0.909	-0.187	0.338	-16.2147114	40.10706	15.9282324	169.5841088	-65.78703756	113.4800615
4.36	436	-0.904	-0.134	0.328	-16.1001198	37.0703826	18.5638392	169.6987004	-66.18237858	113.1649346
4.37	437	-0.911	-0.107	0.333	-14.6677248	34.663959	20.2827132	169.8877766	-66.55480128	112.7925119
4.38	438	-0.927	-0.089	0.358	-13.0061466	33.231564	21.3713334	170.1284189	-66.91576482	112.3857117
4.39	439	-0.958	-0.067	0.382	-11.1153852	32.2575354	22.5172494	170.4263571	-67.2652692	111.9273453
4.4	440	-0.993	-0.048	0.41	-8.5370742	31.51269	22.5745452	170.7815911	-67.609044	111.4517902
4.41	441	-1.004	-0.032	0.437	-4.9274388	30.4240698	20.626488	171.1310954	-67.94135964	111.0163421
4.42	442	-0.999	-0.017	0.457	-2.8074942	30.4813656	17.9908812	171.4462223	-68.2679457	110.6439194
4.43	443	-0.988	0	0.447	-2.8074942	31.6845774	16.9595568	171.7384309	-68.60026134	110.2886854
4.44	444	-0.97	0.001	0.42	-2.3491278	33.4034514	17.0168526	172.0478282	-68.9554953	109.9277219
4.45	445	-0.952	-0.015	0.394	-1.718874	34.6066632	16.9595568	172.3801439	-69.31072926	109.5552992
4.46	446	-0.932	-0.041	0.368	-2.1199446	35.2942128	16.7303736	172.6952708	-69.68315196	109.1828765
4.47	447	-0.909	-0.038	0.343	-2.2345362	36.382833	16.902261	173.033316	-70.06130424	108.7989946
4.48	448	-0.896	-0.029	0.328	-1.5469866	37.3568616	16.7303736	173.3770908	-70.4451861	108.4093832
4.49	449	-0.897	-0.018	0.316	-0.3437748	38.388186	16.7303736	173.7495135	-70.84052712	108.0083126
4.5	450	-0.914	-0.011	0.307	1.4896908	39.3049188	16.7303736	174.1620433	-71.25305688	107.5785941
4.51	451	-0.93	-0.009	0.303	3.0939732	39.3049188	16.329303	174.5917618	-71.65412748	107.1603347
4.52	452	-0.942	-0.002	0.298	4.297185	38.8465524	15.469866	175.0214803	-72.0494685	106.747805
4.53	453	-0.947	0.006	0.288	5.0993262	37.3568616	14.2093584	175.4454692	-72.43335036	106.352464
4.54	454	-0.946	0.011	0.275	5.9014674	35.523396	12.5477802	175.8408102	-72.7943139	105.9915004
4.55	455	-0.938	0.014	0.261	6.6463128	33.4607472	10.4851314	176.2189625	-73.1380887	105.6649144
4.56	456	-0.932	0.015	0.247	6.8182002	32.085648	8.9381448	176.539819	-73.46467476	105.3956241
4.57	457	-0.929	0.012	0.238	7.5057498	30.8824362	7.7922288	176.8434867	-73.77407208	105.1549817
4.58	458	-0.929	0.009	0.234	8.0787078	29.7365202	6.8182002	177.1299657	-74.07201024	104.9372577
4.59	459	-0.935	0.006	0.229	7.9068204	28.7051958	5.9587632	177.399256	-74.35848924	104.742452
4.6	460	-0.939	0.01	0.224	7.5630456	27.1582092	4.9274388	177.6513575	-74.63923866	104.5533758
4.61	461	-0.945	0.017	0.217	7.2765666	25.6685184	3.3804522	177.834704	-74.89706976	104.4387842
4.62	462	-0.954	0.025	0.217	7.161975	24.1788276	1.718874	177.9607548	-75.13771212	104.3814884
4.63	463	-0.962	0.03	0.218	7.6203414	22.1161788	-0.3437748	178.012321	-75.35543616	104.4044068
4.64	464	-0.97	0.029	0.218	7.734933	21.0848544	-1.9480572	178.0065914	-75.56743062	104.4903505
4.65	465	-0.975	0.022	0.217	7.9641162	20.2254174	-3.2658606	177.9779435	-75.77942508	104.5992125
4.66	466	-0.979	0.011	0.21	8.1932994	19.3659804	-4.1825934	177.8862703	-75.9742308	104.7768295
4.67	467	-0.982	0.001	0.207	8.3651868	18.5638392	-4.583664	177.7716787	-76.15757736	104.9773648
4.68	468	-0.989	-0.002	0.209	8.0787078	17.9908812	-5.0420304	177.6341687	-76.32946476	105.2008184
4.69	469	-0.996	0	0.213	8.1360036	17.6471064	-5.6149884	177.4680109	-76.50708174	105.4529199
4.7	470	-0.99	0.005	0.211	7.8495246	17.6471064	-6.2452422	177.2903939	-76.6904283	105.7164806
4.71	471	-0.984	0.005	0.199	7.9641162	17.7044022	-6.8182002	177.0669403	-76.8623157	106.0316075
4.72	472	-0.978	0	0.19	8.5370742	17.2460358	-7.2192708	176.8148388	-77.02847352	106.3753823
4.73	473	-0.978	-0.012	0.186	9.1100322	16.7876694	-7.5057498	176.5570077	-77.19463134	106.7363458
4.74	474	-0.974	-0.027	0.18	8.8235532	15.8709366	-7.3338624	176.293447	-77.34933	107.0915798
4.75	475	-0.968	-0.035	0.17	7.6776372	14.4385416	-6.875496	175.9897793	-77.50402866	107.4811912
4.76	476	-0.962	-0.037	0.164	6.589017	12.318597	-6.2452422	175.7491369	-77.62434984	107.7963181
4.77	477	-0.953	-0.037	0.159	6.016059	10.0840608	-5.9014674	175.5142241	-77.7217527	108.0942563
4.78	478	-0.946	-0.038	0.158	5.8441716	8.6516658	-5.7868758	175.2850409	-77.80196682	108.3921944
4.79	479	-0.944	-0.042	0.157	5.156622	7.3338624	-5.7868758	175.0443986	-77.87072178	108.684403
4.8	480	-0.942	-0.048	0.159	4.583664	6.1879464	-5.6149884	174.7006238	-77.95666548	109.0854736
4.81	481	-0.941	-0.054	0.158	3.8388186	5.2712136	-4.9847346	174.4828997	-78.00250212	109.3433047
4.82	482	-0.945	-0.063	0.159	3.2658606	4.1252976	-4.5263682	174.2938236	-78.04260918	109.5724879
4.83	483	-0.953	-0.072	0.163	2.4064236	2.8074942	-4.1252976	174.110477	-78.0655275	109.7787528
4.84	484	-0.958	-0.077	0.166	1.432395	1.6042824	-3.6096354	173.9500488	-78.07698666	109.9620994
4.85	485	-0.963	-0.077	0.171	0.286479	0.5156622	-3.151269	172.9702906	-78.16293036	110.9418575
4.86	486	-0.97	-0.074	0.176	-0.8021412	-0.1718874	-2.6929026	172.8327807	-78.15720078	111.0736379
4.87	487	-0.975	-0.072	0.182	-1.7761698	-0.4583664	-2.291832	172.7124595	-78.1514712	111.1767703
4.88	488	-0.973	-0.072	0.188	-2.578311	-0.4583664	-2.005353	172.5921383	-78.14001204	111.2741732
4.89	489	-0.97	-0.07	0.19	-3.4950438	-0.6875496	-1.3750992	172.4947355	-78.13428246	111.3371986
4.9	490	-0.969	-0.069	0.19	-4.2398892	-1.0313244	-0.3437748	172.0363691	-78.14574162	111.7439987
4.91	491	-0.971	-0.067	0.189	-4.583664	-1.3750992	0.6875496	172.0363691	-78.13428246	111.7038917
4.92	492	-0.979	-0.063	0.192	-4.8128472	-1.6615782	1.4896908	172.065017	-78.11709372	111.617948
4.93	493	-0.983	-0.06	0.194	-4.870143	-2.1199446	2.1199446	172.1337719	-78.09990498	111.5033564
4.94	494	-0.987	-0.055	0.196	-5.3285094	-2.4064236	3.151269	172.242634	-78.07698666	111.3371986
4.95	495	-0.99	-0.051	0.195	-5.9587632	-1.8907614	3.8961144	172.2655523	-78.07698666	111.2397957
4.96	496	-0.991	-0.048	0.193	-6.1306506	-1.8334656	4.297185	172.4202509	-78.0655275	111.0278012
4.97	497	-0.99	-0.041	0.199	-6.302538	-2.7501984	4.3544808	172.5749496	-78.04260918	110.798618
4.98	498	-0.987	-0.033	0.201	-6.0733548	-3.4950438	4.583664	172.746837	-78.01396128	110.5579757
4.99	499	-0.983	-0.026	0.201	-5.443101	-3.4950438	4.6982556	172.9301836	-77.98531338	110.3173333
5	500	-0.985	-0.026	0.203	-4.9847346	-2.9793816	4.9847346	173.0963414	-77.96812464	110.0938797
5.01	501	-0.992	-0.035	0.203	-5.0420304	-2.86479	5.0993262	173.2968767	-77.94520632	109.8360486
5.02	502	-0.988	-0.036	0.202	-5.3858052	-3.3804522	5.0993262	173.497412	-77.91655842	109.5782175
5.03	503	-0.978	-0.028	0.207	-5.2712136	-4.5263682	5.156622	173.6979473	-77.87645136	109.3146568
5.04	504	-0.974	-0.022	0.208	-5.0993262	-4.9847346	5.0993262	173.9042122	-77.83061472	109.0568257
5.05	505	-0.974	-0.018	0.205	-4.5263682	-5.0420304	5.156622	174.110477	-77.79623724	108.7989946
5.06	506	-0.974	-0.019	0.206	-3.9534102	-4.6409598	4.9847346	174.3167419	-77.75613018	108.5468931
5.07	507	-0.976	-0.018	0.209	-3.6096354	-4.1252976	4.8128472	174.5115476	-77.71602312	108.3062507
5.08	508	-0.979	-0.017	0.211	-3.5523396	-4.297185	4.6409598	174.7006238	-77.67591606	108.0770675
5.09	509	-0.983	-0.012	0.211	-3.6096354	-4.583664	4.4117766	174.8782408	-77.635809	107.8593435
5.1	510	-0.982	-0.007	0.209	-3.0939732	-4.9847346	4.0680018	175.0845056	-77.60143152	107.6187011
5.11	511	-0.98	-0.006	0.21	-2.5210152	-5.2139178	3.5523396	175.2334747	-77.55559488	107.4353546
5.12	512	-0.978	-0.006	0.214	-1.8907614	-4.9274388	2.9220858	175.3595255	-77.50402866	107.2921151
5.13	513	-0.977	-0.007	0.22	-1.3178034	-4.297185	2.3491278	175.4626579	-77.4639216	107.1717939
5.14	514	-0.978	-0.006	0.223	-1.2032118	-3.6669312	2.0626488	175.5543312	-77.42954412	107.0686615
5.15	515	-0.981	-0.006	0.221	-1.0886202	-3.437748	1.8334656	175.6918411	-77.4066258	106.9139628
5.16	516	-0.986	-0.006	0.22	-0.7448454	-3.5523396	1.5469866	175.7605961	-77.37224832	106.8337487
5.17	517	-0.989	-0.004	0.219	-0.3437748	-3.7815228	1.0886202	175.8121623	-77.33787084	106.7764529
5.18	518	-0.991	-0.006	0.22	0.1145916	-3.6669312	0.4583664	175.8408102	-77.30349336	106.747805
5.19	519	-0.989	-0.005	0.221	0.572958	-3.4950438	0	175.8522694	-77.2633863	106.7420754
5.2	520	-0.984	-0.006	0.221	0.8021412	-3.5523396	-0.5156622	175.9095652	-77.24619756	106.6962388
5.21	521	-0.982	-0.007	0.222	1.0313244	-3.6096354	-0.8021412	175.8923764	-77.21182008	106.7248867
5.22	522	-0.984	-0.009	0.224	1.3178034	-3.4950438	-1.145916	175.8637285	-77.1774426	106.7707233
5.23	523	-0.984	-0.012	0.225	1.8334656	-3.2085648	-1.432395	175.8236215	-77.14306512	106.8280191
5.24	524	-0.985	-0.015	0.228	1.8334656	-2.7501984	-1.4896908	175.7835144	-77.11441722	106.8910445
5.25	525	-0.984	-0.019	0.227	1.7761698	-2.4064236	-1.4896908	175.680382	-77.10295806	107.0113657
5.26	526	-0.984	-0.022	0.225	1.6042824	-2.5210152	-1.432395	175.6402749	-77.07431016	107.074391
5.27	527	-0.98	-0.022	0.224	1.718874	-2.6356068	-1.432395	175.6001678	-77.05139184	107.1316868
5.28	528	-0.978	-0.023	0.225	1.7761698	-2.6356068	-1.432395	175.5600608	-77.02274394	107.1889826
5.29	529	-0.976	-0.025	0.227	2.005353	-2.291832	-1.432395	175.5256833	-76.99982562	107.252008
5.3	530	-0.976	-0.028	0.229	1.9480572	-2.0626488	-1.3750992	175.3709846	-76.98263688	107.4238954
5.31	531	-0.977	-0.029	0.232	1.8334656	-1.718874	-1.3178034	175.3366072	-76.96544814	107.4754616
5.32	532	-0.981	-0.029	0.236	1.7761698	-1.2605076	-1.145916	175.3079593	-76.9482594	107.5270279
5.33	533	-0.982	-0.03	0.235	1.718874	-0.859437	-1.0886202	175.2793114	-76.94252982	107.5728645
5.34	534	-0.982	-0.03	0.233	1.6042824	-0.8021412	-0.9740286	175.256393	-76.93107066	107.6187011
5.35	535	-0.982	-0.031	0.232	1.2605076	-0.3437748	-0.8021412	174.9871028	-76.93680024	107.893721
5.36	536	-0.981	-0.031	0.232	1.145916	-0.1718874	-0.572958	174.9756436	-76.93680024	107.9223689
5.37	537	-0.982	-0.032	0.233	0.9167328	0	-0.4583664	174.9641845	-76.93107066	107.9452872
5.38	538	-0.983	-0.029	0.232	0.859437	0.1145916	-0.286479	174.9584549	-76.93680024	107.9567464
5.39	539	-0.983	-0.026	0.233	0.7448454	0.1718874	-0.2291832	174.9527253	-76.93680024	107.9739351
5.4	540	-0.983	-0.026	0.233	0.4583664	0.3437748	-0.3437748	174.7063534	-76.9482594	108.220307
5.41	541	-0.982	-0.026	0.232	0.286479	0.6302538	-0.286479	174.6948942	-76.95398898	108.2374958
5.42	542	-0.983	-0.026	0.23	0.286479	0.6875496	-0.2291832	174.683435	-76.95971856	108.2546845
5.43	543	-0.984	-0.028	0.229	0.2291832	1.0313244	-0.1145916	174.6777055	-76.97117772	108.2604141
5.44	544	-0.984	-0.03	0.228	0.0572958	1.3178034	0	174.6719759	-76.98836646	108.2661437
5.45	545	-0.983	-0.03	0.227	0	1.6615782	0.0572958	174.4599814	-77.0342031	108.4781381
5.46	546	-0.982	-0.028	0.229	-0.1145916	1.718874	0.1718874	174.4599814	-77.05139184	108.4724086
5.47	547	-0.981	-0.025	0.23	-0.1145916	1.8334656	0.2291832	174.465711	-77.06858058	108.466679
5.48	548	-0.981	-0.024	0.229	-0.2291832	2.1199446	0.286479	174.465711	-77.0914989	108.4609494
5.49	549	-0.979	-0.024	0.225	-0.3437748	2.291832	0.286479	174.4714406	-77.11441722	108.4552198
5.5	550	-0.978	-0.023	0.223	-0.1718874	2.5210152	0.4010706	174.4026856	-77.16025386	108.5182452
5.51	551	-0.977	-0.025	0.219	0	2.6929026	0.4010706	174.4084152	-77.18317218	108.5125156
5.52	552	-0.978	-0.026	0.22	0	2.5210152	0.572958	174.4313335	-77.21182008	108.4895973
5.53	553	-0.983	-0.027	0.219	-0.572958	2.6929026	0.6302538	174.4427927	-77.24046798	108.4724086
5.54	554	-0.984	-0.025	0.217	-0.6875496	2.9220858	0.572958	174.4542518	-77.26911588	108.4552198
5.55	555	-0.981	-0.022	0.213	-0.6302538	2.4637194	0.5156622	174.4370631	-77.33214126	108.4552198
5.56	556	-0.976	-0.015	0.214	-0.4583664	1.6615782	0.3437748	174.4427927	-77.34933	108.4494902
5.57	557	-0.973	-0.013	0.214	-0.1718874	1.6615782	0.1145916	174.4427927	-77.36651874	108.4437607
5.58	558	-0.976	-0.017	0.209	0.3437748	2.291832	0	174.4370631	-77.38943706	108.4552198
5.59	559	-0.984	-0.029	0.213	0.3437748	2.4637194	0	174.4313335	-77.41235538	108.466679
5.6	560	-0.985	-0.03	0.216	-0.0572958	1.8907614	0.1718874	174.2594461	-77.45819202	108.6328368
5.61	561	-0.979	-0.024	0.218	-0.3437748	1.2032118	0.1145916	174.2594461	-77.46965118	108.6271072
5.62	562	-0.978	-0.021	0.218	-0.2291832	0.7448454	0.0572958	174.2594461	-77.47538076	108.6271072
5.63	563	-0.976	-0.02	0.215	-0.0572958	0.8021412	0.0572958	174.2594461	-77.48683992	108.6271072
5.64	564	-0.973	-0.021	0.208	0.1145916	1.145916	0	174.2594461	-77.49829908	108.6271072
5.65	565	-0.972	-0.021	0.206	0.1145916	1.4896908	0	174.1906912	-77.58424278	108.6901326
5.66	566	-0.974	-0.019	0.209	0.1145916	1.2032118	-0.1145916	174.179232	-77.59570194	108.7015918
5.67	567	-0.98	-0.018	0.212	0.4583664	0.8021412	-0.1718874	174.1735024	-77.60143152	108.7130509
5.68	568	-0.984	-0.019	0.215	0.572958	0.6302538	-0.286479	174.1620433	-77.6071611	108.7302397
5.69	569	-0.986	-0.021	0.214	0.5156622	0.572958	-0.4010706	174.1505841	-77.61289068	108.753158
5.7	570	-0.984	-0.02	0.212	0.4010706	0.572958	-0.572958	174.110477	-77.67018648	108.7875355
5.71	571	-0.979	-0.022	0.21	0.4010706	0.5156622	-0.8021412	174.0818291	-77.67591606	108.8276425
5.72	572	-0.977	-0.022	0.21	0.3437748	0.4010706	-0.8021412	174.0417221	-77.68164564	108.8677496
5.73	573	-0.977	-0.023	0.21	0.3437748	0.3437748	-0.859437	174.0073446	-77.68164564	108.9078566
5.74	574	-0.98	-0.024	0.212	0.6302538	0.1718874	-0.859437	173.9672375	-77.68737522	108.9536933
5.75	575	-0.981	-0.024	0.214	0.572958	0.2291832	-0.9167328	173.8354572	-77.71029354	109.0912032
5.76	576	-0.981	-0.024	0.214	0.572958	0.286479	-0.859437	173.7953501	-77.71029354	109.1370398
5.77	577	-0.981	-0.026	0.214	0.4583664	0.1145916	-0.9740286	173.7552431	-77.71029354	109.1828765
5.78	578	-0.981	-0.027	0.211	0.4010706	-0.0572958	-0.9167328	173.7208656	-77.71029354	109.2287131
5.79	579	-0.981	-0.029	0.214	0.3437748	-0.286479	-0.8021412	173.6864881	-77.70456396	109.2630906
5.8	580	-0.982	-0.027	0.213	0.2291832	-0.1718874	-0.6302538	173.3828204	-77.74467102	109.5667583
5.81	581	-0.982	-0.027	0.213	0.286479	-0.1718874	-0.6302538	173.3599021	-77.74467102	109.5954062
5.82	582	-0.981	-0.029	0.213	0.3437748	-0.286479	-0.6302538	173.3312542	-77.73894144	109.6240541
5.83	583	-0.983	-0.03	0.212	0.1718874	-0.1718874	-0.5156622	173.3083358	-77.73894144	109.652702
5.84	584	-0.982	-0.029	0.211	-0.0572958	-0.2291832	-0.4583664	173.2854175	-77.73321186	109.6756204
5.85	585	-0.982	-0.027	0.211	-0.1145916	-0.286479	-0.4010706	173.0390456	-77.78477808	109.9162627
5.86	586	-0.98	-0.028	0.214	-0.0572958	-0.4010706	-0.286479	173.0275864	-77.7790485	109.9277219
5.87	587	-0.979	-0.031	0.215	0	-0.4583664	-0.1718874	173.0218568	-77.77331892	109.9334515
5.88	588	-0.977	-0.031	0.214	-0.1718874	-0.4583664	-0.1718874	173.0103977	-77.76758934	109.939181
5.89	589	-0.975	-0.03	0.213	-0.2291832	-0.4583664	0	173.0103977	-77.76185976	109.9334515
5.9	590	-0.975	-0.029	0.211	-0.2291832	-0.572958	0.1718874	172.8327807	-77.78477808	110.1053389
5.91	591	-0.978	-0.028	0.215	-0.286479	-0.5156622	0.3437748	172.8499694	-77.7790485	110.0881501
5.92	592	-0.982	-0.028	0.215	-0.4010706	-0.572958	0.2291832	172.8614286	-77.77331892	110.0709614
5.93	593	-0.984	-0.028	0.217	-0.572958	-0.572958	0.2291832	172.8728878	-77.76758934	110.0537726
5.94	594	-0.983	-0.027	0.219	-0.7448454	-0.5156622	0.2291832	172.8786173	-77.76758934	110.0423135
5.95	595	-0.982	-0.026	0.218	-0.9740286	-0.4583664	0.2291832	172.8843469	-77.75613018	110.0193952
5.96	596	-0.981	-0.025	0.217	-0.9740286	-0.572958	0.4010706	172.8958061	-77.7504006	110.0022064
5.97	597	-0.981	-0.024	0.218	-1.0886202	-0.572958	0.4010706	172.9072652	-77.74467102	109.9792881
5.98	598	-0.981	-0.025	0.219	-0.8021412	-0.4010706	0.4010706	172.924454	-77.74467102	109.9563698
5.99	599	-0.983	-0.026	0.219	-0.6875496	-0.1718874	0.3437748	172.9359131	-77.74467102	109.9334515
6	600	-0.983	-0.024	0.219	-0.7448454	0	0.2291832	172.9416427	-77.75613018	109.9219923
6.01	601	-0.985	-0.023	0.22	-0.859437	0	0.1718874	172.9416427	-77.75613018	109.9105331
6.02	602	-0.984	-0.023	0.22	-0.859437	-0.0572958	0.1145916	172.9416427	-77.7504006	109.9048036
6.03	603	-0.984	-0.022	0.217	-0.9167328	-0.1718874	0.1145916	172.9359131	-77.7504006	109.8933444
6.04	604	-0.983	-0.022	0.217	-0.6875496	-0.2291832	0.0572958	172.9359131	-77.7504006	109.8876148
6.05	605	-0.982	-0.022	0.22	-0.4583664	-0.1718874	0	172.9702906	-77.7504006	109.8532373
6.06	606	-0.983	-0.022	0.219	-0.4010706	-0.1145916	-0.0572958	172.9588315	-77.7504006	109.8589669
6.07	607	-0.982	-0.023	0.22	-0.3437748	0.0572958	-0.0572958	172.9531019	-77.7504006	109.8589669
6.08	608	-0.983	-0.025	0.218	-0.3437748	0.1718874	-0.1718874	172.9416427	-77.7504006	109.8704261
6.09	609	-0.982	-0.024	0.217	-0.3437748	0.1145916	-0.2291832	172.924454	-77.7504006	109.8818852
6.1	610	-0.984	-0.022	0.218	-0.286479	0.1145916	-0.2291832	172.9301836	-77.76185976	109.8704261
6.11	611	-0.983	-0.024	0.219	-0.1718874	0.3437748	-0.2291832	172.9187244	-77.76758934	109.8818852
6.12	612	-0.981	-0.025	0.219	-0.2291832	0.4010706	-0.286479	172.8958061	-77.77331892	109.899074
6.13	613	-0.978	-0.025	0.215	-0.4010706	0.1718874	-0.286479	172.8786173	-77.77331892	109.9162627
6.14	614	-0.976	-0.025	0.211	-0.2291832	0	-0.4010706	172.855699	-77.77331892	109.939181
6.15	615	-0.977	-0.025	0.209	0.2291832	-0.286479	-0.286479	172.7984032	-77.80196682	109.9964768
6.16	616	-0.981	-0.027	0.213	0.4010706	-0.286479	-0.286479	172.7869441	-77.79623724	110.007936
6.17	617	-0.983	-0.029	0.217	0.2291832	0	-0.3437748	172.7754849	-77.79623724	110.0251247
6.18	618	-0.985	-0.03	0.215	0	0.1145916	-0.3437748	172.7525666	-77.79623724	110.0480431
6.19	619	-0.985	-0.029	0.216	-0.286479	-0.1145916	-0.3437748	172.7353778	-77.79623724	110.0595022
6.2	620	-0.983	-0.026	0.213	0.1145916	-0.3437748	-0.3437748	172.6952708	-77.81915556	110.1053389
6.21	621	-0.976	-0.024	0.211	0.5156622	-0.572958	-0.4010706	172.6838116	-77.81342598	110.1225276
6.22	622	-0.973	-0.027	0.21	1.0313244	-0.3437748	-0.2291832	172.678082	-77.81342598	110.1339868
6.23	623	-0.979	-0.034	0.212	0.9740286	-0.286479	0	172.6952708	-77.8076964	110.1282572
6.24	624	-0.978	-0.031	0.216	0.572958	-0.5156622	0.1145916	172.7067299	-77.80196682	110.1225276
6.25	625	-0.978	-0.027	0.221	0.572958	-0.7448454	0.1145916	172.7010004	-77.7790485	110.1339868
6.26	626	-0.983	-0.029	0.226	0.5156622	-0.859437	0	172.7124595	-77.76758934	110.1339868
6.27	627	-0.984	-0.03	0.226	0	-0.6875496	-0.1145916	172.7124595	-77.76185976	110.1339868
6.28	628	-0.98	-0.03	0.221	-0.2291832	-0.1718874	-0.0572958	172.7067299	-77.76185976	110.1339868
6.29	629	-0.978	-0.03	0.217	-0.1718874	0.0572958	0	172.7010004	-77.76185976	110.1339868
6.3	630	-0.978	-0.029	0.216	-0.1145916	0.1718874	0.1718874	172.5520313	-77.78477808	110.2829558
6.31	631	-0.981	-0.028	0.219	-0.0572958	0	0.3437748	172.56922	-77.78477808	110.2657671
6.32	632	-0.983	-0.026	0.222	-0.1718874	0.1145916	0.4010706	172.5864088	-77.79050766	110.2428488
6.33	633	-0.984	-0.025	0.221	-0.2291832	0.1718874	0.286479	172.5978679	-77.79050766	110.2313896
6.34	634	-0.982	-0.025	0.218	-0.2291832	0.1145916	0.2291832	172.6093271	-77.79050766	110.2199305
6.35	635	-0.98	-0.024	0.216	-0.2291832	0.1718874	0.2291832	172.6150567	-77.82488514	110.2084713
6.36	636	-0.981	-0.025	0.216	0	0.2291832	0.286479	172.6265158	-77.82488514	110.1970121
6.37	637	-0.983	-0.027	0.22	0.1145916	0.286479	0.2291832	172.637975	-77.83061472	110.185553
6.38	638	-0.986	-0.027	0.221	-0.1145916	0.6302538	0.286479	172.6437046	-77.8363443	110.1740938
6.39	639	-0.989	-0.029	0.22	-0.4010706	0.7448454	0.2291832	172.6494341	-77.84207388	110.1626347
6.4	640	-0.99	-0.03	0.218	-0.5156622	0.8021412	0.4010706	172.6093271	-77.85926262	110.2027417
6.41	641	-0.988	-0.029	0.215	-0.6302538	0.9167328	0.4583664	172.6150567	-77.8649922	110.185553
6.42	642	-0.986	-0.028	0.214	-0.572958	0.859437	0.572958	172.6322454	-77.87645136	110.1626347
6.43	643	-0.984	-0.025	0.215	-0.7448454	0.5156622	0.5156622	172.6494341	-77.88218094	110.1397163
6.44	644	-0.981	-0.025	0.217	-0.9740286	0.5156622	0.4583664	172.6608933	-77.88791052	110.116798
6.45	645	-0.983	-0.025	0.216	-0.9740286	0.572958	0.5156622	172.6551637	-77.89936968	110.1110684
6.46	646	-0.982	-0.027	0.213	-0.8021412	0.4010706	0.572958	172.6723525	-77.90509926	110.0824205
6.47	647	-0.983	-0.029	0.213	-0.8021412	0.4583664	0.572958	172.6895412	-77.91082884	110.0595022
6.48	648	-0.98	-0.027	0.211	-0.8021412	0.4583664	0.572958	172.7067299	-77.91655842	110.0308543
6.49	649	-0.976	-0.024	0.212	-0.572958	0.2291832	0.6875496	172.7296483	-77.91655842	109.9964768
6.5	650	-0.977	-0.026	0.216	-0.3437748	0.1145916	0.572958	172.6838116	-77.922288	110.0423135
6.51	651	-0.978	-0.026	0.216	-0.2291832	0.0572958	0.5156622	172.7067299	-77.922288	110.0136656
6.52	652	-0.975	-0.028	0.215	-0.286479	0.1718874	0.6302538	172.7296483	-77.92801758	109.9850177
6.53	653	-0.974	-0.027	0.215	-0.2291832	0.286479	0.7448454	172.7640257	-77.92801758	109.9506402
6.54	654	-0.977	-0.026	0.214	-0.2291832	0.3437748	0.8021412	172.7984032	-77.93374716	109.9105331
6.55	655	-0.978	-0.025	0.215	-0.1145916	0.3437748	0.859437	172.815592	-77.93947674	109.8933444
6.56	656	-0.978	-0.025	0.216	-0.1718874	0.286479	0.6875496	172.8499694	-77.94520632	109.8589669
6.57	657	-0.982	-0.027	0.217	-0.2291832	0.2291832	0.6875496	172.8786173	-77.94520632	109.8245894
6.58	658	-0.984	-0.026	0.216	-0.286479	0.286479	0.6302538	172.9072652	-77.9509359	109.7959415
6.59	659	-0.984	-0.026	0.218	-0.1718874	0.286479	0.572958	172.9301836	-77.95666548	109.7672936
6.6	660	-0.984	-0.027	0.219	-0.1718874	0.4583664	0.572958	172.8958061	-77.9509359	109.7959415
6.61	661	-0.982	-0.026	0.218	-0.1145916	0.6875496	0.572958	172.924454	-77.95666548	109.7672936
6.62	662	-0.984	-0.025	0.215	-0.1718874	0.7448454	0.6302538	172.9473723	-77.96239506	109.7443753
6.63	663	-0.984	-0.024	0.215	-0.1145916	0.5156622	0.572958	172.9702906	-77.96812464	109.7157274
6.64	664	-0.984	-0.023	0.216	0	0.4010706	0.572958	172.9932089	-77.97385422	109.6928091
6.65	665	-0.984	-0.023	0.218	0	0.572958	0.4010706	173.0218568	-77.9795838	109.6641612
6.66	666	-0.983	-0.024	0.217	0	0.7448454	0.4010706	173.033316	-77.99104296	109.6469725
6.67	667	-0.983	-0.026	0.218	0.3437748	0.4010706	0	173.033316	-77.99104296	109.652702
6.68	668	-0.983	-0.027	0.216	0.3437748	0.4583664	0.1145916	173.0447752	-77.99677254	109.652702
6.69	669	-0.982	-0.026	0.216	0.4010706	0.4010706	0.2291832	173.0562343	-78.00250212	109.6412429
6.7	670	-0.983	-0.024	0.218	0.3437748	0.5156622	0.286479	173.0505047	-78.00250212	109.652702
6.71	671	-0.985	-0.023	0.219	0.4583664	0.6875496	0.2291832	173.0619639	-78.0082317	109.6412429
6.72	672	-0.984	-0.022	0.218	0.4583664	0.6875496	0.2291832	173.0791526	-78.01396128	109.6297837
6.73	673	-0.983	-0.021	0.216	0.4583664	0.7448454	0.2291832	173.0906118	-78.02542044	109.6240541
6.74	674	-0.98	-0.022	0.215	0.7448454	0.572958	0.3437748	173.1135301	-78.03115002	109.6068654
6.75	675	-0.98	-0.023	0.216	0.7448454	0.4583664	0.1718874	173.1192597	-78.0368796	109.612595
6.76	676	-0.982	-0.023	0.217	0.6875496	0.6302538	0	173.1192597	-78.04260918	109.6183246
6.77	677	-0.981	-0.023	0.216	0.572958	0.7448454	-0.0572958	173.1192597	-78.04833876	109.6240541
6.78	678	-0.983	-0.023	0.214	0.572958	0.6875496	0	173.1192597	-78.05979792	109.6297837
6.79	679	-0.982	-0.022	0.214	0.6875496	0.4583664	0	173.1307189	-78.0655275	109.6297837
6.8	680	-0.981	-0.023	0.211	0.5156622	0.4010706	0.1145916	173.1307189	-78.08271624	109.6297837
6.81	681	-0.98	-0.023	0.21	0.4010706	0.1145916	0	173.1307189	-78.08844582	109.6297837
6.82	682	-0.978	-0.022	0.21	0.4010706	0.0572958	0	173.1364484	-78.08844582	109.6355133
6.83	683	-0.977	-0.019	0.21	0.4010706	0.1718874	-0.0572958	173.1364484	-78.08844582	109.6412429
6.84	684	-0.977	-0.019	0.207	0.8021412	0.1718874	-0.0572958	173.1364484	-78.08844582	109.6469725
6.85	685	-0.982	-0.022	0.21	1.0886202	0.0572958	0	173.1307189	-78.09990498	109.6641612
6.86	686	-0.986	-0.024	0.212	0.9167328	0.286479	0	173.1364484	-78.10563456	109.6641612
6.87	687	-0.988	-0.024	0.21	0.4583664	0.5156622	0	173.142178	-78.10563456	109.6641612
6.88	688	-0.984	-0.022	0.205	0.0572958	-0.1718874	0	173.142178	-78.10563456	109.6641612
6.89	689	-0.979	-0.017	0.204	0.1718874	-1.145916	-0.0572958	173.1479076	-78.0941754	109.6641612
6.9	690	-0.975	-0.016	0.2	0.6875496	-1.6042824	-0.1718874	173.1765555	-78.09990498	109.6412429
