TimeStamp(s)	FrameCounter	AccX	AccY	AccZ	GyrX	GyrY	GyrZ	EulerX	EulerY	EulerZ
0.01	1	-0.017	-1.004	0.09	-1.0886202	-0.1145916	-0.3437748	94.05678528	-0.77922288	-21.72083778
0.02	2	-0.016	-1.005	0.087	-1.4896908	0.3437748	-0.4583664	94.03959654	-0.77922288	-21.72083778
0.03	3	-0.018	-1.003	0.084	-1.3750992	0.6302538	-0.4583664	94.02813738	-0.7734933	-21.7151082
0.04	4	-0.019	-0.998	0.082	-0.9167328	0.8021412	-0.5156622	94.01667822	-0.76776372	-21.70364904
0.05	5	-0.019	-0.995	0.08	-0.6875496	0.859437	-0.6302538	93.9937599	-0.76776372	-21.69218988
0.06	6	-0.019	-0.993	0.078	-0.3437748	0.859437	-0.7448454	93.98803032	-0.75630456	-21.6864603
0.07	7	-0.02	-0.991	0.08	0.286479	0.7448454	-1.0886202	93.98803032	-0.75057498	-21.67500114
0.08	8	-0.022	-0.997	0.082	0.859437	0.8021412	-1.3178034	93.99948948	-0.73338624	-21.66927156
0.09	9	-0.021	-1.002	0.082	1.432395	0.6875496	-1.4896908	94.01094864	-0.72192708	-21.6578124
0.1	10	-0.02	-1.003	0.081	1.8907614	0.6302538	-1.718874	94.0224078	-0.70473834	-21.65208282
0.11	11	-0.015	-0.999	0.081	2.3491278	0.4583664	-1.9480572	94.0510557	-0.6875496	-21.64635324
0.12	12	-0.009	-1.002	0.09	3.151269	0.2291832	-2.1199446	94.0797036	-0.66463128	-21.64062366
0.13	13	-0.004	-1.013	0.097	3.151269	-0.1718874	-2.0626488	94.11408108	-0.64171296	-21.64062366
0.14	14	-0.005	-1.019	0.1	2.5210152	-0.5156622	-2.0626488	94.1369994	-0.62452422	-21.64062366
0.15	15	-0.009	-1.022	0.101	1.6042824	-0.2291832	-2.1199446	94.15991772	-0.59587632	-21.64635324
0.16	16	-0.015	-1.017	0.106	1.0886202	0.4583664	-2.2345362	94.17137688	-0.572958	-21.64062366
0.17	17	-0.019	-1.013	0.117	0.6302538	1.2605076	-2.4637194	94.17710646	-0.55003968	-21.62343492
0.18	18	-0.016	-1.013	0.12	-0.286479	2.005353	-2.6929026	94.17137688	-0.52712136	-21.6005166
0.19	19	-0.007	-1.018	0.125	-1.145916	2.3491278	-2.7501984	94.15991772	-0.49847346	-21.57759828
0.2	20	0	-1.025	0.129	-2.4064236	2.4064236	-2.6356068	94.14845856	-0.46982556	-21.55467996
0.21	21	0.005	-1.023	0.133	-4.010706	2.4064236	-2.5210152	94.1083515	-0.44690724	-21.52603206
0.22	22	0.005	-1.019	0.137	-5.3858052	2.6356068	-2.5210152	94.0510557	-0.42398892	-21.50311374
0.23	23	0.007	-1.017	0.14	-6.7036086	3.2658606	-2.578311	93.98230074	-0.4010706	-21.46873626
0.24	24	0.012	-1.025	0.146	-7.9641162	3.8961144	-2.4064236	93.90208662	-0.38388186	-21.4286292
0.25	25	0.018	-1.034	0.144	-9.8548776	4.583664	-2.291832	93.81041334	-0.35523396	-21.38279256
0.26	26	0.023	-1.039	0.14	-12.0894138	5.72958	-2.1199446	93.68436258	-0.3437748	-21.32549676
0.27	27	0.028	-1.038	0.133	-14.7823164	6.7036086	-1.9480572	93.5353935	-0.33231564	-21.26247138
0.28	28	0.03	-1.03	0.13	-17.1314442	7.448454	-1.8334656	93.35777652	-0.32085648	-21.18798684
0.29	29	0.032	-1.025	0.132	-19.5378678	8.307891	-1.6615782	93.15724122	-0.30939732	-21.10777272
0.3	30	0.038	-1.025	0.124	-22.5745452	9.8548776	-1.0886202	92.92805802	-0.30366774	-21.01609944
0.31	31	0.044	-1.026	0.117	-25.3820394	11.6883432	-0.4010706	92.67022692	-0.30939732	-20.90150784
0.32	32	0.047	-1.029	0.11	-28.1895336	13.2353298	0.0572958	92.38374792	-0.32085648	-20.77545708
0.33	33	0.049	-1.026	0.098	-31.3980984	14.4958374	0.4010706	92.05716186	-0.33804522	-20.63221758
0.34	34	0.058	-1.023	0.096	-34.3201842	15.469866	1.0313244	91.70765748	-0.36096354	-20.48897808
0.35	35	0.066	-1.03	0.092	-37.7006364	16.042824	1.7761698	91.32377562	-0.38388186	-20.33427942
0.36	36	0.076	-1.031	0.079	-41.3675676	16.2147114	2.6929026	90.8997867	-0.42398892	-20.17958076
0.37	37	0.091	-1.024	0.064	-44.9199072	16.7876694	3.7815228	90.4414203	-0.46982556	-20.01915252
0.38	38	0.099	-1.008	0.05	-48.2430636	17.1314442	4.2398892	89.94867642	-0.52139178	-19.8529947
0.39	39	0.099	-0.992	0.017	-50.706783	16.042824	4.2398892	89.42728464	-0.572958	-19.70402562
0.4	40	0.094	-0.953	-0.023	-49.9619376	14.3812458	4.4690724	88.91735202	-0.61879464	-19.5665157
0.41	41	0.085	-0.917	-0.091	-43.7166954	15.4125702	4.0680018	88.47044478	-0.66463128	-19.41754662
0.42	42	0.084	-0.887	-0.156	-23.6631654	26.9863218	2.578311	88.22407284	-0.6875496	-19.15398594
0.43	43	0.076	-0.924	0.01	-5.6722842	30.939732	0.8021412	88.15531788	-0.69900876	-18.84458862
0.44	44	0.072	-0.95	0.083	-5.156622	22.7464326	-0.6875496	88.09802208	-0.6875496	-18.621135
0.45	45	0.095	-0.957	0.083	-11.8029348	17.3606274	-1.7761698	87.98343048	-0.6589017	-18.45497718
0.46	46	0.102	-0.943	0.064	-20.2827132	14.2093584	-3.0366774	87.77143602	-0.6302538	-18.31746726
0.47	47	0.103	-0.883	0.022	-28.5906042	10.9434978	-4.1252976	87.47922744	-0.59014674	-18.21433482
0.48	48	0.083	-0.775	-0.038	-29.0489706	9.2819196	-6.589017	87.18128928	-0.52139178	-18.12839112
0.49	49	0.05	-0.684	-0.062	-27.1582092	5.72958	-11.5737516	86.90626944	-0.40680018	-18.08255448
0.5	50	0.009	-0.592	-0.084	-28.361421	1.432395	-18.4492476	86.61406086	-0.2291832	-18.08255448
0.51	51	-0.033	-0.508	-0.1	-29.3354496	-2.9793816	-26.4133638	86.3161227	0.02291832	-18.12839112
0.52	52	-0.053	-0.446	-0.099	-29.5646328	-8.9381448	-34.7212548	86.01245496	0.36096354	-18.24298272
0.53	53	-0.057	-0.44	-0.041	-30.080295	-17.9335854	-41.4821592	85.70878722	0.76203414	-18.4492476
0.54	54	-0.048	-0.504	0.03	-33.5753388	-24.5798982	-44.977203	85.36501242	1.19175264	-18.72999702
0.55	55	-0.03	-0.653	0.029	-39.0184398	-24.350715	-43.4302164	84.96394182	1.6042824	-19.01074644
0.56	56	0	-0.833	-0.03	-43.0291458	-20.626488	-36.096354	84.52276416	1.9480572	-19.2513888
0.57	57	-0.007	-1.007	-0.083	-44.0604702	-17.5325148	-25.210152	84.07012734	2.1772404	-19.4519241
0.58	58	-0.069	-1.162	-0.071	-40.8519054	-13.8655836	-16.6730778	83.651868	2.32620948	-19.61235234
0.59	59	-0.151	-1.299	-0.056	-37.0130868	-6.1306506	-13.6936962	83.27371572	2.45798982	-19.69256646
0.6	60	-0.218	-1.373	-0.053	-33.6326346	2.4064236	-13.1207382	82.9356705	2.578311	-19.68683688
0.61	61	-0.204	-1.35	-0.013	-26.7571386	5.2712136	-10.1986524	82.66065066	2.68144344	-19.64672982
0.62	62	-0.107	-1.287	0.082	-16.7876694	2.7501984	-3.151269	82.49449284	2.71582092	-19.6238115
0.63	63	-0.017	-1.275	0.156	-15.4125702	-1.0313244	2.0626488	82.3340646	2.6929026	-19.63527066
0.64	64	0.01	-1.388	0.189	-17.2460358	-3.724227	4.8128472	82.15644762	2.6356068	-19.66964814
0.65	65	-0.002	-1.586	0.179	-20.340009	-2.3491278	5.6722842	81.95591232	2.578311	-19.68683688
0.66	66	-0.009	-1.758	0.154	-21.199446	1.0313244	5.443101	81.73818828	2.5210152	-19.66964814
0.67	67	-0.007	-1.861	0.122	-19.480572	3.5523396	5.5576926	81.54338256	2.46944898	-19.62954108
0.68	68	-0.012	-1.893	0.096	-17.18874	2.6356068	6.8182002	81.37149516	2.4064236	-19.5951636
0.69	69	-0.028	-1.864	0.075	-15.3552744	0.4010706	8.7089616	81.2167965	2.3204799	-19.57797486
0.7	70	-0.041	-1.799	0.035	-14.7250206	-2.8074942	12.032118	81.06782742	2.19442914	-19.58943402
0.71	71	-0.061	-1.716	-0.016	-14.1520626	-7.2192708	15.5844576	80.92458792	2.02827132	-19.63527066
0.72	72	-0.09	-1.641	-0.059	-13.6936962	-11.172681	18.334656	80.78134842	1.8334656	-19.72121436
0.73	73	-0.135	-1.565	-0.089	-13.0634424	-13.6936962	19.2513888	80.64956808	1.62720072	-19.8243468
0.74	74	-0.177	-1.483	-0.099	-11.172681	-15.0114996	18.7930224	80.53497648	1.42093584	-19.94466798
0.75	75	-0.192	-1.384	-0.099	-8.1932994	-16.8449652	18.4492476	80.44903278	1.20894138	-20.07644832
0.76	76	-0.173	-1.272	-0.086	-2.8074942	-19.3659804	18.1054728	80.42038488	1.0026765	-20.23687656
0.77	77	-0.133	-1.156	-0.045	2.9220858	-21.9442914	17.761698	80.45476236	0.8021412	-20.4259527
0.78	78	-0.094	-1.053	-0.004	8.1360036	-25.6112226	17.2460358	80.53497648	0.59587632	-20.64940632
0.79	79	-0.067	-0.956	0.043	9.2819196	-28.3041252	16.8449652	80.63237934	0.39534102	-20.89577826
0.8	80	-0.041	-0.865	0.063	8.1360036	-29.8511118	15.9282324	80.7297822	0.19480572	-21.16506852
0.81	81	-0.023	-0.775	0.07	6.1306506	-32.5440144	14.4958374	80.79853716	0.01145916	-21.4572771
0.82	82	-0.018	-0.677	0.089	4.4117766	-35.6379876	12.8342592	80.85010338	-0.15469866	-21.78959274
0.83	83	-0.024	-0.556	0.083	1.2032118	-37.0130868	11.172681	80.86729212	-0.3151269	-22.13336754
0.84	84	0.003	-0.429	0.036	-2.4064236	-34.1482968	8.3651868	80.85010338	-0.44117766	-22.45422402
0.85	85	-0.08	-0.286	-0.029	-4.5263682	-26.2414764	6.4744254	80.80999632	-0.5443101	-22.70059596
0.86	86	-0.142	-0.197	-0.049	-2.4637194	-14.9542038	4.3544808	80.787078	-0.60733548	-22.84383546
0.87	87	-0.174	-0.159	-0.072	-2.005353	-5.9014674	3.9534102	80.76415968	-0.65317212	-22.89540168
0.88	88	-0.168	-0.101	-0.105	-1.7761698	3.0939732	4.7555514	80.74697094	-0.69327918	-22.85529462
0.89	89	-0.141	-0.044	-0.099	-1.4896908	8.59437	7.0473834	80.7297822	-0.75630456	-22.76362134
0.9	90	-0.106	-0.009	-0.077	-3.0366774	11.9748222	8.7662574	80.68967514	-0.8307891	-22.631841
0.91	91	-0.054	0.002	-0.075	-5.9587632	16.7876694	9.3392154	80.62664976	-0.89954406	-22.44849444
0.92	92	0	0.008	-0.049	-6.0733548	22.4599536	7.6203414	80.5578948	-0.9453807	-22.21931124
0.93	93	0.038	-0.049	-0.03	-7.734933	26.9863218	5.156622	80.4719511	-0.96256944	-21.9442914
0.94	94	0.071	-0.175	-0.167	-17.3033316	29.1635622	3.8388186	80.28287496	-0.96256944	-21.6578124
0.95	95	0.139	-0.336	-0.294	-21.3713334	24.9809688	5.5003968	80.04796218	-0.9740286	-21.40571088
0.96	96	0.192	-0.518	-0.441	-22.2307704	11.8602306	9.3965112	79.81877898	-1.04851314	-21.27393054
0.97	97	0.265	-0.709	-0.512	-18.4492476	-4.3544808	13.5791046	79.62970284	-1.19175264	-21.29684886
0.98	98	0.328	-0.921	-0.457	-13.464513	-17.9335854	14.4958374	79.4979225	-1.36364004	-21.44581794
0.99	99	0.32	-1.173	-0.39	-11.745639	-29.3927454	10.0840608	79.38906048	-1.50687954	-21.7151082
1	100	0.258	-1.469	-0.342	-10.5424272	-39.0184398	4.1825934	79.2973872	-1.61001198	-22.09326048
1.01	101	0.195	-1.763	-0.183	-5.3285094	-46.0658232	0	79.26300972	-1.67876694	-22.5458973
1.02	102	0.143	-1.879	-0.108	3.2085648	-48.8160216	-0.6302538	79.32030552	-1.7475219	-23.02145244
1.03	103	0.038	-1.843	-0.099	6.6463128	-45.6647526	0.9167328	79.40624922	-1.82773602	-23.4626301
1.04	104	-0.09	-1.804	-0.106	6.9327918	-40.8519054	1.4896908	79.4979225	-1.90795014	-23.8637007
1.05	105	-0.199	-1.856	-0.108	3.2658606	-36.6120162	-1.4896908	79.54948872	-1.9480572	-24.21893466
1.06	106	-0.239	-1.963	-0.11	-0.5156622	-30.8251404	-6.3598338	79.5552183	-1.93086846	-24.53406156
1.07	107	-0.203	-2.084	-0.084	-4.1252976	-25.210152	-9.9694692	79.5265704	-1.87357266	-24.79762224
1.08	108	-0.153	-2.175	-0.07	-8.0787078	-20.1108258	-10.3705398	79.45208586	-1.8048177	-25.01534628
1.09	109	-0.11	-2.192	-0.058	-9.9121734	-14.037471	-8.9954406	79.36041258	-1.74179232	-25.17004494
1.1	110	-0.107	-2.109	-0.049	-11.4018642	-1.8907614	-7.5630456	79.24582098	-1.66730778	-25.20442242
1.11	111	-0.106	-1.984	-0.06	-12.7769634	8.4224826	-8.59437	79.11404064	-1.5756345	-25.13566746
1.12	112	-0.105	-1.85	-0.088	-12.7769634	18.4492476	-11.6883432	78.97653072	-1.432395	-24.9809688
1.13	113	-0.102	-1.71	-0.108	-9.6829902	27.6738714	-15.2979786	78.8676687	-1.23758928	-24.74032644
1.14	114	-0.06	-1.541	-0.142	-4.2398892	36.096354	-18.7357266	78.8103729	-0.99694692	-24.42519954
1.15	115	0.013	-1.359	-0.172	5.3858052	40.5654264	-21.3140376	78.85620954	-0.7161975	-24.06996558
1.16	116	0.072	-1.206	-0.155	16.3865988	40.7946096	-22.8037284	79.01663778	-0.42398892	-23.71473162
1.17	117	0.116	-1.08	-0.096	22.5745452	39.6486936	-21.772404	79.23436182	-0.14896908	-23.36522724
1.18	118	0.137	-0.952	-0.023	23.491278	34.0337052	-17.0741484	79.4692746	0.06875496	-23.0615595
1.19	119	0.159	-0.822	0.013	20.340009	31.6272816	-11.5164558	79.67553948	0.2291832	-22.76935092
1.2	120	0.15	-0.656	0.005	18.048177	28.1322378	-6.3598338	79.85888604	0.3437748	-22.50579024
1.21	121	0.114	-0.488	0.017	17.4179232	21.0275586	-2.7501984	80.03650302	0.40680018	-22.29952536
1.22	122	0.094	-0.33	-0.008	15.8709366	12.7769634	-0.3437748	80.19693126	0.4297185	-22.1734746
1.23	123	0.082	-0.171	-0.01	18.907614	4.2398892	1.718874	80.3860074	0.41825934	-22.12763796
1.24	124	0.079	-0.061	-0.013	20.912967	-0.6302538	3.2085648	80.59800186	0.38961144	-22.12763796
1.25	125	0.05	0.006	-0.092	19.7097552	-4.583664	3.8961144	80.79280758	0.34950438	-22.16774502
1.26	126	0.014	0.086	-0.147	19.4232762	-8.8235532	4.1252976	80.9876133	0.29793816	-22.24222956
1.27	127	0.022	0.16	-0.153	21.6578124	-9.3392154	2.6356068	81.21106692	0.26356068	-22.32817326
1.28	128	0.068	0.223	-0.107	25.6112226	-8.7662574	0.7448454	81.46889802	0.24637194	-22.41411696
1.29	129	0.106	0.256	-0.031	29.5646328	-9.453807	-0.572958	81.77256576	0.24637194	-22.50006066
1.3	130	0.12	0.24	0.038	30.0229992	-8.8235532	-1.8907614	82.08196308	0.26356068	-22.59173394
1.31	131	0.101	0.189	0.06	27.1582092	-6.9900876	-3.437748	82.35698292	0.29220858	-22.6604889
1.32	132	0.074	0.11	0.087	25.78311	-4.583664	-5.2712136	82.6205436	0.3437748	-22.71205512
1.33	133	0.024	0.006	0.148	25.3247436	-3.6669312	-5.9014674	82.87264512	0.4010706	-22.75216218
1.34	134	0	-0.126	0.116	19.194093	-0.8021412	-4.9847346	83.07318042	0.44690724	-22.76362134
1.35	135	-0.03	-0.293	-0.067	8.9381448	1.9480572	-4.1252976	83.15339454	0.4870143	-22.7464326
1.36	136	-0.1	-0.481	-0.144	4.6409598	0.4010706	-3.2085648	83.20496076	0.52139178	-22.7464326
1.37	137	-0.116	-0.728	-0.183	1.3750992	2.0626488	-2.86479	83.21641992	0.55003968	-22.72924386
1.38	138	-0.109	-0.977	-0.295	-3.437748	7.8495246	-2.6929026	83.18204244	0.58441716	-22.65475932
1.39	139	-0.12	-1.232	-0.259	-3.0366774	9.453807	-4.1825934	83.14766496	0.63598338	-22.56881562
1.4	140	-0.139	-1.587	-0.279	-13.8655836	14.32395	-6.9327918	83.01015504	0.7161975	-22.43703528
1.41	141	-0.25	-2.011	-0.346	-26.2987722	23.5485738	-11.8029348	82.74086478	0.85370742	-22.21931124
1.42	142	-0.39	-2.274	-0.353	-29.3927454	34.950438	-17.475219	82.44292662	1.05424272	-21.89845476
1.43	143	-0.331	-2.166	-0.388	-24.923673	40.10706	-17.4179232	82.1908251	1.26623718	-21.53176164
1.44	144	-0.09	-1.93	-0.388	-16.9595568	34.7212548	-11.8029348	82.0189377	1.42093584	-21.20517558
1.45	145	0.195	-1.898	-0.355	-16.042824	21.8296998	-3.4950438	81.85850946	1.47823164	-20.9989107
1.46	146	0.382	-1.977	-0.309	-16.4438946	6.7036086	5.5003968	81.69235164	1.432395	-20.93015574
1.47	147	0.376	-2.116	-0.202	-14.037471	-5.3858052	12.2613012	81.54911214	1.30061466	-20.96453322
1.48	148	0.237	-2.257	-0.124	-13.1207382	-11.2299768	15.1260912	81.4173318	1.14018642	-21.0562065
1.49	149	0.069	-2.314	-0.097	-12.4331886	-14.5531332	15.183387	81.29128104	0.96829902	-21.17652768
1.5	150	-0.039	-2.23	-0.075	-10.1413566	-18.1627686	14.32395	81.1881486	0.80787078	-21.33695592
1.51	151	-0.067	-2.088	-0.065	-8.3651868	-21.1421502	14.6677248	81.1022049	0.63598338	-21.52030248
1.52	152	-0.045	-1.944	-0.056	-4.9274388	-25.3247436	15.2406828	81.05636826	0.45263682	-21.74948568
1.53	153	-0.012	-1.822	-0.016	1.2605076	-29.5646328	16.329303	81.06782742	0.25210152	-22.01304636
1.54	154	0	-1.72	0.024	3.9534102	-33.7472262	18.4492476	81.11366406	0.0286479	-22.3167141
1.55	155	0.026	-1.618	0.047	3.6096354	-37.1849742	20.626488	81.1595007	-0.21199446	-22.64902974
1.56	156	0.059	-1.492	0.045	4.8128472	-40.10706	22.7464326	81.2167965	-0.4870143	-23.00999328
1.57	157	0.019	-1.315	0.092	11.0007936	-43.0291458	22.4599536	81.33711768	-0.75630456	-23.39387514
1.58	158	-0.014	-1.131	0.134	13.0061466	-45.0917946	18.7357266	81.48608676	-0.99694692	-23.81213448
1.59	159	-0.051	-0.956	0.162	10.1413566	-45.3209778	14.2666542	81.60067836	-1.18602306	-24.2361234
1.6	160	-0.082	-0.796	0.165	8.0787078	-43.7739912	10.7716104	81.71526996	-1.3464513	-24.64865316
1.61	161	-0.068	-0.632	0.125	6.0733548	-40.393539	8.1360036	81.79548408	-1.47250206	-25.03253502
1.62	162	-0.041	-0.45	0.083	9.2246238	-37.2995658	7.7922288	81.9043461	-1.59282324	-25.38776898
1.63	163	-0.039	-0.294	0.076	16.3865988	-35.6952834	8.021412	82.08196308	-1.70741484	-25.7258142
1.64	164	-0.042	-0.153	0.078	21.3713334	-32.2002396	8.2505952	82.31687586	-1.82200644	-26.02948194
1.65	165	-0.08	-0.024	0.084	21.6005166	-30.9970278	6.4171296	82.55178864	-1.92513888	-26.32169052
1.66	166	-0.132	0.051	0.034	18.907614	-31.226211	1.8907614	82.7637831	-1.9767051	-26.62535826
1.67	167	-0.157	0.079	-0.007	17.5898106	-27.1009134	-3.0366774	82.95285924	-1.97097552	-26.89464852
1.68	168	-0.17	0.081	-0.029	14.6677248	-21.2567418	-8.1932994	83.11328748	-1.90795014	-27.11237256
1.69	169	-0.175	0.085	-0.07	11.5737516	-14.7823164	-11.9748222	83.23933824	-1.79908812	-27.2728008
1.7	170	-0.146	0.084	-0.099	12.6623718	-6.7036086	-13.2353298	83.35965942	-1.68449652	-27.34728534
1.71	171	-0.075	0.07	-0.097	15.469866	-1.145916	-11.5737516	83.52008766	-1.56990492	-27.37020366
1.72	172	0.001	0.055	-0.096	17.8762896	-0.8021412	-7.734933	83.69770464	-1.4896908	-27.3873924
1.73	173	0.064	0.039	-0.088	21.1421502	-2.4637194	-3.6096354	83.91542868	-1.45531332	-27.41031072
1.74	174	0.064	0.015	-0.06	24.637194	-4.9847346	0.3437748	84.1675302	-1.4610429	-27.46187694
1.75	175	0.033	-0.001	-0.033	25.7258142	-5.6149884	2.6356068	84.4253613	-1.48396122	-27.50771358
1.76	176	0.005	-0.023	-0.001	25.0382646	-1.2605076	3.0366774	84.67746282	-1.51260912	-27.51917274
1.77	177	-0.013	-0.096	0.035	19.6524594	6.5317212	3.6669312	84.87799812	-1.54125702	-27.4446882
1.78	178	-0.101	-0.27	-0.076	9.6256944	3.3231564	7.8495246	84.9696714	-1.61574156	-27.40458114
1.79	179	-0.163	-0.512	-0.435	-5.72958	4.5263682	17.3606274	84.9123756	-1.78762896	-27.34728534
1.8	180	-0.156	-0.704	-0.386	-1.718874	1.0886202	29.507337	84.86080938	-2.0912967	-27.30717828
1.81	181	-0.123	-0.971	-0.46	-9.3965112	-11.745639	32.945085	84.7691361	-2.42934192	-27.39885156
1.82	182	-0.027	-1.266	-0.648	-24.0069402	-14.2093584	32.7731976	84.53422332	-2.76165756	-27.50771358
1.83	183	0.119	-1.817	-0.679	-32.7731976	-29.5646328	37.6433406	84.21909642	-3.16272816	-27.77127426
1.84	184	0.313	-2.182	-0.556	-34.663959	-36.955791	41.539455	83.89251036	-3.60390582	-28.09786032
1.85	185	0.274	-2.072	-0.396	-20.5691922	-26.6998428	35.3515086	83.69770464	-3.97059894	-28.32704352
1.86	186	0.02	-1.828	-0.355	-13.0634424	-12.032118	26.5852512	83.57738346	-4.24561878	-28.4187168
1.87	187	-0.211	-1.805	-0.344	-13.0061466	2.1199446	18.334656	83.43987354	-4.42896534	-28.37860974
1.88	188	-0.367	-1.938	-0.369	-14.4385416	8.6516658	8.7089616	83.28517488	-4.50917946	-28.28693646
1.89	189	-0.419	-2.015	-0.299	-10.026765	10.5424272	-2.4637194	83.17631286	-4.47480198	-28.18380402
1.9	190	-0.276	-2.096	-0.202	-9.6256944	12.8342592	-12.7196676	83.06745084	-4.33729206	-28.074942
1.91	191	-0.064	-2.207	-0.112	-14.7250206	17.761698	-14.7250206	82.90129302	-4.17686382	-27.91451376
1.92	192	0.074	-2.241	-0.059	-20.5118964	23.1475032	-11.5164558	82.6778394	-4.04508348	-27.7025193
1.93	193	0.108	-2.229	-0.028	-24.1788276	26.9863218	-6.5317212	82.40854914	-3.9534102	-27.45041778
1.94	194	0.042	-2.154	0	-26.4133638	31.1116194	-3.8388186	82.11634056	-3.88465524	-27.15247962
1.95	195	-0.063	-2.08	0.007	-29.1635622	35.6952834	-6.0733548	81.7897545	-3.78725238	-26.80870482
1.96	196	-0.121	-1.973	-0.032	-33.6326346	41.1383844	-10.8289062	81.4173318	-3.6382833	-26.42482296
1.97	197	-0.142	-1.815	-0.066	-33.7472262	46.6387812	-16.6730778	81.0449091	-3.42055926	-25.99510446
1.98	198	-0.105	-1.696	-0.079	-31.6845774	51.3370368	-22.7464326	80.68967514	-3.13408026	-25.5252789
1.99	199	-0.045	-1.562	-0.113	-28.3041252	55.5196302	-25.9549974	80.36881866	-2.80176462	-25.02680544
2	200	-0.007	-1.406	-0.136	-17.475219	59.8168152	-27.3873924	80.1568242	-2.45226024	-24.48822492
2.01	201	0.042	-1.259	-0.121	-6.4171296	61.5356892	-27.7311672	80.05942134	-2.0912967	-23.93245566
2.02	202	0.092	-1.11	-0.119	2.578311	59.874111	-27.1582092	80.05942134	-1.74179232	-23.39387514
2.03	203	0.127	-0.971	-0.11	14.037471	55.003968	-26.6998428	80.1854721	-1.39801752	-22.90113126
2.04	204	0.127	-0.839	-0.077	26.2414764	50.3630082	-26.2414764	80.43184404	-1.07143146	-22.44849444
2.05	205	0.096	-0.665	0.024	37.5860448	46.5241896	-25.1528562	80.80999632	-0.75057498	-22.02450552
2.06	206	0.078	-0.557	0.162	41.8832298	41.0237928	-21.0848544	81.22252608	-0.4870143	-21.65208282
2.07	207	0.051	-0.435	0.208	33.0596766	33.518043	-14.4958374	81.55484172	-0.30366774	-21.3426855
2.08	208	0.04	-0.296	0.139	26.642547	28.361421	-9.2819196	81.8184024	-0.17761698	-21.07339524
2.09	209	0.051	-0.194	0.058	24.5226024	23.0329116	-4.5263682	82.06477434	-0.10313244	-20.84994162
2.1	210	0.058	-0.108	0.025	24.5226024	16.042824	-0.4010706	82.31114628	-0.07448454	-20.68951338
2.11	211	0.048	-0.043	0.04	27.3873924	10.9434978	3.0366774	82.5918957	-0.0859437	-20.57492178
2.12	212	0.044	-0.016	-0.009	25.496631	9.9121734	5.7868758	82.8497268	-0.13178034	-20.46605976
2.13	213	0.05	0.01	-0.021	22.1734746	6.9900876	8.307891	83.07318042	-0.20626488	-20.38584564
2.14	214	0.067	0.032	0.024	22.4026578	4.5263682	8.59437	83.30236362	-0.286479	-20.32854984
2.15	215	0.066	0.052	0.102	23.491278	6.2452422	6.302538	83.54873556	-0.33231564	-20.25979488
2.16	216	0.054	0.038	0.162	23.2620948	12.4331886	2.6356068	83.77791876	-0.34950438	-20.13374412
2.17	217	0.015	-0.01	0.151	21.8296998	20.5691922	-0.4010706	84.00137238	-0.32658606	-19.92747924
2.18	218	-0.055	-0.071	0.123	19.8816426	28.4760126	-2.86479	84.1961781	-0.27501984	-19.64672982
2.19	219	-0.112	-0.123	0.084	18.2200644	36.3255372	-4.8128472	84.37379508	-0.2005353	-19.29149586
2.2	220	-0.116	-0.158	0.045	16.8449652	42.3415962	-5.3285094	84.5399529	-0.12605076	-18.87323652
2.21	221	-0.051	-0.171	-0.002	15.3552744	43.6593996	-3.7815228	84.68892198	-0.0572958	-18.4492476
2.22	222	0.027	-0.18	-0.037	12.7196676	34.7785506	-1.5469866	84.81497274	-0.01718874	-18.1054728
2.23	223	0.159	-0.24	-0.046	6.016059	29.0489706	-3.2658606	84.87226854	0.0286479	-17.8189938
2.24	224	0.283	-0.36	-0.247	-8.1360036	25.0955604	-9.2246238	84.78632484	0.13178034	-17.57835144
2.25	225	0.307	-0.457	-0.261	-10.7143146	20.6837838	-16.2720072	84.66027408	0.33231564	-17.39500488
2.26	226	0.267	-0.571	-0.286	-15.756345	15.0114996	-20.9702628	84.49984584	0.5443101	-17.26895412
2.27	227	0.075	-0.805	-0.306	-42.7426668	-1.8907614	-26.2987722	84.06439776	0.8021412	-17.31479076
2.28	228	-0.459	-1.907	-0.4	-102.3302988	62.6816052	-52.6548402	83.02734378	1.36364004	-16.76475108
2.29	229	-1.185	-2.263	-1.144	-124.5037734	111.153852	-70.4165382	81.77829534	2.16005166	-15.77926332
2.3	230	-0.435	-1.421	-0.205	40.0497642	55.4623344	-22.2880662	82.20228426	2.44080108	-15.25787154
2.31	231	0.152	-1.312	-0.035	12.605076	18.8503182	1.7761698	82.3340646	2.44653066	-15.0687954
2.32	232	0.323	-1.627	-0.234	-26.642547	13.0061466	-0.8021412	82.07050392	2.4637194	-14.94274464
2.33	233	0.453	-1.912	-0.36	-18.1627686	17.8189938	-9.453807	81.88715736	2.578311	-14.7823164
2.34	234	0.491	-2.061	-0.26	6.5317212	13.8082878	-10.7143146	81.9616419	2.69863218	-14.66199522
2.35	235	0.402	-2.105	-0.051	10.0840608	7.2192708	-7.161975	82.06477434	2.7788463	-14.59896984
2.36	236	0.193	-2.166	-0.011	-5.2139178	-1.7761698	-4.3544808	82.01320812	2.81895336	-14.62188816
2.37	237	-0.01	-2.075	0.034	-14.2666542	-6.5317212	0.1145916	81.86423904	2.8074942	-14.69064312
2.38	238	-0.119	-1.908	0.035	-21.6578124	-3.151269	5.0993262	81.64078542	2.75592798	-14.71356144
2.39	239	-0.201	-1.737	-0.011	-24.5798982	6.2452422	8.021412	81.39441348	2.68144344	-14.64480648
2.4	240	-0.271	-1.622	-0.043	-22.2307704	17.6471064	11.172681	81.17668944	2.58404058	-14.45573034
2.41	241	-0.32	-1.527	-0.062	-19.4232762	28.5906042	15.6417534	80.9876133	2.4637194	-14.1520626
2.42	242	-0.366	-1.414	-0.084	-17.0168526	37.6433406	19.8243468	80.82718506	2.31475032	-13.75672158
2.43	243	-0.393	-1.279	-0.119	-12.2613012	45.4355694	21.6578124	80.71832304	2.16005166	-13.27543686
2.44	244	-0.397	-1.15	-0.126	-0.2291832	51.6808116	19.9962342	80.7297822	2.0340009	-12.73685634
2.45	245	-0.338	-0.98	-0.15	14.3812458	58.441716	17.5898106	80.88448086	1.9194093	-12.13525044
2.46	246	-0.247	-0.766	-0.071	47.4982182	81.9902898	18.621135	81.38295432	1.84492476	-11.29300218
2.47	247	-0.118	-0.679	0.25	64.3431834	93.6213372	18.7930224	82.05331518	1.77044022	-10.3418919
2.48	248	-0.108	-0.591	0.27	62.5097178	101.0124954	17.6471064	82.7064873	1.70741484	-9.32202666
2.49	249	-0.159	-0.561	0.267	65.7182826	109.0339074	13.6364004	83.3940369	1.67876694	-8.2219473
2.5	250	-0.178	-0.533	0.363	69.2133264	116.6542488	9.6256944	84.12742314	1.67876694	-7.05311298
2.51	251	-0.183	-0.43	0.389	67.0933818	123.5297448	6.5317212	84.8264319	1.70168526	-5.82125328
2.52	252	-0.199	-0.282	0.488	66.9787902	128.5144794	3.8961144	85.53117024	1.74179232	-4.54355694
2.53	253	-0.264	-0.11	0.528	64.2285918	132.926256	-1.432395	86.20726068	1.82200644	-3.22575354
2.54	254	-0.318	-0.019	0.403	54.4883058	142.8384294	-9.9121734	86.78594826	1.97097552	-1.81054728
2.55	255	-0.349	0.016	0.318	45.4928652	159.4542114	-17.0741484	87.2901513	2.17151082	-0.23491278
2.56	256	-0.343	0	0.195	36.4401288	173.6635698	-22.9756158	87.70841064	2.42934192	1.47250206
2.57	257	-0.239	-0.008	0.096	27.9603504	179.622333	-25.7258142	88.04645586	2.70436176	3.24294228
2.58	258	-0.023	-0.036	0.075	23.5485738	177.9607548	-25.6685184	88.3501236	2.96792244	5.00192334
2.59	259	0.212	-0.024	-0.058	18.6784308	167.8193982	-23.6631654	88.6079547	3.20283522	6.65777196
2.6	260	0.3	0.002	-0.21	18.7357266	152.2349406	-20.8556712	88.84859706	3.41482968	8.15892192
2.61	261	0.273	0.031	-0.245	26.1268848	133.8429888	-19.7097552	89.1809127	3.59817624	9.48818448
2.62	262	0.212	0.04	-0.217	36.955791	111.4976268	-21.6578124	89.6106312	3.79871154	10.59399342
2.63	263	0.222	0.019	-0.2	40.4508348	97.8612264	-26.8717302	90.07472718	4.04508348	11.56802202
2.64	264	0.301	-0.058	-0.229	37.528749	85.3134462	-31.799169	90.50444568	4.33729206	12.42172944
2.65	265	0.376	-0.174	-0.289	32.372127	76.9482594	-34.091001	90.8711388	4.66387812	13.18949316
2.66	266	0.301	-0.233	-0.328	28.934379	74.6564274	-34.6066632	91.2149136	4.97327544	13.94006814
2.67	267	0.254	-0.219	-0.305	29.1062664	76.776372	-33.9191136	91.57014756	5.2712136	14.71356144
2.68	268	0.299	-0.188	-0.256	20.9702628	78.4379502	-33.4034514	91.8451674	5.56342218	15.50424348
2.69	269	0.38	-0.302	-0.337	1.3178034	78.0941754	-33.1169724	91.92538152	5.8441716	16.29492552
2.7	270	0.536	-0.433	-0.523	-19.3659804	68.5257768	-32.658606	91.7592237	6.1592985	16.97674554
2.71	271	0.635	-0.476	-0.544	-33.6899304	46.2377106	-30.1375908	91.46128554	6.42858876	17.44084152
2.72	272	0.664	-0.609	-0.334	-48.0138804	20.9702628	-28.934379	90.99145998	6.7036086	17.65283598
2.73	273	0.747	-0.82	-0.238	-69.8435802	-3.0366774	-34.5493674	90.28099206	7.04165382	17.6184585
2.74	274	0.848	-1.088	-0.258	-92.5900128	-27.9603504	-43.3729206	89.30696346	7.47137232	17.32624992
2.75	275	0.854	-1.36	-0.337	-121.753575	-52.5402486	-49.847346	88.00061922	7.9641162	16.78193982
2.76	276	0.817	-1.534	-0.437	-153.552744	-67.7236356	-52.5402486	86.3447706	8.45686008	16.06001274
2.77	277	0.818	-1.661	-0.513	-178.3045296	-84.1675302	-52.0818822	84.41390214	8.9094969	15.16046868
2.78	278	0.9	-1.748	-0.636	-197.4413268	-110.0652318	-53.6861646	82.23666174	9.32775624	13.9801752
2.79	279	1	-1.795	-0.908	-225.2297898	-122.613012	-60.0459984	79.74429444	9.73455642	12.64518306
2.8	280	0.985	-1.758	-1.02	-231.0739614	-130.2333534	-66.749607	77.16025386	10.1413566	11.2013289
2.81	281	0.807	-1.805	-0.803	-207.5253876	-129.1447332	-70.187355	74.81112606	10.51950888	9.74601558
2.82	282	0.593	-2.146	-0.541	-209.8172196	-124.5037734	-73.5678072	72.43335036	10.886202	8.307891
2.83	283	0.482	-2.851	-0.742	-241.5590928	-119.9201094	-80.21412	69.71752944	11.2586247	6.875496
2.84	284	0.72	-3.88	-1.248	-291.9793968	-123.0713784	-79.8703452	66.47458716	11.53937412	5.39153478
2.85	285	1.519	-3.999	-1.567	-358.09875	-142.7811336	-51.5089242	62.54982486	11.39040504	3.82735944
2.86	286	1.065	-2.932	-0.759	-297.9954558	-143.2967958	-77.4066258	59.2152093	11.36748672	2.14286292
2.87	287	0.216	-1.642	-0.118	-255.539268	-98.7779592	-143.3540916	56.29885308	12.04357716	0.49847346
2.88	288	-0.429	-1.518	0.234	-262.701243	-45.0917946	-182.3152356	53.3137419	13.24678896	-0.95683986
2.89	289	-0.788	-1.42	0.611	-269.1756684	-6.875496	-168.6788352	50.31144198	14.49010782	-2.08556712
2.9	290	-0.62	-1.209	0.784	-275.1917274	20.5118964	-125.8215768	47.34924912	15.52143222	-2.7788463
2.91	291	-0.412	-1.021	0.737	-276.9106014	43.7739912	-88.8657858	44.44435206	16.40951712	-3.0939732
2.92	292	-0.21	-1.2	0.888	-253.0755486	54.43101	-74.0261736	41.82020442	17.26322454	-3.26013102
2.93	293	-0.31	-1.387	1.051	-251.7004494	64.5150708	-77.1201468	39.20178636	18.20287566	-3.42628884
2.94	294	-0.35	-0.647	0.914	-286.192521	77.7504006	-89.7825186	36.2109456	19.30295502	-3.65547204
2.95	295	-0.127	0.005	0.782	-280.4056452	76.3180056	-99.1790298	33.231564	20.43741186	-4.0393539
2.96	296	0.067	0.207	0.657	-256.5132966	69.041439	-109.721457	30.40688106	21.54895038	-4.62377106
2.97	297	0.112	0.104	0.532	-238.1786406	53.2277982	-118.3731228	27.6738714	22.54016772	-5.43737142
2.98	298	0.115	-0.082	0.46	-225.9173394	31.9710564	-123.5297448	24.97523922	23.33657934	-6.46296624
2.99	299	0.115	-0.18	0.366	-222.6514788	15.5271618	-124.5610692	22.24222956	23.94391482	-7.6203414
3	300	0.17	-0.099	0.262	-223.2817326	5.2712136	-121.2379128	19.48630158	24.40228122	-8.8235532
3.01	301	0.335	0.112	0.122	-227.8081008	-1.432395	-113.8467546	16.68453696	24.71167854	-9.9981171
3.02	302	0.534	0.386	-0.101	-233.6522724	-17.475219	-98.6060718	13.85985402	24.77470392	-11.08100772
3.03	303	0.702	0.75	-0.368	-230.615595	-44.404245	-82.2767688	11.1153852	24.49968408	-12.0607659
3.04	304	0.737	1.189	-0.658	-207.8691624	-68.0101146	-60.16059	8.69750244	23.9209965	-12.8342592
3.05	305	0.471	1.565	-1.001	-175.7262186	-80.5578948	-39.3049188	6.69787902	23.16469194	-13.39002846
3.06	306	0.103	1.767	-1.322	-141.234147	-82.219473	-36.7839036	5.07640788	22.37973948	-13.88850192
3.07	307	-0.109	1.638	-1.521	-112.9873176	-77.2920342	-47.841993	3.71849742	21.64635324	-14.47291908
3.08	308	0.043	1.18	-1.501	-91.5586884	-77.0055552	-57.2958	2.55539268	20.90723742	-15.14327994
3.09	309	0.221	0.78	-1.318	-71.7916374	-80.8443738	-56.0925882	1.61574156	20.12228496	-15.79072248
3.1	310	0.255	0.675	-1.153	-64.9161414	-77.635809	-48.5868384	0.76203414	19.35452124	-16.34076216
3.11	311	0.312	0.684	-1.094	-60.5043648	-68.182002	-43.544808	0	18.6784308	-16.8163173
3.12	312	0.441	0.677	-1.057	-46.9252602	-59.7022236	-39.8778768	-0.59587632	18.08255448	-17.2460358
3.13	313	0.503	0.663	-1.007	-37.7006364	-58.7854908	-34.8931422	-1.08289062	17.49240774	-17.61272892
3.14	314	0.526	0.624	-0.97	-29.3354496	-63.4264506	-29.3927454	-1.46677248	16.85642436	-17.91639666
3.15	315	0.505	0.63	-0.944	-29.9657034	-60.447069	-26.6998428	-1.8621135	16.25481846	-18.19714608
3.16	316	0.368	0.762	-1	-33.7472262	-52.998615	-28.1895336	-2.28037284	15.71623794	-18.48362508
3.17	317	0.221	0.913	-1.077	-30.0229992	-46.0658232	-31.8564648	-2.6642547	15.24641238	-18.80448156
3.18	318	0.197	0.955	-1.118	-17.5325148	-46.0085274	-35.1223254	-2.92781538	14.77658682	-19.14825636
3.19	319	0.275	0.855	-1.076	-8.021412	-53.0559108	-36.5547204	-3.0939732	14.23227672	-19.5092199
3.2	320	0.27	0.68	-0.988	-2.9220858	-60.5616606	-37.528749	-3.23148312	13.6077525	-19.88737218
3.21	321	0.317	0.6	-0.926	3.7815228	-64.6869582	-37.9298196	-3.27159018	12.9488508	-20.2540653
3.22	322	0.32	0.649	-0.885	10.1986524	-64.744254	-39.3622146	-3.24294228	12.2899491	-20.63221758
3.23	323	0.34	0.716	-0.995	10.8289062	-65.317212	-39.9924684	-3.20283522	11.62531782	-21.02182902
3.24	324	0.275	0.856	-1.517	19.5951636	-69.4425096	-36.4974246	-3.0653253	10.92057948	-21.37706298
3.25	325	0.343	1.02	-2.08	34.4920716	-94.0797036	-29.507337	-2.75592798	9.98092836	-21.65208282
3.26	326	0.395	1.256	-2.566	37.7579322	-129.488508	-28.5333084	-2.40069402	8.69177286	-21.92137308
3.27	327	0.756	1.642	-2.995	55.1758554	-131.7230442	-33.0596766	-1.86784308	7.38542862	-22.24222956
3.28	328	0.836	1.275	-3.023	74.0261736	-132.7543686	-0.8021412	-1.10007936	6.07908438	-22.2594183
3.29	329	-0.031	0.561	-2.589	68.5830726	-114.3624168	31.9710564	-0.36096354	4.96181628	-21.96720972
3.3	330	-0.561	0.271	-2.218	51.5089242	-73.4532156	14.7250206	0.17761698	4.2398892	-21.84115896
3.31	331	-0.399	0.293	-1.921	32.0283522	-65.603691	-6.1306506	0.50420304	3.59817624	-21.92710266
3.32	332	0.007	0.382	-1.654	12.2613012	-67.8382272	-9.6829902	0.6302538	2.92781538	-22.04742384
3.33	333	0.103	0.471	-1.477	0	-68.468481	-6.5317212	0.63598338	2.25172494	-22.13909712
3.34	334	0.034	0.496	-1.215	-2.9220858	-64.744254	-9.453807	0.61306506	1.61574156	-22.2594183
3.35	335	-0.073	0.453	-1.006	-1.5469866	-57.009321	-15.4125702	0.55576926	1.03705398	-22.4313057
3.36	336	-0.157	0.415	-0.846	-1.145916	-53.3423898	-20.9702628	0.55003968	0.5156622	-22.6604889
3.37	337	-0.158	0.378	-0.745	-0.8021412	-49.6181628	-25.8977016	0.5443101	0.0286479	-22.93550874
3.38	338	-0.09	0.344	-0.586	1.6615782	-41.539455	-29.793816	0.56722842	-0.3724227	-23.25063564
3.39	339	0.031	0.278	-0.525	2.7501984	-33.1169724	-34.37748	0.6016059	-0.69327918	-23.60014002
3.4	340	0.127	0.187	-0.593	6.0733548	-30.7678446	-36.382833	0.66463128	-0.97975818	-23.9782923
3.41	341	0.163	0.077	-0.663	6.4171296	-33.2888598	-33.8618178	0.73911582	-1.30634424	-24.32779668
3.42	342	0.124	-0.005	-0.779	3.4950438	-35.3515086	-29.3927454	0.78495246	-1.65011904	-24.637194
3.43	343	0.072	-0.05	-0.926	3.3804522	-36.7266078	-25.7258142	0.8307891	-2.005353	-24.90648426
3.44	344	0.001	-0.058	-1.028	5.5003968	-35.236917	-24.4080108	0.90527364	-2.3491278	-25.16431536
3.45	345	-0.051	-0.014	-1.109	8.307891	-29.1635622	-24.5226024	0.99694692	-2.6356068	-25.42214646
3.46	346	-0.05	0.049	-1.136	13.6364004	-21.5432208	-24.2934192	1.15164558	-2.84187168	-25.67424798
3.47	347	-0.029	0.079	-1.058	19.480572	-15.9855282	-23.4339822	1.36364004	-2.99084076	-25.91489034
3.48	348	-0.029	0.047	-0.975	20.7983754	-9.5111028	-21.4286292	1.58709366	-3.07678446	-26.13834396
3.49	349	-0.033	0.001	-0.952	19.194093	-3.8961144	-17.8189938	1.79335854	-3.10543236	-26.31596094
3.5	350	0.003	-0.047	-0.966	15.1260912	-0.572958	-15.8136408	1.95378678	-3.08824362	-26.47638918
3.51	351	0.014	-0.082	-0.984	12.032118	-1.7761698	-14.32395	2.08556712	-3.09970278	-26.62535826
3.52	352	0.074	-0.105	-0.992	8.9954406	-6.4744254	-12.2040054	2.18296998	-3.15699858	-26.75140902
3.53	353	0.007	-0.113	-0.997	6.7609044	-15.4125702	-9.3392154	2.2631841	-3.30596766	-26.85454146
3.54	354	-0.02	-0.117	-1.021	2.1199446	-20.912967	-8.307891	2.291832	-3.50650296	-26.95194432
3.55	355	-0.033	-0.113	-1.038	-1.5469866	-25.78311	-7.734933	2.29756158	-3.75860448	-27.0436176
3.56	356	-0.022	-0.116	-0.996	-4.6982556	-30.3094782	-8.1932994	2.25745452	-4.05081306	-27.14675004
3.57	357	-0.014	-0.121	-0.944	-8.5370742	-30.8251404	-10.1986524	2.18296998	-4.3544808	-27.26707122
3.58	358	0.017	-0.132	-0.911	-14.1520626	-28.5906042	-12.7196676	2.05691922	-4.63523022	-27.41031072
3.59	359	-0.018	-0.16	-0.912	-19.1367972	-27.4446882	-14.2093584	1.87930224	-4.8987909	-27.57073896
3.6	360	-0.051	-0.195	-0.901	-22.91832	-24.7517856	-14.7823164	1.67876694	-5.13943326	-27.7311672
3.61	361	-0.111	-0.248	-0.908	-26.2987722	-20.340009	-14.2666542	1.432395	-5.33996856	-27.88013628
3.62	362	-0.202	-0.279	-0.93	-27.1009134	-14.2093584	-11.172681	1.16883432	-5.48320806	-28.00045746
3.63	363	-0.19	-0.253	-0.922	-25.6112226	-8.0787078	-8.1360036	0.9167328	-5.56342218	-28.08067158
3.64	364	-0.191	-0.188	-0.935	-24.637194	-3.7815228	-6.3598338	0.67036086	-5.60352924	-28.14369696
3.65	365	-0.191	-0.104	-0.945	-24.1788276	-0.286479	-6.2452422	0.44117766	-5.63217714	-28.20672234
3.66	366	-0.186	-0.042	-0.952	-23.204799	3.6096354	-7.3338624	0.21199446	-5.59779966	-28.2754773
3.67	367	-0.196	-0.014	-0.962	-21.0275586	5.6149884	-8.4224826	0.00572958	-5.54623344	-28.35569142
3.68	368	-0.232	-0.019	-0.938	-19.8243468	5.9587632	-9.2819196	-0.18334656	-5.48893764	-28.4473647
3.69	369	-0.27	-0.043	-0.936	-20.912967	9.9694692	-10.026765	-0.38388186	-5.39153478	-28.54476756
3.7	370	-0.289	-0.049	-0.971	-21.4286292	15.8709366	-9.8548776	-0.59014674	-5.2712136	-28.63071126
3.71	371	-0.281	-0.026	-0.98	-18.5638392	19.9962342	-6.875496	-0.77922288	-5.07640788	-28.69946622
3.72	372	-0.244	0.013	-0.983	-14.2666542	20.340009	-1.6615782	-0.92246238	-4.87587258	-28.71092538
3.73	373	-0.206	0.055	-0.989	-10.4851314	17.2460358	5.0420304	-1.03705398	-4.70398518	-28.65935916
3.74	374	-0.194	0.092	-0.984	-7.6776372	11.9748222	9.2819196	-1.12299768	-4.58939358	-28.5619563
3.75	375	-0.207	0.121	-0.977	-4.870143	7.7922288	11.2299768	-1.2318597	-4.56074568	-28.44163512
3.76	376	-0.227	0.138	-0.96	-1.8334656	5.2139178	11.6310474	-1.2605076	-4.50344988	-28.32704352
3.77	377	-0.244	0.143	-0.944	0.572958	4.870143	11.5164558	-1.2605076	-4.45761324	-28.21245192
3.78	378	-0.25	0.144	-0.938	2.1772404	5.7868758	10.8289062	-1.24904844	-4.39458786	-28.1035899
3.79	379	-0.248	0.14	-0.939	3.3804522	8.021412	9.7975818	-1.22040054	-4.31437374	-28.00618704
3.8	380	-0.233	0.133	-0.951	4.1825934	11.2872726	8.307891	-1.22613012	-4.25134836	-27.91451376
3.81	381	-0.212	0.12	-0.962	3.7815228	15.0687954	6.7609044	-1.19175264	-4.10237928	-27.8457588
3.82	382	-0.18	0.112	-0.97	2.291832	19.2513888	5.6149884	-1.1745639	-3.90757356	-27.788463
3.83	383	-0.146	0.109	-0.984	1.6042824	22.345362	4.870143	-1.16883432	-3.68984952	-27.73689678
3.84	384	-0.109	0.113	-1.001	2.0626488	24.637194	4.297185	-1.15164558	-3.44347758	-27.69106014
3.85	385	-0.08	0.117	-1.006	2.291832	26.1841806	3.724227	-1.16310474	-3.18564648	-27.65095308
3.86	386	-0.048	0.124	-1.01	1.8907614	27.1009134	3.437748	-1.145916	-2.91635622	-27.61084602
3.87	387	-0.024	0.125	-1.003	1.2032118	27.2728008	3.3231564	-1.14018642	-2.64706596	-27.57646854
3.88	388	0	0.123	-1.002	0.4010706	26.8144344	3.6669312	-1.14018642	-2.38350528	-27.53636148
3.89	389	0.015	0.118	-1.003	-0.4010706	25.4393352	4.583664	-1.15164558	-2.13140376	-27.49052484
3.9	390	0.024	0.108	-1.003	-0.6302538	23.2620948	5.3285094	-1.19175264	-1.88503182	-27.43895862
3.91	391	0.032	0.095	-1.004	-1.5469866	21.2567418	5.7868758	-1.20894138	-1.67303736	-27.37593324
3.92	392	0.038	0.081	-1.006	-2.291832	19.4232762	6.1306506	-1.23758928	-1.47823164	-27.31290786
3.93	393	0.04	0.071	-1.006	-2.86479	17.475219	6.4171296	-1.27196676	-1.30634424	-27.24988248
3.94	394	0.043	0.065	-1.007	-3.0939732	15.756345	6.9327918	-1.30634424	-1.145916	-27.18112752
3.95	395	0.048	0.066	-1.009	-2.578311	14.2666542	7.3338624	-1.35791046	-0.98548776	-27.10664298
3.96	396	0.054	0.067	-1.008	-1.4896908	12.7769634	7.5630456	-1.3750992	-0.859437	-27.03215844
3.97	397	0.056	0.066	-1	-0.5156622	11.172681	7.5057498	-1.38655836	-0.7448454	-26.9576739
3.98	398	0.058	0.064	-0.995	0	9.740286	7.2192708	-1.38655836	-0.64744254	-26.88318936
3.99	399	0.059	0.062	-0.989	0.3437748	8.59437	6.9327918	-1.38655836	-0.56149884	-26.8144344
4	400	0.063	0.061	-0.988	0.1718874	7.5057498	6.4744254	-1.41520626	-0.44690724	-26.7571386
4.01	401	0.067	0.062	-0.988	0.4010706	6.6463128	5.9587632	-1.41520626	-0.37815228	-26.69411322
4.02	402	0.073	0.061	-0.987	0.5156622	6.302538	5.443101	-1.40947668	-0.3151269	-26.642547
4.03	403	0.077	0.057	-0.985	0.8021412	5.8441716	5.156622	-1.4037471	-0.2578311	-26.59098078
4.04	404	0.087	0.059	-0.987	0.2291832	5.3285094	4.6409598	-1.39801752	-0.2005353	-26.54514414
4.05	405	0.089	0.062	-0.991	-0.1718874	4.6409598	3.724227	-1.4610429	-0.06875496	-26.51649624
4.06	406	0.086	0.062	-0.994	-0.5156622	3.3231564	2.6356068	-1.46677248	-0.03437748	-26.48784834
4.07	407	0.081	0.064	-0.994	-0.859437	1.9480572	1.8334656	-1.47823164	-0.01145916	-26.4706596
4.08	408	0.068	0.065	-0.994	-0.9740286	0.7448454	1.2605076	-1.4896908	-0.00572958	-26.45920044
4.09	409	0.059	0.07	-0.998	-1.145916	-0.1718874	0.6302538	-1.50114996	-0.00572958	-26.45347086
4.1	410	0.045	0.073	-0.997	-1.0886202	-1.2605076	0.286479	-1.69595568	0.06302538	-26.45920044
4.11	411	0.036	0.077	-0.997	-1.0886202	-1.8907614	-0.0572958	-1.70741484	0.04583664	-26.45920044
4.12	412	0.022	0.079	-0.993	-0.8021412	-2.6929026	-0.5156622	-1.71314442	0.01718874	-26.46493002
4.13	413	0.011	0.082	-0.992	-0.7448454	-3.6669312	-1.0313244	-1.72460358	-0.01145916	-26.47638918
4.14	414	0.001	0.083	-0.991	-0.7448454	-4.297185	-1.6615782	-1.73033316	-0.0572958	-26.49357792
4.15	415	-0.003	0.086	-0.992	-0.5156622	-4.6982556	-2.1199446	-1.81627686	-0.1145916	-26.51076666
4.16	416	-0.009	0.088	-0.993	-0.0572958	-5.156622	-2.3491278	-1.81627686	-0.16615782	-26.53368498
4.17	417	-0.016	0.088	-0.992	0.2291832	-5.3858052	-2.5210152	-1.81054728	-0.21772404	-26.56233288
4.18	418	-0.025	0.088	-0.991	0.286479	-5.0993262	-2.5210152	-1.81054728	-0.26929026	-26.5852512
4.19	419	-0.032	0.088	-0.991	0.286479	-4.6409598	-2.8074942	-1.8048177	-0.32085648	-26.6138991
4.2	420	-0.038	0.09	-0.99	0.286479	-4.2398892	-2.9793816	-1.88503182	-0.40680018	-26.642547
4.21	421	-0.04	0.092	-0.992	0.2291832	-3.8388186	-2.9220858	-1.87930224	-0.44690724	-26.6711949
4.22	422	-0.042	0.094	-0.996	0.4583664	-3.437748	-2.6929026	-1.87357266	-0.48128472	-26.69411322
4.23	423	-0.046	0.094	-1.001	0.8021412	-3.2658606	-2.5210152	-1.86784308	-0.50993262	-26.72276112
4.24	424	-0.052	0.093	-1.005	1.3178034	-2.9220858	-2.2345362	-1.85065434	-0.5443101	-26.74567944
4.25	425	-0.056	0.091	-1.007	2.0626488	-2.3491278	-2.005353	-1.91367972	-0.6302538	-26.7571386
4.26	426	-0.056	0.088	-1.005	2.8074942	-1.6042824	-1.6615782	-1.88503182	-0.64744254	-26.77432734
4.27	427	-0.053	0.084	-1.002	3.2658606	-0.9167328	-1.3178034	-1.85065434	-0.6589017	-26.7857865
4.28	428	-0.049	0.077	-0.998	3.151269	-0.5156622	-0.859437	-1.81627686	-0.6589017	-26.79724566
4.29	429	-0.046	0.072	-0.996	2.9220858	-0.4010706	-0.2291832	-1.78762896	-0.66463128	-26.79724566
4.3	430	-0.047	0.072	-0.995	2.6929026	-0.286479	0.2291832	-1.89649098	-0.76776372	-26.7857865
4.31	431	-0.048	0.073	-0.994	2.9220858	-0.2291832	0.5156622	-1.86784308	-0.76776372	-26.78005692
4.32	432	-0.048	0.073	-0.991	2.9793816	0.1145916	0.7448454	-1.8334656	-0.76776372	-26.77432734
4.33	433	-0.046	0.071	-0.988	2.86479	0.5156622	0.9167328	-1.8048177	-0.76203414	-26.76286818
4.34	434	-0.04	0.07	-0.986	2.6929026	0.8021412	1.2605076	-1.78189938	-0.75057498	-26.75140902
4.35	435	-0.037	0.069	-0.984	2.6929026	1.0313244	1.5469866	-1.8334656	-0.78495246	-26.73422028
4.36	436	-0.036	0.069	-0.981	2.5210152	1.4896908	1.5469866	-1.81054728	-0.76776372	-26.71703154
4.37	437	-0.033	0.068	-0.98	2.4064236	2.1199446	1.6042824	-1.78189938	-0.75057498	-26.6998428
4.38	438	-0.026	0.069	-0.979	2.2345362	2.6929026	1.7761698	-1.76471064	-0.72192708	-26.68265406
4.39	439	-0.018	0.068	-0.982	2.4637194	3.0939732	2.005353	-1.73606274	-0.6875496	-26.66546532
4.4	440	-0.009	0.071	-0.986	2.8074942	3.6096354	2.2345362	-1.75898106	-0.65317212	-26.642547
4.41	441	-0.001	0.073	-0.988	3.4950438	3.8961144	2.3491278	-1.72460358	-0.61306506	-26.61962868
4.42	442	0.004	0.069	-0.985	3.7815228	3.8388186	2.4637194	-1.68449652	-0.572958	-26.59098078
4.43	443	0.008	0.063	-0.981	3.3804522	3.2658606	2.4064236	-1.65584862	-0.53858052	-26.56806246
4.44	444	0.009	0.061	-0.977	2.8074942	2.5210152	2.2345362	-1.62720072	-0.5156622	-26.54514414
4.45	445	0.006	0.062	-0.981	2.4064236	2.4064236	2.0626488	-1.66730778	-0.48128472	-26.5279554
4.46	446	0.003	0.066	-0.989	2.578311	2.4064236	1.8907614	-1.63865988	-0.4583664	-26.51076666
4.47	447	0.002	0.07	-0.994	2.7501984	2.6356068	1.718874	-1.61001198	-0.4297185	-26.49357792
4.48	448	0.006	0.073	-0.998	2.9793816	2.6929026	1.4896908	-1.58136408	-0.4010706	-26.47638918
4.49	449	0.009	0.074	-0.999	3.151269	2.3491278	1.3750992	-1.5469866	-0.37815228	-26.46493002
4.5	450	0.011	0.075	-1.001	3.151269	1.9480572	1.2032118	-1.59855282	-0.3437748	-26.45347086
4.51	451	0.007	0.075	-0.998	3.2658606	1.6042824	1.0313244	-1.56417534	-0.32658606	-26.4420117
4.52	452	0.005	0.076	-0.996	3.3231564	1.3750992	0.8021412	-1.52979786	-0.3151269	-26.43055254
4.53	453	0.002	0.076	-0.993	3.3231564	1.2032118	0.572958	-1.49542038	-0.30366774	-26.42482296
4.54	454	0	0.073	-0.993	3.151269	1.2032118	0.4583664	-1.46677248	-0.286479	-26.42482296
4.55	455	0.001	0.072	-0.991	3.2658606	1.145916	0.4583664	-1.52979786	-0.27501984	-26.41909338
4.56	456	0.005	0.072	-0.991	3.437748	0.9740286	0.572958	-1.49542038	-0.26356068	-26.4133638
4.57	457	0.009	0.071	-0.992	3.437748	0.8021412	0.6875496	-1.4610429	-0.2578311	-26.40763422
4.58	458	0.008	0.07	-0.99	3.437748	0.4583664	0.6302538	-1.42666542	-0.25210152	-26.40190464
4.59	459	0.006	0.067	-0.988	3.2085648	0.1718874	0.4583664	-1.39228794	-0.24637194	-26.39617506
4.6	460	0.002	0.067	-0.989	3.2658606	0	0.4010706	-1.48396122	-0.25210152	-26.39044548
4.61	461	0.001	0.065	-0.988	3.2658606	-0.1145916	0.3437748	-1.44958374	-0.25210152	-26.39044548
4.62	462	0.002	0.063	-0.989	3.0366774	-0.286479	0.286479	-1.42093584	-0.25210152	-26.3847159
4.63	463	0.001	0.061	-0.989	2.7501984	-0.5156622	0.1718874	-1.39228794	-0.2578311	-26.3847159
4.64	464	0.001	0.058	-0.991	2.86479	-0.572958	0.286479	-1.36364004	-0.26356068	-26.37898632
4.65	465	0	0.057	-0.99	2.86479	-0.7448454	0.286479	-1.43812458	-0.28074942	-26.37325674
4.66	466	-0.002	0.058	-0.991	2.7501984	-0.9740286	0.286479	-1.40947668	-0.29220858	-26.37325674
4.67	467	-0.002	0.059	-0.988	2.6356068	-1.3178034	0.1145916	-1.38082878	-0.30366774	-26.37325674
4.68	468	-0.004	0.059	-0.985	2.4637194	-1.4896908	-0.0572958	-1.35791046	-0.32085648	-26.37325674
4.69	469	-0.008	0.055	-0.982	2.1199446	-1.4896908	-0.1145916	-1.33499214	-0.33231564	-26.37325674
4.7	470	-0.013	0.052	-0.982	2.0626488	-1.145916	-0.0572958	-1.42093584	-0.37815228	-26.37325674
4.71	471	-0.013	0.052	-0.984	2.291832	-0.8021412	0.0572958	-1.39801752	-0.38961144	-26.37325674
4.72	472	-0.012	0.055	-0.986	2.4637194	-0.4583664	0.0572958	-1.3750992	-0.39534102	-26.37325674
4.73	473	-0.011	0.058	-0.987	2.4637194	-0.286479	0.1145916	-1.3464513	-0.39534102	-26.36752716
4.74	474	-0.009	0.06	-0.99	2.578311	-0.286479	0.0572958	-1.32353298	-0.39534102	-26.36752716
4.75	475	-0.011	0.058	-0.986	2.578311	-0.286479	0.0572958	-1.43812458	-0.44117766	-26.36752716
4.76	476	-0.014	0.057	-0.986	2.3491278	-0.1718874	0.1145916	-1.41520626	-0.44117766	-26.36179758
4.77	477	-0.015	0.057	-0.988	2.4637194	0.1145916	0.1145916	-1.39228794	-0.44117766	-26.36179758
4.78	478	-0.015	0.059	-0.99	2.7501984	0.2291832	0.2291832	-1.36364004	-0.44117766	-26.36179758
4.79	479	-0.014	0.06	-0.989	2.9220858	0.1718874	0.3437748	-1.33499214	-0.43544808	-26.356068
4.8	480	-0.017	0.058	-0.986	2.8074942	0.1718874	0.286479	-1.42666542	-0.48128472	-26.35033842
4.81	481	-0.018	0.059	-0.986	2.6929026	0.286479	0.1718874	-1.4037471	-0.47555514	-26.35033842
4.82	482	-0.017	0.057	-0.986	2.6929026	0.4583664	0.1718874	-1.3750992	-0.46982556	-26.35033842
4.83	483	-0.016	0.058	-0.989	2.6929026	0.4583664	0.286479	-1.3464513	-0.46409598	-26.34460884
4.84	484	-0.013	0.059	-0.989	2.5210152	0.6875496	0.3437748	-1.32353298	-0.4583664	-26.33887926
4.85	485	-0.01	0.058	-0.989	2.4637194	0.6875496	0.4010706	-1.4037471	-0.46982556	-26.33314968
4.86	486	-0.01	0.057	-0.988	2.4064236	0.572958	0.4583664	-1.3750992	-0.46409598	-26.33314968
4.87	487	-0.011	0.056	-0.99	2.3491278	0.4010706	0.4010706	-1.35218088	-0.4583664	-26.3274201
4.88	488	-0.009	0.055	-0.99	2.4637194	0.5156622	0.5156622	-1.32926256	-0.45263682	-26.32169052
4.89	489	-0.009	0.055	-0.988	2.4637194	0.572958	0.6875496	-1.30061466	-0.44690724	-26.31596094
4.9	490	-0.007	0.054	-0.986	2.1772404	0.6302538	0.6302538	-1.38082878	-0.45263682	-26.30450178
4.91	491	-0.006	0.052	-0.986	1.9480572	0.4583664	0.6875496	-1.36364004	-0.44690724	-26.2987722
4.92	492	-0.006	0.051	-0.986	1.9480572	0.286479	0.6302538	-1.3464513	-0.44690724	-26.29304262
4.93	493	-0.008	0.053	-0.986	1.8907614	0.286479	0.4583664	-1.32353298	-0.44117766	-26.28731304
4.94	494	-0.009	0.053	-0.986	1.8907614	0.2291832	0.4583664	-1.30634424	-0.44117766	-26.28158346
4.95	495	-0.009	0.052	-0.983	1.6042824	0.286479	0.3437748	-1.44385416	-0.46409598	-26.27585388
4.96	496	-0.009	0.052	-0.982	1.2032118	0.5156622	0.1718874	-1.432395	-0.4583664	-26.27585388
4.97	497	-0.004	0.051	-0.979	0.8021412	0.6875496	0.2291832	-1.42093584	-0.45263682	-26.27585388
4.98	498	0.001	0.052	-0.978	0.286479	0.4583664	0.3437748	-1.42093584	-0.44690724	-26.2701243
4.99	499	0.003	0.051	-0.98	0.4583664	0.1718874	0.3437748	-1.41520626	-0.44690724	-26.26439472
5	500	0.002	0.048	-0.98	0.6302538	0.4010706	0.3437748	-1.61001198	-0.43544808	-26.26439472
5.01	501	0	0.048	-0.978	0.6875496	0.4010706	0.2291832	-1.59855282	-0.4297185	-26.25866514
5.02	502	0.004	0.046	-0.973	0.3437748	0.2291832	0.1145916	-1.59855282	-0.42398892	-26.25866514
5.03	503	0.007	0.043	-0.971	-0.3437748	-0.2291832	0.1718874	-1.59855282	-0.4297185	-26.25866514
5.04	504	0.005	0.04	-0.969	-0.859437	-0.9740286	0.1145916	-1.61001198	-0.44117766	-26.25293556
5.05	505	0.003	0.042	-0.973	-1.3178034	-1.2032118	0.1145916	-1.70168526	-0.44690724	-26.25293556
5.06	506	0.001	0.047	-0.981	-1.3750992	-1.0886202	0.1718874	-1.71314442	-0.4583664	-26.25293556
5.07	507	-0.001	0.052	-0.986	-1.0313244	-0.9740286	0.2291832	-1.72460358	-0.46409598	-26.24720598
5.08	508	-0.004	0.058	-0.988	-0.9167328	-0.6302538	0.1145916	-1.73606274	-0.47555514	-26.24720598
5.09	509	-0.006	0.061	-0.987	-0.6302538	-0.3437748	0	-1.74179232	-0.47555514	-26.24720598
5.1	510	-0.008	0.059	-0.986	-0.4583664	-0.2291832	-0.1718874	-2.04546006	-0.53858052	-26.2414764
5.11	511	-0.009	0.056	-0.986	-0.3437748	-0.2291832	-0.2291832	-2.05118964	-0.53858052	-26.24720598
5.12	512	-0.012	0.056	-0.983	-0.4010706	-0.3437748	-0.2291832	-2.05118964	-0.5443101	-26.24720598
5.13	513	-0.013	0.057	-0.983	-0.8021412	-0.4010706	-0.3437748	-2.0626488	-0.55003968	-26.25293556
5.14	514	-0.013	0.058	-0.982	-0.9740286	-0.3437748	-0.2291832	-2.07410796	-0.55576926	-26.25293556
5.15	515	-0.014	0.059	-0.985	-1.2032118	-0.286479	-0.286479	-2.21734746	-0.59587632	-26.25293556
5.16	516	-0.013	0.06	-0.986	-1.3750992	-0.1718874	-0.286479	-2.2345362	-0.59587632	-26.25866514
5.17	517	-0.01	0.06	-0.988	-1.3750992	-0.1145916	-0.1718874	-2.24599536	-0.6016059	-26.25866514
5.18	518	-0.007	0.059	-0.99	-1.2032118	-0.2291832	-0.0572958	-2.25745452	-0.6016059	-26.25866514
5.19	519	-0.006	0.057	-0.992	-1.145916	-0.286479	0	-2.27464326	-0.60733548	-26.25866514
5.2	520	-0.007	0.056	-0.992	-0.9740286	-0.4583664	0	-2.42361234	-0.63598338	-26.25293556
5.21	521	-0.008	0.057	-0.991	-0.9167328	-0.3437748	0.0572958	-2.42934192	-0.63598338	-26.25293556
5.22	522	-0.007	0.056	-0.992	-0.7448454	-0.3437748	0.1718874	-2.44080108	-0.64171296	-26.25293556
5.23	523	-0.007	0.056	-0.99	-0.7448454	-0.2291832	0.2291832	-2.44653066	-0.64744254	-26.24720598
5.24	524	-0.008	0.054	-0.991	-0.859437	-0.1145916	0.286479	-2.45798982	-0.64744254	-26.24720598
5.25	525	-0.009	0.054	-0.99	-1.0313244	-0.1718874	0.1145916	-2.60122932	-0.67609044	-26.2414764
5.26	526	-0.009	0.055	-0.988	-1.145916	-0.286479	0	-2.61268848	-0.68182002	-26.2414764
5.27	527	-0.011	0.054	-0.985	-1.2605076	-0.286479	-0.1718874	-2.62414764	-0.6875496	-26.2414764
5.28	528	-0.011	0.053	-0.986	-1.5469866	-0.286479	-0.286479	-2.64133638	-0.6875496	-26.24720598
5.29	529	-0.008	0.056	-0.985	-1.6615782	-0.2291832	-0.4010706	-2.65852512	-0.69327918	-26.25293556
5.3	530	-0.006	0.06	-0.986	-1.6615782	-0.0572958	-0.4583664	-2.76738714	-0.69900876	-26.25293556
5.31	531	-0.004	0.063	-0.985	-1.7761698	-0.1718874	-0.572958	-2.78457588	-0.69900876	-26.25866514
5.32	532	0	0.066	-0.988	-1.718874	-0.1718874	-0.572958	-2.80176462	-0.70473834	-26.26439472
5.33	533	0	0.066	-0.99	-1.3178034	-0.3437748	-0.5156622	-2.81322378	-0.70473834	-26.2701243
5.34	534	-0.001	0.066	-0.989	-1.145916	-0.4583664	-0.5156622	-2.82468294	-0.71046792	-26.27585388
5.35	535	-0.003	0.067	-0.989	-1.0313244	-0.4583664	-0.572958	-2.94500412	-0.7161975	-26.28158346
5.36	536	-0.007	0.066	-0.989	-0.6302538	-0.5156622	-0.4583664	-2.95646328	-0.72192708	-26.28158346
5.37	537	-0.009	0.066	-0.987	-0.4583664	-0.4010706	-0.4583664	-2.95646328	-0.72765666	-26.28731304
5.38	538	-0.012	0.067	-0.986	-0.5156622	-0.2291832	-0.4583664	-2.96219286	-0.73338624	-26.29304262
5.39	539	-0.012	0.068	-0.987	-0.5156622	-0.1145916	-0.572958	-2.96792244	-0.73338624	-26.2987722
5.4	540	-0.012	0.066	-0.988	-0.5156622	0	-0.572958	-3.12835068	-0.76776372	-26.2987722
5.41	541	-0.013	0.065	-0.991	-0.4010706	0.0572958	-0.572958	-3.13408026	-0.76776372	-26.30450178
5.42	542	-0.012	0.064	-0.991	-0.3437748	0.0572958	-0.4010706	-3.13980984	-0.76776372	-26.31023136
5.43	543	-0.011	0.066	-0.992	-0.286479	0	-0.3437748	-3.13980984	-0.76776372	-26.31596094
5.44	544	-0.011	0.068	-0.992	0.2291832	0.286479	0	-3.13980984	-0.76776372	-26.31596094
5.45	545	-0.009	0.07	-0.992	0.5156622	0.4583664	0.0572958	-3.2945085	-0.7734933	-26.31023136
5.46	546	-0.008	0.07	-0.993	0.6302538	0.3437748	0.0572958	-3.28877892	-0.76776372	-26.31023136
5.47	547	-0.008	0.067	-0.991	0.6302538	0.286479	0.0572958	-3.28304934	-0.76203414	-26.31023136
5.48	548	-0.007	0.065	-0.989	0.6875496	0.286479	0.1718874	-3.27731976	-0.76203414	-26.31023136
5.49	549	-0.009	0.062	-0.986	0.572958	0.0572958	0.286479	-3.27159018	-0.76203414	-26.30450178
5.5	550	-0.011	0.065	-0.987	0.4583664	0.1145916	0.1718874	-3.4091001	-0.8021412	-26.2987722
5.51	551	-0.011	0.066	-0.987	0.5156622	0.2291832	0.1718874	-3.40337052	-0.8021412	-26.2987722
5.52	552	-0.012	0.068	-0.986	0.3437748	0.1718874	0.1718874	-3.40337052	-0.79641162	-26.29304262
5.53	553	-0.011	0.066	-0.989	0.3437748	0.1145916	0.1718874	-3.39764094	-0.79641162	-26.29304262
5.54	554	-0.014	0.065	-0.99	0.5156622	0.1145916	0.286479	-3.39191136	-0.79641162	-26.29304262
5.55	555	-0.012	0.066	-0.993	0.9167328	0.1718874	0.286479	-3.47785506	-0.81360036	-26.28731304
5.56	556	-0.015	0.062	-0.987	0.6875496	0	0.2291832	-3.4663959	-0.81360036	-26.28158346
5.57	557	-0.016	0.064	-0.986	0.4010706	0.3437748	0.1718874	-3.4663959	-0.80787078	-26.28158346
5.58	558	-0.013	0.064	-0.984	-0.1718874	0.572958	0.0572958	-3.4663959	-0.8021412	-26.28158346
5.59	559	-0.006	0.068	-0.985	-0.7448454	0.572958	0.1718874	-3.47212548	-0.79641162	-26.27585388
5.6	560	0	0.069	-0.992	-0.7448454	0.4010706	0.286479	-3.5809875	-0.76776372	-26.27585388
5.61	561	0.002	0.071	-0.997	-0.2291832	0.1145916	0.4010706	-3.5809875	-0.76776372	-26.2701243
5.62	562	0.003	0.071	-0.998	0.4583664	-0.1145916	0.3437748	-3.57525792	-0.76776372	-26.26439472
5.63	563	0.004	0.068	-0.989	0.572958	-0.572958	0.4010706	-3.56952834	-0.7734933	-26.26439472
5.64	564	0	0.063	-0.981	0	-1.0886202	0.5156622	-3.56952834	-0.78495246	-26.25866514
5.65	565	-0.006	0.064	-0.978	-0.859437	-1.5469866	0.5156622	-3.61536498	-0.80787078	-26.24720598
5.66	566	-0.015	0.067	-0.982	-1.145916	-1.4896908	0.286479	-3.62682414	-0.82505952	-26.24720598
5.67	567	-0.019	0.069	-0.984	-1.0886202	-1.0313244	0.1145916	-3.6382833	-0.83651868	-26.2414764
5.68	568	-0.017	0.072	-0.985	-0.859437	-0.4583664	0.0572958	-3.64974246	-0.83651868	-26.2414764
5.69	569	-0.014	0.076	-0.988	-0.572958	-0.1145916	0.1145916	-3.65547204	-0.84224826	-26.2414764
5.7	570	-0.011	0.078	-0.991	-0.2291832	-0.1145916	0.1718874	-3.95913978	-0.8880849	-26.23001724
5.71	571	-0.012	0.08	-0.993	0.1145916	0	0.1145916	-3.95913978	-0.8880849	-26.23001724
5.72	572	-0.013	0.081	-0.993	0.4010706	0.0572958	-0.0572958	-3.9534102	-0.8880849	-26.23001724
5.73	573	-0.016	0.08	-0.99	0.6875496	0.2291832	-0.0572958	-3.94768062	-0.88235532	-26.23574682
5.74	574	-0.017	0.08	-0.99	0.859437	0.286479	0	-3.93622146	-0.88235532	-26.23574682
5.75	575	-0.018	0.078	-0.99	0.9740286	0.4583664	0.0572958	-4.010706	-0.90527364	-26.23001724
5.76	576	-0.015	0.077	-0.989	0.9740286	0.6875496	0.0572958	-4.00497642	-0.89954406	-26.23001724
5.77	577	-0.012	0.077	-0.992	0.9740286	0.8021412	0.2291832	-3.99351726	-0.8880849	-26.23001724
5.78	578	-0.01	0.077	-0.992	1.145916	0.6302538	0.286479	-3.9820581	-0.88235532	-26.22428766
5.79	579	-0.011	0.076	-0.992	1.0886202	0.3437748	0.3437748	-3.97059894	-0.87662574	-26.22428766
5.8	580	-0.011	0.076	-0.991	0.9740286	0.4010706	0.286479	-4.03362432	-0.88235532	-26.21855808
5.81	581	-0.011	0.075	-0.99	0.9167328	0.3437748	0.4010706	-4.02216516	-0.88235532	-26.2128285
5.82	582	-0.012	0.074	-0.99	0.8021412	0.1718874	0.4583664	-4.01643558	-0.87662574	-26.20709892
5.83	583	-0.013	0.073	-0.989	0.859437	0.1145916	0.572958	-4.00497642	-0.87662574	-26.20136934
5.84	584	-0.013	0.073	-0.99	0.859437	0.1145916	0.572958	-3.99351726	-0.87662574	-26.19563976
5.85	585	-0.014	0.074	-0.99	0.9740286	0.1718874	0.4583664	-4.06227222	-0.89381448	-26.18991018
5.86	586	-0.015	0.073	-0.989	1.145916	0.1718874	0.4010706	-4.04508348	-0.89381448	-26.1841806
5.87	587	-0.015	0.072	-0.987	1.2605076	0.3437748	0.3437748	-4.03362432	-0.8880849	-26.1841806
5.88	588	-0.015	0.071	-0.983	1.145916	0.572958	0.2291832	-4.02216516	-0.88235532	-26.17845102
5.89	589	-0.013	0.072	-0.984	0.9740286	0.8021412	0.1718874	-4.010706	-0.87089616	-26.17845102
5.9	590	-0.009	0.072	-0.985	1.0886202	0.8021412	0.3437748	-4.04508348	-0.86516658	-26.17272144
5.91	591	-0.008	0.072	-0.987	0.9740286	0.859437	0.4010706	-4.03362432	-0.859437	-26.17272144
5.92	592	-0.007	0.073	-0.989	1.0313244	0.8021412	0.5156622	-4.02789474	-0.84797784	-26.16699186
5.93	593	-0.008	0.074	-0.989	1.2032118	0.7448454	0.4583664	-4.010706	-0.84224826	-26.16126228
5.94	594	-0.008	0.076	-0.989	1.0886202	0.6875496	0.4010706	-3.99924684	-0.8307891	-26.1555327
5.95	595	-0.008	0.079	-0.988	1.0886202	0.7448454	0.4583664	-4.05081306	-0.8307891	-26.14980312
5.96	596	-0.008	0.079	-0.989	0.859437	0.7448454	0.3437748	-4.0393539	-0.81932994	-26.14980312
5.97	597	-0.009	0.079	-0.989	0.9740286	0.6302538	0.3437748	-4.02789474	-0.81360036	-26.14407354
5.98	598	-0.009	0.079	-0.991	1.145916	0.572958	0.3437748	-4.01643558	-0.80787078	-26.14407354
5.99	599	-0.011	0.08	-0.991	1.432395	0.4583664	0.4583664	-4.00497642	-0.8021412	-26.13834396
6	600	-0.014	0.079	-0.99	1.718874	0.5156622	0.4583664	-4.03362432	-0.81360036	-26.13261438
6.01	601	-0.017	0.079	-0.99	1.7761698	0.6875496	0.286479	-4.01643558	-0.8021412	-26.1268848
6.02	602	-0.017	0.078	-0.991	1.7761698	0.859437	0.1718874	-3.99924684	-0.79641162	-26.1268848
6.03	603	-0.015	0.078	-0.993	1.9480572	0.9167328	0.1718874	-3.97632852	-0.78495246	-26.1268848
6.04	604	-0.012	0.08	-0.992	1.8334656	1.2032118	0.286479	-3.95913978	-0.7734933	-26.12115522
6.05	605	-0.008	0.081	-0.995	2.1199446	1.0886202	0.4010706	-3.97632852	-0.76776372	-26.12115522
6.06	606	-0.006	0.081	-0.996	2.1772404	0.859437	0.5156622	-3.9534102	-0.75630456	-26.11542564
6.07	607	-0.007	0.08	-0.996	2.2345362	0.6875496	0.5156622	-3.93049188	-0.75057498	-26.10969606
6.08	608	-0.008	0.08	-0.996	2.4637194	0.6875496	0.4583664	-3.90184398	-0.73911582	-26.10396648
6.09	609	-0.009	0.079	-0.996	2.8074942	0.7448454	0.4583664	-3.87319608	-0.73338624	-26.0982369
6.1	610	-0.009	0.079	-0.994	2.7501984	0.859437	0.4583664	-3.87892566	-0.72765666	-26.0982369
6.11	611	-0.009	0.076	-0.992	2.8074942	0.8021412	0.5156622	-3.85027776	-0.72192708	-26.09250732
6.12	612	-0.007	0.075	-0.991	2.6929026	0.7448454	0.572958	-3.82162986	-0.71046792	-26.08677774
6.13	613	-0.007	0.073	-0.989	2.7501984	0.6875496	0.6302538	-3.79298196	-0.70473834	-26.08104816
6.14	614	-0.008	0.072	-0.989	2.7501984	0.4010706	0.572958	-3.77006364	-0.69900876	-26.07531858
6.15	615	-0.009	0.074	-0.989	2.8074942	0.4583664	0.572958	-3.77006364	-0.69900876	-26.069589
6.16	616	-0.009	0.075	-0.99	3.0366774	0.5156622	0.5156622	-3.74141574	-0.69327918	-26.06385942
6.17	617	-0.009	0.076	-0.989	3.151269	0.6302538	0.572958	-3.70703826	-0.6875496	-26.05812984
6.18	618	-0.011	0.076	-0.989	3.2085648	0.572958	0.572958	-3.67266078	-0.68182002	-26.05240026
6.19	619	-0.013	0.076	-0.989	3.3804522	0.6875496	0.572958	-3.64401288	-0.67036086	-26.04667068
6.2	620	-0.014	0.073	-0.988	3.3804522	0.859437	0.4010706	-3.6382833	-0.67609044	-26.0409411
6.21	621	-0.011	0.074	-0.99	3.0366774	0.9167328	0.3437748	-3.60390582	-0.66463128	-26.0409411
6.22	622	-0.009	0.075	-0.994	3.4950438	0.9740286	0.3437748	-3.56952834	-0.65317212	-26.03521152
6.23	623	-0.007	0.075	-0.997	4.010706	0.9740286	0.4010706	-3.52942128	-0.64171296	-26.03521152
6.24	624	-0.006	0.072	-0.995	4.5263682	1.2032118	0.5156622	-3.48358464	-0.6302538	-26.02948194
6.25	625	-0.006	0.067	-0.985	4.5263682	1.0886202	0.6302538	-3.45493674	-0.61879464	-26.02375236
6.26	626	-0.006	0.063	-0.979	3.724227	0.7448454	0.6875496	-3.42055926	-0.61306506	-26.01802278
6.27	627	-0.005	0.063	-0.979	2.9793816	0.2291832	0.572958	-3.38618178	-0.60733548	-26.0122932
6.28	628	-0.009	0.065	-0.983	2.6929026	-0.0572958	0.5156622	-3.36326346	-0.60733548	-26.00656362
6.29	629	-0.012	0.065	-0.985	2.291832	0.2291832	0.4010706	-3.33461556	-0.60733548	-26.00083404
6.3	630	-0.011	0.067	-0.99	2.291832	0.286479	0.5156622	-3.3518043	-0.61306506	-25.99510446
6.31	631	-0.006	0.071	-0.993	2.8074942	0.3437748	0.6875496	-3.3231564	-0.60733548	-25.98937488
6.32	632	-0.005	0.075	-0.993	3.151269	0.4010706	0.7448454	-3.2945085	-0.6016059	-25.9836453
6.33	633	-0.006	0.077	-0.994	3.2658606	0.4010706	0.6875496	-3.26013102	-0.6016059	-25.97218614
6.34	634	-0.01	0.078	-0.993	3.5523396	0.4010706	0.572958	-3.22575354	-0.59587632	-25.96645656
6.35	635	-0.012	0.077	-0.991	3.6669312	0.4583664	0.5156622	-3.22575354	-0.6016059	-25.96072698
6.36	636	-0.013	0.075	-0.989	3.6669312	0.6875496	0.5156622	-3.19137606	-0.59014674	-25.96072698
6.37	637	-0.013	0.071	-0.99	3.8388186	0.9167328	0.572958	-3.151269	-0.58441716	-25.9549974
6.38	638	-0.011	0.071	-0.99	3.9534102	0.9740286	0.6302538	-3.11116194	-0.572958	-25.94926782
6.39	639	-0.008	0.072	-0.991	4.0680018	1.0886202	0.5156622	-3.07105488	-0.56149884	-25.94353824
6.4	640	-0.005	0.072	-0.991	4.1825934	1.0313244	0.6875496	-3.05959572	-0.55003968	-25.93780866
6.41	641	-0.003	0.071	-0.992	4.1825934	0.8021412	0.859437	-3.01375908	-0.53858052	-25.9263495
6.42	642	-0.005	0.067	-0.992	4.010706	0.6875496	0.7448454	-2.97365202	-0.53285094	-25.92061992
6.43	643	-0.004	0.067	-0.994	4.010706	0.572958	0.6875496	-2.93354496	-0.52712136	-25.91489034
6.44	644	-0.004	0.065	-0.993	4.0680018	0.4583664	0.6302538	-2.8934379	-0.52139178	-25.90916076
6.45	645	-0.003	0.061	-0.99	3.7815228	0.286479	0.6302538	-2.88770832	-0.52139178	-25.90343118
6.46	646	-0.006	0.06	-0.989	3.437748	-0.1145916	0.6302538	-2.85333084	-0.52139178	-25.89197202
6.47	647	-0.007	0.06	-0.989	3.3804522	-0.286479	0.5156622	-2.81895336	-0.52139178	-25.89197202
6.48	648	-0.007	0.061	-0.991	3.4950438	-0.1718874	0.4583664	-2.7788463	-0.52712136	-25.88624244
6.49	649	-0.007	0.061	-0.991	3.7815228	-0.1145916	0.5156622	-2.74446882	-0.52712136	-25.88051286
6.5	650	-0.005	0.059	-0.989	3.5523396	-0.2291832	0.4010706	-2.73873924	-0.53285094	-25.87478328
6.51	651	-0.006	0.058	-0.989	3.4950438	-0.286479	0.3437748	-2.70436176	-0.53858052	-25.87478328
6.52	652	-0.007	0.056	-0.988	3.724227	-0.3437748	0.1718874	-2.6642547	-0.53858052	-25.8690537
6.53	653	-0.008	0.057	-0.986	3.437748	0	0.1145916	-2.62987722	-0.53858052	-25.8690537
6.54	654	-0.005	0.059	-0.986	3.437748	0.0572958	0.2291832	-2.59549974	-0.53858052	-25.8690537
6.55	655	-0.003	0.061	-0.989	3.6096354	0.1145916	0.4010706	-2.60122932	-0.53858052	-25.86332412
6.56	656	-0.001	0.063	-0.989	3.724227	0.1718874	0.5156622	-2.56112226	-0.53285094	-25.85759454
6.57	657	-0.004	0.063	-0.988	3.6669312	0.0572958	0.5156622	-2.52674478	-0.53285094	-25.85186496
6.58	658	-0.006	0.063	-0.989	3.6669312	-0.0572958	0.4583664	-2.48663772	-0.53285094	-25.84613538
