TimeStamp(s)	FrameCounter	AccX	AccY	AccZ	GyrX	GyrY	GyrZ	EulerX	EulerY	EulerZ
0.01	1	-0.024	-0.993	0.156	1.0886202	-0.1718874	-0.4583664	102.2214368	-1.34072172	-32.69871306
0.02	2	-0.021	-0.997	0.134	1.0313244	-0.2291832	-0.2291832	102.2328959	-1.34072172	-32.69871306
0.03	3	-0.021	-0.997	0.134	1.145916	-0.286479	-0.1718874	102.2443551	-1.33499214	-32.70444264
0.04	4	-0.022	-0.997	0.135	1.432395	-0.4010706	-0.1718874	102.2615438	-1.33499214	-32.70444264
0.05	5	-0.021	-0.998	0.137	1.5469866	-0.572958	-0.1145916	102.095386	-1.31207382	-32.67006516
0.06	6	-0.02	-1	0.137	1.5469866	-0.6875496	-0.1718874	102.1125748	-1.30634424	-32.67579474
0.07	7	-0.019	-1	0.137	1.432395	-0.9167328	-0.1718874	102.1240339	-1.30634424	-32.68152432
0.08	8	-0.019	-1.002	0.137	1.2605076	-0.9167328	-0.1145916	102.1412227	-1.30061466	-32.6872539
0.09	9	-0.019	-1	0.136	1.2605076	-0.8021412	-0.1145916	102.1526818	-1.29488508	-32.69871306
0.1	10	-0.02	-0.999	0.133	1.3750992	-0.6875496	-0.1145916	101.9750648	-1.28342592	-32.658606
0.11	11	-0.022	-0.996	0.133	1.5469866	-0.7448454	-0.1145916	101.9922536	-1.27769634	-32.67006516
0.12	12	-0.022	-0.996	0.133	1.6042824	-0.6302538	-0.0572958	102.0094423	-1.27769634	-32.67579474
0.13	13	-0.022	-0.998	0.132	1.7761698	-0.4583664	-0.0572958	102.0266311	-1.27196676	-32.67579474
0.14	14	-0.024	-0.998	0.132	1.6042824	-0.6302538	-0.1718874	102.0438198	-1.27196676	-32.68152432
0.15	15	-0.024	-0.997	0.132	0.6875496	-0.5156622	0	101.6198309	-1.25477802	-32.6013102
0.16	16	-0.023	-0.994	0.134	0.5156622	-0.5156622	0.0572958	101.63129	-1.25477802	-32.60703978
0.17	17	-0.023	-0.996	0.133	0.572958	-0.286479	0.0572958	101.6370196	-1.25477802	-32.60703978
0.18	18	-0.024	-0.999	0.135	0.7448454	-0.1718874	0.0572958	101.6427492	-1.25477802	-32.61276936
0.19	19	-0.023	-1.002	0.135	0.7448454	-0.0572958	0	101.6484788	-1.25477802	-32.61276936
0.2	20	-0.02	-1.005	0.136	0.6302538	-0.1718874	0	101.2073011	-1.21467096	-32.50963692
0.21	21	-0.021	-1.005	0.136	0.5156622	0	0	101.2130307	-1.21467096	-32.50963692
0.22	22	-0.022	-1.006	0.138	0.3437748	0.2291832	0.1145916	101.2187603	-1.21467096	-32.50390734
0.23	23	-0.021	-1.006	0.14	0.1718874	0.4583664	0.1718874	101.2187603	-1.22040054	-32.50390734
0.24	24	-0.018	-1.003	0.139	-0.0572958	0.2291832	0.286479	101.2187603	-1.22040054	-32.49817776
0.25	25	-0.015	-1.003	0.136	-0.5156622	-0.0572958	0.1718874	100.9036334	-1.18029348	-32.42369322
0.26	26	-0.015	-1.002	0.133	-0.6875496	-0.4010706	0.1145916	100.8979038	-1.18029348	-32.4294228
0.27	27	-0.017	-0.999	0.132	-0.6302538	-0.6302538	0	100.8864446	-1.18029348	-32.43515238
0.28	28	-0.019	-0.998	0.133	-0.7448454	-0.572958	-0.0572958	100.8807151	-1.18029348	-32.44088196
0.29	29	-0.02	-1.001	0.132	-1.0313244	-0.5156622	-0.0572958	100.8692559	-1.18029348	-32.44661154
0.3	30	-0.022	-1.005	0.131	-1.2605076	-0.4010706	-0.0572958	100.6801798	-1.16883432	-32.41223406
0.31	31	-0.021	-1.006	0.13	-1.432395	-0.3437748	-0.1145916	100.6687206	-1.16310474	-32.41796364
0.32	32	-0.02	-1.009	0.13	-1.6042824	-0.5156622	0	100.6515319	-1.16310474	-32.42369322
0.33	33	-0.021	-1.01	0.127	-1.8334656	-0.572958	0	100.6343431	-1.16310474	-32.4294228
0.34	34	-0.022	-1.008	0.127	-2.2345362	-0.572958	0	100.6114248	-1.16310474	-32.43515238
0.35	35	-0.024	-1.008	0.125	-2.8074942	-0.5156622	-0.2291832	100.4796445	-1.15737516	-32.42369322
0.36	36	-0.023	-1.008	0.12	-3.3231564	-0.2291832	-0.4010706	100.4509966	-1.15164558	-32.42369322
0.37	37	-0.021	-1.009	0.115	-3.724227	-0.1145916	-0.3437748	100.4108895	-1.145916	-32.42369322
0.38	38	-0.017	-1.01	0.112	-4.0680018	-0.286479	-0.1718874	100.3707824	-1.145916	-32.4294228
0.39	39	-0.016	-1.011	0.109	-4.3544808	-0.4583664	0	100.3249458	-1.14018642	-32.43515238
0.4	40	-0.018	-1.012	0.106	-4.7555514	-0.7448454	0	100.2046246	-1.13445684	-32.4294228
0.41	41	-0.021	-1.013	0.107	-5.2139178	-0.6875496	-0.0572958	100.1530584	-1.13445684	-32.43515238
0.42	42	-0.024	-1.016	0.107	-5.9014674	-0.2291832	-0.3437748	100.090033	-1.12872726	-32.43515238
0.43	43	-0.025	-1.015	0.105	-6.7036086	0.286479	-0.572958	100.0212781	-1.12299768	-32.43515238
0.44	44	-0.024	-1.015	0.1	-7.6776372	0.6875496	-0.572958	99.94679352	-1.12299768	-32.4294228
0.45	45	-0.023	-1.015	0.097	-8.4797784	0.6875496	-0.6302538	99.81501318	-1.1172681	-32.41223406
0.46	46	-0.02	-1.016	0.091	-9.3965112	0.7448454	-0.572958	99.71761032	-1.11153852	-32.40650448
0.47	47	-0.018	-1.015	0.086	-10.026765	0.6302538	-0.5156622	99.61447788	-1.11153852	-32.4007749
0.48	48	-0.016	-1.012	0.079	-10.7143146	0.5156622	-0.572958	99.50561586	-1.10580894	-32.39504532
0.49	49	-0.015	-1.011	0.073	-11.2872726	0.2291832	-0.4583664	99.39102426	-1.10007936	-32.39504532
0.5	50	-0.015	-1.012	0.068	-11.8602306	-0.0572958	-0.5156622	99.23059602	-1.09434978	-32.38358616
0.51	51	-0.018	-1.016	0.064	-12.605076	-0.1145916	-0.572958	99.09881568	-1.0886202	-32.38931574
0.52	52	-0.017	-1.019	0.06	-13.2353298	-0.1145916	-0.6302538	98.96703534	-1.08289062	-32.38931574
0.53	53	-0.016	-1.019	0.051	-13.2926256	-0.2291832	-0.6302538	98.82952542	-1.07716104	-32.38931574
0.54	54	-0.016	-1.013	0.049	-12.9488508	-0.6875496	-0.4010706	98.69774508	-1.07143146	-32.4007749
0.55	55	-0.015	-1.009	0.052	-13.1207382	-1.2605076	-0.2291832	98.53158726	-1.06570188	-32.40650448
0.56	56	-0.017	-1.013	0.051	-13.5791046	-1.432395	-0.3437748	98.39407734	-1.0599723	-32.42369322
0.57	57	-0.021	-1.016	0.054	-14.1520626	-1.432395	-0.6875496	98.25083784	-1.04851314	-32.43515238
0.58	58	-0.024	-1.024	0.059	-15.6990492	-1.5469866	-1.145916	98.0904096	-1.03705398	-32.45234112
0.59	59	-0.024	-1.032	0.054	-17.761698	-1.7761698	-1.4896908	97.91279262	-1.01986524	-32.46952986
0.6	60	-0.025	-1.036	0.045	-20.340009	-1.9480572	-1.8907614	97.68360942	-1.0026765	-32.4867186
0.61	61	-0.026	-1.034	0.044	-23.2620948	-2.0626488	-2.1772404	97.44869664	-0.97975818	-32.50390734
0.62	62	-0.027	-1.026	0.038	-26.4133638	-2.291832	-2.3491278	97.17940638	-0.95111028	-32.52682566
0.63	63	-0.027	-1.014	0.024	-28.9916748	-2.4637194	-2.6929026	96.8871978	-0.92246238	-32.55547356
0.64	64	-0.029	-1.006	0.014	-30.939732	-2.86479	-3.151269	96.5720709	-0.8880849	-32.58412146
0.65	65	-0.036	-0.999	0.004	-33.0023808	-2.7501984	-3.724227	96.22256652	-0.85370742	-32.60703978
0.66	66	-0.042	-1.002	-0.01	-34.663959	-1.432395	-4.5263682	95.87306214	-0.80787078	-32.62422852
0.67	67	-0.044	-0.998	-0.006	-36.1536498	-0.8021412	-4.870143	95.50636902	-0.76203414	-32.6299581
0.68	68	-0.043	-0.987	0	-37.7579322	0.4583664	-5.0993262	95.12248716	-0.7161975	-32.62422852
0.69	69	-0.038	-0.981	-0.011	-40.2789474	2.578311	-5.2712136	94.7099574	-0.67036086	-32.6013102
0.7	70	-0.029	-0.981	-0.014	-43.831287	4.4117766	-4.9847346	94.25732058	-0.62452422	-32.55547356
0.71	71	-0.017	-0.965	-0.022	-48.1857678	5.0993262	-4.297185	93.7645767	-0.59014674	-32.50963692
0.72	72	-0.003	-0.943	-0.057	-51.9672906	5.72958	-3.3231564	93.23745534	-0.56722842	-32.4580707
0.73	73	0	-0.922	-0.084	-53.3996856	6.302538	-2.7501984	92.69314524	-0.55003968	-32.4007749
0.74	74	0	-0.893	-0.093	-52.998615	7.161975	-2.4637194	92.15456472	-0.53285094	-32.33201994
0.75	75	-0.001	-0.887	-0.097	-52.0245864	7.161975	-2.005353	91.61025462	-0.52139178	-32.26326498
0.76	76	0	-0.889	-0.093	-52.8840234	6.8182002	-1.432395	91.0716741	-0.5156622	-32.20596918
0.77	77	0	-0.896	-0.071	-54.5456016	6.1306506	-0.8021412	90.51590484	-0.50993262	-32.14867338
0.78	78	0.004	-0.912	-0.06	-58.0406454	4.6409598	-0.572958	89.9257581	-0.50993262	-32.10856632
0.79	79	-0.006	-0.918	-0.057	-61.8221682	3.151269	-0.9167328	89.30123388	-0.50993262	-32.085648
0.8	80	-0.019	-0.925	-0.083	-63.7129296	3.3231564	-1.8907614	88.64806176	-0.49847346	-32.0570001
0.81	81	-0.026	-0.936	-0.108	-64.2858876	3.4950438	-2.9220858	87.99488964	-0.46982556	-32.03408178
0.82	82	-0.021	-0.942	-0.13	-63.598338	3.4950438	-3.2658606	87.3474471	-0.44690724	-32.00543388
0.83	83	-0.015	-0.941	-0.133	-62.2805346	3.7815228	-3.2658606	86.71146372	-0.41825934	-31.97678598
0.84	84	-0.011	-0.943	-0.118	-60.7908438	5.0993262	-3.5523396	86.09266908	-0.38388186	-31.93667892
0.85	85	-0.007	-0.947	-0.093	-59.7022236	6.875496	-3.151269	85.4853336	-0.35523396	-31.87365354
0.86	86	-0.001	-0.955	-0.085	-59.7595194	8.7662574	-2.5210152	84.87799812	-0.32658606	-31.799169
0.87	87	0.001	-0.965	-0.079	-59.6449278	10.8289062	-1.9480572	84.27066264	-0.30939732	-31.69603656
0.88	88	0.008	-0.969	-0.088	-59.5303362	12.2613012	-1.2605076	83.66332716	-0.29220858	-31.58717454
0.89	89	0.007	-0.966	-0.104	-59.5303362	12.5477802	-0.7448454	83.05599168	-0.28074942	-31.46685336
0.9	90	-0.003	-0.962	-0.119	-58.6708992	12.5477802	-0.9167328	82.45438578	-0.26356068	-31.35226176
0.91	91	-0.011	-0.969	-0.139	-57.7541664	11.9748222	-1.4896908	81.86996862	-0.24064236	-31.24339974
0.92	92	-0.016	-0.98	-0.141	-56.436363	11.0580894	-2.0626488	81.29128104	-0.21199446	-31.1402673
0.93	93	-0.019	-0.984	-0.139	-54.5456016	11.0580894	-2.4637194	80.73551178	-0.17761698	-31.04286444
0.94	94	-0.014	-0.989	-0.144	-52.8840234	11.3445684	-2.5210152	80.19693126	-0.1432395	-30.939732
0.95	95	-0.007	-0.995	-0.151	-52.139178	10.3705398	-2.2345362	79.66408032	-0.10886202	-30.84805872
0.96	96	0.005	-0.997	-0.174	-51.7954032	9.1100322	-1.432395	79.13695896	-0.0859437	-30.76211502
0.97	97	0.016	-0.986	-0.18	-50.420304	6.9900876	-0.5156622	78.62702634	-0.07448454	-30.70481922
0.98	98	0.02	-0.974	-0.184	-48.8733174	4.7555514	0.1145916	78.12855288	-0.07448454	-30.65898258
0.99	99	0.017	-0.968	-0.197	-47.7274014	2.9220858	0.4583664	77.64153858	-0.08021412	-30.63606426
1	100	0.012	-0.963	-0.195	-45.7220484	1.4896908	0.4583664	77.1774426	-0.08021412	-30.6246051
1.01	101	0.011	-0.963	-0.204	-44.404245	0.1718874	0.1718874	76.73053536	-0.09167328	-30.6246051
1.02	102	-0.002	-0.954	-0.199	-42.6280752	-0.4010706	-0.3437748	76.29508728	-0.09167328	-30.63606426
1.03	103	-0.007	-0.946	-0.194	-41.3102718	0.1145916	-0.9167328	75.87682794	-0.0859437	-30.63606426
1.04	104	-0.004	-0.957	-0.21	-40.5654264	0	-0.859437	75.46429818	-0.08021412	-30.64179384
1.05	105	0.005	-0.973	-0.228	-40.10706	-0.7448454	-0.286479	75.057498	-0.08021412	-30.653253
1.06	106	0.015	-0.983	-0.239	-39.247623	-2.291832	0.4010706	74.6564274	-0.09740286	-30.67617132
1.07	107	0.019	-0.979	-0.243	-38.2735944	-4.4117766	1.0886202	74.27254554	-0.12032118	-30.72200796
1.08	108	0.013	-0.97	-0.258	-37.528749	-6.016059	0.859437	73.88866368	-0.14896908	-30.77930376
1.09	109	0.007	-0.963	-0.271	-36.955791	-6.9327918	-0.1145916	73.51624098	-0.16615782	-30.84805872
1.1	110	0.012	-0.958	-0.273	-35.9244666	-6.9327918	-1.3178034	73.14954786	-0.17761698	-30.92254326
1.11	111	0.017	-0.953	-0.275	-35.2942128	-6.7609044	-1.9480572	72.7943139	-0.17761698	-30.9970278
1.12	112	0.018	-0.942	-0.281	-34.8358464	-6.1306506	-2.1772404	72.44480952	-0.17761698	-31.06578276
1.13	113	0.016	-0.945	-0.283	-34.4920716	-4.870143	-1.8907614	72.09530514	-0.17761698	-31.11734898
1.14	114	0.015	-0.957	-0.306	-34.4920716	-3.8388186	-1.4896908	71.74007118	-0.17761698	-31.16318562
1.15	115	0.019	-0.958	-0.311	-33.518043	-3.5523396	-0.8021412	71.40202596	-0.17761698	-31.1975631
1.16	116	0.019	-0.946	-0.309	-32.0283522	-3.8961144	0	71.0754399	-0.19480572	-31.23767016
1.17	117	0.024	-0.93	-0.32	-31.1116194	-4.4690724	0.4010706	70.760313	-0.21772404	-31.2835068
1.18	118	0.025	-0.92	-0.33	-29.9657034	-5.0420304	0.3437748	70.45664526	-0.24064236	-31.32934344
1.19	119	0.02	-0.908	-0.326	-28.361421	-5.3285094	-0.1718874	70.17016626	-0.2578311	-31.38663924
1.2	120	0.005	-0.897	-0.327	-27.1009134	-5.443101	-1.4896908	69.89514642	-0.2578311	-31.44393504
1.21	121	-0.002	-0.898	-0.322	-25.5539268	-4.1252976	-2.8074942	69.63158574	-0.25210152	-31.49550126
1.22	122	-0.004	-0.905	-0.319	-24.350715	-2.7501984	-3.3231564	69.3852138	-0.2291832	-31.52987874
1.23	123	-0.005	-0.904	-0.324	-23.1475032	-1.5469866	-3.2658606	69.15030102	-0.20626488	-31.55852664
1.24	124	-0.002	-0.917	-0.339	-22.2307704	-0.0572958	-2.9793816	68.9268474	-0.18334656	-31.57571538
1.25	125	0.002	-0.919	-0.339	-21.1421502	0.7448454	-2.1772404	68.70912336	-0.16042824	-31.57571538
1.26	126	0.016	-0.91	-0.338	-19.9389384	0.7448454	-1.0313244	68.50858806	-0.14896908	-31.5699858
1.27	127	0.024	-0.908	-0.355	-18.9649098	0.4010706	0	68.31378234	-0.14896908	-31.5699858
1.28	128	0.021	-0.909	-0.355	-17.761698	0	0.3437748	68.13616536	-0.15469866	-31.5699858
1.29	129	0.01	-0.907	-0.359	-17.18874	-0.6875496	0.1145916	67.95854838	-0.16042824	-31.57571538
1.3	130	0.002	-0.901	-0.354	-16.2147114	-0.9740286	-0.4583664	67.79239056	-0.16042824	-31.58717454
1.31	131	0	-0.907	-0.372	-15.8709366	-0.3437748	-1.5469866	67.63196232	-0.14896908	-31.5986337
1.32	132	-0.004	-0.915	-0.383	-14.7823164	-0.1145916	-2.2345362	67.48299324	-0.13178034	-31.61009286
1.33	133	0	-0.925	-0.383	-13.464513	0.6875496	-2.4637194	67.34548332	-0.10886202	-31.61582244
1.34	134	0.003	-0.947	-0.402	-12.605076	1.718874	-1.8334656	67.21370298	-0.0859437	-31.60436328
1.35	135	0.009	-0.965	-0.409	-11.5737516	2.4064236	-0.6875496	67.08765222	-0.06302538	-31.58144496
1.36	136	0.017	-0.975	-0.413	-10.7716104	2.86479	0.4583664	66.9787902	-0.06302538	-31.55279706
1.37	137	0.018	-0.98	-0.423	-9.7975818	2.8074942	1.2032118	66.87565776	-0.06302538	-31.52414916
1.38	138	0.012	-0.981	-0.418	-8.880849	2.6356068	1.2605076	66.78971406	-0.06875496	-31.49550126
1.39	139	0.003	-0.992	-0.429	-8.4797784	2.8074942	0.9167328	66.69804078	-0.06302538	-31.46685336
1.4	140	-0.002	-1.002	-0.44	-7.9068204	2.9793816	0.6302538	66.61209708	-0.06302538	-31.43820546
1.41	141	-0.003	-1.005	-0.433	-7.1046792	2.9793816	0.1718874	66.53761254	-0.05156622	-31.40955756
1.42	142	0.003	-1.017	-0.441	-6.875496	2.8074942	0	66.46885758	-0.04583664	-31.38090966
1.43	143	0.009	-1.028	-0.446	-6.875496	1.8907614	0.1145916	66.39437304	-0.04010706	-31.36372092
1.44	144	0.01	-1.032	-0.44	-6.9327918	1.5469866	-0.0572958	66.32561808	-0.03437748	-31.35226176
1.45	145	0.01	-1.032	-0.446	-7.448454	1.2032118	-0.5156622	66.23967438	-0.02291832	-31.3408026
1.46	146	0.011	-1.035	-0.452	-8.1360036	0.4583664	-0.8021412	66.15946026	-0.01145916	-31.3408026
1.47	147	0.014	-1.032	-0.458	-8.4224826	-0.4583664	-0.8021412	66.07351656	-0.00572958	-31.34653218
1.48	148	0.012	-1.021	-0.457	-8.5370742	-1.145916	-1.0313244	65.98757286	-0.00572958	-31.36372092
1.49	149	0.007	-1.014	-0.455	-8.6516658	-1.3178034	-1.6615782	65.89589958	0	-31.38663924
1.5	150	0.006	-1.007	-0.454	-8.7089616	-1.145916	-2.0626488	65.79849672	0.01718874	-31.40382798
1.51	151	0.006	-0.998	-0.45	-8.7662574	-0.572958	-2.3491278	65.71255302	0.03437748	-31.42101672
1.52	152	0.01	-0.997	-0.446	-8.7662574	0	-2.1772404	65.62087974	0.05156622	-31.4267463
1.53	153	0.015	-0.988	-0.444	-8.9381448	0.2291832	-1.6042824	65.52920646	0.06875496	-31.43247588
1.54	154	0.014	-0.976	-0.434	-9.167328	0.1145916	-0.9740286	65.43753318	0.07448454	-31.43820546
1.55	155	0.013	-0.971	-0.434	-9.2819196	0.0572958	-0.6875496	65.33440074	0.0859437	-31.43820546
1.56	156	0.002	-0.972	-0.434	-9.3965112	0.0572958	-0.9167328	65.24272746	0.09167328	-31.43820546
1.57	157	-0.006	-0.974	-0.426	-9.3965112	-0.1145916	-0.859437	65.1453246	0.09740286	-31.44393504
1.58	158	-0.009	-0.973	-0.418	-9.7975818	-0.1718874	-0.6875496	65.04219216	0.10313244	-31.44966462
1.59	159	-0.009	-0.972	-0.41	-10.313244	0	-0.8021412	64.93905972	0.10886202	-31.4553942
1.6	160	-0.008	-0.969	-0.414	-11.0007936	0.572958	-1.0313244	64.8301977	0.12032118	-31.4553942
1.61	161	-0.005	-0.969	-0.418	-11.5164558	1.432395	-1.3178034	64.7156061	0.13750992	-31.44966462
1.62	162	0.001	-0.968	-0.413	-11.9748222	1.432395	-1.432395	64.59528492	0.15469866	-31.44393504
1.63	163	0.007	-0.963	-0.415	-12.3758928	1.6042824	-1.2605076	64.46923416	0.16615782	-31.43247588
1.64	164	0.007	-0.957	-0.408	-12.891555	1.718874	-0.9167328	64.33745382	0.18334656	-31.4267463
1.65	165	0.008	-0.954	-0.414	-13.464513	1.8334656	-0.7448454	64.20567348	0.2005353	-31.40955756
1.66	166	0.008	-0.954	-0.411	-13.8655836	1.5469866	-0.5156622	64.06243398	0.20626488	-31.3980984
1.67	167	0.012	-0.952	-0.408	-14.610429	1.2605076	-0.286479	63.9134649	0.21199446	-31.39236882
1.68	168	0.006	-0.952	-0.411	-15.2406828	1.3178034	0	63.75876624	0.21772404	-31.38090966
1.69	169	-0.001	-0.951	-0.409	-15.8136408	1.8334656	0	63.598338	0.22345362	-31.36372092
1.7	170	-0.006	-0.95	-0.405	-16.3865988	2.4064236	-0.0572958	63.44363934	0.2291832	-31.34653218
1.71	171	-0.011	-0.943	-0.402	-17.0741484	3.0366774	-0.286479	63.26602236	0.24064236	-31.31788428
1.72	172	-0.01	-0.933	-0.396	-17.475219	3.4950438	-0.4010706	63.08840538	0.2578311	-31.28923638
1.73	173	-0.004	-0.931	-0.4	-17.8189938	3.4950438	-0.3437748	62.9107884	0.27501984	-31.26058848
1.74	174	0.003	-0.926	-0.398	-18.5065434	3.3804522	-0.2291832	62.72171226	0.286479	-31.23767016
1.75	175	0.01	-0.924	-0.402	-19.2513888	2.7501984	-0.1145916	62.53263612	0.30366774	-31.21475184
1.76	176	0.011	-0.923	-0.401	-19.8243468	1.8334656	-0.1718874	62.33210082	0.30939732	-31.1975631
1.77	177	0.007	-0.919	-0.407	-20.2254174	0.9740286	-0.2291832	62.12583594	0.3151269	-31.19183352
1.78	178	0.001	-0.922	-0.41	-20.6837838	0.859437	-0.2291832	61.91957106	0.3151269	-31.18610394
1.79	179	0	-0.927	-0.41	-21.2567418	0.9740286	0	61.70184702	0.32085648	-31.18037436
1.8	180	-0.005	-0.931	-0.411	-21.9442914	1.3750992	0.2291832	61.48985256	0.3151269	-31.1689152
1.81	181	-0.005	-0.932	-0.411	-22.6891368	2.291832	0.286479	61.26066936	0.32085648	-31.14599688
1.82	182	-0.008	-0.932	-0.413	-23.1475032	2.9793816	0.5156622	61.02575658	0.32658606	-31.11734898
1.83	183	-0.008	-0.925	-0.415	-23.777757	3.7815228	0.3437748	60.78511422	0.33804522	-31.08870108
1.84	184	-0.007	-0.919	-0.413	-24.8090814	4.2398892	0.1145916	60.5330127	0.35523396	-31.04859402
1.85	185	-0.003	-0.91	-0.413	-25.7258142	4.6982556	0	60.28091118	0.3724227	-31.00848696
1.86	186	0.001	-0.905	-0.415	-26.8144344	5.3858052	0.1718874	60.01162092	0.39534102	-30.96265032
1.87	187	0	-0.9	-0.419	-27.3873924	5.72958	0.572958	59.7308715	0.41252976	-30.9110841
1.88	188	0.004	-0.891	-0.421	-28.074942	5.9014674	0.8021412	59.4443925	0.4297185	-30.85951788
1.89	189	0.009	-0.888	-0.423	-28.5906042	5.9587632	1.2605076	59.1579135	0.44117766	-30.80222208
1.9	190	0.008	-0.879	-0.419	-28.8770832	5.7868758	1.6615782	58.8714345	0.45263682	-30.74492628
1.91	191	0.008	-0.864	-0.415	-29.0489706	5.6722842	1.9480572	58.57922592	0.4583664	-30.68763048
1.92	192	0.003	-0.854	-0.407	-29.3354496	5.6149884	1.8907614	58.28128776	0.46982556	-30.63033468
1.93	193	0	-0.848	-0.406	-29.9657034	5.2139178	1.8334656	57.97762002	0.47555514	-30.57876846
1.94	194	-0.003	-0.839	-0.402	-30.3094782	5.156622	1.6042824	57.6682227	0.48128472	-30.52720224
1.95	195	-0.002	-0.828	-0.401	-30.4813656	4.870143	1.2605076	57.37028454	0.49274388	-30.4813656
1.96	196	0.003	-0.822	-0.41	-30.7105488	4.583664	0.9167328	57.06088722	0.50420304	-30.44125854
1.97	197	0.008	-0.82	-0.404	-30.653253	4.3544808	0.6875496	56.74576032	0.5156622	-30.40115148
1.98	198	0.014	-0.817	-0.405	-30.653253	4.2398892	0.572958	56.436363	0.52712136	-30.36104442
1.99	199	0.016	-0.812	-0.412	-30.8251404	4.1825934	0.6302538	56.1212361	0.5443101	-30.32666694
2	200	0.017	-0.812	-0.421	-31.3980984	4.0680018	0.6302538	55.81756836	0.55576926	-30.28655988
2.01	201	0.023	-0.808	-0.429	-31.51269	3.724227	0.8021412	55.49671188	0.56722842	-30.2521824
2.02	202	0.023	-0.803	-0.427	-31.1689152	3.437748	0.8021412	55.18158498	0.572958	-30.2235345
2.03	203	0.016	-0.797	-0.431	-31.1689152	3.3231564	0.4010706	54.8607285	0.58441716	-30.1948866
2.04	204	0.012	-0.794	-0.421	-30.7678446	3.2658606	-0.0572958	54.55133118	0.59587632	-30.1662387
2.05	205	0.016	-0.789	-0.42	-30.653253	3.8388186	-0.4010706	54.25339302	0.61879464	-30.1375908
2.06	206	0.01	-0.79	-0.426	-30.653253	4.4117766	-0.572958	53.9439957	0.64744254	-30.1089429
2.07	207	0.008	-0.79	-0.427	-30.7105488	4.870143	-0.572958	53.6288688	0.67609044	-30.07456542
2.08	208	0.01	-0.792	-0.425	-30.653253	5.156622	-0.4583664	53.31947148	0.70473834	-30.03445836
2.09	209	0.014	-0.794	-0.43	-30.8824362	5.5576926	-0.286479	53.00434458	0.73338624	-29.9943513
2.1	210	0.02	-0.798	-0.444	-30.939732	5.5576926	-0.0572958	52.70640642	0.76203414	-29.94851466
2.11	211	0.025	-0.799	-0.452	-30.939732	5.2712136	0.1718874	52.39127952	0.79068204	-29.9084076
2.12	212	0.028	-0.797	-0.463	-30.9970278	5.0993262	0.5156622	52.07615262	0.80787078	-29.86257096
2.13	213	0.028	-0.792	-0.468	-30.939732	5.0993262	0.4010706	51.76102572	0.8307891	-29.8224639
2.14	214	0.025	-0.796	-0.468	-31.1116194	5.5003968	0.0572958	51.44589882	0.859437	-29.78235684
2.15	215	0.018	-0.798	-0.468	-31.0543236	6.4171296	-0.1145916	51.14796066	0.89381448	-29.73079062
2.16	216	0.002	-0.802	-0.45	-30.9970278	7.2192708	-0.3437748	50.83283376	0.93965112	-29.6792244
2.17	217	-0.002	-0.804	-0.441	-31.1116194	8.59437	-0.3437748	50.51770686	0.99121734	-29.61619902
2.18	218	-0.004	-0.8	-0.433	-31.0543236	9.8548776	0.286479	50.20257996	1.04278356	-29.5359849
2.19	219	-0.003	-0.797	-0.419	-30.4813656	10.599723	1.2605076	49.89318264	1.09434978	-29.4500412
2.2	220	-0.007	-0.791	-0.412	-29.9657034	10.599723	2.4064236	49.6181628	1.13445684	-29.35263834
2.21	221	-0.008	-0.787	-0.397	-29.7365202	10.026765	2.9220858	49.31449506	1.16883432	-29.25523548
2.22	222	-0.002	-0.787	-0.393	-29.3927454	9.3965112	2.6356068	49.0165569	1.2032118	-29.16929178
2.23	223	0.005	-0.781	-0.379	-28.934379	8.7662574	1.6615782	48.72434832	1.24331886	-29.08907766
2.24	224	0.012	-0.776	-0.369	-28.6479	8.59437	0.4010706	48.43213974	1.2891555	-29.02605228
2.25	225	0.016	-0.769	-0.362	-28.361421	8.7662574	-0.572958	48.18003822	1.3464513	-28.9630269
2.26	226	0.017	-0.756	-0.352	-27.8457588	8.9954406	-1.0313244	47.89355922	1.40947668	-28.90000152
2.27	227	0.015	-0.739	-0.343	-27.4446882	9.2246238	-1.0313244	47.61853938	1.47250206	-28.84270572
2.28	228	0.019	-0.718	-0.337	-26.8144344	9.0527364	-0.9740286	47.34351954	1.53552744	-28.77968034
2.29	229	0.025	-0.695	-0.318	-25.8404058	8.7662574	-0.859437	47.07995886	1.59282324	-28.72238454
2.3	230	0.028	-0.673	-0.301	-24.8663772	8.4797784	-0.859437	46.85650524	1.65584862	-28.66508874
2.31	231	0.029	-0.653	-0.278	-23.2620948	8.5370742	-0.9167328	46.62159246	1.71314442	-28.60779294
2.32	232	0.025	-0.628	-0.254	-21.7151082	8.4224826	-0.859437	46.39813884	1.7761698	-28.55049714
2.33	233	0.013	-0.601	-0.216	-18.6784308	8.0787078	-0.9740286	46.2090627	1.8334656	-28.49893092
2.34	234	0	-0.575	-0.169	-16.2147114	8.4224826	-1.6615782	46.04290488	1.89649098	-28.45309428
2.35	235	-0.004	-0.548	-0.149	-14.037471	9.453807	-2.3491278	45.92831328	1.9767051	-28.39579848
2.36	236	-0.001	-0.524	-0.126	-11.6883432	10.1986524	-2.578311	45.8079921	2.0626488	-28.33850268
2.37	237	0.004	-0.494	-0.098	-8.6516658	10.6570188	-2.2345362	45.7220484	2.1485925	-28.28120688
2.38	238	0.009	-0.465	-0.08	-5.2139178	11.0007936	-1.8907614	45.67048218	2.2345362	-28.21245192
2.39	239	0.009	-0.427	-0.057	-1.3750992	11.3445684	-1.3750992	45.65329344	2.3204799	-28.13796738
2.4	240	0.004	-0.387	-0.023	2.6929026	11.745639	-0.5156622	45.70485966	2.40069402	-28.05775326
2.41	241	-0.011	-0.354	-0.007	8.9954406	11.9748222	-0.1718874	45.79653294	2.48663772	-27.97180956
2.42	242	-0.023	-0.322	0.025	16.2147114	13.3499214	-1.6042824	45.96269076	2.58977016	-27.88586586
2.43	243	-0.025	-0.299	0.067	24.7517856	15.8709366	-3.724227	46.21479228	2.72728008	-27.79419258
2.44	244	-0.021	-0.283	0.123	33.4607472	18.048177	-4.6409598	46.55856708	2.88197874	-27.69106014
2.45	245	-0.033	-0.264	0.167	42.7999626	17.18874	-3.0939732	47.01693348	3.02521824	-27.57646854
2.46	246	-0.04	-0.259	0.243	50.6494872	15.0687954	0.2291832	47.53259568	3.12835068	-27.46187694
2.47	247	0.031	-0.334	0.151	52.6548402	15.0687954	4.8128472	48.07690578	3.19710564	-27.31863744
2.48	248	0.107	-0.61	-0.162	46.0085274	12.7769634	9.9121734	48.55246092	3.2085648	-27.15247962
2.49	249	0.094	-1.037	-0.435	32.0283522	9.3965112	9.1100322	48.88477656	3.20283522	-27.02069928
2.5	250	0.05	-1.529	-0.749	9.5111028	16.8449652	-1.145916	48.987909	3.31742682	-26.9003781
2.51	251	0.002	-1.966	-1.037	-18.7930224	20.1108258	-7.5057498	48.79883286	3.50077338	-26.79151608
2.52	252	-0.032	-2.271	-1.244	-47.6701056	16.329303	-4.7555514	48.31754814	3.63255372	-26.6998428
2.53	253	0.031	-2.261	-1.297	-67.9528188	12.1467096	-1.7761698	47.62999854	3.71276784	-26.62535826
2.54	254	0.083	-2.081	-1.194	-82.1048814	9.5111028	-7.7922288	46.79920944	3.82162986	-26.60816952
2.55	255	0.05	-1.983	-1.099	-95.7985776	6.9900876	-20.6837838	45.81945126	4.00497642	-26.6998428
2.56	256	0.098	-1.782	-1.098	-109.2630906	5.7868758	-31.9710564	44.69645358	4.25707794	-26.88318936
2.57	257	0.193	-1.456	-1.061	-126.910197	6.6463128	-34.6066632	43.39010934	4.5263682	-27.08945424
2.58	258	0.257	-1.118	-0.99	-141.520626	10.5424272	-29.793816	41.9405256	4.77846972	-27.23842332
2.59	259	0.249	-0.895	-0.901	-149.0263758	15.5844576	-24.4080108	40.4221869	5.03630082	-27.31863744
2.6	260	0.162	-0.727	-0.753	-149.0263758	19.4232762	-19.8243468	38.9038482	5.28267276	-27.34155576
2.61	261	0.055	-0.53	-0.561	-147.0783186	24.637194	-16.1001198	37.40842782	5.55196302	-27.31290786
2.62	262	-0.022	-0.315	-0.388	-151.260912	27.9030546	-13.6936962	35.87862996	5.82698286	-27.24988248
2.63	263	-0.037	-0.13	-0.27	-155.9018718	30.4813656	-13.0634424	34.29726588	6.12492102	-27.17539794
2.64	264	0	-0.027	-0.165	-158.4801828	30.366774	-14.610429	32.69298348	6.42858876	-27.12383172
2.65	265	0.073	0.015	-0.089	-157.9645206	30.8824362	-18.3919518	31.0829715	6.76663398	-27.10664298
2.66	266	0.147	0.024	0.004	-156.5321256	31.7418732	-21.3713334	29.48441868	7.11613836	-27.11810214
2.67	267	0.156	0.01	0.108	-158.0218164	34.1482968	-24.4080108	27.86867712	7.5057498	-27.1582092
2.68	268	0.119	0.017	0.175	-163.9805796	39.0184398	-25.6685184	26.19563976	7.9354683	-27.19831626
2.69	269	0.063	0.076	0.205	-167.4756234	44.4615408	-23.491278	24.48822492	8.40529386	-27.20977542
2.7	270	0	0.161	0.204	-164.152467	47.3836266	-17.475219	22.81518756	8.880849	-27.15247962
2.71	271	-0.038	0.203	0.146	-161.1730854	46.696077	-9.5111028	21.19371642	9.31629708	-27.04934718
2.72	272	-0.043	0.307	-0.011	-165.0691998	44.117766	-6.3598338	19.52640864	9.72309726	-26.94048516
2.73	273	0.051	0.442	-0.074	-167.303736	33.5753388	-10.8289062	17.83045296	10.04395374	-26.91756684
2.74	274	0.197	0.696	-0.31	-164.725425	19.3086846	-18.2200644	16.13449728	10.2559482	-27.02642886
2.75	275	0.228	1.06	-0.594	-139.0569066	6.5317212	-19.194093	14.6677248	10.35335106	-27.18112752
2.76	276	0.188	1.4	-0.902	-97.975818	3.6096354	-15.9855282	13.64785956	10.41637644	-27.32436702
2.77	277	0.044	1.457	-1.221	-62.452422	4.870143	-14.2666542	12.98895786	10.4851314	-27.45041778
2.78	278	-0.022	1.217	-1.277	-38.2162986	1.9480572	-12.7196676	12.5764281	10.53096804	-27.56500938
2.79	279	0.084	1.14	-1.196	-25.6685184	-2.6356068	-8.307891	12.30140826	10.51950888	-27.65668266
2.8	280	-0.112	0.98	-1.943	11.0580894	-18.6784308	4.1252976	12.41027028	10.33043274	-27.66241224
2.81	281	0.789	0.554	-2.525	2.7501984	-69.7289886	14.5531332	12.44464776	9.63142398	-27.68533056
2.82	282	1.442	0	-3.593	-77.8649922	-79.354683	24.8663772	11.67688404	8.80636446	-27.62803476
2.83	283	1.509	0.169	-3.996	-109.7787528	-89.7252228	18.334656	10.5710751	7.88963166	-27.63949392
2.84	284	1.381	0.993	-3.996	-23.9496444	-60.5043648	5.156622	10.32470316	7.29375534	-27.70824888
2.85	285	0.634	0.703	-3.996	7.7922288	-34.7212548	10.0840608	10.41637644	6.93852138	-27.67960098
2.86	286	0.187	0.569	-3.99	11.1153852	-35.4088044	14.896908	10.5424272	6.57182826	-27.61084602
2.87	287	0.515	0.724	-3.621	18.7930224	-34.37748	16.615782	10.74869208	6.21086472	-27.51917274
2.88	288	0.652	0.549	-2.737	33.0023808	-35.523396	17.9335854	11.09819646	5.83844202	-27.42176988
2.89	289	0.502	0.255	-1.899	36.382833	-25.8404058	12.1467096	11.47634874	5.56915176	-27.36447408
2.9	290	0.275	0.054	-1.311	30.939732	-19.5951636	3.8388186	11.76282774	5.3858052	-27.37020366
2.91	291	0.216	-0.021	-0.967	24.4653066	-17.3033316	-2.5210152	12.00919968	5.22537696	-27.43322904
2.92	292	0.269	0.006	-0.806	21.4286292	-16.6730778	-4.9274388	12.22119414	5.08213746	-27.52490232
2.93	293	0.222	0.088	-0.685	27.1009134	-14.2093584	-4.9847346	12.4904844	4.9560867	-27.60511644
2.94	294	0.178	0.209	-0.544	26.7571386	-10.3705398	-4.583664	12.75977466	4.870143	-27.67960098
2.95	295	0.037	0.378	-0.438	27.3873924	-6.5317212	-1.9480572	12.98322828	4.8128472	-27.71397846
2.96	296	-0.048	0.493	-0.311	25.210152	-3.9534102	0.4583664	13.24105938	4.77846972	-27.71970804
2.97	297	-0.04	0.489	-0.279	22.4026578	-1.9480572	0.8021412	13.47024258	4.76128098	-27.71397846
2.98	298	0.09	0.404	-0.206	18.7930224	-4.0680018	-0.4583664	13.65931872	4.7269035	-27.7311672
2.99	299	0.178	0.352	-0.181	14.2666542	-7.7922288	0.6302538	13.80255822	4.65241896	-27.74835594
3	300	0.169	0.292	-0.194	6.5317212	-11.2299768	1.7761698	13.84266528	4.54928652	-27.75408552
3.01	301	0.119	0.214	-0.26	-4.6409598	-13.1207382	1.0886202	13.79682864	4.42323576	-27.77700384
3.02	302	0.101	0.132	-0.392	-16.1574156	-15.756345	0.2291832	13.63067082	4.2685371	-27.81138132
3.03	303	0.066	0.048	-0.539	-21.8869956	-18.7930224	0.859437	13.4072172	4.08519054	-27.85148838
3.04	304	-0.014	0.015	-0.663	-26.1268848	-19.1367972	0.4010706	13.14365652	3.8961144	-27.89732502
3.05	305	-0.069	0.063	-0.799	-26.5852512	-12.032118	-1.9480572	12.82280004	3.75860448	-27.94889124
3.06	306	-0.132	0.117	-0.854	-28.8197874	-7.3911582	-3.4950438	12.52486188	3.68984952	-28.00045746
3.07	307	-0.151	0.126	-0.929	-35.3515086	-5.72958	-5.0420304	12.16389834	3.64401288	-28.06348284
3.08	308	-0.127	0.045	-1.018	-41.9405256	-4.9847346	-8.307891	11.73417984	3.60390582	-28.15515612
3.09	309	-0.164	-0.063	-1.098	-49.5035712	-6.7036086	-13.4072172	11.22424722	3.56379876	-28.29839562
3.1	310	-0.148	-0.169	-1.156	-56.8374336	-4.010706	-16.7876694	10.63410048	3.52942128	-28.47028302
3.11	311	-0.166	-0.267	-1.173	-63.1399716	0.9167328	-17.1314442	9.98092836	3.56379876	-28.63644084
3.12	312	-0.115	-0.368	-1.196	-69.7862844	8.307891	-15.8136408	9.26473086	3.66120162	-28.76822118
3.13	313	-0.127	-0.435	-1.269	-73.338624	22.345362	-10.599723	8.51415588	3.88465524	-28.83124656
3.14	314	-0.206	-0.45	-1.295	-72.5364828	29.793816	-5.156622	7.77504006	4.17686382	-28.82551698
3.15	315	-0.19	-0.325	-1.265	-71.1613836	33.4034514	-1.9480572	7.05311298	4.48626114	-28.7911395
3.16	316	-0.15	-0.201	-1.302	-66.5777196	40.680018	0	6.37702254	4.87587258	-28.72811412
3.17	317	-0.117	-0.078	-1.311	-63.5410422	44.2896534	0.286479	5.72958	5.2998615	-28.66508874
3.18	318	-0.096	0.023	-1.314	-58.3844202	42.7426668	-4.4117766	5.13370368	5.71812084	-28.65362958
3.19	319	-0.051	0.053	-1.278	-50.0192334	39.9924684	-7.5057498	4.61804148	6.11346186	-28.6765479
3.2	320	-0.011	0.024	-1.111	-46.6387812	36.669312	-8.021412	4.1252976	6.46296624	-28.72238454
3.21	321	0.08	-0.01	-1.054	-43.0864416	36.2682414	-7.8495246	3.67839036	6.82392978	-28.7624916
3.22	322	0.16	-0.03	-1.029	-39.1903272	40.0497642	-6.9327918	3.27159018	7.2192708	-28.7911395
3.23	323	0.258	-0.052	-0.97	-34.3201842	41.9978214	-3.8961144	2.91635622	7.62607098	-28.79686908
3.24	324	0.36	-0.026	-0.984	-30.5959572	38.7892566	0.3437748	2.6069589	8.00995284	-28.7624916
3.25	325	0.431	-0.028	-0.979	-21.2567418	33.6326346	0.7448454	2.38350528	8.37664596	-28.71092538
3.26	326	0.525	0	-0.965	-16.3865988	25.0955604	-0.6302538	2.21734746	8.6230179	-28.69946622
3.27	327	0.489	0.033	-0.895	-13.0634424	16.042824	-3.0366774	2.07983754	8.78344614	-28.71665496
3.28	328	0.447	-0.018	-0.841	-8.5370742	9.6256944	-3.437748	1.98816426	8.87511942	-28.74530286
3.29	329	0.357	-0.061	-0.831	-6.6463128	5.9587632	-2.6356068	1.91367972	8.9381448	-28.76822118
3.3	330	0.359	-0.096	-0.828	-3.3231564	4.1825934	-0.6875496	1.90795014	9.11576178	-28.71665496
3.31	331	0.379	-0.08	-0.806	-4.1825934	3.6096354	-0.6875496	1.8621135	9.15586884	-28.72238454
3.32	332	0.377	-0.047	-0.828	-3.6096354	-0.2291832	-0.859437	1.82200644	9.15013926	-28.72811412
3.33	333	0.357	-0.018	-0.821	-2.4637194	-4.2398892	-1.145916	1.79908812	9.1100322	-28.74530286
3.34	334	0.339	-0.001	-0.842	-3.6096354	-6.4744254	-1.9480572	1.75898106	9.04700682	-28.76822118
3.35	335	0.322	0.008	-0.9	-4.3544808	-7.6203414	-2.4064236	1.67876694	9.0527364	-28.76822118
3.36	336	0.307	-0.002	-0.952	-3.8961144	-8.8235532	-1.9480572	1.63865988	8.9667927	-28.7911395
3.37	337	0.282	-0.011	-0.972	-2.86479	-11.5164558	-0.6302538	1.6042824	8.8522011	-28.80259866
3.38	338	0.259	-0.011	-0.993	-1.432395	-13.1207382	0.3437748	1.59282324	8.72615034	-28.80832824
3.39	339	0.237	0	-1.015	-0.572958	-13.464513	1.145916	1.58709366	8.58864042	-28.80259866
3.4	340	0.215	0.014	-1.042	0.4583664	-13.2926256	1.3750992	1.56990492	8.47404882	-28.7911395
3.41	341	0.199	0.031	-1.064	2.1199446	-12.8342592	0.859437	1.59282324	8.34799806	-28.7911395
3.42	342	0.182	0.043	-1.058	3.724227	-13.0061466	0.3437748	1.6329303	8.2219473	-28.79686908
3.43	343	0.164	0.048	-1.036	3.151269	-13.1207382	-0.4010706	1.66730778	8.09016696	-28.80832824
3.44	344	0.151	0.053	-1.021	1.718874	-12.1467096	-1.0886202	1.68449652	7.96984578	-28.82551698
3.45	345	0.14	0.059	-1.021	0.286479	-10.9434978	-1.432395	1.62147114	7.85525418	-28.85416488
3.46	346	0.131	0.065	-1.025	0.1145916	-10.9434978	-1.5469866	1.62147114	7.75212174	-28.8770832
3.47	347	0.12	0.062	-1.011	0	-11.0007936	-1.432395	1.62147114	7.64325972	-28.90000152
3.48	348	0.108	0.059	-0.988	-1.0886202	-10.8289062	-1.3750992	1.6042824	7.5343977	-28.91719026
3.49	349	0.094	0.065	-0.977	-1.6615782	-10.2559482	-1.2605076	1.58709366	7.43126526	-28.94010858
3.5	350	0.089	0.072	-0.971	-2.291832	-10.026765	-1.2032118	1.4896908	7.3052145	-28.97448606
3.51	351	0.081	0.077	-0.973	-2.3491278	-10.313244	-1.0313244	1.46677248	7.20208206	-28.98594522
3.52	352	0.076	0.073	-0.983	-1.2032118	-10.026765	-0.9740286	1.45531332	7.1046792	-29.00313396
3.53	353	0.069	0.06	-0.981	0	-10.0840608	-1.145916	1.45531332	7.00154676	-29.0203227
3.54	354	0.063	0.052	-0.973	0.5156622	-9.9121734	-1.2605076	1.45531332	6.9041439	-29.03751144
3.55	355	0.053	0.049	-0.971	0.3437748	-8.9381448	-1.5469866	1.39228794	6.7609044	-29.08334808
3.56	356	0.046	0.046	-0.977	0	-7.5057498	-1.718874	1.39228794	6.69214944	-29.1062664
3.57	357	0.047	0.041	-0.984	0	-5.9587632	-1.718874	1.38655836	6.62912406	-29.12918472
3.58	358	0.051	0.029	-0.985	0.0572958	-4.5263682	-1.6615782	1.38655836	6.589017	-29.14637346
3.59	359	0.053	0.021	-0.982	0.0572958	-2.9793816	-1.5469866	1.38655836	6.55463952	-29.1635622
3.6	360	0.06	0.017	-0.986	0	-1.145916	-1.3750992	1.15737516	6.32545632	-29.2781538
3.61	361	0.07	0.014	-0.989	0.1145916	0.859437	-1.3178034	1.15737516	6.33691548	-29.28961296
3.62	362	0.082	0.008	-0.987	0.0572958	1.6615782	-1.0886202	1.15737516	6.35410422	-29.30107212
3.63	363	0.093	0.005	-0.981	-0.2291832	2.1199446	-0.6302538	1.15164558	6.37702254	-29.3068017
3.64	364	0.102	0.006	-0.976	-0.5156622	2.5210152	-0.1145916	1.145916	6.39994086	-29.3068017
3.65	365	0.111	0.007	-0.975	-0.7448454	3.0366774	0	1.04851314	6.42285918	-29.31253128
3.66	366	0.119	0.009	-0.975	-0.859437	3.4950438	0.0572958	1.03705398	6.45723666	-29.3068017
3.67	367	0.126	0.011	-0.973	-0.8021412	3.7815228	0.1145916	1.02559482	6.49734372	-29.3068017
3.68	368	0.134	0.012	-0.973	-0.9740286	3.8961144	0.1145916	1.01986524	6.53745078	-29.30107212
3.69	369	0.14	0.01	-0.973	-1.145916	3.3804522	0.4010706	1.00840608	6.57182826	-29.29534254
3.7	370	0.145	0.009	-0.971	-1.3178034	2.9220858	0.6875496	0.92246238	6.63485364	-29.2781538
3.71	371	0.147	0.012	-0.975	-1.432395	2.4064236	0.9740286	0.90527364	6.65777196	-29.26669464
3.72	372	0.148	0.015	-0.981	-1.432395	1.9480572	1.2605076	0.89381448	6.6749607	-29.25523548
3.73	373	0.146	0.017	-0.983	-1.3178034	1.4896908	1.4896908	0.88235532	6.69214944	-29.23804674
3.74	374	0.142	0.018	-0.983	-1.4896908	1.0886202	1.718874	0.87089616	6.7036086	-29.220858
3.75	375	0.14	0.02	-0.987	-1.4896908	1.0886202	1.7761698	0.75630456	6.73798608	-29.19793968
3.76	376	0.141	0.023	-0.987	-1.145916	1.0886202	1.7761698	0.75057498	6.74371566	-29.18075094
3.77	377	0.142	0.026	-0.99	-1.0886202	0.5156622	1.8334656	0.73911582	6.74944524	-29.15783262
3.78	378	0.14	0.028	-0.986	-0.8021412	0.6302538	1.7761698	0.73338624	6.75517482	-29.14064388
3.79	379	0.137	0.031	-0.986	-0.6302538	1.0313244	1.6615782	0.72765666	6.76663398	-29.12345514
3.8	380	0.137	0.032	-0.99	-0.4583664	1.432395	1.2605076	0.56722842	6.80674104	-29.11199598
3.81	381	0.141	0.029	-0.99	-0.4583664	1.4896908	0.8021412	0.56722842	6.82392978	-29.10053682
3.82	382	0.148	0.026	-0.986	-0.9740286	1.145916	0.8021412	0.55576926	6.83538894	-29.09480724
3.83	383	0.153	0.026	-0.985	-1.2032118	0.2291832	0.859437	0.5443101	6.83538894	-29.08334808
3.84	384	0.152	0.027	-0.98	-1.2605076	-0.2291832	0.859437	0.53285094	6.83538894	-29.0776185
3.85	385	0.149	0.031	-0.981	-1.5469866	-0.4010706	0.6302538	0.33804522	6.89268474	-29.05470018
3.86	386	0.149	0.033	-0.983	-1.4896908	-0.1718874	0.4010706	0.32658606	6.88695516	-29.05470018
3.87	387	0.156	0.033	-0.986	-0.9740286	0.0572958	0.286479	0.3151269	6.89268474	-29.0489706
3.88	388	0.16	0.03	-0.985	-0.4583664	-0.0572958	0.2291832	0.30939732	6.88695516	-29.04324102
3.89	389	0.158	0.028	-0.985	-0.286479	-0.5156622	0.2291832	0.30939732	6.88122558	-29.04324102
3.9	390	0.153	0.028	-0.981	0	-0.6302538	0.1145916	-0.10886202	7.06457214	-28.99740438
3.91	391	0.148	0.027	-0.978	0.1145916	-0.7448454	0	-0.10886202	7.05884256	-28.99740438
3.92	392	0.146	0.026	-0.979	0.2291832	-0.8021412	-0.1718874	-0.10886202	7.0473834	-29.00313396
3.93	393	0.144	0.024	-0.977	0.2291832	-1.0886202	-0.5156622	-0.10313244	7.03592424	-29.00886354
3.94	394	0.143	0.025	-0.978	0.1718874	-1.2032118	-0.5156622	-0.10313244	7.02446508	-29.01459312
3.95	395	0.143	0.023	-0.98	0.1718874	-1.3178034	-0.572958	-0.23491278	7.05311298	-29.01459312
3.96	396	0.142	0.025	-0.982	0.1718874	-1.3750992	-0.572958	-0.23491278	7.04165382	-29.0203227
3.97	397	0.142	0.024	-0.986	0.4010706	-1.5469866	-0.6302538	-0.2291832	7.02446508	-29.02605228
3.98	398	0.142	0.021	-0.988	0.6875496	-1.6042824	-0.572958	-0.22345362	7.00727634	-29.03178186
3.99	399	0.139	0.018	-0.984	0.6302538	-1.8334656	-0.4583664	-0.21772404	6.9900876	-29.03751144
4	400	0.134	0.02	-0.981	0.4583664	-1.7761698	-0.3437748	-0.30939732	6.98435802	-29.0489706
4.01	401	0.131	0.023	-0.982	0.5156622	-1.432395	-0.3437748	-0.30366774	6.96716928	-29.05470018
4.02	402	0.129	0.024	-0.981	0.4010706	-1.145916	-0.286479	-0.29793816	6.95571012	-29.05470018
4.03	403	0.128	0.023	-0.983	0.3437748	-1.145916	-0.2291832	-0.29220858	6.94425096	-29.06042976
4.04	404	0.128	0.022	-0.986	0.3437748	-1.145916	-0.1145916	-0.29220858	6.9327918	-29.06042976
4.05	405	0.125	0.021	-0.987	0.4010706	-1.0886202	-0.1145916	-0.42398892	6.9041439	-29.08907766
4.06	406	0.119	0.021	-0.987	0.4010706	-0.9167328	0	-0.41825934	6.89268474	-29.08907766
4.07	407	0.117	0.02	-0.985	0.286479	-0.859437	0.0572958	-0.41825934	6.88695516	-29.08334808
4.08	408	0.114	0.023	-0.982	0.286479	-0.6302538	0.1145916	-0.41252976	6.88122558	-29.08334808
4.09	409	0.112	0.025	-0.985	0.2291832	-0.286479	0.1145916	-0.40680018	6.875496	-29.08334808
4.1	410	0.114	0.026	-0.989	0.4010706	0	0	-0.83651868	6.7322565	-29.19793968
4.11	411	0.117	0.027	-0.99	0.6302538	0.2291832	0.1718874	-0.8307891	6.7322565	-29.19793968
4.12	412	0.118	0.027	-0.987	0.572958	0.4583664	0.2291832	-0.82505952	6.73798608	-29.1922101
4.13	413	0.12	0.028	-0.984	0.3437748	0.572958	0.3437748	-0.81932994	6.74371566	-29.1922101
4.14	414	0.122	0.029	-0.984	0.3437748	0.6875496	0.4010706	-0.81360036	6.74944524	-29.18648052
4.15	415	0.124	0.03	-0.987	0.4010706	0.6302538	0.3437748	-0.95111028	6.75517482	-29.19793968
4.16	416	0.127	0.029	-0.986	0.4583664	0.6875496	0.4010706	-0.9453807	6.7609044	-29.1922101
4.17	417	0.129	0.028	-0.986	0.5156622	0.9167328	0.6302538	-0.93965112	6.77236356	-29.18648052
4.18	418	0.132	0.028	-0.984	0.572958	1.0886202	0.6302538	-0.92819196	6.78382272	-29.18075094
4.19	419	0.135	0.027	-0.985	0.8021412	1.0313244	0.6302538	-0.92246238	6.7895523	-29.17502136
4.2	420	0.138	0.025	-0.984	0.9167328	0.6875496	0.572958	-0.99121734	6.83538894	-29.15783262
4.21	421	0.14	0.024	-0.98	1.0313244	0.6302538	0.6302538	-0.97975818	6.84111852	-29.14637346
4.22	422	0.139	0.024	-0.979	1.0313244	0.6875496	0.6875496	-0.96829902	6.8468481	-29.14064388
4.23	423	0.139	0.022	-0.976	0.6875496	0.6302538	0.7448454	-0.96256944	6.85830726	-29.1349143
4.24	424	0.14	0.023	-0.978	0.4010706	0.5156622	0.7448454	-0.95683986	6.86403684	-29.12345514
4.25	425	0.14	0.021	-0.981	0.4010706	0.5156622	0.7448454	-1.03705398	6.9041439	-29.1062664
4.26	426	0.141	0.02	-0.981	0.5156622	0.572958	0.6302538	-1.0313244	6.90987348	-29.10053682
4.27	427	0.142	0.02	-0.982	0.572958	0.4583664	0.572958	-1.01986524	6.91560306	-29.09480724
4.28	428	0.142	0.019	-0.982	0.6302538	0.4010706	0.572958	-1.01413566	6.92133264	-29.08907766
4.29	429	0.143	0.017	-0.983	0.4583664	0.2291832	0.4010706	-1.00840608	6.92133264	-29.08334808
4.3	430	0.143	0.016	-0.984	0.5156622	0.1718874	0.4010706	-1.1172681	6.9900876	-29.05470018
4.31	431	0.14	0.017	-0.984	0.6302538	0.1145916	0.3437748	-1.11153852	6.99581718	-29.0489706
4.32	432	0.139	0.02	-0.987	0.7448454	0	0.286479	-1.10580894	6.99581718	-29.04324102
4.33	433	0.135	0.02	-0.984	1.0313244	-0.0572958	0.3437748	-1.09434978	6.9900876	-29.04324102
4.34	434	0.133	0.02	-0.982	1.0313244	0.0572958	0.2291832	-1.08289062	6.99581718	-29.03751144
4.35	435	0.135	0.021	-0.983	0.9740286	0.2291832	0.1718874	-1.15737516	7.03019466	-29.02605228
4.36	436	0.138	0.018	-0.98	0.5156622	-0.2291832	0.286479	-1.15164558	7.03019466	-29.02605228
4.37	437	0.138	0.019	-0.98	0.1145916	-0.859437	0.4010706	-1.15164558	7.0187355	-29.0203227
4.38	438	0.133	0.021	-0.981	0.286479	-1.145916	0.286479	-1.145916	7.00727634	-29.0203227
4.39	439	0.128	0.025	-0.981	0.4583664	-0.9740286	0.0572958	-1.14018642	7.00154676	-29.01459312
4.4	440	0.131	0.025	-0.981	0.4583664	-0.859437	0	-1.22613012	7.00154676	-29.0203227
4.41	441	0.134	0.019	-0.978	0.2291832	-1.0886202	0.1718874	-1.22040054	6.9900876	-29.0203227
4.42	442	0.135	0.017	-0.976	-0.0572958	-1.432395	0.4010706	-1.22040054	6.97862844	-29.01459312
4.43	443	0.13	0.017	-0.975	-0.1718874	-1.3750992	0.4010706	-1.22040054	6.96716928	-29.00886354
4.44	444	0.125	0.018	-0.978	-0.2291832	-1.2605076	0.2291832	-1.22613012	6.94998054	-29.00886354
4.45	445	0.123	0.019	-0.979	-0.1145916	-0.9740286	0.1718874	-1.31207382	6.92133264	-29.02605228
4.46	446	0.126	0.019	-0.982	-0.0572958	-0.7448454	0.1145916	-1.31207382	6.91560306	-29.02605228
4.47	447	0.132	0.021	-0.99	0.1145916	-0.572958	0.1145916	-1.30634424	6.90987348	-29.0203227
4.48	448	0.132	0.022	-0.994	0.5156622	-0.6875496	0.2291832	-1.30061466	6.9041439	-29.0203227
4.49	449	0.129	0.021	-0.992	0.9167328	-0.5156622	0.4010706	-1.29488508	6.89841432	-29.01459312
4.5	450	0.123	0.018	-0.987	1.0313244	-0.4010706	0.5156622	-1.32353298	6.875496	-29.02605228
4.51	451	0.121	0.019	-0.979	0.9740286	-0.0572958	0.4010706	-1.31207382	6.875496	-29.0203227
4.52	452	0.123	0.022	-0.979	0.572958	0.3437748	0.1718874	-1.30634424	6.88122558	-29.0203227
4.53	453	0.127	0.025	-0.981	0.3437748	0.6875496	0.0572958	-1.30634424	6.88695516	-29.01459312
4.54	454	0.131	0.025	-0.983	0.2291832	0.9167328	0.1145916	-1.30061466	6.89841432	-29.01459312
4.55	455	0.133	0.021	-0.985	0.3437748	0.859437	0.286479	-1.35218088	6.92133264	-29.00886354
4.56	456	0.136	0.018	-0.983	0.5156622	0.7448454	0.3437748	-1.3464513	6.92706222	-29.00886354
4.57	457	0.135	0.019	-0.98	0.4010706	0.572958	0.286479	-1.3464513	6.9327918	-29.00313396
4.58	458	0.134	0.021	-0.978	0.2291832	0.4010706	0.4010706	-1.34072172	6.93852138	-28.99740438
4.59	459	0.134	0.02	-0.98	0.2291832	0.2291832	0.4010706	-1.34072172	6.93852138	-28.99740438
4.6	460	0.133	0.02	-0.984	0.4010706	0.2291832	0.4010706	-1.4037471	6.95571012	-28.9916748
4.61	461	0.133	0.019	-0.985	0.6875496	0.4010706	0.4010706	-1.39801752	6.9614397	-28.98594522
4.62	462	0.133	0.017	-0.983	0.9167328	0.5156622	0.4010706	-1.38655836	6.96716928	-28.98021564
4.63	463	0.136	0.014	-0.98	0.8021412	0.5156622	0.4010706	-1.3750992	6.97289886	-28.98021564
4.64	464	0.137	0.013	-0.979	0.6875496	0.3437748	0.4010706	-1.36936962	6.97862844	-28.97448606
4.65	465	0.137	0.012	-0.978	0.4583664	0.0572958	0.3437748	-1.43812458	7.03592424	-28.94583816
4.66	466	0.135	0.014	-0.98	0.1145916	0.0572958	0.2291832	-1.43812458	7.03592424	-28.94583816
4.67	467	0.135	0.016	-0.981	0.1145916	0	0.2291832	-1.432395	7.03592424	-28.94010858
4.68	468	0.135	0.016	-0.983	0.1145916	0.0572958	0.1718874	-1.432395	7.03592424	-28.94010858
4.69	469	0.136	0.017	-0.984	0.2291832	0	0.1718874	-1.432395	7.03592424	-28.94010858
4.7	470	0.136	0.017	-0.984	0.286479	0	0.1145916	-1.50687954	7.06457214	-28.92864942
4.71	471	0.135	0.016	-0.983	0.4010706	0.0572958	0.1145916	-1.50114996	7.06457214	-28.92864942
4.72	472	0.133	0.018	-0.981	0.4010706	0.1718874	0.0572958	-1.49542038	7.07030172	-28.92864942
4.73	473	0.133	0.018	-0.983	0.6302538	0.1145916	0.1718874	-1.4896908	7.07030172	-28.92291984
4.74	474	0.132	0.018	-0.984	0.7448454	-0.0572958	0.1718874	-1.48396122	7.07030172	-28.92291984
4.75	475	0.133	0.019	-0.982	0.7448454	-0.1718874	0.1718874	-1.53552744	7.0760313	-28.92291984
4.76	476	0.133	0.018	-0.98	0.4583664	-0.1718874	0.1718874	-1.52979786	7.07030172	-28.92291984
4.77	477	0.132	0.019	-0.98	0.2291832	-0.286479	0.3437748	-1.52406828	7.07030172	-28.91719026
4.78	478	0.131	0.019	-0.978	0.1718874	-0.4010706	0.286479	-1.52406828	7.06457214	-28.91719026
4.79	479	0.13	0.02	-0.978	0.0572958	-0.2291832	0.1718874	-1.52406828	7.06457214	-28.91146068
4.8	480	0.13	0.02	-0.98	0.1145916	-0.1145916	0.0572958	-1.67303736	7.06457214	-28.934379
4.81	481	0.13	0.02	-0.98	0.1718874	0	0.0572958	-1.67303736	7.06457214	-28.934379
4.82	482	0.129	0.018	-0.98	0.0572958	0.1145916	0.1145916	-1.66730778	7.06457214	-28.92864942
4.83	483	0.129	0.017	-0.98	0	0.0572958	0.1145916	-1.66730778	7.06457214	-28.92864942
4.84	484	0.129	0.018	-0.98	0.0572958	0.0572958	0.0572958	-1.66730778	7.06457214	-28.92864942
4.85	485	0.13	0.016	-0.976	0.0572958	0.2291832	0	-1.74179232	7.06457214	-28.94010858
4.86	486	0.131	0.016	-0.979	-0.1145916	0.286479	0	-1.74179232	7.07030172	-28.94010858
4.87	487	0.134	0.015	-0.982	0	0.286479	0.0572958	-1.74179232	7.0760313	-28.934379
4.88	488	0.135	0.013	-0.982	0	-0.1145916	0.0572958	-1.74179232	7.07030172	-28.934379
4.89	489	0.134	0.012	-0.981	-0.1718874	-0.1718874	0	-1.74179232	7.07030172	-28.934379
4.9	490	0.134	0.013	-0.982	-0.4583664	-0.2291832	-0.1145916	-1.76471064	7.08749046	-28.92864942
4.91	491	0.134	0.013	-0.983	-0.572958	-0.286479	-0.2291832	-1.77044022	7.08176088	-28.92864942
4.92	492	0.134	0.014	-0.985	-0.572958	-0.2291832	-0.3437748	-1.78189938	7.08176088	-28.934379
4.93	493	0.133	0.013	-0.986	-0.572958	-0.1718874	-0.2291832	-1.78762896	7.08176088	-28.934379
4.94	494	0.132	0.015	-0.986	-0.5156622	-0.1145916	-0.1145916	-1.79335854	7.0760313	-28.94010858
4.95	495	0.129	0.016	-0.987	-0.5156622	0	-0.1145916	-1.82773602	7.07030172	-28.94583816
4.96	496	0.129	0.017	-0.985	-0.5156622	0	-0.1718874	-1.8334656	7.07030172	-28.95156774
4.97	497	0.133	0.017	-0.983	-0.6875496	0.0572958	-0.1718874	-1.83919518	7.07030172	-28.95156774
4.98	498	0.136	0.017	-0.98	-0.9167328	-0.1145916	0	-1.85065434	7.07030172	-28.95156774
4.99	499	0.135	0.019	-0.98	-0.6875496	-0.2291832	0.0572958	-1.85638392	7.07030172	-28.95156774
5	500	0.13	0.02	-0.981	-0.5156622	-0.2291832	-0.0572958	-1.91367972	7.0473834	-28.96875648
5.01	501	0.127	0.023	-0.983	-0.3437748	-0.0572958	-0.1145916	-1.91367972	7.04165382	-28.96875648
5.02	502	0.133	0.021	-0.981	-0.2291832	0.1145916	-0.1718874	-1.9194093	7.0473834	-28.97448606
5.03	503	0.139	0.014	-0.977	-0.5156622	0	0	-1.92513888	7.0473834	-28.97448606
5.04	504	0.139	0.011	-0.975	-0.859437	-0.286479	0	-1.93086846	7.04165382	-28.97448606
5.05	505	0.135	0.013	-0.976	-1.0886202	-0.4583664	-0.0572958	-1.95378678	7.04165382	-28.97448606
5.06	506	0.13	0.017	-0.978	-1.145916	-0.5156622	-0.1145916	-1.96524594	7.03592424	-28.97448606
5.07	507	0.131	0.018	-0.979	-1.0313244	-0.286479	-0.286479	-1.9767051	7.03019466	-28.97448606
5.08	508	0.136	0.02	-0.986	-0.6302538	-0.2291832	-0.2291832	-1.98243468	7.03019466	-28.98021564
5.09	509	0.138	0.02	-0.99	0	-0.286479	0	-1.98243468	7.02446508	-28.98021564
5.1	510	0.134	0.021	-0.989	0.1718874	-0.2291832	0	-2.0340009	7.03019466	-28.98021564
5.11	511	0.129	0.02	-0.987	0.286479	-0.286479	0.0572958	-2.02827132	7.02446508	-28.98021564
5.12	512	0.125	0.017	-0.982	0.1718874	-0.0572958	0	-2.02827132	7.02446508	-28.98021564
5.13	513	0.126	0.018	-0.982	0	0	-0.1718874	-2.02827132	7.02446508	-28.98021564
5.14	514	0.128	0.02	-0.983	-0.0572958	0.0572958	-0.2291832	-2.02827132	7.02446508	-28.98594522
5.15	515	0.129	0.022	-0.984	-0.0572958	0.0572958	-0.2291832	-2.08556712	7.0187355	-29.00313396
5.16	516	0.132	0.022	-0.985	0	0.0572958	-0.1145916	-2.08556712	7.0187355	-29.00313396
5.17	517	0.132	0.02	-0.983	0.0572958	0	0	-2.08556712	7.0187355	-29.00313396
5.18	518	0.133	0.02	-0.983	0.1718874	0	0	-2.08556712	7.0187355	-29.00313396
5.19	519	0.132	0.018	-0.981	0.1718874	0.0572958	0.1145916	-2.07983754	7.02446508	-29.00313396
5.2	520	0.132	0.019	-0.981	0.1145916	0.0572958	0.1718874	-2.10848544	7.03592424	-28.99740438
5.21	521	0.133	0.017	-0.982	0.1145916	0.1145916	0.1718874	-2.10275586	7.03592424	-28.9916748
5.22	522	0.131	0.017	-0.984	0.286479	0.1145916	0.1718874	-2.10275586	7.03592424	-28.9916748
5.23	523	0.131	0.018	-0.986	0.5156622	0.2291832	0.1145916	-2.09702628	7.04165382	-28.9916748
5.24	524	0.132	0.016	-0.983	0.572958	0.4583664	0.2291832	-2.0912967	7.0473834	-28.98594522
5.25	525	0.132	0.014	-0.981	0.5156622	0.4583664	0.2291832	-2.07983754	7.05884256	-28.98021564
5.26	526	0.132	0.013	-0.982	0.3437748	0.2291832	0.1145916	-2.07410796	7.05884256	-28.98021564
5.27	527	0.132	0.013	-0.982	0.1145916	0.1718874	0.1145916	-2.07410796	7.06457214	-28.98021564
5.28	528	0.13	0.015	-0.982	0.0572958	0.1145916	0	-2.07410796	7.06457214	-28.98021564
5.29	529	0.13	0.016	-0.983	0	0.286479	0	-2.06837838	7.06457214	-28.98021564
5.3	530	0.132	0.017	-0.983	0	0.3437748	0	-2.09702628	7.08176088	-28.97448606
5.31	531	0.132	0.019	-0.985	0.1145916	0.4010706	0	-2.0912967	7.08176088	-28.97448606
5.32	532	0.133	0.018	-0.985	0.1718874	0.286479	0	-2.0912967	7.08749046	-28.97448606
5.33	533	0.133	0.019	-0.985	0.286479	0.286479	0	-2.08556712	7.09322004	-28.97448606
5.34	534	0.132	0.018	-0.984	0.4010706	0.3437748	0	-2.08556712	7.09322004	-28.97448606
5.35	535	0.133	0.018	-0.983	0.4583664	0.3437748	0	-2.0912967	7.1046792	-28.97448606
5.36	536	0.132	0.02	-0.98	0.4583664	0.4010706	0	-2.08556712	7.11040878	-28.97448606
5.37	537	0.134	0.02	-0.981	0.1718874	0.4010706	0.0572958	-2.08556712	7.11040878	-28.97448606
5.38	538	0.133	0.02	-0.983	0.2291832	0.4010706	0.1145916	-2.08556712	7.11613836	-28.97448606
5.39	539	0.133	0.02	-0.982	0.1145916	0.1718874	0.0572958	-2.07983754	7.12186794	-28.97448606
5.4	540	0.132	0.02	-0.981	0	0.0572958	0.0572958	-2.12567418	7.1333271	-28.96875648
5.41	541	0.131	0.02	-0.983	0	0.1718874	0.0572958	-2.12567418	7.1333271	-28.96875648
5.42	542	0.13	0.02	-0.984	0.0572958	0.286479	0	-2.12567418	7.13905668	-28.96875648
5.43	543	0.131	0.021	-0.987	0.0572958	0.3437748	0	-2.12567418	7.13905668	-28.96875648
5.44	544	0.132	0.019	-0.984	0.1718874	0.4583664	0.0572958	-2.12567418	7.14478626	-28.96875648
5.45	545	0.132	0.018	-0.983	0.2291832	0.5156622	0	-2.13140376	7.15051584	-28.97448606
5.46	546	0.131	0.019	-0.983	0.2291832	0.6302538	0	-2.12567418	7.15624542	-28.97448606
5.47	547	0.132	0.019	-0.984	0.3437748	0.6875496	0	-2.12567418	7.161975	-28.97448606
5.48	548	0.133	0.017	-0.984	0.286479	0.7448454	0	-2.1199446	7.16770458	-28.97448606
5.49	549	0.135	0.018	-0.984	0.2291832	0.6302538	0	-2.1199446	7.17916374	-28.97448606
5.5	550	0.135	0.017	-0.986	0.286479	0.3437748	0	-2.12567418	7.18489332	-28.97448606
5.51	551	0.134	0.015	-0.982	0.4583664	0.2291832	0	-2.1199446	7.1906229	-28.97448606
5.52	552	0.133	0.014	-0.977	0.4010706	0.4010706	0	-2.11421502	7.1906229	-28.97448606
5.53	553	0.132	0.015	-0.98	0.1145916	0.572958	0	-2.11421502	7.19635248	-28.97448606
5.54	554	0.133	0.017	-0.98	0.0572958	0.6875496	-0.0572958	-2.11421502	7.20781164	-28.97448606
5.55	555	0.136	0.016	-0.982	0	0.5156622	0	-2.1199446	7.2192708	-28.96875648
5.56	556	0.137	0.016	-0.984	-0.0572958	0.4010706	-0.0572958	-2.1199446	7.22500038	-28.96875648
5.57	557	0.137	0.016	-0.984	-0.0572958	0.286479	-0.1145916	-2.1199446	7.23072996	-28.96875648
5.58	558	0.135	0.016	-0.984	0.0572958	0.1145916	-0.0572958	-2.1199446	7.23072996	-28.97448606
5.59	559	0.134	0.017	-0.986	0.0572958	0.0572958	0	-2.1199446	7.23072996	-28.97448606
5.6	560	0.132	0.016	-0.986	0.1145916	-0.0572958	0	-2.13140376	7.19635248	-28.9916748
5.61	561	0.13	0.018	-0.982	0	0.1718874	0	-2.13140376	7.19635248	-28.9916748
5.62	562	0.13	0.018	-0.982	0.1145916	0.572958	0	-2.12567418	7.20208206	-28.9916748
5.63	563	0.135	0.017	-0.979	-0.0572958	0.4010706	0.0572958	-2.12567418	7.20781164	-28.9916748
5.64	564	0.137	0.017	-0.979	-0.286479	-0.2291832	0.1145916	-2.13140376	7.20781164	-28.98594522
5.65	565	0.137	0.019	-0.982	-0.0572958	-0.5156622	0.0572958	-2.14286292	7.20781164	-28.98594522
5.66	566	0.134	0.021	-0.983	0.1145916	-0.4583664	0	-2.14286292	7.20208206	-28.98594522
5.67	567	0.134	0.021	-0.982	0.1718874	-0.4010706	0	-2.14286292	7.20208206	-28.98594522
5.68	568	0.14	0.014	-0.978	-0.1145916	-0.5156622	0	-2.14286292	7.19635248	-28.98594522
5.69	569	0.14	0.009	-0.975	-0.6302538	-0.859437	0.2291832	-2.1485925	7.18489332	-28.98021564
5.7	570	0.136	0.011	-0.976	-0.8021412	-0.8021412	0.1145916	-2.1485925	7.18489332	-28.97448606
5.71	571	0.132	0.013	-0.978	-0.9167328	-0.6875496	0	-2.16005166	7.17343416	-28.97448606
5.72	572	0.129	0.017	-0.98	-0.6875496	-0.6302538	-0.1718874	-2.16578124	7.16770458	-28.98021564
5.73	573	0.134	0.018	-0.982	-0.4010706	-0.3437748	-0.286479	-2.17151082	7.161975	-28.98021564
5.74	574	0.138	0.018	-0.988	-0.286479	-0.286479	-0.1145916	-2.1772404	7.161975	-28.98594522
5.75	575	0.14	0.019	-0.992	0	-0.5156622	0	-2.18296998	7.16770458	-28.97448606
5.76	576	0.134	0.019	-0.99	0	-0.5156622	0.0572958	-2.18296998	7.161975	-28.97448606
5.77	577	0.129	0.018	-0.982	0.1145916	-0.6875496	0.0572958	-2.18296998	7.15624542	-28.97448606
5.78	578	0.127	0.017	-0.979	0.0572958	-0.6302538	0	-2.18296998	7.15051584	-28.97448606
5.79	579	0.128	0.021	-0.979	-0.0572958	-0.5156622	-0.1145916	-2.18296998	7.14478626	-28.97448606
5.8	580	0.131	0.024	-0.982	-0.1718874	-0.4583664	-0.2291832	-2.21161788	7.13905668	-28.98021564
5.81	581	0.135	0.025	-0.985	-0.0572958	-0.286479	-0.1718874	-2.21161788	7.13905668	-28.98594522
5.82	582	0.136	0.023	-0.985	0.2291832	-0.2291832	-0.0572958	-2.21161788	7.1333271	-28.98594522
5.83	583	0.137	0.018	-0.984	0.1718874	-0.1145916	0	-2.2058883	7.1333271	-28.98594522
5.84	584	0.137	0.018	-0.982	0.1145916	0	0.1718874	-2.2058883	7.1333271	-28.98021564
5.85	585	0.137	0.018	-0.983	0.3437748	0.0572958	0.1145916	-2.21161788	7.16770458	-28.96875648
5.86	586	0.136	0.018	-0.982	0.4583664	0.1145916	0.1718874	-2.2058883	7.16770458	-28.9630269
5.87	587	0.135	0.017	-0.984	0.5156622	0.2291832	0.1718874	-2.20015872	7.17343416	-28.9630269
