TimeStamp(s)	FrameCounter	AccX	AccY	AccZ	GyrX	GyrY	GyrZ	EulerX	EulerY	EulerZ
0.01	1	-0.027	-1.006	0.029	0.1145916	0.5156622	0.286479	93.60987804	-0.14896908	-19.75559184
0.02	2	-0.036	-1.005	0	0.4583664	0.859437	0.1145916	93.61560762	-0.15469866	-19.74986226
0.03	3	-0.036	-1.006	0.002	0.5156622	0.7448454	0.1718874	93.6213372	-0.15469866	-19.7384031
0.04	4	-0.034	-1.006	0.001	0.8021412	0.859437	0.2291832	93.62706678	-0.16042824	-19.73267352
0.05	5	-0.033	-1.006	0.002	0.7448454	0.859437	0.2291832	93.40934274	-0.21772404	-19.7384031
0.06	6	-0.031	-1.006	0.003	0.8021412	1.0313244	0.286479	93.4208019	-0.21772404	-19.72694394
0.07	7	-0.031	-1.004	0.003	0.9167328	1.0313244	0.1718874	93.42653148	-0.22345362	-19.71548478
0.08	8	-0.03	-1.002	0.003	1.0886202	0.9740286	0.1145916	93.43799064	-0.22345362	-19.7097552
0.09	9	-0.031	-1.002	0.005	1.145916	1.0886202	0	93.4494498	-0.22345362	-19.69829604
0.1	10	-0.033	-1.003	0.005	1.2605076	0.9167328	0	93.28902156	-0.27501984	-19.69829604
0.11	11	-0.034	-1.005	0.007	1.145916	0.7448454	-0.1145916	93.30048072	-0.26929026	-19.69256646
0.12	12	-0.036	-1.006	0.008	1.2032118	0.859437	-0.1718874	93.31193988	-0.26929026	-19.6811073
0.13	13	-0.036	-1.008	0.009	1.2032118	0.9740286	-0.2291832	93.32339904	-0.26929026	-19.66964814
0.14	14	-0.036	-1.007	0.009	1.0313244	1.0313244	-0.2291832	93.3348582	-0.26929026	-19.65818898
0.15	15	-0.035	-1.008	0.008	0.7448454	0.9167328	-0.286479	93.1343229	-0.32658606	-19.66391856
0.16	16	-0.033	-1.009	0.008	0.6875496	0.9740286	-0.1718874	93.14005248	-0.32658606	-19.6524594
0.17	17	-0.033	-1.009	0.006	0.6875496	0.859437	-0.1718874	93.14578206	-0.32085648	-19.64672982
0.18	18	-0.031	-1.01	0.007	0.6302538	0.9740286	-0.1145916	93.15724122	-0.32085648	-19.63527066
0.19	19	-0.032	-1.009	0.008	0.5156622	0.9740286	-0.1145916	93.15724122	-0.32085648	-19.6238115
0.2	20	-0.032	-1.009	0.008	0.5156622	0.9167328	-0.1145916	92.9337876	-0.38388186	-19.62954108
0.21	21	-0.033	-1.007	0.009	0.4583664	0.9740286	-0.0572958	92.93951718	-0.38388186	-19.61808192
0.22	22	-0.033	-1.007	0.009	0.5156622	0.9167328	-0.0572958	92.94524676	-0.38388186	-19.61235234
0.23	23	-0.037	-1.008	0.008	0.3437748	1.0313244	-0.0572958	92.95097634	-0.38388186	-19.60089318
0.24	24	-0.036	-1.008	0.007	0.3437748	1.0313244	0	92.95097634	-0.38388186	-19.58943402
0.25	25	-0.035	-1.008	0.006	0.286479	1.2032118	0	92.75044104	-0.44690724	-19.58943402
0.26	26	-0.035	-1.006	0.005	0.2291832	1.3178034	0	92.75617062	-0.44690724	-19.57797486
0.27	27	-0.033	-1.005	0.004	0.3437748	1.4896908	0	92.75617062	-0.44690724	-19.56078612
0.28	28	-0.032	-1.005	0.005	0.3437748	1.4896908	0	92.7619002	-0.44690724	-19.54359738
0.29	29	-0.031	-1.007	0.004	0.2291832	1.432395	0	92.7619002	-0.44690724	-19.53213822
0.3	30	-0.03	-1.006	0.004	0.286479	1.4896908	0.0572958	92.62439028	-0.4870143	-19.52640864
0.31	31	-0.031	-1.006	0.005	0.4010706	1.2605076	0.0572958	92.63011986	-0.4870143	-19.5092199
0.32	32	-0.032	-1.006	0.005	0.5156622	1.0886202	0.0572958	92.63584944	-0.4870143	-19.49776074
0.33	33	-0.031	-1.004	0.004	0.5156622	0.9740286	0.0572958	92.64157902	-0.49274388	-19.49203116
0.34	34	-0.032	-1.004	0.004	0.572958	0.859437	0	92.6473086	-0.49274388	-19.480572
0.35	35	-0.032	-1.004	0.004	0.5156622	0.6302538	0	92.3894775	-0.55576926	-19.48630158
0.36	36	-0.031	-1.004	0.004	0.5156622	0.4010706	-0.1145916	92.39520708	-0.55576926	-19.48630158
0.37	37	-0.03	-1.007	0.004	0.4583664	0.4583664	-0.0572958	92.40093666	-0.55576926	-19.480572
0.38	38	-0.03	-1.006	0.005	0.5156622	0.4010706	-0.1145916	92.40666624	-0.55576926	-19.47484242
0.39	39	-0.032	-1.008	0.009	0.5156622	0.286479	-0.1145916	92.41239582	-0.55003968	-19.46911284
0.4	40	-0.034	-1.009	0.013	-0.3437748	-0.4010706	-0.1145916	92.246238	-0.60733548	-19.48630158
0.41	41	-0.034	-1.008	0.011	-0.6875496	-0.7448454	0	92.23477884	-0.60733548	-19.49203116
0.42	42	-0.035	-1.007	0.009	-0.6875496	-0.859437	0	92.22904926	-0.60733548	-19.50349032
0.43	43	-0.035	-1.007	0.009	-0.6302538	-0.859437	0	92.22331968	-0.60733548	-19.5092199
0.44	44	-0.036	-1.009	0.01	-0.6875496	-0.9167328	0	92.2175901	-0.60733548	-19.52067906
0.45	45	-0.035	-1.009	0.006	-0.7448454	-0.9167328	0	92.05143228	-0.6589017	-19.5378678
0.46	46	-0.035	-1.006	0.004	-0.572958	-1.0886202	-0.0572958	92.0457027	-0.65317212	-19.54932696
0.47	47	-0.036	-1.004	0.002	-0.286479	-1.0313244	-0.1145916	92.0457027	-0.65317212	-19.55505654
0.48	48	-0.038	-1.004	0.001	-0.1718874	-1.145916	-0.3437748	92.03997312	-0.64744254	-19.57224528
0.49	49	-0.038	-1.005	0.003	-0.1718874	-1.0886202	-0.286479	92.03997312	-0.64744254	-19.57797486
0.5	50	-0.036	-1.004	0.004	-0.3437748	-0.9167328	-0.286479	91.88527446	-0.69327918	-19.5951636
0.51	51	-0.035	-1.002	0.003	-0.286479	-0.8021412	-0.1718874	91.87954488	-0.6875496	-19.60662276
0.52	52	-0.033	-1.003	0.002	-0.286479	-0.9167328	-0.0572958	91.87954488	-0.6875496	-19.61235234
0.53	53	-0.034	-1.004	0.002	-0.3437748	-1.0313244	0.0572958	91.8738153	-0.6875496	-19.6238115
0.54	54	-0.034	-1.005	0.004	-0.1718874	-1.145916	0.1718874	91.8738153	-0.6875496	-19.63527066
0.55	55	-0.036	-1.006	0.005	-0.286479	-1.145916	0.2291832	91.72484622	-0.7448454	-19.65818898
0.56	56	-0.039	-1.007	0.004	-0.286479	-0.9740286	0.1145916	91.72484622	-0.7448454	-19.66391856
0.57	57	-0.04	-1.007	0.004	-0.1145916	-0.859437	0	91.71911664	-0.7448454	-19.67537772
0.58	58	-0.042	-1.008	0.005	-0.1145916	-0.7448454	-0.1145916	91.71911664	-0.73911582	-19.6811073
0.59	59	-0.042	-1.01	0.007	-0.1718874	-0.8021412	-0.1718874	91.71911664	-0.73911582	-19.69256646
0.6	60	-0.039	-1.009	0.007	-0.2291832	-1.145916	-0.286479	91.59879546	-0.77922288	-19.7097552
0.61	61	-0.035	-1.008	0.006	-0.1718874	-1.432395	-0.4583664	91.59879546	-0.7734933	-19.72121436
0.62	62	-0.031	-1.005	0.005	-0.1145916	-1.5469866	-0.4583664	91.59879546	-0.76776372	-19.7384031
0.63	63	-0.028	-1.002	0.004	0.1145916	-1.7761698	-0.5156622	91.59879546	-0.76203414	-19.75559184
0.64	64	-0.03	-1.002	0.005	0.2291832	-1.6615782	-0.4583664	91.60452504	-0.75630456	-19.77278058
0.65	65	-0.033	-1.005	0.004	0.1718874	-1.6042824	-0.286479	91.49566302	-0.78495246	-19.78996932
0.66	66	-0.035	-1.004	0.005	0.2291832	-1.6042824	-0.2291832	91.49566302	-0.78495246	-19.80715806
0.67	67	-0.037	-1.005	0.008	0.1718874	-1.432395	-0.2291832	91.5013926	-0.77922288	-19.8243468
0.68	68	-0.038	-1.004	0.008	0.0572958	-1.432395	-0.0572958	91.5013926	-0.77922288	-19.83580596
0.69	69	-0.036	-1.003	0.007	0.1145916	-1.4896908	-0.0572958	91.5013926	-0.77922288	-19.8529947
0.7	70	-0.036	-1.004	0.007	0.1718874	-1.6615782	0	91.42117848	-0.80787078	-19.87018344
0.71	71	-0.037	-1.005	0.009	0.3437748	-1.7761698	0	91.42690806	-0.80787078	-19.88737218
0.72	72	-0.038	-1.005	0.008	0.4010706	-1.5469866	-0.1145916	91.42690806	-0.80787078	-19.90456092
0.73	73	-0.038	-1.006	0.009	0.6302538	0	0	91.43836722	-0.80787078	-19.90456092
0.74	74	-0.038	-1.008	0.011	0.6302538	0.1145916	0	91.4440968	-0.80787078	-19.90456092
0.75	75	-0.037	-1.007	0.011	0.6875496	0.2291832	-0.0572958	91.32377562	-0.859437	-19.90456092
0.76	76	-0.037	-1.008	0.011	0.8021412	0.3437748	0	91.33523478	-0.859437	-19.90456092
0.77	77	-0.037	-1.006	0.009	0.9167328	0.5156622	0	91.34096436	-0.859437	-19.89883134
0.78	78	-0.038	-1.005	0.01	0.9740286	0.6302538	0	91.35242352	-0.859437	-19.89310176
0.79	79	-0.037	-1.006	0.011	0.9167328	0.7448454	0.0572958	91.3581531	-0.86516658	-19.8816426
0.8	80	-0.035	-1.004	0.013	0.8021412	0.9167328	0.1718874	91.3008573	-0.89381448	-19.87591302
0.81	81	-0.034	-1.006	0.014	0.7448454	0.859437	0.2291832	91.31231646	-0.89381448	-19.87018344
0.82	82	-0.033	-1.007	0.014	0.6875496	0.859437	0.286479	91.31804604	-0.89954406	-19.85872428
0.83	83	-0.032	-1.007	0.013	0.7448454	0.8021412	0.286479	91.32377562	-0.89954406	-19.8529947
0.84	84	-0.032	-1.008	0.012	0.8021412	0.8021412	0.286479	91.33523478	-0.90527364	-19.84153554
0.85	85	-0.034	-1.007	0.013	0.859437	0.9167328	0.286479	91.2722094	-0.93392154	-19.83580596
0.86	86	-0.034	-1.009	0.018	0.572958	1.145916	0.3437748	91.27793898	-0.93965112	-19.8243468
0.87	87	-0.035	-1.008	0.016	0.1145916	1.2032118	0.286479	91.27793898	-0.9453807	-19.81288764
0.88	88	-0.035	-1.008	0.016	0.1718874	1.432395	0.286479	91.28366856	-0.9453807	-19.7956989
0.89	89	-0.035	-1.008	0.015	0.1145916	1.5469866	0.3437748	91.28366856	-0.95111028	-19.78423974
0.9	90	-0.034	-1.01	0.016	0	1.6042824	0.4010706	91.23210234	-0.97975818	-19.767051
0.91	91	-0.032	-1.012	0.016	0	1.4896908	0.4583664	91.23210234	-0.98548776	-19.75559184
0.92	92	-0.032	-1.01	0.015	-0.0572958	1.6615782	0.4583664	91.23210234	-0.99121734	-19.7384031
0.93	93	-0.033	-1.01	0.013	0	1.718874	0.4583664	91.22637276	-0.99694692	-19.72121436
0.94	94	-0.032	-1.009	0.012	0	1.7761698	0.3437748	91.22637276	-1.0026765	-19.70402562
0.95	95	-0.031	-1.008	0.012	0	1.8907614	0.3437748	91.16907696	-1.01986524	-19.68683688
0.96	96	-0.031	-1.008	0.011	-0.0572958	1.718874	0.1718874	91.16334738	-1.02559482	-19.66964814
0.97	97	-0.032	-1.008	0.013	-0.1145916	1.6615782	0.0572958	91.16334738	-1.02559482	-19.6524594
0.98	98	-0.032	-1.007	0.015	-0.286479	1.6615782	0	91.1576178	-1.02559482	-19.63527066
0.99	99	-0.03	-1.006	0.015	-0.5156622	1.8334656	0	91.15188822	-1.02559482	-19.61808192
1	100	-0.03	-1.007	0.015	-0.5156622	1.7761698	0.0572958	91.100322	-1.04278356	-19.60089318
1.01	101	-0.028	-1.008	0.013	-0.4010706	1.8334656	0.1145916	91.09459242	-1.04278356	-19.58370444
1.02	102	-0.027	-1.006	0.015	-0.4010706	1.6615782	0.1718874	91.08886284	-1.04278356	-19.5665157
1.03	103	-0.028	-1.005	0.016	-0.4583664	1.432395	0.2291832	91.08313326	-1.04851314	-19.54932696
1.04	104	-0.027	-1.005	0.015	-0.4010706	1.2605076	0.1718874	91.07740368	-1.04851314	-19.5378678
1.05	105	-0.029	-1.006	0.013	-0.3437748	1.2032118	0.1718874	91.0143783	-1.06570188	-19.52640864
1.06	106	-0.028	-1.007	0.015	-0.4010706	1.145916	0.2291832	91.0143783	-1.06570188	-19.51494948
1.07	107	-0.029	-1.007	0.017	-0.572958	1.0886202	0.1145916	91.00291914	-1.07143146	-19.50349032
1.08	108	-0.03	-1.007	0.014	-0.6302538	1.145916	0.1145916	90.99718956	-1.07143146	-19.49203116
1.09	109	-0.03	-1.007	0.011	-0.4583664	1.0886202	0.1145916	90.99145998	-1.07716104	-19.480572
1.1	110	-0.03	-1.007	0.012	-0.3437748	0.9740286	0.1145916	90.91124586	-1.10007936	-19.47484242
1.11	111	-0.031	-1.007	0.015	-0.286479	0.9740286	0.0572958	90.90551628	-1.10007936	-19.46338326
1.12	112	-0.032	-1.009	0.018	-0.4010706	1.145916	0	90.90551628	-1.10007936	-19.4519241
1.13	113	-0.034	-1.009	0.017	-0.6302538	1.2605076	-0.0572958	90.89405712	-1.10007936	-19.44046494
1.14	114	-0.035	-1.009	0.017	-0.6302538	1.0886202	-0.1718874	90.88832754	-1.10007936	-19.42900578
1.15	115	-0.034	-1.008	0.017	-0.572958	1.2605076	-0.1718874	90.8424909	-1.1172681	-19.41754662
1.16	116	-0.032	-1.005	0.016	-0.572958	1.6042824	-0.1145916	90.83676132	-1.1172681	-19.40035788
1.17	117	-0.03	-1.006	0.013	-0.572958	1.6615782	0	90.83103174	-1.1172681	-19.38889872
1.18	118	-0.028	-1.005	0.011	-0.5156622	1.5469866	0	90.82530216	-1.1172681	-19.37170998
1.19	119	-0.028	-1.005	0.009	-0.2291832	1.4896908	0.2291832	90.81957258	-1.1172681	-19.35452124
1.2	120	-0.03	-1.006	0.01	-0.0572958	1.2605076	0.286479	90.7565472	-1.14018642	-19.34306208
1.21	121	-0.032	-1.004	0.014	-0.1718874	1.2605076	0.2291832	90.75081762	-1.145916	-19.33160292
1.22	122	-0.032	-1.005	0.014	-0.4010706	1.3178034	0.2291832	90.75081762	-1.145916	-19.32014376
1.23	123	-0.033	-1.006	0.013	-0.572958	1.3750992	0.2291832	90.73935846	-1.15164558	-19.30295502
1.24	124	-0.034	-1.008	0.013	-0.4010706	0.9740286	0.1718874	90.73935846	-1.15164558	-19.29722544
1.25	125	-0.034	-1.01	0.016	-0.1718874	0.3437748	0.1718874	90.65914434	-1.19175264	-19.29149586
1.26	126	-0.033	-1.011	0.017	-0.2291832	0.4010706	0.1145916	90.65914434	-1.19748222	-19.29149586
1.27	127	-0.03	-1.009	0.014	-0.1145916	0.0572958	0.2291832	90.65914434	-1.19748222	-19.29149586
1.28	128	-0.023	-1.006	0.014	0.2291832	-0.4010706	0.286479	90.65914434	-1.2032118	-19.29149586
1.29	129	-0.022	-1.001	0.017	0.4583664	-0.6875496	0.3437748	90.66487392	-1.2032118	-19.30295502
1.3	130	-0.023	-0.999	0.016	0.4583664	-0.859437	0.3437748	90.63049644	-1.2032118	-19.3086846
1.31	131	-0.026	-0.999	0.012	0.3437748	-0.859437	0.286479	90.63622602	-1.2032118	-19.32014376
1.32	132	-0.03	-1.001	0.011	0.4010706	-0.859437	0.3437748	90.63622602	-1.20894138	-19.32587334
1.33	133	-0.033	-1.003	0.012	0.3437748	-0.8021412	0.2291832	90.6419556	-1.20894138	-19.3373325
1.34	134	-0.034	-1.004	0.011	0.1718874	-0.7448454	0	90.64768518	-1.20894138	-19.34306208
1.35	135	-0.033	-1.005	0.012	0.1145916	-0.7448454	-0.1145916	90.56174148	-1.23758928	-19.35452124
1.36	136	-0.033	-1.007	0.013	0	-0.7448454	-0.1145916	90.56174148	-1.2318597	-19.36025082
1.37	137	-0.032	-1.007	0.013	0	-0.6875496	-0.0572958	90.56174148	-1.2318597	-19.3659804
1.38	138	-0.031	-1.008	0.013	0.1145916	-0.4583664	0	90.56174148	-1.2318597	-19.37170998
1.39	139	-0.031	-1.009	0.012	0.286479	-0.4583664	0.0572958	90.56747106	-1.2318597	-19.37743956
1.4	140	-0.03	-1.009	0.012	0.5156622	-0.4010706	0.286479	90.51590484	-1.24331886	-19.38316914
1.41	141	-0.028	-1.007	0.013	0.572958	-0.572958	0.286479	90.52163442	-1.24904844	-19.38889872
1.42	142	-0.03	-1.006	0.012	0.572958	-0.4583664	0.286479	90.527364	-1.24904844	-19.3946283
1.43	143	-0.032	-1.005	0.011	0.4583664	-0.5156622	0.2291832	90.53309358	-1.25477802	-19.40035788
1.44	144	-0.031	-1.005	0.011	0.4583664	-0.5156622	0.1718874	90.53882316	-1.25477802	-19.40608746
1.45	145	-0.031	-1.006	0.014	0.1718874	-0.4010706	0.1718874	90.45860904	-1.27769634	-19.41181704
1.46	146	-0.032	-1.008	0.015	-0.0572958	-0.5156622	0.1718874	90.45860904	-1.27769634	-19.41754662
1.47	147	-0.032	-1.009	0.016	-0.3437748	-0.6302538	0.1718874	90.45287946	-1.28342592	-19.4232762
1.48	148	-0.032	-1.009	0.014	-0.4010706	-0.6875496	0.1145916	90.44714988	-1.28342592	-19.42900578
1.49	149	-0.033	-1.008	0.012	-0.3437748	-0.8021412	0.1145916	90.44714988	-1.28342592	-19.43473536
1.5	150	-0.034	-1.008	0.01	-0.2291832	-0.7448454	0.1145916	90.37266534	-1.30634424	-19.44619452
1.51	151	-0.032	-1.009	0.011	-0.1718874	-0.6302538	0.1145916	90.37266534	-1.30634424	-19.4519241
1.52	152	-0.031	-1.006	0.009	-0.0572958	-0.6302538	0.1718874	90.37266534	-1.30634424	-19.45765368
1.53	153	-0.029	-1.003	0.008	0	-0.8021412	0.286479	90.37266534	-1.31207382	-19.46911284
1.54	154	-0.028	-1.002	0.007	0	-0.6875496	0.4010706	90.37266534	-1.31207382	-19.47484242
1.55	155	-0.028	-1.004	0.008	0	-0.9167328	0.4583664	90.3268287	-1.32353298	-19.48630158
1.56	156	-0.028	-1.004	0.01	0	-0.9740286	0.5156622	90.3268287	-1.32926256	-19.49776074
1.57	157	-0.028	-1.004	0.01	-0.0572958	-1.145916	0.5156622	90.3268287	-1.33499214	-19.5092199
1.58	158	-0.029	-1.005	0.01	0	-1.2605076	0.572958	90.3268287	-1.34072172	-19.52067906
1.59	159	-0.03	-1.004	0.009	0.0572958	-1.432395	0.5156622	90.3268287	-1.34072172	-19.53213822
1.6	160	-0.031	-1.005	0.009	0.1718874	-1.5469866	0.5156622	90.30391038	-1.35218088	-19.54932696
1.61	161	-0.033	-1.005	0.009	0.2291832	-1.145916	0.286479	90.30963996	-1.35791046	-19.56078612
1.62	162	-0.035	-1.007	0.009	0.2291832	-0.9167328	0.1145916	90.30963996	-1.35791046	-19.57224528
1.63	163	-0.036	-1.009	0.011	0	-0.859437	0	90.30963996	-1.35791046	-19.57797486
1.64	164	-0.037	-1.008	0.011	-0.0572958	-0.8021412	0	90.30963996	-1.35791046	-19.58943402
1.65	165	-0.035	-1.007	0.01	0	-0.8021412	-0.0572958	90.23515542	-1.38655836	-19.60089318
1.66	166	-0.032	-1.008	0.012	0	-0.859437	0	90.23515542	-1.38655836	-19.60662276
1.67	167	-0.031	-1.008	0.012	-0.0572958	-0.9167328	0	90.23515542	-1.38655836	-19.61808192
1.68	168	-0.032	-1.006	0.011	-0.0572958	-0.859437	0	90.23515542	-1.38655836	-19.6238115
1.69	169	-0.031	-1.006	0.01	0	-0.8021412	0	90.23515542	-1.38655836	-19.63527066
1.7	170	-0.032	-1.003	0.008	0	-0.7448454	0.0572958	90.16640046	-1.39801752	-19.64100024
1.71	171	-0.033	-1.003	0.007	0.2291832	-0.859437	0.1145916	90.16640046	-1.39801752	-19.6524594
1.72	172	-0.033	-1.003	0.008	0.1145916	-0.8021412	0.1145916	90.17213004	-1.39801752	-19.65818898
1.73	173	-0.033	-1.004	0.008	0.0572958	-0.8021412	0.1718874	90.17213004	-1.39801752	-19.66964814
1.74	174	-0.032	-1.004	0.007	0	-0.859437	0.0572958	90.17213004	-1.4037471	-19.67537772
1.75	175	-0.033	-1.006	0.009	0.0572958	-0.8021412	0	90.1262934	-1.41520626	-19.68683688
1.76	176	-0.033	-1.007	0.01	0.0572958	-0.9167328	0	90.1262934	-1.41520626	-19.69256646
1.77	177	-0.033	-1.009	0.009	0.1145916	-0.9167328	0	90.1262934	-1.41520626	-19.70402562
1.78	178	-0.035	-1.008	0.01	0.1718874	-0.859437	0	90.13202298	-1.41520626	-19.7097552
1.79	179	-0.037	-1.008	0.009	0.286479	-0.9740286	-0.0572958	90.13202298	-1.41520626	-19.72121436
1.8	180	-0.037	-1.007	0.008	0.286479	-0.8021412	-0.1145916	90.0976455	-1.432395	-19.73267352
1.81	181	-0.037	-1.005	0.007	0.5156622	-0.7448454	-0.1145916	90.10337508	-1.42666542	-19.7384031
1.82	182	-0.035	-1.003	0.006	0.5156622	-0.6302538	-0.1145916	90.10910466	-1.42666542	-19.74413268
1.83	183	-0.031	-1.006	0.007	0.5156622	-0.286479	-0.0572958	90.11483424	-1.42666542	-19.74986226
1.84	184	-0.029	-1.007	0.007	0.2291832	-0.5156622	0	90.11483424	-1.42666542	-19.75559184
1.85	185	-0.03	-1.007	0.008	0.1718874	-0.7448454	0	90.07472718	-1.42666542	-19.76132142
1.86	186	-0.031	-1.009	0.011	0	-0.6302538	0.0572958	90.08045676	-1.42666542	-19.767051
1.87	187	-0.033	-1.009	0.011	-0.286479	-0.0572958	-0.0572958	90.07472718	-1.42666542	-19.767051
1.88	188	-0.034	-1.01	0.009	-0.3437748	0	-0.0572958	90.0689976	-1.42666542	-19.767051
1.89	189	-0.037	-1.011	0.007	-0.2291832	0.0572958	0	90.0689976	-1.42666542	-19.767051
1.9	190	-0.04	-1.011	0.007	-0.1718874	0.3437748	0	89.99451306	-1.46677248	-19.767051
1.91	191	-0.039	-1.011	0.009	-0.1145916	0.6875496	0.0572958	89.99451306	-1.46677248	-19.75559184
1.92	192	-0.037	-1.011	0.009	-0.286479	0.4583664	-0.0572958	89.99451306	-1.46677248	-19.75559184
1.93	193	-0.033	-1.008	0.007	-0.3437748	0.1145916	-0.1145916	89.98878348	-1.46677248	-19.74986226
1.94	194	-0.029	-1.005	0.007	-0.2291832	-0.1718874	-0.1718874	89.9830539	-1.4610429	-19.75559184
1.95	195	-0.028	-1.002	0.005	-0.1145916	-0.4010706	-0.2291832	89.92002852	-1.44958374	-19.75559184
1.96	196	-0.029	-1	0.004	0	-0.286479	-0.2291832	89.92002852	-1.44958374	-19.76132142
1.97	197	-0.031	-1	0.004	0	-0.0572958	-0.1718874	89.92002852	-1.44385416	-19.76132142
1.98	198	-0.033	-1.001	0.005	0	0.1145916	-0.2291832	89.92002852	-1.44385416	-19.76132142
1.99	199	-0.035	-1.004	0.005	0	0.2291832	-0.0572958	89.92002852	-1.44385416	-19.75559184
2	200	-0.035	-1.005	0.005	0	0.286479	0	89.81689608	-1.46677248	-19.75559184
2.01	201	-0.034	-1.005	0.005	0.1145916	0.286479	0.0572958	89.82262566	-1.46677248	-19.74986226
2.02	202	-0.033	-1.005	0.004	0.286479	0.1718874	0.1145916	89.82262566	-1.46677248	-19.74986226
2.03	203	-0.033	-1.004	0.004	0.4583664	0.1718874	0.0572958	89.82835524	-1.47250206	-19.74986226
2.04	204	-0.035	-1.004	0.006	0.6302538	0.1145916	0	89.83408482	-1.46677248	-19.74986226
2.05	205	-0.037	-1.005	0.007	0.6302538	0.2291832	-0.0572958	89.8111665	-1.48396122	-19.74413268
2.06	206	-0.036	-1.007	0.009	0.572958	0.5156622	-0.1718874	89.81689608	-1.48396122	-19.7384031
2.07	207	-0.036	-1.009	0.009	0.572958	0.4010706	-0.1718874	89.82262566	-1.48396122	-19.73267352
2.08	208	-0.036	-1.008	0.008	0.3437748	0.4583664	-0.2291832	89.82835524	-1.47823164	-19.73267352
2.09	209	-0.037	-1.008	0.008	0.4010706	0.4583664	-0.2291832	89.83408482	-1.47823164	-19.72694394
2.1	210	-0.035	-1.007	0.008	0.4010706	0.5156622	-0.2291832	89.8111665	-1.4896908	-19.72121436
2.11	211	-0.036	-1.005	0.006	0.286479	0.6875496	-0.286479	89.8111665	-1.48396122	-19.71548478
2.12	212	-0.037	-1.004	0.006	0.5156622	0.572958	-0.2291832	89.81689608	-1.48396122	-19.7097552
2.13	213	-0.035	-1.006	0.006	0.572958	0.6302538	-0.2291832	89.82262566	-1.48396122	-19.69829604
2.14	214	-0.035	-1.006	0.006	0.5156622	0.6302538	-0.286479	89.82835524	-1.47823164	-19.69256646
2.15	215	-0.036	-1.007	0.008	0.4583664	0.572958	-0.3437748	89.8111665	-1.48396122	-19.68683688
2.16	216	-0.034	-1.008	0.01	0.3437748	0.6875496	-0.3437748	89.81689608	-1.48396122	-19.6811073
2.17	217	-0.032	-1.01	0.009	0.286479	0.6302538	-0.2291832	89.82262566	-1.47823164	-19.67537772
2.18	218	-0.033	-1.007	0.01	0.1718874	0.4010706	-0.0572958	89.82262566	-1.47823164	-19.66964814
2.19	219	-0.036	-1.006	0.011	0.1145916	0.4010706	-0.1145916	89.82262566	-1.47823164	-19.66391856
2.2	220	-0.038	-1.008	0.012	0	0.3437748	-0.0572958	89.7825186	-1.5183387	-19.66391856
2.21	221	-0.038	-1.006	0.01	-0.0572958	0.6302538	-0.1145916	89.7825186	-1.5183387	-19.65818898
2.22	222	-0.038	-1.006	0.009	0.1145916	0.6875496	-0.0572958	89.7825186	-1.5183387	-19.6524594
2.23	223	-0.039	-1.004	0.008	0.286479	0.5156622	0	89.78824818	-1.5183387	-19.64672982
2.24	224	-0.038	-1.005	0.009	0.2291832	0.6875496	-0.1145916	89.78824818	-1.51260912	-19.63527066
2.25	225	-0.037	-1.006	0.01	0.1718874	0.6875496	-0.2291832	89.77105944	-1.52406828	-19.62954108
2.26	226	-0.037	-1.005	0.01	0.2291832	0.7448454	-0.2291832	89.77105944	-1.52406828	-19.6238115
2.27	227	-0.036	-1.006	0.01	0.286479	0.6875496	-0.2291832	89.77678902	-1.5183387	-19.61808192
2.28	228	-0.035	-1.006	0.01	0.1718874	0.5156622	-0.1718874	89.77678902	-1.5183387	-19.61235234
2.29	229	-0.034	-1.007	0.011	0.1145916	0.4583664	0	89.77678902	-1.5183387	-19.60662276
2.3	230	-0.035	-1.008	0.014	0.0572958	0.5156622	0	89.7538707	-1.53552744	-19.60089318
2.31	231	-0.035	-1.01	0.013	0	0.5156622	0.0572958	89.7538707	-1.53552744	-19.5951636
2.32	232	-0.035	-1.009	0.012	-0.0572958	0.3437748	0	89.7538707	-1.53552744	-19.58943402
2.33	233	-0.036	-1.008	0.014	-0.0572958	0.4010706	0	89.7538707	-1.53552744	-19.58943402
2.34	234	-0.036	-1.008	0.012	-0.0572958	0.3437748	0	89.7538707	-1.54125702	-19.58370444
2.35	235	-0.036	-1.005	0.009	-0.1145916	0.2291832	0	89.70803406	-1.56417534	-19.58370444
2.36	236	-0.035	-1.005	0.01	-0.0572958	0.1145916	0	89.70803406	-1.56417534	-19.57797486
2.37	237	-0.037	-1.004	0.008	0	0	0	89.70803406	-1.56417534	-19.57797486
2.38	238	-0.036	-1.004	0.01	0	-0.3437748	0.1145916	89.70803406	-1.56990492	-19.58370444
2.39	239	-0.035	-1.004	0.011	0	-0.5156622	0.0572958	89.70803406	-1.56990492	-19.58943402
2.4	240	-0.034	-1.007	0.01	0	-0.4583664	0.0572958	89.67938616	-1.58136408	-19.5951636
2.41	241	-0.035	-1.006	0.01	0	-0.5156622	0.1145916	89.67938616	-1.58136408	-19.60089318
2.42	242	-0.034	-1.006	0.012	0.0572958	-0.5156622	0.1145916	89.67938616	-1.58136408	-19.60662276
2.43	243	-0.036	-1.007	0.014	0	-0.572958	0.1145916	89.67938616	-1.58709366	-19.61235234
2.44	244	-0.038	-1.008	0.01	-0.0572958	-0.6302538	0.0572958	89.67938616	-1.58709366	-19.61808192
2.45	245	-0.039	-1.008	0.011	-0.0572958	-0.6302538	0	89.66219742	-1.61574156	-19.6238115
2.46	246	-0.04	-1.007	0.013	0	-0.6302538	0	89.66219742	-1.61574156	-19.62954108
2.47	247	-0.04	-1.007	0.013	-0.0572958	-0.4583664	0.0572958	89.66219742	-1.61574156	-19.63527066
2.48	248	-0.039	-1.006	0.011	-0.0572958	0	0	89.66219742	-1.61574156	-19.63527066
2.49	249	-0.036	-1.006	0.009	0.0572958	0	0.0572958	89.66219742	-1.61574156	-19.63527066
2.5	250	-0.035	-1.005	0.012	0	0	0.1718874	89.64500868	-1.6329303	-19.63527066
2.51	251	-0.034	-1.005	0.012	-0.1145916	-0.0572958	0.2291832	89.64500868	-1.6329303	-19.63527066
2.52	252	-0.033	-1.005	0.011	0	-0.0572958	0.2291832	89.64500868	-1.63865988	-19.63527066
2.53	253	-0.037	-1.006	0.014	0	-0.1718874	0.2291832	89.64500868	-1.63865988	-19.64100024
2.54	254	-0.038	-1.006	0.011	-0.1145916	0	0.2291832	89.64500868	-1.63865988	-19.64100024
2.55	255	-0.039	-1.006	0.01	0	0.1718874	0.2291832	89.62781994	-1.66730778	-19.63527066
2.56	256	-0.039	-1.008	0.011	0.0572958	0.286479	0.1718874	89.62781994	-1.66730778	-19.63527066
2.57	257	-0.039	-1.009	0.015	0	0.1718874	0.1145916	89.62781994	-1.67303736	-19.63527066
2.58	258	-0.037	-1.009	0.014	0	-0.1145916	-0.1145916	89.62781994	-1.66730778	-19.63527066
2.59	259	-0.035	-1.008	0.012	0	-0.572958	-0.286479	89.62781994	-1.66730778	-19.64100024
2.6	260	-0.031	-1.004	0.012	0.1145916	-0.9167328	-0.286479	89.62209036	-1.65584862	-19.64672982
2.61	261	-0.029	-1.003	0.012	0.2291832	-0.859437	-0.3437748	89.62781994	-1.65584862	-19.65818898
2.62	262	-0.033	-1.002	0.009	0.3437748	-0.8021412	-0.2291832	89.62781994	-1.65011904	-19.66391856
2.63	263	-0.035	-1.002	0.007	0.4010706	-0.572958	-0.1145916	89.63354952	-1.65011904	-19.66964814
2.64	264	-0.038	-1.001	0.009	0.4583664	-0.3437748	-0.1145916	89.6392791	-1.65011904	-19.67537772
2.65	265	-0.041	-0.998	0.013	0.6875496	-0.4010706	-0.0572958	89.64500868	-1.6615782	-19.6811073
2.66	266	-0.039	-0.995	0.012	0.4583664	-0.7448454	0.1145916	89.65073826	-1.6615782	-19.68683688
2.67	267	-0.036	-0.991	0.008	0.286479	-1.145916	0.1145916	89.65646784	-1.6615782	-19.69829604
2.68	268	-0.039	-0.999	0.012	0.1718874	-0.9740286	-0.4010706	89.65646784	-1.65584862	-19.7097552
2.69	269	-0.045	-1.012	0.003	-0.6875496	0.1718874	-1.2605076	89.65073826	-1.64438946	-19.7097552
2.7	270	-0.038	-1.016	-0.006	-0.7448454	0.572958	-1.4896908	89.61636078	-1.62720072	-19.70402562
2.71	271	-0.025	-1.015	-0.003	0	-0.2291832	-0.859437	89.61636078	-1.62147114	-19.70402562
2.72	272	-0.023	-1.01	0.009	0.572958	-1.0313244	0	89.62209036	-1.62147114	-19.71548478
2.73	273	-0.029	-1.007	0.024	-0.4010706	-0.9167328	0.3437748	89.61636078	-1.62147114	-19.72694394
2.74	274	-0.034	-1.003	0.013	-2.3491278	-1.0886202	0.1718874	89.59344246	-1.62147114	-19.7384031
2.75	275	-0.029	-0.999	0.001	-3.3804522	-1.9480572	-0.4583664	89.5533354	-1.61574156	-19.75559184
2.76	276	-0.02	-1.014	-0.01	-4.4690724	-3.2658606	-1.2605076	89.50749876	-1.6042824	-19.78996932
2.77	277	-0.018	-1.028	-0.017	-5.2712136	-4.4690724	-1.5469866	89.45593254	-1.58709366	-19.83580596
2.78	278	-0.023	-1.032	-0.007	-5.156622	-5.3285094	-0.9167328	89.40436632	-1.5756345	-19.88737218
2.79	279	-0.029	-1.026	0.009	-5.0420304	-5.9587632	0.2291832	89.35852968	-1.58136408	-19.95039756
2.8	280	-0.036	-1.023	0.026	-5.9014674	-5.7868758	1.0313244	89.30696346	-1.59282324	-20.00769336
2.81	281	-0.045	-1.025	0.022	-8.1360036	-5.72958	1.145916	89.22674934	-1.6042824	-20.06498916
2.82	282	-0.057	-1.022	0.003	-10.8289062	-6.3598338	1.3178034	89.11788732	-1.61574156	-20.12801454
2.83	283	-0.062	-1.017	-0.012	-12.6623718	-7.161975	1.6615782	88.99183656	-1.6329303	-20.20249908
2.84	284	-0.058	-1.012	-0.019	-13.8082878	-7.6203414	1.8334656	88.85432664	-1.65011904	-20.27698362
2.85	285	-0.053	-1.009	-0.018	-14.4385416	-7.8495246	1.5469866	88.70535756	-1.66730778	-20.35719774
2.86	286	-0.052	-1.003	-0.021	-14.8396122	-8.021412	1.0313244	88.56211806	-1.67876694	-20.43741186
2.87	287	-0.054	-0.991	-0.009	-13.9801752	-8.3651868	0.7448454	88.41887856	-1.6902261	-20.52335556
2.88	288	-0.064	-0.988	0.011	-12.7196676	-8.59437	1.0313244	88.29855738	-1.70168526	-20.60929926
2.89	289	-0.074	-1.004	0.025	-12.8342592	-8.4797784	1.3178034	88.16677704	-1.718874	-20.69524296
2.9	290	-0.087	-1.021	0.025	-13.178034	-8.021412	1.2032118	88.04645586	-1.73606274	-20.77545708
2.91	291	-0.103	-1.032	0.025	-13.1207382	-7.6776372	0.6302538	87.91467552	-1.7475219	-20.84994162
2.92	292	-0.109	-1.037	0.017	-13.464513	-7.448454	-0.1718874	87.78289518	-1.7475219	-20.92442616
2.93	293	-0.106	-1.032	0.01	-13.3499214	-7.448454	-0.8021412	87.64538526	-1.74179232	-21.00464028
2.94	294	-0.102	-1.019	0.006	-12.4904844	-7.734933	-1.0313244	87.52506408	-1.73033316	-21.07912482
2.95	295	-0.095	-0.996	0.01	-10.6570188	-8.0787078	-1.2605076	87.42766122	-1.73033316	-21.16506852
2.96	296	-0.086	-0.976	0.021	-8.59437	-8.4797784	-1.5469866	87.34171752	-1.718874	-21.25101222
2.97	297	-0.081	-0.965	0.033	-8.1932994	-8.6516658	-2.0626488	87.2615034	-1.70168526	-21.33695592
2.98	298	-0.08	-0.961	0.035	-8.1932994	-8.7662574	-2.6929026	87.18128928	-1.67303736	-21.4286292
2.99	299	-0.082	-0.966	0.037	-8.0787078	-8.880849	-3.3804522	87.10107516	-1.64438946	-21.5145729
3	300	-0.081	-0.972	0.03	-8.2505952	-8.7089616	-3.9534102	87.0323202	-1.61574156	-21.60624618
3.01	301	-0.084	-0.975	0.023	-7.161975	-8.880849	-4.3544808	86.96356524	-1.5756345	-21.69791946
3.02	302	-0.086	-0.981	0.026	-6.1879464	-9.5111028	-4.4690724	86.90053986	-1.52979786	-21.79532232
3.03	303	-0.084	-0.983	0.018	-5.72958	-9.740286	-4.2398892	86.84897364	-1.49542038	-21.89272518
3.04	304	-0.082	-0.98	0.003	-4.0680018	-9.740286	-4.1825934	86.80886658	-1.45531332	-21.99012804
3.05	305	-0.073	-0.974	0.005	-1.3178034	-9.2819196	-4.3544808	86.80886658	-1.42093584	-22.0875309
3.06	306	-0.063	-0.978	0.009	1.0313244	-8.9954406	-4.297185	86.82605532	-1.38082878	-22.17920418
3.07	307	-0.057	-0.975	0.013	2.9220858	-9.1100322	-4.4117766	86.8604328	-1.34072172	-22.27087746
3.08	308	-0.056	-0.974	0.02	5.0993262	-8.59437	-4.5263682	86.91199902	-1.30061466	-22.35682116
3.09	309	-0.057	-0.975	0.017	6.5317212	-7.7922288	-4.5263682	86.98075398	-1.25477802	-22.43703528
3.1	310	-0.067	-0.982	0.012	7.1046792	-7.2765666	-4.3544808	87.06669768	-1.22040054	-22.51151982
3.11	311	-0.077	-0.991	0.016	7.2765666	-6.302538	-3.9534102	87.14118222	-1.18029348	-22.5745452
3.12	312	-0.083	-0.995	0.013	6.7036086	-2.7501984	-3.9534102	87.20993718	-1.14018642	-22.6031931
3.13	313	-0.084	-0.992	0.012	5.8441716	2.1199446	-3.7815228	87.26723298	-1.10580894	-22.58027478
3.14	314	-0.084	-0.988	0.006	3.6669312	7.2192708	-3.0939732	87.30734004	-1.07143146	-22.51151982
3.15	315	-0.07	-0.972	-0.008	1.0886202	13.6364004	-1.432395	87.31306962	-1.06570188	-22.37973948
3.16	316	-0.04	-0.944	-0.017	-1.6615782	21.772404	0.9740286	87.2901513	-1.07143146	-22.16201544
3.17	317	-0.015	-0.906	-0.021	-5.2139178	28.6479	4.583664	87.22712592	-1.11153852	-21.87553644
3.18	318	0.008	-0.875	0.011	-8.9381448	31.9137606	10.2559482	87.12399348	-1.2032118	-21.56040954
3.19	319	0.013	-0.876	0.038	-15.4125702	31.6272816	16.2720072	86.95783566	-1.35791046	-21.23955306
3.2	320	0.007	-0.916	0.052	-21.2567418	29.793816	20.2254174	86.73438204	-1.55271618	-20.93588532
3.21	321	-0.004	-1.008	0.062	-24.5226024	27.501984	21.199446	86.47655094	-1.75898106	-20.6551359
3.22	322	-0.004	-1.105	0.075	-25.8404058	25.2674478	19.8243468	86.2015311	-1.9480572	-20.3973048
3.23	323	0.013	-1.177	0.088	-22.345362	22.91832	16.5584862	85.96088874	-2.10275586	-20.16239202
3.24	324	0.029	-1.198	0.082	-15.9282324	21.772404	12.3758928	85.78900134	-2.21734746	-19.9389384
3.25	325	0.035	-1.16	0.086	-7.161975	21.2567418	8.0787078	85.72024638	-2.28610242	-19.72121436
3.26	326	0.025	-1.111	0.125	1.8334656	20.3973048	3.4950438	85.72597596	-2.30902074	-19.52067906
3.27	327	0.013	-1.088	0.147	8.1360036	20.5118964	-1.6042824	85.8004605	-2.28610242	-19.31441418
3.28	328	0.01	-1.088	0.182	11.6310474	20.4546006	-6.4744254	85.90359294	-2.21161788	-19.11387888
3.29	329	0.008	-1.104	0.211	11.9748222	20.4546006	-11.0007936	86.01818454	-2.0912967	-18.91907316
3.3	330	0.007	-1.109	0.213	10.1986524	20.8556712	-14.8396122	86.12704656	-1.93086846	-18.72426744
3.31	331	0.011	-1.104	0.192	8.1360036	20.7410796	-17.3606274	86.2015311	-1.7475219	-18.52946172
3.32	332	0.022	-1.083	0.171	5.9014674	20.1108258	-17.9908812	86.25309732	-1.56417534	-18.34038558
3.33	333	0.038	-1.046	0.152	3.4950438	18.334656	-17.18874	86.28174522	-1.38655836	-18.16849818
3.34	334	0.059	-1.013	0.138	1.145916	16.1574156	-15.5844576	86.2874748	-1.22613012	-18.0195291
3.35	335	0.07	-0.992	0.123	-2.005353	13.3499214	-13.3499214	86.28174522	-1.07143146	-17.89347834
3.36	336	0.073	-0.972	0.106	-4.2398892	10.886202	-11.172681	86.23590858	-0.95683986	-17.79607548
3.37	337	0.062	-0.952	0.102	-5.443101	8.9954406	-9.3392154	86.17861278	-0.86516658	-17.71013178
3.38	338	0.041	-0.938	0.092	-7.1046792	7.5057498	-8.021412	86.10412824	-0.77922288	-17.64137682
3.39	339	0.023	-0.935	0.087	-8.307891	6.016059	-7.1046792	86.01818454	-0.71046792	-17.5898106
3.4	340	0.015	-0.938	0.084	-9.167328	4.297185	-6.589017	85.94942958	-0.63598338	-17.54970354
3.41	341	0.005	-0.944	0.08	-9.740286	2.86479	-6.2452422	85.84629714	-0.572958	-17.52678522
3.42	342	-0.008	-0.946	0.077	-9.2246238	2.0626488	-5.8441716	85.75462386	-0.5156622	-17.51532606
3.43	343	-0.019	-0.948	0.087	-7.7922288	1.0886202	-5.0420304	85.67440974	-0.46409598	-17.5038669
3.44	344	-0.027	-0.952	0.098	-6.8182002	0.4583664	-4.2398892	85.60565478	-0.42398892	-17.5038669
3.45	345	-0.03	-0.95	0.112	-5.72958	0.4010706	-3.5523396	85.61138436	-0.39534102	-17.5038669
3.46	346	-0.027	-0.956	0.126	-5.0420304	0.4583664	-2.9220858	85.55981814	-0.36669312	-17.49813732
3.47	347	-0.017	-0.969	0.13	-5.3285094	0.6875496	-2.4064236	85.50825192	-0.3437748	-17.49813732
3.48	348	-0.006	-0.976	0.128	-6.0733548	-0.1145916	-2.0626488	85.44522654	-0.32658606	-17.49813732
3.49	349	0.009	-0.978	0.125	-5.9587632	-0.9740286	-1.4896908	85.38220116	-0.30939732	-17.50959648
3.5	350	0.027	-0.977	0.116	-5.6149884	-1.8907614	-0.8021412	85.40511948	-0.28074942	-17.5325148
3.51	351	0.04	-0.967	0.101	-4.6409598	-3.0939732	0	85.35928284	-0.286479	-17.5611627
3.52	352	0.047	-0.96	0.093	-2.6929026	-5.0420304	0.7448454	85.33063494	-0.29220858	-17.61272892
3.53	353	0.053	-0.952	0.096	-0.9167328	-7.2765666	1.3178034	85.31917578	-0.30939732	-17.68148388
3.54	354	0.059	-0.958	0.105	0.4583664	-9.9121734	1.0313244	85.33063494	-0.32658606	-17.77888674
3.55	355	0.068	-0.965	0.117	1.2032118	-13.4072172	0.3437748	85.38220116	-0.32085648	-17.91066708
3.56	356	0.085	-0.967	0.123	2.2345362	-16.902261	-0.4010706	85.41084906	-0.32085648	-18.08255448
3.57	357	0.1	-0.966	0.133	3.2085648	-19.4232762	-1.3750992	85.44522654	-0.32085648	-18.27163062
3.58	358	0.11	-0.967	0.154	4.1825934	-21.199446	-2.3491278	85.49106318	-0.30366774	-18.48362508
3.59	359	0.111	-0.974	0.166	4.9847346	-22.5172494	-2.9793816	85.54835898	-0.286479	-18.7070787
3.6	360	0.101	-0.985	0.174	6.4171296	-23.7204612	-3.0939732	85.64576184	-0.25210152	-18.94199148
3.61	361	0.083	-0.988	0.163	7.448454	-25.0382646	-2.4637194	85.72597596	-0.24064236	-19.194093
3.62	362	0.069	-0.985	0.132	10.3705398	-26.929026	-1.6042824	85.83483798	-0.23491278	-19.45765368
3.63	363	0.039	-1.055	0.123	13.9801752	-27.9603504	-2.2345362	85.98380706	-0.22345362	-19.73267352
3.64	364	-0.012	-1.166	0.093	9.9121734	-24.4080108	-5.8441716	86.0869395	-0.17761698	-19.97904546
3.65	365	-0.056	-1.232	0.043	2.3491278	-16.6730778	-10.2559482	86.1155874	-0.08021412	-20.15093286
3.66	366	-0.055	-1.231	-0.004	2.3491278	-11.172681	-12.1467096	86.1442353	0.0286479	-20.27125404
3.67	367	-0.021	-1.256	-0.06	10.4851314	-13.2926256	-11.5164558	86.25309732	0.13750992	-20.40876396
3.68	368	0.009	-1.292	-0.078	12.9488508	-15.0687954	-10.6570188	86.38487766	0.24064236	-20.55773304
3.69	369	0.026	-1.287	-0.046	11.9748222	-19.0222056	-8.307891	86.50519884	0.3151269	-20.75253876
3.7	370	0.057	-1.266	-0.056	10.4851314	-26.0122932	-5.3285094	86.61406086	0.36669312	-21.01036986
3.71	371	0.087	-1.233	-0.097	8.6516658	-30.7678446	-4.010706	86.70573414	0.39534102	-21.3140376
3.72	372	0.083	-1.178	-0.128	8.021412	-34.6066632	-4.870143	86.78594826	0.43544808	-21.6578124
3.73	373	0.034	-1.119	-0.17	5.9587632	-39.247623	-8.0787078	86.84897364	0.50420304	-22.05315342
3.74	374	-0.011	-1.041	-0.174	1.432395	-41.9405256	-12.4331886	86.86616238	0.61879464	-22.47141276
3.75	375	-0.026	-0.973	-0.178	-5.3858052	-39.3622146	-18.5638392	86.803137	0.79068204	-22.87248336
3.76	376	-0.018	-0.95	-0.182	-10.4851314	-32.4867186	-22.2307704	86.69427498	0.99694692	-23.204799
3.77	377	-0.025	-0.969	-0.164	-13.5791046	-23.491278	-22.8610242	86.55676506	1.22040054	-23.45117094
3.78	378	-0.057	-1.002	-0.131	-14.037471	-14.6677248	-19.8816426	86.40779598	1.40947668	-23.61159918
3.79	379	-0.11	-1.033	-0.11	-11.172681	-8.021412	-12.7196676	86.29320438	1.52979786	-23.69754288
3.8	380	-0.152	-1.061	-0.085	-6.0733548	-3.2085648	-2.6356068	86.21871984	1.47823164	-23.73764994
3.81	381	-0.164	-1.065	-0.048	-0.8021412	0.7448454	7.2765666	86.21299026	1.40947668	-23.72619078
3.82	382	-0.16	-1.053	-0.024	3.6096354	4.4117766	14.6677248	86.25309732	1.26623718	-23.66889498
3.83	383	-0.15	-1.042	-0.005	8.307891	8.2505952	21.2567418	86.33904102	1.0599723	-23.57149212
3.84	384	-0.128	-1.043	0.003	11.2872726	10.4278356	24.9809688	86.45363262	0.81360036	-23.45690052
3.85	385	-0.113	-1.044	0.015	13.0061466	11.2299768	26.6998428	86.59114254	0.5443101	-23.32512018
3.86	386	-0.1	-1.034	0.04	14.6677248	11.2872726	26.5279554	86.74011162	0.286479	-23.19906942
3.87	387	-0.085	-1.022	0.053	15.4125702	11.172681	24.7517856	86.89481028	0.04583664	-23.07301866
3.88	388	-0.071	-0.996	0.064	15.9282324	10.5424272	21.8296998	87.05523852	-0.16042824	-22.95842706
3.89	389	-0.055	-0.974	0.071	16.042824	9.453807	18.621135	87.22139634	-0.3437748	-22.84956504
3.9	390	-0.032	-0.937	0.064	15.5844576	8.4797784	15.5844576	87.38755416	-0.49847346	-22.75789176
3.91	391	-0.016	-0.901	0.055	14.610429	6.9327918	12.0894138	87.53079366	-0.61306506	-22.68340722
3.92	392	0.001	-0.874	0.051	12.4904844	5.8441716	9.8548776	87.65684442	-0.71046792	-22.62038184
3.93	393	0.009	-0.858	0.053	9.740286	4.5263682	8.021412	87.75424728	-0.79068204	-22.5745452
3.94	394	0.006	-0.847	0.038	6.2452422	2.9220858	6.5317212	87.81727266	-0.85370742	-22.54016772
3.95	395	-0.004	-0.847	0.029	4.0680018	1.432395	5.0993262	87.86883888	-0.90527364	-22.52297898
3.96	396	-0.023	-0.851	0.021	1.8334656	0.1718874	3.8388186	87.88602762	-0.93965112	-22.5172494
3.97	397	-0.047	-0.851	0.013	0.5156622	-0.6875496	2.5210152	87.8917572	-0.96829902	-22.52870856
3.98	398	-0.069	-0.856	0.023	0.3437748	-1.2032118	1.718874	87.89748678	-0.98548776	-22.54016772
3.99	399	-0.085	-0.866	0.038	-0.8021412	-1.5469866	0.7448454	87.8917572	-0.99121734	-22.55162688
4	400	-0.09	-0.875	0.048	-2.6929026	-0.6875496	-0.4010706	87.88602762	-1.01413566	-22.56308604
4.01	401	-0.091	-0.883	0.05	-3.151269	0.5156622	-1.6042824	87.85165014	-0.99694692	-22.55735646
4.02	402	-0.085	-0.891	0.059	-3.5523396	1.3178034	-2.7501984	87.81727266	-0.9740286	-22.5458973
4.03	403	-0.075	-0.893	0.065	-4.7555514	2.5210152	-3.3231564	87.76570644	-0.93965112	-22.52297898
4.04	404	-0.072	-0.901	0.067	-5.443101	3.8961144	-3.4950438	87.70841064	-0.90527364	-22.48287192
4.05	405	-0.073	-0.904	0.072	-5.443101	5.2712136	-3.3804522	87.67403316	-0.88235532	-22.4313057
4.06	406	-0.079	-0.902	0.074	-5.3285094	6.9327918	-3.724227	87.62246694	-0.84797784	-22.36828032
4.07	407	-0.087	-0.902	0.072	-4.583664	9.6829902	-5.0993262	87.57090072	-0.79068204	-22.27660704
4.08	408	-0.098	-0.896	0.071	-3.9534102	12.891555	-6.8182002	87.52506408	-0.72192708	-22.15055628
4.09	409	-0.113	-0.899	0.066	-2.86479	15.756345	-8.3651868	87.4906866	-0.63598338	-21.99585762
4.1	410	-0.125	-0.907	0.059	-1.2032118	17.9335854	-9.2819196	87.48495702	-0.56149884	-21.82397022
4.11	411	-0.132	-0.931	0.058	0.2291832	19.0795014	-8.9381448	87.48495702	-0.46982556	-21.64062366
4.12	412	-0.128	-0.964	0.067	0.9167328	19.194093	-7.6203414	87.4906866	-0.38961144	-21.45154752
4.13	413	-0.114	-0.995	0.07	1.718874	19.0222056	-5.7868758	87.50787534	-0.32658606	-21.26247138
4.14	414	-0.098	-1.026	0.08	2.4637194	17.3033316	-3.7815228	87.52506408	-0.286479	-21.09631356
4.15	415	-0.074	-1.045	0.105	3.2658606	14.4958374	-1.5469866	87.59381904	-0.28074942	-20.95307406
4.16	416	-0.052	-1.062	0.14	4.5263682	13.2353298	-0.572958	87.6339261	-0.27501984	-20.82129372
4.17	417	-0.034	-1.078	0.168	5.6722842	13.0061466	-0.1718874	87.6912219	-0.26929026	-20.68951338
4.18	418	-0.025	-1.089	0.184	5.9587632	13.2926256	-0.4010706	87.7485177	-0.26356068	-20.55773304
4.19	419	-0.041	-1.084	0.185	6.0733548	13.8082878	-0.859437	87.8058135	-0.25210152	-20.42022312
4.2	420	-0.084	-1.099	0.175	5.3858052	14.1520626	-0.8021412	87.8917572	-0.2578311	-20.2827132
4.21	421	-0.117	-1.158	0.076	1.3178034	13.6936962	1.145916	87.89748678	-0.26929026	-20.14520328
4.22	422	-0.089	-1.254	-0.084	-2.5210152	12.318597	6.589017	87.87456846	-0.33231564	-20.01915252
4.23	423	0	-1.328	-0.11	-1.4896908	5.7868758	14.4958374	87.85737972	-0.47555514	-19.96185672
4.24	424	0.09	-1.415	-0.147	-1.0886202	-0.4583664	22.4599536	87.84592056	-0.69900876	-19.95612714
4.25	425	0.126	-1.447	-0.199	-0.859437	-7.161975	31.1116194	87.8344614	-1.00840608	-20.01915252
4.26	426	0.069	-1.346	-0.156	12.032118	-10.9434978	38.7319608	87.96051216	-1.39228794	-20.1108258
4.27	427	-0.065	-1.171	-0.052	27.9603504	-3.437748	38.7319608	88.24699116	-1.77044022	-20.12801454
4.28	428	-0.262	-0.998	0.022	26.929026	14.4958374	29.3354496	88.51055184	-2.0626488	-19.97331588
4.29	429	-0.421	-0.889	-0.03	15.8709366	33.9764094	17.6471064	88.65952092	-2.24026578	-19.63527066
4.3	430	-0.413	-0.885	-0.15	8.307891	50.1911208	10.599723	88.70535756	-2.37204612	-19.13106762
4.31	431	-0.25	-0.981	-0.228	-1.3750992	61.7075766	12.0894138	88.65379134	-2.4923673	-18.51800256
4.32	432	-0.06	-1.066	-0.24	-10.9434978	58.4990118	19.3659804	88.51055184	-2.68717302	-17.93931498
4.33	433	0.093	-1.172	-0.265	-20.1108258	47.4982182	29.1062664	88.27563906	-2.9793816	-17.46375984
4.34	434	0.213	-1.244	-0.264	-28.1322378	33.7472262	38.388186	87.96624174	-3.36326346	-17.11998504
4.35	435	0.287	-1.232	-0.226	-27.3300966	22.5172494	42.5707794	87.66830358	-3.77006364	-16.88507226
4.36	436	0.268	-1.179	-0.182	-19.1367972	14.32395	39.5913978	87.4620387	-4.16540466	-16.7303736
4.37	437	0.177	-1.098	-0.153	-10.886202	7.6776372	30.7105488	87.34171752	-4.4690724	-16.63870032
4.38	438	0.034	-1.013	-0.139	-4.297185	2.578311	17.761698	87.29588088	-4.64668938	-16.61005242
4.39	439	-0.055	-0.983	-0.131	1.4896908	-4.7555514	4.1252976	87.3187992	-4.68679644	-16.65588906
4.4	440	-0.083	-1.012	-0.099	4.583664	-8.5370742	-4.6409598	87.35890626	-4.6409598	-16.74183276
4.41	441	-0.074	-1.029	-0.051	7.5057498	-9.9121734	-12.1467096	87.44484996	-4.52063862	-16.83923562
4.42	442	-0.034	-1.038	-0.011	10.4278356	-9.9121734	-18.334656	87.55944156	-4.34302164	-16.94809764
4.43	443	0.011	-1.03	0	11.4018642	-9.1100322	-22.91832	87.68549232	-4.11383844	-17.0455005
4.44	444	0.046	-0.994	0.005	12.4331886	-9.740286	-25.4393352	87.81727266	-3.86173692	-17.14863294
4.45	445	0.065	-0.963	0.004	12.4904844	-11.8029348	-26.4133638	87.95478258	-3.58671708	-17.2746837
4.46	446	0.071	-0.906	0	11.2872726	-13.8655836	-25.4393352	88.08083334	-3.33461556	-17.4179232
4.47	447	0.069	-0.85	-0.01	8.59437	-16.7303736	-22.5172494	88.1782362	-3.11116194	-17.5898106
4.48	448	0.057	-0.804	-0.015	6.1879464	-18.7930224	-18.7357266	88.25845032	-2.9220858	-17.77888674
4.49	449	0.032	-0.773	-0.01	4.2398892	-20.7410796	-14.6677248	88.31001654	-2.7788463	-17.9908812
4.5	450	0.003	-0.758	-0.006	2.578311	-22.1734746	-10.6570188	88.3501236	-2.66998428	-18.21433482
4.51	451	-0.029	-0.754	0.003	0.7448454	-22.5172494	-7.161975	88.37304192	-2.59549974	-18.43778844
4.52	452	-0.063	-0.767	0.01	-1.7761698	-21.7151082	-4.583664	88.36731234	-2.5496631	-18.65551248
4.53	453	-0.074	-0.797	0.013	-4.8128472	-20.2254174	-2.8074942	88.32720528	-2.52674478	-18.85604778
4.54	454	-0.064	-0.83	0.018	-7.6203414	-18.7930224	-2.3491278	88.2641799	-2.50382646	-19.04512392
4.55	455	-0.042	-0.87	0.019	-9.6256944	-16.615782	-2.291832	88.1782362	-2.48090814	-19.21128174
4.56	456	-0.017	-0.904	0.023	-9.740286	-15.2406828	-2.0626488	88.08656292	-2.45798982	-19.36025082
4.57	457	-0.003	-0.927	0.033	-7.9641162	-14.037471	-1.5469866	88.01207838	-2.44653066	-19.50349032
4.58	458	-0.008	-0.942	0.046	-5.72958	-12.9488508	-0.9167328	87.96051216	-2.4350715	-19.62954108
4.59	459	-0.029	-0.955	0.062	-3.7815228	-12.4904844	-0.4010706	87.93186426	-2.4350715	-19.75559184
4.6	460	-0.043	-0.959	0.075	-2.1772404	-12.4331886	0.1718874	87.949053	-2.4350715	-19.8816426
4.61	461	-0.048	-0.962	0.088	-0.859437	-12.318597	1.2032118	87.949053	-2.45226024	-20.00196378
4.62	462	-0.041	-0.954	0.096	0.286479	-11.9748222	2.6929026	87.95478258	-2.48090814	-20.12228496
4.63	463	-0.036	-0.943	0.107	1.8907614	-12.6623718	4.5263682	87.98343048	-2.52674478	-20.24260614
4.64	464	-0.025	-0.946	0.111	2.1199446	-13.464513	5.8441716	88.01207838	-2.58404058	-20.37438648
4.65	465	-0.012	-0.944	0.114	2.6356068	-14.3812458	7.0473834	88.07510376	-2.64706596	-20.51762598
4.66	466	0.003	-0.939	0.114	4.0680018	-15.756345	7.9641162	88.12666998	-2.72728008	-20.67232464
4.67	467	0.021	-0.934	0.103	5.6722842	-16.902261	8.5370742	88.19542494	-2.81322378	-20.83848246
4.68	468	0.032	-0.926	0.096	7.9068204	-17.761698	7.9068204	88.28709822	-2.88770832	-21.01036986
4.69	469	0.032	-0.935	0.105	10.313244	-17.6471064	6.1306506	88.40168982	-2.9507337	-21.18225726
4.7	470	0.025	-0.969	0.122	11.1153852	-16.902261	3.2085648	88.5506589	-2.96792244	-21.34841508
4.71	471	0.028	-1.016	0.13	7.9068204	-12.4904844	-0.286479	88.6366026	-2.96219286	-21.46873626
4.72	472	0.036	-1.05	0.122	4.583664	-9.2819196	-2.86479	88.68816882	-2.93354496	-21.56040954
4.73	473	0.018	-1.064	0.085	1.9480572	-7.3911582	-4.6982556	88.71681672	-2.88197874	-21.63489408
4.74	474	-0.011	-1.062	0.079	3.0939732	-7.3911582	-5.6149884	88.7511942	-2.83041252	-21.70937862
4.75	475	-0.038	-1.063	0.105	4.870143	-8.4797784	-5.6722842	88.83140832	-2.76738714	-21.79532232
4.76	476	-0.048	-1.059	0.148	5.6149884	-10.1413566	-4.7555514	88.8944337	-2.7215505	-21.89845476
4.77	477	-0.017	-1.043	0.183	4.297185	-12.2040054	-2.578311	88.94599992	-2.6929026	-22.01877594
4.78	478	0.053	-1.026	0.206	1.145916	-14.610429	0.2291832	88.96891824	-2.6929026	-22.16201544
4.79	479	0.119	-1.021	0.205	-2.0626488	-19.8816426	2.9220858	88.95745908	-2.7215505	-22.36255074
4.8	480	0.159	-1.027	0.169	-2.7501984	-26.1268848	4.2398892	88.96891824	-2.72728008	-22.62038184
4.81	481	0.162	-1.058	0.109	0.859437	-31.3980984	2.7501984	88.99756614	-2.7501984	-22.92977916
4.82	482	0.113	-1.102	0.061	11.1153852	-35.6379876	-1.3750992	89.13507606	-2.73300966	-23.27928354
4.83	483	0.039	-1.136	0.066	19.5951636	-39.3622146	-7.3338624	89.3528001	-2.65279554	-23.66889498
4.84	484	-0.026	-1.171	0.105	18.3919518	-41.7113424	-14.4385416	89.56479456	-2.49809688	-24.08142474
4.85	485	-0.048	-1.187	0.099	9.6829902	-38.101707	-21.0275586	89.68511574	-2.28037284	-24.45957702
4.86	486	-0.053	-1.193	-0.034	8.880849	-31.3408026	-27.0436176	89.79397776	-2.005353	-24.76897434
4.87	487	-0.053	-1.2	-0.119	17.8762896	-26.069589	-33.0596766	89.9830539	-1.66730778	-25.02680544
4.88	488	-0.013	-1.17	-0.14	22.631841	-26.1841806	-36.7839036	90.22369626	-1.29488508	-25.27890696
4.89	489	0.037	-1.13	-0.139	21.6578124	-28.7051958	-38.0444112	90.45287946	-0.90527364	-25.55965638
4.9	490	0.065	-1.055	-0.172	16.5584862	-38.7319608	-35.1223254	90.61903728	-0.53285094	-25.93207908
4.91	491	0.063	-0.971	-0.196	9.8548776	-52.6548402	-28.8197874	90.7278993	-0.2291832	-26.44774128
4.92	492	0.055	-0.924	-0.186	2.9220858	-64.4004792	-23.3193906	90.76800636	0.02291832	-27.07799508
4.93	493	0.045	-0.948	-0.172	-6.3598338	-68.468481	-22.058883	90.71071056	0.26929026	-27.75408552
4.94	494	0.022	-1.046	-0.158	-17.5325148	-65.4890994	-24.5798982	90.53309358	0.53858052	-28.40152806
4.95	495	-0.014	-1.155	-0.142	-28.361421	-55.290447	-28.3041252	90.240885	0.83651868	-28.94583816
4.96	496	-0.071	-1.237	-0.151	-26.4133638	-45.7793442	-28.8197874	89.97159474	1.13445684	-29.40420456
4.97	497	-0.156	-1.268	-0.141	-16.902261	-37.4141574	-25.2674478	89.79397776	1.39228794	-29.77662726
4.98	498	-0.223	-1.233	-0.105	-5.5003968	-28.8770832	-18.4492476	89.73668196	1.58136408	-30.06310626
4.99	499	-0.248	-1.154	-0.06	2.7501984	-20.05353	-10.9434978	89.75960028	1.69595568	-30.25791198
5	500	-0.232	-1.1	-0.024	7.8495246	-11.45916	-3.6669312	89.83408482	1.68449652	-30.37250358
5.01	501	-0.194	-1.078	0.003	10.1986524	-2.8074942	3.8961144	89.93721726	1.64438946	-30.40115148
5.02	502	-0.147	-1.08	0.03	11.9748222	4.4117766	12.032118	90.05753844	1.52406828	-30.35531484
5.03	503	-0.117	-1.079	0.042	13.9228794	12.3758928	19.194093	90.20077794	1.33499214	-30.22926408
5.04	504	-0.111	-1.073	0.06	15.6417534	16.7876694	22.5172494	90.36120618	1.10580894	-30.06310626
5.05	505	-0.115	-1.054	0.078	16.5011904	20.2827132	23.6631654	90.53309358	0.85370742	-29.86257096
5.06	506	-0.119	-1.015	0.088	15.8709366	22.7464326	23.1475032	90.6992514	0.61306506	-29.63911734
5.07	507	-0.12	-0.977	0.089	14.7823164	24.4080108	21.6005166	90.84822048	0.38961144	-29.39847498
5.08	508	-0.114	-0.94	0.074	13.0634424	25.8404058	19.2513888	90.98000082	0.18907614	-29.14637346
5.09	509	-0.109	-0.895	0.067	11.745639	27.6738714	16.1574156	91.09459242	0.01718874	-28.8770832
5.1	510	-0.089	-0.864	0.057	10.026765	29.2781538	12.4904844	91.19199528	-0.12032118	-28.5906042
5.11	511	-0.063	-0.829	0.05	6.9327918	31.3408026	8.5370742	91.26075024	-0.22345362	-28.28120688
5.12	512	-0.036	-0.803	0.052	4.870143	32.1429438	5.9587632	91.3008573	-0.29793816	-27.96607998
5.13	513	-0.011	-0.793	0.053	3.0939732	32.0283522	4.2398892	91.3295052	-0.35523396	-27.6452235
5.14	514	-0.003	-0.809	0.063	0.4583664	31.2835068	3.3804522	91.3295052	-0.40680018	-27.34155576
5.15	515	-0.006	-0.827	0.057	-2.578311	30.1948866	2.9220858	91.29512772	-0.44690724	-27.0436176
5.16	516	-0.015	-0.836	0.051	-4.0680018	28.4187168	2.9793816	91.24929108	-0.49274388	-26.76286818
5.17	517	-0.021	-0.84	0.056	-4.4117766	25.78311	2.9220858	91.19772486	-0.53285094	-26.51076666
5.18	518	-0.025	-0.836	0.057	-4.4690724	23.1475032	2.5210152	91.14615864	-0.572958	-26.28158346
5.19	519	-0.036	-0.84	0.07	-3.7815228	20.5691922	1.6042824	91.10605158	-0.59587632	-26.08104816
5.2	520	-0.04	-0.857	0.079	-4.9847346	19.767051	0.4010706	91.05448536	-0.61879464	-25.88624244
5.21	521	-0.039	-0.873	0.078	-6.3598338	19.9389384	-1.2032118	90.9857304	-0.61306506	-25.68570714
5.22	522	-0.04	-0.893	0.092	-6.7036086	20.6837838	-3.3804522	90.91124586	-0.59014674	-25.48517184
5.23	523	-0.057	-0.913	0.104	-8.1360036	22.2880662	-6.0733548	90.82530216	-0.53858052	-25.26171822
5.24	524	-0.08	-0.925	0.1	-9.2246238	23.8350528	-8.9954406	90.7278993	-0.4583664	-25.02680544
5.25	525	-0.102	-0.937	0.091	-9.9121734	25.8404058	-11.8029348	90.62476686	-0.36669312	-24.76897434
5.26	526	-0.105	-0.942	0.096	-9.9694692	27.9030546	-14.4385416	90.52163442	-0.23491278	-24.4939545
5.27	527	-0.105	-0.94	0.114	-8.3651868	31.0543236	-16.7303736	90.42996114	-0.08021412	-24.18455718
5.28	528	-0.098	-0.944	0.143	-6.1306506	33.4034514	-17.1314442	90.36120618	0.07448454	-23.85224154
5.29	529	-0.095	-0.957	0.161	-4.9847346	36.096354	-16.3865988	90.30391038	0.22345362	-23.49700758
5.3	530	-0.099	-0.96	0.149	-3.437748	37.7006364	-14.7823164	90.28099206	0.3437748	-23.12458488
5.31	531	-0.093	-0.959	0.133	-0.5156622	38.388186	-12.2613012	90.27526248	0.4583664	-22.7464326
5.32	532	-0.077	-0.957	0.133	2.005353	38.7892566	-9.7975818	90.29245122	0.53858052	-22.35682116
5.33	533	-0.063	-0.971	0.149	2.4064236	38.961144	-7.6203414	90.31536954	0.6016059	-21.9729393
5.34	534	-0.062	-1.01	0.147	1.4896908	38.1590028	-5.2712136	90.3268287	0.64171296	-21.59478702
5.35	535	-0.063	-1.04	0.135	0.286479	36.4401288	-2.5210152	90.34974702	0.64744254	-21.23382348
5.36	536	-0.056	-1.038	0.135	0.6302538	34.950438	-1.0886202	90.3554766	0.64744254	-20.89004868
5.37	537	-0.054	-1.015	0.161	2.0626488	34.6066632	-1.2605076	90.37266534	0.64744254	-20.54627388
5.38	538	-0.062	-0.993	0.191	3.0939732	35.7525792	-2.1199446	90.40704282	0.6589017	-20.19103992
5.39	539	-0.086	-0.978	0.215	3.724227	37.815228	-2.7501984	90.4414203	0.67036086	-19.81861722
5.4	540	-0.128	-0.979	0.238	4.1825934	40.393539	-2.8074942	90.51017526	0.66463128	-19.41754662
5.41	541	-0.184	-0.985	0.253	4.297185	44.4615408	-1.8907614	90.5560119	0.67036086	-18.97636896
5.42	542	-0.233	-1.012	0.242	3.2085648	49.1025006	-0.1145916	90.59038938	0.65317212	-18.48935466
5.43	543	-0.217	-1.081	0.136	-1.718874	52.998615	3.8388186	90.56747106	0.59587632	-17.96796288
5.44	544	-0.094	-1.238	-0.079	-8.4797784	50.6494872	11.5164558	90.48152736	0.4583664	-17.46948942
5.45	545	0.128	-1.544	-0.298	-22.5745452	37.2995658	24.6944898	90.24661458	0.2005353	-17.10852588
5.46	546	0.487	-1.942	-0.428	-43.831287	11.45916	46.2950064	89.79970734	-0.2578311	-16.99966386
5.47	547	0.908	-1.935	-0.369	-33.6899304	-13.750992	66.5204238	89.46166212	-0.9167328	-17.13717378
5.48	548	0.761	-1.353	-0.34	30.7678446	-16.7876694	71.1613836	89.7825186	-1.62147114	-17.29760202
5.49	549	0.049	-0.845	-0.104	77.34933	-1.0886202	60.9054354	90.56747106	-2.21734746	-17.3033316
5.5	550	-0.574	-0.692	0.091	64.5150708	15.183387	41.0237928	91.2149136	-2.66998428	-17.14863294
5.51	551	-0.727	-0.737	-0.008	24.6944898	34.4347758	19.5951636	91.44982638	-2.88197874	-16.81058772
5.52	552	-0.595	-0.862	-0.11	0.5156622	46.5241896	9.9694692	91.42117848	-3.0080295	-16.3579509
5.53	553	-0.361	-1.042	-0.17	-7.5057498	49.2170922	10.3705398	91.31231646	-3.13408026	-15.8709366
5.54	554	-0.13	-1.129	-0.165	-11.8029348	43.7739912	15.1260912	91.16334738	-3.30596766	-15.44694768
5.55	555	0.046	-1.117	-0.152	-17.761698	33.7472262	20.2827132	90.94562334	-3.51223254	-15.11463204
5.56	556	0.194	-1.108	-0.129	-19.5951636	25.78311	24.8663772	90.7278993	-3.77006364	-14.8682601
5.57	557	0.271	-1.133	-0.099	-17.1314442	20.2254174	27.788463	90.53882316	-4.05654264	-14.67345438
5.58	558	0.236	-1.134	-0.085	-11.5164558	19.5951636	26.0122932	90.40704282	-4.3258329	-14.48437824
5.59	559	0.134	-1.067	-0.089	-4.4117766	19.9962342	19.194093	90.34401744	-4.52063862	-14.28384294
5.6	560	0.044	-0.984	-0.065	1.145916	19.1367972	11.745639	90.32109912	-4.62377106	-14.0947668
5.61	561	-0.005	-0.942	-0.025	5.2139178	17.5898106	4.4690724	90.3554766	-4.67533728	-13.9228794
5.62	562	-0.033	-0.947	0.023	6.4171296	16.7303736	-2.005353	90.40704282	-4.65814854	-13.75672158
5.63	563	-0.047	-0.99	0.069	4.9847346	16.1574156	-6.875496	90.4414203	-4.59512316	-13.59056376
5.64	564	-0.045	-1.028	0.093	3.0366774	16.8449652	-9.2819196	90.45860904	-4.50917946	-13.42440594
5.65	565	-0.039	-1.025	0.071	0.4010706	19.2513888	-9.167328	90.45287946	-4.4117766	-13.22960022
5.66	566	-0.033	-0.977	0.044	0.286479	20.340009	-7.6776372	90.43569072	-4.34302164	-13.02906492
5.67	567	-0.022	-0.953	0.057	2.9793816	19.194093	-5.6722842	90.44714988	-4.297185	-12.83998878
5.68	568	-0.004	-0.937	0.072	4.3544808	17.5898106	-4.583664	90.47579778	-4.25707794	-12.6623718
5.69	569	0.016	-0.925	0.079	4.010706	15.9282324	-4.6409598	90.50444568	-4.2112413	-12.50194356
5.7	570	0.027	-0.924	0.078	3.0366774	14.1520626	-5.3858052	90.53309358	-4.13675676	-12.36443364
5.71	571	0.026	-0.942	0.068	2.9793816	13.9801752	-6.589017	90.5560119	-4.07946096	-12.22119414
5.72	572	0.013	-0.956	0.062	3.6669312	14.6677248	-8.4797784	90.57893022	-3.99924684	-12.07222506
5.73	573	0.004	-0.973	0.065	4.4117766	15.6990492	-10.6570188	90.6133077	-3.8961144	-11.9175264
5.74	574	0.007	-0.983	0.063	5.6722842	17.8189938	-12.7196676	90.65341476	-3.77579322	-11.73990942
5.75	575	0.021	-0.978	0.048	6.3598338	20.912967	-14.037471	90.70498098	-3.63255372	-11.52791496
5.76	576	0.034	-0.952	0.055	8.2505952	22.0015872	-13.9801752	90.77373594	-3.50077338	-11.30446134
5.77	577	0.027	-0.936	0.052	10.7716104	23.491278	-13.2926256	90.86540922	-3.37472262	-11.06954856
5.78	578	-0.003	-0.946	0.046	9.740286	27.4446882	-13.3499214	90.94562334	-3.25440144	-10.79452872
5.79	579	-0.044	-0.978	0.028	6.589017	31.51269	-13.9228794	90.9857304	-3.12835068	-10.47940182
5.8	580	-0.086	-1.026	-0.021	2.578311	32.8877892	-14.5531332	90.9857304	-3.00229992	-10.15281576
5.81	581	-0.108	-1.071	-0.006	0.3437748	35.8671708	-15.469866	90.96281208	-2.86479	-9.79185222
5.82	582	-0.099	-1.03	0.016	-1.432395	39.5913978	-15.183387	90.92270502	-2.73300966	-9.3965112
5.83	583	-0.055	-0.928	0.005	-0.6875496	37.7579322	-12.4331886	90.89405712	-2.62414764	-9.0240885
5.84	584	0.015	-0.848	0.019	1.7761698	31.9710564	-9.5111028	90.89405712	-2.54393352	-8.70323202
5.85	585	0.095	-0.801	0.095	4.8128472	26.069589	-8.6516658	90.93989376	-2.44653066	-8.44540092
5.86	586	0.154	-0.799	0.147	5.2139178	18.048177	-9.5111028	90.98000082	-2.36058696	-8.26205436
5.87	587	0.208	-0.836	0.172	4.1252976	10.026765	-11.0580894	91.02010788	-2.25172494	-8.15892192
5.88	588	0.257	-0.873	0.17	4.1825934	1.5469866	-13.2926256	91.06021494	-2.1199446	-8.14173318
5.89	589	0.284	-0.913	0.189	7.0473834	-6.4171296	-14.610429	91.13469948	-1.97097552	-8.19902898
5.9	590	0.261	-0.932	0.196	10.3705398	-13.9801752	-13.9228794	91.2722094	-1.78189938	-8.3365389
5.91	591	0.213	-0.944	0.196	11.2872726	-22.2880662	-12.4904844	91.39253058	-1.64438946	-8.55426294
5.92	592	0.172	-0.961	0.201	11.45916	-24.6944898	-12.032118	91.51858134	-1.51260912	-8.78917572
5.93	593	0.118	-0.995	0.165	10.4278356	-23.491278	-13.9228794	91.63317294	-1.36364004	-9.01835892
5.94	594	0.023	-1.04	0.099	7.8495246	-16.615782	-17.18874	91.71911664	-1.18029348	-9.17878716
5.95	595	-0.098	-1.092	0.042	2.86479	-4.870143	-19.194093	91.74203496	-1.01413566	-9.21889422
5.96	596	-0.225	-1.119	-0.019	-6.5317212	5.443101	-18.7357266	91.67328	-0.8307891	-9.15586884
5.97	597	-0.318	-1.113	-0.081	-15.9282324	11.172681	-17.475219	91.50712218	-0.66463128	-9.04700682
5.98	598	-0.334	-1.059	-0.113	-20.6837838	15.4125702	-17.761698	91.29512772	-0.49847346	-8.89230816
5.99	599	-0.252	-0.939	-0.099	-17.5325148	19.4232762	-19.8243468	91.11178116	-0.3151269	-8.69750244
6	600	-0.131	-0.798	-0.038	-9.6829902	22.2307704	-22.5745452	91.00291914	-0.10886202	-8.47404882
6.01	601	-0.006	-0.683	0.021	-4.870143	21.8296998	-23.5485738	90.95135292	0.10886202	-8.2505952
6.02	602	0.072	-0.64	0.084	-4.7555514	16.9595568	-21.5432208	90.8997867	0.3151269	-8.0787078
6.03	603	0.094	-0.671	0.15	-8.59437	11.4018642	-16.7876694	90.813843	0.47555514	-7.9641162
6.04	604	0.059	-0.74	0.19	-12.7196676	7.161975	-11.6883432	90.68206266	0.59014674	-7.89536124
6.05	605	-0.014	-0.823	0.199	-16.2147114	4.2398892	-8.307891	90.5560119	0.6589017	-7.8495246
6.06	606	-0.114	-0.91	0.202	-17.475219	3.8388186	-6.8182002	90.37839492	0.72765666	-7.81514712
6.07	607	-0.193	-0.96	0.216	-12.8342592	5.0420304	-5.3285094	90.24661458	0.7734933	-7.7635809
6.08	608	-0.241	-0.96	0.242	-5.3858052	6.4171296	-2.2345362	90.18931878	0.79641162	-7.70055552
6.09	609	-0.259	-0.919	0.268	2.4637194	9.5111028	0.8021412	90.21796668	0.78495246	-7.60888224
6.1	610	-0.244	-0.873	0.303	8.880849	14.896908	1.8334656	90.37266534	0.70473834	-7.45991316
6.11	611	-0.202	-0.856	0.3	10.3705398	19.6524594	0.5156622	90.47579778	0.69327918	-7.26510744
6.12	612	-0.154	-0.859	0.267	10.026765	21.4286292	-1.8907614	90.57893022	0.71046792	-7.05311298
6.13	613	-0.125	-0.871	0.257	9.9121734	20.4546006	-3.437748	90.68206266	0.73338624	-6.8468481
6.14	614	-0.126	-0.9	0.263	9.1100322	20.1681216	-4.583664	90.77373594	0.7734933	-6.6463128
6.15	615	-0.15	-0.903	0.271	4.010706	21.6005166	-6.2452422	90.8711388	0.79068204	-6.42858876
6.16	616	-0.171	-0.873	0.276	-2.7501984	21.8869956	-8.1360036	90.8424909	0.859437	-6.21086472
6.17	617	-0.189	-0.845	0.243	-10.8289062	22.0015872	-10.026765	90.73362888	0.95111028	-5.99314068
6.18	618	-0.186	-0.845	0.215	-18.8503182	25.78311	-11.172681	90.54455274	1.04851314	-5.74103916
6.19	619	-0.16	-0.82	0.166	-21.8869956	31.226211	-11.3445684	90.32109912	1.15164558	-5.43164184
6.2	620	-0.141	-0.818	0.162	-18.7357266	35.0077338	-11.0580894	90.14921172	1.2318597	-5.08786704
6.21	621	-0.135	-0.831	0.182	-16.042824	37.9298196	-10.3705398	89.98878348	1.32353298	-4.71544434
6.22	622	-0.132	-0.841	0.205	-14.9542038	39.4768062	-9.3392154	89.8398144	1.4037471	-4.3258329
6.23	623	-0.141	-0.843	0.231	-18.4492476	39.4768062	-9.1100322	89.65646784	1.48396122	-3.93622146
6.24	624	-0.159	-0.834	0.246	-24.923673	38.388186	-10.4851314	89.4100959	1.5756345	-3.55806918
6.25	625	-0.183	-0.809	0.226	-32.085648	38.674665	-13.0061466	89.10642816	1.68449652	-3.1799169
6.26	626	-0.204	-0.786	0.203	-36.2682414	42.5134836	-16.4438946	88.74546462	1.83919518	-2.76738714
6.27	627	-0.225	-0.77	0.184	-37.3568616	47.269035	-21.2567418	88.37304192	2.04546006	-2.30902074
6.28	628	-0.216	-0.752	0.164	-38.2162986	50.6494872	-26.356068	87.99488964	2.30329116	-1.82200644
6.29	629	-0.179	-0.731	0.159	-37.9298196	53.0559108	-29.6219286	87.62819652	2.60122932	-1.31207382
6.3	630	-0.129	-0.746	0.16	-39.247623	54.7747848	-31.7418732	87.25577382	2.91635622	-0.78495246
6.31	631	-0.102	-0.737	0.136	-44.6334282	55.2331512	-34.2055926	86.82032574	3.2658606	-0.2578311
6.32	632	-0.095	-0.706	0.127	-44.690724	58.155237	-36.8984952	86.39633682	3.64401288	0.286479
6.33	633	-0.107	-0.718	0.207	-43.4302164	59.014674	-40.393539	85.98380706	4.06227222	0.84224826
6.34	634	-0.143	-0.75	0.255	-55.003968	55.9779966	-42.6280752	85.45095612	4.50917946	1.35791046
6.35	635	-0.175	-0.781	0.175	-66.6350154	55.0612638	-46.409598	84.82070232	4.97900502	1.85638392
6.36	636	-0.169	-0.751	0.058	-72.765666	52.7694318	-51.3943326	84.11596398	5.51758554	2.32620948
6.37	637	-0.077	-0.626	-0.052	-77.34933	44.404245	-53.7434604	83.35965942	6.0733548	2.69863218
6.38	638	0.047	-0.539	-0.128	-78.208767	32.8304934	-54.5456016	82.58616612	6.63485364	2.9507337
6.39	639	0.082	-0.527	-0.184	-81.0162612	22.631841	-55.003968	81.77829534	7.19635248	3.0939732
6.4	640	0.134	-0.534	-0.203	-83.8237554	15.183387	-53.7434604	80.92458792	7.74066258	3.15699858
6.41	641	0.236	-0.533	-0.199	-84.3394176	4.9847346	-51.1078536	80.05942134	8.23913604	3.11689152
6.42	642	0.274	-0.543	-0.151	-83.8237554	-3.0366774	-48.128472	79.19425476	8.69177286	2.99084076
6.43	643	0.226	-0.556	-0.154	-85.8864042	-6.016059	-44.7480198	78.2947107	9.1100322	2.8361421
6.44	644	0.154	-0.597	-0.158	-87.7198698	-4.2398892	-42.398892	77.38370748	9.50537322	2.69863218
6.45	645	0.042	-0.67	-0.101	-93.9078162	-2.0626488	-40.9092012	76.40967888	9.8835255	2.578311
6.46	646	-0.092	-0.817	-0.149	-102.5021862	0.6302538	-40.4508348	75.35543616	10.26167778	2.47517856
6.47	647	-0.146	-0.938	-0.236	-111.2111478	13.3499214	-40.7373138	74.2267089	10.67420754	2.48663772
6.48	648	-0.145	-1.019	-0.204	-118.315827	26.2987722	-41.8832298	73.04068584	11.12684436	2.61268848
6.49	649	-0.11	-1.065	-0.2	-126.4518306	41.1956802	-43.7739912	71.80309656	11.64250656	2.87051958
6.5	650	-0.01	-1.091	-0.227	-131.3792694	56.436363	-43.8885828	70.54831854	12.19827582	3.26013102
6.51	651	0.135	-1.193	-0.267	-137.2807368	67.4371566	-41.3675676	69.24770388	12.78269298	3.7528749
6.52	652	0.235	-1.338	-0.29	-148.8544884	67.5517482	-37.0130868	67.84395678	13.33273266	4.25134836
6.53	653	0.315	-1.487	-0.362	-161.4022686	56.436363	-32.0283522	66.28551102	13.8082878	4.64668938
6.54	654	0.458	-1.611	-0.449	-163.7513964	51.9099948	-27.4446882	64.70414694	14.2380063	5.00765292
6.55	655	0.599	-1.744	-0.362	-172.8041328	46.9252602	-25.7258142	63.02538	14.6390769	5.31705024
6.56	656	0.631	-1.874	-0.318	-195.378678	46.2377106	-28.8770832	61.1059707	15.07452498	5.59207008
6.57	657	0.575	-1.967	-0.4	-207.4680918	52.5975444	-34.2628884	59.06624022	15.59018718	5.87854908
6.58	658	0.469	-1.992	-0.359	-195.5505654	57.1239126	-37.6433406	57.1525605	16.16887476	6.17075766
6.59	659	0.24	-1.899	-0.223	-167.1318486	57.2385042	-43.6593996	55.5196302	16.80485814	6.41140002
6.6	660	-0.055	-1.656	-0.067	-153.0370818	61.592985	-51.3943326	54.0299394	17.53824438	6.62912406
6.61	661	-0.175	-1.287	0.069	-150.9171372	66.6350154	-56.2644756	52.55170776	18.34611516	6.83538894
6.62	662	-0.057	-0.942	0.057	-141.0622596	65.2599162	-57.9833496	51.1651494	19.1654451	7.00727634
6.63	663	0.131	-0.718	0.044	-131.9522274	56.436363	-55.8061092	49.847346	19.91602008	7.09322004
6.64	664	0.29	-0.518	0.073	-130.5771282	50.2484166	-54.2018268	48.52381302	20.62075842	7.12759752
6.65	665	0.334	-0.322	0.122	-129.8322828	46.0085274	-52.425657	47.2117392	21.29684886	7.12186794
6.66	666	0.341	-0.173	0.214	-127.4258592	44.7480198	-49.3316838	45.90539496	21.93283224	7.11613836
6.67	667	0.3	-0.057	0.292	-129.8322828	48.0711762	-45.4928652	44.59332114	22.56308604	7.14478626
6.68	668	0.22	0.025	0.305	-130.2906492	54.3164184	-44.977203	43.2869769	23.2334469	7.20781164
6.69	669	0.11	0.024	0.315	-129.4312122	61.9940556	-49.9046418	41.99209182	23.98975146	7.2765666
6.7	670	0.031	0.087	0.212	-131.2646778	73.052145	-59.4157446	40.66855884	24.8950251	7.32240324
6.71	671	-0.115	0.263	0.087	-128.1134088	81.1308528	-71.5051584	39.35075544	25.93207908	7.31094408
6.72	672	-0.135	0.375	0.097	-127.0820844	88.5793068	-80.9016696	38.0157633	27.08945424	7.24218912
6.73	673	-0.042	0.333	0.071	-129.3739164	96.7153104	-86.4593622	36.64639368	28.33850268	7.15051584
6.74	674	0.036	0.247	0.015	-132.353298	105.6534552	-91.2722094	35.23118742	29.6792244	7.04165382
6.75	675	0.121	0.148	-0.148	-126.623718	110.2371192	-99.981171	33.81598116	31.1116194	6.83538894
6.76	676	0.298	0.076	-0.12	-119.0606724	105.3669762	-112.7008386	32.37785658	32.56693272	6.42858876
6.77	677	0.64	0.076	-0.248	-121.3525044	91.9024632	-124.7902524	30.7678446	33.95922066	5.76395748
6.78	678	1.097	0.153	-0.624	-117.1126152	61.9940556	-139.1714982	28.96875648	35.15670288	4.70398518
6.79	679	1.666	0.247	-0.676	-117.6282774	9.6256944	-153.0370818	26.8430823	35.93592576	3.11689152
6.8	680	2.505	0.488	-0.937	-128.3998878	-39.7059894	-155.0997306	24.40228122	36.24532308	1.18029348
6.81	681	3.148	0.574	-1.459	-141.1195554	-83.5372764	-148.5680094	21.73802652	36.05624694	-0.91100322
6.82	682	2.818	0.446	-1.97	-155.1570264	-116.4250656	-143.2395	18.91334358	35.4661002	-3.07678446
6.83	683	1.758	0.432	-2.431	-160.141761	-145.3594446	-153.0943776	15.96260988	34.54363782	-5.40872352
6.84	684	0.931	0.464	-2.498	-149.542038	-166.2724116	-167.0745528	13.08063114	33.36334434	-7.88390208
6.85	685	1.029	0.393	-2.731	-153.8965188	-172.4030622	-172.8041328	10.21584114	32.03408178	-10.33616232
6.86	686	0.962	0.62	-2.409	-164.6108334	-128.7436626	-158.422887	7.47137232	31.00848696	-12.41599986
6.87	687	1.203	0.985	-2.947	-147.8804598	-96.829902	-125.477802	5.17381074	30.18342744	-13.99736394
6.88	688	1.24	1.001	-2.662	-130.0041702	-76.6044846	-100.3249458	3.25440144	29.49587784	-15.21776448
6.89	689	1.784	1.034	-2.409	-132.0095232	-56.9520252	-78.8963166	1.46677248	28.95156774	-16.14595644
6.9	690	2.095	0.662	-2.484	-102.6740736	-71.5624542	-57.1812084	0.1145916	28.24109982	-16.82204688
6.91	691	2.042	0.497	-2.212	-109.5495696	-72.2500038	-46.7533728	-1.2318597	27.51344316	-17.34916824
6.92	692	1.804	0.472	-1.892	-87.0323202	-56.3790672	-38.9038482	-2.30329116	26.93475558	-17.77315716
6.93	693	1.414	0.366	-1.445	-75.2293854	-49.274388	-31.226211	-3.2085648	26.42482296	-18.09974322
6.94	694	1.128	0.475	-1.368	-70.3592424	-47.7846972	-25.1528562	-4.02789474	25.93207908	-18.35184474
6.95	695	1.134	0.556	-1.175	-39.7632852	-58.3271244	-16.2720072	-4.49199072	25.34193234	-18.50081382
6.96	696	1.099	0.556	-0.921	-37.0130868	-73.1094408	-8.1932994	-4.87587258	24.61427568	-18.54665046
6.97	697	1.051	0.559	-0.695	-34.4347758	-86.6885454	2.0626488	-5.1852699	23.75483868	-18.46070676
6.98	698	0.91	0.51	-0.645	-25.0955604	-105.8826384	10.886202	-5.34569814	22.7177847	-18.27163062
6.99	699	0.704	0.463	-0.579	-14.0947668	-126.1080558	17.8762896	-5.36861646	21.485925	-17.9908812
7	700	0.577	0.491	-0.451	-8.1360036	-143.525979	22.5745452	-5.33423898	20.10509622	-17.65856556
7.01	701	0.464	0.528	-0.354	-11.4018642	-153.1516734	23.8923486	-5.31132066	18.61540542	-17.3033316
7.02	702	0.267	0.566	-0.341	-16.9595568	-153.552744	21.8296998	-5.36288688	17.11998504	-16.97101596
7.03	703	0.007	0.573	-0.393	-12.4331886	-143.8697538	15.2979786	-5.39726436	15.71623794	-16.71318486
7.04	704	-0.188	0.539	-0.403	-2.5210152	-132.066819	8.1932994	-5.3571573	14.42135286	-16.53556788
7.05	705	-0.236	0.492	-0.41	5.9587632	-120.9514338	2.291832	-5.28840234	13.2066819	-16.4438946
7.06	706	-0.18	0.465	-0.449	11.5164558	-111.5549226	-1.4896908	-5.14516284	12.10660254	-16.3865988
7.07	707	-0.1	0.452	-0.509	19.3659804	-105.4815678	-2.9220858	-4.9274388	11.06381898	-16.35222132
7.08	708	-0.023	0.449	-0.557	28.8770832	-101.6427492	-2.8074942	-4.61804148	10.06114248	-16.329303
7.09	709	0.003	0.427	-0.648	35.4661002	-97.40286	-0.7448454	-4.23415962	9.10430262	-16.28919594
7.1	710	0.024	0.406	-0.74	39.3622146	-93.7359288	2.291832	-3.8388186	8.17611066	-16.23762972
7.11	711	0.043	0.376	-0.848	44.404245	-91.5013926	6.5317212	-3.36326346	7.28229618	-16.14022686
7.12	712	0.002	0.323	-0.947	50.2484166	-90.1835892	8.7089616	-2.83041252	6.39994086	-16.03709442
7.13	713	-0.064	0.248	-1.016	55.2331512	-89.2095606	8.307891	-2.24599536	5.5290447	-15.93969156
7.14	714	-0.135	0.162	-1.062	55.6342218	-86.3447706	5.2139178	-1.6615782	4.68106686	-15.88812534
7.15	715	-0.197	0.066	-1.116	50.3630082	-79.5838662	0.4010706	-1.145916	3.88465524	-15.88812534
7.16	716	-0.239	-0.038	-1.205	40.5654264	-70.0727634	-6.016059	-0.72765666	3.19710564	-15.96260988
7.17	717	-0.337	-0.138	-1.284	31.9137606	-60.5043648	-12.9488508	-0.4010706	2.60122932	-16.10584938
7.18	718	-0.393	-0.203	-1.299	25.6685184	-51.1651494	-18.2200644	-0.1432395	2.09702628	-16.3006551
7.19	719	-0.475	-0.262	-1.324	15.0114996	-40.680018	-20.2254174	0	1.70168526	-16.51264956
7.2	720	-0.582	-0.277	-1.265	2.1772404	-39.534102	-17.5325148	0.03437748	1.28342592	-16.69599612
7.21	721	-0.703	-0.355	-1.264	-14.5531332	-20.7983754	-14.0947668	-0.10886202	1.07716104	-16.8449652
7.22	722	-0.669	-0.341	-1.246	-32.1429438	-3.4950438	-6.302538	-0.43544808	1.03705398	-16.902261
7.23	723	-0.538	-0.283	-1.038	-27.7311672	-1.3750992	1.0886202	-0.7161975	1.01986524	-16.89080184
7.24	724	-0.339	-0.265	-0.872	-20.05353	-0.3437748	6.9327918	-0.9167328	1.01413566	-16.82204688
7.25	725	-0.124	-0.293	-0.785	-15.2406828	1.3750992	10.1986524	-1.0026765	1.01413566	-16.71318486
7.26	726	-0.047	-0.301	-0.688	-11.3445684	-2.5210152	10.886202	-1.1172681	0.98548776	-16.60432284
7.27	727	-0.076	-0.264	-0.621	-15.0687954	-8.1932994	7.6776372	-1.26623718	0.90527364	-16.5298383
7.28	728	-0.137	-0.185	-0.602	-17.7044022	-9.6829902	3.3231564	-1.44385416	0.80787078	-16.49546082
7.29	729	-0.174	-0.11	-0.6	-13.5218088	-5.3858052	0.6302538	-1.58136408	0.75057498	-16.48973124
7.3	730	-0.217	-0.055	-0.633	-7.9068204	3.5523396	-0.3437748	-1.65584862	0.7448454	-16.48973124
7.31	731	-0.258	-0.001	-0.686	-5.72958	13.464513	0.1145916	-1.71314442	0.87662574	-16.48973124
7.32	732	-0.257	0.063	-0.736	-4.583664	20.9702628	1.718874	-1.76471064	1.08289062	-16.4725425
7.33	733	-0.241	0.12	-0.783	-1.8334656	26.6998428	4.010706	-1.78762896	1.3464513	-16.43243544
7.34	734	-0.194	0.151	-0.82	1.6042824	32.7731976	6.3598338	-1.77044022	1.67303736	-16.36941006
7.35	735	-0.131	0.139	-0.874	4.297185	39.247623	7.6203414	-1.75325148	2.03973048	-16.29492552
7.36	736	-0.079	0.089	-0.951	4.4690724	42.5134836	6.9327918	-1.70741484	2.4637194	-16.22617056
7.37	737	-0.055	-0.001	-1.044	4.5263682	43.9458786	6.016059	-1.66730778	2.89916748	-16.16887476
7.38	738	-0.022	-0.091	-1.12	5.5576926	44.1750618	5.7868758	-1.61001198	3.34034514	-16.11157896
7.39	739	0.019	-0.155	-1.166	6.9900876	44.117766	6.1306506	-1.54125702	3.7815228	-16.05428316
7.4	740	0.056	-0.199	-1.174	6.9900876	44.1750618	6.302538	-1.44958374	4.21697088	-15.9855282
7.41	741	0.098	-0.208	-1.153	5.3858052	44.0031744	6.016059	-1.39801752	4.65241896	-15.9282324
7.42	742	0.139	-0.2	-1.123	2.578311	43.4302164	5.3285094	-1.3750992	5.08213746	-15.8709366
7.43	743	0.173	-0.177	-1.089	-1.6042824	42.5134836	5.156622	-1.39228794	5.50612638	-15.81937038
7.44	744	0.187	-0.151	-1.054	-4.2398892	42.5707794	5.6722842	-1.432395	5.9301153	-15.76207458
7.45	745	0.206	-0.137	-1.018	-6.589017	45.0344988	6.1306506	-1.48396122	6.3884817	-15.69331962
7.46	746	0.244	-0.129	-1.008	-10.5424272	49.2170922	6.8182002	-1.58709366	6.875496	-15.62456466
7.47	747	0.294	-0.112	-1.01	-14.7250206	50.0192334	8.3651868	-1.73033316	7.36823988	-15.53862096
7.48	748	0.336	-0.085	-0.996	-17.1314442	45.4355694	10.7143146	-1.89649098	7.8208767	-15.42975894
7.49	749	0.366	-0.05	-0.962	-17.4179232	38.2735944	12.8342592	-2.0626488	8.19902898	-15.30370818
7.5	750	0.38	-0.013	-0.925	-16.9595568	31.1689152	14.8396122	-2.21734746	8.54280378	-15.1547391
7.51	751	0.368	0.032	-0.895	-17.2460358	24.923673	14.32395	-2.37204612	8.7949053	-15.01722918
7.52	752	0.33	0.081	-0.889	-17.475219	22.345362	13.750992	-2.53247436	9.01835892	-14.87971926
7.53	753	0.304	0.133	-0.888	-16.329303	20.9702628	12.2613012	-2.68144344	9.23035338	-14.75939808
7.54	754	0.286	0.159	-0.892	-14.9542038	19.480572	10.886202	-2.81895336	9.4251591	-14.65053606
7.55	755	0.281	0.176	-0.908	-13.464513	17.9908812	9.6256944	-2.9793816	9.63142398	-14.55886278
7.56	756	0.286	0.183	-0.93	-11.45916	16.1574156	9.167328	-3.08251404	9.7975818	-14.47291908
7.57	757	0.295	0.173	-0.952	-9.453807	14.037471	8.9381448	-3.16272816	9.9408213	-14.38697538
7.58	758	0.305	0.151	-0.971	-7.734933	11.3445684	8.5370742	-3.23148312	10.0554129	-14.30103168
7.59	759	0.333	0.126	-0.99	-5.8441716	8.021412	8.59437	-3.27731976	10.1413566	-14.21508798
7.6	760	0.342	0.1	-1.007	-4.5263682	4.4117766	8.1932994	-3.32888598	10.25021862	-14.14060344
7.61	761	0.347	0.077	-1.022	-3.8961144	0.4010706	7.448454	-3.35753388	10.2559482	-14.06038932
7.62	762	0.348	0.057	-1.031	-3.5523396	-3.5523396	6.3598338	-3.3804522	10.2273003	-13.99736394
7.63	763	0.339	0.045	-1.036	-2.9793816	-6.7609044	5.0993262	-3.40337052	10.15854534	-13.94006814
7.64	764	0.322	0.039	-1.04	-2.4637194	-8.6516658	3.2658606	-3.42055926	10.07833122	-13.90569066
7.65	765	0.304	0.04	-1.034	-2.005353	-9.6829902	1.145916	-3.43201842	10.03822416	-13.8942315
7.66	766	0.28	0.046	-1.024	-1.4896908	-9.7975818	-1.3178034	-3.44920716	9.93509172	-13.89996108
7.67	767	0.257	0.052	-1.011	-0.9167328	-9.2819196	-3.0366774	-3.4663959	9.84341844	-13.92860898
7.68	768	0.239	0.045	-0.998	-0.572958	-8.4224826	-4.297185	-3.47785506	9.75747474	-13.96871604
7.69	769	0.221	0.033	-0.983	-0.6302538	-7.6203414	-5.156622	-3.48931422	9.67726062	-14.02028226
7.7	770	0.21	0.015	-0.97	-1.0313244	-6.7609044	-5.443101	-3.48931422	9.63142398	-14.0661189
7.71	771	0.202	-0.001	-0.962	-1.718874	-6.3598338	-5.5576926	-3.51223254	9.5683986	-14.1234147
7.72	772	0.198	-0.02	-0.955	-2.3491278	-6.3598338	-5.443101	-3.54661002	9.49964364	-14.17498092
7.73	773	0.192	-0.034	-0.953	-2.9220858	-6.5317212	-5.0993262	-3.5809875	9.43088868	-14.22081756
7.74	774	0.186	-0.037	-0.956	-2.8074942	-7.2765666	-4.6409598	-3.61536498	9.35640414	-14.2666542
7.75	775	0.177	-0.029	-0.958	-2.1772404	-8.4224826	-4.3544808	-3.6096354	9.27619002	-14.30103168
7.76	776	0.161	-0.019	-0.959	-1.5469866	-9.3965112	-4.1825934	-3.63255372	9.17878716	-14.34113874
7.77	777	0.148	-0.007	-0.959	-0.9740286	-10.2559482	-3.8961144	-3.64401288	9.07565472	-14.37551622
7.78	778	0.132	0.006	-0.962	-0.9167328	-10.8289062	-3.6096354	-3.65547204	8.9667927	-14.4098937
7.79	779	0.114	0.022	-0.968	-0.859437	-11.3445684	-3.5523396	-3.67266078	8.8522011	-14.4385416
7.8	780	0.1	0.031	-0.974	-0.4010706	-11.745639	-3.151269	-3.67266078	8.69750244	-14.4671895
7.81	781	0.09	0.034	-0.982	-0.1145916	-11.9175264	-2.6929026	-3.67839036	8.57718126	-14.49010782
7.82	782	0.084	0.034	-0.99	-0.3437748	-11.8029348	-1.8907614	-3.67839036	8.45686008	-14.50729656
7.83	783	0.072	0.034	-1.002	0	-11.4018642	-1.2032118	-3.67839036	8.34226848	-14.51302614
7.84	784	0.066	0.027	-0.997	0	-10.1986524	-1.3178034	-3.67839036	8.23913604	-14.5244853
7.85	785	0.064	0.027	-1.002	-0.4010706	-8.880849	-1.2605076	-3.67266078	8.0787078	-14.53021488
7.86	786	0.06	0.028	-1.002	-0.0572958	-7.3911582	-1.2032118	-3.67266078	8.00422326	-14.54167404
7.87	787	0.058	0.029	-1.001	0.1718874	-5.5576926	-1.0313244	-3.67266078	7.94692746	-14.54740362
7.88	788	0.057	0.032	-0.998	0.2291832	-3.8388186	-0.9740286	-3.6669312	7.9068204	-14.55886278
7.89	789	0.059	0.035	-0.994	0.2291832	-1.8907614	-0.8021412	-3.6669312	7.88963166	-14.56459236
7.9	790	0.063	0.035	-0.989	0.0572958	0	-0.6302538	-3.62682414	7.48856106	-14.56459236
7.91	791	0.072	0.034	-0.986	-0.1718874	2.1199446	-0.286479	-3.62682414	7.51147938	-14.57032194
7.92	792	0.08	0.034	-0.985	-0.4583664	3.6096354	0	-3.63255372	7.54585686	-14.57032194
7.93	793	0.089	0.035	-0.981	-0.859437	4.8128472	0.286479	-3.64401288	7.5916935	-14.57032194
7.94	794	0.1	0.036	-0.977	-1.145916	5.72958	0.6302538	-3.65547204	7.6489893	-14.56459236
7.95	795	0.108	0.039	-0.974	-1.4896908	6.2452422	0.9167328	-3.6669312	7.68336678	-14.55886278
7.96	796	0.117	0.044	-0.975	-1.5469866	6.302538	1.2605076	-3.68411994	7.74639216	-14.54740362
7.97	797	0.123	0.048	-0.975	-1.6615782	6.1306506	1.5469866	-3.70130868	7.80941754	-14.53594446
7.98	798	0.128	0.053	-0.977	-1.6042824	5.7868758	1.7761698	-3.71276784	7.86671334	-14.51875572
7.99	799	0.132	0.057	-0.978	-1.4896908	5.443101	1.9480572	-3.72995658	7.92400914	-14.50156698
8	800	0.136	0.059	-0.978	-1.432395	5.0993262	2.005353	-3.75860448	7.9641162	-14.48437824
8.01	801	0.141	0.059	-0.979	-1.4896908	4.9274388	2.005353	-3.77006364	8.01568242	-14.4671895
8.02	802	0.146	0.056	-0.981	-1.5469866	4.6982556	1.8334656	-3.78725238	8.06151906	-14.45000076
8.03	803	0.155	0.052	-0.983	-1.5469866	4.583664	1.432395	-3.79871154	8.1073557	-14.43281202
8.04	804	0.162	0.047	-0.985	-1.4896908	4.297185	1.0886202	-3.81590028	8.15319234	-14.42708244
8.05	805	0.172	0.04	-0.984	-1.3750992	4.1252976	0.7448454	-3.81590028	8.22767688	-14.41562328
8.06	806	0.179	0.032	-0.986	-1.3750992	4.010706	0.4010706	-3.83308902	8.26778394	-14.41562328
8.07	807	0.184	0.026	-0.985	-1.3750992	3.9534102	0.1718874	-3.85027776	8.30216142	-14.41562328
8.08	808	0.19	0.02	-0.986	-1.432395	3.8961144	0	-3.86173692	8.34226848	-14.41562328
8.09	809	0.192	0.016	-0.984	-1.3750992	3.724227	0	-3.87892566	8.38237554	-14.41562328
8.1	810	0.194	0.014	-0.98	-1.3178034	3.5523396	0	-3.8388186	8.48550798	-14.4098937
8.11	811	0.196	0.015	-0.977	-1.145916	3.437748	0.0572958	-3.85027776	8.51988546	-14.4098937
8.12	812	0.197	0.016	-0.974	-1.0886202	3.2085648	0.1145916	-3.86173692	8.55426294	-14.4098937
8.13	813	0.197	0.018	-0.973	-1.2032118	2.86479	0.0572958	-3.87319608	8.58291084	-14.4098937
8.14	814	0.198	0.022	-0.975	-1.2032118	2.4064236	0.1718874	-3.89038482	8.60582916	-14.4098937
8.15	815	0.196	0.027	-0.977	-1.0313244	1.8334656	0.2291832	-3.85600734	8.72042076	-14.40416412
8.16	816	0.194	0.031	-0.979	-0.8021412	1.2605076	0.1718874	-3.86173692	8.7376095	-14.39843454
8.17	817	0.19	0.035	-0.98	-0.6302538	0.8021412	0.1718874	-3.8674665	8.74333908	-14.39843454
8.18	818	0.189	0.037	-0.978	-0.6302538	0.2291832	0.1145916	-3.87892566	8.74333908	-14.39843454
8.19	819	0.185	0.038	-0.979	-0.6302538	-0.1145916	0	-3.88465524	8.74333908	-14.39843454
8.2	820	0.181	0.04	-0.979	-0.6875496	-0.5156622	0.0572958	-3.8674665	8.84074194	-14.39270496
8.21	821	0.178	0.041	-0.983	-0.6302538	-0.8021412	-0.0572958	-3.87892566	8.83501236	-14.39270496
8.22	822	0.173	0.04	-0.985	-0.3437748	-0.7448454	-0.0572958	-3.87892566	8.8235532	-14.39270496
8.23	823	0.17	0.04	-0.987	-0.286479	-0.859437	-0.1145916	-3.88465524	8.81782362	-14.39270496
8.24	824	0.167	0.038	-0.988	-0.0572958	-0.9167328	0	-3.88465524	8.80636446	-14.39270496
8.25	825	0.165	0.038	-0.989	0.1145916	-0.9167328	0	-3.83308902	8.80636446	-14.38697538
8.26	826	0.161	0.036	-0.99	0.286479	-1.2605076	0.1145916	-3.82735944	8.78917572	-14.38697538
8.27	827	0.158	0.037	-0.988	0.3437748	-1.3178034	0.1145916	-3.82735944	8.77771656	-14.3812458
8.28	828	0.154	0.038	-0.987	0.4010706	-1.3178034	0.1718874	-3.82162986	8.7662574	-14.3812458
8.29	829	0.15	0.04	-0.987	0.4583664	-1.432395	0.1145916	-3.81590028	8.74906866	-14.37551622
8.3	830	0.146	0.042	-0.987	0.5156622	-1.2605076	0.1145916	-3.80444112	8.67458412	-14.37551622
8.31	831	0.143	0.044	-0.987	0.7448454	-1.2605076	0.0572958	-3.79298196	8.66312496	-14.37551622
8.32	832	0.141	0.044	-0.986	1.0886202	-1.145916	0	-3.7815228	8.6516658	-14.37551622
8.33	833	0.138	0.044	-0.984	1.2605076	-1.0886202	-0.1145916	-3.77006364	8.64020664	-14.37551622
8.34	834	0.137	0.045	-0.982	1.3750992	-0.9740286	-0.1718874	-3.75860448	8.62874748	-14.37551622
8.35	835	0.137	0.043	-0.98	1.3178034	-0.9167328	-0.1718874	-3.73568616	8.55999252	-14.37551622
8.36	836	0.137	0.041	-0.981	1.3178034	-0.8021412	-0.1718874	-3.71849742	8.54853336	-14.3812458
8.37	837	0.139	0.038	-0.98	1.145916	-0.5156622	-0.1145916	-3.70703826	8.54280378	-14.3812458
8.38	838	0.141	0.034	-0.981	1.145916	-0.4583664	0	-3.6955791	8.54280378	-14.3812458
8.39	839	0.141	0.031	-0.981	1.145916	-0.286479	0.1145916	-3.68411994	8.5370742	-14.3812458
8.4	840	0.142	0.027	-0.98	1.145916	-0.1718874	0.2291832	-3.59817624	8.46831924	-14.36405706
8.41	841	0.143	0.026	-0.982	1.2605076	0.0572958	0.2291832	-3.58671708	8.46831924	-14.36405706
8.42	842	0.145	0.025	-0.986	1.432395	0.1718874	0.4583664	-3.56952834	8.47404882	-14.35832748
8.43	843	0.145	0.025	-0.987	1.6042824	0.2291832	0.572958	-3.5523396	8.47404882	-14.3525979
8.44	844	0.145	0.025	-0.988	1.7761698	0.4583664	0.6875496	-3.53515086	8.4797784	-14.34686832
8.45	845	0.146	0.027	-0.99	2.1199446	0.6302538	0.8021412	-3.48931422	8.46831924	-14.33540916
8.46	846	0.148	0.031	-0.986	2.7501984	0.8021412	0.859437	-3.46066632	8.4797784	-14.32395
8.47	847	0.151	0.031	-0.98	2.9220858	1.0886202	0.8021412	-3.43201842	8.49123756	-14.31822042
8.48	848	0.153	0.031	-0.974	2.6356068	1.2032118	0.8021412	-3.40337052	8.50269672	-14.31249084
8.49	849	0.157	0.03	-0.972	1.8907614	1.4896908	0.859437	-3.3804522	8.51988546	-14.30103168
8.5	850	0.16	0.027	-0.972	1.2605076	1.6042824	1.0313244	-3.34607472	8.54853336	-14.28957252
8.51	851	0.158	0.023	-0.971	0.859437	1.5469866	1.0313244	-3.34034514	8.55999252	-14.27811336
8.52	852	0.158	0.018	-0.972	0.8021412	1.2605076	1.0313244	-3.32888598	8.57718126	-14.27238378
8.53	853	0.158	0.015	-0.971	1.0886202	0.9740286	0.9167328	-3.31742682	8.58864042	-14.26092462
8.54	854	0.16	0.017	-0.972	0.9167328	0.7448454	0.8021412	-3.30596766	8.59437	-14.25519504
8.55	855	0.161	0.023	-0.976	0.5156622	0.6875496	0.6875496	-3.2658606	8.61155874	-14.2380063
8.56	856	0.16	0.028	-0.98	0.5156622	0.6302538	0.7448454	-3.26013102	8.6230179	-14.23227672
8.57	857	0.159	0.03	-0.985	0.9167328	0.5156622	0.859437	-3.24867186	8.62874748	-14.22654714
8.58	858	0.158	0.032	-0.987	1.2605076	0.6302538	1.0313244	-3.2372127	8.63447706	-14.21508798
8.59	859	0.158	0.033	-0.987	1.718874	0.6302538	1.0886202	-3.21429438	8.64020664	-14.20362882
8.6	860	0.158	0.033	-0.984	2.0626488	0.6875496	1.0313244	-3.19137606	8.64593622	-14.19216966
8.61	861	0.157	0.033	-0.979	2.0626488	0.9167328	0.859437	-3.16845774	8.65739538	-14.18644008
8.62	862	0.158	0.031	-0.977	1.7761698	0.9740286	0.6875496	-3.151269	8.66885454	-14.1807105
8.63	863	0.161	0.03	-0.977	1.4896908	0.9740286	0.5156622	-3.13408026	8.6803137	-14.17498092
8.64	864	0.163	0.027	-0.979	1.2032118	0.9740286	0.4010706	-3.1226211	8.68604328	-14.16925134
8.65	865	0.164	0.023	-0.984	1.2605076	0.859437	0.4010706	-3.07678446	8.7089616	-14.16352176
8.66	866	0.164	0.021	-0.985	1.2605076	0.7448454	0.4010706	-3.0653253	8.71469118	-14.15779218
8.67	867	0.163	0.02	-0.983	1.3750992	0.4583664	0.286479	-3.04813656	8.72042076	-14.1520626
8.68	868	0.161	0.02	-0.979	1.3178034	0.286479	0.2291832	-3.0366774	8.72615034	-14.1520626
8.69	869	0.16	0.019	-0.976	1.145916	0.0572958	0.1718874	-3.02521824	8.72615034	-14.1520626
8.7	870	0.159	0.019	-0.975	0.8021412	-0.0572958	0.1145916	-2.9507337	8.71469118	-14.14060344
8.71	871	0.154	0.019	-0.978	0.7448454	0	0.2291832	-2.94500412	8.71469118	-14.13487386
8.72	872	0.154	0.018	-0.979	0.859437	-0.0572958	0.1718874	-2.93354496	8.71469118	-14.13487386
8.73	873	0.152	0.017	-0.981	1.145916	0.0572958	0.1718874	-2.9220858	8.71469118	-14.13487386
8.74	874	0.151	0.015	-0.98	1.3750992	0.0572958	0.1718874	-2.91062664	8.71469118	-14.12914428
8.75	875	0.151	0.014	-0.98	1.5469866	0.1718874	0.1718874	-2.85906042	8.69750244	-14.1234147
8.76	876	0.153	0.014	-0.979	1.6042824	0.1145916	0.1718874	-2.84187168	8.69750244	-14.1234147
8.77	877	0.154	0.014	-0.979	1.432395	0	0.1718874	-2.82468294	8.69750244	-14.11768512
8.78	878	0.155	0.016	-0.981	1.3750992	-0.0572958	0.2291832	-2.81322378	8.69750244	-14.11768512
8.79	879	0.157	0.015	-0.985	1.2032118	-0.0572958	0.4010706	-2.79603504	8.69750244	-14.11195554
8.8	880	0.157	0.016	-0.988	0.9740286	-0.2291832	0.572958	-2.7501984	8.68604328	-14.10049638
8.81	881	0.155	0.016	-0.989	0.6875496	-0.286479	0.6302538	-2.74446882	8.68604328	-14.0947668
8.82	882	0.154	0.014	-0.984	0.4583664	-0.2291832	0.6302538	-2.73873924	8.68604328	-14.08903722
8.83	883	0.152	0.014	-0.978	0	-0.0572958	0.7448454	-2.73873924	8.6803137	-14.08330764
8.84	884	0.151	0.014	-0.973	-0.6302538	0.2291832	0.6302538	-2.74446882	8.68604328	-14.07184848
8.85	885	0.148	0.017	-0.972	-1.2032118	0.286479	0.5156622	-2.73300966	8.65739538	-14.0661189
8.86	886	0.145	0.02	-0.973	-1.3178034	0.1145916	0.3437748	-2.7501984	8.65739538	-14.06038932
8.87	887	0.142	0.022	-0.978	-1.0313244	-0.0572958	0.0572958	-2.76165756	8.65739538	-14.06038932
8.88	888	0.143	0.025	-0.98	-0.6302538	0	-0.2291832	-2.76738714	8.65739538	-14.0661189
8.89	889	0.143	0.028	-0.982	-0.1718874	0.1718874	-0.3437748	-2.76738714	8.65739538	-14.0661189
8.9	890	0.147	0.025	-0.98	0.1145916	0.4583664	-0.4583664	-2.7501984	8.6230179	-14.07184848
8.91	891	0.148	0.021	-0.979	0.1145916	0.859437	-0.3437748	-2.7501984	8.62874748	-14.07184848
8.92	892	0.15	0.019	-0.977	0.286479	1.0313244	-0.1718874	-2.7501984	8.64020664	-14.07757806
8.93	893	0.151	0.019	-0.974	0.1145916	1.145916	-0.0572958	-2.74446882	8.6516658	-14.07757806
8.94	894	0.153	0.018	-0.973	0	1.3750992	0	-2.74446882	8.66885454	-14.07757806
8.95	895	0.155	0.016	-0.973	0	1.5469866	0.0572958	-2.71582092	8.67458412	-14.07184848
8.96	896	0.155	0.013	-0.971	-0.4583664	1.6615782	0	-2.71582092	8.69177286	-14.07184848
8.97	897	0.154	0.012	-0.967	-0.859437	1.8907614	0.0572958	-2.72728008	8.7089616	-14.07184848
8.98	898	0.154	0.011	-0.967	-0.9167328	1.9480572	0.1718874	-2.73873924	8.72615034	-14.0661189
8.99	899	0.155	0.009	-0.966	-0.9740286	1.718874	0.2291832	-2.74446882	8.74333908	-14.0661189
9	900	0.153	0.011	-0.965	-0.859437	1.5469866	0.2291832	-2.73300966	8.74906866	-14.06038932
9.01	901	0.15	0.013	-0.963	-0.859437	1.5469866	0.1145916	-2.73873924	8.7662574	-14.06038932
9.02	902	0.15	0.015	-0.962	-0.9740286	1.2605076	0	-2.7501984	8.77771656	-14.06038932
9.03	903	0.151	0.015	-0.961	-1.4896908	1.3178034	-0.1718874	-2.76738714	8.78917572	-14.06038932
9.04	904	0.154	0.016	-0.964	-1.6615782	1.3750992	-0.2291832	-2.78457588	8.80636446	-14.0661189
9.05	905	0.158	0.016	-0.97	-1.4896908	1.0886202	-0.1718874	-2.7788463	8.81782362	-14.0661189
9.06	906	0.161	0.016	-0.975	-1.3178034	0.9740286	-0.1145916	-2.79603504	8.82928278	-14.0661189
9.07	907	0.163	0.016	-0.978	-1.145916	0.6875496	0	-2.8074942	8.83501236	-14.0661189
9.08	908	0.165	0.016	-0.983	-0.859437	0.4010706	0	-2.81895336	8.83501236	-14.0661189
9.09	909	0.162	0.017	-0.986	-0.8021412	0.286479	0.0572958	-2.82468294	8.84074194	-14.0661189
9.1	910	0.16	0.016	-0.987	-0.6875496	0.1718874	0.1145916	-2.78457588	8.8235532	-14.05465974
9.11	911	0.159	0.02	-0.988	-0.9740286	0	0	-2.79603504	8.8235532	-14.05465974
9.12	912	0.16	0.023	-0.987	-1.0313244	0.0572958	-0.0572958	-2.80176462	8.8235532	-14.05465974
9.13	913	0.161	0.024	-0.986	-1.0313244	0.2291832	-0.0572958	-2.81322378	8.8235532	-14.05465974
9.14	914	0.163	0.022	-0.985	-0.859437	0.1145916	-0.1718874	-2.82468294	8.82928278	-14.05465974
9.15	915	0.164	0.022	-0.984	-0.859437	0.0572958	-0.1718874	-2.81895336	8.83501236	-14.05465974
9.16	916	0.164	0.022	-0.984	-0.859437	0.286479	-0.2291832	-2.82468294	8.84074194	-14.06038932
9.17	917	0.164	0.022	-0.981	-0.7448454	0.4583664	-0.1145916	-2.8361421	8.84647152	-14.06038932
9.18	918	0.162	0.021	-0.976	-0.8021412	0.6875496	-0.1718874	-2.84187168	8.8522011	-14.06038932
9.19	919	0.16	0.019	-0.973	-1.0886202	0.6302538	-0.2291832	-2.85333084	8.85793068	-14.0661189
9.2	920	0.159	0.019	-0.97	-1.2605076	0.572958	-0.4583664	-2.85333084	8.85793068	-14.0661189
9.21	921	0.16	0.021	-0.97	-1.5469866	0.4010706	-0.6302538	-2.87051958	8.86366026	-14.07757806
9.22	922	0.161	0.023	-0.972	-1.6615782	0.1718874	-0.6302538	-2.88770832	8.86366026	-14.08330764
9.23	923	0.162	0.025	-0.977	-1.4896908	0.286479	-0.4583664	-2.90489706	8.86938984	-14.08903722
9.24	924	0.162	0.024	-0.98	-1.2605076	0.286479	-0.3437748	-2.91635622	8.86938984	-14.08903722
9.25	925	0.162	0.025	-0.984	-1.0313244	0.3437748	-0.0572958	-2.91635622	8.87511942	-14.08903722
9.26	926	0.162	0.024	-0.983	-0.7448454	0.4583664	0.1145916	-2.9220858	8.880849	-14.08903722
9.27	927	0.161	0.026	-0.983	-0.6302538	0.4583664	0.1718874	-2.92781538	8.88657858	-14.08330764
9.28	928	0.159	0.026	-0.981	-0.6302538	0.572958	0.1145916	-2.93354496	8.89230816	-14.08330764
9.29	929	0.158	0.026	-0.984	-0.6875496	0.572958	0.1718874	-2.94500412	8.89803774	-14.08330764
9.3	930	0.156	0.024	-0.986	-0.572958	0.4583664	0.0572958	-2.92781538	8.880849	-14.07757806
9.31	931	0.157	0.022	-0.987	-0.5156622	0.5156622	0.1145916	-2.93354496	8.88657858	-14.07757806
9.32	932	0.158	0.02	-0.986	-0.3437748	0.572958	0.1145916	-2.93927454	8.89230816	-14.07757806
9.33	933	0.158	0.018	-0.983	-0.286479	0.5156622	0.1718874	-2.93927454	8.89803774	-14.07184848
9.34	934	0.158	0.017	-0.981	-0.286479	0.572958	0.1145916	-2.94500412	8.90376732	-14.07184848
9.35	935	0.157	0.019	-0.977	-0.3437748	0.4010706	0	-2.89916748	8.880849	-14.0661189
9.36	936	0.157	0.02	-0.974	-0.4010706	0.4010706	0	-2.90489706	8.88657858	-14.0661189
9.37	937	0.157	0.022	-0.975	-0.5156622	0.4010706	0	-2.91062664	8.89230816	-14.0661189
9.38	938	0.158	0.021	-0.977	-0.5156622	0.4010706	0	-2.91635622	8.89230816	-14.0661189
9.39	939	0.159	0.022	-0.978	-0.572958	0.5156622	0	-2.9220858	8.89803774	-14.0661189
9.4	940	0.16	0.02	-0.976	-0.4583664	0.6302538	0.0572958	-2.89916748	8.90376732	-14.06038932
9.41	941	0.161	0.02	-0.976	-0.4010706	0.4583664	0.0572958	-2.90489706	8.9094969	-14.06038932
9.42	942	0.16	0.021	-0.975	0.2291832	-0.0572958	0.1145916	-2.89916748	8.9094969	-14.05465974
9.43	943	0.16	0.021	-0.976	0.1145916	-0.1145916	0.1145916	-2.89916748	8.9094969	-14.05465974
9.44	944	0.159	0.022	-0.977	0	0	0.0572958	-2.89916748	8.90376732	-14.05465974
9.45	945	0.157	0.023	-0.977	0.1145916	0	0	-2.82468294	8.82928278	-14.04320058
9.46	946	0.157	0.023	-0.979	0.286479	0	0.0572958	-2.81895336	8.82928278	-14.04320058
9.47	947	0.157	0.022	-0.982	0.3437748	0.0572958	0.0572958	-2.81895336	8.82928278	-14.04320058
9.48	948	0.158	0.022	-0.98	0.4583664	0.1145916	0.1145916	-2.81322378	8.82928278	-14.037471
9.49	949	0.158	0.02	-0.981	0.4583664	0	0.0572958	-2.8074942	8.82928278	-14.037471
9.5	950	0.157	0.02	-0.98	0.5156622	0	0.0572958	-2.76738714	8.80063488	-14.03174142
9.51	951	0.157	0.021	-0.98	0.3437748	-0.0572958	0.0572958	-2.76738714	8.80063488	-14.03174142
9.52	952	0.157	0.02	-0.98	0.4010706	-0.0572958	0	-2.76165756	8.7949053	-14.03174142
9.53	953	0.157	0.021	-0.98	0.286479	-0.0572958	0	-2.75592798	8.7949053	-14.03174142
9.54	954	0.158	0.022	-0.979	0.2291832	0	0	-2.75592798	8.7949053	-14.03174142
9.55	955	0.158	0.022	-0.978	0.1718874	0	0	-2.73300966	8.77198698	-14.02601184
9.56	956	0.158	0.022	-0.978	0.0572958	0.0572958	0	-2.73300966	8.77198698	-14.02601184
9.57	957	0.159	0.021	-0.979	0	0.0572958	0	-2.73300966	8.77198698	-14.02601184
9.58	958	0.158	0.021	-0.979	0	-0.0572958	0	-2.73300966	8.77198698	-14.02601184
9.59	959	0.157	0.022	-0.979	-0.0572958	-0.0572958	0	-2.73300966	8.77198698	-14.02601184
9.6	960	0.156	0.022	-0.978	-0.1718874	0	-0.0572958	-2.71582092	8.74906866	-14.02601184
9.61	961	0.156	0.022	-0.98	-0.4010706	-0.1145916	-0.1145916	-2.7215505	8.74906866	-14.02601184
9.62	962	0.155	0.021	-0.979	-0.572958	-0.1145916	-0.286479	-2.72728008	8.74906866	-14.03174142
9.63	963	0.153	0.02	-0.974	-0.859437	-0.0572958	-0.286479	-2.73873924	8.74333908	-14.03174142
9.64	964	0.153	0.018	-0.97	-1.3750992	0.0572958	-0.1718874	-2.7501984	8.74906866	-14.037471
