TimeStamp(s)	FrameCounter	AccX	AccY	AccZ	GyrX	GyrY	GyrZ	EulerX	EulerY	EulerZ
0.01	1	0.01	-1.001	0.131	0.0572958	-0.2291832	0.2291832	95.75847054	0.572958	10.22157072
0.02	2	0.012	-0.999	0.136	0	-0.2291832	0.286479	95.75847054	0.56722842	10.22157072
0.03	3	0.011	-0.998	0.136	-0.0572958	-0.3437748	0.286479	95.75847054	0.56722842	10.21584114
0.04	4	0.01	-0.997	0.137	0	-0.4010706	0.4010706	95.75847054	0.56149884	10.21011156
0.05	5	0.011	-0.997	0.136	0	-0.5156622	0.3437748	95.78711844	0.572958	10.1986524
0.06	6	0.009	-0.997	0.136	0	-0.5156622	0.4010706	95.78711844	0.56722842	10.19292282
0.07	7	0.01	-0.998	0.136	0	-0.4583664	0.3437748	95.78711844	0.56722842	10.18719324
0.08	8	0.009	-0.997	0.136	0.1718874	-0.572958	0.3437748	95.78711844	0.56149884	10.18146366
0.09	9	0.009	-0.999	0.137	0.1145916	-0.4583664	0.2291832	95.79284802	0.56149884	10.17573408
0.1	10	0.009	-0.999	0.138	0.0572958	-0.3437748	0.286479	95.83295508	0.572958	10.16427492
0.11	11	0.009	-0.998	0.136	0.1145916	-0.4010706	0.286479	95.83295508	0.56722842	10.15854534
0.12	12	0.007	-0.999	0.137	0.1718874	-0.4010706	0.286479	95.83868466	0.56722842	10.15281576
0.13	13	0.007	-1.001	0.135	0.1145916	-0.4010706	0.1718874	95.83868466	0.56149884	10.14708618
0.14	14	0.007	-1	0.135	0.1145916	-0.3437748	0.1718874	95.83868466	0.56149884	10.14708618
0.15	15	0.006	-1.002	0.135	0.1145916	-0.4583664	0.1718874	95.8845213	0.56722842	10.12989744
0.16	16	0.007	-1.003	0.135	0.0572958	-0.286479	0.2291832	95.8845213	0.56722842	10.12989744
0.17	17	0.007	-1.003	0.133	0	-0.1718874	0.286479	95.8845213	0.56149884	10.12416786
0.18	18	0.008	-1.001	0.132	0	-0.1718874	0.286479	95.8845213	0.56149884	10.12416786
0.19	19	0.008	-1.001	0.133	0	-0.1718874	0.286479	95.8845213	0.55576926	10.11843828
0.2	20	0.008	-1	0.132	-0.0572958	-0.1145916	0.1718874	95.92462836	0.572958	10.1127087
0.21	21	0.008	-1	0.132	-0.1718874	0.1145916	-0.0572958	95.92462836	0.572958	10.1127087
0.22	22	0.006	-1.001	0.132	-0.2291832	0.1145916	-0.2291832	95.91889878	0.57868758	10.1127087
0.23	23	0.008	-1.002	0.132	-0.286479	0.1145916	-0.1718874	95.91889878	0.57868758	10.11843828
0.24	24	0.006	-1.002	0.132	-0.3437748	0.1718874	-0.1145916	95.9131692	0.57868758	10.11843828
0.25	25	0.008	-0.999	0.131	-0.4010706	0.1145916	0	95.93608752	0.59587632	10.1127087
0.26	26	0.01	-0.999	0.131	-0.286479	0	0.0572958	95.93608752	0.59587632	10.1127087
0.27	27	0.011	-0.997	0.131	-0.3437748	0	0.0572958	95.93035794	0.59587632	10.1127087
0.28	28	0.011	-0.997	0.13	-0.3437748	0.0572958	0	95.92462836	0.59587632	10.11843828
0.29	29	0.01	-0.996	0.13	-0.286479	0	-0.0572958	95.92462836	0.59587632	10.11843828
0.3	30	0.008	-0.997	0.132	-0.1718874	0	-0.1718874	95.95327626	0.60733548	10.1127087
0.31	31	0.006	-0.999	0.133	-0.1145916	0	-0.1718874	95.95327626	0.61306506	10.1127087
0.32	32	0.009	-1	0.134	0	-0.0572958	-0.2291832	95.95327626	0.61306506	10.10697912
0.33	33	0.01	-1	0.132	0	-0.0572958	-0.1718874	95.95327626	0.61879464	10.10697912
0.34	34	0.011	-1	0.133	0.0572958	-0.286479	-0.1718874	95.95327626	0.61879464	10.10697912
0.35	35	0.011	-0.999	0.132	0	-0.2291832	-0.1145916	95.97619458	0.63598338	10.10124954
0.36	36	0.009	-0.997	0.132	0	-0.1145916	-0.286479	95.98192416	0.64171296	10.10124954
0.37	37	0.007	-0.996	0.131	0	-0.0572958	-0.286479	95.98192416	0.64744254	10.10124954
0.38	38	0.007	-0.997	0.13	0.1145916	-0.1145916	-0.2291832	95.98192416	0.64744254	10.09551996
0.39	39	0.009	-0.997	0.132	0.1718874	-0.0572958	-0.1145916	95.98192416	0.64744254	10.09551996
0.4	40	0.01	-0.996	0.135	0.1718874	0	-0.1145916	96.02203122	0.67036086	10.08979038
0.41	41	0.01	-0.998	0.132	0.1145916	0	-0.1718874	96.02203122	0.67036086	10.08979038
0.42	42	0.011	-1.001	0.132	0.0572958	-0.0572958	-0.1145916	96.02203122	0.67036086	10.08979038
0.43	43	0.011	-1.005	0.135	0	-0.1145916	-0.2291832	96.02203122	0.67609044	10.08979038
0.44	44	0.011	-1.005	0.135	-0.1145916	-0.5156622	-0.1145916	96.02203122	0.67609044	10.0840608
0.45	45	0.014	-1.004	0.134	0	-0.859437	-0.0572958	96.03921996	0.69900876	10.07260164
0.46	46	0.013	-1.006	0.136	-0.0572958	-0.572958	-0.0572958	96.03349038	0.69900876	10.06687206
0.47	47	0.01	-1.006	0.135	-0.0572958	-0.1718874	-0.1718874	96.03349038	0.69900876	10.06687206
0.48	48	0.009	-1.004	0.136	0	-0.1145916	-0.1718874	96.03349038	0.70473834	10.06687206
0.49	49	0.009	-1.001	0.136	-0.1718874	-0.1145916	-0.2291832	96.03349038	0.70473834	10.06687206
0.5	50	0.01	-0.998	0.135	-0.0572958	-0.0572958	-0.1145916	96.1137045	0.7448454	10.04968332
0.51	51	0.011	-0.995	0.134	0	0	-0.1145916	96.1137045	0.7448454	10.04968332
0.52	52	0.011	-0.995	0.133	0.0572958	-0.0572958	0.0572958	96.1137045	0.7448454	10.04968332
0.53	53	0.009	-0.994	0.133	0.1145916	-0.1718874	0.0572958	96.1137045	0.7448454	10.04968332
0.54	54	0.008	-0.994	0.132	0.1718874	-0.1145916	0.0572958	96.11943408	0.73911582	10.04395374
0.55	55	0.008	-0.995	0.131	0.3437748	0.0572958	0	96.1423524	0.73911582	10.04395374
0.56	56	0.008	-0.996	0.131	0.4010706	0	-0.0572958	96.1423524	0.73911582	10.04395374
0.57	57	0.008	-0.997	0.132	0.5156622	0	-0.0572958	96.14808198	0.7448454	10.04395374
0.58	58	0.008	-0.998	0.133	0.5156622	0	-0.0572958	96.15381156	0.7448454	10.04395374
0.59	59	0.007	-0.997	0.132	0.5156622	0.0572958	-0.1145916	96.15954114	0.7448454	10.04395374
0.6	60	0.007	-0.997	0.133	0.5156622	0	-0.0572958	96.18245946	0.7448454	10.04395374
0.61	61	0.007	-0.998	0.132	0.5156622	-0.2291832	0	96.18818904	0.7448454	10.03822416
0.62	62	0.006	-1.001	0.131	0.4010706	-0.1718874	-0.0572958	96.19391862	0.7448454	10.03822416
0.63	63	0.006	-1.003	0.132	0.2291832	0.1718874	-0.2291832	96.19391862	0.7448454	10.04395374
0.64	64	0.01	-1.003	0.131	0.1145916	0.4583664	-0.2291832	96.1996482	0.75057498	10.04395374
0.65	65	0.011	-1.004	0.129	0.286479	0.4010706	0	96.19391862	0.76203414	10.04968332
0.66	66	0.01	-1.004	0.131	0.1718874	0.1718874	0.1145916	96.1996482	0.76203414	10.0554129
0.67	67	0.009	-1.003	0.133	0.0572958	0	0.3437748	96.1996482	0.75630456	10.0554129
0.68	68	0.009	-1.001	0.133	0.0572958	-0.1145916	0.4010706	96.1996482	0.75057498	10.04968332
0.69	69	0.011	-1.001	0.134	0.0572958	-0.1718874	0.3437748	96.1996482	0.75057498	10.04968332
0.7	70	0.012	-1.001	0.134	0	-0.1718874	0.1145916	96.23402568	0.77922288	10.04395374
0.71	71	0.012	-1.002	0.134	0	-0.1718874	0	96.23402568	0.77922288	10.04395374
0.72	72	0.011	-1	0.136	0	-0.0572958	-0.0572958	96.23402568	0.77922288	10.03822416
0.73	73	0.011	-1	0.136	0	0	-0.1145916	96.23402568	0.77922288	10.03822416
0.74	74	0.011	-0.999	0.137	0	0	-0.1145916	96.23402568	0.77922288	10.03822416
0.75	75	0.011	-0.998	0.138	0	-0.0572958	0	96.29132148	0.8021412	10.03249458
0.76	76	0.01	-0.998	0.137	0.0572958	0	0.1718874	96.29132148	0.79641162	10.03249458
0.77	77	0.009	-0.997	0.138	0.1145916	-0.2291832	0.1718874	96.29132148	0.79641162	10.026765
0.78	78	0.008	-0.998	0.138	0.0572958	-0.1145916	0.1718874	96.29705106	0.79641162	10.026765
0.79	79	0.009	-0.999	0.138	0.1145916	0	0.1718874	96.29705106	0.79068204	10.026765
0.8	80	0.008	-0.998	0.137	0.1145916	0.1145916	0.1145916	96.31996938	0.79068204	10.026765
0.81	81	0.008	-0.999	0.137	0.2291832	0.1718874	0.2291832	96.31996938	0.78495246	10.026765
0.82	82	0.008	-0.999	0.136	0.286479	0.1718874	0.1145916	96.32569896	0.78495246	10.026765
0.83	83	0.008	-0.998	0.137	0.1718874	0.286479	0.1145916	96.32569896	0.78495246	10.03249458
0.84	84	0.01	-0.998	0.136	0.1718874	0.3437748	0.0572958	96.33142854	0.78495246	10.03249458
0.85	85	0.011	-0.999	0.137	0.1718874	0.3437748	0.0572958	96.34861728	0.79641162	10.03822416
0.86	86	0.01	-0.999	0.136	0.1145916	0.2291832	0	96.34861728	0.79641162	10.03822416
0.87	87	0.01	-1.001	0.137	0.1145916	0.2291832	0	96.34861728	0.79641162	10.04395374
0.88	88	0.011	-1.001	0.137	0.1145916	0.1145916	0	96.34861728	0.79641162	10.04395374
0.89	89	0.011	-1.001	0.136	0.0572958	0.0572958	0	96.34861728	0.79068204	10.04395374
0.9	90	0.011	-1.002	0.134	0	0	0	96.36580602	0.80787078	10.04395374
0.91	91	0.01	-1.001	0.134	-0.1145916	0	0	96.36007644	0.80787078	10.04395374
0.92	92	0.01	-1.002	0.136	-0.1718874	0.1145916	0	96.36007644	0.80787078	10.04395374
0.93	93	0.009	-1.001	0.135	-0.1718874	0	0.0572958	96.36007644	0.80787078	10.04395374
0.94	94	0.009	-1	0.134	-0.286479	-0.1145916	0.1145916	96.35434686	0.8021412	10.04395374
0.95	95	0.01	-0.999	0.134	-0.1718874	0.0572958	0.0572958	96.36580602	0.81360036	10.04395374
0.96	96	0.011	-1	0.134	-0.286479	0	0.1145916	96.36580602	0.80787078	10.04395374
0.97	97	0.011	-1.001	0.135	-0.286479	-0.1718874	0	96.36007644	0.80787078	10.03822416
0.98	98	0.01	-1	0.135	-0.286479	-0.1145916	0	96.35434686	0.80787078	10.03822416
0.99	99	0.007	-1	0.135	-0.286479	-0.1718874	0	96.35434686	0.80787078	10.03822416
1	100	0.006	-0.998	0.134	-0.3437748	-0.2291832	0	96.35434686	0.8021412	10.03249458
1.01	101	0.008	-0.999	0.135	-0.4010706	-0.1145916	0	96.34861728	0.8021412	10.03249458
1.02	102	0.01	-0.998	0.137	-0.3437748	-0.0572958	0	96.3428877	0.8021412	10.03249458
1.03	103	0.011	-0.999	0.136	-0.286479	0	0	96.3428877	0.8021412	10.03249458
1.04	104	0.013	-1.001	0.137	-0.1718874	0.0572958	0	96.33715812	0.8021412	10.03249458
1.05	105	0.01	-1.002	0.136	-0.1145916	0	0	96.36007644	0.80787078	10.026765
1.06	106	0.007	-1	0.136	-0.286479	0.0572958	-0.0572958	96.35434686	0.80787078	10.03249458
1.07	107	0.005	-0.999	0.135	-0.1145916	0.0572958	0	96.35434686	0.80787078	10.03249458
1.08	108	0.006	-0.997	0.136	-0.2291832	0	0	96.34861728	0.80787078	10.03249458
1.09	109	0.007	-0.996	0.137	-0.1145916	0.1718874	0	96.34861728	0.80787078	10.03249458
1.1	110	0.009	-0.997	0.137	-0.1145916	0.286479	0	96.36580602	0.80787078	10.03249458
1.11	111	0.01	-0.997	0.135	-0.1145916	0.4010706	-0.0572958	96.36007644	0.80787078	10.03822416
1.12	112	0.01	-0.999	0.136	-0.1718874	0.286479	-0.1145916	96.36007644	0.80787078	10.04395374
1.13	113	0.01	-1.002	0.138	-0.2291832	0	-0.1718874	96.36007644	0.80787078	10.04395374
1.14	114	0.01	-1.002	0.134	-0.1718874	-0.2291832	-0.1145916	96.35434686	0.81360036	10.03822416
1.15	115	0.012	-1.004	0.137	-0.1145916	-0.3437748	-0.0572958	96.36007644	0.81932994	10.03249458
1.16	116	0.01	-1.004	0.137	-0.1145916	-0.3437748	-0.1145916	96.36007644	0.81932994	10.03249458
1.17	117	0.009	-1.003	0.137	0	-0.0572958	-0.0572958	96.36007644	0.82505952	10.03249458
1.18	118	0.008	-1.002	0.139	0	0	-0.0572958	96.36007644	0.82505952	10.03249458
1.19	119	0.01	-1.002	0.138	-0.0572958	0.1145916	-0.1718874	96.36007644	0.82505952	10.03249458
1.2	120	0.011	-0.999	0.138	-0.1145916	0.0572958	-0.1145916	96.38872434	0.84797784	10.03249458
1.21	121	0.011	-0.997	0.136	-0.1145916	0	0	96.38872434	0.84797784	10.03249458
1.22	122	0.013	-0.996	0.136	-0.0572958	-0.0572958	0	96.38872434	0.84797784	10.026765
1.23	123	0.012	-0.995	0.136	0	-0.2291832	0.0572958	96.38872434	0.84797784	10.026765
1.24	124	0.01	-0.996	0.135	0.1718874	-0.1145916	0	96.39445392	0.84797784	10.026765
1.25	125	0.009	-0.997	0.135	0.2291832	-0.1718874	0	96.39445392	0.84797784	10.02103542
1.26	126	0.008	-0.998	0.134	0.2291832	-0.1718874	-0.0572958	96.4001835	0.84797784	10.02103542
1.27	127	0.008	-0.998	0.133	0.2291832	-0.2291832	-0.1718874	96.4001835	0.84797784	10.02103542
1.28	128	0.008	-0.996	0.134	0.1718874	-0.1145916	-0.2291832	96.40591308	0.85370742	10.01530584
1.29	129	0.008	-0.997	0.135	0.1145916	0	-0.2291832	96.40591308	0.85370742	10.01530584
1.3	130	0.01	-0.998	0.134	0.2291832	0	-0.1145916	96.40591308	0.86516658	10.02103542
1.31	131	0.012	-0.999	0.133	0.2291832	-0.1145916	-0.1145916	96.41164266	0.86516658	10.01530584
1.32	132	0.011	-1.002	0.134	0.1718874	-0.1145916	-0.0572958	96.41164266	0.86516658	10.01530584
1.33	133	0.009	-1.002	0.136	0.2291832	0	-0.1718874	96.41737224	0.87089616	10.01530584
1.34	134	0.008	-1.003	0.135	0	0.1718874	-0.1718874	96.41737224	0.87089616	10.02103542
1.35	135	0.007	-1.004	0.134	-0.0572958	0.1718874	-0.1145916	96.41737224	0.86516658	10.02103542
1.36	136	0.007	-1.002	0.135	-0.0572958	0.2291832	-0.1145916	96.41737224	0.86516658	10.02103542
1.37	137	0.008	-1.003	0.135	-0.1145916	0.286479	-0.0572958	96.41164266	0.87089616	10.026765
1.38	138	0.011	-1.002	0.136	-0.1145916	0.1718874	0	96.41164266	0.86516658	10.026765
1.39	139	0.011	-1.001	0.136	-0.1145916	0	0.1145916	96.41164266	0.86516658	10.026765
1.4	140	0.013	-1	0.135	-0.1145916	0.1145916	0.0572958	96.42310182	0.8880849	10.026765
1.41	141	0.012	-1.001	0.135	-0.0572958	0.0572958	0	96.42310182	0.8880849	10.026765
1.42	142	0.012	-1.001	0.136	-0.1145916	0	-0.1145916	96.41737224	0.8880849	10.026765
1.43	143	0.013	-1	0.136	-0.1145916	0.1145916	-0.0572958	96.41737224	0.8880849	10.03249458
1.44	144	0.012	-0.999	0.137	-0.1718874	0.2291832	-0.1145916	96.41737224	0.89381448	10.03249458
1.45	145	0.011	-0.998	0.137	-0.0572958	0.1145916	0	96.43456098	0.89381448	10.03249458
1.46	146	0.012	-0.998	0.138	0	0	0	96.43456098	0.89381448	10.03249458
1.47	147	0.011	-0.997	0.138	-0.0572958	0	0.0572958	96.43456098	0.89381448	10.03249458
1.48	148	0.011	-0.997	0.137	0	0	0.1718874	96.43456098	0.89381448	10.03249458
1.49	149	0.011	-0.998	0.138	0	0	0.0572958	96.43456098	0.89381448	10.03249458
1.5	150	0.011	-0.998	0.138	0	0	0.0572958	96.46320888	0.90527364	10.03249458
1.51	151	0.012	-0.999	0.139	0	0	0.0572958	96.46320888	0.90527364	10.03249458
1.52	152	0.011	-0.998	0.139	0	0	0	96.46320888	0.90527364	10.03249458
1.53	153	0.01	-0.999	0.139	0.0572958	-0.0572958	0	96.46320888	0.90527364	10.03249458
1.54	154	0.01	-0.999	0.138	0	0	-0.0572958	96.46320888	0.90527364	10.03249458
1.55	155	0.01	-1	0.138	0	0	0	96.47466804	0.8880849	10.03249458
1.56	156	0.005	-1.002	0.131	-0.0572958	-0.4010706	0	96.47466804	0.8880849	10.026765
1.57	157	0.006	-1	0.135	-0.1718874	-0.8021412	0	96.47466804	0.89381448	10.02103542
1.58	158	0.012	-0.999	0.139	-0.4010706	-0.8021412	0	96.46893846	0.89381448	10.00957626
1.59	159	0.015	-1.001	0.138	-0.572958	-0.6875496	-0.0572958	96.46320888	0.89381448	10.00384668
1.6	160	0.014	-1.001	0.135	-0.3437748	-0.6302538	-0.1145916	96.4574793	0.89954406	9.9981171
1.61	161	0.011	-1.001	0.135	-0.3437748	-0.6302538	-0.1145916	96.4574793	0.90527364	9.99238752
1.62	162	0.007	-1	0.135	-0.4583664	-0.859437	-0.1718874	96.45174972	0.90527364	9.98092836
1.63	163	0.007	-0.999	0.136	-0.4010706	-0.9740286	-0.286479	96.44602014	0.91100322	9.97519878
1.64	164	0.008	-1	0.135	-0.1718874	-0.7448454	-0.3437748	96.44602014	0.9167328	9.96373962
1.65	165	0.009	-1.002	0.134	-0.2291832	-0.3437748	-0.3437748	96.43456098	0.92246238	9.96373962
1.66	166	0.01	-1.001	0.133	-0.1718874	-0.1718874	-0.4583664	96.43456098	0.92246238	9.95801004
1.67	167	0.008	-1	0.133	-0.1718874	-0.0572958	-0.286479	96.43456098	0.92819196	9.95801004
1.68	168	0.009	-0.999	0.133	-0.1145916	-0.0572958	-0.286479	96.4288314	0.93392154	9.95801004
1.69	169	0.007	-0.997	0.134	-0.1145916	0	-0.1718874	96.4288314	0.93392154	9.95801004
1.7	170	0.007	-0.997	0.134	-0.1145916	0	-0.1145916	96.42310182	0.89954406	9.95801004
1.71	171	0.006	-0.997	0.135	-0.0572958	0.1718874	-0.1718874	96.42310182	0.89954406	9.96373962
1.72	172	0.007	-0.998	0.134	0	0.4010706	-0.3437748	96.42310182	0.90527364	9.96373962
1.73	173	0.009	-0.998	0.135	0	0.5156622	-0.2291832	96.42310182	0.90527364	9.9694692
1.74	174	0.011	-0.999	0.135	0	0.572958	-0.1718874	96.42310182	0.90527364	9.97519878
1.75	175	0.013	-1.001	0.135	0.1718874	0.7448454	-0.1145916	96.4288314	0.9167328	9.98665794
1.76	176	0.015	-1.001	0.135	0.1718874	0.6875496	-0.0572958	96.43456098	0.9167328	9.99238752
1.77	177	0.016	-1	0.134	0.3437748	0.572958	-0.0572958	96.43456098	0.9167328	9.9981171
1.78	178	0.016	-1.001	0.135	0.286479	0.6302538	-0.1145916	96.44029056	0.9167328	10.00384668
1.79	179	0.015	-1	0.134	0.2291832	0.4583664	-0.1145916	96.44029056	0.9167328	10.00957626
1.8	180	0.015	-0.998	0.134	0.3437748	0.286479	-0.1145916	96.44602014	0.92819196	10.01530584
1.81	181	0.017	-0.997	0.136	0.1145916	0.286479	-0.1718874	96.45174972	0.93392154	10.01530584
1.82	182	0.018	-0.997	0.136	0.0572958	0.3437748	-0.1718874	96.45174972	0.93392154	10.02103542
1.83	183	0.019	-0.998	0.134	0.1145916	0.3437748	-0.1718874	96.45174972	0.93392154	10.026765
1.84	184	0.016	-0.999	0.137	0.286479	0	-0.1145916	96.45174972	0.93392154	10.026765
1.85	185	0.013	-0.999	0.138	0.2291832	-0.286479	-0.1145916	96.46320888	0.9453807	10.02103542
1.86	186	0.012	-0.999	0.137	0.286479	-0.4583664	-0.0572958	96.46893846	0.9453807	10.01530584
1.87	187	0.014	-1.001	0.137	0.2291832	-0.572958	-0.1145916	96.46893846	0.9453807	10.00957626
1.88	188	0.013	-1.002	0.138	0.4583664	-0.4583664	-0.1145916	96.47466804	0.95111028	10.00957626
1.89	189	0.014	-1.003	0.139	0.5156622	-0.4010706	-0.1718874	96.48039762	0.95111028	10.00384668
1.9	190	0.014	-1.002	0.137	0.4583664	-0.572958	-0.286479	96.4861272	0.95683986	9.9981171
1.91	191	0.014	-1.001	0.137	0.572958	-0.5156622	-0.286479	96.49185678	0.96256944	9.99238752
1.92	192	0.013	-1	0.137	0.5156622	-0.4010706	-0.4010706	96.49758636	0.96829902	9.99238752
1.93	193	0.013	-1	0.136	0.5156622	-0.286479	-0.3437748	96.50331594	0.9740286	9.98665794
1.94	194	0.012	-1	0.137	0.4583664	-0.0572958	-0.2291832	96.50904552	0.9740286	9.98665794
1.95	195	0.01	-0.998	0.135	0.5156622	0	-0.1718874	96.5147751	0.9740286	9.98665794
1.96	196	0.009	-0.996	0.136	0.4583664	0.1145916	-0.0572958	96.5147751	0.9740286	9.98665794
1.97	197	0.009	-0.996	0.136	0.4010706	0.1718874	0	96.52050468	0.9740286	9.99238752
1.98	198	0.009	-0.996	0.135	0.4010706	0.1718874	-0.0572958	96.52623426	0.9740286	9.99238752
1.99	199	0.011	-0.996	0.136	0.4010706	0.2291832	-0.1718874	96.53196384	0.9740286	9.99238752
2	200	0.013	-0.996	0.137	0.4010706	0.286479	-0.1145916	96.53769342	0.97975818	9.9981171
2.01	201	0.014	-0.996	0.136	0.3437748	0.286479	-0.1718874	96.543423	0.97975818	10.00384668
2.02	202	0.017	-0.996	0.135	0.4010706	0.286479	-0.2291832	96.54915258	0.97975818	10.00384668
2.03	203	0.018	-0.997	0.135	0.572958	0.2291832	-0.1145916	96.55488216	0.98548776	10.00957626
2.04	204	0.017	-0.999	0.135	0.6302538	0.2291832	-0.1145916	96.56061174	0.98548776	10.00957626
2.05	205	0.016	-1	0.135	0.4583664	0.286479	-0.1718874	96.56061174	0.99694692	10.01530584
2.06	206	0.014	-1	0.136	0.1145916	0.1718874	0	96.56061174	0.99694692	10.01530584
2.07	207	0.015	-0.999	0.137	0	0.1145916	0	96.56061174	0.99694692	10.01530584
2.08	208	0.016	-1.001	0.139	0	0.2291832	0	96.56061174	0.99694692	10.02103542
2.09	209	0.017	-1.003	0.137	0	0.0572958	0.1145916	96.56061174	0.99121734	10.02103542
2.1	210	0.016	-1.002	0.138	-0.0572958	0.0572958	0.1718874	96.5720709	1.01413566	10.02103542
2.11	211	0.017	-1.001	0.137	-0.1145916	-0.0572958	0.1145916	96.56634132	1.00840608	10.02103542
2.12	212	0.017	-1.001	0.138	-0.0572958	-0.286479	0.1145916	96.56634132	1.00840608	10.01530584
2.13	213	0.017	-1.002	0.137	-0.0572958	-0.4583664	0.1145916	96.56634132	1.00840608	10.00957626
2.14	214	0.018	-1	0.137	0	-0.4583664	0.0572958	96.56634132	1.00840608	10.00957626
2.15	215	0.017	-1.001	0.139	0	-0.4583664	0	96.57780048	1.01986524	10.00384668
2.16	216	0.016	-0.999	0.138	-0.0572958	-0.1718874	-0.0572958	96.5720709	1.02559482	9.9981171
2.17	217	0.015	-0.999	0.139	-0.1145916	-0.1145916	0	96.5720709	1.02559482	9.9981171
2.18	218	0.014	-0.998	0.138	-0.0572958	-0.0572958	0	96.5720709	1.02559482	9.9981171
2.19	219	0.013	-0.997	0.139	-0.1145916	0	0.0572958	96.5720709	1.01986524	9.9981171
2.2	220	0.013	-0.997	0.138	-0.1145916	0	0.1145916	96.57780048	1.02559482	9.9981171
2.21	221	0.013	-0.998	0.138	-0.1145916	0	0.1718874	96.5720709	1.02559482	9.9981171
2.22	222	0.014	-0.998	0.139	-0.0572958	0.1718874	0.1145916	96.5720709	1.01986524	9.9981171
2.23	223	0.015	-0.999	0.139	0	0.2291832	0.1718874	96.5720709	1.01986524	9.9981171
2.24	224	0.014	-0.999	0.139	0	0.1718874	0.1145916	96.5720709	1.01986524	10.00384668
2.25	225	0.014	-0.997	0.139	0	0.1718874	0.1145916	96.58353006	1.02559482	10.00384668
2.26	226	0.015	-0.999	0.139	0	-0.0572958	0.1145916	96.58353006	1.02559482	10.00384668
2.27	227	0.016	-1	0.14	0.0572958	0.0572958	0.1718874	96.58353006	1.01986524	10.00384668
2.28	228	0.016	-1	0.139	0	0.1718874	0.1718874	96.58353006	1.01986524	10.00384668
2.29	229	0.017	-1.002	0.139	0	0.1718874	0.1718874	96.58353006	1.01413566	10.00384668
2.3	230	0.018	-1.002	0.139	0	0.1718874	0.1718874	96.58925964	1.0313244	10.00957626
2.31	231	0.017	-1.003	0.139	-0.0572958	0.286479	0.3437748	96.58925964	1.02559482	10.00957626
2.32	232	0.016	-1.002	0.138	-0.1145916	0.1145916	0.286479	96.58925964	1.02559482	10.00957626
2.33	233	0.017	-1.001	0.137	-0.1145916	0.1145916	0.3437748	96.58925964	1.01986524	10.00957626
2.34	234	0.017	-1.001	0.138	-0.2291832	0.1718874	0.3437748	96.58353006	1.01413566	10.01530584
2.35	235	0.017	-1.002	0.137	-0.286479	0.1718874	0.3437748	96.57780048	1.02559482	10.01530584
2.36	236	0.019	-1.002	0.138	-0.3437748	0.1145916	0.286479	96.57780048	1.01986524	10.01530584
2.37	237	0.018	-1.002	0.138	-0.3437748	0.1718874	0.286479	96.5720709	1.01986524	10.01530584
2.38	238	0.018	-1.002	0.137	-0.3437748	0.1145916	0.3437748	96.56634132	1.01413566	10.02103542
2.39	239	0.018	-1.001	0.138	-0.4010706	0.2291832	0.3437748	96.56634132	1.00840608	10.02103542
2.4	240	0.016	-1	0.138	-0.3437748	0.1145916	0.4010706	96.56061174	1.01413566	10.02103542
2.41	241	0.018	-0.998	0.138	-0.4583664	0.1718874	0.3437748	96.55488216	1.00840608	10.02103542
2.42	242	0.016	-0.997	0.137	-0.5156622	0.3437748	0.286479	96.55488216	1.00840608	10.026765
2.43	243	0.015	-0.995	0.139	-0.5156622	0.4010706	0.1718874	96.54915258	1.0026765	10.03249458
2.44	244	0.015	-0.996	0.14	-0.4010706	0.4583664	0.1145916	96.543423	1.0026765	10.03249458
2.45	245	0.015	-0.995	0.14	-0.4583664	0.572958	0.1145916	96.543423	1.0026765	10.03822416
2.46	246	0.015	-0.995	0.141	-0.3437748	0.5156622	0.2291832	96.53769342	1.0026765	10.04395374
2.47	247	0.016	-0.998	0.14	-0.1718874	0.4010706	0.2291832	96.53769342	0.99694692	10.04968332
2.48	248	0.018	-1	0.138	-0.1718874	0.572958	0.3437748	96.53769342	0.99694692	10.0554129
2.49	249	0.018	-1.001	0.14	-0.2291832	0.6875496	0.3437748	96.53196384	0.99121734	10.06114248
2.5	250	0.014	-1.002	0.14	-0.2291832	0.7448454	0.286479	96.53769342	0.98548776	10.06687206
2.51	251	0.015	-1	0.14	-0.0572958	0.4010706	0.4010706	96.53196384	0.98548776	10.07260164
2.52	252	0.011	-0.996	0.145	0.6875496	-0.286479	0.572958	96.543423	0.97975818	10.06687206
2.53	253	0.01	-0.999	0.142	0.6302538	-0.2291832	0.5156622	96.54915258	0.9740286	10.06687206
2.54	254	0.013	-0.999	0.139	0.2291832	0.1718874	0.4010706	96.54915258	0.96829902	10.06687206
2.55	255	0.014	-0.999	0.139	0.0572958	0.286479	0.3437748	96.56061174	0.9740286	10.06687206
2.56	256	0.016	-0.997	0.143	-0.4010706	0.1145916	0.3437748	96.56061174	0.96829902	10.06687206
2.57	257	0.013	-0.998	0.141	-0.4583664	-0.5156622	0.2291832	96.55488216	0.96829902	10.06687206
2.58	258	0.014	-1	0.138	-0.5156622	-0.572958	0.286479	96.54915258	0.96256944	10.0554129
2.59	259	0.016	-1.002	0.14	-0.5156622	-0.5156622	0.3437748	96.543423	0.96256944	10.04968332
2.6	260	0.019	-1.006	0.141	-0.6875496	-0.4583664	0.2291832	96.543423	0.9740286	10.04395374
2.61	261	0.02	-1.006	0.143	-0.8021412	-0.3437748	0.1718874	96.53196384	0.96829902	10.04395374
2.62	262	0.022	-1.005	0.142	-1.0313244	-0.1145916	0.0572958	96.52050468	0.96829902	10.03822416
2.63	263	0.023	-1.002	0.142	-1.3178034	0.0572958	0	96.50904552	0.96829902	10.04395374
2.64	264	0.023	-0.998	0.142	-1.6615782	0	0.2291832	96.49185678	0.96829902	10.03822416
2.65	265	0.019	-0.995	0.144	-1.7761698	-0.286479	0.4010706	96.48039762	0.96829902	10.03822416
2.66	266	0.018	-0.993	0.143	-2.0626488	-0.1145916	0.4010706	96.4574793	0.96829902	10.03249458
2.67	267	0.021	-0.992	0.141	-2.2345362	0.2291832	0.572958	96.43456098	0.95683986	10.03822416
2.68	268	0.021	-0.995	0.139	-2.291832	0.3437748	0.6875496	96.41164266	0.95111028	10.03822416
2.69	269	0.022	-0.998	0.141	-2.5210152	0	0.9167328	96.38872434	0.93965112	10.03822416
2.7	270	0.024	-1.003	0.143	-3.0939732	0	1.145916	96.36007644	0.93392154	10.03249458
2.71	271	0.025	-1.004	0.141	-3.437748	0.1718874	1.4896908	96.32569896	0.92246238	10.03249458
2.72	272	0.022	-1.003	0.137	-3.724227	0	1.8334656	96.2855919	0.89954406	10.03249458
2.73	273	0.019	-1.005	0.14	-3.7815228	-0.3437748	1.9480572	96.25121442	0.88235532	10.026765
2.74	274	0.017	-1.005	0.141	-4.0680018	-0.6302538	1.8907614	96.20537778	0.86516658	10.01530584
2.75	275	0.021	-1.009	0.14	-4.8128472	0	1.6042824	96.15954114	0.85370742	10.01530584
2.76	276	0.03	-1.017	0.133	-5.72958	0.9740286	1.3750992	96.10224534	0.83651868	10.02103542
2.77	277	0.028	-1.024	0.126	-6.4171296	0.859437	1.3750992	96.03921996	0.81932994	10.026765
2.78	278	0.01	-1.027	0.129	-6.589017	-0.1145916	1.718874	95.970465	0.8021412	10.02103542
2.79	279	0	-1.023	0.135	-7.161975	-0.8021412	2.1199446	95.89598046	0.78495246	10.00957626
2.8	280	-0.001	-1.016	0.139	-8.021412	-0.6302538	2.291832	95.81576634	0.76203414	10.00384668
2.81	281	0.002	-1.016	0.142	-8.7089616	-0.286479	2.1199446	95.72982264	0.73911582	9.9981171
2.82	282	0.009	-1.016	0.144	-9.740286	-0.572958	1.8334656	95.63241978	0.72192708	9.98665794
2.83	283	0.013	-1.024	0.146	-9.8548776	-1.3178034	1.6615782	95.52928734	0.70473834	9.9694692
2.84	284	0.011	-1.038	0.152	-10.2559482	-1.4896908	1.6615782	95.4261549	0.6875496	9.95228046
2.85	285	0.007	-1.044	0.153	-11.5164558	-0.9740286	1.3750992	95.3115633	0.67609044	9.9408213
2.86	286	0.007	-1.042	0.148	-12.9488508	-0.0572958	0.9740286	95.17978296	0.66463128	9.93509172
2.87	287	0.004	-1.037	0.135	-13.750992	-0.3437748	0.9167328	95.04227304	0.65317212	9.92936214
2.88	288	0.002	-1.039	0.131	-14.037471	-1.145916	1.145916	94.89903354	0.64171296	9.91790298
2.89	289	0.002	-1.03	0.125	-14.5531332	-2.1199446	1.6042824	94.75006446	0.6302538	9.88925508
2.9	290	0.005	-1.024	0.129	-14.8396122	-2.7501984	1.8907614	94.60682496	0.61306506	9.86060718
2.91	291	0.01	-1.016	0.122	-15.469866	-2.8074942	1.9480572	94.44639672	0.59587632	9.8262297
2.92	292	0.007	-1.013	0.119	-15.6990492	-2.86479	1.7761698	94.28596848	0.57868758	9.7975818
2.93	293	0.007	-1.014	0.13	-15.9282324	-2.6356068	1.4896908	94.12554024	0.56149884	9.7689339
2.94	294	0.004	-1.016	0.128	-16.5011904	-3.2085648	1.6615782	93.95938242	0.55003968	9.73455642
2.95	295	0.004	-1.027	0.121	-16.9595568	-3.4950438	1.9480572	93.78749502	0.53285094	9.69444936
2.96	296	0.005	-1.035	0.113	-17.8762896	-3.2085648	2.2345362	93.60987804	0.50993262	9.66007188
2.97	297	0.01	-1.033	0.105	-18.6784308	-2.9793816	2.5210152	93.41507232	0.4870143	9.6256944
2.98	298	0.016	-1.029	0.094	-19.6524594	-3.0939732	2.86479	93.2202666	0.4583664	9.59131692
2.99	299	0.02	-1.02	0.09	-20.5691922	-3.2658606	3.3231564	93.00827214	0.42398892	9.55120986
3	300	0.018	-1.011	0.085	-21.1421502	-3.437748	3.6669312	92.79627768	0.38961144	9.51683238
3.01	301	0.013	-1.001	0.086	-21.772404	-3.6669312	3.8388186	92.57282406	0.35523396	9.47672532
3.02	302	0.01	-0.999	0.085	-22.0015872	-3.3804522	3.6096354	92.34937044	0.32085648	9.43661826
3.03	303	0.01	-1.003	0.083	-22.6891368	-2.86479	3.3231564	92.12018724	0.286479	9.40224078
3.04	304	0.012	-1.011	0.084	-23.204799	-2.3491278	3.151269	91.88527446	0.2578311	9.37359288
3.05	305	0.012	-1.023	0.082	-23.8350528	-1.8907614	3.151269	91.6446321	0.22345362	9.35067456
3.06	306	0.004	-1.031	0.075	-24.4653066	-1.5469866	3.2085648	91.39826016	0.18907614	9.33348582
3.07	307	-0.013	-1.029	0.062	-25.2674478	-1.2605076	2.86479	91.14042906	0.16042824	9.31629708
3.08	308	-0.02	-1.001	0.06	-26.356068	0.2291832	2.3491278	90.87686838	0.13178034	9.31629708
3.09	309	-0.023	-1.003	0.052	-25.1528562	1.0886202	1.6615782	90.61903728	0.1145916	9.32202666
3.1	310	-0.017	-1.029	0.061	-24.5798982	2.291832	1.3178034	90.37266534	0.09740286	9.34494498
3.11	311	0.001	-1.036	0.065	-25.0955604	4.1252976	0.9167328	90.11483424	0.0859437	9.37932246
3.12	312	0.014	-1.044	0.071	-25.0955604	4.9274388	0.6302538	89.86273272	0.07448454	9.4251591
3.13	313	0.02	-1.059	0.064	-26.1268848	5.3285094	0.1145916	89.59344246	0.07448454	9.47672532
3.14	314	0.026	-1.067	0.074	-27.6165756	5.0993262	-0.1718874	89.31269304	0.06875496	9.52256196
3.15	315	0.032	-1.055	0.075	-29.5646328	4.1252976	0	89.02048446	0.06875496	9.56266902
3.16	316	0.034	-1.04	0.036	-30.0229992	1.6615782	0.572958	88.71108714	0.06302538	9.57412818
3.17	317	0.019	-1.065	0.028	-29.3354496	-0.859437	0.9740286	88.41314898	0.05156622	9.56266902
3.18	318	0.014	-1.097	0.04	-30.0229992	-2.5210152	0.9740286	88.10948124	0.04010706	9.53402112
3.19	319	0.029	-1.117	0.038	-30.9970278	-4.7555514	1.2605076	87.79435434	0.02291832	9.48818448
3.2	320	0.04	-1.115	0.038	-31.9710564	-6.9900876	1.8907614	87.47349786	0	9.41369994
3.21	321	0.042	-1.144	0.043	-31.7418732	-9.2819196	2.86479	87.15264138	-0.0286479	9.32202666
3.22	322	0.049	-1.134	0.048	-34.8358464	-10.4851314	3.6669312	86.803137	-0.06875496	9.21316464
3.23	323	0.053	-1.11	0.047	-36.4401288	-10.7143146	3.4950438	86.43644388	-0.10886202	9.10430262
3.24	324	0.046	-1.092	0.025	-37.9298196	-10.5424272	2.7501984	86.05256202	-0.1432395	9.00117018
3.25	325	0.038	-1.08	-0.005	-38.5600734	-9.3392154	1.7761698	85.66295058	-0.16615782	8.90376732
3.26	326	0.048	-1.096	-0.036	-38.674665	-8.0787078	0.5156622	85.27333914	-0.18334656	8.81782362
3.27	327	0.06	-1.088	-0.037	-40.10706	-7.6203414	-0.8021412	84.86653896	-0.18334656	8.7376095
3.28	328	0.066	-1.085	-0.024	-40.9092012	-7.3911582	-1.432395	84.44827962	-0.17761698	8.65739538
3.29	329	0.056	-1.055	-0.013	-43.0864416	-8.7089616	-1.4896908	84.01283154	-0.1718874	8.5657221
3.3	330	0.028	-1.029	-0.02	-43.0864416	-9.6256944	-1.145916	83.58311304	-0.1718874	8.46831924
3.31	331	-0.004	-1.036	-0.029	-43.4875122	-11.0580894	-1.2032118	83.14193538	-0.1718874	8.35372764
3.32	332	-0.03	-1.037	-0.038	-43.258329	-11.172681	-2.005353	82.7064873	-0.16615782	8.23340646
3.33	333	-0.053	-1.04	-0.049	-42.685371	-11.0007936	-3.6096354	82.27103922	-0.1432395	8.11881486
3.34	334	-0.074	-1.043	-0.072	-42.3415962	-10.886202	-5.6149884	81.8470503	-0.10313244	7.99849368
3.35	335	-0.074	-1.053	-0.098	-41.7686382	-9.5111028	-6.875496	81.42306138	-0.0572958	7.88963166
3.36	336	-0.072	-1.064	-0.09	-41.7113424	-8.1932994	-7.0473834	80.99907246	0	7.79795838
3.37	337	-0.078	-1.04	-0.072	-45.0344988	-4.8128472	-6.8182002	80.54643564	0.05156622	7.734933
3.38	338	-0.081	-0.99	-0.129	-43.8885828	-2.5210152	-6.2452422	80.0995284	0.10313244	7.69482594
3.39	339	-0.07	-0.991	-0.165	-37.6433406	-1.3750992	-5.8441716	79.71564654	0.15469866	7.66617804
3.4	340	-0.031	-1.021	-0.176	-34.5493674	0.2291832	-5.9014674	79.36614216	0.20626488	7.65471888
3.41	341	0.009	-1.028	-0.166	-32.2575354	-0.1718874	-5.7868758	79.0395561	0.26356068	7.63753014
3.42	342	0.038	-1.029	-0.172	-30.5959572	-0.6302538	-5.6722842	78.7244292	0.3151269	7.6203414
3.43	343	0.032	-1.032	-0.181	-29.7365202	-1.3750992	-5.72958	78.42649104	0.36669312	7.5916935
3.44	344	0.009	-1.032	-0.182	-29.0489706	-1.0886202	-5.0993262	78.12855288	0.40680018	7.5630456
3.45	345	-0.014	-1.029	-0.206	-27.1582092	-1.2032118	-3.6669312	77.85353304	0.43544808	7.54585686
3.46	346	-0.029	-1.04	-0.228	-25.0955604	0.2291832	-2.5210152	77.59570194	0.4583664	7.54012728
3.47	347	-0.034	-1.058	-0.199	-24.9809688	2.1199446	-1.718874	77.34360042	0.47555514	7.55158644
3.48	348	-0.024	-1.033	-0.178	-27.3300966	4.4690724	-1.145916	77.062851	0.49274388	7.5916935
3.49	349	-0.005	-1.008	-0.232	-25.7258142	3.4950438	-0.7448454	76.8050199	0.50420304	7.6203414
3.5	350	0.005	-1.009	-0.223	-25.7258142	2.6929026	-0.8021412	76.54145922	0.5156622	7.64325972
3.51	351	0.013	-1.035	-0.222	-24.6944898	1.3750992	-1.718874	76.2893577	0.53285094	7.6489893
3.52	352	0.005	-1.039	-0.229	-25.3820394	0.4010706	-2.4637194	76.0315266	0.55576926	7.6489893
3.53	353	-0.008	-1.031	-0.249	-24.350715	1.0313244	-3.3231564	75.78515466	0.59014674	7.6489893
3.54	354	-0.01	-1.042	-0.256	-23.1475032	0.7448454	-3.7815228	75.55024188	0.62452422	7.64325972
3.55	355	0.001	-1.028	-0.243	-22.8610242	-0.286479	-3.0939732	75.32105868	0.65317212	7.63180056
3.56	356	0.02	-0.994	-0.178	-23.777757	-1.8334656	-2.1772404	75.07468674	0.66463128	7.60315266
3.57	357	0.04	-0.968	-0.19	-23.204799	-3.151269	-1.3178034	74.83977396	0.67036086	7.56877518
3.58	358	0.076	-0.997	-0.179	-22.631841	-3.5523396	-1.0886202	74.61059076	0.67036086	7.52866812
3.59	359	0.088	-1.035	-0.147	-25.6112226	-7.2765666	-0.9740286	74.35275966	0.6589017	7.45418358
3.6	360	0.06	-1.05	-0.188	-26.8717302	-8.7662574	-0.4583664	74.0834694	0.64171296	7.36823988
3.61	361	0.023	-1.046	-0.207	-28.2468294	-7.3911582	-0.4010706	73.7969904	0.62452422	7.29375534
3.62	362	-0.009	-1.03	-0.223	-27.5592798	-5.9014674	-0.8021412	73.51624098	0.61306506	7.23072996
3.63	363	-0.043	-1.006	-0.251	-25.2674478	-3.8961144	-0.859437	73.25840988	0.61306506	7.1906229
3.64	364	-0.069	-0.978	-0.264	-22.2880662	-1.5469866	-0.7448454	73.03495626	0.61306506	7.16770458
3.65	365	-0.077	-0.949	-0.242	-19.3659804	0.1145916	-0.5156622	72.84015054	0.6016059	7.16770458
3.66	366	-0.076	-0.934	-0.212	-17.5325148	3.8388186	-0.859437	72.66253356	0.61879464	7.20208206
3.67	367	-0.049	-0.932	-0.233	-14.9542038	5.0993262	-1.718874	72.51356448	0.64744254	7.24218912
3.68	368	-0.026	-0.936	-0.254	-13.5791046	5.9014674	-1.718874	72.37605456	0.67609044	7.29375534
3.69	369	-0.005	-0.949	-0.251	-12.032118	6.3598338	-1.3750992	72.2500038	0.71046792	7.34532156
3.7	370	0.013	-0.957	-0.252	-10.3705398	6.1306506	-0.4010706	72.15260094	0.73338624	7.40261736
3.71	371	0.03	-0.95	-0.256	-9.453807	5.6149884	0.859437	72.05519808	0.73911582	7.45991316
3.72	372	0.036	-0.958	-0.239	-7.8495246	4.6409598	1.6042824	71.97498396	0.73338624	7.5057498
3.73	373	0.018	-0.948	-0.251	-7.161975	5.0420304	2.0626488	71.90049942	0.72765666	7.5630456
3.74	374	-0.017	-0.951	-0.248	-5.5003968	4.870143	1.9480572	71.84320362	0.72192708	7.61461182
3.75	375	-0.054	-0.95	-0.234	-5.5576926	7.3911582	0.9740286	71.79736698	0.7161975	7.68909636
3.76	376	-0.078	-0.952	-0.248	-4.8128472	10.0840608	-0.2291832	71.74580076	0.7448454	7.78076964
3.77	377	-0.096	-0.94	-0.223	-3.724227	9.8548776	-1.0313244	71.71142328	0.78495246	7.87244292
3.78	378	-0.102	-0.927	-0.241	-2.4064236	9.7975818	-1.5469866	71.68277538	0.82505952	7.95838662
3.79	379	-0.093	-0.931	-0.274	-0.5156622	9.3965112	-1.8907614	71.6770458	0.87089616	8.04433032
3.8	380	-0.076	-0.931	-0.286	0.6875496	9.9694692	-2.1772404	71.68277538	0.89954406	8.13027402
3.81	381	-0.053	-0.925	-0.282	3.3804522	10.7143146	-2.86479	71.71715286	0.95683986	8.2219473
3.82	382	-0.017	-0.939	-0.274	5.5003968	12.891555	-3.437748	71.77444866	1.02559482	8.3365389
3.83	383	0.008	-0.941	-0.255	6.0733548	13.750992	-3.8388186	71.83747404	1.10580894	8.45686008
3.84	384	0.017	-0.941	-0.257	6.7609044	14.610429	-4.1825934	71.906229	1.18602306	8.58291084
3.85	385	0.011	-0.947	-0.26	6.9900876	15.469866	-3.9534102	71.98071354	1.26623718	8.71469118
3.86	386	-0.01	-0.949	-0.242	7.7922288	14.7250206	-2.9793816	72.06092766	1.33499214	8.84647152
3.87	387	-0.039	-0.958	-0.257	8.59437	15.4125702	-1.718874	72.15260094	1.39801752	8.98971102
3.88	388	-0.059	-0.962	-0.26	9.0527364	16.1574156	-1.2605076	72.24427422	1.45531332	9.1386801
3.89	389	-0.064	-0.951	-0.245	8.9954406	16.1574156	-1.432395	72.3359475	1.51260912	9.29337876
3.9	390	-0.052	-0.936	-0.263	8.9381448	15.9282324	-2.005353	72.43335036	1.56990492	9.43661826
3.91	391	-0.034	-0.926	-0.271	9.3392154	15.1260912	-2.4637194	72.52502364	1.6329303	9.57412818
3.92	392	-0.007	-0.923	-0.274	10.886202	14.7250206	-2.9793816	72.63961524	1.70168526	9.70590852
3.93	393	0.02	-0.912	-0.276	12.6623718	14.4385416	-3.7815228	72.77139558	1.78189938	9.83195928
3.94	394	0.048	-0.899	-0.277	14.1520626	14.2093584	-4.4117766	72.91463508	1.8621135	9.95801004
3.95	395	0.061	-0.89	-0.27	14.5531332	13.5218088	-4.4690724	73.06360416	1.94232762	10.07833122
3.96	396	0.054	-0.88	-0.262	14.4385416	11.9748222	-4.0680018	73.21257324	2.01681216	10.18146366
3.97	397	0.022	-0.871	-0.249	14.1520626	10.599723	-3.7815228	73.36154232	2.07983754	10.27313694
3.98	398	-0.017	-0.866	-0.244	12.6623718	10.2559482	-4.0680018	73.48759308	2.1485925	10.35908064
3.99	399	-0.043	-0.866	-0.218	9.9121734	11.745639	-5.0420304	73.59072552	2.22880662	10.4564835
4	400	-0.052	-0.863	-0.238	8.1360036	13.8655836	-5.6722842	73.67666922	2.30902074	10.57680468
4.01	401	-0.042	-0.871	-0.254	7.8495246	16.1574156	-5.6722842	73.75688334	2.40069402	10.7143146
4.02	402	-0.029	-0.885	-0.251	7.448454	17.9908812	-5.0420304	73.83709746	2.49809688	10.87474284
4.03	403	-0.017	-0.891	-0.273	6.875496	18.7357266	-4.0680018	73.91731158	2.58404058	11.04663024
4.04	404	-0.005	-0.89	-0.276	6.9900876	19.3659804	-2.6356068	73.99179612	2.65852512	11.22424722
4.05	405	0	-0.877	-0.276	6.1879464	20.2254174	-1.0886202	74.0548215	2.71582092	11.41332336
4.06	406	-0.009	-0.852	-0.272	5.6149884	20.340009	0	74.11784688	2.76165756	11.61385866
4.07	407	-0.027	-0.836	-0.29	4.7555514	20.7983754	0.8021412	74.17514268	2.8074942	11.81439396
4.08	408	-0.044	-0.841	-0.282	4.7555514	21.6005166	0.3437748	74.23243848	2.85333084	12.02638842
4.09	409	-0.05	-0.856	-0.285	4.5263682	21.6005166	-0.1145916	74.2840047	2.91062664	12.2326533
4.1	410	-0.05	-0.885	-0.28	4.1825934	20.340009	-0.0572958	74.32984134	2.94500412	12.42745902
4.11	411	-0.047	-0.909	-0.259	3.3231564	19.194093	0.0572958	74.3699484	2.99084076	12.61080558
4.12	412	-0.042	-0.916	-0.275	2.86479	17.2460358	0.1145916	74.40432588	3.03094782	12.7769634
4.13	413	-0.03	-0.906	-0.263	2.2345362	15.2406828	-0.1145916	74.43297378	3.07105488	12.92593248
4.14	414	-0.016	-0.892	-0.261	1.6042824	13.9801752	-0.7448454	74.4558921	3.11116194	13.05771282
4.15	415	-0.003	-0.883	-0.261	0.7448454	13.2926256	-2.3491278	74.46162168	3.15699858	13.178034
4.16	416	0	-0.882	-0.258	0.2291832	13.0061466	-4.0680018	74.46735126	3.22575354	13.2926256
4.17	417	-0.013	-0.888	-0.238	-0.2291832	13.0634424	-5.8441716	74.46735126	3.31169724	13.40148762
4.18	418	-0.033	-0.893	-0.241	-0.9167328	14.2093584	-7.5057498	74.46162168	3.42055926	13.5218088
4.19	419	-0.053	-0.897	-0.255	-1.5469866	14.9542038	-9.0527364	74.45016252	3.54088044	13.64212998
4.2	420	-0.067	-0.9	-0.23	-1.8907614	15.6990492	-10.1413566	74.43870336	3.66120162	13.76245116
4.21	421	-0.074	-0.906	-0.248	-2.2345362	15.8136408	-10.1413566	74.42151462	3.79298196	13.88850192
4.22	422	-0.081	-0.9	-0.257	-2.1772404	16.9595568	-9.6829902	74.40432588	3.9247623	14.02601184
4.23	423	-0.075	-0.886	-0.257	-1.145916	18.1054728	-8.59437	74.40432588	4.05081306	14.1807105
4.24	424	-0.069	-0.87	-0.251	0.4583664	19.1367972	-8.0787078	74.41578504	4.17686382	14.34113874
4.25	425	-0.061	-0.855	-0.226	1.3750992	20.3973048	-8.4797784	74.43870336	4.29145542	14.51302614
4.26	426	-0.059	-0.845	-0.212	1.9480572	22.2307704	-9.5683986	74.47308084	4.43469492	14.70783186
4.27	427	-0.069	-0.856	-0.22	2.2345362	23.8923486	-10.9434978	74.50745832	4.60085274	14.90836716
4.28	428	-0.084	-0.879	-0.212	2.6356068	25.3820394	-12.1467096	74.54756538	4.77846972	15.12036162
4.29	429	-0.097	-0.907	-0.188	2.578311	27.788463	-13.0061466	74.58767244	4.96754586	15.3552744
4.3	430	-0.1	-0.911	-0.196	2.6929026	29.9084076	-13.5218088	74.63923866	5.15089242	15.60737592
4.31	431	-0.094	-0.902	-0.197	3.8388186	31.9710564	-14.1520626	74.69653446	5.36288688	15.87666618
4.32	432	-0.095	-0.892	-0.2	4.8128472	34.091001	-14.7823164	74.771019	5.5863405	16.16887476
4.33	433	-0.101	-0.886	-0.199	6.0733548	35.3515086	-15.3552744	74.8569627	5.8155237	16.4725425
4.34	434	-0.115	-0.876	-0.205	7.448454	35.7525792	-15.6990492	74.96009514	6.05043648	16.77621024
4.35	435	-0.128	-0.867	-0.177	8.7089616	37.4141574	-16.615782	75.08041632	6.27961968	17.09706672
4.36	436	-0.13	-0.861	-0.15	8.7662574	41.3102718	-18.5638392	75.2007375	6.55463952	17.45230068
4.37	437	-0.106	-0.856	-0.174	9.5683986	45.3209778	-20.7983754	75.33824742	6.85830726	17.84191212
4.38	438	-0.077	-0.859	-0.156	11.0580894	48.0711762	-22.4599536	75.49294608	7.17916374	18.25444188
4.39	439	-0.065	-0.864	-0.156	12.6623718	49.5035712	-23.8923486	75.67056306	7.52293854	18.6784308
4.4	440	-0.064	-0.863	-0.133	13.8082878	49.1597964	-24.923673	75.86536878	7.86098376	19.09669014
4.41	441	-0.074	-0.848	-0.117	13.2926256	45.7793442	-26.9863218	76.04871534	8.2219473	19.480572
4.42	442	-0.114	-0.815	-0.148	13.178034	44.1750618	-30.1375908	76.22633232	8.60582916	19.84153554
4.43	443	-0.16	-0.78	-0.151	14.037471	48.5868384	-33.4034514	76.42686762	9.02981808	20.23687656
4.44	444	-0.185	-0.764	-0.139	13.6936962	53.9153478	-36.096354	76.62740292	9.48818448	20.6837838
4.45	445	-0.181	-0.738	-0.125	11.745639	56.8947294	-38.1590028	76.82220864	9.96373962	21.15933894
4.46	446	-0.151	-0.731	-0.154	13.5791046	58.7854908	-39.534102	77.0342031	10.46221308	21.64635324
4.47	447	-0.151	-0.747	-0.181	16.1574156	62.165943	-41.0237928	77.28630462	10.98360486	22.1734746
4.48	448	-0.138	-0.756	-0.161	18.7357266	59.301153	-42.4561878	77.56705404	11.50499664	22.66621848
4.49	449	-0.131	-0.753	-0.148	22.2307704	53.571573	-44.2896534	77.87645136	12.03784758	23.10739614
4.5	450	-0.113	-0.747	-0.175	25.7258142	48.8733174	-45.7220484	78.21449658	12.56496894	23.50273716
4.51	451	-0.067	-0.75	-0.172	28.361421	44.5761324	-47.3263308	78.56973054	13.10354946	23.85224154
4.52	452	-0.027	-0.744	-0.154	29.793816	40.0497642	-49.1025006	78.93642366	13.65358914	24.16163886
4.53	453	-0.024	-0.726	-0.153	29.507337	33.2888598	-49.9619376	79.29165762	14.19789924	24.4080108
4.54	454	-0.063	-0.702	-0.19	28.4760126	28.5333084	-49.1597964	79.62397326	14.71929102	24.60281652
4.55	455	-0.086	-0.691	-0.189	28.8770832	21.8869956	-46.982556	79.95055932	15.20630532	24.74605602
4.56	456	-0.081	-0.687	-0.139	30.0229992	15.8136408	-44.0031744	80.2714158	15.66467172	24.83199972
4.57	457	-0.118	-0.689	-0.17	26.8717302	12.4904844	-41.252976	80.5578948	16.08866064	24.8950251
4.58	458	-0.149	-0.705	-0.187	24.4080108	12.6623718	-39.4195104	80.82718506	16.48973124	24.95805048
4.59	459	-0.164	-0.727	-0.252	20.2254174	13.9801752	-37.6433406	81.05063868	16.87934268	25.04399418
4.6	460	-0.2	-0.727	-0.259	18.9649098	14.610429	-33.804522	81.26263314	17.20592874	25.14139704
4.61	461	-0.221	-0.711	-0.229	17.761698	14.0947668	-28.7624916	81.46889802	17.50959648	25.24452948
4.62	462	-0.232	-0.683	-0.193	15.0114996	13.6936962	-23.0329116	81.65224458	17.75023884	25.3533915
4.63	463	-0.204	-0.665	-0.145	6.589017	17.7044022	-15.9855282	81.76683618	17.9335854	25.51381974
4.64	464	-0.132	-0.642	-0.129	-1.5469866	24.2934192	-8.59437	81.82413198	18.04244742	25.74873252
4.65	465	-0.067	-0.608	-0.164	-3.9534102	24.7517856	-2.5210152	81.8470503	18.08255448	26.00083404
4.66	466	-0.031	-0.59	-0.184	-4.9274388	23.777757	2.6929026	81.8756982	18.0768249	26.24720598
4.67	467	-0.004	-0.591	-0.183	-4.9274388	23.0329116	6.589017	81.89861652	18.04244742	26.4993075
4.68	468	-0.001	-0.596	-0.215	-5.6149884	22.4026578	9.3965112	81.91007568	17.97369246	26.73994986
4.69	469	-0.055	-0.614	-0.246	-4.583664	22.9756158	10.4851314	81.93872358	17.89347834	26.99205138
4.7	470	-0.124	-0.637	-0.209	-5.2139178	27.9030546	8.5370742	81.96737148	17.8189938	27.28998954
4.71	471	-0.143	-0.603	-0.221	-9.5683986	37.3568616	3.2085648	81.98456022	17.82472338	27.67960098
4.72	472	-0.125	-0.529	-0.179	-8.9954406	43.831287	0.1145916	82.02466728	17.87056002	28.1322378
4.73	473	-0.098	-0.479	-0.092	-9.7975818	53.6861646	-0.859437	82.08769266	17.93931498	28.68227748
4.74	474	-0.098	-0.391	-0.096	-10.9434978	62.452422	-0.9167328	82.1621772	18.01379952	29.32399044
4.75	475	-0.05	-0.344	-0.043	-7.448454	71.2186794	-3.0366774	82.3054167	18.11693196	30.05737668
4.76	476	-0.051	-0.261	-0.045	-9.8548776	77.8649922	-5.0993262	82.44292662	18.24298272	30.8537883
4.77	477	-0.062	-0.217	-0.086	-6.6463128	83.2507974	-7.3911582	82.63200276	18.40341096	31.70749572
4.78	478	-0.06	-0.21	-0.082	-0.572958	90.1262934	-10.886202	82.9070226	18.59821668	32.6299581
4.79	479	-0.039	-0.237	-0.128	9.5683986	99.1790298	-16.902261	83.31955236	18.85604778	33.63836418
4.8	480	-0.015	-0.231	-0.204	19.2513888	100.7260164	-23.0329116	83.8237554	19.1654451	34.663959
4.81	481	0.014	-0.207	-0.214	31.2835068	100.6114248	-27.9603504	84.47119794	19.52067906	35.68955382
4.82	482	0.043	-0.174	-0.203	40.1643558	101.127087	-30.0229992	85.21031376	19.8816426	36.7266078
4.83	483	0.106	-0.12	-0.164	48.8733174	101.5281576	-29.1635622	86.05256202	20.2254174	37.77512094
4.84	484	0.178	-0.06	-0.041	50.7640788	105.424272	-27.6738714	86.94064692	20.5405443	38.8752003
4.85	485	0.215	0.049	0.072	55.6915176	109.2057948	-23.5485738	87.89748678	20.80410498	40.02684588
4.86	486	0.151	0.152	0.206	63.1972674	108.7474284	-18.1054728	88.94027034	20.98745154	41.17849146
4.87	487	0.022	0.248	-0.076	67.6663398	103.4762148	-19.5951636	90.00597222	21.1707981	42.2843004
4.88	488	0.037	0.434	-0.05	73.911582	121.1233212	-55.9207008	91.2149136	21.6864603	43.58491506
4.89	489	0.655	-0.118	-0.346	93.5067456	154.2975894	-89.4960396	92.77908894	22.4886015	45.27514116
4.9	490	1.327	-1.014	-0.083	141.8644008	207.2962044	-93.6213372	95.08810968	23.22771732	47.57843232
4.91	491	1.326	-2.077	0.281	172.5176538	216.4635324	-93.8505204	97.78674186	23.86943028	50.03069256
4.92	492	1.167	-3.18	0.342	199.7904546	206.3794716	-92.0170548	100.7603939	24.39655164	52.41992742
4.93	493	1.337	-2.843	0.587	177.5023884	198.4153554	-86.230179	103.4991331	24.7804335	54.74040732
4.94	494	2.037	-1.88	0.848	193.1441418	194.1181704	-91.100322	106.4097598	25.11847872	57.05515764
4.95	495	3.205	-2.65	1.532	294.213933	183.5184474	-107.0285544	110.3517108	25.51954932	59.36417838
4.96	496	3.861	-3.514	2.394	276.5668266	146.8491354	-138.655836	114.0530195	26.2128285	61.46693424
4.97	497	3.332	-2.67	2.335	193.3160292	85.3134462	-199.102905	116.8318658	27.6165756	63.30039984
4.98	498	2.73	-1.566	1.796	134.9889048	15.4125702	-229.1259042	118.8601371	29.55317364	64.69268778
4.99	499	1.666	-0.606	1.408	98.548776	-18.7930224	-248.2054056	120.498797	31.78770984	65.9474658
5	500	1.162	-0.454	1.557	190.3939434	-43.0291458	-228.323763	122.9911643	33.95349108	66.9787902
5.01	501	1.374	-0.993	0.938	210.3901776	-81.8756982	-208.4994162	125.5179091	36.13646106	67.64342148
5.02	502	0.68	-1.006	1.047	176.184585	-68.9268474	-202.8844278	127.838389	38.16473238	68.52004722
5.03	503	0.559	-0.235	0.805	169.2517932	-67.2079734	-253.3047318	130.4797253	40.54250808	69.96390138
5.04	504	0.868	-0.123	0.925	188.3312946	-39.9351726	-283.8433932	133.854448	42.89736546	72.15833052
5.05	505	0.514	0.004	0.665	158.5374786	-41.3675676	-260.0656362	136.9999874	45.00012132	74.36421882
5.06	506	0.951	-0.131	0.922	174.0073446	-19.3086846	-217.6667442	140.3346029	46.56429666	76.55864796
5.07	507	1.017	-0.48	1.075	170.8560756	-12.4904844	-176.7002472	143.5030607	47.73886056	78.51816432
5.08	508	1.055	-0.195	1.182	160.714719	-6.3598338	-158.709366	146.568386	48.68424126	80.43757362
5.09	509	1.127	0.436	1.213	205.4627388	-10.7143146	-155.7872802	150.1436439	49.57232616	82.40854914
5.1	510	0.694	-0.43	0.556	190.6804224	-41.5967508	-132.5251854	153.2777242	50.54635476	83.9669949
5.11	511	0.769	-0.058	0.917	148.7971926	-63.8275212	-123.2432658	155.8674943	51.63497496	85.35355326
5.12	512	0.681	-0.467	0.79	126.1653516	-62.8534926	-109.8360486	158.1765151	52.63192188	86.64843834
5.13	513	0.671	-0.47	0.968	143.9270496	-61.020027	-98.835255	160.6287753	53.53146594	87.88029804
5.14	514	0.881	-0.363	0.864	131.5511568	-63.884817	-103.0751442	163.0867651	54.44246916	89.25539724
5.15	515	0.815	-0.089	0.824	104.1637644	-62.3951262	-113.159205	165.4874591	55.33055406	90.89405712
5.16	516	0.923	-0.021	0.773	111.6695142	-67.895523	-114.5916	168.0772293	56.2358277	92.6473086
5.17	517	0.8	0.242	0.84	108.3463578	-71.9635248	-112.0705848	170.7013769	57.12964218	94.45785588
5.18	518	1.019	0.446	0.545	118.5450102	-81.4746276	-108.002583	173.4630345	58.06356372	96.29705106
5.19	519	1.244	0.399	0.75	95.683986	-86.7458412	-101.5281576	176.0126976	58.99748526	98.13051666
5.2	520	1.159	0.445	0.972	105.0232014	-78.3233586	-96.829902	178.7056002	59.79962646	100.0155485
5.21	521	1.219	0.467	0.832	122.326533	-75.916935	-91.1576178	-178.4019325	60.5330127	101.9005803
5.22	522	1.305	0.137	0.854	120.1492926	-80.4433032	-79.4119788	-175.6288157	61.26639894	103.6652909
5.23	523	1.153	0.117	0.687	56.9520252	-61.0773228	-69.4998054	-173.6349219	61.7935203	105.2695733
5.24	524	1.503	0.535	1.045	24.5226024	-37.528749	-69.7862844	-171.9848029	62.06854014	106.856667
5.25	525	1.053	-0.581	1.218	-0.7448454	-21.8869956	-65.7755784	-170.7071065	62.18313174	108.3119803
5.26	526	1.168	0.455	0.128	-94.7672532	-13.2926256	-64.6296624	-170.4320867	62.21750922	109.7099978
5.27	527	1.023	-0.067	0.512	-22.631841	-14.4385416	-53.7434604	-169.6070272	62.26334586	110.8960209
5.28	528	1.015	0.146	0.399	-57.4676874	-24.9809688	-46.9252602	-169.2231453	62.42950368	111.9903707
5.29	529	0.949	0.309	0.502	-33.8618178	-31.0543236	-36.3255372	-168.7533197	62.65868688	112.8956443
5.3	530	0.911	0.205	0.448	-20.1108258	-35.8671708	-23.0902074	-168.34079	62.96235462	113.5831939
5.31	531	0.92	0.237	0.386	-24.6944898	-36.7266078	-8.021412	-168.272035	63.30612942	113.9326983
5.32	532	0.872	0.296	0.3	-15.4125702	-44.7480198	6.7609044	-168.3522491	63.75303666	114.0129124
5.33	533	0.793	0.359	0.304	0.1718874	-50.706783	17.8762896	-168.4668407	64.27442844	113.8754025
5.34	534	0.751	0.453	0.288	8.6516658	-54.0299394	21.772404	-168.5642436	64.83592728	113.663408
5.35	535	0.72	0.412	0.259	21.3140376	-53.6861646	23.1475032	-168.518407	65.39742612	113.4571432
5.36	536	0.682	0.351	0.236	27.501984	-51.6808116	25.3820394	-168.518407	65.9474658	113.1420163
5.37	537	0.686	0.303	0.223	31.0543236	-50.420304	27.501984	-168.5470549	66.48031674	112.763864
5.38	538	0.713	0.211	0.227	35.0077338	-49.847346	33.4607472	-168.6788352	67.02462684	112.2195539
5.39	539	0.729	0.144	0.299	35.236917	-47.6701056	39.1903272	-168.9710438	67.55747778	111.509086
5.4	540	0.737	0.096	0.323	31.2835068	-46.2377106	44.0031744	-169.4523285	68.07886956	110.6381898
5.41	541	0.778	0.041	0.339	25.210152	-47.3836266	46.7533728	-170.0940415	68.61745008	109.6641612
5.42	542	0.845	0.027	0.361	17.1314442	-47.0398518	47.6701056	-170.8847235	69.1560306	108.6213776
5.43	543	0.898	0.066	0.326	4.9847346	-45.3209778	47.841993	-171.8644817	69.66596322	107.5098391
5.44	544	0.915	0.057	0.325	3.3231564	-43.544808	49.1025006	-172.9588315	70.1587071	106.3066273
5.45	545	0.918	0.034	0.356	0.286479	-40.9092012	51.1078536	-174.2078799	70.6170735	104.9716352
5.46	546	0.904	0.017	0.329	-3.5523396	-40.9092012	52.8267276	-175.6058974	71.06398074	103.5220514
5.47	547	0.906	0.013	0.324	-8.9954406	-39.8778768	50.993262	-177.0783995	71.49369924	102.055279
5.48	548	0.932	-0.027	0.268	-6.9327918	-38.6173692	47.2117392	-178.4878762	71.89476984	100.6400727
5.49	549	0.938	-0.088	0.286	-7.448454	-35.4088044	43.0864416	-179.840057	72.2500038	99.2936214
5.5	550	0.959	-0.066	0.326	-9.9121734	-31.6272816	37.24227	178.9004059	72.5651307	98.07895044
5.51	551	0.974	-0.058	0.367	-13.2353298	-29.220858	32.4867186	177.725842	72.84588012	96.99033024
5.52	552	0.992	-0.039	0.364	-17.0741484	-30.3094782	30.7678446	176.5340894	73.13235912	95.91889878
5.53	553	1.003	-0.028	0.332	-18.3919518	-32.2002396	28.4760126	175.3595255	73.43602686	94.8818448
5.54	554	1.016	-0.07	0.302	-18.048177	-33.9191136	26.8144344	174.2021503	73.74542418	93.86197956
5.55	555	1.029	-0.105	0.298	-19.767051	-34.0337052	24.4080108	173.0505047	74.06055108	92.87076222
5.56	556	1.019	-0.118	0.319	-21.8296998	-33.0023808	19.8243468	172.0191803	74.35848924	92.0170548
5.57	557	0.999	-0.159	0.333	-20.05353	-31.6272816	16.5584862	171.0909884	74.65069782	91.26075024
5.58	558	1.007	-0.134	0.342	-24.4080108	-28.8770832	10.6570188	170.3117655	74.91998808	90.70498098
5.59	559	0.995	-0.113	0.291	-27.6738714	-26.069589	3.8388186	169.7388075	75.1720896	90.40131324
5.6	560	0.956	-0.131	0.261	-25.6685184	-27.1009134	0.2291832	169.2747115	75.43565028	90.18931878
5.61	561	0.946	-0.132	0.265	-26.2414764	-27.4446882	-2.4637194	168.9252071	75.71067012	90.0976455
5.62	562	0.936	-0.129	0.263	-25.5539268	-26.929026	-4.0680018	168.6387281	75.97996038	90.0689976
5.63	563	0.925	-0.11	0.257	-25.6112226	-25.1528562	-5.7868758	168.4267337	76.24352106	90.12056382
5.64	564	0.923	-0.095	0.242	-26.5852512	-23.1475032	-7.9641162	168.3064125	76.48416342	90.26380332
5.65	565	0.92	-0.106	0.231	-24.4653066	-21.8869956	-8.880849	168.2261984	76.7190762	90.4414203
5.66	566	0.904	-0.102	0.223	-25.0955604	-20.7983754	-9.9694692	168.2261984	76.94252982	90.6992514
5.67	567	0.87	-0.087	0.196	-24.5798982	-19.2513888	-11.3445684	168.3006829	77.15452428	91.03156704
5.68	568	0.872	-0.078	0.193	-25.0955604	-16.9595568	-12.7196676	168.4553816	77.34933	91.4440968
5.69	569	0.863	-0.067	0.173	-25.1528562	-13.9228794	-13.464513	168.6731056	77.50975824	91.9311111
5.7	570	0.871	-0.047	0.13	-24.1788276	-10.9434978	-14.4385416	168.9767734	77.65872732	92.48688036
5.71	571	0.88	-0.031	0.131	-19.7097552	-8.59437	-15.3552744	169.3950327	77.77331892	93.12286374
5.72	572	0.902	-0.024	0.15	-15.183387	-6.4744254	-17.0168526	169.9622611	77.8649922	93.85624998
5.73	573	0.922	-0.029	0.153	-11.172681	-5.443101	-18.2200644	170.6383516	77.9509359	94.66985034
5.74	574	0.936	-0.043	0.159	-7.9641162	-5.443101	-18.5065434	171.3774674	78.0368796	95.50636902
5.75	575	0.95	-0.052	0.174	-5.3285094	-5.443101	-18.8503182	172.1566903	78.1228233	96.35434686
5.76	576	0.965	-0.051	0.187	-3.724227	-4.9847346	-19.4232762	173.0046681	78.19730784	97.26535008
5.77	577	0.971	-0.049	0.191	-2.2345362	-4.870143	-20.5691922	173.9385896	78.2660628	98.23937868
5.78	578	0.972	-0.036	0.207	-0.859437	-4.870143	-22.058883	174.9641845	78.33481776	99.29935098
5.79	579	0.98	-0.016	0.214	0.5156622	-4.7555514	-23.4339822	176.0871821	78.39784314	100.4395374
5.8	580	0.987	-0.005	0.209	1.145916	-4.5263682	-24.4080108	177.2961235	78.46086852	101.6599379
5.81	581	1.006	0.009	0.21	0.572958	-4.010706	-24.5798982	178.4993353	78.50670516	102.8803385
5.82	582	1.023	0.027	0.239	0.572958	-2.7501984	-23.3193906	179.6509809	78.53535306	104.0491728
5.83	583	1.034	0.036	0.266	-0.6875496	-0.5156622	-21.0275586	-179.3186653	78.54108264	105.1034155
5.84	584	1.037	0.047	0.25	-2.005353	-0.5156622	-18.4492476	-178.4363099	78.54108264	106.0258779
5.85	585	1.031	0.053	0.227	-2.005353	-2.1199446	-15.5271618	-177.6055208	78.55827138	106.8910445
5.86	586	1.019	0.052	0.205	-1.0313244	-4.010706	-12.6623718	-176.9809966	78.59264886	107.538487
5.87	587	0.999	0.051	0.19	0.572958	-4.9847346	-10.1413566	-176.4481457	78.63275592	108.071338
5.88	588	0.983	0.055	0.187	2.8074942	-4.4117766	-8.1932994	-175.9955089	78.67286298	108.506786
5.89	589	0.976	0.054	0.193	4.5263682	-2.8074942	-6.589017	-175.6058974	78.6957813	108.8562904
5.9	590	0.979	0.057	0.197	5.443101	-1.0886202	-4.8128472	-175.1532606	78.70151088	109.257361
5.91	591	0.986	0.054	0.203	6.7609044	1.145916	-2.5210152	-174.9584549	78.69005172	109.3834118
5.92	592	0.988	0.052	0.21	6.9900876	2.1772404	-0.5156622	-174.8725112	78.6671334	109.4006005
5.93	593	0.986	0.05	0.216	7.0473834	2.5210152	1.432395	-174.8839703	78.6384855	109.3146568
5.94	594	0.987	0.047	0.215	6.9900876	2.3491278	3.2658606	-174.9871028	78.62129676	109.1370398
5.95	595	0.981	0.042	0.217	7.0473834	2.0626488	4.6982556	-175.0845056	78.59837844	108.9594229
5.96	596	0.977	0.035	0.219	7.0473834	1.8907614	5.7868758	-175.3022297	78.5811897	108.6614847
5.97	597	0.974	0.028	0.219	7.1046792	1.432395	6.3598338	-175.5486016	78.56973054	108.3406282
5.98	598	0.971	0.021	0.217	7.1046792	0.8021412	6.8182002	-175.8121623	78.56973054	107.9968534
5.99	599	0.97	0.016	0.214	6.875496	0.6875496	7.2765666	-176.1043709	78.56400096	107.6301603
6	600	0.971	0.012	0.208	6.4171296	0.6302538	7.5630456	-176.3851203	78.56400096	107.2749263
6.01	601	0.971	0.008	0.203	6.589017	0.0572958	7.7922288	-176.7002472	78.56973054	106.8853149
6.02	602	0.975	0.003	0.209	6.589017	-0.3437748	7.734933	-177.0096445	78.57546012	106.501433
6.03	603	0.983	-0.001	0.213	5.9587632	-0.6875496	7.5630456	-177.3190418	78.58691928	106.1232808
6.04	604	0.99	-0.006	0.217	5.2712136	-0.572958	6.9327918	-177.5997913	78.59264886	105.779506
6.05	605	0.995	-0.007	0.221	4.5263682	-0.1718874	6.1879464	-177.8748111	78.59264886	105.4529199
6.06	606	0.999	-0.01	0.228	3.6096354	0.5156622	5.3285094	-178.0982647	78.58691928	105.1893592
6.07	607	0.998	-0.007	0.229	2.5210152	1.432395	4.583664	-178.3045296	78.57546012	104.9544464
6.08	608	0.994	-0.007	0.229	1.8334656	1.718874	3.9534102	-178.4821466	78.55827138	104.7481816
6.09	609	0.99	-0.009	0.227	1.145916	1.9480572	3.4950438	-178.6483044	78.54108264	104.5705646
6.1	610	0.987	-0.01	0.228	0.6302538	2.2345362	2.86479	-178.8087326	78.50097558	104.3986772
6.11	611	0.986	-0.01	0.23	0.1718874	2.7501984	2.3491278	-178.9290538	78.47232768	104.2726264
6.12	612	0.985	-0.009	0.23	0	3.3231564	1.5469866	-179.0149975	78.4379502	104.1866827
6.13	613	0.986	-0.011	0.23	-0.572958	4.010706	0.9740286	-179.0780229	78.39784314	104.1293869
6.14	614	0.983	-0.01	0.229	-1.0886202	4.1252976	0.286479	-179.1124004	78.35773608	104.1064686
6.15	615	0.981	-0.01	0.231	-1.6042824	3.9534102	-0.4010706	-179.1353187	78.30044028	104.1064686
6.16	616	0.978	-0.01	0.231	-2.291832	4.1825934	-1.145916	-179.1124004	78.26033322	104.1523052
6.17	617	0.976	-0.008	0.229	-2.86479	4.297185	-1.9480572	-179.0551046	78.22022616	104.2382489
6.18	618	0.972	-0.007	0.228	-3.151269	4.6982556	-2.6929026	-178.9691609	78.16865994	104.3585701
6.19	619	0.973	-0.003	0.228	-3.151269	5.2712136	-3.3231564	-178.8602989	78.11709372	104.5075392
6.2	620	0.976	0	0.23	-2.7501984	5.7868758	-3.8388186	-178.6998706	78.05406834	104.6966153
6.21	621	0.978	0.002	0.232	-2.5210152	6.016059	-3.9534102	-178.5566311	77.99104296	104.8685027
6.22	622	0.979	0	0.23	-2.1772404	5.6149884	-3.8961144	-178.4133916	77.93374716	105.0403901
6.23	623	0.977	0.001	0.232	-2.005353	5.3285094	-3.8388186	-178.2701521	77.88218094	105.206548
6.24	624	0.981	0	0.234	-1.8334656	5.2139178	-3.8388186	-178.1269126	77.83061472	105.3784354
6.25	625	0.984	0.002	0.234	-1.4896908	5.2139178	-3.9534102	-177.9607548	77.76758934	105.5675115
6.26	626	0.985	0.004	0.233	-1.3178034	5.2139178	-4.0680018	-177.8060561	77.71602312	105.7393989
6.27	627	0.989	0.006	0.232	-0.9740286	4.9847346	-4.010706	-177.6456279	77.6644569	105.9112863
6.28	628	0.991	0.008	0.236	-0.6875496	4.870143	-4.010706	-177.4851997	77.61289068	106.0831737
6.29	629	0.993	0.01	0.242	-0.859437	4.9274388	-3.8961144	-177.3362306	77.56705404	106.2493315
6.3	630	0.994	0.014	0.244	-1.0313244	4.6409598	-3.6096354	-177.152884	77.50402866	106.4441372
6.31	631	0.991	0.015	0.245	-1.3178034	4.3544808	-3.2085648	-177.0382924	77.4639216	106.5759176
6.32	632	0.989	0.017	0.245	-1.6042824	4.1252976	-2.8074942	-176.9466191	77.41808496	106.6905092
6.33	633	0.987	0.016	0.244	-1.6615782	3.6096354	-2.4637194	-176.866405	77.38370748	106.787912
6.34	634	0.983	0.014	0.243	-1.718874	3.3804522	-2.005353	-176.8091092	77.34933	106.8681262
6.35	635	0.98	0.014	0.245	-1.6042824	3.2658606	-1.8334656	-176.7117064	77.29776378	106.9827178
6.36	636	0.98	0.015	0.245	-1.4896908	3.151269	-1.6042824	-176.6658697	77.26911588	107.0400136
6.37	637	0.982	0.014	0.243	-1.2032118	3.0939732	-1.432395	-176.6257627	77.2347384	107.0973094
6.38	638	0.982	0.015	0.244	-0.9167328	2.9793816	-1.0313244	-176.6028443	77.2060905	107.1316868
6.39	639	0.984	0.018	0.242	-0.5156622	2.9793816	-0.5156622	-176.5971148	77.1774426	107.143146
6.4	640	0.981	0.017	0.242	-0.3437748	3.0366774	-0.0572958	-176.5169006	77.13160596	107.2233601
6.41	641	0.982	0.015	0.247	-0.286479	3.0366774	0.3437748	-176.5512781	77.09722848	107.1947122
6.42	642	0.982	0.014	0.248	-0.3437748	2.7501984	0.6302538	-176.5913852	77.07431016	107.1546052
6.43	643	0.982	0.014	0.245	-0.2291832	2.2345362	0.9740286	-176.6429514	77.05139184	107.1030389
6.44	644	0.981	0.011	0.245	0	1.7761698	1.2605076	-176.7059768	77.0342031	107.0400136
6.45	645	0.98	0.01	0.249	-0.0572958	1.7761698	1.432395	-176.7346247	76.98836646	107.0113657
6.46	646	0.98	0.009	0.255	-0.1145916	2.0626488	1.3750992	-176.8033796	76.97117772	106.9426107
6.47	647	0.981	0.01	0.254	-0.2291832	2.3491278	1.3750992	-176.8778642	76.9482594	106.8681262
6.48	648	0.981	0.007	0.249	0	2.291832	1.3178034	-176.9408896	76.92534108	106.8051008
6.49	649	0.982	0.009	0.251	0.0572958	2.3491278	1.2605076	-177.0039149	76.90242276	106.7363458
6.5	650	0.982	0.007	0.252	0.1145916	2.291832	1.2605076	-177.0382924	76.8623157	106.7019683
6.51	651	0.981	0.006	0.251	0	1.8907614	1.2605076	-177.1013178	76.84512696	106.638943
6.52	652	0.978	0.005	0.25	0	1.5469866	1.3178034	-177.1643432	76.82793822	106.5759176
6.53	653	0.978	0.005	0.249	-0.1718874	1.3750992	1.2605076	-177.2273686	76.81647906	106.5128922
6.54	654	0.978	0.002	0.249	-0.286479	0.9740286	0.9740286	-177.2732052	76.8050199	106.4670556
6.55	655	0.978	0.002	0.247	-0.1718874	0.8021412	0.6302538	-177.2674756	76.77064242	106.4727851
6.56	656	0.979	0.003	0.248	0	0.5156622	0.1718874	-177.2789348	76.76491284	106.461326
6.57	657	0.978	0.004	0.247	0.1718874	0.572958	0	-177.2789348	76.75918326	106.4555964
6.58	658	0.979	0.005	0.249	0.4010706	0.572958	-0.0572958	-177.2732052	76.75345368	106.461326
6.59	659	0.98	0.005	0.251	0.5156622	0.572958	-0.1145916	-177.261746	76.7477241	106.4670556
6.6	660	0.98	0.006	0.252	0.572958	0.4583664	-0.1718874	-177.1242361	76.6904283	106.5988359
6.61	661	0.98	0.006	0.253	0.4583664	0.4010706	-0.1145916	-177.112777	76.6904283	106.6045655
6.62	662	0.978	0.006	0.252	0.2291832	0.6302538	-0.2291832	-177.1013178	76.67896914	106.6102951
6.63	663	0.978	0.006	0.252	0.1145916	0.4010706	-0.286479	-177.0898586	76.67896914	106.6217542
6.64	664	0.977	0.005	0.251	-0.1145916	0.2291832	-0.4583664	-177.0669403	76.67323956	106.6446725
6.65	665	0.977	0.005	0.249	-0.1145916	0.1145916	-0.6302538	-176.9466191	76.63886208	106.7649937
6.66	666	0.978	0.007	0.249	-0.1718874	0	-0.8021412	-176.9122417	76.63886208	106.7993712
6.67	667	0.978	0.007	0.248	-0.2291832	0.2291832	-0.859437	-176.8835938	76.63886208	106.8394783
6.68	668	0.977	0.009	0.247	-0.1718874	0.4010706	-0.859437	-176.8492163	76.6331325	106.8738557
6.69	669	0.978	0.009	0.247	-0.286479	0.8021412	-0.6302538	-176.826298	76.62167334	106.8967741
6.7	670	0.977	0.009	0.248	-0.2291832	1.0886202	-0.5156622	-176.7460838	76.59875502	106.9827178
6.71	671	0.977	0.008	0.247	-0.286479	1.2605076	-0.4010706	-176.7346247	76.58729586	106.9941769
6.72	672	0.977	0.007	0.246	-0.2291832	1.145916	-0.286479	-176.7288951	76.5758367	107.0056361
6.73	673	0.975	0.007	0.248	-0.2291832	1.145916	-0.3437748	-176.7231655	76.56437754	107.0170952
6.74	674	0.977	0.007	0.249	-0.1718874	1.145916	-0.286479	-176.7117064	76.55291838	107.0285544
6.75	675	0.976	0.007	0.248	-0.2291832	1.145916	-0.286479	-176.648681	76.52427048	107.0915798
6.76	676	0.976	0.008	0.249	-0.1145916	1.3750992	-0.286479	-176.6429514	76.51281132	107.0973094
6.77	677	0.977	0.008	0.251	-0.1145916	1.6042824	-0.2291832	-176.6372218	76.49562258	107.1087685
6.78	678	0.977	0.009	0.251	-0.0572958	1.718874	-0.2291832	-176.6314922	76.47843384	107.1087685
6.79	679	0.978	0.009	0.25	0	1.6615782	-0.1718874	-176.6314922	76.4612451	107.1144981
6.8	680	0.979	0.008	0.254	0	1.6615782	-0.1718874	-176.5856556	76.42113804	107.1603347
6.81	681	0.979	0.008	0.254	0.0572958	1.5469866	-0.1718874	-176.579926	76.4039493	107.1603347
6.82	682	0.98	0.007	0.256	-0.0572958	1.5469866	-0.286479	-176.5741964	76.38676056	107.1717939
6.83	683	0.978	0.008	0.256	-0.1145916	1.4896908	-0.286479	-176.5684669	76.3753014	107.1775235
6.84	684	0.979	0.008	0.256	-0.286479	1.432395	-0.3437748	-176.5627373	76.35811266	107.1889826
6.85	685	0.978	0.008	0.256	-0.4010706	1.2605076	-0.4010706	-176.4882527	76.32946476	107.2634672
6.86	686	0.978	0.009	0.256	-0.2291832	1.2605076	-0.4010706	-176.4767936	76.31227602	107.2806559
6.87	687	0.978	0.008	0.255	-0.0572958	1.2605076	-0.3437748	-176.471064	76.30081686	107.2863855
6.88	688	0.978	0.009	0.256	0	1.2032118	-0.3437748	-176.4596048	76.2893577	107.2978447
6.89	689	0.979	0.008	0.256	0	1.2605076	-0.2291832	-176.4538753	76.27789854	107.3035742
6.9	690	0.979	0.008	0.255	0	1.2605076	-0.2291832	-176.3908499	76.2320619	107.3665996
6.91	691	0.978	0.008	0.258	-0.2291832	1.3750992	-0.2291832	-176.3851203	76.21487316	107.3723292
6.92	692	0.977	0.009	0.258	-0.1718874	1.3178034	-0.2291832	-176.3851203	76.203414	107.3780588
6.93	693	0.977	0.01	0.258	-0.1718874	1.3178034	-0.1145916	-176.3851203	76.19195484	107.3780588
6.94	694	0.976	0.011	0.257	-0.2291832	1.2032118	-0.1718874	-176.3851203	76.18049568	107.3837884
6.95	695	0.976	0.009	0.257	-0.1145916	1.0886202	-0.0572958	-176.3392837	76.1461182	107.4238954
6.96	696	0.976	0.009	0.256	0.0572958	1.0886202	-0.0572958	-176.3450132	76.13465904	107.4238954
6.97	697	0.976	0.008	0.258	0	1.0886202	-0.1145916	-176.3392837	76.12319988	107.4238954
6.98	698	0.976	0.009	0.259	0	1.145916	-0.1145916	-176.3392837	76.11174072	107.429625
6.99	699	0.976	0.008	0.258	0	0.9167328	-0.0572958	-176.3392837	76.10028156	107.429625
7	700	0.976	0.008	0.262	0.0572958	0.8021412	-0.0572958	-176.2647991	76.03725618	107.49838
7.01	701	0.977	0.007	0.259	0.0572958	0.859437	0	-176.2705287	76.0315266	107.4926504
7.02	702	0.977	0.007	0.255	0.1145916	0.859437	0	-176.2705287	76.02006744	107.4869208
7.03	703	0.979	0.007	0.258	0	0.859437	-0.0572958	-176.2705287	76.00860828	107.4926504
7.04	704	0.979	0.007	0.261	0	0.859437	-0.1718874	-176.2647991	76.0028787	107.4926504
7.05	705	0.979	0.008	0.26	0.0572958	0.7448454	-0.286479	-176.2075033	75.97996038	107.5499462
7.06	706	0.977	0.008	0.257	0.1718874	0	-0.1718874	-176.1960442	75.97996038	107.5614053
7.07	707	0.977	0.008	0.257	0.0572958	-0.572958	0	-176.1960442	75.98568996	107.5614053
7.08	708	0.975	0.01	0.26	-0.1145916	-0.4010706	0.0572958	-176.1960442	75.99141954	107.5614053
7.09	709	0.974	0.011	0.264	-0.3437748	-0.3437748	0.0572958	-176.2017737	75.99141954	107.5614053
7.1	710	0.974	0.01	0.26	-0.286479	-0.286479	0.1718874	-176.1272892	75.96277164	107.6358899
7.11	711	0.975	0.008	0.258	0	-0.7448454	0.1145916	-176.1330188	75.9742308	107.6301603
7.12	712	0.976	0.008	0.261	0	-0.7448454	0.0572958	-176.1330188	75.97996038	107.6301603
7.13	713	0.976	0.008	0.261	0	-0.6875496	0	-176.1272892	75.98568996	107.6301603
7.14	714	0.976	0.008	0.261	0.2291832	-0.6875496	0	-176.1272892	75.99141954	107.6358899
7.15	715	0.975	0.009	0.26	0.2291832	-0.6302538	0	-176.0699934	75.96850122	107.6874561
7.16	716	0.974	0.009	0.261	0.1718874	-0.572958	0	-176.0642638	75.9742308	107.6874561
7.17	717	0.974	0.008	0.261	0.1718874	-0.3437748	0	-176.0642638	75.9742308	107.6874561
7.18	718	0.975	0.01	0.262	0.2291832	-0.286479	0	-176.0585342	75.97996038	107.6874561
7.19	719	0.976	0.008	0.263	0.286479	-0.2291832	0	-176.0528047	75.97996038	107.6874561
7.2	720	0.977	0.008	0.26	0.3437748	-0.4583664	0	-175.9840497	75.95131248	107.7562111
7.21	721	0.977	0.009	0.26	0.4583664	-0.5156622	0	-175.9783201	75.95704206	107.7562111
7.22	722	0.98	0.008	0.261	0.4583664	-0.7448454	0	-175.966861	75.96850122	107.7619406
7.23	723	0.98	0.01	0.263	0.3437748	-0.9167328	0	-175.9554018	75.9742308	107.7676702
7.24	724	0.981	0.01	0.263	0.286479	-1.0313244	0.0572958	-175.9554018	75.98568996	107.7676702
7.25	725	0.981	0.009	0.265	0.2291832	-1.145916	0.1718874	-175.9382131	75.9742308	107.7791294
7.26	726	0.981	0.008	0.262	0.0572958	-1.2605076	0.2291832	-175.9439426	75.98568996	107.7733998
7.27	727	0.98	0.009	0.262	-0.1145916	-0.9740286	0.1718874	-175.9496722	75.99714912	107.7676702
7.28	728	0.977	0.008	0.262	-0.1718874	-1.145916	0.1718874	-175.9554018	76.00860828	107.7676702
7.29	729	0.975	0.008	0.26	-0.286479	-1.2032118	0.1718874	-175.9611314	76.02006744	107.7619406
7.3	730	0.972	0.008	0.257	-0.2291832	-1.2605076	0.0572958	-175.9382131	76.02006744	107.784859
7.31	731	0.973	0.009	0.257	-0.1145916	-1.0886202	0.1145916	-175.9439426	76.0315266	107.784859
7.32	732	0.972	0.009	0.258	-0.0572958	-1.0313244	0.0572958	-175.9439426	76.04298576	107.784859
7.33	733	0.973	0.01	0.258	0	-0.9740286	0.0572958	-175.9382131	76.05444492	107.784859
7.34	734	0.974	0.009	0.258	0.0572958	-0.859437	0.1145916	-175.9382131	76.0601745	107.784859
7.35	735	0.974	0.009	0.26	0.0572958	-0.859437	0.1718874	-175.9210243	76.03725618	107.8020477
7.36	736	0.975	0.009	0.262	0.0572958	-0.859437	0.2291832	-175.9267539	76.04871534	107.7963181
7.37	737	0.975	0.009	0.263	0	-0.9167328	0.2291832	-175.9324835	76.0601745	107.7905885
7.38	738	0.976	0.008	0.263	0	-1.0313244	0.2291832	-175.9382131	76.06590408	107.784859
7.39	739	0.975	0.008	0.26	0	-1.0886202	0.1718874	-175.9382131	76.07736324	107.7791294
7.4	740	0.974	0.008	0.26	0	-1.0313244	0.1145916	-175.9095652	76.07163366	107.8135069
7.41	741	0.976	0.008	0.259	0.1145916	-1.0886202	0.1145916	-175.9038356	76.08309282	107.8135069
7.42	742	0.976	0.007	0.261	0.1145916	-0.9167328	0	-175.898106	76.0888224	107.8192364
7.43	743	0.977	0.009	0.261	0	-0.859437	0	-175.898106	76.10028156	107.8192364
7.44	744	0.977	0.008	0.261	0	-0.859437	0	-175.8923764	76.10601114	107.824966
7.45	745	0.976	0.009	0.26	-0.0572958	-0.7448454	0	-175.8408102	76.07163366	107.8765322
7.46	746	0.977	0.009	0.261	0	-0.6875496	0	-175.8350806	76.08309282	107.8765322
7.47	747	0.975	0.008	0.261	0	-0.859437	-0.0572958	-175.829351	76.0888224	107.8879914
7.48	748	0.975	0.008	0.26	0	-0.9740286	-0.1145916	-175.8178919	76.10028156	107.8994506
7.49	749	0.974	0.008	0.259	0	-1.2032118	-0.1718874	-175.8064327	76.11174072	107.9109097
7.5	750	0.975	0.008	0.26	0	-1.3178034	-0.3437748	-175.7777848	76.10601114	107.9395576
7.51	751	0.976	0.007	0.261	0.0572958	-1.2032118	-0.4583664	-175.7548665	76.12319988	107.9624759
7.52	752	0.975	0.007	0.262	-0.0572958	-1.0313244	-0.6302538	-175.7262186	76.12892946	107.9968534
7.53	753	0.975	0.007	0.261	-0.2291832	-0.9740286	-0.7448454	-175.6918411	76.14038862	108.0312309
7.54	754	0.974	0.008	0.262	-0.286479	-0.859437	-0.859437	-175.6517341	76.1461182	108.071338
7.55	755	0.975	0.01	0.261	-0.3437748	0.1718874	-0.9167328	-175.6001678	76.12319988	108.1286338
7.56	756	0.975	0.011	0.258	-0.3437748	0.286479	-0.859437	-175.5715199	76.12319988	108.1630112
7.57	757	0.975	0.013	0.259	-0.1145916	0.0572958	-0.8021412	-175.542872	76.1174703	108.1973887
7.58	758	0.979	0.01	0.261	0.0572958	0	-0.7448454	-175.5084946	76.1174703	108.2260366
7.59	759	0.979	0.01	0.264	0	-0.1145916	-0.8021412	-175.4741171	76.12319988	108.2604141
7.6	760	0.979	0.01	0.265	-0.1145916	-0.1718874	-0.859437	-175.4511988	76.0888224	108.2947916
7.61	761	0.979	0.009	0.262	-0.286479	-0.286479	-0.9167328	-175.4110917	76.0888224	108.3348986
7.62	762	0.979	0.009	0.26	-0.286479	-0.4583664	-0.9740286	-175.3767142	76.09455198	108.3750057
7.63	763	0.977	0.011	0.258	-0.2291832	-0.4010706	-0.859437	-175.3423367	76.10028156	108.4151128
7.64	764	0.975	0.012	0.251	0	-0.4010706	-0.8021412	-175.3079593	76.10028156	108.4494902
7.65	765	0.976	0.013	0.253	0.1718874	-0.286479	-0.7448454	-175.2506635	76.0888224	108.5010565
7.66	766	0.976	0.012	0.259	0.1718874	-0.1145916	-0.6302538	-175.2220156	76.0888224	108.5297044
7.67	767	0.977	0.014	0.259	0.2291832	-0.4010706	-0.6302538	-175.1933677	76.09455198	108.5583523
7.68	768	0.977	0.014	0.257	0.1718874	-0.286479	-0.4583664	-175.1704493	76.09455198	108.5812706
7.69	769	0.977	0.014	0.258	0	-0.1718874	-0.1718874	-175.1589902	76.10028156	108.5870002
7.7	770	0.977	0.014	0.261	-0.1718874	0.1145916	0	-175.0730465	76.0315266	108.6729439
7.71	771	0.976	0.014	0.262	-0.4010706	0.3437748	0.1145916	-175.0902352	76.02579702	108.6672143
7.72	772	0.974	0.013	0.257	-0.1145916	0.2291832	0.1145916	-175.0959648	76.02579702	108.6557551
7.73	773	0.973	0.011	0.253	0	0.0572958	0.1718874	-175.107424	76.02006744	108.6500255
7.74	774	0.972	0.01	0.256	0	-0.286479	0.0572958	-175.107424	76.02579702	108.644296
7.75	775	0.971	0.01	0.26	-0.3437748	-0.2291832	-0.0572958	-175.1188831	76.00860828	108.644296
7.76	776	0.97	0.009	0.255	-0.9167328	-0.1145916	-0.1145916	-175.1188831	76.00860828	108.6500255
7.77	777	0.968	0.008	0.263	-1.432395	-0.1718874	-0.2291832	-175.1246127	76.00860828	108.6614847
7.78	778	0.976	0.007	0.265	-3.3231564	0.572958	-0.4583664	-175.1418014	76.0028787	108.6729439
7.79	779	0.981	0.013	0.257	-3.6669312	1.2605076	-0.6875496	-175.1589902	75.99141954	108.6958622
7.8	780	0.981	0.013	0.256	-2.6356068	1.145916	-0.9740286	-175.147531	75.97996038	108.7416988
7.81	781	0.98	0.012	0.258	-2.0626488	0.859437	-1.145916	-175.1246127	75.96850122	108.7818059
7.82	782	0.979	0.013	0.261	-1.718874	0.4583664	-1.432395	-175.0845056	75.96277164	108.8391017
7.83	783	0.978	0.013	0.265	-1.8334656	0.3437748	-1.4896908	-175.0443986	75.95704206	108.9021271
7.84	784	0.978	0.012	0.268	-2.005353	0.2291832	-1.4896908	-175.0100211	75.95131248	108.9594229
7.85	785	0.979	0.014	0.265	-1.9480572	0.0572958	-1.432395	-174.9641845	75.93985332	109.0281778
7.86	786	0.979	0.015	0.262	-1.6615782	0	-1.3178034	-174.9240774	75.93985332	109.0854736
7.87	787	0.98	0.015	0.262	-1.3750992	-0.1718874	-1.145916	-174.8954295	75.93985332	109.1313103
7.88	788	0.981	0.015	0.261	-1.145916	-0.286479	-0.9740286	-174.8667816	75.9455829	109.1714173
7.89	789	0.98	0.015	0.259	-0.859437	-0.286479	-0.8021412	-174.8438633	75.9455829	109.2057948
7.9	790	0.978	0.015	0.257	-0.6875496	-0.3437748	-0.5156622	-174.7922971	75.9455829	109.2630906
7.91	791	0.977	0.015	0.256	-0.2291832	-0.3437748	-0.286479	-174.7808379	75.95131248	109.2802793
7.92	792	0.976	0.014	0.257	0.0572958	-0.286479	-0.2291832	-174.7693787	75.95131248	109.2917385
7.93	793	0.973	0.014	0.255	0.0572958	-0.0572958	-0.1145916	-174.7579196	75.95704206	109.2974681
7.94	794	0.974	0.014	0.255	0.2291832	-0.1718874	0	-174.7579196	75.95704206	109.3031977
7.95	795	0.973	0.015	0.252	0.4010706	-0.2291832	0	-174.683435	75.96277164	109.366223
7.96	796	0.973	0.015	0.252	0.6302538	-0.286479	-0.0572958	-174.6719759	75.96850122	109.3719526
7.97	797	0.974	0.015	0.255	0.7448454	-0.1718874	0	-174.6605167	75.96850122	109.3719526
7.98	798	0.975	0.013	0.258	0.4583664	-0.0572958	0.1145916	-174.6605167	75.96850122	109.366223
7.99	799	0.975	0.014	0.256	0.286479	0.0572958	0.1145916	-174.6662463	75.96850122	109.3604935
8	800	0.975	0.013	0.254	0.3437748	0.1145916	0.3437748	-174.6605167	75.96850122	109.3604935
8.01	801	0.974	0.015	0.255	0.3437748	0.0572958	0.286479	-174.6719759	75.96277164	109.3433047
8.02	802	0.974	0.015	0.257	0.286479	0.1718874	0.2291832	-174.6777055	75.96277164	109.3318456
8.03	803	0.975	0.014	0.258	0.1718874	0.286479	0.2291832	-174.6891646	75.96277164	109.3203864
8.04	804	0.975	0.014	0.257	0.1718874	0.4010706	0.2291832	-174.7006238	75.95704206	109.3089272
8.05	805	0.976	0.015	0.258	0.2291832	0.3437748	0.1145916	-174.6547871	75.93985332	109.3490343
8.06	806	0.977	0.016	0.259	0.2291832	0.4583664	0.1145916	-174.6605167	75.93412374	109.3375751
8.07	807	0.977	0.015	0.261	0.286479	0.5156622	0.2291832	-174.6719759	75.92839416	109.326116
8.08	808	0.977	0.015	0.26	0.1718874	0.572958	0.1718874	-174.683435	75.92266458	109.3146568
8.09	809	0.977	0.015	0.26	0.2291832	0.6302538	0.286479	-174.6948942	75.916935	109.2974681
8.1	810	0.977	0.015	0.259	0.3437748	0.5156622	0.286479	-174.6490576	75.90547584	109.3375751
8.11	811	0.977	0.014	0.259	0.4010706	0.286479	0.3437748	-174.6605167	75.89974626	109.3203864
8.12	812	0.975	0.014	0.258	0.5156622	0.2291832	0.4010706	-174.6719759	75.89974626	109.3031977
8.13	813	0.976	0.013	0.26	0.4583664	0.2291832	0.3437748	-174.683435	75.89974626	109.2860089
8.14	814	0.977	0.015	0.26	0.4583664	0.3437748	0.4010706	-174.6948942	75.89401668	109.2688202
8.15	815	0.977	0.014	0.26	0.3437748	0.286479	0.4010706	-174.6891646	75.87682794	109.2688202
8.16	816	0.976	0.014	0.259	0.3437748	0.3437748	0.3437748	-174.7063534	75.87682794	109.2516314
8.17	817	0.976	0.014	0.26	0.4010706	0.286479	0.5156622	-174.7235421	75.87109836	109.2287131
8.18	818	0.976	0.014	0.259	0.4010706	0.286479	0.4583664	-174.7407308	75.87109836	109.2057948
8.19	819	0.976	0.013	0.259	0.286479	0.286479	0.4010706	-174.75219	75.86536878	109.1886061
8.2	820	0.976	0.011	0.259	0.286479	0.4583664	0.286479	-174.7922971	75.85390962	109.148499
8.21	821	0.975	0.011	0.258	0.2291832	0.4583664	0.1718874	-174.7980266	75.84818004	109.1370398
