TimeStamp(s)	FrameCounter	AccX	AccY	AccZ	GyrX	GyrY	GyrZ	EulerX	EulerY	EulerZ
0.01	1	-0.051	-1.003	0.06	-1.3178034	0	-0.1718874	92.08580976	-2.60122932	-13.84839486
0.02	2	-0.054	-1.004	0.061	-1.3750992	0	-0.2291832	92.06862102	-2.59549974	-13.84839486
0.03	3	-0.056	-1.005	0.06	-1.2032118	-0.286479	-0.1718874	92.05716186	-2.59549974	-13.84839486
0.04	4	-0.057	-1.003	0.059	-1.145916	-0.4010706	-0.1718874	92.0457027	-2.59549974	-13.85412444
0.05	5	-0.057	-1.004	0.058	-0.9740286	-0.4010706	-0.0572958	92.03424354	-2.6069589	-13.8655836
0.06	6	-0.056	-1.005	0.057	-1.0313244	-0.3437748	-0.1145916	92.02278438	-2.6069589	-13.87131318
0.07	7	-0.057	-1.006	0.062	-1.0313244	-0.1718874	-0.1718874	92.01132522	-2.60122932	-13.87131318
0.08	8	-0.056	-1.007	0.064	-1.2032118	0.1718874	-0.2291832	91.99986606	-2.60122932	-13.87131318
0.09	9	-0.057	-1.006	0.062	-0.1145916	0.8021412	-0.3437748	91.99986606	-2.59549974	-13.85985402
0.1	10	-0.057	-1.004	0.061	0.0572958	0.6875496	-0.4010706	92.0170548	-2.61841806	-13.8655836
0.11	11	-0.056	-1.002	0.064	0.3437748	0.572958	-0.4010706	92.0170548	-2.61268848	-13.85985402
0.12	12	-0.056	-1.003	0.063	0.1718874	0.9740286	-0.4010706	92.02278438	-2.61268848	-13.84839486
0.13	13	-0.056	-1.003	0.061	0	1.0886202	-0.4010706	92.02278438	-2.6069589	-13.8369357
0.14	14	-0.058	-1.006	0.061	0.0572958	1.2032118	-0.3437748	92.02278438	-2.6069589	-13.82547654
0.15	15	-0.057	-1.006	0.06	0	1.2032118	-0.3437748	92.02851396	-2.61841806	-13.82547654
0.16	16	-0.056	-1.007	0.057	0.0572958	1.145916	-0.2291832	92.02851396	-2.61841806	-13.81401738
0.17	17	-0.055	-1.007	0.058	0	1.0313244	-0.286479	92.02278438	-2.61841806	-13.80255822
0.18	18	-0.054	-1.006	0.058	0	0.9167328	-0.286479	92.02278438	-2.61268848	-13.79109906
0.19	19	-0.05	-1.006	0.056	-0.1145916	0.8021412	-0.4010706	92.02278438	-2.61268848	-13.78536948
0.2	20	-0.048	-1.003	0.058	-0.1145916	0.6875496	-0.4010706	92.02278438	-2.60122932	-13.77391032
0.21	21	-0.05	-1.004	0.059	-0.0572958	0.572958	-0.3437748	92.02278438	-2.59549974	-13.76818074
0.22	22	-0.052	-1.005	0.061	-0.0572958	0.6302538	-0.2291832	92.02278438	-2.59549974	-13.76245116
0.23	23	-0.054	-1.005	0.062	-0.286479	0.859437	-0.1718874	92.0170548	-2.59549974	-13.750992
0.24	24	-0.055	-1.005	0.06	-0.4583664	0.7448454	-0.1718874	92.01132522	-2.59549974	-13.74526242
0.25	25	-0.054	-1.005	0.06	-0.3437748	0.6302538	-0.1145916	92.0170548	-2.6069589	-13.74526242
0.26	26	-0.054	-1.006	0.061	-0.3437748	0.572958	0	92.0170548	-2.6069589	-13.73953284
0.27	27	-0.056	-1.004	0.06	-0.3437748	0.6302538	0	92.01132522	-2.6069589	-13.73380326
0.28	28	-0.055	-1.004	0.058	-0.286479	0.7448454	-0.0572958	92.00559564	-2.6069589	-13.72807368
0.29	29	-0.054	-1.006	0.059	-0.3437748	0.7448454	-0.1145916	91.99986606	-2.6069589	-13.71661452
0.3	30	-0.052	-1.007	0.061	-0.5156622	0.7448454	-0.1145916	92.00559564	-2.6069589	-13.71088494
0.31	31	-0.05	-1.009	0.06	-0.5156622	0.4010706	-0.1718874	91.99986606	-2.6069589	-13.71088494
0.32	32	-0.05	-1.008	0.061	-0.572958	0.286479	-0.1145916	91.99413648	-2.6069589	-13.70515536
0.33	33	-0.049	-1.008	0.062	-0.6875496	0.2291832	-0.1145916	91.98267732	-2.6069589	-13.70515536
0.34	34	-0.051	-1.006	0.061	-0.7448454	0.1145916	-0.1145916	91.97694774	-2.6069589	-13.70515536
0.35	35	-0.054	-1.005	0.058	-0.7448454	0.0572958	-0.1145916	91.97121816	-2.61841806	-13.71088494
0.36	36	-0.055	-1.002	0.058	-0.7448454	0	-0.1145916	91.96548858	-2.61841806	-13.71088494
0.37	37	-0.055	-1.003	0.058	-0.6875496	-0.0572958	-0.0572958	91.959759	-2.61841806	-13.71088494
0.38	38	-0.054	-1.004	0.057	-0.6875496	-0.1718874	-0.1145916	91.94829984	-2.61268848	-13.71088494
0.39	39	-0.055	-1.006	0.056	-0.6875496	-0.1718874	-0.1718874	91.94257026	-2.61268848	-13.71088494
0.4	40	-0.054	-1.004	0.056	-0.6302538	0	-0.1718874	91.93684068	-2.62414764	-13.71661452
0.41	41	-0.053	-1.005	0.058	-0.3437748	-0.286479	-0.0572958	91.93684068	-2.62414764	-13.7223441
0.42	42	-0.051	-1.007	0.061	-0.3437748	-0.286479	0	91.9311111	-2.62414764	-13.7223441
0.43	43	-0.051	-1.006	0.06	-0.4010706	-0.1718874	0.1718874	91.92538152	-2.62414764	-13.72807368
0.44	44	-0.051	-1.009	0.06	-0.4010706	-0.5156622	0.286479	91.92538152	-2.62414764	-13.73380326
0.45	45	-0.052	-1.009	0.061	-0.4010706	-0.6302538	0.4010706	91.92538152	-2.6356068	-13.73953284
0.46	46	-0.052	-1.009	0.06	-0.4010706	-0.8021412	0.3437748	91.92538152	-2.6356068	-13.750992
0.47	47	-0.054	-1.01	0.059	-0.6875496	-0.859437	0.3437748	91.91392236	-2.64133638	-13.75672158
0.48	48	-0.055	-1.008	0.058	-0.9740286	-0.859437	0.1718874	91.90819278	-2.64133638	-13.76818074
0.49	49	-0.054	-1.007	0.053	-1.0886202	-0.9740286	0.1718874	91.89673362	-2.64133638	-13.7796399
0.5	50	-0.052	-1.002	0.053	-1.145916	-1.0886202	0.1718874	91.88527446	-2.64706596	-13.79109906
0.51	51	-0.05	-1	0.056	-1.2605076	-0.9740286	0.1718874	91.8738153	-2.64706596	-13.79682864
0.52	52	-0.048	-0.999	0.054	-1.0886202	-0.7448454	0.2291832	91.86235614	-2.64706596	-13.8082878
0.53	53	-0.046	-1	0.051	-0.8021412	-0.9167328	0.1718874	91.85089698	-2.65279554	-13.81974696
0.54	54	-0.048	-1.003	0.052	-0.6302538	-1.2032118	0.1145916	91.8451674	-2.65279554	-13.83120612
0.55	55	-0.05	-1.004	0.05	-0.572958	-1.3750992	0.1145916	91.83370824	-2.65279554	-13.84266528
0.56	56	-0.055	-1.006	0.052	-0.5156622	-1.3750992	0.1145916	91.82797866	-2.65279554	-13.85985402
0.57	57	-0.057	-1.006	0.052	-0.3437748	-1.432395	0.1718874	91.82797866	-2.65852512	-13.87131318
0.58	58	-0.059	-1.006	0.053	-0.286479	-1.145916	0.286479	91.82224908	-2.65852512	-13.88277234
0.59	59	-0.058	-1.007	0.055	-0.4010706	-0.8021412	0.1718874	91.82224908	-2.65852512	-13.8942315
0.6	60	-0.058	-1.008	0.055	-0.6302538	-0.572958	0.0572958	91.82797866	-2.67571386	-13.90569066
0.61	61	-0.059	-1.011	0.062	-0.6302538	-0.7448454	-0.0572958	91.82224908	-2.67571386	-13.91142024
0.62	62	-0.058	-1.013	0.059	-1.0313244	-0.9740286	-0.1718874	91.81078992	-2.67571386	-13.9228794
0.63	63	-0.055	-1.012	0.053	-1.0313244	-1.145916	-0.1718874	91.79933076	-2.66998428	-13.93433856
0.64	64	-0.052	-1.007	0.051	-0.6302538	-1.2605076	-0.1718874	91.79360118	-2.66998428	-13.94579772
0.65	65	-0.051	-1.003	0.049	-0.286479	-1.0886202	-0.1718874	91.78214202	-2.6642547	-13.95725688
0.66	66	-0.05	-1.001	0.05	-0.1718874	-0.8021412	-0.1145916	91.78214202	-2.6642547	-13.96298646
0.67	67	-0.052	-1.001	0.052	-0.2291832	-0.9167328	-0.1718874	91.78214202	-2.65852512	-13.97444562
0.68	68	-0.054	-1.003	0.053	-0.3437748	-0.7448454	-0.2291832	91.77641244	-2.65852512	-13.9801752
0.69	69	-0.057	-1.004	0.053	-0.4583664	-0.859437	-0.286479	91.77068286	-2.65279554	-13.99163436
0.7	70	-0.057	-1.006	0.052	-0.2291832	-0.2291832	-0.4583664	91.76495328	-2.67571386	-14.00309352
0.71	71	-0.056	-1.006	0.053	-0.1145916	0.1145916	-0.3437748	91.76495328	-2.66998428	-14.00309352
0.72	72	-0.053	-1.007	0.05	0.1718874	-0.0572958	-0.1718874	91.76495328	-2.66998428	-14.00309352
0.73	73	-0.053	-1.008	0.051	0.3437748	-0.286479	-0.0572958	91.77068286	-2.66998428	-14.00309352
0.74	74	-0.053	-1.006	0.054	0.2291832	-0.6302538	-0.0572958	91.77068286	-2.66998428	-14.0088231
0.75	75	-0.054	-1.002	0.052	0.2291832	-0.8021412	-0.1145916	91.77068286	-2.67571386	-14.02028226
0.76	76	-0.053	-1	0.048	0.3437748	-0.7448454	-0.2291832	91.77641244	-2.66998428	-14.03174142
0.77	77	-0.055	-0.998	0.045	0.8021412	-0.5156622	-0.286479	91.78214202	-2.6642547	-14.03174142
0.78	78	-0.055	-0.998	0.045	1.2605076	-0.3437748	-0.3437748	91.79933076	-2.6642547	-14.037471
0.79	79	-0.056	-1	0.046	1.3178034	-0.1145916	-0.3437748	91.81078992	-2.65852512	-14.037471
0.8	80	-0.057	-1.001	0.048	1.2605076	0.0572958	-0.286479	91.8165195	-2.66998428	-14.04320058
0.81	81	-0.058	-1.002	0.049	1.0886202	0.286479	-0.286479	91.82797866	-2.6642547	-14.037471
0.82	82	-0.059	-1.002	0.048	1.0886202	0.1145916	-0.286479	91.83943782	-2.6642547	-14.037471
0.83	83	-0.058	-1.001	0.048	1.2032118	0	-0.286479	91.85089698	-2.65852512	-14.037471
0.84	84	-0.059	-1.001	0.049	1.2605076	0	-0.4010706	91.86235614	-2.65279554	-14.037471
0.85	85	-0.058	-1.004	0.05	1.3750992	0.286479	-0.4583664	91.8738153	-2.65852512	-14.037471
0.86	86	-0.056	-1.005	0.05	1.432395	0.5156622	-0.5156622	91.88527446	-2.65279554	-14.03174142
0.87	87	-0.057	-1.005	0.047	1.6615782	0.5156622	-0.4583664	91.9024632	-2.65279554	-14.02601184
0.88	88	-0.057	-1.003	0.047	1.7761698	0.572958	-0.3437748	91.91965194	-2.64706596	-14.02028226
0.89	89	-0.054	-1.003	0.048	1.9480572	0.7448454	-0.2291832	91.94257026	-2.64706596	-14.0088231
0.9	90	-0.052	-1.003	0.047	1.8907614	0.859437	-0.1145916	91.94829984	-2.64706596	-14.00309352
0.91	91	-0.051	-1.004	0.047	1.8334656	0.7448454	-0.0572958	91.96548858	-2.64706596	-13.99163436
0.92	92	-0.051	-1.004	0.05	1.6615782	0.8021412	-0.1718874	91.98267732	-2.64133638	-13.98590478
0.93	93	-0.051	-1.004	0.05	1.5469866	0.7448454	-0.2291832	91.99986606	-2.64133638	-13.97444562
0.94	94	-0.053	-1.005	0.051	1.6042824	0.7448454	-0.1718874	92.0170548	-2.64133638	-13.96871604
0.95	95	-0.055	-1.006	0.048	1.6042824	0.572958	-0.1145916	92.0170548	-2.64706596	-13.96298646
0.96	96	-0.056	-1.007	0.046	1.8907614	0.286479	0	92.03997312	-2.64706596	-13.95725688
0.97	97	-0.057	-1.006	0.047	1.9480572	0.0572958	0.1145916	92.05716186	-2.64706596	-13.95725688
0.98	98	-0.054	-1.004	0.048	2.1199446	-0.1145916	0.2291832	92.08008018	-2.64706596	-13.95725688
0.99	99	-0.051	-1.007	0.057	1.8334656	0.0572958	0.1718874	92.09726892	-2.65279554	-13.95725688
1	100	-0.05	-1.007	0.055	1.3178034	0.3437748	0.1718874	92.1029985	-2.65279554	-13.9515273
1.01	101	-0.052	-1.008	0.054	1.432395	0.286479	0.4010706	92.11445766	-2.65852512	-13.9515273
1.02	102	-0.053	-1.007	0.055	1.6615782	0.4010706	0.5156622	92.1316464	-2.6642547	-13.94579772
1.03	103	-0.055	-1.008	0.053	1.6615782	0.1145916	0.4583664	92.14883514	-2.6642547	-13.94579772
1.04	104	-0.056	-1.006	0.051	1.4896908	-0.1718874	0.4010706	92.16602388	-2.66998428	-13.94579772
1.05	105	-0.057	-1.004	0.05	1.3750992	-0.5156622	0.3437748	92.16602388	-2.68144344	-13.9515273
1.06	106	-0.057	-1.004	0.052	1.3750992	-0.4583664	0.1718874	92.18321262	-2.68144344	-13.95725688
1.07	107	-0.054	-1.005	0.053	1.3178034	-0.2291832	0.0572958	92.19467178	-2.68144344	-13.96298646
1.08	108	-0.053	-1.006	0.052	1.3178034	0	-0.0572958	92.21186052	-2.68144344	-13.96298646
1.09	109	-0.053	-1.005	0.051	1.2605076	0.0572958	-0.0572958	92.22331968	-2.68144344	-13.95725688
1.1	110	-0.052	-1.005	0.05	1.3750992	0	0	92.2175901	-2.68717302	-13.95725688
1.11	111	-0.053	-1.004	0.053	1.3178034	-0.0572958	0	92.22904926	-2.68717302	-13.96298646
1.12	112	-0.054	-1.005	0.054	1.145916	0.1145916	0	92.24050842	-2.68717302	-13.95725688
1.13	113	-0.053	-1.006	0.053	0.9740286	0.286479	0	92.25196758	-2.68717302	-13.95725688
1.14	114	-0.052	-1.006	0.053	0.9740286	0.286479	0.0572958	92.26342674	-2.68717302	-13.9515273
1.15	115	-0.053	-1.006	0.055	0.9740286	0	0.1718874	92.25769716	-2.6929026	-13.9515273
1.16	116	-0.054	-1.006	0.056	0.9740286	0	0.0572958	92.26342674	-2.6929026	-13.9515273
1.17	117	-0.053	-1.004	0.056	1.0886202	0	0	92.2748859	-2.6929026	-13.9515273
1.18	118	-0.054	-1.006	0.056	0.3437748	0	-0.1718874	92.28061548	-2.6929026	-13.9515273
1.19	119	-0.053	-1.004	0.053	-0.2291832	-0.1145916	-0.2291832	92.28061548	-2.68717302	-13.95725688
1.2	120	-0.053	-1.005	0.054	-0.1145916	-0.286479	-0.0572958	92.23477884	-2.68717302	-13.9515273
1.21	121	-0.052	-1.005	0.052	-0.4010706	-0.4010706	0	92.22904926	-2.68717302	-13.95725688
1.22	122	-0.051	-1.006	0.053	-0.3437748	-0.572958	0.1145916	92.22904926	-2.68717302	-13.96298646
1.23	123	-0.05	-1.006	0.056	-0.572958	-0.572958	0.1145916	92.22331968	-2.68717302	-13.96871604
1.24	124	-0.052	-1.006	0.059	-0.8021412	-0.3437748	0	92.21186052	-2.68717302	-13.97444562
1.25	125	-0.054	-1.008	0.056	-0.9740286	-0.4583664	0	92.19467178	-2.69863218	-13.9801752
1.26	126	-0.056	-1.007	0.055	-0.9740286	-0.572958	-0.1145916	92.18321262	-2.6929026	-13.98590478
1.27	127	-0.058	-1.008	0.057	-0.859437	-0.5156622	-0.286479	92.17748304	-2.6929026	-13.99163436
1.28	128	-0.058	-1.008	0.057	-0.6875496	-0.6875496	-0.286479	92.17175346	-2.68717302	-13.99736394
1.29	129	-0.057	-1.009	0.055	-0.1718874	-0.9167328	-0.286479	92.16602388	-2.68144344	-14.0088231
1.3	130	-0.055	-1.005	0.057	-0.1718874	-0.859437	-0.2291832	92.16602388	-2.68717302	-14.02028226
1.31	131	-0.052	-1.001	0.06	0	-0.4010706	-0.1718874	92.16602388	-2.68144344	-14.02028226
1.32	132	-0.051	-1.001	0.058	0	0.3437748	-0.1145916	92.16602388	-2.68144344	-14.02028226
1.33	133	-0.053	-1.001	0.055	-0.1145916	0.572958	-0.0572958	92.1602943	-2.68144344	-14.01455268
1.34	134	-0.056	-1	0.052	-0.1718874	0.286479	0	92.1602943	-2.68144344	-14.0088231
1.35	135	-0.057	-1	0.054	-0.0572958	0	-0.0572958	92.11445766	-2.75592798	-14.02601184
1.36	136	-0.054	-1.001	0.053	-0.1145916	-0.1718874	-0.0572958	92.11445766	-2.7501984	-14.03174142
1.37	137	-0.05	-1.003	0.052	-0.1718874	-0.4010706	-0.2291832	92.11445766	-2.7501984	-14.03174142
1.38	138	-0.05	-1.004	0.052	-0.0572958	-0.572958	-0.286479	92.11445766	-2.74446882	-14.037471
1.39	139	-0.051	-1.004	0.054	0.2291832	-0.6875496	-0.1718874	92.11445766	-2.74446882	-14.04893016
1.4	140	-0.054	-1.005	0.055	0.1718874	-0.6302538	-0.3437748	92.10872808	-2.7501984	-14.05465974
1.41	141	-0.055	-1.006	0.056	0.2291832	-0.6302538	-0.4010706	92.11445766	-2.74446882	-14.06038932
1.42	142	-0.061	-1.005	0.056	0.572958	-0.572958	-0.5156622	92.12018724	-2.73873924	-14.0661189
1.43	143	-0.063	-1.004	0.056	0.6875496	-0.3437748	-0.572958	92.12591682	-2.73300966	-14.07184848
1.44	144	-0.062	-1.003	0.062	0.572958	0.1145916	-0.6302538	92.13737598	-2.7215505	-14.0661189
1.45	145	-0.061	-1.006	0.063	0.1718874	0.3437748	-0.5156622	92.14310556	-2.74446882	-14.07184848
1.46	146	-0.058	-1.008	0.056	0	0.2291832	-0.3437748	92.14310556	-2.74446882	-14.07184848
1.47	147	-0.054	-1.008	0.055	0	0	-0.286479	92.14310556	-2.73873924	-14.07184848
1.48	148	-0.051	-1.008	0.057	-0.2291832	-0.2291832	-0.1718874	92.13737598	-2.73873924	-14.07184848
1.49	149	-0.05	-1.006	0.057	-0.2291832	-0.2291832	0	92.13737598	-2.73873924	-14.07184848
1.5	150	-0.052	-1.004	0.06	-0.1145916	-0.2291832	0	92.14883514	-2.73873924	-14.07757806
1.51	151	-0.053	-1.004	0.062	-0.1718874	0	0.0572958	92.14883514	-2.73873924	-14.07757806
1.52	152	-0.056	-1.003	0.065	-0.286479	0.3437748	0.1145916	92.14310556	-2.73873924	-14.07184848
1.53	153	-0.057	-1.004	0.062	-0.3437748	0.1718874	0.286479	92.14310556	-2.74446882	-14.07184848
1.54	154	-0.056	-1.007	0.06	-0.3437748	0.1718874	0.4010706	92.13737598	-2.74446882	-14.07184848
1.55	155	-0.057	-1.009	0.062	-0.3437748	0.1145916	0.6302538	92.13737598	-2.76165756	-14.07184848
1.56	156	-0.056	-1.009	0.062	-0.5156622	0	0.572958	92.1316464	-2.76738714	-14.07184848
1.57	157	-0.056	-1.005	0.061	-0.6302538	0.1145916	0.4583664	92.12591682	-2.77311672	-14.07184848
1.58	158	-0.056	-1.002	0.059	-0.5156622	0.2291832	0.286479	92.12018724	-2.7788463	-14.07184848
1.59	159	-0.054	-1	0.058	-0.4583664	0.3437748	0.1718874	92.11445766	-2.7788463	-14.0661189
1.6	160	-0.055	-1.002	0.057	-0.286479	0.3437748	0.0572958	92.10872808	-2.79030546	-14.0661189
1.61	161	-0.056	-1.002	0.057	-0.1718874	0.3437748	0.1145916	92.1029985	-2.79030546	-14.06038932
1.62	162	-0.055	-1.003	0.06	-0.3437748	0.5156622	0.286479	92.09726892	-2.79603504	-14.05465974
1.63	163	-0.054	-1.003	0.06	-0.4010706	0.7448454	0.4010706	92.09726892	-2.80176462	-14.04893016
1.64	164	-0.051	-1.004	0.057	-0.4010706	0.6875496	0.5156622	92.09153934	-2.8074942	-14.04320058
1.65	165	-0.049	-1.004	0.06	-0.286479	0.286479	0.6302538	92.09153934	-2.80176462	-14.037471
1.66	166	-0.049	-1.004	0.062	-0.4010706	0.286479	0.6875496	92.09153934	-2.81322378	-14.03174142
1.67	167	-0.05	-1.003	0.062	-0.4010706	0.1145916	0.4583664	92.08580976	-2.81895336	-14.03174142
1.68	168	-0.053	-1.003	0.063	-0.3437748	0.1718874	0.2291832	92.08008018	-2.81895336	-14.03174142
1.69	169	-0.056	-1.003	0.063	-0.1145916	0.2291832	0.1718874	92.08008018	-2.81895336	-14.02601184
1.7	170	-0.057	-1.002	0.061	0.1145916	0.1718874	0.0572958	92.09726892	-2.84187168	-14.03174142
1.71	171	-0.056	-1.001	0.062	0.3437748	0.2291832	0	92.1029985	-2.84187168	-14.03174142
1.72	172	-0.054	-1	0.059	0.4583664	0.2291832	0.0572958	92.10872808	-2.84187168	-14.02601184
1.73	173	-0.051	-1.001	0.061	0.572958	0.1718874	0.1145916	92.11445766	-2.84187168	-14.02601184
1.74	174	-0.048	-1.001	0.061	0.5156622	0.0572958	0.1145916	92.12018724	-2.84760126	-14.02601184
1.75	175	-0.046	-1.002	0.063	0.5156622	0.0572958	0.2291832	92.13737598	-2.82468294	-14.02028226
1.76	176	-0.045	-1.002	0.064	0.572958	0.0572958	0.0572958	92.14310556	-2.82468294	-14.02028226
1.77	177	-0.048	-1.003	0.065	0.7448454	0	0	92.14883514	-2.82468294	-14.02028226
1.78	178	-0.053	-1.004	0.067	0.859437	-0.3437748	0.0572958	92.1602943	-2.82468294	-14.02028226
1.79	179	-0.057	-1.005	0.068	1.0313244	-0.572958	0	92.17175346	-2.82468294	-14.02601184
1.8	180	-0.057	-1.008	0.073	0.8021412	-0.572958	-0.1718874	92.20613094	-2.83041252	-14.037471
1.81	181	-0.054	-1.009	0.072	0.7448454	-0.3437748	-0.2291832	92.2175901	-2.82468294	-14.04320058
1.82	182	-0.051	-1.009	0.067	0.9167328	-0.5156622	-0.1718874	92.22331968	-2.82468294	-14.04893016
1.83	183	-0.046	-1.006	0.063	1.2032118	-0.8021412	-0.1145916	92.24050842	-2.81895336	-14.05465974
1.84	184	-0.043	-1.004	0.07	1.432395	-1.0313244	-0.0572958	92.25196758	-2.81895336	-14.0661189
1.85	185	-0.042	-1.007	0.07	1.2032118	-1.2032118	-0.1145916	92.2748859	-2.8074942	-14.07184848
1.86	186	-0.046	-1.007	0.067	0.9167328	-1.2605076	-0.1145916	92.28634506	-2.80176462	-14.08903722
1.87	187	-0.054	-1.008	0.067	0.7448454	-1.3178034	-0.2291832	92.29207464	-2.79603504	-14.10049638
1.88	188	-0.063	-1.006	0.064	0.5156622	-1.0313244	-0.4010706	92.29780422	-2.79603504	-14.11195554
1.89	189	-0.066	-1.004	0.066	0.4583664	-0.4583664	-0.4010706	92.3035338	-2.79030546	-14.11768512
1.9	190	-0.067	-1.003	0.065	0.4010706	-0.1145916	-0.2291832	92.32072254	-2.83041252	-14.12914428
1.91	191	-0.063	-1.004	0.065	0.286479	0.0572958	0	92.32645212	-2.83041252	-14.12914428
1.92	192	-0.06	-1.008	0.064	0.2291832	0.2291832	0	92.32645212	-2.83041252	-14.1234147
1.93	193	-0.055	-1.013	0.065	-0.1145916	0.286479	0	92.32645212	-2.83041252	-14.1234147
1.94	194	-0.048	-1.013	0.061	-0.286479	-0.0572958	-0.1718874	92.32072254	-2.83041252	-14.1234147
1.95	195	-0.041	-1.01	0.059	-0.4583664	-0.9167328	-0.3437748	92.31499296	-2.8074942	-14.12914428
1.96	196	-0.036	-1.005	0.058	-0.6302538	-1.6042824	-0.3437748	92.30926338	-2.80176462	-14.14060344
1.97	197	-0.04	-1.002	0.055	-0.5156622	-1.8334656	-0.4583664	92.3035338	-2.79603504	-14.15779218
1.98	198	-0.047	-1.004	0.055	-0.4010706	-1.6042824	-0.4583664	92.29780422	-2.79030546	-14.17498092
1.99	199	-0.055	-1.006	0.056	-0.6302538	-1.2032118	-0.5156622	92.29207464	-2.78457588	-14.18644008
2	200	-0.062	-1.01	0.054	-0.859437	-0.8021412	-0.4010706	92.26915632	-2.79603504	-14.19789924
2.01	201	-0.066	-1.015	0.053	-0.6875496	-0.6302538	-0.286479	92.26342674	-2.79030546	-14.20362882
2.02	202	-0.064	-1.016	0.053	-0.286479	-0.7448454	-0.1145916	92.26342674	-2.79030546	-14.21508798
2.03	203	-0.061	-1.013	0.053	0	-0.8021412	0	92.26342674	-2.79030546	-14.22081756
2.04	204	-0.055	-1.009	0.052	-0.0572958	-0.6302538	0	92.26342674	-2.79030546	-14.22654714
2.05	205	-0.05	-1.005	0.05	-0.5156622	-0.572958	0	92.23477884	-2.7788463	-14.23227672
2.06	206	-0.045	-1.004	0.048	-0.9740286	-0.7448454	0	92.22331968	-2.7788463	-14.2380063
2.07	207	-0.043	-1.006	0.043	-1.4896908	-1.0313244	0	92.21186052	-2.7788463	-14.24946546
2.08	208	-0.044	-1.013	0.038	-1.8907614	-1.432395	0.1145916	92.19467178	-2.7788463	-14.26092462
2.09	209	-0.045	-1.019	0.035	-2.2345362	-2.0626488	0.1718874	92.17175346	-2.7788463	-14.28384294
2.1	210	-0.046	-1.02	0.032	-2.5210152	-2.5210152	0.2291832	92.1316464	-2.7788463	-14.30676126
2.11	211	-0.048	-1.018	0.031	-2.6356068	-2.9220858	0.2291832	92.10872808	-2.7788463	-14.33540916
2.12	212	-0.048	-1.016	0.027	-2.8074942	-3.2658606	0.1145916	92.08008018	-2.7788463	-14.36978664
2.13	213	-0.049	-1.013	0.025	-2.9793816	-3.6096354	0.1145916	92.05143228	-2.7788463	-14.40416412
2.14	214	-0.049	-1.011	0.022	-3.0939732	-4.0680018	0	92.02278438	-2.7788463	-14.45000076
2.15	215	-0.051	-1.009	0.02	-3.3804522	-4.1252976	-0.1718874	91.97694774	-2.77311672	-14.49010782
2.16	216	-0.053	-1.009	0.019	-3.724227	-4.010706	-0.286479	91.94257026	-2.76738714	-14.53021488
2.17	217	-0.055	-1.009	0.017	-4.1252976	-4.1252976	-0.3437748	91.9024632	-2.76165756	-14.57032194
2.18	218	-0.056	-1.009	0.016	-4.583664	-4.010706	-0.4010706	91.85662656	-2.75592798	-14.610429
2.19	219	-0.056	-1.009	0.014	-5.0420304	-3.4950438	-0.3437748	91.80506034	-2.7501984	-14.64480648
2.2	220	-0.056	-1.009	0.011	-5.5576926	-3.2085648	-0.1718874	91.73630538	-2.74446882	-14.67345438
2.21	221	-0.052	-1.012	0.008	-5.9014674	-3.0366774	-0.0572958	91.67900958	-2.74446882	-14.70783186
2.22	222	-0.049	-1.017	0.004	-6.1879464	-3.0366774	0.0572958	91.6159842	-2.74446882	-14.73647976
2.23	223	-0.047	-1.02	0	-6.302538	-3.2085648	0.3437748	91.5586884	-2.74446882	-14.77085724
2.24	224	-0.048	-1.021	-0.002	-6.3598338	-3.4950438	0.5156622	91.49566302	-2.7501984	-14.80523472
2.25	225	-0.05	-1.021	-0.005	-6.302538	-3.7815228	0.4583664	91.4154489	-2.7501984	-14.84534178
2.26	226	-0.051	-1.021	-0.011	-6.4171296	-4.1825934	0.4010706	91.35242352	-2.75592798	-14.88544884
2.27	227	-0.05	-1.023	-0.018	-6.5317212	-4.8128472	0.4583664	91.28939814	-2.75592798	-14.93128548
2.28	228	-0.048	-1.023	-0.023	-6.5317212	-5.3285094	0.4010706	91.22637276	-2.76165756	-14.98858128
2.29	229	-0.046	-1.022	-0.025	-7.2192708	-5.0993262	0.1145916	91.1576178	-2.76165756	-15.0401475
2.3	230	-0.045	-1.023	-0.031	-8.1360036	-4.583664	-0.1718874	91.06021494	-2.75592798	-15.08598414
2.31	231	-0.046	-1.022	-0.038	-8.7662574	-4.297185	-0.4010706	90.96854166	-2.7501984	-15.1260912
2.32	232	-0.049	-1.023	-0.045	-9.1100322	-3.8961144	-0.5156622	90.88259796	-2.73873924	-15.16619826
2.33	233	-0.052	-1.025	-0.05	-9.6256944	-3.724227	-0.4583664	90.7851951	-2.73300966	-15.20630532
2.34	234	-0.052	-1.026	-0.059	-10.4851314	-3.8961144	-0.2291832	90.68206266	-2.73300966	-15.24641238
2.35	235	-0.047	-1.027	-0.074	-11.3445684	-4.010706	0	90.54455274	-2.72728008	-15.28651944
2.36	236	-0.04	-1.031	-0.092	-11.1153852	-4.2398892	-0.1718874	90.43569072	-2.72728008	-15.3266265
2.37	237	-0.037	-1.035	-0.094	-11.5737516	-4.3544808	-0.3437748	90.31536954	-2.7215505	-15.37246314
2.38	238	-0.036	-1.033	-0.094	-12.2040054	-5.156622	-0.286479	90.19504836	-2.7215505	-15.42402936
2.39	239	-0.033	-1.035	-0.078	-13.464513	-5.3285094	-0.1145916	90.06326802	-2.71582092	-15.48132516
2.4	240	-0.023	-1.036	-0.08	-15.756345	-5.3285094	0.1718874	89.89138062	-2.71582092	-15.53289138
2.41	241	-0.02	-1.043	-0.086	-17.5325148	-6.589017	0.4010706	89.71949322	-2.71582092	-15.60164634
2.42	242	-0.024	-1.047	-0.087	-20.2254174	-7.8495246	0.0572958	89.51895792	-2.7215505	-15.68186046
2.43	243	-0.031	-1.045	-0.088	-23.7204612	-8.7089616	-0.9167328	89.28404514	-2.71009134	-15.76780416
2.44	244	-0.036	-1.045	-0.077	-26.6998428	-8.9381448	-2.4064236	89.01475488	-2.68717302	-15.85947744
2.45	245	-0.037	-1.049	-0.052	-30.1948866	-7.0473834	-4.1252976	88.71108714	-2.64706596	-15.93396198
2.46	246	-0.045	-1.051	-0.063	-34.3201842	-5.9014674	-5.443101	88.36731234	-2.59549974	-15.99698736
2.47	247	-0.055	-1.046	-0.087	-36.2109456	-5.9014674	-6.1879464	88.00061922	-2.53820394	-16.06574232
2.48	248	-0.057	-1.041	-0.091	-36.955791	-7.3338624	-6.0733548	87.62819652	-2.48090814	-16.14595644
2.49	249	-0.055	-1.035	-0.085	-39.0757356	-8.7089616	-5.6149884	87.23858508	-2.42934192	-16.23762972
2.5	250	-0.043	-1.017	-0.104	-40.680018	-9.453807	-5.2712136	86.82605532	-2.38350528	-16.33503258
2.51	251	-0.03	-1	-0.107	-42.112413	-10.5424272	-5.0420304	86.4020664	-2.33766864	-16.44962418
2.52	252	-0.018	-0.985	-0.114	-44.2896534	-12.0894138	-4.9274388	85.96088874	-2.29756158	-16.57567494
2.53	253	-0.017	-0.982	-0.127	-46.8106686	-12.7196676	-5.6149884	85.49106318	-2.25172494	-16.71318486
2.54	254	-0.016	-0.978	-0.142	-48.9306132	-12.2040054	-6.3598338	85.00404888	-2.20015872	-16.8449652
2.55	255	-0.018	-0.974	-0.141	-50.6494872	-12.3758928	-6.3598338	84.49411626	-2.1485925	-16.97674554
2.56	256	-0.015	-0.95	-0.137	-52.139178	-13.5791046	-5.3858052	83.97272448	-2.10848544	-17.11998504
2.57	257	-0.007	-0.922	-0.146	-52.4829528	-16.042824	-4.010706	83.44560312	-2.08556712	-17.29187244
2.58	258	-0.004	-0.895	-0.14	-52.5402486	-17.7044022	-2.9220858	82.91848176	-2.07983754	-17.475219
2.59	259	-0.012	-0.874	-0.142	-52.712136	-18.3919518	-2.291832	82.39708998	-2.07983754	-17.66429514
2.6	260	-0.014	-0.864	-0.166	-51.9672906	-19.1367972	-2.578311	81.8756982	-2.07983754	-17.85910086
2.61	261	-0.016	-0.873	-0.175	-50.993262	-19.767051	-3.9534102	81.36576558	-2.06837838	-18.06536574
2.62	262	-0.015	-0.891	-0.175	-49.7900502	-20.2827132	-5.7868758	80.8730217	-2.03973048	-18.2773602
2.63	263	-0.018	-0.898	-0.167	-48.414951	-21.0848544	-7.1046792	80.39173698	-2.005353	-18.50081382
2.64	264	-0.022	-0.892	-0.161	-46.982556	-21.199446	-7.6776372	79.92191142	-1.96524594	-18.72426744
2.65	265	-0.032	-0.875	-0.168	-45.3782736	-20.2827132	-7.6203414	79.4692746	-1.92513888	-18.94199148
2.66	266	-0.042	-0.871	-0.161	-43.258329	-18.4492476	-7.1046792	79.0395561	-1.88503182	-19.14252678
2.67	267	-0.044	-0.876	-0.155	-42.2270046	-15.3552744	-6.4171296	78.62129676	-1.85638392	-19.3086846
2.68	268	-0.041	-0.883	-0.187	-41.1383844	-12.6623718	-5.6149884	78.208767	-1.82200644	-19.44619452
2.69	269	-0.039	-0.887	-0.213	-39.0184398	-11.3445684	-5.0420304	77.81915556	-1.79908812	-19.57224528
2.7	270	-0.04	-0.896	-0.219	-35.809875	-10.4278356	-4.6982556	77.45246244	-1.7761698	-19.68683688
2.71	271	-0.042	-0.898	-0.234	-32.8304934	-9.740286	-4.5263682	77.12587638	-1.75325148	-19.78996932
2.72	272	-0.043	-0.892	-0.25	-29.9657034	-9.2246238	-5.0993262	76.82793822	-1.72460358	-19.89883134
2.73	273	-0.049	-0.885	-0.258	-26.8717302	-9.3392154	-5.7868758	76.55864796	-1.6902261	-20.00196378
2.74	274	-0.057	-0.871	-0.235	-23.6631654	-10.5424272	-6.5317212	76.32373518	-1.65584862	-20.12228496
2.75	275	-0.057	-0.871	-0.201	-23.1475032	-11.3445684	-7.3911582	76.0888224	-1.61001198	-20.2540653
2.76	276	-0.046	-0.868	-0.2	-26.356068	-11.0007936	-7.9641162	75.8309913	-1.55844576	-20.38011606
2.77	277	-0.047	-0.882	-0.235	-26.929026	-10.5424272	-7.7922288	75.56170104	-1.51260912	-20.50616682
2.78	278	-0.055	-0.906	-0.233	-26.7571386	-9.2246238	-7.1046792	75.29241078	-1.46677248	-20.61502884
2.79	279	-0.051	-0.909	-0.259	-26.929026	-7.9641162	-6.1879464	75.02312052	-1.42666542	-20.70670212
2.8	280	-0.039	-0.89	-0.309	-25.4393352	-8.59437	-5.5003968	74.75955984	-1.39801752	-20.80410498
2.81	281	-0.032	-0.877	-0.312	-22.631841	-10.6570188	-4.870143	74.53037664	-1.3750992	-20.92442616
2.82	282	-0.024	-0.881	-0.302	-21.772404	-13.6936962	-4.583664	74.31838218	-1.36936962	-21.06766566
2.83	283	-0.02	-0.874	-0.297	-22.2307704	-16.329303	-5.2139178	74.09492856	-1.36364004	-21.23955306
2.84	284	-0.007	-0.864	-0.272	-21.5432208	-15.0114996	-6.3598338	73.8829341	-1.34072172	-21.40571088
2.85	285	0.007	-0.86	-0.292	-22.1161788	-13.6364004	-7.448454	73.65948048	-1.30061466	-21.55467996
2.86	286	0.014	-0.852	-0.3	-23.6631654	-12.2040054	-8.6516658	73.4245677	-1.25477802	-21.69791946
2.87	287	0.017	-0.844	-0.333	-23.5485738	-11.3445684	-9.453807	73.18965492	-1.19175264	-21.83542938
2.88	288	0.012	-0.827	-0.365	-21.9442914	-13.178034	-8.9381448	72.9662013	-1.145916	-21.99012804
2.89	289	0.002	-0.813	-0.371	-20.2254174	-16.7876694	-7.1046792	72.77139558	-1.12299768	-22.1734746
2.9	290	0	-0.806	-0.397	-18.7930224	-20.4546006	-5.9014674	72.57086028	-1.12299768	-22.38546906
2.91	291	0.001	-0.812	-0.377	-17.7044022	-21.9442914	-6.2452422	72.39897288	-1.12872726	-22.61465226
2.92	292	-0.005	-0.819	-0.355	-17.4179232	-22.345362	-7.5057498	72.22708548	-1.1172681	-22.85529462
2.93	293	-0.018	-0.812	-0.37	-17.8189938	-22.5172494	-8.3651868	72.05519808	-1.10007936	-23.09593698
2.94	294	-0.027	-0.805	-0.376	-17.7044022	-22.4599536	-8.2505952	71.88331068	-1.0886202	-23.33084976
2.95	295	-0.032	-0.801	-0.369	-17.7044022	-22.4026578	-7.1046792	71.69996412	-1.0886202	-23.57149212
2.96	296	-0.028	-0.781	-0.375	-18.2200644	-22.8037284	-5.7868758	71.52234714	-1.10007936	-23.8064049
2.97	297	-0.023	-0.749	-0.41	-18.2773602	-23.6631654	-4.6409598	71.34473016	-1.12872726	-24.04704726
2.98	298	-0.032	-0.72	-0.423	-16.7303736	-26.6998428	-3.0939732	71.18430192	-1.18029348	-24.31060794
2.99	299	-0.042	-0.7	-0.382	-15.4125702	-30.1375908	-1.8907614	71.03533284	-1.24904844	-24.60281652
3	300	-0.041	-0.665	-0.385	-16.1001198	-31.8564648	-2.5210152	70.8749046	-1.32353298	-24.91221384
3.01	301	-0.053	-0.632	-0.416	-16.5584862	-31.1116194	-5.3285094	70.71447636	-1.36936962	-25.22161116
3.02	302	-0.072	-0.63	-0.411	-17.8189938	-27.9030546	-9.453807	70.54831854	-1.36364004	-25.51954932
3.03	303	-0.101	-0.634	-0.429	-18.907614	-26.0122932	-12.7196676	70.36497198	-1.32926256	-25.80602832
3.04	304	-0.112	-0.617	-0.401	-19.3086846	-24.4080108	-14.037471	70.17589584	-1.27196676	-26.08677774
3.05	305	-0.093	-0.569	-0.419	-21.3713334	-23.4339822	-13.2353298	69.9581718	-1.22613012	-26.35033842
3.06	306	-0.07	-0.497	-0.437	-22.2880662	-24.1215318	-10.8289062	69.74044776	-1.2032118	-26.6138991
3.07	307	-0.086	-0.422	-0.423	-23.3193906	-25.7258142	-7.8495246	69.51126456	-1.21467096	-26.88891894
3.08	308	-0.143	-0.349	-0.403	-25.6685184	-28.0176462	-5.9014674	69.25916304	-1.25477802	-27.16966836
3.09	309	-0.206	-0.288	-0.35	-30.4240698	-27.215505	-6.0733548	68.96122488	-1.2891555	-27.45041778
3.1	310	-0.227	-0.245	-0.405	-34.3201842	-27.3873924	-7.6776372	68.60599092	-1.32353298	-27.73689678
3.11	311	-0.198	-0.26	-0.383	-31.9710564	-28.9916748	-10.026765	68.29086402	-1.33499214	-28.0462941
3.12	312	-0.088	-0.273	-0.345	-32.0283522	-31.226211	-12.5477802	67.9814667	-1.32926256	-28.38433932
3.13	313	0.016	-0.26	-0.391	-34.3201842	-35.0650296	-16.329303	67.64342148	-1.30061466	-28.76822118
3.14	314	0.101	-0.244	-0.471	-30.8824362	-40.6227222	-18.048177	67.34548332	-1.28342592	-29.21512842
3.15	315	0.129	-0.275	-0.434	-24.6944898	-46.2950064	-14.8396122	67.10484096	-1.31207382	-29.70214272
3.16	316	0.137	-0.249	-0.196	-24.9809688	-44.7480198	-12.3758928	66.8641986	-1.36364004	-30.16050912
3.17	317	0.146	-0.198	-0.154	-19.8816426	-52.2537696	-10.313244	66.68658162	-1.4610429	-30.6819009
3.18	318	0.156	-0.258	-0.269	-9.3965112	-63.311859	-7.7922288	66.61209708	-1.62147114	-31.29496596
3.19	319	0.145	-0.341	-0.26	-1.3178034	-72.765666	-6.2452422	66.62928582	-1.8334656	-31.98824514
3.2	320	0.147	-0.427	-0.123	4.8128472	-72.192708	-9.0527364	66.71522952	-2.005353	-32.6872539
3.21	321	0.198	-0.553	-0.106	20.5691922	-70.9894962	-15.6417534	66.95587188	-2.1199446	-33.4034514
3.22	322	0.148	-0.52	-0.199	16.8449652	-71.3905668	-26.4706596	67.16786634	-2.13140376	-34.15975596
3.23	323	0.076	-0.369	-0.296	5.5576926	-64.744254	-37.2995658	67.25953962	-2.02254174	-34.89887178
3.24	324	-0.08	-0.34	-0.32	17.18874	-55.4050386	-46.5241896	67.4658045	-1.78762896	-35.58642138
3.25	325	-0.252	-0.396	-0.359	31.226211	-44.977203	-52.8840234	67.79239056	-1.46677248	-36.19948644
3.26	326	-0.375	-0.436	-0.404	35.9244666	-31.4553942	-56.2644756	68.17627242	-1.05424272	-36.6979599
3.27	327	-0.466	-0.356	-0.324	37.4714532	-20.5118964	-58.0406454	68.56015428	-0.57868758	-37.09330092
3.28	328	-0.447	-0.294	-0.384	47.841993	-17.7044022	-58.2698286	69.05289816	-0.09167328	-37.46572362
3.29	329	-0.369	-0.43	-0.407	67.322565	-13.9801752	-54.0872352	69.73471818	0.36669312	-37.78085052
3.3	330	-0.186	-0.486	-0.386	72.765666	-10.1413566	-52.4829528	70.46237484	0.8307891	-38.0444112
3.31	331	-0.064	-0.479	-0.394	82.6205436	-9.6829902	-51.9672906	71.29889352	1.29488508	-38.29651272
3.32	332	0.075	-0.485	-0.402	91.8451674	-8.2505952	-52.5975444	72.22708548	1.78189938	-38.5314255
3.33	333	0.107	-0.515	-0.447	102.9032568	-7.161975	-52.2537696	73.25840988	2.26891368	-38.74341996
3.34	334	-0.018	-0.545	-0.502	114.0759378	-6.3598338	-50.8213746	74.41005546	2.7501984	-38.9324961
3.35	335	-0.198	-0.497	-0.553	124.7329566	-2.6356068	-49.274388	75.65337432	3.22002396	-39.0757356
3.36	336	-0.356	-0.397	-0.596	139.9163436	3.3231564	-50.5348956	77.06858058	3.72995658	-39.14449056
3.37	337	-0.436	-0.36	-0.597	162.9492552	13.8655836	-50.5921914	78.7244292	4.26280752	-39.09865392
3.38	338	-0.464	-0.229	-0.507	183.060081	25.3247436	-49.560867	80.59227228	4.80711762	-38.92103694
3.39	339	-0.463	-0.112	-0.342	204.259527	38.2162986	-46.0085274	82.68929856	5.32277982	-38.5887213
3.4	340	-0.421	-0.035	-0.18	222.0785208	53.1705024	-40.7946096	84.98113056	5.78114622	-38.08451826
3.41	341	-0.303	-0.039	-0.033	244.080108	67.9528188	-33.3461556	87.5193345	6.15356892	-37.40269824
3.42	342	-0.2	-0.006	0.061	261.4407354	74.0261736	-27.1582092	90.24661458	6.44004792	-36.6406641
3.43	343	-0.023	-0.216	0.312	283.4423226	83.651868	-23.2620948	93.20880744	6.6463128	-35.76976794
3.44	344	0.356	-0.533	0.699	296.9068356	92.819196	-13.9801752	96.32569896	6.7036086	-34.80146892
3.45	345	0.543	-0.814	0.975	300.0008088	94.8818448	2.6929026	99.47123838	6.54318036	-33.83889948
3.46	346	0.413	-1.514	1.308	305.959572	94.4807742	14.2093584	102.668344	6.2165943	-32.91070752
3.47	347	0.332	-2.062	1.493	272.5561206	86.516658	-7.9068204	105.5159453	6.07908438	-32.02262262
3.48	348	0.554	-2.737	1.608	275.8219812	87.949053	-52.5402486	108.4093832	6.30826758	-31.00275738
3.49	349	0.962	-3.197	1.846	292.781538	81.2454444	-108.5182452	111.5033564	7.03592424	-29.83392306
3.5	350	1.361	-3.066	2.071	242.0174592	70.3019466	-122.0973498	114.0988561	7.87244292	-28.68227748
3.51	351	1.091	-3.119	3.004	322.5180582	41.0237928	-107.2577376	117.4907675	8.65739538	-27.80565174
3.52	352	0.304	-3.893	3.81	367.6671486	-6.302538	-64.5723666	121.2722903	9.2532717	-27.49052484
3.53	353	1.091	-2.94	3.821	372.1935168	70.1300592	-36.8411994	125.1684047	9.16159842	-26.65973574
3.54	354	0.836	-0.791	1.713	480.998241	-23.1475032	-84.0529386	130.1187618	9.9694692	-26.2414764
3.55	355	0.982	-0.361	2.19	514.0579176	-63.2545632	-74.5418358	135.3670571	10.9434978	-26.12115522
3.56	356	0.59	-0.535	1.076	507.1824216	-102.7313694	-35.236917	140.4606537	11.93471514	-26.45347086
3.57	357	0.269	-0.605	1.552	372.995658	-113.9613462	-27.788463	144.1734215	13.00041702	-26.85454146
3.58	358	0.288	-0.342	1.075	246.2000526	-102.6740736	-37.4714532	146.6371409	14.04893016	-27.07799508
3.59	359	0.295	-0.151	0.886	203.4573858	-103.5335106	-53.1132066	148.6997897	15.19484616	-27.1295613
3.6	360	0.017	-0.014	0.884	171.1425546	-98.7206634	-53.571573	150.4645004	16.30638468	-27.11237256
3.61	361	-0.089	-0.077	1.094	161.287677	-93.965112	-57.868758	152.1432673	17.39500488	-27.00924012
3.62	362	-0.031	-0.508	0.963	158.422887	-82.1621772	-59.5303362	153.8220343	18.38622222	-26.79724566
3.63	363	0.05	-0.164	0.985	175.0959648	-62.6816052	-63.1972674	155.7242548	19.20555216	-26.43628212
3.64	364	0.262	0.057	1.176	174.8094858	-53.4569814	-62.9107884	157.6493937	19.93320882	-26.01802278
3.65	365	0.598	-0.05	1.244	179.335854	-43.3156248	-54.2018268	159.6146396	20.51762598	-25.6112226
3.66	366	0.56	-0.062	1.424	189.8782812	-41.0237928	-57.1239126	161.7116659	21.07339524	-25.14712662
3.67	367	0.501	-0.12	1.659	196.9256646	-29.8511118	-58.5563076	163.9060951	21.50884332	-24.61427568
3.68	368	0.412	-0.254	1.558	210.1609944	-19.3659804	-64.0567044	166.2781412	21.84115896	-23.97256272
3.69	369	0.616	-0.128	1.578	211.5933894	-13.8655836	-62.738901	168.667376	22.0875309	-23.32512018
3.7	370	0.762	-0.057	1.653	196.0662276	-13.0634424	-59.8168152	170.8961827	22.29952536	-22.6891368
3.71	371	0.636	-0.166	1.578	171.3717378	-16.4438946	-53.2277982	172.855699	22.5172494	-22.12763796
3.72	372	0.732	-0.263	1.666	146.390769	-18.048177	-49.3316838	174.5459251	22.73497344	-21.6005166
3.73	373	0.473	-0.362	1.659	128.2852962	-26.2987722	-44.2896534	176.0298863	23.01572286	-21.12496146
3.74	374	0.348	-0.305	1.557	111.2684436	-7.8495246	-49.1597964	177.3706081	23.10739614	-20.58638094
3.75	375	0.539	0.009	1.369	102.9032568	5.443101	-75.4585686	178.7399777	23.0615595	-19.76132142
3.76	376	0.27	-0.04	1.114	72.765666	22.345362	-76.2607098	179.79995	22.84383546	-18.9362619
3.77	377	0.277	-0.132	1.064	52.7694318	33.4607472	-83.1362058	-179.3243948	22.50006066	-18.048177
3.78	378	0.663	-0.043	0.651	44.8053156	44.3469492	-107.429625	-178.4477691	22.0302351	-16.91372016
3.79	379	0.434	0.004	0.785	56.722842	45.9512316	-68.8122558	-177.61698	21.54895038	-16.20325224
3.8	380	0.239	-0.069	1.004	63.5410422	52.998615	-64.2285918	-176.7518134	20.98172196	-15.56153928
3.81	381	0.48	0.119	1.072	45.0917946	50.3057124	-53.4569814	-176.11583	20.44314144	-15.0401475
3.82	382	0.23	-0.207	1.066	15.4125702	41.9978214	-38.674665	-175.8350806	20.00196378	-14.67345438
3.83	383	0.337	-0.191	0.791	-3.8388186	38.9038482	-40.9092012	-175.7491369	19.58943402	-14.28384294
3.84	384	0.21	-0.352	0.924	-9.0527364	29.5646328	-13.5218088	-175.8121623	19.28576628	-14.17498092
3.85	385	0.331	-0.311	0.891	-21.3713334	29.220858	-2.86479	-176.0413455	18.9935577	-14.1807105
3.86	386	0.308	-0.232	0.82	-31.0543236	25.9549974	16.2147114	-176.4194978	18.75291534	-14.37551622
3.87	387	0.6	0.57	0.496	-51.1078536	15.6990492	26.5852512	-177.0382924	18.621135	-14.67345438
3.88	388	0.494	0.459	0.71	-60.6189564	7.7922288	28.361421	-177.7487603	18.5638392	-14.9828517
3.89	389	0.299	0.144	0.788	-62.6243094	10.4851314	21.0848544	-178.4592283	18.4778955	-15.2120349
3.9	390	0.305	0.46	0.654	-57.5249832	6.875496	15.5844576	-179.0780229	18.4205997	-15.37819272
3.91	391	0.181	0.347	0.689	-56.6655462	3.151269	10.2559482	-179.691088	18.39768138	-15.49278432
3.92	392	0.198	0.302	0.75	-45.3782736	0.4583664	7.8495246	179.8171387	18.39768138	-15.57872802
3.93	393	0.213	0.25	0.824	-39.0757356	4.870143	7.0473834	179.3931498	18.35184474	-15.65894214
3.94	394	0.264	0.291	0.84	-35.7525792	9.5111028	6.4171296	179.0092679	18.26017146	-15.7276971
3.95	395	0.246	0.245	0.857	-34.5493674	17.1314442	4.7555514	178.6654931	18.08255448	-15.77926332
3.96	396	0.273	0.249	0.883	-37.815228	22.4599536	1.9480572	178.2701521	17.86483044	-15.80218164
3.97	397	0.266	0.188	0.92	-36.7839036	30.8251404	0.6302538	177.8919998	17.5611627	-15.80791122
3.98	398	0.264	0.031	0.977	-37.6433406	36.4974246	-0.1718874	177.5023884	17.20592874	-15.80791122
3.99	399	0.307	-0.03	1.025	-37.9298196	39.4768062	-1.2605076	177.1185065	16.82204688	-15.79072248
4	400	0.318	-0.018	1.041	-35.4088044	42.9145542	-1.3750992	176.757543	16.39805796	-15.76780416
4.01	401	0.295	-0.064	1.046	-32.945085	44.9199072	-1.3750992	176.4252274	15.96260988	-15.73915626
4.02	402	0.278	-0.035	1.057	-31.0543236	45.3782736	-1.0886202	176.1101005	15.51570264	-15.71050836
4.03	403	0.298	-0.057	1.04	-30.1375908	47.4409224	-0.9740286	175.8064327	15.05160666	-15.68759004
4.04	404	0.271	-0.055	1.055	-28.8770832	48.987909	-0.572958	175.5142241	14.57032194	-15.65894214
4.05	405	0.259	-0.075	1.046	-26.9863218	50.706783	-0.8021412	175.2392043	14.07184848	-15.62456466
4.06	406	0.277	-0.102	1.071	-24.9809688	50.8213746	-0.4010706	174.9871028	13.57337502	-15.59018718
4.07	407	0.244	-0.138	1.084	-19.9389384	50.3057124	-1.6615782	174.7922971	13.08063114	-15.54435054
4.08	408	0.223	-0.087	1.075	-15.5271618	50.0192334	-1.718874	174.6375984	12.59361684	-15.4985139
4.09	409	0.205	-0.098	1.077	-12.605076	49.5035712	-1.4896908	174.5115476	12.10660254	-15.44694768
4.1	410	0.199	-0.128	1.045	-12.0894138	48.9306132	0.3437748	174.3854969	11.61958824	-15.41829978
4.11	411	0.18	-0.105	1.034	-3.9534102	43.6021038	-0.4010706	174.3453898	11.18986974	-15.3839223
4.12	412	0.167	-0.123	1.053	0.7448454	37.815228	-0.8021412	174.3511194	10.81744704	-15.34954482
4.13	413	0.186	-0.09	1.04	3.6096354	34.7785506	-0.4583664	174.3912265	10.47367224	-15.32089692
4.14	414	0.171	-0.068	1.061	5.2712136	31.799169	-0.1145916	174.4485223	10.16427492	-15.2979786
4.15	415	0.177	-0.054	1.065	4.583664	28.5906042	-0.286479	174.5058181	9.8835255	-15.2693307
4.16	416	0.182	-0.049	1.035	0.7448454	24.8663772	1.9480572	174.5115476	9.63715356	-15.27506028
4.17	417	0.195	-0.044	0.979	-0.4010706	23.204799	1.718874	174.5000885	9.40224078	-15.27506028
4.18	418	0.116	-0.155	0.919	-1.4896908	24.5798982	2.1772404	174.4828997	9.16159842	-15.28078986
4.19	419	0.127	-0.15	0.921	-2.3491278	27.6165756	2.4637194	174.4542518	8.88657858	-15.28651944
4.2	420	0.116	-0.105	0.92	-1.3178034	29.793816	0.1718874	174.4370631	8.58864042	-15.2693307
4.21	421	0.13	-0.13	0.937	0.1718874	29.4500412	-0.5156622	174.4370631	8.30216142	-15.2406828
4.22	422	0.121	-0.107	0.956	0.7448454	26.069589	-0.3437748	174.4427927	8.04433032	-15.22349406
4.23	423	0.098	-0.111	0.979	2.7501984	21.199446	-0.0572958	174.4714406	7.83233586	-15.20630532
4.24	424	0.112	-0.138	0.981	6.3598338	15.8709366	-0.2291832	174.534466	7.6776372	-15.18911658
4.25	425	0.108	-0.103	0.997	9.2819196	11.5737516	-0.1718874	174.6318688	7.55731602	-15.183387
4.26	426	0.126	-0.063	1.016	9.6829902	8.4224826	0.0572958	174.7292717	7.47137232	-15.17765742
4.27	427	0.088	-0.082	1.022	7.448454	2.86479	0	174.8037562	7.44272442	-15.17192784
4.28	428	0.122	-0.097	1.019	10.599723	-0.572958	-0.1145916	174.9126182	7.448454	-15.17192784
4.29	429	0.113	-0.087	1.035	11.745639	-4.6409598	-0.4010706	175.0329394	7.49429064	-15.16619826
4.3	430	0.106	-0.082	1.045	10.3705398	-7.9641162	-0.7448454	175.147531	7.5630456	-15.16619826
4.31	431	0.132	-0.082	1.04	8.9954406	-10.7143146	-0.572958	175.2392043	7.66617804	-15.16619826
4.32	432	0.123	-0.105	1.029	10.0840608	-12.4331886	-0.9167328	175.3423367	7.7922288	-15.16046868
4.33	433	0.193	-0.08	1.04	8.880849	-13.8082878	-1.2605076	175.43401	7.92400914	-15.1547391
4.34	434	0.11	-0.061	1.058	4.3544808	-14.896908	-0.1145916	175.4798467	8.07297822	-15.16046868
4.35	435	0.063	-0.05	1.026	2.9220858	-16.2720072	0.7448454	175.5142241	8.19902898	-15.17765742
4.36	436	0.094	-0.058	0.969	-0.2291832	-13.5218088	0.3437748	175.5142241	8.33080932	-15.18911658
4.37	437	0.157	-0.081	0.939	-2.6356068	-11.9748222	-0.1145916	175.4855762	8.4511305	-15.19484616
4.38	438	0.159	-0.09	0.949	-4.2398892	-12.032118	0	175.4454692	8.57145168	-15.20057574
4.39	439	0.146	-0.078	0.969	-4.583664	-13.0061466	0.1145916	175.3996325	8.69750244	-15.2120349
4.4	440	0.148	-0.066	0.985	-5.443101	-14.2093584	0.286479	175.3480663	8.84074194	-15.22349406
4.41	441	0.141	-0.07	0.988	-7.161975	-14.2666542	0.5156622	175.2735818	8.97825186	-15.23495322
4.42	442	0.145	-0.073	0.986	-8.4797784	-13.750992	0.5156622	175.1876381	9.11576178	-15.24641238
4.43	443	0.144	-0.072	0.984	-10.026765	-12.1467096	0.4010706	175.0845056	9.23608296	-15.26360112
4.44	444	0.156	-0.077	0.993	-10.5424272	-10.8289062	0.4583664	174.9756436	9.34494498	-15.27506028
4.45	445	0.149	-0.077	0.997	-11.0007936	-10.1413566	0.572958	174.8667816	9.44234784	-15.28651944
4.46	446	0.159	-0.08	0.995	-10.7716104	-8.880849	0.5156622	174.75219	9.53402112	-15.2979786
4.47	447	0.155	-0.078	1.009	-10.9434978	-8.3651868	0.5156622	174.643328	9.61423524	-15.30943776
4.48	448	0.157	-0.084	1.007	-10.4851314	-7.161975	0.4010706	174.534466	9.68871978	-15.32089692
4.49	449	0.162	-0.087	1.006	-9.9121734	-5.8441716	0.1145916	174.4313335	9.74601558	-15.3266265
4.5	450	0.164	-0.089	1.009	-8.8235532	-4.8128472	0	174.3453898	9.79185222	-15.33235608
4.51	451	0.168	-0.09	1.019	-7.2192708	-3.5523396	-0.1718874	174.2709053	9.83195928	-15.33235608
4.52	452	0.171	-0.092	1.021	-6.1879464	-2.86479	-0.2291832	174.2078799	9.86060718	-15.33235608
4.53	453	0.172	-0.093	1.019	-4.9274388	-2.3491278	-0.2291832	174.1620433	9.8835255	-15.33235608
4.54	454	0.173	-0.095	1.018	-3.3804522	-2.0626488	-0.3437748	174.1276658	9.90644382	-15.3266265
4.55	455	0.178	-0.091	1.017	-1.8334656	-2.005353	-0.3437748	174.1162066	9.93509172	-15.3266265
4.56	456	0.177	-0.091	1.016	-0.9740286	-2.1199446	-0.4010706	174.1047475	9.95228046	-15.32089692
4.57	457	0.18	-0.09	1.011	-0.2291832	-2.291832	-0.4010706	174.1047475	9.97519878	-15.32089692
4.58	458	0.181	-0.092	1.007	0.4583664	-2.578311	-0.3437748	174.110477	10.00384668	-15.32089692
4.59	459	0.179	-0.091	0.999	0.9740286	-2.4637194	-0.3437748	174.1219362	10.026765	-15.31516734
4.6	460	0.182	-0.088	0.994	1.3178034	-2.2345362	-0.286479	174.1448545	10.06114248	-15.31516734
4.61	461	0.18	-0.089	0.99	1.3178034	-1.8334656	-0.286479	174.1563137	10.0840608	-15.30943776
4.62	462	0.177	-0.087	0.987	1.2032118	-1.3178034	-0.1718874	174.1677728	10.09551996	-15.30943776
4.63	463	0.169	-0.087	0.983	0.8021412	-0.5156622	-0.2291832	174.179232	10.10124954	-15.30943776
4.64	464	0.178	-0.089	0.982	0.6302538	0.0572958	-0.1145916	174.1849616	10.10124954	-15.30370818
4.65	465	0.169	-0.088	0.983	0.286479	0.8021412	0	174.2021503	10.07260164	-15.30370818
4.66	466	0.164	-0.089	0.983	0	1.432395	0	174.2021503	10.0554129	-15.30370818
4.67	467	0.167	-0.09	0.985	-0.2291832	2.1772404	-0.0572958	174.1964207	10.03822416	-15.2979786
4.68	468	0.167	-0.09	0.987	-0.4010706	2.86479	-0.0572958	174.1964207	10.00957626	-15.2979786
4.69	469	0.163	-0.091	0.99	-0.6302538	3.5523396	0	174.1849616	9.97519878	-15.29224902
4.7	470	0.16	-0.091	0.993	-0.7448454	4.297185	-0.0572958	174.1849616	9.91790298	-15.29224902
4.71	471	0.16	-0.091	0.995	-0.6875496	4.8128472	-0.0572958	174.179232	9.87206634	-15.28651944
4.72	472	0.162	-0.092	0.996	-0.572958	5.3858052	-0.0572958	174.1735024	9.81477054	-15.28078986
4.73	473	0.16	-0.094	0.999	-0.5156622	5.6149884	-0.1145916	174.1677728	9.76320432	-15.27506028
4.74	474	0.16	-0.095	1.004	-0.1718874	5.9014674	-0.0572958	174.1677728	9.70590852	-15.2693307
4.75	475	0.161	-0.093	1.008	0.3437748	5.8441716	-0.1718874	174.1735024	9.64288314	-15.26360112
4.76	476	0.165	-0.094	1.014	0.8021412	5.6149884	-0.1718874	174.179232	9.58558734	-15.25787154
4.77	477	0.162	-0.095	1.017	0.9740286	5.3285094	-0.1145916	174.1906912	9.53402112	-15.25214196
4.78	478	0.159	-0.096	1.019	1.432395	5.0993262	-0.1145916	174.2078799	9.4824549	-15.24641238
4.79	479	0.157	-0.098	1.016	1.6042824	4.6982556	-0.1718874	174.2250686	9.43661826	-15.2406828
4.8	480	0.154	-0.097	1.012	1.7761698	4.297185	-0.2291832	174.2422574	9.38505204	-15.23495322
4.81	481	0.156	-0.095	1.009	1.6615782	4.1252976	-0.286479	174.2594461	9.34494498	-15.22922364
4.82	482	0.157	-0.095	1.006	1.6615782	3.6096354	-0.286479	174.2766349	9.3105675	-15.22349406
4.83	483	0.155	-0.094	1.005	1.4896908	2.8074942	-0.3437748	174.288094	9.2819196	-15.21776448
4.84	484	0.154	-0.093	1.004	1.2032118	2.4637194	-0.286479	174.3052828	9.25900128	-15.2120349
4.85	485	0.154	-0.093	1.002	0.7448454	1.8907614	-0.286479	174.3110123	9.2246238	-15.2120349
4.86	486	0.154	-0.093	0.999	0.1718874	1.3750992	-0.2291832	174.3167419	9.21316464	-15.20630532
4.87	487	0.154	-0.092	0.996	-0.3437748	1.0886202	-0.286479	174.3110123	9.20170548	-15.20057574
4.88	488	0.155	-0.091	0.995	-0.8021412	0.6875496	-0.286479	174.3052828	9.1959759	-15.20057574
4.89	489	0.154	-0.091	0.995	-1.2605076	0.286479	-0.1718874	174.288094	9.1959759	-15.19484616
4.9	490	0.153	-0.09	0.995	-1.718874	0	-0.1718874	174.2823644	9.18451674	-15.19484616
4.91	491	0.154	-0.092	0.997	-2.005353	-0.5156622	-0.1718874	174.2594461	9.19024632	-15.19484616
4.92	492	0.154	-0.091	0.998	-2.2345362	-0.6875496	-0.1718874	174.2365278	9.1959759	-15.19484616
4.93	493	0.154	-0.092	0.999	-2.4064236	-0.8021412	-0.1718874	174.2136095	9.20743506	-15.18911658
4.94	494	0.154	-0.091	1.001	-2.291832	-1.0886202	-0.0572958	174.1906912	9.21889422	-15.18911658
4.95	495	0.154	-0.093	1.003	-2.291832	-1.3178034	-0.1145916	174.1677728	9.2246238	-15.18911658
4.96	496	0.156	-0.094	1.005	-2.1199446	-1.5469866	-0.1145916	174.1505841	9.24181254	-15.18911658
4.97	497	0.157	-0.093	1.006	-1.7761698	-1.8334656	-0.0572958	174.1333954	9.25900128	-15.18911658
4.98	498	0.157	-0.094	1.007	-1.4896908	-2.005353	-0.1145916	174.1162066	9.2819196	-15.18911658
4.99	499	0.158	-0.094	1.007	-1.0313244	-2.4064236	-0.1145916	174.1047475	9.30483792	-15.18911658
5	500	0.158	-0.094	1.007	-0.859437	-2.4637194	-0.1718874	174.0990179	9.32202666	-15.18911658
5.01	501	0.158	-0.093	1.007	-0.572958	-2.4637194	-0.1718874	174.0932883	9.35067456	-15.18911658
5.02	502	0.161	-0.095	1.006	-0.3437748	-2.4064236	-0.2291832	174.0932883	9.37359288	-15.18911658
5.03	503	0.161	-0.094	1.004	-0.1718874	-2.3491278	-0.2291832	174.0932883	9.3965112	-15.18911658
5.04	504	0.161	-0.094	1.002	-0.1145916	-2.1199446	-0.1718874	174.0875587	9.41942952	-15.18911658
5.05	505	0.162	-0.095	1.001	-0.0572958	-1.8907614	-0.2291832	174.0990179	9.43661826	-15.18911658
5.06	506	0.163	-0.095	1	0	-1.8907614	-0.1718874	174.0990179	9.453807	-15.18911658
5.07	507	0.163	-0.094	1	0	-1.6615782	-0.1718874	174.0990179	9.47099574	-15.183387
5.08	508	0.165	-0.093	1.001	-0.1145916	-1.3750992	-0.1145916	174.0932883	9.48818448	-15.183387
5.09	509	0.166	-0.094	1	-0.1145916	-1.2032118	-0.1718874	174.0932883	9.49964364	-15.183387
5.1	510	0.165	-0.095	1.001	-0.1145916	-1.0313244	-0.1145916	174.110477	9.5111028	-15.183387
5.11	511	0.158	-0.091	0.998	-0.1145916	-0.6302538	-0.1145916	174.110477	9.51683238	-15.17765742
5.12	512	0.163	-0.093	0.993	-0.0572958	-0.286479	-0.2291832	174.110477	9.52256196	-15.17765742
5.13	513	0.165	-0.094	0.994	0	-0.0572958	-0.2291832	174.110477	9.52256196	-15.17192784
5.14	514	0.164	-0.094	0.999	-0.1145916	0.2291832	-0.1718874	174.1047475	9.52256196	-15.17192784
5.15	515	0.162	-0.094	0.996	-0.2291832	0.6875496	-0.1718874	174.110477	9.49964364	-15.17192784
5.16	516	0.163	-0.093	0.996	-0.1718874	0.6875496	-0.1718874	174.110477	9.49391406	-15.16619826
5.17	517	0.163	-0.095	0.996	-0.0572958	0.859437	-0.2291832	174.110477	9.48818448	-15.16619826
5.18	518	0.163	-0.093	0.997	0.1145916	0.9740286	-0.1718874	174.110477	9.47672532	-15.16046868
5.19	519	0.162	-0.094	1	0.2291832	1.145916	-0.2291832	174.1162066	9.46526616	-15.1547391
5.2	520	0.163	-0.095	1.003	0.3437748	1.5469866	-0.1718874	174.1219362	9.453807	-15.1547391
5.21	521	0.164	-0.094	1.01	0.1145916	1.718874	-0.2291832	174.1276658	9.43661826	-15.14900952
5.22	522	0.162	-0.095	1.012	0	1.718874	-0.2291832	174.1276658	9.41942952	-15.14327994
5.23	523	0.162	-0.095	1.009	0.0572958	1.5469866	-0.2291832	174.1276658	9.40224078	-15.14327994
5.24	524	0.162	-0.096	1.005	0.286479	1.6042824	-0.286479	174.1333954	9.38505204	-15.13755036
5.25	525	0.161	-0.096	1.002	0.6302538	1.718874	-0.2291832	174.1391249	9.3678633	-15.13182078
5.26	526	0.16	-0.094	1.001	0.859437	1.718874	-0.1718874	174.1505841	9.35067456	-15.1260912
5.27	527	0.16	-0.094	1.001	0.7448454	1.718874	-0.2291832	174.1563137	9.33348582	-15.1260912
5.28	528	0.159	-0.094	0.998	0.6875496	1.5469866	-0.286479	174.1677728	9.32202666	-15.12036162
5.29	529	0.159	-0.093	0.997	0.572958	1.3750992	-0.286479	174.1735024	9.30483792	-15.11463204
5.3	530	0.157	-0.093	0.997	0.6302538	1.145916	-0.2291832	174.1849616	9.28764918	-15.11463204
5.31	531	0.159	-0.092	0.999	0.572958	0.9740286	-0.2291832	174.1906912	9.27619002	-15.10890246
5.32	532	0.16	-0.093	0.999	0.6302538	0.7448454	-0.2291832	174.1964207	9.27046044	-15.10317288
5.33	533	0.158	-0.094	1	0.6875496	0.4583664	-0.1718874	174.2078799	9.26473086	-15.10317288
5.34	534	0.158	-0.095	1.001	0.572958	0.2291832	-0.1718874	174.2136095	9.26473086	-15.10317288
5.35	535	0.16	-0.092	1.002	0.5156622	0.1145916	-0.1718874	174.2250686	9.26473086	-15.0974433
5.36	536	0.16	-0.093	1.003	0.5156622	0	-0.1145916	174.2307982	9.26473086	-15.0974433
5.37	537	0.16	-0.093	1.004	0.5156622	-0.1145916	-0.1718874	174.2365278	9.26473086	-15.09171372
5.38	538	0.159	-0.093	1.005	0.3437748	-0.1718874	-0.1145916	174.2422574	9.26473086	-15.09171372
5.39	539	0.158	-0.094	1.004	0.3437748	-0.2291832	-0.1145916	174.247987	9.27046044	-15.09171372
5.4	540	0.161	-0.092	1.004	0.4010706	-0.286479	-0.1145916	174.2709053	9.28764918	-15.08598414
5.41	541	0.16	-0.093	1.003	0.4583664	-0.286479	-0.1145916	174.2766349	9.28764918	-15.08598414
5.42	542	0.162	-0.093	1.003	0.5156622	-0.4583664	-0.1718874	174.2823644	9.29337876	-15.08025456
5.43	543	0.159	-0.093	1.001	0.4583664	-0.3437748	-0.1718874	174.288094	9.29910834	-15.08025456
5.44	544	0.159	-0.093	1.002	0.5156622	-0.4010706	-0.1718874	174.2938236	9.30483792	-15.08025456
5.45	545	0.16	-0.093	1.001	0.5156622	-0.4010706	-0.1145916	174.2938236	9.30483792	-15.07452498
5.46	546	0.16	-0.092	1.001	0.4010706	-0.1145916	-0.1718874	174.2995532	9.30483792	-15.07452498
5.47	547	0.161	-0.092	1	0.4010706	-0.0572958	-0.1718874	174.3052828	9.3105675	-15.07452498
5.48	548	0.161	-0.092	1	0.4583664	-0.1145916	-0.1718874	174.3110123	9.3105675	-15.0687954
5.49	549	0.161	-0.092	1	0.3437748	0	-0.286479	174.3110123	9.3105675	-15.0687954
5.5	550	0.161	-0.092	1.002	0.3437748	0.0572958	-0.1718874	174.3224715	9.31629708	-15.06306582
5.51	551	0.162	-0.092	1.001	0.2291832	0.0572958	-0.1718874	174.3224715	9.3105675	-15.06306582
5.52	552	0.162	-0.091	1.002	0.0572958	0.286479	-0.2291832	174.3224715	9.3105675	-15.05733624
5.53	553	0.162	-0.091	1.003	0.1145916	0.4010706	-0.1718874	174.3282011	9.30483792	-15.05733624
5.54	554	0.162	-0.091	1.003	0.0572958	0.3437748	-0.1718874	174.3282011	9.30483792	-15.05733624
5.55	555	0.162	-0.092	1.001	0.1145916	0.4583664	-0.1718874	174.3282011	9.3105675	-15.05160666
5.56	556	0.161	-0.091	1.001	0.2291832	0.4583664	-0.1718874	174.3339307	9.30483792	-15.05160666
5.57	557	0.161	-0.091	1.001	0.2291832	0.4583664	-0.2291832	174.3339307	9.29910834	-15.04587708
5.58	558	0.162	-0.091	1	0.3437748	0.5156622	-0.2291832	174.3396602	9.29337876	-15.04587708
5.59	559	0.162	-0.091	1	0.4010706	0.4583664	-0.2291832	174.3453898	9.28764918	-15.0401475
5.6	560	0.162	-0.091	1	0.4583664	0.5156622	-0.1718874	174.3511194	9.29337876	-15.03441792
5.61	561	0.16	-0.091	1	0.4010706	0.6875496	-0.1718874	174.356849	9.28764918	-15.03441792
5.62	562	0.16	-0.091	1	0.572958	0.572958	-0.1718874	174.3625786	9.2819196	-15.02868834
5.63	563	0.16	-0.09	1.002	0.6302538	0.6875496	-0.1718874	174.3683081	9.27046044	-15.02868834
5.64	564	0.161	-0.09	1.003	0.572958	0.6302538	-0.2291832	174.3797673	9.26473086	-15.02868834
5.65	565	0.16	-0.089	1.004	0.6302538	0.6302538	-0.2291832	174.3912265	9.26473086	-15.02295876
5.66	566	0.16	-0.09	1.003	0.6302538	0.6875496	-0.1718874	174.396956	9.2532717	-15.01722918
5.67	567	0.161	-0.09	1.003	0.7448454	0.6302538	-0.1718874	174.4026856	9.24754212	-15.01722918
5.68	568	0.16	-0.089	1.003	0.7448454	0.572958	-0.1145916	174.4141448	9.24181254	-15.01722918
5.69	569	0.16	-0.091	1.003	0.7448454	0.6302538	-0.2291832	174.4198744	9.23608296	-15.0114996
5.7	570	0.16	-0.09	1.002	0.7448454	0.572958	-0.2291832	174.4313335	9.23035338	-15.00577002
5.71	571	0.16	-0.091	1	0.4583664	0.572958	-0.1718874	174.4313335	9.2246238	-15.00577002
5.72	572	0.161	-0.09	1.001	0.1718874	0.4010706	0	174.4370631	9.2246238	-15.00577002
5.73	573	0.16	-0.089	1.001	0.2291832	0.3437748	0	174.4370631	9.21889422	-15.00577002
5.74	574	0.159	-0.091	0.999	0.1718874	0.286479	0	174.4427927	9.21316464	-15.00577002
5.75	575	0.159	-0.089	1	0.1145916	0.1145916	0	174.4886293	9.23035338	-14.99431086
5.76	576	0.16	-0.088	1.002	0	0.1145916	0	174.4886293	9.23035338	-15.00004044
5.77	577	0.161	-0.089	1.003	-0.1145916	0.3437748	0.0572958	174.4886293	9.2246238	-15.00004044
5.78	578	0.159	-0.088	1	-0.1145916	0.3437748	0	174.4886293	9.2246238	-15.00004044
5.79	579	0.159	-0.088	0.999	0	0.286479	0	174.4886293	9.21889422	-15.00004044
5.8	580	0.16	-0.089	1.001	0.0572958	0.1145916	0	174.5000885	9.2246238	-14.99431086
5.81	581	0.159	-0.089	1.002	0.0572958	0.1145916	0	174.5000885	9.2246238	-14.99431086
5.82	582	0.159	-0.089	1.001	0.1145916	-0.1145916	0	174.5000885	9.2246238	-14.99431086
5.83	583	0.16	-0.09	1.004	0.0572958	-0.1145916	0	174.5000885	9.23035338	-14.99431086
5.84	584	0.16	-0.089	1.01	-0.1718874	-0.2291832	0	174.5000885	9.23035338	-14.99431086
5.85	585	0.161	-0.089	1.01	-0.572958	-0.4010706	0	174.4943589	9.23608296	-14.99431086
5.86	586	0.161	-0.089	1.007	-0.6875496	-0.6302538	0	174.4886293	9.24181254	-14.99431086
5.87	587	0.161	-0.09	1.003	-0.572958	-0.4583664	0.0572958	174.4828997	9.24754212	-15.00004044
5.88	588	0.16	-0.09	1.001	-0.4583664	-0.1145916	0	174.4771702	9.24754212	-15.00004044
5.89	589	0.16	-0.087	0.998	-0.3437748	0	0	174.4714406	9.24754212	-15.00004044
5.9	590	0.159	-0.087	0.997	-0.286479	0	0	174.4828997	9.25900128	-14.99431086
5.91	591	0.159	-0.087	0.997	-0.2291832	-0.1718874	0	174.4828997	9.25900128	-14.99431086
5.92	592	0.159	-0.087	0.999	-0.1145916	-0.286479	0	174.4771702	9.26473086	-14.99431086
5.93	593	0.16	-0.088	1	-0.0572958	-0.4010706	0	174.4771702	9.26473086	-15.00004044
5.94	594	0.161	-0.088	1.001	0	-0.286479	0	174.4771702	9.27046044	-15.00004044
5.95	595	0.161	-0.088	1.002	0.1145916	-0.286479	0	174.4886293	9.27619002	-14.99431086
5.96	596	0.16	-0.087	1.002	0.2291832	-0.4010706	0	174.4943589	9.27619002	-14.99431086
5.97	597	0.16	-0.087	1.003	0.3437748	-0.3437748	0	174.4943589	9.2819196	-14.99431086
5.98	598	0.161	-0.088	1.004	0.4010706	-0.4010706	0.0572958	174.5000885	9.28764918	-15.00004044
5.99	599	0.161	-0.087	1.004	0.3437748	-0.4010706	0	174.5058181	9.28764918	-15.00004044
6	600	0.16	-0.088	1.004	0.286479	-0.4010706	0	174.5172772	9.29337876	-14.99431086
6.01	601	0.161	-0.087	1.003	0.1718874	-0.3437748	0	174.5230068	9.29910834	-14.99431086
6.02	602	0.161	-0.087	1.004	0.0572958	-0.1145916	0	174.5230068	9.29910834	-14.99431086
6.03	603	0.16	-0.086	1.002	0.1718874	-0.1145916	0	174.5230068	9.29910834	-15.00004044
6.04	604	0.161	-0.088	1.001	0.286479	0	0	174.5287364	9.29910834	-15.00004044
6.05	605	0.161	-0.087	1	0.2291832	0	0	174.5401955	9.29910834	-14.99431086
6.06	606	0.16	-0.087	1.003	0.1718874	0	0	174.5401955	9.29910834	-14.99431086
6.07	607	0.16	-0.086	1.002	0.0572958	0.1145916	0	174.5401955	9.29910834	-14.99431086
6.08	608	0.16	-0.087	1.001	0.0572958	0.1718874	0	174.5459251	9.29337876	-14.99431086
6.09	609	0.16	-0.088	1	0.0572958	0.0572958	0	174.5459251	9.29337876	-14.99431086
6.1	610	0.159	-0.087	1	0.0572958	0.0572958	-0.0572958	174.5573843	9.29910834	-14.99431086
6.11	611	0.16	-0.087	1.003	0	0.0572958	0	174.5631139	9.29337876	-14.99431086
6.12	612	0.161	-0.087	1.005	-0.1718874	0.1718874	0	174.5573843	9.29337876	-14.99431086
6.13	613	0.161	-0.086	1.004	-0.3437748	0.286479	0	174.5573843	9.28764918	-14.99431086
6.14	614	0.16	-0.086	1.003	-0.4583664	0.286479	0	174.5516547	9.28764918	-14.99431086
6.15	615	0.16	-0.086	1.004	-0.5156622	0.2291832	0	174.5516547	9.28764918	-14.98858128
6.16	616	0.16	-0.087	1.005	-0.572958	0.1718874	0	174.5459251	9.2819196	-14.98858128
6.17	617	0.161	-0.085	1.004	-0.572958	0.1145916	0	174.5401955	9.2819196	-14.98858128
6.18	618	0.159	-0.085	1.002	-0.572958	0.286479	0.0572958	174.534466	9.27619002	-14.98858128
6.19	619	0.16	-0.086	1.003	-0.4583664	0.1145916	0	174.5287364	9.27619002	-14.98858128
6.2	620	0.16	-0.085	1.003	-0.4010706	0.1145916	0	174.5573843	9.27619002	-14.98858128
6.21	621	0.16	-0.085	1.002	-0.3437748	0.1145916	0	174.5516547	9.27619002	-14.98858128
6.22	622	0.16	-0.085	1.001	-0.4010706	0.1718874	0	174.5459251	9.27619002	-14.9828517
6.23	623	0.16	-0.086	1.002	-0.2291832	0.0572958	0	174.5459251	9.27619002	-14.9828517
6.24	624	0.159	-0.085	1.002	-0.286479	0.0572958	0	174.5401955	9.27619002	-14.9828517
6.25	625	0.16	-0.086	1.004	-0.286479	0.0572958	0	174.5631139	9.27619002	-14.9828517
6.26	626	0.16	-0.086	1.005	-0.3437748	-0.0572958	0	174.5573843	9.27619002	-14.9828517
6.27	627	0.161	-0.085	1.005	-0.3437748	0	0	174.5573843	9.27619002	-14.9828517
6.28	628	0.16	-0.085	1.004	-0.4010706	0.0572958	0	174.5516547	9.27619002	-14.9828517
6.29	629	0.16	-0.085	1.005	-0.3437748	0	0	174.5459251	9.27619002	-14.9828517
6.3	630	0.16	-0.085	1.003	-0.3437748	0	0	174.5688434	9.27619002	-14.97712212
6.31	631	0.16	-0.086	1.003	-0.3437748	0	0	174.5631139	9.27619002	-14.97712212
6.32	632	0.16	-0.086	1.003	-0.286479	0.1145916	0	174.5573843	9.27619002	-14.97712212
6.33	633	0.16	-0.086	1.002	-0.286479	0	-0.0572958	174.5573843	9.27619002	-14.97712212
6.34	634	0.16	-0.086	1.002	-0.2291832	0	0	174.5516547	9.27619002	-14.97712212
6.35	635	0.16	-0.086	1.001	-0.4010706	0	0	174.5688434	9.28764918	-14.97139254
6.36	636	0.16	-0.086	0.999	-0.3437748	-0.0572958	0	174.5688434	9.28764918	-14.97139254
6.37	637	0.16	-0.086	1.002	-0.3437748	-0.0572958	0	174.5631139	9.28764918	-14.97139254
6.38	638	0.16	-0.085	1.002	-0.3437748	0.1145916	0	174.5573843	9.28764918	-14.97139254
6.39	639	0.159	-0.085	1.001	-0.3437748	0.1718874	0	174.5573843	9.2819196	-14.97139254
6.4	640	0.16	-0.085	1.003	-0.286479	0	0	174.5688434	9.2819196	-14.96566296
6.41	641	0.161	-0.086	1.005	-0.286479	0	0	174.5631139	9.2819196	-14.96566296
6.42	642	0.16	-0.085	1.004	-0.3437748	0	0.1145916	174.5573843	9.2819196	-14.97139254
6.43	643	0.16	-0.086	1.002	-0.2291832	0.0572958	0	174.5573843	9.2819196	-14.97139254
6.44	644	0.161	-0.087	1.004	-0.1718874	0.1718874	0	174.5516547	9.2819196	-14.97139254
6.45	645	0.16	-0.087	1.008	-0.3437748	0.0572958	0	174.5573843	9.27619002	-14.97139254
6.46	646	0.16	-0.087	1.008	-0.6302538	-0.286479	0	174.5516547	9.2819196	-14.97139254
6.47	647	0.159	-0.088	1.005	-0.6302538	-0.3437748	0	174.5459251	9.2819196	-14.97139254
6.48	648	0.16	-0.087	1.002	-0.572958	-0.1145916	0	174.5401955	9.2819196	-14.97139254
6.49	649	0.16	-0.087	1.001	-0.3437748	0.0572958	0	174.534466	9.2819196	-14.97139254
6.5	650	0.159	-0.086	0.997	-0.2291832	0.1718874	0	174.5401955	9.2819196	-14.97139254
6.51	651	0.159	-0.085	0.998	-0.4010706	0.0572958	0	174.5401955	9.27619002	-14.97139254
6.52	652	0.158	-0.086	0.998	-0.4010706	0.1145916	0.0572958	174.534466	9.27619002	-14.97139254
6.53	653	0.159	-0.085	1	-0.286479	0	0	174.5287364	9.27619002	-14.97139254
6.54	654	0.16	-0.085	1.002	-0.1145916	0	0	174.5287364	9.27619002	-14.97139254
6.55	655	0.16	-0.085	1.003	-0.0572958	-0.0572958	0	174.5573843	9.27619002	-14.96566296
6.56	656	0.16	-0.087	1.003	0.0572958	-0.0572958	0.0572958	174.5573843	9.27619002	-14.96566296
6.57	657	0.16	-0.086	1.005	0.0572958	-0.1145916	0	174.5573843	9.27619002	-14.96566296
6.58	658	0.16	-0.085	1.005	0.1145916	-0.1145916	0.0572958	174.5631139	9.2819196	-14.97139254
6.59	659	0.16	-0.086	1.004	0.1145916	-0.0572958	0	174.5631139	9.2819196	-14.97139254
6.6	660	0.161	-0.086	1.005	0.1145916	-0.0572958	0	174.5917618	9.29337876	-14.96566296
6.61	661	0.16	-0.087	1.005	0.1145916	-0.0572958	0.0572958	174.5917618	9.29337876	-14.96566296
6.62	662	0.16	-0.087	1.004	0.1145916	0	0	174.5917618	9.29337876	-14.96566296
6.63	663	0.16	-0.086	1.004	0.1718874	-0.0572958	0	174.5974913	9.29337876	-14.96566296
6.64	664	0.16	-0.087	1.002	0.1718874	0.0572958	0	174.5974913	9.29337876	-14.96566296
6.65	665	0.159	-0.087	1.001	0.286479	0.1145916	0	174.6089505	9.28764918	-14.96566296
6.66	666	0.16	-0.086	1.001	0.286479	0.1145916	0	174.6089505	9.28764918	-14.96566296
6.67	667	0.159	-0.086	1.001	0.2291832	0.2291832	0	174.6146801	9.2819196	-14.96566296
6.68	668	0.16	-0.087	1.003	0.0572958	0.286479	0	174.6146801	9.2819196	-14.96566296
6.69	669	0.159	-0.087	1.002	-0.0572958	0.286479	0	174.6146801	9.27619002	-14.96566296
6.7	670	0.16	-0.087	1.002	0	0.1718874	0	174.6146801	9.27046044	-14.96566296
6.71	671	0.159	-0.087	1.002	-0.1145916	0.1718874	0	174.6146801	9.27046044	-14.96566296
6.72	672	0.16	-0.086	1.002	-0.1718874	0.1145916	-0.0572958	174.6089505	9.26473086	-14.96566296
6.73	673	0.16	-0.087	1.002	-0.1718874	0.1718874	0	174.6089505	9.26473086	-14.96566296
6.74	674	0.16	-0.087	1.003	-0.2291832	0.1145916	0	174.6089505	9.26473086	-14.96566296
6.75	675	0.16	-0.088	1.003	-0.286479	0.2291832	0	174.6032209	9.26473086	-14.96566296
6.76	676	0.16	-0.088	1.003	-0.3437748	0.2291832	0	174.5974913	9.25900128	-14.96566296
6.77	677	0.159	-0.086	1.003	-0.4010706	0.0572958	0	174.5974913	9.25900128	-14.96566296
6.78	678	0.158	-0.087	1.002	-0.3437748	0	0	174.5917618	9.25900128	-14.96566296
6.79	679	0.158	-0.087	1.002	-0.286479	0	0	174.5917618	9.25900128	-14.96566296
6.8	680	0.159	-0.088	1.001	-0.2291832	0	0	174.5860322	9.25900128	-14.96566296
6.81	681	0.158	-0.087	1.001	-0.1145916	-0.0572958	0	174.5860322	9.25900128	-14.96566296
6.82	682	0.159	-0.086	1.002	-0.1145916	-0.1718874	0	174.5803026	9.25900128	-14.96566296
6.83	683	0.159	-0.087	1.002	-0.1145916	-0.1718874	0	174.5803026	9.26473086	-14.96566296
