TimeStamp(s)	FrameCounter	AccX	AccY	AccZ	GyrX	GyrY	GyrZ	EulerX	EulerY	EulerZ
0.01	1	0.014	-1.003	0.058	-4.6409598	3.8961144	-2.1199446	99.28789182	0.59014674	-27.52490232
0.02	2	0.016	-1.008	0.061	-4.1252976	2.2345362	-1.8334656	99.24778476	0.60733548	-27.501984
0.03	3	0.017	-1.011	0.065	-3.6096354	0.1718874	-1.3178034	99.2076777	0.61879464	-27.49625442
0.04	4	0.014	-1.013	0.063	-3.5523396	-1.0313244	-1.145916	99.17330022	0.6302538	-27.50771358
0.05	5	0.009	-1.011	0.065	-3.6669312	-1.145916	-1.145916	99.00141282	0.64744254	-27.51917274
0.06	6	0.004	-1.009	0.068	-3.437748	-0.6875496	-1.3178034	98.96703534	0.6589017	-27.51917274
0.07	7	0	-1.008	0.065	-3.151269	0.1145916	-1.6615782	98.93265786	0.67609044	-27.51917274
0.08	8	-0.002	-1.004	0.061	-2.9793816	1.0886202	-2.005353	98.90400996	0.69327918	-27.501984
0.09	9	-0.001	-1.003	0.055	-2.9793816	1.6615782	-2.1199446	98.86963248	0.71046792	-27.48479526
0.1	10	0.002	-1.002	0.054	-3.437748	2.005353	-2.005353	98.72639298	0.72192708	-27.46187694
0.11	11	0.005	-1.004	0.05	-4.4117766	1.9480572	-1.6042824	98.68055634	0.73338624	-27.43895862
0.12	12	0.007	-1.006	0.047	-5.0993262	1.6615782	-1.432395	98.62899012	0.7448454	-27.42176988
0.13	13	0.007	-1.004	0.052	-4.9847346	1.3178034	-1.2605076	98.5774239	0.75630456	-27.40458114
0.14	14	0.006	-1.006	0.049	-4.7555514	0.859437	-1.2032118	98.52585768	0.76776372	-27.39885156
0.15	15	0.006	-1.008	0.046	-4.8128472	0.4583664	-1.2032118	98.35397028	0.7734933	-27.3873924
0.16	16	0.004	-1.01	0.044	-5.0420304	0.3437748	-1.2032118	98.30240406	0.77922288	-27.38166282
0.17	17	0	-1.009	0.043	-5.443101	0.859437	-1.3178034	98.24510826	0.79068204	-27.37020366
0.18	18	-0.004	-1.007	0.038	-5.72958	1.718874	-1.432395	98.18781246	0.8021412	-27.35301492
0.19	19	-0.008	-1.005	0.036	-5.443101	2.6356068	-1.432395	98.13051666	0.81360036	-27.32436702
0.2	20	-0.008	-1.005	0.038	-5.156622	3.437748	-1.3750992	97.99300674	0.8021412	-27.27853038
0.21	21	-0.007	-1.009	0.041	-5.2139178	3.9534102	-1.2032118	97.94144052	0.80787078	-27.23842332
0.22	22	-0.005	-1.011	0.045	-5.6722842	4.1825934	-1.0313244	97.88414472	0.80787078	-27.19831626
0.23	23	-0.002	-1.01	0.052	-6.2452422	4.0680018	-0.9740286	97.82111934	0.81360036	-27.1582092
0.24	24	0	-1.01	0.051	-6.8182002	3.8961144	-0.9167328	97.75236438	0.81360036	-27.11810214
0.25	25	0.003	-1.009	0.05	-7.2765666	3.3804522	-1.0313244	97.61485446	0.81360036	-27.08372466
0.26	26	0.007	-1.008	0.049	-7.6203414	2.7501984	-1.0313244	97.53464034	0.81932994	-27.05507676
0.27	27	0.009	-1.009	0.05	-7.9068204	2.005353	-0.9740286	97.45442622	0.82505952	-27.03788802
0.28	28	0.011	-1.013	0.055	-8.0787078	1.6042824	-0.9167328	97.3742121	0.8307891	-27.02069928
0.29	29	0.012	-1.018	0.064	-8.1932994	1.5469866	-0.8021412	97.2882684	0.83651868	-27.00351054
0.3	30	0.01	-1.021	0.07	-8.1932994	1.432395	-0.6302538	97.15648806	0.84224826	-26.9863218
0.31	31	0.004	-1.023	0.067	-8.1932994	1.3750992	-0.572958	97.07054436	0.84224826	-26.97486264
0.32	32	-0.003	-1.02	0.063	-8.4797784	1.3750992	-0.5156622	96.98460066	0.84797784	-26.96340348
0.33	33	-0.013	-1.01	0.056	-8.8235532	1.8334656	-0.5156622	96.89292738	0.84797784	-26.94621474
0.34	34	-0.027	-0.997	0.058	-8.880849	2.9793816	-0.572958	96.8012541	0.84797784	-26.91756684
0.35	35	-0.039	-0.987	0.066	-8.4797784	4.8128472	-0.6875496	96.6866625	0.80787078	-26.84881188
0.36	36	-0.052	-0.983	0.076	-8.1360036	7.0473834	-0.8021412	96.6007188	0.80787078	-26.78005692
0.37	37	-0.061	-0.989	0.082	-8.1932994	9.167328	-1.145916	96.52050468	0.80787078	-26.68838364
0.38	38	-0.068	-0.997	0.09	-9.0527364	12.0894138	-1.8334656	96.4288314	0.80787078	-26.57379204
0.39	39	-0.075	-1.004	0.091	-10.313244	15.2979786	-2.4064236	96.31996938	0.80787078	-26.41909338
0.4	40	-0.079	-1.011	0.094	-11.45916	18.5065434	-2.8074942	96.19391862	0.78495246	-26.22428766
0.41	41	-0.079	-1.011	0.089	-12.3758928	21.8869956	-3.0939732	96.06786786	0.78495246	-26.00656362
0.42	42	-0.074	-1.001	0.081	-12.2040054	24.9809688	-3.3231564	95.94754668	0.78495246	-25.76019168
0.43	43	-0.065	-0.991	0.077	-10.7143146	27.6738714	-3.5523396	95.83868466	0.78495246	-25.48517184
0.44	44	-0.055	-0.984	0.074	-9.453807	29.6219286	-3.4950438	95.7412818	0.77922288	-25.19296326
0.45	45	-0.045	-0.987	0.072	-8.9954406	29.793816	-3.4950438	95.64387894	0.76203414	-24.8950251
0.46	46	-0.037	-0.997	0.072	-9.3392154	29.3927454	-3.6669312	95.54647608	0.76203414	-24.60281652
0.47	47	-0.03	-1.007	0.07	-10.3705398	28.6479	-3.9534102	95.44334364	0.76776372	-24.31633752
0.48	48	-0.023	-1.016	0.061	-11.3445684	27.9603504	-4.0680018	95.32302246	0.7734933	-24.04131768
0.49	49	-0.015	-1.018	0.046	-11.745639	27.6165756	-3.8961144	95.20843086	0.77922288	-23.76629784
0.5	50	-0.004	-1.012	0.037	-11.4018642	27.4446882	-3.6096354	95.07665052	0.77922288	-23.491278
0.51	51	0.004	-1.004	0.036	-10.9434978	28.074942	-3.2658606	94.9677885	0.77922288	-23.21625816
0.52	52	0.009	-0.994	0.024	-10.7143146	28.9916748	-2.9793816	94.85892648	0.7734933	-22.92977916
0.53	53	0.013	-0.984	0.014	-11.0580894	30.0229992	-2.578311	94.74433488	0.76776372	-22.631841
0.54	54	0.02	-0.963	0.014	-11.9175264	31.2835068	-2.005353	94.6240137	0.75057498	-22.32817326
0.55	55	0.029	-0.938	0.02	-12.6623718	31.6272816	-0.8021412	94.4807742	0.73338624	-22.01877594
0.56	56	0.043	-0.919	0.02	-13.750992	31.3980984	0.6302538	94.34326428	0.69327918	-21.70937862
0.57	57	0.06	-0.904	0.024	-15.8136408	31.6845774	2.578311	94.18283604	0.6302538	-21.40571088
0.58	58	0.085	-0.888	0.013	-18.2773602	32.0283522	5.5576926	93.9937599	0.5443101	-21.09631356
0.59	59	0.105	-0.873	0.001	-20.3973048	30.1948866	9.453807	93.78749502	0.41825934	-20.80410498
0.6	60	0.116	-0.864	0.002	-21.7151082	26.8717302	13.178034	93.55831182	0.28074942	-20.55773304
0.61	61	0.118	-0.873	0.011	-22.5745452	22.345362	16.5011904	93.32339904	0.09740286	-20.35146816
0.62	62	0.111	-0.914	0.023	-23.8923486	15.756345	19.8243468	93.08275668	-0.10886202	-20.21395824
0.63	63	0.089	-0.977	0.031	-24.9809688	7.5057498	22.7464326	92.82492558	-0.3437748	-20.15093286
0.64	64	0.062	-1.043	0.045	-24.0069402	-0.2291832	24.2934192	92.58428322	-0.58441716	-20.1681216
0.65	65	0.036	-1.093	0.062	-19.8816426	-6.016059	23.3766864	92.38374792	-0.80787078	-20.24833572
0.66	66	0.001	-1.115	0.11	-13.8655836	-9.3392154	19.9962342	92.246238	-0.99694692	-20.35146816
0.67	67	-0.02	-1.121	0.145	-9.6829902	-9.5683986	14.5531332	92.15456472	-1.14018642	-20.44887102
0.68	68	-0.032	-1.118	0.168	-8.6516658	-7.448454	9.1100322	92.06862102	-1.22613012	-20.52908514
0.69	69	-0.044	-1.11	0.188	-8.9381448	-5.72958	4.6409598	91.97694774	-1.26623718	-20.59211052
0.7	70	-0.058	-1.114	0.21	-9.2819196	-4.4690724	0.572958	91.92538152	-1.28342592	-20.63794716
0.71	71	-0.071	-1.109	0.212	-11.2299768	-2.1772404	-3.437748	91.8165195	-1.24331886	-20.6551359
0.72	72	-0.084	-1.093	0.201	-15.0114996	1.7761698	-7.5630456	91.66182084	-1.1745639	-20.63794716
0.73	73	-0.088	-1.073	0.177	-19.5378678	6.5317212	-11.0007936	91.46128554	-1.07143146	-20.57492178
0.74	74	-0.086	-1.063	0.16	-23.4339822	9.5111028	-14.037471	91.22064318	-0.93392154	-20.47751892
0.75	75	-0.083	-1.052	0.155	-27.1009134	9.5111028	-16.7876694	90.9570825	-0.78495246	-20.38011606
0.76	76	-0.073	-1.031	0.136	-30.4240698	8.5370742	-18.7930224	90.6419556	-0.6016059	-20.29417236
0.77	77	-0.06	-1.016	0.092	-32.2575354	10.7143146	-20.7410796	90.31536954	-0.40680018	-20.19103992
0.78	78	-0.031	-1.004	0.043	-32.3148312	16.3865988	-22.4599536	89.9830539	-0.18907614	-20.03061168
0.79	79	0	-1.001	0.022	-30.5959572	20.4546006	-22.4599536	89.667927	0.02291832	-19.83007638
0.8	80	0.023	-1.027	0.03	-29.1062664	20.4546006	-21.0848544	89.36998884	0.2291832	-19.63527066
0.81	81	0.054	-1.074	0.032	-29.7365202	18.1627686	-19.480572	89.0663211	0.41825934	-19.46338326
0.82	82	0.11	-1.125	0.023	-31.9137606	14.6677248	-17.18874	88.73973504	0.58441716	-19.32587334
0.83	83	0.153	-1.142	0.027	-33.1169724	11.5164558	-14.2093584	88.40168982	0.72192708	-19.21701132
0.84	84	0.196	-1.14	0.028	-30.8824362	9.167328	-12.2613012	88.0922925	0.84224826	-19.13106762
0.85	85	0.215	-1.139	0.053	-25.4393352	6.9900876	-11.172681	87.84592056	0.99121734	-19.08523098
0.86	86	0.203	-1.146	0.094	-20.5118964	4.297185	-11.1153852	87.6339261	1.10007936	-19.0508535
0.87	87	0.183	-1.143	0.12	-18.1054728	2.578311	-12.2040054	87.45057954	1.22040054	-19.02793518
0.88	88	0.146	-1.142	0.13	-16.5011904	1.9480572	-13.0061466	87.28442172	1.3464513	-19.01647602
0.89	89	0.107	-1.146	0.138	-15.8136408	1.8907614	-12.891555	87.12399348	1.47250206	-19.00501686
0.9	90	0.084	-1.145	0.14	-15.4125702	2.578311	-11.45916	86.99794272	1.6042824	-18.99928728
0.91	91	0.073	-1.137	0.131	-11.8029348	4.6409598	-8.1932994	86.87762154	1.68449652	-18.95345064
0.92	92	0.071	-1.126	0.112	-6.302538	6.875496	-4.870143	86.81459616	1.73606274	-18.89042526
0.93	93	0.076	-1.116	0.106	-2.1199446	8.1932994	-0.9167328	86.79167784	1.7475219	-18.81021114
0.94	94	0.087	-1.091	0.103	0	8.59437	2.9793816	86.79740742	1.718874	-18.72426744
0.95	95	0.1	-1.057	0.095	1.8907614	8.307891	6.5317212	86.86616238	1.70168526	-18.66124206
0.96	96	0.111	-1.013	0.078	4.1252976	7.7922288	9.3965112	86.91199902	1.61001198	-18.57529836
0.97	97	0.123	-0.95	0.064	5.7868758	7.3911582	11.5737516	86.96929482	1.50114996	-18.49508424
0.98	98	0.145	-0.862	0.046	8.307891	6.4744254	13.0061466	87.05523852	1.36936962	-18.42632928
0.99	99	0.166	-0.784	0.037	13.464513	3.0939732	13.8655836	87.19274844	1.23758928	-18.38622222
1	100	0.184	-0.717	0.047	17.761698	1.3750992	13.8082878	87.38755416	1.13445684	-18.38049264
1.01	101	0.199	-0.664	0.062	21.7151082	-1.5469866	13.9228794	87.6052782	0.99694692	-18.38622222
1.02	102	0.208	-0.628	0.062	24.350715	-6.875496	14.037471	87.85165014	0.859437	-18.4492476
1.03	103	0.211	-0.592	0.05	26.6998428	-12.4331886	14.9542038	88.12666998	0.71046792	-18.5638392
1.04	104	0.19	-0.554	0.042	29.1635622	-17.6471064	16.4438946	88.42460814	0.55003968	-18.72999702
1.05	105	0.143	-0.526	-0.033	29.1062664	-25.5539268	17.4179232	88.71108714	0.38961144	-18.98209854
1.06	106	0.048	-0.522	-0.325	22.2880662	-32.1429438	16.042824	88.94027034	0.23491278	-19.29149586
1.07	107	-0.038	-0.534	-0.435	6.1879464	-21.199446	9.5111028	89.0090253	0.1432395	-19.50349032
1.08	108	-0.159	-0.567	-0.33	-4.6409598	-11.5164558	-1.0886202	88.96318866	0.15469866	-19.61808192
1.09	109	-0.286	-0.727	-0.166	-1.9480572	-5.5576926	-18.9649098	88.94027034	0.3437748	-19.67537772
1.1	110	-0.392	-0.921	-0.139	2.4637194	3.0366774	-40.10706	88.94027034	0.66463128	-19.61808192
1.11	111	-0.396	-0.964	-0.149	3.151269	-0.6875496	-50.8786704	88.97464782	1.16883432	-19.62954108
1.12	112	-0.273	-0.947	-0.121	-4.583664	-10.0840608	-48.8733174	88.9230816	1.65584862	-19.7384031
1.13	113	-0.139	-0.961	-0.053	-16.6730778	-11.745639	-39.9924684	88.7511942	2.05118964	-19.86445386
1.14	114	0.001	-1.061	-0.053	-30.8824362	-4.7555514	-29.1635622	88.4360673	2.33766864	-19.92174966
1.15	115	0.102	-1.222	-0.068	-40.5081306	3.0366774	-11.6883432	88.02353754	2.45798982	-19.89883134
1.16	116	0.139	-1.398	-0.056	-33.518043	5.0420304	3.0939732	87.67976274	2.42361234	-19.8529947
1.17	117	0.202	-1.585	-0.019	-24.4080108	5.3858052	14.2093584	87.4333908	2.28037284	-19.7956989
1.18	118	0.249	-1.697	0.06	-18.2200644	8.1932994	20.6837838	87.25577382	2.07410796	-19.7097552
1.19	119	0.267	-1.709	0.063	-7.9641162	9.6256944	20.626488	87.1755597	1.87357266	-19.60089318
1.2	120	0.249	-1.66	0.043	1.7761698	4.297185	15.9282324	87.19847802	1.718874	-19.55505654
1.21	121	0.158	-1.553	0.033	3.6669312	-6.9327918	10.886202	87.2328555	1.61001198	-19.61808192
1.22	122	0.038	-1.477	0.033	-0.2291832	-21.2567418	7.3911582	87.22712592	1.52979786	-19.8243468
1.23	123	-0.019	-1.472	0.035	-13.1207382	-40.0497642	5.2712136	87.089616	1.47250206	-20.21968782
1.24	124	-0.024	-1.511	0.049	-22.2880662	-51.1651494	3.0366774	86.8604328	1.42666542	-20.72962044
1.25	125	-0.013	-1.544	0.062	-26.069589	-57.868758	0.3437748	86.59114254	1.4037471	-21.30257844
1.26	126	0.002	-1.55	0.077	-24.5226024	-61.306506	-2.578311	86.33331144	1.4037471	-21.90991392
1.27	127	0.006	-1.513	0.084	-19.3086846	-61.9940556	-5.8441716	86.13277614	1.43812458	-22.52870856
1.28	128	-0.028	-1.449	0.085	-13.1207382	-59.4730404	-8.4224826	85.98953664	1.49542038	-23.12458488
1.29	129	-0.081	-1.372	0.082	-8.880849	-54.717489	-9.1100322	85.89213378	1.56417534	-23.67462456
1.3	130	-0.151	-1.284	0.075	-9.740286	-49.7900502	-7.5057498	85.79473092	1.59855282	-24.16736844
1.31	131	-0.188	-1.168	0.052	-12.032118	-41.4821592	-3.9534102	85.66295058	1.61574156	-24.5798982
1.32	132	-0.197	-1.094	0.043	-10.7143146	-35.4088044	-1.6042824	85.54835898	1.61574156	-24.92940258
1.33	133	-0.188	-1.037	0.051	-6.6463128	-29.1635622	-1.2605076	85.47960402	1.61574156	-25.22161116
1.34	134	-0.179	-0.966	0.066	-1.0886202	-22.5745452	-2.9220858	85.46241528	1.6329303	-25.44506478
1.35	135	-0.188	-0.88	0.062	4.583664	-18.2773602	-6.302538	85.53117024	1.62147114	-25.60549302
1.36	136	-0.207	-0.764	0.032	6.3598338	-12.2040054	-10.7143146	85.59419562	1.718874	-25.73727336
1.37	137	-0.203	-0.633	0.013	9.0527364	-6.7036086	-14.7250206	85.6858689	1.8621135	-25.8117579
1.38	138	-0.185	-0.48	-0.003	13.5791046	-1.9480572	-17.8189938	85.81764924	2.03973048	-25.8404058
1.39	139	-0.163	-0.338	-0.015	23.1475032	2.1772404	-18.7357266	86.0582916	2.22880662	-25.82894664
1.4	140	-0.16	-0.252	-0.042	28.934379	2.9793816	-17.475219	86.3447706	2.38923486	-25.80029874
1.41	141	-0.188	-0.176	-0.075	30.8251404	2.2345362	-15.0114996	86.6598975	2.53820394	-25.78311
1.42	142	-0.23	-0.107	-0.099	32.2575354	0.859437	-11.9748222	86.98648356	2.65852512	-25.77738042
1.43	143	-0.272	-0.046	-0.1	32.3148312	2.2345362	-10.7716104	87.31306962	2.77311672	-25.7544621
1.44	144	-0.285	0.019	-0.055	32.945085	10.7143146	-12.3758928	87.65111484	2.89916748	-25.65132966
1.45	145	-0.241	0.036	0.026	31.8564648	25.6112226	-16.902261	87.98916006	3.04813656	-25.39349856
1.46	146	-0.057	-0.114	0.011	15.5844576	53.571573	-21.1421502	88.16677704	3.26013102	-24.8663772
1.47	147	0.128	-0.309	-0.54	-33.0023808	75.4585686	-14.6677248	87.8631093	3.4091001	-24.12726138
1.48	148	0.077	-0.423	-0.813	-42.2843004	42.4561878	-3.3231564	87.45630912	3.44347758	-23.71473162
1.49	149	0.211	-0.659	-0.574	-39.1330314	33.2888598	7.9641162	87.07242726	3.36899304	-23.38241598
1.5	150	0.581	-1.298	-0.514	-53.1132066	18.4492476	20.7983754	86.53957632	3.16845774	-23.19906942
1.51	151	0.744	-2.112	-0.438	-52.0245864	22.8037284	43.0864416	86.01818454	2.7501984	-22.95269748
1.52	152	0.577	-2.265	-0.282	-29.9657034	39.1330314	45.3209778	85.73170554	2.31475032	-22.53443814
1.53	153	0.205	-2.098	-0.253	-54.2591226	14.32395	36.955791	85.18166586	1.9480572	-22.3740099
1.54	154	-0.272	-1.658	-0.49	-75.1720896	-7.1046792	34.0337052	84.41963172	1.59855282	-22.41984654
1.55	155	-0.484	-1.267	-0.518	-26.8144344	-12.2040054	29.6792244	84.12742314	1.2605076	-22.50006066
1.56	156	-0.465	-1.335	-0.388	24.350715	-4.2398892	20.3973048	84.37952466	1.05424272	-22.52297898
1.57	157	-0.31	-1.584	-0.403	25.8404058	8.1932994	8.880849	84.64308534	0.9740286	-22.4313057
1.58	158	-0.226	-1.682	-0.382	3.2658606	14.7250206	1.432395	84.67746282	0.96829902	-22.28233662
1.59	159	-0.151	-1.664	-0.235	-9.1100322	17.6471064	0.7448454	84.58005996	0.9740286	-22.10471964
1.6	160	-0.048	-1.666	-0.212	-17.475219	20.2254174	4.9847346	84.40244298	0.93392154	-21.90418434
1.61	161	0.082	-1.621	-0.249	-20.2827132	22.6891368	8.1360036	84.20190768	0.87089616	-21.67500114
1.62	162	0.158	-1.515	-0.232	-18.5065434	23.3193906	8.9381448	84.01283154	0.79641162	-21.44008836
1.63	163	0.134	-1.409	-0.123	-13.5218088	21.2567418	7.0473834	83.87532162	0.73911582	-21.22236432
1.64	164	0.115	-1.303	-0.058	-10.3705398	18.1054728	5.3858052	83.7664596	0.69900876	-21.03901776
1.65	165	0.092	-1.202	-0.056	-6.7609044	12.4904844	3.7815228	83.7091638	0.69327918	-20.91869658
1.66	166	0.03	-1.116	-0.062	-5.5576926	9.2819196	3.3231564	83.651868	0.66463128	-20.8270233
1.67	167	-0.021	-1.061	-0.05	-2.1772404	8.7662574	2.86479	83.62894968	0.64744254	-20.73535002
1.68	168	-0.041	-1.009	-0.019	5.0420304	8.8235532	1.8907614	83.6805159	0.63598338	-20.64367674
1.69	169	-0.053	-0.947	0.022	12.4904844	7.2765666	1.4896908	83.81229624	0.62452422	-20.5691922
1.7	170	-0.027	-0.853	0.06	15.8709366	7.7922288	1.8907614	83.9956428	0.60733548	-20.48897808
1.71	171	0.053	-0.72	0.014	15.9282324	10.026765	0.7448454	84.16180062	0.61306506	-20.39157522
1.72	172	0.099	-0.569	0.037	16.2147114	11.3445684	-0.9167328	84.32222886	0.6302538	-20.27698362
1.73	173	0.127	-0.444	0.109	21.485925	12.032118	-1.2605076	84.5399529	0.65317212	-20.15666244
1.74	174	0.154	-0.341	0.129	28.074942	10.2559482	-0.3437748	84.8264319	0.66463128	-20.05353
1.75	175	0.176	-0.252	0.088	34.2628884	7.2765666	2.0626488	85.18166586	0.67609044	-19.98477504
1.76	176	0.195	-0.19	0	41.4821592	4.297185	5.8441716	85.60565478	0.62452422	-19.93320882
1.77	177	0.215	-0.126	-0.021	47.555514	0.7448454	10.313244	86.0869395	0.52712136	-19.9102905
1.78	178	0.237	-0.071	0.022	52.5975444	-2.9220858	14.6677248	86.61979044	0.38388186	-19.92747924
1.79	179	0.259	-0.025	0.056	57.2958	-7.3911582	17.8189938	87.2042076	0.21199446	-19.98477504
1.8	180	0.279	0.016	0.056	59.874111	-10.8289062	18.907614	87.81727266	0.0572958	-20.09363706
1.81	181	0.291	0.047	0.049	62.1086472	-17.0168526	18.2773602	88.44752646	-0.1145916	-20.24833572
1.82	182	0.281	0.061	0.079	61.1919144	-22.1734746	15.5271618	89.07778026	-0.26356068	-20.4546006
1.83	183	0.262	0.068	0.077	62.3951262	-27.9030546	12.7769634	89.71376364	-0.37815228	-20.72389086
1.84	184	0.217	0.016	0.101	62.7961968	-39.1903272	12.1467096	90.36120618	-0.48128472	-21.10777272
1.85	185	0.064	-0.122	-0.433	57.0666168	-74.9429064	13.6364004	90.91697544	-0.59014674	-21.84115896
1.86	186	-0.08	-0.329	-0.441	46.982556	-127.4258592	8.4224826	91.42690806	-0.60733548	-23.09593698
1.87	187	-0.035	-0.721	-0.14	-24.8663772	-7.3911582	-16.1001198	91.17480654	-0.44690724	-23.16469194
1.88	188	-0.509	-1.556	-1.117	-57.009321	67.1506776	-55.863405	90.5846598	0.07448454	-22.50006066
1.89	189	-1.283	-3.692	-1.394	-50.6494872	44.0604702	-154.69866	90.06326802	1.58709366	-22.058883
1.9	190	-1.072	-3.867	0.621	83.8237554	-71.7343416	-113.6748672	90.89405712	2.7501984	-22.7464326
1.91	191	0.046	-2.348	0.057	-76.6044846	-15.5844576	-37.528749	90.10910466	3.1226211	-22.90686084
1.92	192	0.811	-1.511	-0.51	-81.4746276	-15.756345	-11.0580894	89.27831556	3.23148312	-23.07301866
1.93	193	0.974	-1.173	-0.215	-7.7922288	7.5630456	4.2398892	89.19810144	3.18564648	-22.99853412
1.94	194	0.866	-1.193	-0.022	12.0894138	20.05353	28.5906042	89.32988178	2.89916748	-22.79226924
1.95	195	0.475	-1.153	-0.027	-25.496631	6.3598338	33.2888598	89.07205068	2.59549974	-22.74070302
1.96	196	0.067	-1.252	-0.175	-40.1643558	-7.161975	8.307891	88.65952092	2.50955604	-22.81518756
1.97	197	-0.127	-1.573	-0.275	-27.4446882	-21.3713334	-23.0329116	88.37304192	2.73873924	-23.03864118
1.98	198	-0.108	-1.744	-0.227	-21.0848544	-32.945085	-42.5707794	88.14385872	3.15699858	-23.3766864
1.99	199	-0.069	-1.675	-0.098	-32.085648	-42.112413	-40.1643558	87.80008392	3.5523396	-23.81213448
2	200	-0.028	-1.481	-0.042	-35.3515086	-46.5814854	-22.1161788	87.41620206	3.7528749	-24.28196004
2.01	201	0.02	-1.33	-0.105	-32.4867186	-42.5707794	-2.2345362	87.0609681	3.76433406	-24.71167854
2.02	202	0.006	-1.167	-0.159	-31.51269	-34.5493674	12.605076	86.72865246	3.62682414	-25.04972376
2.03	203	-0.032	-0.991	-0.152	-32.658606	-22.1734746	20.626488	86.38487766	3.41482968	-25.26171822
2.04	204	-0.053	-0.817	-0.098	-31.51269	-18.1054728	21.7151082	86.0582916	3.19137606	-25.42787604
2.05	205	-0.105	-0.673	-0.02	-29.5646328	-16.6730778	17.8762896	85.75462386	2.9793816	-25.57684512
2.06	206	-0.131	-0.582	0.053	-25.0955604	-12.4331886	11.6883432	85.49679276	2.85906042	-25.6971663
2.07	207	-0.158	-0.57	0.104	-19.3086846	-3.8388186	6.7036086	85.29625746	2.78457588	-25.73154378
2.08	208	-0.23	-0.593	0.08	-16.5584862	7.2192708	4.8128472	85.13009964	2.74446882	-25.65705924
2.09	209	-0.298	-0.62	0.055	-18.7930224	17.4179232	5.3858052	84.94675308	2.69863218	-25.48517184
2.1	210	-0.377	-0.638	0.063	-23.0329116	25.4393352	7.6776372	84.73475862	2.56685184	-25.20442242
2.11	211	-0.42	-0.65	0.075	-22.91832	37.24227	8.3651868	84.511305	2.50382646	-24.83199972
2.12	212	-0.402	-0.634	0.068	-22.2307704	43.7739912	9.1100322	84.29931054	2.44080108	-24.39082206
2.13	213	-0.345	-0.576	0.086	-16.2147114	46.3523022	7.6203414	84.15034146	2.40069402	-23.92672608
2.14	214	-0.223	-0.45	0.047	-9.9694692	49.9619376	2.6929026	84.06439776	2.41215318	-23.4339822
2.15	215	-0.168	-0.41	0.016	2.86479	55.9779966	-2.0626488	84.1102344	2.45226024	-22.87821294
2.16	216	-0.117	-0.405	0.016	12.3758928	64.8588456	-9.2819196	84.2534739	2.59549974	-22.24222956
2.17	217	-0.088	-0.381	0.004	19.480572	70.3019466	-14.7250206	84.47692752	2.79030546	-21.56040954
2.18	218	-0.103	-0.382	0.112	24.8663772	66.8069028	-17.9908812	84.75194736	3.01375908	-20.912967
2.19	219	-0.14	-0.392	0.29	30.4813656	59.8168152	-21.3713334	85.084263	3.2658606	-20.340009
2.2	220	-0.174	-0.457	0.4	27.6165756	56.0925882	-24.064236	85.4280378	3.51796212	-19.7956989
2.21	221	-0.192	-0.565	0.393	12.7196676	65.7755784	-25.0382646	85.58846604	3.79871154	-19.15971552
2.22	222	-0.198	-0.619	0.176	-7.6776372	75.4585686	-22.2307704	85.54835898	4.05654264	-18.43205886
2.23	223	-0.172	-0.616	0.091	-12.032118	76.5471888	-18.621135	85.46814486	4.27426668	-17.68721346
2.24	224	-0.081	-0.64	0.105	-9.0527364	75.7450476	-15.5844576	85.42230822	4.4690724	-16.95382722
2.25	225	0.014	-0.722	0.125	-7.9068204	69.5571012	-11.8602306	85.3993899	4.62377106	-16.2720072
2.26	226	0.134	-0.88	-0.005	-11.1153852	67.6663398	-7.7922288	85.33636452	4.73263308	-15.60737592
2.27	227	0.234	-0.92	-0.249	-11.0007936	71.7916374	-4.870143	85.27333914	4.81857678	-14.90263758
2.28	228	0.273	-0.866	-0.386	-0.9740286	82.2767688	-4.7555514	85.31917578	4.91025006	-14.0947668
2.29	229	0.294	-0.806	-0.347	10.1986524	90.3554766	-6.1306506	85.4853336	5.01911208	-13.20095232
2.3	230	0.296	-0.761	-0.312	13.4072172	81.2454444	-10.6570188	85.657221	5.19099948	-12.41027028
2.31	231	0.244	-0.709	-0.335	2.6356068	66.749607	-17.3606274	85.73743512	5.39726436	-11.75709816
2.32	232	0.187	-0.624	-0.398	-13.8082878	52.998615	-26.069589	85.64003226	5.67801378	-11.25289512
2.33	233	0.132	-0.55	-0.431	-24.7517856	46.696077	-32.5440144	85.42230822	6.02178858	-10.81744704
2.34	234	0.101	-0.5	-0.407	-28.4187168	46.3523022	-35.6952834	85.17593628	6.39994086	-10.38772854
2.35	235	0.089	-0.484	-0.355	-24.350715	45.6647526	-38.388186	84.9410235	6.80101146	-9.9694692
2.36	236	0.05	-0.477	-0.293	-18.6784308	45.4355694	-41.9978214	84.797784	7.24218912	-9.55693944
2.37	237	0.025	-0.501	-0.203	-14.0947668	42.3415962	-44.8053156	84.70038114	7.71201468	-9.17305758
2.38	238	0.02	-0.557	-0.157	-12.9488508	33.5753388	-43.831287	84.60297828	8.1646515	-8.880849
2.39	239	0.085	-0.694	-0.052	-13.6364004	28.3041252	-37.1849742	84.49411626	8.55426294	-8.63447706
2.4	240	0.112	-0.747	0.121	-32.8877892	22.9756158	-24.923673	84.21336684	8.81782362	-8.43394176
2.41	241	0.129	-0.661	0.231	-60.7908438	20.6837838	-13.4072172	83.6232201	8.96106312	-8.2505952
2.42	242	0.238	-0.502	0.165	-76.3180056	22.345362	-4.3544808	82.8783747	9.01835892	-8.03860074
2.43	243	0.306	-0.347	0.209	-76.0315266	23.8923486	1.718874	82.13925888	9.01835892	-7.80368796
2.44	244	0.418	-0.218	0.345	-79.2973872	28.5333084	0.9167328	81.37149516	9.03554766	-7.52866812
2.45	245	0.54	-0.121	0.19	-76.4325972	24.1788276	-2.005353	80.6438385	9.1386801	-7.32240324
2.46	246	0.578	-0.12	-0.031	-68.2965936	7.7922288	-4.7555514	79.96201848	9.19024632	-7.25937786
2.47	247	0.524	-0.203	-0.1	-61.3638018	-17.5325148	-8.4224826	79.30884636	9.23608296	-7.45418358
2.48	248	0.458	-0.302	-0.223	-55.0612638	-45.0344988	-16.9595568	78.67859256	9.32202666	-7.9354683
2.49	249	0.519	-0.501	-0.32	-55.576926	-72.5364828	-26.8144344	77.99677254	9.453807	-8.7089616
2.5	250	0.737	-0.962	-0.304	-72.0208206	-95.1683238	-33.0023808	77.10868764	9.60277608	-9.72882684
2.51	251	1.281	-1.912	-0.73	-128.629071	-115.5083328	-27.6165756	75.61326726	9.61996482	-10.93776822
2.52	252	3.157	-3.843	-2.187	-317.0749572	-162.3762972	26.2414764	72.16978968	8.9381448	-12.46756608
2.53	253	3.996	-3.999	-1.502	-357.525792	-130.6917198	137.6245116	68.45129226	7.20781164	-13.27543686
2.54	254	3.996	-3.428	-0.077	-403.0186572	-244.4238828	34.950438	64.15410726	5.92438572	-15.42402936
2.55	255	2.19	-0.169	1.228	-342.3997008	-309.7410948	-65.317212	60.42988026	5.10505578	-18.51227298
2.56	256	0.13	-0.34	0.728	-192.9722544	-304.0115148	-128.342592	58.22972154	4.70971476	-21.80678148
2.57	257	-1.097	-1.06	-0.17	-77.635809	-234.6835968	-171.5436252	57.22704504	4.9560867	-24.7231377
2.58	258	-1.85	-2.179	-0.744	-56.8374336	-194.4619452	-184.1487012	56.43063342	5.47747848	-27.37020366
2.59	259	-1.614	-2.71	1.211	-111.0965562	-282.9839562	-158.7666618	55.0326159	5.26548402	-30.63033468
2.6	260	-1.901	-1.242	1.662	-185.924871	-191.2533804	-98.548776	52.98142626	4.96181628	-32.77892718
2.61	261	-2.204	0.372	0.91	-224.7714234	-92.4181254	6.0733548	50.6494872	4.34302164	-33.48366552
2.62	262	-1.462	0.59	0.695	-222.6514788	-62.3378304	85.8291084	48.40349184	3.27731976	-33.42064014
2.63	263	-1.251	0.707	0.853	-197.1548478	-35.236917	129.9468744	46.4382459	2.07410796	-32.81903424
2.64	264	-1.386	0.874	0.607	-191.1960846	16.1574156	150.0577002	44.53029576	1.0886202	-31.66165908
2.65	265	-0.998	1.028	0.445	-183.9768138	47.0398518	144.958374	42.66818226	0.38388186	-30.29801904
2.66	266	-0.832	1.459	0.429	-184.3778844	52.0818822	98.9498466	40.80033918	0.07448454	-29.21512842
2.67	267	-0.138	1.824	0.4	-170.455005	61.3638018	28.0176462	39.06427644	0.32658606	-28.60206336
2.68	268	0.376	1.563	0.209	-162.2617056	88.9230816	-19.5951636	37.40842782	1.10007936	-28.19526318
2.69	269	0.425	1.035	-0.176	-168.5069478	103.1897358	-46.8106686	35.68955382	2.15432208	-27.93743208
2.7	270	0.377	0.556	-0.414	-147.8804598	93.5067456	-53.3996856	34.15402638	3.20283522	-27.82857006
2.71	271	0.334	0.21	-0.529	-129.202029	87.0323202	-52.5975444	32.83622298	4.17686382	-27.77127426
2.72	272	0.311	0.023	-0.754	-127.3685634	74.8283148	-46.1804148	31.53560832	5.01911208	-27.74835594
2.73	273	0.284	-0.144	-0.761	-126.7956054	70.9894962	-31.2835068	30.24645282	5.75249832	-27.63376434
2.74	274	0.367	-0.434	-0.745	-143.6978664	59.587632	-4.9274388	28.80832824	6.26243094	-27.36447408
2.75	275	0.571	-0.295	-0.494	-180.9401364	45.7220484	1.8334656	26.99778096	6.65777196	-27.13529088
2.76	276	0.584	0.029	-0.211	-180.8828406	77.8649922	-12.2040054	25.1815041	7.36823988	-26.88318936
2.77	277	0.391	0.402	-1.022	-164.438946	96.4288314	-34.950438	23.51419632	8.34799806	-26.77432734
2.78	278	0.247	0.649	-1.442	-129.202029	67.7809314	-49.847346	22.16201544	9.13295052	-26.95194432
2.79	279	0.234	0.923	-1.668	-107.143146	42.7999626	-47.4409224	21.0275586	9.6829902	-27.22123458
2.8	280	-0.713	1.108	-2.126	-92.3608296	33.5753388	-35.3515086	20.04207084	10.10124954	-27.42749946
2.81	281	-0.74	1.24	-3.274	-80.1568242	5.3285094	-19.0222056	19.19982258	10.1986524	-27.58219812
2.82	282	0.503	1.48	-3.996	-73.052145	-44.690724	-5.6149884	18.43205886	9.7975818	-27.79419258
2.83	283	1.779	1.598	-3.996	-37.5860448	-11.2872726	7.161975	18.05390658	9.66007188	-27.7598151
2.84	284	1.102	0.47	-3.996	-116.7115446	-24.8663772	-19.9962342	16.82777646	9.47099574	-28.02910536
2.85	285	0.733	-0.239	-3.996	-183.2892642	-50.8786704	-45.263682	14.87971926	9.09284346	-28.60779294
2.86	286	0.236	-0.243	-3.724	-202.540653	-22.9756158	-59.7595194	12.72539718	8.98971102	-29.24377632
2.87	287	0.105	-0.112	-3.296	-239.6110356	-20.6837838	-35.7525792	10.23875946	8.83501236	-29.62765818
2.88	288	-0.189	0.39	-2.696	-229.1259042	-32.6013102	-5.9587632	7.90109082	8.49696714	-29.7365202
2.89	289	-0.181	0.592	-2.225	-116.7115446	-32.1429438	-4.4117766	6.70933818	8.17611066	-29.8224639
2.9	290	-0.078	0.321	-1.706	-26.1841806	-27.788463	-9.453807	6.4171296	7.90109082	-29.94851466
2.91	291	0.083	0.211	-1.519	-23.4339822	-29.5646328	-2.005353	6.17075766	7.60888224	-30.01154004
2.92	292	0.173	0.161	-1.151	-53.3423898	-52.4829528	4.1825934	5.63790672	7.08749046	-30.03445836
2.93	293	0.033	0.223	-0.544	-82.3913604	-54.8320806	-3.3804522	4.79565846	6.53745078	-30.12613164
2.94	294	-0.03	0.488	-0.409	-96.0277608	-26.5279554	-17.9908812	3.80444112	6.27961968	-30.32666694
2.95	295	-0.214	0.878	-0.504	-105.424272	-3.9534102	-29.507337	2.64133638	6.22232388	-30.61887552
2.96	296	-0.202	1.085	-0.484	-99.0644382	11.9748222	-32.5440144	1.59855282	6.34264506	-30.92827284
2.97	297	-0.123	1.132	-0.464	-84.3967134	29.5646328	-25.7258142	0.71046792	6.62912406	-31.16318562
2.98	298	-0.05	1.136	-0.495	-66.3485364	40.1643558	-14.7250206	0.01718874	7.02446508	-31.29496596
2.99	299	0.017	1.094	-0.46	-29.2781538	36.096354	-5.5576926	-0.286479	7.37396946	-31.33507302
3	300	0.04	0.943	-0.418	7.1046792	23.3193906	-0.3437748	-0.44690724	7.60888224	-31.37518008
3.01	301	0.05	0.773	-0.289	27.5592798	20.912967	1.8334656	-0.16615782	7.81514712	-31.35226176
3.02	302	0.037	0.666	-0.179	38.2735944	24.4080108	-0.7448454	0.21199446	8.06151906	-31.35799134
3.03	303	0.04	0.565	-0.166	48.2430636	26.2414764	-5.72958	0.6875496	8.33080932	-31.40955756
3.04	304	0.118	0.426	-0.283	51.4516284	21.8296998	-8.9381448	1.19748222	8.55426294	-31.49550126
3.05	305	0.198	0.305	-0.409	48.9306132	12.032118	-8.8235532	1.64438946	8.69750244	-31.59290412
3.06	306	0.25	0.239	-0.511	42.112413	-0.8021412	-4.6409598	2.0626488	8.69750244	-31.64447034
3.07	307	0.244	0.23	-0.63	35.0650296	-16.042824	2.2345362	2.42361234	8.54280378	-31.63874076
3.08	308	0.227	0.265	-0.753	35.7525792	-25.6685184	6.9327918	2.79603504	8.29070226	-31.58717454
3.09	309	0.225	0.331	-0.843	42.2270046	-32.085648	7.5630456	3.2372127	7.97557536	-31.5413379
3.1	310	0.245	0.355	-0.937	53.3423898	-33.7472262	4.1825934	3.74141574	7.66044846	-31.5413379
3.11	311	0.258	0.301	-1.034	64.457775	-31.1116194	-1.2032118	4.39458786	7.3625103	-31.59290412
3.12	312	0.219	0.201	-1.125	66.5204238	-23.9496444	-8.8235532	5.05921914	7.14478626	-31.7132253
3.13	313	0.144	0.103	-1.196	58.9000824	-12.032118	-17.6471064	5.63217714	7.05311298	-31.90803102
3.14	314	0.028	0.005	-1.23	45.2063862	-0.4583664	-24.4080108	6.06189564	7.0760313	-32.15440296
3.15	315	-0.06	-0.06	-1.247	25.7258142	8.9954406	-24.2934192	6.28534926	7.16770458	-32.37785658
3.16	316	-0.105	-0.09	-1.264	12.4904844	14.037471	-19.8816426	6.3884817	7.32813282	-32.55547356
3.17	317	-0.106	-0.095	-1.291	3.2085648	16.5584862	-13.8655836	6.39994086	7.5057498	-32.67006516
3.18	318	-0.08	-0.073	-1.283	-1.5469866	15.8709366	-7.8495246	6.37702254	7.67190762	-32.72736096
3.19	319	-0.023	-0.051	-1.234	-2.9793816	12.0894138	-2.4064236	6.34264506	7.7922288	-32.73309054
3.2	320	0.04	-0.05	-1.154	-2.3491278	7.7922288	1.2032118	6.27961968	7.80941754	-32.69871306
3.21	321	0.095	-0.076	-1.06	-1.2032118	5.3285094	2.4064236	6.2738901	7.85525418	-32.66433558
3.22	322	0.137	-0.127	-0.986	0	4.583664	1.8907614	6.2738901	7.90109082	-32.64141726
3.23	323	0.164	-0.165	-0.929	0.2291832	4.297185	0.286479	6.27961968	7.94119788	-32.6299581
3.24	324	0.17	-0.176	-0.903	-0.6302538	3.4950438	-2.1772404	6.26816052	7.98130494	-32.64714684
3.25	325	0.135	-0.165	-0.884	-2.3491278	2.0626488	-4.9847346	6.26816052	8.00995284	-32.69298348
3.26	326	0.115	-0.146	-0.867	-2.7501984	1.3178034	-6.302538	6.23378304	8.02714158	-32.75027928
3.27	327	0.088	-0.111	-0.847	-2.9220858	1.4896908	-6.302538	6.19367598	8.0500599	-32.81330466
3.28	328	0.082	-0.077	-0.854	-2.7501984	0.2291832	-4.9847346	6.1592985	8.05578948	-32.86487088
3.29	329	0.074	-0.056	-0.868	-1.2032118	-2.2345362	-2.6356068	6.14210976	8.03860074	-32.89351878
3.3	330	0.078	-0.057	-0.903	1.6615782	-3.6669312	0.4583664	6.10773228	7.92973872	-32.87633004
3.31	331	0.076	-0.081	-0.947	5.5576926	-2.9220858	3.437748	6.17075766	7.89536124	-32.84768214
3.32	332	0.079	-0.113	-0.971	8.307891	-1.6615782	5.2712136	6.26243094	7.8781725	-32.79611592
3.33	333	0.079	-0.142	-0.98	8.7662574	-0.2291832	6.4171296	6.3598338	7.86671334	-32.73309054
3.34	334	0.093	-0.162	-0.979	7.2765666	1.2032118	7.0473834	6.4457775	7.87244292	-32.66433558
3.35	335	0.105	-0.173	-0.985	5.443101	2.3491278	7.5057498	6.53745078	7.86098376	-32.5726623
3.36	336	0.11	-0.173	-0.993	3.9534102	3.4950438	7.6776372	6.589017	7.88390208	-32.49244818
3.37	337	0.119	-0.162	-1.001	2.6929026	5.0993262	8.021412	6.62339448	7.92400914	-32.4007749
3.38	338	0.122	-0.136	-1.009	1.6042824	7.6203414	7.9641162	6.65204238	7.9927641	-32.30910162
3.39	339	0.128	-0.099	-1.014	0.9167328	11.3445684	7.448454	6.6749607	8.09589654	-32.22315792
3.4	340	0.131	-0.055	-1.015	1.145916	13.3499214	6.8182002	6.65204238	8.20475856	-32.13721422
3.41	341	0.134	-0.016	-1.014	1.718874	14.0947668	6.1306506	6.68069028	8.3365389	-32.0570001
3.42	342	0.135	0.014	-1.008	1.8334656	14.037471	5.6149884	6.70933818	8.46831924	-31.97678598
3.43	343	0.13	0.033	-0.994	1.8334656	13.4072172	5.2712136	6.73798608	8.59437	-31.90803102
3.44	344	0.125	0.04	-0.982	2.1772404	12.318597	5.3285094	6.76663398	8.7089616	-31.83354648
3.45	345	0.126	0.037	-0.973	2.8074942	10.7716104	5.5003968	6.70933818	8.78917572	-31.77625068
3.46	346	0.128	0.027	-0.968	2.6929026	9.453807	5.7868758	6.74944524	8.87511942	-31.70176614
3.47	347	0.132	0.021	-0.967	1.6042824	8.021412	6.1306506	6.77809314	8.94387438	-31.6272816
3.48	348	0.139	0.022	-0.972	0.3437748	6.9900876	6.016059	6.7895523	9.00689976	-31.55852664
3.49	349	0.147	0.026	-0.978	-0.859437	6.0733548	5.443101	6.7895523	9.05846598	-31.49550126
3.5	350	0.158	0.029	-0.988	-1.7761698	5.0993262	4.6409598	6.62339448	9.10430262	-31.46685336
3.51	351	0.173	0.036	-0.992	-2.1199446	3.8961144	3.9534102	6.61193532	9.1386801	-31.42101672
3.52	352	0.182	0.045	-0.991	-1.6615782	2.4064236	3.4950438	6.60047616	9.15586884	-31.38090966
3.53	353	0.184	0.057	-0.985	-0.1718874	1.6042824	3.437748	6.60620574	9.167328	-31.34653218
3.54	354	0.18	0.07	-0.974	1.3178034	1.6042824	3.3804522	6.62339448	9.17878716	-31.3121547
3.55	355	0.173	0.079	-0.967	2.9220858	1.4896908	3.6096354	6.39421128	9.20743506	-31.32361386
3.56	356	0.171	0.085	-0.959	3.0939732	1.4896908	3.724227	6.42858876	9.21889422	-31.2835068
3.57	357	0.167	0.091	-0.957	2.0626488	1.9480572	3.6669312	6.45723666	9.23608296	-31.24339974
3.58	358	0.166	0.095	-0.96	1.3750992	2.86479	3.3804522	6.48015498	9.25900128	-31.20902226
3.59	359	0.166	0.089	-0.958	1.145916	4.1252976	2.7501984	6.49161414	9.29910834	-31.17464478
3.6	360	0.16	0.075	-0.963	1.0313244	4.9847346	1.7761698	6.22805346	9.33348582	-31.19183352
3.61	361	0.159	0.057	-0.977	1.0313244	5.0993262	0.6302538	6.23951262	9.38505204	-31.18037436
3.62	362	0.169	0.039	-0.986	1.145916	5.2712136	0.1718874	6.25097178	9.43661826	-31.1689152
3.63	363	0.182	0.022	-0.993	1.5469866	5.8441716	0.3437748	6.26816052	9.49391406	-31.15745604
3.64	364	0.186	0.01	-0.998	1.9480572	6.0733548	0.5156622	6.29107884	9.55120986	-31.14599688
3.65	365	0.189	-0.006	-1.002	2.005353	5.9014674	0.7448454	6.18221682	9.61996482	-31.15745604
3.66	366	0.189	-0.018	-1.006	1.9480572	5.2139178	0.859437	6.20513514	9.67153104	-31.1402673
3.67	367	0.189	-0.024	-1.004	1.7761698	3.8961144	0.8021412	6.22232388	9.70590852	-31.12307856
3.68	368	0.189	-0.029	-0.996	1.3750992	2.2345362	0.6302538	6.23951262	9.72882684	-31.11734898
3.69	369	0.184	-0.031	-0.983	0.6302538	0.859437	0.3437748	6.2452422	9.740286	-31.1116194
3.7	370	0.177	-0.033	-0.974	0	0	0	5.36288688	9.75747474	-31.27204764
3.71	371	0.171	-0.032	-0.97	-0.859437	-0.9740286	-0.5156622	5.35142772	9.75174516	-31.2835068
3.72	372	0.168	-0.032	-0.968	-1.0886202	-2.3491278	-0.7448454	5.33996856	9.72882684	-31.28923638
3.73	373	0.165	-0.031	-0.969	-0.6875496	-3.437748	-0.7448454	5.33423898	9.69444936	-31.30069554
3.74	374	0.161	-0.028	-0.969	-0.0572958	-3.7815228	-0.6875496	5.3285094	9.6543423	-31.3121547
3.75	375	0.16	-0.028	-0.968	0.3437748	-3.3804522	-0.7448454	5.156622	9.5970465	-31.34653218
3.76	376	0.16	-0.024	-0.966	0.572958	-2.9220858	-0.859437	5.16235158	9.5683986	-31.36372092
3.77	377	0.158	-0.021	-0.964	0.7448454	-2.7501984	-1.2032118	5.16808116	9.5397507	-31.37518008
3.78	378	0.156	-0.015	-0.965	0.7448454	-2.578311	-1.5469866	5.17381074	9.51683238	-31.3980984
3.79	379	0.152	-0.007	-0.966	0.6875496	-2.3491278	-1.8907614	5.17381074	9.49391406	-31.41528714
3.8	380	0.148	-0.003	-0.97	0.6875496	-2.6356068	-2.0626488	5.0133825	9.43088868	-31.46112378
3.81	381	0.148	-0.002	-0.972	1.0886202	-2.86479	-2.005353	5.01911208	9.40224078	-31.4840421
3.82	382	0.148	-0.004	-0.976	1.3750992	-2.8074942	-1.8907614	5.03057124	9.37932246	-31.50696042
3.83	383	0.146	-0.007	-0.982	1.5469866	-2.8074942	-1.6615782	5.0420304	9.35067456	-31.52414916
3.84	384	0.146	-0.006	-0.987	1.6042824	-3.437748	-1.5469866	5.05921914	9.32202666	-31.54706748
3.85	385	0.145	-0.004	-0.983	1.3178034	-3.9534102	-1.6615782	4.9274388	9.24754212	-31.58144496
3.86	386	0.144	0	-0.981	0.7448454	-3.8388186	-1.6042824	4.93316838	9.21316464	-31.60436328
3.87	387	0.146	0.007	-0.98	0.3437748	-3.5523396	-1.6042824	4.93316838	9.17878716	-31.62155202
3.88	388	0.145	0.015	-0.979	0.3437748	-3.0366774	-1.6615782	4.93316838	9.15013926	-31.64447034
3.89	389	0.145	0.023	-0.979	0.4010706	-2.005353	-1.8334656	4.93316838	9.13295052	-31.66165908
3.9	390	0.143	0.027	-0.978	0.8021412	-1.2032118	-2.005353	4.66387812	9.06419556	-31.71895488
3.91	391	0.138	0.029	-0.976	1.2605076	-0.6302538	-2.2345362	4.6696077	9.06419556	-31.7418732
3.92	392	0.132	0.028	-0.975	1.718874	-0.3437748	-2.3491278	4.68679644	9.05846598	-31.76479152
3.93	393	0.129	0.019	-0.977	1.6615782	-0.1718874	-2.2345362	4.6982556	9.05846598	-31.78770984
3.94	394	0.126	0.012	-0.979	1.2605076	-0.3437748	-1.6615782	4.70971476	9.05846598	-31.80489858
3.95	395	0.127	0.007	-0.979	0.7448454	-1.2605076	-0.9740286	4.38885828	8.92668564	-31.83354648
3.96	396	0.13	0.005	-0.98	0.572958	-1.8907614	-0.3437748	4.39458786	8.90376732	-31.83927606
3.97	397	0.135	0	-0.979	0.7448454	-2.4637194	0	4.40031744	8.880849	-31.84500564
3.98	398	0.14	-0.003	-0.979	0.859437	-2.6356068	0.1145916	4.4117766	8.85793068	-31.84500564
3.99	399	0.141	-0.005	-0.979	0.7448454	-2.3491278	0.0572958	4.41750618	8.83501236	-31.85073522
4	400	0.14	-0.005	-0.977	0.286479	-1.6615782	0	3.9534102	8.70323202	-31.89084228
4.01	401	0.135	-0.002	-0.976	-0.1145916	-0.7448454	0	3.9534102	8.69177286	-31.89084228
4.02	402	0.132	-0.002	-0.978	-0.3437748	0	0.1145916	3.94768062	8.69177286	-31.89084228
4.03	403	0.131	-0.004	-0.982	-0.4010706	0.572958	0.286479	3.94768062	8.69750244	-31.8851127
4.04	404	0.132	-0.003	-0.988	-0.1145916	0.6875496	0.572958	3.94768062	8.70323202	-31.87938312
4.05	405	0.134	-0.002	-0.993	0.1145916	0.572958	0.8021412	3.4950438	8.57145168	-31.90230144
4.06	406	0.137	0	-0.991	0.1145916	0.6302538	0.859437	3.50077338	8.57718126	-31.89657186
4.07	407	0.136	0.002	-0.988	0	0.8021412	0.859437	3.50077338	8.58864042	-31.8851127
4.08	408	0.138	0.004	-0.986	0	0.6875496	0.7448454	3.50077338	8.59437	-31.87365354
4.09	409	0.143	0.002	-0.981	0.1718874	0.2291832	0.6302538	3.50650296	8.59437	-31.86792396
4.1	410	0.147	0	-0.976	0.1718874	0	0.4583664	2.78457588	8.5370742	-31.95959724
4.11	411	0.15	-0.002	-0.976	0.2291832	0.3437748	0.5156622	2.78457588	8.54280378	-31.95386766
4.12	412	0.155	-0.005	-0.969	0	1.0886202	0.6302538	2.78457588	8.55426294	-31.94813808
4.13	413	0.155	-0.011	-0.963	-0.7448454	1.6042824	0.4583664	2.7788463	8.57145168	-31.9424085
4.14	414	0.153	-0.012	-0.966	-1.2605076	1.4896908	0.286479	2.76738714	8.58291084	-31.93667892
4.15	415	0.154	-0.009	-0.97	-1.145916	0.859437	0.3437748	2.5496631	8.59437	-31.96532682
4.16	416	0.158	-0.001	-0.969	-0.9740286	0.0572958	0.5156622	2.53820394	8.60009958	-31.95959724
4.17	417	0.16	0.002	-0.972	-0.859437	-0.3437748	0.859437	2.53247436	8.59437	-31.95386766
4.18	418	0.161	0.007	-0.983	-0.6302538	-0.4583664	1.0886202	2.52674478	8.58864042	-31.9424085
4.19	419	0.16	0.01	-0.99	-0.0572958	-0.286479	1.2032118	2.52674478	8.58291084	-31.93094934
4.2	420	0.157	0.011	-0.994	0.286479	-0.4583664	0.9167328	2.22880662	8.55999252	-31.96532682
4.21	421	0.154	0.012	-0.994	0.3437748	-0.4010706	0.4583664	2.2345362	8.55426294	-31.95959724
4.22	422	0.151	0.009	-0.987	0.286479	-0.4010706	0.1718874	2.2345362	8.54853336	-31.95959724
4.23	423	0.149	0.01	-0.982	0	-0.4583664	0	2.2345362	8.54853336	-31.95959724
4.24	424	0.146	0.01	-0.977	-0.2291832	-0.3437748	0	2.2345362	8.54280378	-31.95959724
4.25	425	0.142	0.013	-0.974	-0.1718874	0.0572958	0.0572958	1.61574156	8.42821218	-32.02262262
4.26	426	0.143	0.016	-0.974	0	0.4010706	0.1718874	1.61574156	8.43394176	-32.02262262
4.27	427	0.143	0.017	-0.976	0.5156622	0.859437	0.2291832	1.62147114	8.43967134	-32.01689304
4.28	428	0.145	0.015	-0.98	0.859437	0.6875496	0.3437748	1.62720072	8.44540092	-32.01689304
4.29	429	0.149	0.012	-0.983	0.9167328	0.2291832	0.4010706	1.63865988	8.4511305	-32.01116346
4.3	430	0.151	0.007	-0.984	0.8021412	-0.1145916	0.4010706	1.40947668	8.42821218	-32.03408178
4.31	431	0.153	0.004	-0.983	0.6875496	-0.6302538	0.286479	1.42093584	8.4224826	-32.03408178
4.32	432	0.154	0.001	-0.98	0.6302538	-0.8021412	0.1718874	1.42666542	8.41675302	-32.03408178
4.33	433	0.153	-0.001	-0.98	0.4583664	-0.6875496	0	1.432395	8.41102344	-32.03408178
4.34	434	0.151	-0.002	-0.981	0.4010706	-0.572958	-0.286479	1.432395	8.40529386	-32.03408178
4.35	435	0.149	-0.001	-0.982	0.4010706	-0.572958	-0.4583664	1.23758928	8.37664596	-32.06845926
4.36	436	0.15	0	-0.983	0.286479	-0.6302538	-0.572958	1.23758928	8.37091638	-32.07418884
4.37	437	0.149	0	-0.983	0.286479	-0.4010706	-0.4010706	1.24331886	8.37091638	-32.07991842
4.38	438	0.149	0.001	-0.984	0.286479	-0.4010706	-0.286479	1.24331886	8.3651868	-32.07991842
4.39	439	0.147	0	-0.985	0.2291832	-0.7448454	-0.1718874	1.24904844	8.35945722	-32.085648
4.4	440	0.147	-0.002	-0.98	0.2291832	-1.3750992	-0.0572958	1.1172681	8.32507974	-32.10283674
4.41	441	0.147	-0.002	-0.978	0.3437748	-1.8334656	0	1.1172681	8.307891	-32.10283674
4.42	442	0.149	-0.001	-0.98	0.572958	-1.6615782	-0.1718874	1.12299768	8.29070226	-32.10856632
4.43	443	0.147	-0.002	-0.981	0.7448454	-1.2032118	-0.1718874	1.13445684	8.2792431	-32.10856632
4.44	444	0.146	-0.001	-0.982	0.5156622	-0.8021412	-0.3437748	1.14018642	8.27351352	-32.1142959
4.45	445	0.144	0.002	-0.981	0.2291832	-0.5156622	-0.4583664	0.86516658	8.2219473	-32.14867338
4.46	446	0.142	0.006	-0.98	0.3437748	-0.286479	-0.5156622	0.86516658	8.21621772	-32.15440296
4.47	447	0.141	0.008	-0.978	0.4010706	-0.1718874	-0.572958	0.87089616	8.21621772	-32.16013254
4.48	448	0.141	0.006	-0.978	0.6302538	-0.0572958	-0.5156622	0.87662574	8.21621772	-32.16586212
4.49	449	0.14	0.006	-0.978	0.5156622	-0.0572958	-0.286479	0.88235532	8.21621772	-32.1715917
4.5	450	0.14	0.007	-0.977	0.3437748	0.1718874	0	0.53858052	8.14746276	-32.20596918
4.51	451	0.143	0.011	-0.978	0.3437748	0.6302538	0	0.5443101	8.15319234	-32.20596918
4.52	452	0.144	0.014	-0.979	0.6875496	1.3178034	0.2291832	0.55003968	8.1646515	-32.2002396
4.53	453	0.146	0.014	-0.983	1.0313244	1.4896908	0.3437748	0.56149884	8.18184024	-32.19451002
4.54	454	0.148	0.013	-0.985	1.432395	1.3178034	0.4010706	0.57868758	8.1932994	-32.18878044
4.55	455	0.147	0.012	-0.987	1.7761698	1.0313244	0.4583664	0.52712136	8.19902898	-32.19451002
4.56	456	0.144	0.01	-0.986	1.718874	0.9740286	0.4583664	0.5443101	8.20475856	-32.18878044
4.57	457	0.144	0.006	-0.984	1.6615782	1.0886202	0.572958	0.56149884	8.21621772	-32.18305086
4.58	458	0.144	0.002	-0.982	1.432395	1.2605076	0.8021412	0.57868758	8.23340646	-32.1715917
4.59	459	0.145	0.001	-0.979	1.3178034	1.0313244	0.9740286	0.59587632	8.24486562	-32.16586212
4.6	460	0.144	0	-0.977	1.2605076	0.859437	1.145916	0.55003968	8.23913604	-32.16013254
4.61	461	0.141	0.001	-0.979	0.9740286	0.8021412	1.2605076	0.56149884	8.24486562	-32.1429438
4.62	462	0.139	0.003	-0.984	0.6875496	0.9167328	1.2032118	0.572958	8.25632478	-32.13148464
4.63	463	0.14	0.007	-0.989	0.4583664	1.2032118	1.0886202	0.57868758	8.26778394	-32.12002548
4.64	464	0.141	0.007	-0.994	0.3437748	1.4896908	1.0313244	0.58441716	8.28497268	-32.10856632
4.65	465	0.146	0.006	-0.992	0.286479	1.6615782	1.0886202	0.52712136	8.29643184	-32.10283674
4.66	466	0.151	0.003	-0.978	0.286479	2.1772404	1.145916	0.53285094	8.31362058	-32.09137758
4.67	467	0.148	-0.003	-0.97	0.1145916	2.1199446	1.0886202	0.53285094	8.3365389	-32.07991842
4.68	468	0.145	-0.007	-0.971	0.4010706	1.5469866	0.9740286	0.53858052	8.35372764	-32.06845926
4.69	469	0.144	-0.008	-0.972	0.8021412	0.9740286	0.9167328	0.55003968	8.3651868	-32.06272968
4.7	470	0.147	-0.006	-0.972	0.859437	0.9167328	0.9740286	0.50993262	8.3651868	-32.0570001
4.71	471	0.149	-0.002	-0.978	0.572958	1.3178034	0.9740286	0.5156622	8.37664596	-32.04554094
4.72	472	0.152	0	-0.984	0.4583664	1.8334656	0.9740286	0.52139178	8.3938347	-32.03408178
4.73	473	0.153	0.002	-0.99	0.286479	2.291832	0.859437	0.52712136	8.41675302	-32.02262262
4.74	474	0.153	0.005	-0.991	0.572958	2.005353	0.6875496	0.53285094	8.43967134	-32.01689304
4.75	475	0.154	0.003	-0.989	0.859437	1.3750992	0.4010706	0.47555514	8.44540092	-32.02262262
4.76	476	0.153	0.004	-0.984	1.145916	0.9167328	0.3437748	0.4870143	8.45686008	-32.01689304
4.77	477	0.153	0.003	-0.98	1.145916	0.572958	0.2291832	0.49847346	8.46258966	-32.01689304
4.78	478	0.153	0.003	-0.978	1.145916	0.5156622	0.2291832	0.50993262	8.46831924	-32.01116346
4.79	479	0.151	0.005	-0.978	0.7448454	0.7448454	0.286479	0.5156622	8.47404882	-32.01116346
4.8	480	0.151	0.008	-0.979	0.572958	1.2605076	0.1718874	0.4297185	8.47404882	-32.01689304
4.81	481	0.152	0.012	-0.977	0.572958	1.8907614	0.1145916	0.43544808	8.49696714	-32.01689304
4.82	482	0.154	0.011	-0.977	0.8021412	2.1772404	0.1718874	0.44117766	8.51988546	-32.01689304
4.83	483	0.154	0.009	-0.98	0.859437	2.3491278	0.1718874	0.45263682	8.54280378	-32.01116346
4.84	484	0.155	0.005	-0.982	0.9740286	2.3491278	0.2291832	0.46409598	8.5657221	-32.01116346
4.85	485	0.157	0.003	-0.979	0.6875496	2.4064236	0.1718874	0.41825934	8.59437	-32.01689304
4.86	486	0.158	0.002	-0.976	0.4583664	2.6929026	0.2291832	0.42398892	8.61728832	-32.01116346
4.87	487	0.158	0	-0.978	0.3437748	3.0366774	0.2291832	0.42398892	8.6516658	-32.00543388
4.88	488	0.158	0	-0.981	0.5156622	3.0366774	0.3437748	0.4297185	8.6803137	-32.00543388
4.89	489	0.159	-0.001	-0.984	0.6302538	2.3491278	0.3437748	0.44117766	8.70323202	-31.9997043
4.9	490	0.16	-0.001	-0.982	0.5156622	1.7761698	0.286479	0.37815228	8.72042076	-32.00543388
4.91	491	0.16	-0.004	-0.98	0.0572958	1.6615782	0.2291832	0.38388186	8.7376095	-31.9997043
4.92	492	0.159	-0.004	-0.978	0	1.4896908	0.286479	0.38388186	8.75479824	-31.9997043
4.93	493	0.159	-0.003	-0.977	0.0572958	1.5469866	0.2291832	0.38388186	8.7662574	-31.99397472
4.94	494	0.161	0	-0.978	0.3437748	1.5469866	0.286479	0.38388186	8.78344614	-31.98824514
4.95	495	0.161	0	-0.98	0.7448454	1.432395	0.3437748	0.33231564	8.80063488	-31.99397472
4.96	496	0.161	0.001	-0.981	1.0313244	1.145916	0.4010706	0.3437748	8.81209404	-31.99397472
4.97	497	0.16	0.001	-0.982	1.0313244	0.859437	0.4583664	0.35523396	8.81782362	-31.98824514
4.98	498	0.16	0	-0.983	1.0313244	0.9167328	0.572958	0.36669312	8.82928278	-31.98251556
4.99	499	0.159	-0.001	-0.98	1.2032118	0.9740286	0.4583664	0.38388186	8.84074194	-31.97678598
5	500	0.158	-0.001	-0.978	1.145916	0.9740286	0.3437748	0.33804522	8.84074194	-31.97678598
5.01	501	0.156	-0.001	-0.98	1.2605076	1.0313244	0.1145916	0.34950438	8.8522011	-31.97678598
5.02	502	0.157	-0.001	-0.98	1.3178034	0.9740286	0	0.36096354	8.86366026	-31.97678598
5.03	503	0.158	0	-0.98	1.2032118	0.7448454	-0.1145916	0.3724227	8.86938984	-31.97678598
5.04	504	0.161	0.001	-0.979	1.0313244	0.5156622	-0.1718874	0.38388186	8.87511942	-31.98251556
5.05	505	0.162	0.004	-0.972	0.8021412	0.4583664	-0.1145916	0.2578311	8.89230816	-32.00543388
5.06	506	0.164	0.005	-0.97	0.6302538	0.5156622	0.0572958	0.26356068	8.89803774	-32.00543388
5.07	507	0.162	0.006	-0.968	0.7448454	0.5156622	0.1145916	0.26929026	8.90376732	-31.9997043
5.08	508	0.16	0.004	-0.97	0.9740286	0.6302538	0.2291832	0.28074942	8.9094969	-31.9997043
5.09	509	0.159	0.003	-0.973	1.0313244	0.6302538	0.2291832	0.29220858	8.91522648	-31.9997043
5.1	510	0.157	0	-0.975	0.9740286	1.0313244	0.2291832	0.24637194	8.91522648	-31.9997043
5.11	511	0.157	0	-0.977	0.9740286	1.2605076	0.0572958	0.2578311	8.92668564	-31.9997043
5.12	512	0.157	-0.001	-0.977	0.9167328	1.6615782	-0.0572958	0.26356068	8.94387438	-31.9997043
5.13	513	0.157	0	-0.979	0.9167328	1.8907614	-0.2291832	0.27501984	8.96106312	-32.00543388
5.14	514	0.157	0	-0.979	0.8021412	2.0626488	-0.4010706	0.28074942	8.98398144	-32.00543388
5.15	515	0.158	0	-0.978	0.6302538	2.005353	-0.3437748	0.24064236	8.9954406	-32.01689304
5.16	516	0.158	0.001	-0.979	0.572958	1.9480572	-0.286479	0.24637194	9.01262934	-32.01689304
5.17	517	0.161	0.002	-0.976	0.4583664	1.718874	-0.1718874	0.24637194	9.02981808	-32.01689304
5.18	518	0.168	0	-0.973	0.1145916	1.0886202	0	0.25210152	9.04127724	-32.01689304
5.19	519	0.172	0	-0.97	-0.1145916	0.3437748	0.1145916	0.24637194	9.04700682	-32.01689304
5.2	520	0.175	0.002	-0.966	-0.1718874	0	0.3437748	0.1145916	9.11576178	-32.04554094
5.21	521	0.176	0.004	-0.947	-0.4010706	-0.286479	0.4010706	0.10886202	9.11576178	-32.04554094
5.22	522	0.171	0.004	-0.946	-0.4583664	-0.9740286	0.4010706	0.10313244	9.10430262	-32.03981136
5.23	523	0.167	0.004	-0.95	0.286479	-2.1772404	0.2291832	0.10886202	9.0813843	-32.03408178
5.24	524	0.165	0.004	-0.954	1.0313244	-2.578311	0.1145916	0.12032118	9.05846598	-32.03408178
5.25	525	0.165	0.001	-0.961	1.3178034	-2.3491278	0.1718874	0.10313244	9.03554766	-32.03981136
5.26	526	0.162	-0.001	-0.973	1.3750992	-2.0626488	0.1145916	0.1145916	9.01262934	-32.03981136
5.27	527	0.157	-0.005	-0.983	1.3178034	-1.5469866	0.0572958	0.13178034	9.00117018	-32.03981136
