TimeStamp(s)	FrameCounter	AccX	AccY	AccZ	GyrX	GyrY	GyrZ	EulerX	EulerY	EulerZ
0.01	1	-0.043	-1.003	-0.076	0.572958	-0.286479	0.1718874	84.30504012	-1.35791046	-43.38437976
0.02	2	-0.046	-1.006	-0.07	0.0572958	0.1718874	0.4583664	84.30504012	-1.36364004	-43.38437976
0.03	3	-0.047	-1.006	-0.066	0.286479	0.4583664	0.4583664	84.3107697	-1.36936962	-43.37865018
0.04	4	-0.05	-1.006	-0.063	0.4583664	0.9167328	0.3437748	84.3107697	-1.3750992	-43.36719102
0.05	5	-0.051	-1.007	-0.061	0.5156622	1.3178034	0.2291832	84.34514718	-1.45531332	-43.38437976
0.06	6	-0.05	-1.007	-0.057	0.4010706	1.718874	0.286479	84.35087676	-1.45531332	-43.36719102
0.07	7	-0.049	-1.01	-0.055	0.1718874	2.005353	0.3437748	84.35087676	-1.4610429	-43.3442727
0.08	8	-0.048	-1.01	-0.056	0	2.1199446	0.3437748	84.35087676	-1.4610429	-43.32135438
0.09	9	-0.046	-1.011	-0.06	-0.3437748	2.2345362	0.2291832	84.34514718	-1.4610429	-43.29843606
0.1	10	-0.045	-1.011	-0.059	-0.859437	2.291832	0.0572958	84.35660634	-1.4896908	-43.2869769
0.11	11	-0.044	-1.012	-0.059	-1.3750992	2.1772404	0.0572958	84.3394176	-1.4896908	-43.26405858
0.12	12	-0.045	-1.009	-0.063	-1.3178034	2.1772404	0.2291832	84.32795844	-1.4896908	-43.24114026
0.13	13	-0.046	-1.01	-0.067	-0.8021412	2.1772404	0.3437748	84.31649928	-1.49542038	-43.21822194
0.14	14	-0.045	-1.01	-0.067	-0.1145916	2.1772404	0.3437748	84.31649928	-1.49542038	-43.19530362
0.15	15	-0.044	-1.009	-0.069	0.2291832	2.1772404	0.2291832	84.32795844	-1.53552744	-43.18957404
0.16	16	-0.043	-1.008	-0.07	0.2291832	2.1772404	0.1145916	84.32795844	-1.53552744	-43.16665572
0.17	17	-0.041	-1.007	-0.072	-0.0572958	2.0626488	0.0572958	84.32795844	-1.53552744	-43.14946698
0.18	18	-0.04	-1.001	-0.08	-0.3437748	1.718874	0.0572958	84.32222886	-1.53552744	-43.13227824
0.19	19	-0.039	-0.992	-0.084	-0.0572958	1.145916	0.1145916	84.32222886	-1.53552744	-43.12081908
0.2	20	-0.037	-0.983	-0.083	0.286479	0.859437	0.1145916	84.28785138	-1.56990492	-43.12654866
0.21	21	-0.035	-0.979	-0.078	0.7448454	0.5156622	0.1718874	84.29931054	-1.56990492	-43.12081908
0.22	22	-0.035	-0.978	-0.073	1.0886202	0.1145916	0.2291832	84.3107697	-1.56990492	-43.12081908
0.23	23	-0.033	-0.981	-0.071	1.3750992	-0.0572958	0.4583664	84.32222886	-1.5756345	-43.12081908
0.24	24	-0.03	-0.987	-0.066	1.5469866	-0.3437748	0.5156622	84.3394176	-1.58136408	-43.12081908
0.25	25	-0.029	-0.993	-0.062	1.6042824	-1.0313244	0.6302538	84.38525424	-1.5756345	-43.12081908
0.26	26	-0.027	-1.002	-0.057	1.4896908	-1.7761698	0.6302538	84.40244298	-1.58136408	-43.13800782
0.27	27	-0.027	-1.007	-0.06	1.4896908	-2.7501984	0.572958	84.41963172	-1.59282324	-43.16665572
0.28	28	-0.029	-1.006	-0.059	1.6042824	-3.3804522	0.3437748	84.43682046	-1.59855282	-43.2010332
0.29	29	-0.031	-1.006	-0.057	1.9480572	-3.724227	0.1145916	84.45973878	-1.6042824	-43.23541068
0.3	30	-0.034	-1.003	-0.057	2.4637194	-4.297185	-0.0572958	84.49984584	-1.6042824	-43.27551774
0.31	31	-0.037	-1.006	-0.055	2.9793816	-4.870143	-0.286479	84.53422332	-1.6042824	-43.32708396
0.32	32	-0.038	-1.005	-0.057	3.437748	-5.2712136	-0.3437748	84.5686008	-1.6042824	-43.37865018
0.33	33	-0.037	-1.001	-0.061	3.7815228	-5.443101	-0.3437748	84.60870786	-1.6042824	-43.4302164
0.34	34	-0.034	-0.996	-0.062	4.010706	-5.5576926	-0.286479	84.6545445	-1.6042824	-43.4875122
0.35	35	-0.03	-0.993	-0.06	4.2398892	-6.4171296	-0.4010706	84.70611072	-1.59855282	-43.55053758
0.36	36	-0.026	-0.993	-0.056	4.4117766	-7.448454	-0.3437748	84.75194736	-1.59855282	-43.61929254
0.37	37	-0.023	-0.995	-0.053	4.4117766	-8.5370742	-0.1145916	84.80351358	-1.6042824	-43.70523624
0.38	38	-0.022	-0.998	-0.051	4.297185	-9.2819196	-0.1718874	84.84935022	-1.6042824	-43.79690952
0.39	39	-0.023	-1	-0.047	4.297185	-9.8548776	-0.1145916	84.89518686	-1.61001198	-43.89431238
0.4	40	-0.026	-1.001	-0.043	4.2398892	-10.0840608	-0.286479	84.95248266	-1.61001198	-43.99171524
0.41	41	-0.032	-1	-0.041	4.2398892	-10.1986524	-0.5156622	85.00404888	-1.61001198	-44.09484768
0.42	42	-0.038	-0.998	-0.039	4.3544808	-10.0840608	-0.9740286	85.04988552	-1.6042824	-44.19225054
0.43	43	-0.043	-0.996	-0.035	4.6409598	-9.7975818	-1.145916	85.10145174	-1.59855282	-44.2896534
0.44	44	-0.048	-0.995	-0.033	4.9847346	-9.453807	-1.2605076	85.15874754	-1.58709366	-44.38705626
0.45	45	-0.052	-0.994	-0.032	5.3285094	-9.0527364	-1.3178034	85.2275025	-1.59282324	-44.47872954
0.46	46	-0.054	-0.997	-0.031	5.443101	-8.6516658	-1.2605076	85.2847983	-1.58136408	-44.56467324
0.47	47	-0.057	-1	-0.03	5.3285094	-8.2505952	-1.3178034	85.3420941	-1.56990492	-44.64488736
0.48	48	-0.057	-1.005	-0.029	5.156622	-7.734933	-1.3178034	85.3993899	-1.56417534	-44.72510148
0.49	49	-0.056	-1.009	-0.032	5.0993262	-6.9327918	-1.3178034	85.45095612	-1.55271618	-44.79385644
0.5	50	-0.056	-1.013	-0.031	5.2712136	-6.0733548	-1.3178034	85.51971108	-1.55844576	-44.85688182
0.51	51	-0.059	-1.015	-0.034	5.2712136	-5.0420304	-1.4896908	85.57700688	-1.54125702	-44.90844804
0.52	52	-0.064	-1.015	-0.036	5.0993262	-4.3544808	-1.718874	85.6285731	-1.52979786	-44.9485551
0.53	53	-0.068	-1.013	-0.036	4.9847346	-3.4950438	-2.0626488	85.68013932	-1.50687954	-44.98866216
0.54	54	-0.069	-1.015	-0.037	5.0420304	-2.5210152	-2.5210152	85.73170554	-1.48396122	-45.01158048
0.55	55	-0.068	-1.017	-0.036	5.2139178	-0.9740286	-2.9220858	85.79473092	-1.4896908	-45.0344988
0.56	56	-0.065	-1.018	-0.036	5.2712136	0.4010706	-3.2085648	85.84629714	-1.45531332	-45.0344988
0.57	57	-0.061	-1.018	-0.038	5.2139178	1.3750992	-3.4950438	85.90359294	-1.42093584	-45.02303964
0.58	58	-0.058	-1.015	-0.041	4.870143	2.1772404	-3.437748	85.94942958	-1.38082878	-45.00012132
0.59	59	-0.051	-1.01	-0.041	4.5263682	2.7501984	-3.0939732	85.99526622	-1.35218088	-44.977203
0.6	60	-0.044	-1.009	-0.041	3.8961144	2.9793816	-2.6356068	86.03537328	-1.33499214	-44.95428468
0.61	61	-0.041	-1.008	-0.044	2.9220858	3.151269	-2.0626488	86.06402118	-1.31207382	-44.9199072
0.62	62	-0.039	-1.01	-0.048	2.1772404	3.2658606	-1.6042824	86.0869395	-1.29488508	-44.8912593
0.63	63	-0.04	-1.011	-0.051	1.3178034	3.4950438	-1.4896908	86.09839866	-1.27769634	-44.85688182
0.64	64	-0.042	-1.011	-0.055	0.6302538	3.7815228	-1.4896908	86.10412824	-1.26623718	-44.82250434
0.65	65	-0.042	-1.012	-0.059	0.1718874	4.010706	-1.718874	86.0869395	-1.27196676	-44.79385644
0.66	66	-0.041	-1.016	-0.06	-0.0572958	4.010706	-1.7761698	86.08120992	-1.24904844	-44.75374938
0.67	67	-0.04	-1.019	-0.061	-1.0313244	3.4950438	-1.718874	86.06975076	-1.2318597	-44.7193719
0.68	68	-0.038	-1.021	-0.064	-1.8334656	2.86479	-1.6042824	86.05256202	-1.21467096	-44.69645358
0.69	69	-0.037	-1.02	-0.064	-2.3491278	2.6356068	-1.432395	86.02391412	-1.19748222	-44.66780568
0.7	70	-0.036	-1.018	-0.064	-3.0939732	2.9220858	-1.2032118	85.97807748	-1.2032118	-44.65061694
0.71	71	-0.033	-1.016	-0.069	-3.724227	3.2658606	-1.0313244	85.93797042	-1.19175264	-44.61623946
0.72	72	-0.034	-1.013	-0.068	-4.1252976	3.2658606	-0.859437	85.89213378	-1.18029348	-44.58759156
0.73	73	-0.037	-1.012	-0.068	-4.4690724	3.151269	-0.7448454	85.84629714	-1.16883432	-44.55321408
0.74	74	-0.041	-1.013	-0.067	-4.8128472	3.0366774	-0.4583664	85.79473092	-1.16310474	-44.52456618
0.75	75	-0.044	-1.012	-0.064	-5.3285094	3.0939732	-0.0572958	85.73170554	-1.18029348	-44.50164786
0.76	76	-0.046	-1.011	-0.062	-5.8441716	3.5523396	0.1718874	85.67440974	-1.18602306	-44.46727038
0.77	77	-0.048	-1.008	-0.061	-6.302538	4.010706	0.286479	85.60565478	-1.18602306	-44.42716332
0.78	78	-0.052	-1.006	-0.056	-6.4744254	4.3544808	0.286479	85.53689982	-1.18602306	-44.38705626
0.79	79	-0.055	-1.011	-0.056	-6.5317212	4.870143	0.1145916	85.46814486	-1.18602306	-44.34121962
0.8	80	-0.058	-1.021	-0.059	-7.1046792	5.3858052	0	85.39366032	-1.2032118	-44.29538298
0.81	81	-0.059	-1.028	-0.061	-8.1932994	5.6149884	0	85.30771662	-1.2032118	-44.23808718
0.82	82	-0.062	-1.032	-0.062	-9.3965112	5.5576926	0.6875496	85.21031376	-1.20894138	-44.18652096
0.83	83	-0.067	-1.03	-0.061	-10.7143146	5.5576926	1.718874	85.10145174	-1.22040054	-44.12922516
0.84	84	-0.069	-1.025	-0.059	-11.4018642	6.1879464	2.4064236	84.98113056	-1.24331886	-44.06619978
0.85	85	-0.073	-1.024	-0.056	-12.2040054	7.5057498	2.578311	84.8550798	-1.28342592	-43.99744482
0.86	86	-0.076	-1.026	-0.055	-13.8655836	9.3392154	2.6356068	84.7118403	-1.30634424	-43.90577154
0.87	87	-0.08	-1.024	-0.063	-15.4125702	11.1153852	2.3491278	84.55141206	-1.32353298	-43.79117994
0.88	88	-0.082	-1.016	-0.073	-16.3865988	12.605076	2.005353	84.37952466	-1.33499214	-43.67085876
0.89	89	-0.084	-1.009	-0.089	-16.615782	13.5218088	1.9480572	84.20763726	-1.3464513	-43.53334884
0.9	90	-0.087	-1.005	-0.095	-15.9855282	13.3499214	2.1199446	84.03574986	-1.3750992	-43.40729808
0.91	91	-0.09	-1.006	-0.088	-15.2979786	12.5477802	2.4064236	83.87532162	-1.39228794	-43.2869769
0.92	92	-0.091	-1.011	-0.081	-15.6417534	11.6883432	2.8074942	83.7091638	-1.40947668	-43.16665572
0.93	93	-0.088	-1.018	-0.08	-16.2720072	10.7716104	3.3804522	83.54300598	-1.43812458	-43.0577937
0.94	94	-0.08	-1.022	-0.083	-16.7303736	10.7143146	3.8388186	83.365389	-1.46677248	-42.94893168
0.95	95	-0.076	-1.023	-0.084	-16.902261	11.4018642	4.010706	83.1935016	-1.50687954	-42.84006966
0.96	96	-0.073	-1.023	-0.088	-17.8762896	12.5477802	3.6669312	83.00442546	-1.53552744	-42.7140189
0.97	97	-0.076	-1.018	-0.097	-18.907614	13.0061466	2.9793816	82.80961974	-1.55271618	-42.58223856
0.98	98	-0.077	-1.013	-0.104	-19.767051	12.4904844	1.8907614	82.60335486	-1.56417534	-42.4561878
0.99	99	-0.079	-1.007	-0.111	-19.9389384	11.0580894	1.3178034	82.39708998	-1.56990492	-42.34732578
1	100	-0.08	-1.001	-0.11	-19.3086846	9.3965112	0.7448454	82.19655468	-1.58136408	-42.26138208
1.01	101	-0.08	-0.996	-0.11	-18.7357266	7.448454	0.6302538	82.00174896	-1.58136408	-42.19262712
1.02	102	-0.08	-0.992	-0.104	-18.621135	5.3285094	0.7448454	81.80694324	-1.58709366	-42.1410609
1.03	103	-0.081	-0.992	-0.097	-19.480572	3.7815228	0.8021412	81.61213752	-1.59282324	-42.10095384
1.04	104	-0.08	-0.993	-0.096	-20.912967	2.7501984	0.7448454	81.39441348	-1.59855282	-42.07803552
1.05	105	-0.081	-0.994	-0.1	-22.5172494	2.005353	0.5156622	81.17095986	-1.61574156	-42.06084678
1.06	106	-0.08	-0.998	-0.106	-23.6058696	1.2605076	0.0572958	80.9303175	-1.62147114	-42.04938762
1.07	107	-0.08	-1	-0.112	-24.0069402	0.0572958	-0.4583664	80.68967514	-1.61574156	-42.0551172
1.08	108	-0.079	-1	-0.12	-23.8350528	-1.2605076	-1.0886202	80.44903278	-1.61001198	-42.07230594
1.09	109	-0.08	-0.99	-0.128	-23.491278	-2.8074942	-1.9480572	80.20839042	-1.59855282	-42.10668342
1.1	110	-0.077	-0.976	-0.131	-22.1161788	-4.2398892	-2.7501984	79.99066638	-1.59282324	-42.15824964
1.11	111	-0.074	-0.963	-0.126	-20.4546006	-5.9014674	-3.5523396	79.7844015	-1.56417534	-42.22127502
1.12	112	-0.075	-0.954	-0.115	-18.7930224	-7.6776372	-3.8961144	79.59532536	-1.54125702	-42.30721872
1.13	113	-0.079	-0.949	-0.103	-17.3606274	-9.1100322	-3.8961144	79.42343796	-1.5183387	-42.40462158
1.14	114	-0.087	-0.948	-0.103	-15.6990492	-10.0840608	-3.4950438	79.2687393	-1.50114996	-42.5134836
1.15	115	-0.099	-0.948	-0.107	-13.6364004	-10.3705398	-2.9220858	79.14268854	-1.51260912	-42.6280752
1.16	116	-0.109	-0.946	-0.114	-11.45916	-9.740286	-2.4637194	79.03382652	-1.50687954	-42.72547806
1.17	117	-0.119	-0.946	-0.118	-9.9694692	-9.1100322	-2.1199446	78.93642366	-1.50114996	-42.82288092
1.18	118	-0.129	-0.945	-0.122	-8.59437	-8.4224826	-1.6042824	78.85047996	-1.50114996	-42.90882462
1.19	119	-0.139	-0.95	-0.125	-7.3338624	-7.448454	-0.9740286	78.77599542	-1.50114996	-42.98330916
1.2	120	-0.146	-0.954	-0.13	-5.9014674	-5.7868758	-0.1718874	78.73015878	-1.6042824	-43.06925286
1.21	121	-0.147	-0.953	-0.131	-3.724227	-3.6096354	0.572958	78.6957813	-1.61574156	-43.10363034
1.22	122	-0.14	-0.955	-0.127	-1.6615782	-0.859437	1.0313244	78.67859256	-1.62720072	-43.10935992
1.23	123	-0.129	-0.954	-0.135	-0.8021412	1.6042824	1.432395	78.6671334	-1.63865988	-43.09217118
1.24	124	-0.119	-0.945	-0.139	-0.8021412	3.4950438	1.7761698	78.66140382	-1.65011904	-43.0577937
1.25	125	-0.108	-0.935	-0.144	-0.286479	6.0733548	2.0626488	78.65567424	-1.718874	-43.01195706
1.26	126	-0.097	-0.93	-0.153	0.4583664	8.6516658	2.4064236	78.66140382	-1.73033316	-42.92028378
1.27	127	-0.083	-0.934	-0.157	0.4010706	10.2559482	2.86479	78.65567424	-1.74179232	-42.81715134
1.28	128	-0.073	-0.95	-0.155	-1.145916	10.6570188	3.3804522	78.64421508	-1.75325148	-42.70255974
1.29	129	-0.07	-0.983	-0.155	-4.583664	10.1986524	3.8388186	78.59264886	-1.7761698	-42.5994273
1.3	130	-0.07	-1.027	-0.156	-8.59437	11.0007936	3.6096354	78.50670516	-1.8048177	-42.4848357
1.31	131	-0.075	-1.057	-0.154	-10.9434978	15.469866	2.1772404	78.38638398	-1.79908812	-42.33013704
1.32	132	-0.075	-1.06	-0.144	-9.2246238	22.2880662	-0.3437748	78.28325154	-1.75898106	-42.11814258
1.33	133	-0.067	-1.049	-0.122	-5.72958	29.5646328	-3.437748	78.208767	-1.67303736	-41.83739316
1.34	134	-0.048	-1.024	-0.103	-1.3178034	35.3515086	-6.1879464	78.18584868	-1.55271618	-41.50507752
1.35	135	-0.021	-0.99	-0.062	3.2085648	37.9298196	-8.0787078	78.22022616	-1.39801752	-41.14411398
1.36	136	0.019	-0.963	-0.018	4.8128472	37.6433406	-8.4797784	78.26033322	-1.24904844	-40.7946096
1.37	137	0.057	-0.946	0.027	2.578311	34.3201842	-7.3338624	78.27179238	-1.1172681	-40.47375312
1.38	138	0.082	-0.943	0.07	-1.718874	27.215505	-4.5263682	78.24887406	-1.02559482	-40.2216516
1.39	139	0.084	-0.967	0.094	-4.6409598	17.18874	-1.9480572	78.19730784	-0.97975818	-40.05549378
1.4	140	0.081	-1.011	0.071	-5.9014674	9.167328	-0.3437748	78.2660628	-0.87662574	-39.92371344
1.41	141	0.083	-1.065	0.042	-6.6463128	6.1306506	-0.9167328	78.19730784	-0.85370742	-39.86641764
1.42	142	0.065	-1.108	0.036	-6.1306506	8.59437	-4.1825934	78.13428246	-0.8021412	-39.7919331
1.43	143	0.047	-1.131	0.039	-5.156622	13.3499214	-9.0527364	78.07698666	-0.6875496	-39.6773415
1.44	144	0.039	-1.117	0.037	-3.3804522	18.1054728	-13.8082878	78.0368796	-0.52139178	-39.534102
1.45	145	0.026	-1.091	0.02	-1.3750992	22.0015872	-17.18874	78.04833876	-0.30366774	-39.34502586
1.46	146	0.025	-1.064	-0.004	-0.286479	23.8923486	-18.8503182	78.04260918	-0.08021412	-39.15022014
1.47	147	0.03	-1.023	-0.015	-1.8907614	22.91832	-18.2200644	78.01969086	0.13178034	-38.96687358
1.48	148	0.038	-0.983	-0.014	-4.6409598	20.3973048	-16.042824	77.97385422	0.32658606	-38.80071576
1.49	149	0.041	-0.944	-0.01	-7.161975	17.9908812	-13.0061466	77.89936968	0.48128472	-38.65174668
1.5	150	0.05	-0.919	-0.008	-8.8235532	16.1001198	-9.453807	77.84207388	0.61879464	-38.5027776
1.51	151	0.053	-0.902	-0.012	-9.7975818	14.037471	-5.7868758	77.73894144	0.69900876	-38.37672684
1.52	152	0.054	-0.896	-0.009	-10.1413566	11.745639	-2.8074942	77.635809	0.75057498	-38.2735944
1.53	153	0.05	-0.896	-0.012	-10.313244	9.167328	-0.3437748	77.53267656	0.76776372	-38.18192112
1.54	154	0.039	-0.897	-0.014	-9.5111028	6.4744254	1.6615782	77.4352737	0.76203414	-38.11889574
1.55	155	0.035	-0.903	-0.016	-7.5057498	3.6669312	2.4064236	77.42954412	0.7734933	-38.05587036
1.56	156	0.056	-0.894	-0.01	-5.443101	1.3750992	2.6356068	77.3779779	0.75057498	-38.03868162
1.57	157	0.062	-0.908	-0.014	-5.156622	-0.9167328	2.1772404	77.3206821	0.72765666	-38.0444112
1.58	158	0.082	-0.913	-0.016	-6.2452422	-3.7815228	2.1199446	77.25765672	0.69900876	-38.0730591
1.59	159	0.102	-0.92	-0.015	-6.4171296	-8.8235532	2.6929026	77.19463134	0.65317212	-38.15327322
1.6	160	0.115	-0.935	-0.017	-5.3858052	-15.183387	3.8388186	77.19463134	0.6302538	-38.2735944
1.61	161	0.139	-0.947	-0.014	-4.0680018	-22.1734746	5.3285094	77.1487947	0.53858052	-38.4741297
1.62	162	0.17	-0.965	-0.009	-3.0939732	-31.3980984	8.021412	77.1201468	0.39534102	-38.76633828
1.63	163	0.179	-0.991	0.008	-1.2605076	-43.7739912	10.2559482	77.11441722	0.21199446	-39.16740888
1.64	164	0.169	-1.027	0.035	1.432395	-55.2331512	12.0894138	77.13160596	-0.00572958	-39.6773415
1.65	165	0.158	-1.047	0.065	3.151269	-65.603691	13.5218088	77.20036092	-0.24637194	-40.27321782
1.66	166	0.14	-1.077	0.097	7.3338624	-74.4272442	13.1207382	77.2920342	-0.50993262	-40.966497
1.67	167	0.092	-1.107	0.117	10.7143146	-80.3287116	12.5477802	77.41808496	-0.78495246	-41.71707198
1.68	168	0.052	-1.137	0.117	14.6677248	-82.1048814	11.2299768	77.59570194	-1.04851314	-42.4848357
1.69	169	0.003	-1.171	0.134	19.0222056	-81.4173318	9.8548776	77.81342598	-1.2891555	-43.258329
1.7	170	-0.083	-1.179	0.166	23.491278	-78.4379502	8.880849	78.09990498	-1.5183387	-43.99744482
1.71	171	-0.095	-1.248	0.2	25.3247436	-70.473834	5.6722842	78.38638398	-1.69595568	-44.66780568
1.72	172	-0.111	-1.28	0.232	20.3973048	-61.1919144	2.4637194	78.62129676	-1.82200644	-45.25795242
1.73	173	-0.103	-1.302	0.317	11.45916	-51.6808116	-1.0886202	78.75880668	-1.89649098	-45.76215546
1.74	174	-0.084	-1.305	0.226	4.1252976	-46.8679644	-1.2605076	78.82183206	-1.95951636	-46.22052186
1.75	175	-0.054	-1.324	-0.079	0.0572958	-45.8939358	-0.3437748	78.85620954	-2.02254174	-46.6674291
1.76	176	-0.009	-1.358	-0.142	4.4690724	-15.9282324	-0.6875496	78.91350534	-2.04546006	-46.82212776
1.77	177	-0.123	-1.482	-0.242	26.4133638	-11.745639	-6.0733548	79.1827956	-1.99962342	-46.94817852
1.78	178	-0.173	-1.556	-0.281	36.4401288	-11.0580894	-12.7196676	79.56094788	-1.8907614	-47.07422928
1.79	179	-0.133	-1.534	-0.423	35.6379876	-1.5469866	-19.5951636	79.92191142	-1.69595568	-47.12006592
1.8	180	-0.11	-1.444	-0.424	40.680018	6.8182002	-26.642547	80.3287116	-1.42666542	-47.0971476
1.81	181	-0.086	-1.34	-0.394	47.6128098	9.5111028	-28.5333084	80.80999632	-1.12872726	-47.04558138
1.82	182	-0.017	-1.222	-0.396	43.0291458	4.0680018	-22.058883	81.2454444	-0.89954406	-47.03412222
1.83	183	-0.009	-1.024	-0.437	32.2002396	-8.4224826	-10.886202	81.57776004	-0.8021412	-47.13152508
1.84	184	-0.042	-0.813	-0.465	27.4446882	-21.3713334	-2.6929026	81.85850946	-0.79641162	-47.34351954
1.85	185	-0.034	-0.63	-0.472	26.9863218	-27.7311672	0.8021412	82.09915182	-0.83651868	-47.61853938
1.86	186	0.019	-0.532	-0.402	26.2414764	-29.8511118	0.6302538	82.37417166	-0.87089616	-47.90501838
1.87	187	0.125	-0.514	-0.299	21.8296998	-32.6013102	-0.6302538	82.60908444	-0.89954406	-48.22587486
1.88	188	0.214	-0.553	-0.255	12.605076	-37.7579322	-1.718874	82.74659436	-0.9167328	-48.59829756
1.89	189	0.274	-0.624	-0.239	1.0313244	-44.0031744	-2.6356068	82.76951268	-0.93392154	-49.03374564
1.9	190	0.279	-0.706	-0.228	-9.0527364	-48.6441342	-3.7815228	82.6778394	-0.90527364	-49.50930078
1.91	191	0.249	-0.811	-0.211	-15.5271618	-50.2484166	-5.9587632	82.5345999	-0.89954406	-50.01350382
1.92	192	0.184	-0.934	-0.209	-19.5378678	-49.274388	-7.9641162	82.35125334	-0.87662574	-50.5062477
1.93	193	0.109	-1.077	-0.234	-20.626488	-45.550161	-9.3392154	82.15644762	-0.8307891	-50.97034368
1.94	194	0.027	-1.184	-0.25	-21.6005166	-40.9092012	-9.6256944	81.94445316	-0.78495246	-51.38860302
1.95	195	-0.068	-1.241	-0.242	-23.6631654	-38.961144	-6.6463128	81.70954038	-0.7734933	-51.78394404
1.96	196	-0.149	-1.189	-0.221	-25.5539268	-40.3362432	-0.572958	81.46316844	-0.81360036	-52.18501464
1.97	197	-0.233	-1.063	-0.214	-25.2674478	-41.6540466	6.1879464	81.2167965	-0.92819196	-52.58608524
1.98	198	-0.294	-0.938	-0.206	-19.9389384	-40.1643558	10.1413566	81.02772036	-1.08289062	-52.9699671
1.99	199	-0.328	-0.856	-0.173	-14.037471	-34.8931422	9.7975818	80.89594002	-1.22613012	-53.29655316
2	200	-0.342	-0.84	-0.133	-11.6883432	-26.929026	6.4171296	80.78134842	-1.39801752	-53.57730258
2.01	201	-0.337	-0.861	-0.09	-11.9175264	-19.8816426	2.86479	80.66675682	-1.45531332	-53.76637872
2.02	202	-0.325	-0.908	-0.072	-14.2093584	-13.8655836	1.8907614	80.5292469	-1.49542038	-53.90388864
2.03	203	-0.297	-0.971	-0.086	-18.5065434	-7.3911582	4.6409598	80.34590034	-1.55271618	-53.96691402
2.04	204	-0.264	-1.023	-0.089	-22.345362	-2.3491278	10.0840608	80.11671714	-1.65584862	-53.97837318
2.05	205	-0.211	-1.061	-0.07	-24.0069402	3.437748	16.1001198	79.88180436	-1.8334656	-53.92680696
2.06	206	-0.153	-1.077	-0.047	-23.6058696	10.7143146	21.8296998	79.641162	-2.0340009	-53.78356746
2.07	207	-0.086	-1.06	-0.041	-20.5118964	18.6784308	25.8404058	79.41770838	-2.2631841	-53.56011384
2.08	208	-0.025	-1.02	-0.041	-16.3865988	26.069589	27.215505	79.23436182	-2.48663772	-53.2564461
2.09	209	0.011	-0.961	-0.03	-13.2926256	31.3980984	26.2414764	79.07966316	-2.69863218	-52.90121214
2.1	210	0.019	-0.907	-0.04	-11.45916	33.9764094	23.491278	78.9536124	-2.86479	-52.52305986
2.11	211	0.005	-0.856	-0.043	-10.4851314	32.658606	20.4546006	78.82756164	-3.0080295	-52.1678259
2.12	212	-0.021	-0.831	-0.041	-8.7662574	28.934379	17.6471064	78.71869962	-3.13408026	-51.852699
2.13	213	-0.056	-0.823	-0.04	-8.021412	25.0382646	15.0687954	78.61556718	-3.24294228	-51.57767916
2.14	214	-0.081	-0.831	-0.042	-7.0473834	22.1734746	12.605076	78.52962348	-3.32888598	-51.3370368
2.15	215	-0.1	-0.843	-0.044	-5.443101	20.7983754	10.4278356	78.47232768	-3.40337052	-51.11358318
2.16	216	-0.109	-0.855	-0.048	-3.0366774	21.8296998	8.3651868	78.42649104	-3.44920716	-50.88439998
2.17	217	-0.117	-0.849	0.001	0.2291832	22.6891368	6.3598338	78.41503188	-3.47212548	-50.65521678
2.18	218	-0.119	-0.834	0.038	4.2398892	21.8296998	4.3544808	78.4379502	-3.47785506	-50.43176316
2.19	219	-0.126	-0.812	0.035	6.4744254	20.340009	3.151269	78.48951642	-3.47212548	-50.22549828
2.2	220	-0.139	-0.802	0.021	6.6463128	20.912967	2.0626488	78.56973054	-3.47785506	-50.0192334
2.21	221	-0.156	-0.805	0.011	7.7922288	23.3193906	1.0886202	78.63275592	-3.44920716	-49.7900502
2.22	222	-0.162	-0.833	-0.011	9.5683986	26.642547	0.2291832	78.71297004	-3.40337052	-49.52648952
2.23	223	-0.157	-0.868	-0.017	12.2040054	29.1062664	-0.6875496	78.81610248	-3.34607472	-49.2457401
2.24	224	-0.129	-0.979	0.022	16.615782	30.653253	-2.5210152	78.96507156	-3.27159018	-48.94780194
2.25	225	-0.091	-1.063	0.025	5.8441716	31.8564648	-4.010706	79.0395561	-3.1799169	-48.63840462
2.26	226	-0.059	-1.115	0.036	1.145916	33.5753388	-4.583664	79.02809694	-3.08251404	-48.32327772
2.27	227	-0.027	-1.16	0.055	0.3437748	35.523396	-4.7555514	79.00517862	-2.97365202	-47.9852325
2.28	228	-0.018	-1.204	0.059	-0.286479	37.0703826	-3.6096354	78.9822603	-2.88197874	-47.62999854
2.29	229	-0.041	-1.239	0.07	-3.6096354	38.0444112	-2.6356068	78.91923492	-2.79030546	-47.26330542
2.3	230	-0.085	-1.276	0.026	-7.6203414	38.674665	-2.578311	78.83329122	-2.70436176	-46.89088272
2.31	231	-0.141	-1.336	-0.048	-7.6203414	36.8984952	-2.5210152	78.73588836	-2.62414764	-46.53564876
2.32	232	-0.178	-1.421	-0.128	-4.010706	34.3201842	-1.8907614	78.67286298	-2.54393352	-46.20333312
2.33	233	-0.175	-1.527	-0.257	-2.7501984	31.1116194	0	78.63275592	-2.4923673	-45.89966538
2.34	234	-0.122	-1.593	-0.311	-4.297185	24.923673	3.0366774	78.56973054	-2.48090814	-45.65329344
2.35	235	-0.024	-1.6	-0.317	-5.443101	15.8709366	6.302538	78.50670516	-2.51528562	-45.48713562
2.36	236	0.072	-1.566	-0.289	-6.6463128	8.4224826	7.8495246	78.43222062	-2.578311	-45.38973276
2.37	237	0.15	-1.506	-0.255	-11.4018642	4.010706	7.5630456	78.31762902	-2.64706596	-45.33243696
2.38	238	0.198	-1.357	-0.215	-18.7930224	-0.1718874	5.443101	78.1228233	-2.70436176	-45.32670738
2.39	239	0.211	-1.192	-0.195	-20.7410796	-5.0420304	2.578311	77.91655842	-2.73873924	-45.37254402
2.4	240	0.192	-1.088	-0.195	-18.3919518	-7.5630456	-0.2291832	77.74467102	-2.68144344	-45.42983982
2.41	241	0.12	-1.007	-0.163	-15.8709366	-12.0894138	-2.1772404	77.58997236	-2.68717302	-45.550161
2.42	242	0.01	-0.936	-0.133	-14.037471	-21.5432208	-3.6669312	77.45819202	-2.6929026	-45.77361462
2.43	243	-0.102	-0.877	-0.123	-11.5164558	-27.8457588	-5.5003968	77.36078916	-2.6929026	-46.05436404
2.44	244	-0.186	-0.858	-0.137	-4.9847346	-26.5279554	-7.9068204	77.32641168	-2.6642547	-46.32938388
2.45	245	-0.252	-0.86	-0.145	4.4690724	-19.7097552	-11.4018642	77.38370748	-2.65279554	-46.56429666
2.46	246	-0.314	-0.874	-0.161	13.3499214	-9.1100322	-16.7876694	77.52694698	-2.50382646	-46.68461784
2.47	247	-0.363	-0.865	-0.187	18.6784308	3.4950438	-23.5485738	77.71602312	-2.2631841	-46.70180658
2.48	248	-0.388	-0.841	-0.217	23.5485738	16.1001198	-30.1948866	77.9509359	-1.94232762	-46.60440372
2.49	249	-0.392	-0.776	-0.249	26.9863218	27.8457588	-35.523396	78.21449658	-1.54125702	-46.40386842
2.5	250	-0.365	-0.694	-0.262	31.4553942	40.2216516	-38.5600734	78.50670516	-1.12299768	-46.0944711
2.51	251	-0.314	-0.61	-0.237	35.5806918	52.425657	-39.3049188	78.85047996	-0.65317212	-45.65329344
2.52	252	-0.265	-0.542	-0.209	37.1276784	61.9367598	-37.9298196	79.21717308	-0.17761698	-45.1204425
2.53	253	-0.224	-0.482	-0.205	35.523396	70.0727634	-34.5493674	79.56667746	0.26356068	-44.4901887
2.54	254	-0.149	-0.453	-0.22	31.799169	76.3753014	-29.8511118	79.88753394	0.67609044	-43.79690952
2.55	255	-0.086	-0.435	-0.247	28.4760126	79.8703452	-22.2880662	80.16255378	1.0026765	-43.05206412
2.56	256	-0.04	-0.461	-0.268	25.0382646	80.6724864	-13.8655836	80.42038488	1.25477802	-42.2843004
2.57	257	-0.012	-0.545	-0.287	20.7983754	77.8076964	-4.1252976	80.63810892	1.4037471	-41.52799584
2.58	258	0.023	-0.64	-0.291	14.8396122	72.479187	6.302538	80.79853716	1.43812458	-40.80606876
2.59	259	0.066	-0.731	-0.3	8.8235532	66.749607	14.1520626	80.89594002	1.38655836	-40.12424874
2.6	260	0.107	-0.817	-0.308	3.8961144	62.3378304	19.0222056	80.92458792	1.29488508	-39.48826536
2.61	261	0.172	-0.89	-0.309	0.1718874	58.0979412	20.912967	80.9303175	1.16310474	-38.88092988
2.62	262	0.22	-0.956	-0.32	-2.005353	54.2018268	20.1108258	80.91312876	1.03705398	-38.31943104
2.63	263	0.237	-0.997	-0.324	-2.0626488	51.7381074	16.902261	80.89594002	0.93392154	-37.7865801
2.64	264	0.237	-1.02	-0.337	-0.4583664	49.6181628	12.0894138	80.89021044	0.88235532	-37.28237706
2.65	265	0.254	-1.075	-0.374	1.2032118	45.6647526	6.9327918	80.88448086	0.89954406	-36.82401066
2.66	266	0.244	-1.125	-0.396	0	39.820581	2.9793816	80.88448086	0.9167328	-36.42866964
2.67	267	0.223	-1.152	-0.388	-0.2291832	33.1169724	0.6875496	80.88448086	0.95683986	-36.10208358
2.68	268	0.22	-1.176	-0.372	0.9167328	25.8404058	-0.572958	80.89594002	0.99694692	-35.84998206
2.69	269	0.208	-1.204	-0.355	1.3750992	17.8189938	-1.2605076	80.90739918	1.0313244	-35.67236508
2.7	270	0.184	-1.223	-0.333	0.7448454	10.4278356	-0.8021412	80.89594002	1.07143146	-35.56923264
2.71	271	0.15	-1.232	-0.305	0.7448454	5.2139178	0.9740286	80.90739918	1.07143146	-35.51766642
2.72	272	0.11	-1.223	-0.267	1.5469866	2.1772404	2.6356068	80.92458792	1.04851314	-35.4947481
2.73	273	0.037	-1.196	-0.221	3.4950438	0.6302538	2.3491278	80.9589654	1.02559482	-35.48328894
2.74	274	-0.037	-1.156	-0.185	6.875496	-0.0572958	0	81.02772036	1.02559482	-35.48328894
2.75	275	-0.106	-1.117	-0.145	11.6310474	-0.0572958	-4.1825934	81.14804154	1.01986524	-35.50047768
2.76	276	-0.155	-1.098	-0.11	15.5844576	0.9740286	-9.5683986	81.3027402	1.1172681	-35.50047768
2.77	277	-0.173	-1.085	-0.075	17.4179232	2.86479	-14.9542038	81.48035718	1.27196676	-35.4947481
2.78	278	-0.144	-1.073	-0.036	16.3865988	4.7555514	-18.9649098	81.646515	1.46677248	-35.47182978
2.79	279	-0.091	-1.057	0	13.9228794	5.3858052	-21.0275586	81.7897545	1.67876694	-35.44891146
2.8	280	-0.024	-1.046	0.031	10.5424272	6.8182002	-21.0275586	81.932994	1.8907614	-35.40307482
2.81	281	0.046	-1.033	0.033	4.6409598	9.2819196	-18.7930224	81.97883064	2.08556712	-35.33431986
2.82	282	0.117	-1.024	0.005	1.8334656	12.6623718	-15.469866	82.00174896	2.25172494	-35.23118742
2.83	283	0.176	-1.033	-0.006	-1.718874	14.037471	-13.4072172	81.98456022	2.40069402	-35.11086624
2.84	284	0.227	-1.013	-0.038	-5.72958	13.9228794	-12.9488508	81.932994	2.54393352	-34.99054506
2.85	285	0.266	-1.004	-0.064	-8.4224826	13.4072172	-13.178034	81.86423904	2.7501984	-34.85876472
2.86	286	0.288	-1.006	-0.08	-11.3445684	10.8289062	-13.2926256	81.75537702	2.8934379	-34.77282102
2.87	287	0.289	-0.976	-0.074	-13.1207382	6.6463128	-13.2926256	81.6178671	3.03094782	-34.72698438
2.88	288	0.252	-0.947	-0.065	-13.6364004	1.8907614	-13.8082878	81.48035718	3.16845774	-34.73271396
2.89	289	0.217	-0.907	-0.058	-13.8655836	-3.3231564	-13.0061466	81.33711768	3.28877892	-34.78428018
2.9	290	0.181	-0.871	-0.052	-15.4125702	-9.9694692	-10.886202	81.19387818	3.41482968	-34.88741262
2.91	291	0.138	-0.838	-0.006	-15.5844576	-19.0222056	-7.9068204	81.02199078	3.4663959	-35.08794792
2.92	292	0.094	-0.801	0.028	-13.9228794	-28.074942	-4.6982556	80.86729212	3.47212548	-35.37442692
2.93	293	0.066	-0.774	0.046	-9.2819196	-36.4401288	-1.432395	80.7584301	3.437748	-35.73539046
2.94	294	0.067	-0.76	0.062	-6.6463128	-43.1437374	2.5210152	80.6724864	3.35753388	-36.1536498
2.95	295	0.087	-0.754	0.094	-5.9587632	-47.3263308	6.7036086	80.62092018	3.2372127	-36.60055704
2.96	296	0.117	-0.762	0.134	-3.2658606	-49.0452048	9.167328	80.56362438	3.08251404	-37.06465302
2.97	297	0.156	-0.795	0.16	0.1145916	-48.8733174	10.0840608	80.55216522	2.91635622	-37.528749
2.98	298	0.168	-0.827	0.154	1.3178034	-47.269035	10.5424272	80.54643564	2.7501984	-37.97565624
2.99	299	0.15	-0.855	0.133	1.4896908	-46.2950064	10.2559482	80.54643564	2.58404058	-38.4168339
3	300	0.131	-0.872	0.124	0.7448454	-46.5814854	10.026765	80.5865427	2.44653066	-38.84082282
3.01	301	0.117	-0.889	0.118	0.7448454	-47.9565846	10.886202	80.58081312	2.27464326	-39.29345964
3.02	302	0.109	-0.908	0.082	0.572958	-48.9306132	12.4331886	80.57508354	2.08556712	-39.75755562
3.03	303	0.123	-0.938	0.047	-1.6615782	-44.8626114	13.3499214	80.55216522	1.89649098	-40.17581496
3.04	304	0.132	-1.006	-0.067	-5.72958	-37.9871154	13.178034	80.48341026	1.71314442	-40.52531934
3.05	305	0.104	-1.135	-0.2	-11.6883432	-29.6792244	11.6883432	80.3573595	1.56417534	-40.80033918
3.06	306	0.013	-1.304	-0.275	-21.8296998	-15.6990492	6.589017	80.13390588	1.47250206	-40.94357868
3.07	307	-0.152	-1.52	-0.314	-25.3247436	-4.5263682	-2.4064236	79.87607478	1.4896908	-40.9951449
3.08	308	-0.332	-1.661	-0.341	-20.626488	7.161975	-12.8342592	79.66408032	1.62147114	-40.94930826
3.09	309	-0.479	-1.623	-0.337	-10.4278356	11.3445684	-18.9649098	79.56094788	1.82773602	-40.86909414
3.1	310	-0.484	-1.425	-0.288	-2.6929026	9.6256944	-18.5638392	79.5265704	1.99389384	-40.81752792
3.11	311	-0.331	-1.203	-0.202	-4.4117766	6.875496	-12.891555	79.48646334	2.13140376	-40.77169128
3.12	312	-0.094	-1.044	-0.146	-7.3338624	5.2712136	-4.6982556	79.4119788	2.18296998	-40.73158422
3.13	313	0.123	-0.987	-0.17	-8.9381448	6.2452422	5.3858052	79.32030552	2.13713334	-40.66282926
3.14	314	0.282	-1.028	-0.263	-3.8388186	4.010706	20.2254174	79.28592804	1.9480572	-40.58834472
3.15	315	0.41	-1.136	-0.274	1.8907614	0	29.1062664	79.30311678	1.70741484	-40.52531934
3.16	316	0.487	-1.269	-0.255	3.7815228	-3.7815228	32.6013102	79.34322384	1.38082878	-40.50240102
3.17	317	0.512	-1.35	-0.269	2.4637194	-9.8548776	32.945085	79.37187174	1.04278356	-40.5367785
3.18	318	0.455	-1.347	-0.3	0.1718874	-15.5271618	31.7418732	79.37187174	0.71046792	-40.62845178
3.19	319	0.354	-1.247	-0.338	-1.7761698	-20.6837838	29.2781538	79.354683	0.38961144	-40.78315044
3.2	320	0.242	-1.105	-0.374	-0.6875496	-28.5333084	26.1268848	79.33176468	0.1145916	-41.00660406
3.21	321	0.116	-0.943	-0.432	2.2345362	-38.8465524	22.8610242	79.36041258	-0.16042824	-41.34464928
3.22	322	0.01	-0.799	-0.462	8.307891	-53.858052	19.1367972	79.45208586	-0.4297185	-41.83739316
3.23	323	-0.058	-0.671	-0.443	12.318597	-63.4264506	15.4125702	79.59532536	-0.67609044	-42.4275399
3.24	324	-0.061	-0.583	-0.405	14.2093584	-68.0101146	11.4018642	79.7557536	-0.8880849	-43.07498244
3.25	325	-0.034	-0.54	-0.348	12.5477802	-70.0727634	7.1046792	79.88180436	-1.06570188	-43.7453433
3.26	326	-0.002	-0.532	-0.291	6.9900876	-71.2186794	2.8074942	79.97920722	-1.19748222	-44.43862248
3.27	327	0.01	-0.555	-0.26	-0.572958	-72.0781164	-0.9167328	79.99639596	-1.2891555	-45.14336082
3.28	328	0.014	-0.592	-0.26	-10.599723	-73.1667366	-3.6669312	79.91618184	-1.36364004	-45.8652879
3.29	329	-0.01	-0.649	-0.239	-19.7097552	-73.3959198	-4.5263682	79.73856486	-1.42666542	-46.59294456
3.3	330	-0.048	-0.726	-0.219	-24.923673	-68.9268474	-3.4950438	79.50365208	-1.50114996	-47.28049416
3.31	331	-0.056	-0.812	-0.227	-24.350715	-62.0513514	0.1145916	79.28019846	-1.6042824	-47.88782964
3.32	332	-0.069	-0.902	-0.242	-19.8816426	-56.3790672	6.4744254	79.10258148	-1.75898106	-48.42641016
3.33	333	-0.079	-0.997	-0.247	-14.7250206	-52.3110654	14.4385416	78.97653072	-1.98243468	-48.91342446
3.34	334	-0.114	-1.062	-0.249	-13.6364004	-51.3943326	22.4599536	78.86193912	-2.291832	-49.37179086
3.35	335	-0.169	-1.079	-0.232	-15.756345	-53.285094	28.9916748	78.73015878	-2.67571386	-49.84161642
3.36	336	-0.226	-1.056	-0.224	-19.194093	-54.4883058	32.085648	78.56400096	-3.08251404	-50.31717156
3.37	337	-0.295	-1.029	-0.224	-19.8816426	-53.858052	30.8251404	78.39784314	-3.47785506	-50.78126754
3.38	338	-0.339	-1.026	-0.207	-15.9282324	-49.0452048	23.5485738	78.27179238	-3.79298196	-51.21671562
3.39	339	-0.359	-1.049	-0.194	-13.2926256	-42.8572584	14.4385416	78.16865994	-4.00497642	-51.60632706
3.4	340	-0.359	-1.086	-0.184	-13.178034	-36.4401288	5.72958	78.0655275	-4.17113424	-51.96156102
3.41	341	-0.34	-1.117	-0.168	-14.896908	-30.4240698	-0.6302538	77.93947674	-4.21697088	-52.25949918
3.42	342	-0.325	-1.128	-0.149	-17.0168526	-25.3247436	-3.3804522	77.79050766	-4.23415962	-52.51733028
3.43	343	-0.301	-1.133	-0.156	-19.3086846	-20.9702628	-2.0626488	77.61289068	-4.25134836	-52.72932474
3.44	344	-0.291	-1.122	-0.167	-19.8816426	-15.1260912	1.718874	77.42381454	-4.30291458	-52.87256424
3.45	345	-0.267	-1.109	-0.161	-19.1367972	-7.734933	7.0473834	77.24046798	-4.42323576	-52.94704878
3.46	346	-0.236	-1.1	-0.145	-17.8762896	2.4637194	11.6310474	77.05712142	-4.53209778	-52.89548256
3.47	347	-0.184	-1.094	-0.135	-17.8189938	9.3965112	14.6677248	76.8623157	-4.65814854	-52.77516138
3.48	348	-0.149	-1.084	-0.142	-19.5378678	13.5218088	16.5584862	76.65032124	-4.79565846	-52.60900356
3.49	349	-0.136	-1.077	-0.153	-21.4286292	16.2720072	17.3606274	76.41540846	-4.9274388	-52.40846826
3.5	350	-0.148	-1.055	-0.162	-21.772404	17.8762896	17.0168526	76.18049568	-5.0706783	-52.20220338
3.51	351	-0.163	-1.028	-0.167	-22.058883	17.5898106	14.5531332	75.93985332	-5.17381074	-51.9959385
3.52	352	-0.129	-0.967	-0.145	-18.5638392	16.9595568	12.3758928	75.72785886	-5.25975444	-51.80686236
3.53	353	-0.147	-0.95	-0.112	-17.9335854	14.610429	10.4851314	75.52732356	-5.3285094	-51.64070454
3.54	354	-0.146	-0.889	-0.099	-18.7357266	13.5218088	6.302538	75.32678826	-5.36288688	-51.49746504
3.55	355	-0.153	-0.845	-0.089	-17.2460358	13.464513	2.578311	75.16063044	-5.38007562	-51.3656847
3.56	356	-0.15	-0.816	-0.084	-14.8396122	15.2979786	-1.145916	74.99447262	-5.33423898	-51.2224452
3.57	357	-0.149	-0.784	-0.056	-13.4072172	17.0168526	-4.5263682	74.83977396	-5.25402486	-51.06774654
3.58	358	-0.145	-0.764	-0.025	-12.1467096	18.1627686	-7.2192708	74.70226404	-5.13943326	-50.91304788
3.59	359	-0.151	-0.74	-0.026	-11.5164558	19.480572	-9.1100322	74.56475412	-5.00765292	-50.75261964
3.6	360	-0.153	-0.727	-0.04	-8.9954406	21.199446	-10.5424272	74.47881042	-4.87587258	-50.58073224
3.61	361	-0.152	-0.726	-0.032	-6.302538	23.5485738	-11.8029348	74.39286672	-4.70398518	-50.38592652
3.62	362	-0.147	-0.743	-0.007	-3.3231564	27.1582092	-13.2353298	74.33557092	-4.51490904	-50.15674332
3.63	363	-0.14	-0.763	0.006	-2.005353	28.8770832	-13.750992	74.29546386	-4.31437374	-49.91610096
3.64	364	-0.144	-0.785	0.014	-1.7761698	30.5386614	-13.8082878	74.24962722	-4.10810886	-49.65826986
3.65	365	-0.158	-0.823	0.024	-2.2345362	32.658606	-13.8082878	74.24389764	-3.91330314	-49.3889796
3.66	366	-0.18	-0.876	0.018	-3.7815228	36.3255372	-14.0947668	74.18087226	-3.6955791	-49.07958228
3.67	367	-0.2	-0.934	-0.015	-5.8441716	41.9405256	-15.0687954	74.08919898	-3.44920716	-48.71861874
3.68	368	-0.231	-1	-0.059	-6.2452422	47.9565846	-16.8449652	73.9975257	-3.16845774	-48.3003594
3.69	369	-0.262	-1.103	-0.146	-5.443101	53.3996856	-18.8503182	73.911582	-2.85906042	-47.841993
3.7	370	-0.273	-1.208	-0.244	-5.2712136	56.6655462	-19.480572	73.8256383	-2.54393352	-47.3549787
3.71	371	-0.251	-1.314	-0.351	-4.870143	54.3737142	-17.8762896	73.75115376	-2.24026578	-46.88515314
3.72	372	-0.164	-1.417	-0.386	-5.6722842	47.4409224	-13.1207382	73.67093964	-1.99389384	-46.4668938
3.73	373	-0.036	-1.482	-0.372	-10.313244	37.9298196	-6.302538	73.55061846	-1.83919518	-46.123119
3.74	374	0.122	-1.485	-0.391	-17.4179232	28.7624916	1.2605076	73.36154232	-1.78189938	-45.84236958
3.75	375	0.283	-1.426	-0.403	-22.058883	22.1161788	7.6203414	73.12662954	-1.78189938	-45.6074568
3.76	376	0.383	-1.295	-0.385	-23.0329116	14.9542038	10.3705398	72.88598718	-1.84492476	-45.44129898
3.77	377	0.373	-1.109	-0.327	-23.8923486	8.4797784	7.6203414	72.63961524	-1.89649098	-45.33816654
3.78	378	0.248	-0.992	-0.313	-22.2307704	-2.6929026	-0.3437748	72.41616162	-1.90222056	-45.36681444
3.79	379	0.113	-0.966	-0.316	-16.615782	-10.8289062	-8.9954406	72.2500038	-1.85065434	-45.49859478
3.8	380	-0.011	-1.021	-0.327	-8.5370742	-16.902261	-16.2720072	72.16978968	-1.7475219	-45.71058924
3.81	381	-0.136	-1.099	-0.337	-1.3178034	-18.2773602	-21.4286292	72.1640601	-1.59855282	-45.9512316
3.82	382	-0.248	-1.182	-0.314	4.297185	-17.0168526	-25.1528562	72.21562632	-1.4037471	-46.18614438
3.83	383	-0.333	-1.239	-0.297	7.6203414	-13.8655836	-27.788463	72.29584044	-1.18029348	-46.40386842
3.84	384	-0.368	-1.235	-0.288	9.5111028	-8.7089616	-29.4500412	72.39897288	-0.92246238	-46.57002624
3.85	385	-0.345	-1.184	-0.288	11.8029348	-2.8074942	-30.2521824	72.52502364	-0.68182002	-46.696077
3.86	386	-0.288	-1.109	-0.3	16.1001198	6.6463128	-30.0229992	72.68545188	-0.3724227	-46.71899532
3.87	387	-0.22	-1.032	-0.302	19.194093	13.9228794	-28.6479	72.8802576	-0.06302538	-46.6674291
3.88	388	-0.142	-0.954	-0.307	22.0015872	21.2567418	-26.6998428	73.09798164	0.24637194	-46.54137834
3.89	389	-0.061	-0.875	-0.308	23.5485738	27.4446882	-25.1528562	73.33289442	0.55576926	-46.34657262
3.9	390	0.012	-0.791	-0.328	23.3193906	31.7418732	-24.2934192	73.55634804	0.87662574	-46.11165984
3.91	391	0.066	-0.708	-0.352	22.2880662	34.37748	-23.4339822	73.77980166	1.18602306	-45.84809916
3.92	392	0.097	-0.641	-0.389	21.6578124	34.7785506	-22.2307704	74.00325528	1.4896908	-45.57307932
3.93	393	0.114	-0.597	-0.412	22.0015872	33.518043	-20.2254174	74.2267089	1.76471064	-45.30378906
3.94	394	0.123	-0.596	-0.408	22.2307704	28.7051958	-17.2460358	74.4558921	2.005353	-45.07460586
3.95	395	0.145	-0.624	-0.404	20.3973048	24.637194	-14.2093584	74.63350908	2.21734746	-44.86834098
3.96	396	0.179	-0.663	-0.396	17.7044022	18.7357266	-11.5164558	74.81685564	2.3777757	-44.7193719
3.97	397	0.211	-0.712	-0.387	14.9542038	10.1413566	-9.6256944	74.9715543	2.4923673	-44.64488736
3.98	398	0.228	-0.766	-0.385	12.9488508	1.8907614	-8.4224826	75.10333464	2.578311	-44.64488736
3.99	399	0.22	-0.8	-0.377	11.5737516	-3.3804522	-7.7922288	75.21792624	2.64706596	-44.69645358
4	400	0.212	-0.839	-0.377	13.2353298	-6.7609044	-7.9068204	75.29814036	2.77311672	-44.7766677
4.01	401	0.182	-0.875	-0.365	14.8396122	-9.740286	-9.8548776	75.44137986	2.84760126	-44.8912593
4.02	402	0.153	-0.908	-0.359	17.5898106	-14.4385416	-12.605076	75.61326726	2.93927454	-45.0631467
4.03	403	0.138	-0.933	-0.351	19.4232762	-16.9595568	-14.5531332	75.8023434	3.04240698	-45.25795242
4.04	404	0.131	-0.952	-0.339	21.7151082	-18.6784308	-16.4438946	76.01433786	3.16272816	-45.47567646
4.05	405	0.114	-0.98	-0.331	25.210152	-18.7930224	-18.1054728	76.24352106	3.31169724	-45.69913008
4.06	406	0.102	-1.008	-0.317	25.6685184	-18.048177	-18.7930224	76.49562258	3.46066632	-45.91685412
4.07	407	0.09	-1.017	-0.308	23.8923486	-17.8762896	-18.621135	76.73053536	3.60390582	-46.12884858
4.08	408	0.075	-1.009	-0.292	22.8037284	-17.3606274	-17.3033316	76.9482594	3.74141574	-46.33511346
4.09	409	0.065	-0.997	-0.265	22.0015872	-16.5584862	-15.183387	77.16025386	3.85600734	-46.52991918
4.1	410	0.056	-0.985	-0.257	19.6524594	-16.1001198	-12.2613012	77.33787084	3.94768062	-46.71326574
4.11	411	0.049	-0.977	-0.247	16.8449652	-15.9282324	-9.7975818	77.49829908	4.010706	-46.88515314
4.12	412	0.056	-0.97	-0.234	14.32395	-15.5271618	-7.2765666	77.635809	4.05654264	-47.05131096
4.13	413	0.07	-0.969	-0.22	12.605076	-15.756345	-4.8128472	77.75613018	4.07373138	-47.21746878
4.14	414	0.068	-0.972	-0.205	11.5737516	-15.6417534	-2.578311	77.85926262	4.07373138	-47.37216744
4.15	415	0.088	-0.978	-0.186	9.453807	-14.3812458	-1.3178034	77.95666548	4.07946096	-47.50967736
4.16	416	0.105	-0.966	-0.151	6.3598338	-14.4385416	-1.2032118	78.0082317	4.06227222	-47.65291686
4.17	417	0.094	-0.96	-0.135	8.4797784	-14.8396122	-1.6615782	78.08844582	4.05654264	-47.80188594
4.18	418	0.106	-0.961	-0.126	13.4072172	-13.9801752	-2.2345362	78.21449658	4.05081306	-47.93939586
4.19	419	0.109	-0.974	-0.101	14.0947668	-14.0947668	-2.1199446	78.3520065	4.05081306	-48.08263536
4.2	420	0.123	-0.959	-0.091	13.5791046	-14.1520626	-1.718874	78.51243474	4.07373138	-48.2144157
4.21	421	0.127	-0.945	-0.084	15.1260912	-13.0061466	-0.9167328	78.65567424	4.06227222	-48.34046646
4.22	422	0.134	-0.93	-0.08	15.4125702	-12.2040054	-0.4583664	78.8103729	4.04508348	-48.46078764
4.23	423	0.132	-0.911	-0.073	15.5271618	-11.745639	0.1718874	78.95934198	4.02789474	-48.56964966
4.24	424	0.119	-0.888	-0.07	15.6417534	-11.45916	0.9740286	79.11404064	3.99924684	-48.67851168
4.25	425	0.095	-0.866	-0.051	17.2460358	-12.032118	1.8334656	79.30884636	3.97632852	-48.7873737
4.26	426	0.077	-0.839	-0.024	20.2254174	-13.9228794	3.151269	79.50365208	3.9247623	-48.91342446
4.27	427	0.051	-0.828	0.001	22.2307704	-15.9855282	4.4117766	79.72137612	3.86173692	-49.06239354
4.28	428	0.031	-0.819	0.025	23.204799	-18.7930224	6.1879464	79.95055932	3.77579322	-49.23428094
4.29	429	0.033	-0.805	0.035	24.350715	-21.0275586	9.1100322	80.1854721	3.65547204	-49.42335708
4.3	430	0.048	-0.795	0.071	25.5539268	-23.2620948	12.8342592	80.46622152	3.50650296	-49.62389238
4.31	431	0.064	-0.793	0.116	26.1841806	-25.5539268	16.902261	80.72405262	3.30596766	-49.84161642
4.32	432	0.092	-0.794	0.138	26.2414764	-26.4133638	20.340009	80.98188372	3.07678446	-50.07079962
4.33	433	0.142	-0.806	0.116	25.210152	-25.8977016	23.0902074	81.22825566	2.81895336	-50.28852366
4.34	434	0.205	-0.821	0.099	21.4286292	-25.5539268	25.0382646	81.44025012	2.54393352	-50.50051812
4.35	435	0.263	-0.836	0.096	18.1627686	-26.8144344	26.069589	81.65224458	2.30329116	-50.706783
4.36	436	0.289	-0.848	0.072	16.3865988	-28.934379	27.1009134	81.81267282	2.005353	-50.95315494
4.37	437	0.289	-0.834	0.045	15.9855282	-31.3980984	29.3927454	81.97310106	1.68449652	-51.21671562
4.38	438	0.323	-0.851	0.04	17.2460358	-35.809875	31.0543236	82.14498846	1.34072172	-51.52611294
4.39	439	0.335	-0.853	0.04	16.042824	-41.1956802	33.1169724	82.3054167	0.9740286	-51.88707648
4.4	440	0.315	-0.853	0.014	12.891555	-46.2950064	33.8618178	82.4486562	0.6302538	-52.28814708
4.41	441	0.227	-0.863	-0.02	8.59437	-51.6235158	33.2888598	82.54032948	0.25210152	-52.75224306
4.42	442	0.111	-0.9	0.04	4.6409598	-59.8168152	31.226211	82.59762528	-0.10886202	-53.30228274
4.43	443	-0.007	-0.974	0.058	4.7555514	-63.598338	27.9603504	82.65492108	-0.44690724	-53.89242948
4.44	444	-0.106	-1.115	-0.007	3.0366774	-57.2958	23.4339822	82.70075772	-0.73338624	-54.42528042
4.45	445	-0.204	-1.255	-0.11	-1.8334656	-43.0864416	18.9649098	82.69502814	-0.98548776	-54.8320806
4.46	446	-0.286	-1.421	-0.17	-5.8441716	-25.496631	11.172681	82.64346192	-1.12299768	-55.06699338
4.47	447	-0.35	-1.493	-0.221	-12.2613012	-10.4278356	3.6096354	82.52314074	-1.16883432	-55.17012582
4.48	448	-0.385	-1.498	-0.203	-15.5271618	3.0366774	-2.1199446	82.3627125	-1.145916	-55.14147792
4.49	449	-0.367	-1.418	-0.22	-14.7823164	13.9228794	-5.3858052	82.20801384	-1.07716104	-55.01542716
4.5	450	-0.309	-1.301	-0.239	-5.5003968	24.1788276	-6.1879464	82.1335293	-1.01986524	-54.79197354
4.51	451	-0.23	-1.189	-0.258	5.443101	28.074942	-5.6149884	82.17936594	-0.93392154	-54.52268328
4.52	452	-0.149	-1.153	-0.267	14.3812458	26.4706596	-2.9793816	82.31687586	-0.87662574	-54.26485218
4.53	453	-0.057	-1.142	-0.226	13.2926256	24.8090814	0.9167328	82.4486562	-0.859437	-54.01848024
4.54	454	0.027	-1.128	-0.252	7.7922288	18.907614	6.4744254	82.52314074	-0.89954406	-53.82367452
4.55	455	0.102	-1.12	-0.287	8.5370742	11.3445684	12.4331886	82.57470696	-0.97975818	-53.6861646
4.56	456	0.161	-1.148	-0.277	13.178034	8.59437	17.9335854	82.7064873	-1.15164558	-53.58303216
4.57	457	0.197	-1.174	-0.282	15.6990492	7.5057498	23.0329116	82.86691554	-1.36936962	-53.47417014
4.58	458	0.178	-1.108	-0.308	15.4125702	4.1825934	26.7571386	83.0216142	-1.62720072	-53.3996856
4.59	459	0.135	-0.983	-0.341	12.2040054	-2.9793816	25.0955604	83.14193538	-1.87357266	-53.3996856
4.6	460	0.081	-0.869	-0.353	11.0007936	-11.4018642	19.8243468	83.19923118	-2.05691922	-53.4856293
4.61	461	0.025	-0.794	-0.349	13.1207382	-19.194093	13.0061466	83.3367411	-2.20015872	-53.6575167
4.62	462	-0.024	-0.753	-0.347	14.896908	-24.6944898	5.5576926	83.50289892	-2.27464326	-53.89242948
4.63	463	-0.045	-0.726	-0.361	14.6677248	-28.934379	-2.1772404	83.66905674	-2.27464326	-54.17890848
4.64	464	-0.05	-0.702	-0.378	12.8342592	-32.8304934	-8.9954406	83.81802582	-2.21161788	-54.51122412
4.65	465	-0.074	-0.694	-0.363	11.5737516	-34.3201842	-14.4385416	83.90396952	-2.10848544	-54.86645808
4.66	466	-0.112	-0.72	-0.363	8.1932994	-34.0337052	-19.5951636	84.00710196	-1.94232762	-55.22169204
4.67	467	-0.145	-0.743	-0.395	2.6356068	-31.226211	-24.2361234	84.04720902	-1.72460358	-55.55400768
4.68	468	-0.17	-0.771	-0.434	-2.578311	-25.3820394	-28.3041252	84.03002028	-1.46677248	-55.8347571
4.69	469	-0.223	-0.83	-0.465	-6.589017	-18.3919518	-30.080295	83.97272448	-1.18029348	-56.04675156
4.7	470	-0.251	-0.877	-0.474	-8.4224826	-11.2872726	-29.7365202	83.7951075	-0.96256944	-56.2071798
4.71	471	-0.249	-0.985	-0.423	-9.2246238	-4.870143	-26.356068	83.70343422	-0.70473834	-56.28739392
4.72	472	-0.3	-1.036	-0.409	-20.7410796	2.4064236	-21.3140376	83.49143976	-0.49274388	-56.28739392
4.73	473	-0.272	-1.033	-0.413	-28.5906042	11.4018642	-15.9282324	83.19923118	-0.32658606	-56.19572064
4.74	474	-0.267	-0.925	-0.368	-28.6479	19.9389384	-7.8495246	82.90129302	-0.23491278	-56.01237408
4.75	475	-0.233	-0.811	-0.31	-23.777757	20.05353	-1.7761698	82.60908444	-0.2578311	-55.8347571
4.76	476	-0.184	-0.724	-0.26	-19.4232762	18.3919518	0.8021412	82.40854914	-0.24637194	-55.65141054
4.77	477	-0.137	-0.684	-0.243	-16.042824	19.767051	-0.4010706	82.24239132	-0.22345362	-55.4623344
4.78	478	-0.094	-0.694	-0.227	-11.8602306	22.4599536	-2.578311	82.11634056	-0.17761698	-55.24461036
4.79	479	-0.088	-0.743	-0.126	-12.605076	23.9496444	-6.016059	81.98456022	-0.09167328	-55.02115674
4.8	480	-0.095	-0.752	-0.13	-15.9282324	28.8770832	-9.9121734	81.80694324	0.01718874	-54.75186648
4.81	481	-0.097	-0.757	-0.113	-11.5737516	32.0283522	-13.4072172	81.68662206	0.18334656	-54.4596579
4.82	482	-0.078	-0.817	-0.108	-6.016059	41.0237928	-14.6677248	81.62359668	0.3724227	-54.07577604
4.83	483	-0.046	-0.858	-0.182	-5.5576926	45.0344988	-12.2040054	81.5605713	0.5443101	-53.65178712
4.84	484	-0.038	-0.899	-0.193	-3.724227	48.3003594	-8.307891	81.52046424	0.68182002	-53.19342072
4.85	485	-0.015	-0.943	-0.199	-3.0366774	48.8160216	-3.6096354	81.46889802	0.76776372	-52.72359516
4.86	486	-0.039	-0.971	-0.264	-2.578311	44.0031744	0.3437748	81.4459797	0.81932994	-52.28814708
4.87	487	-0.091	-0.973	-0.276	-0.7448454	40.5081306	2.4064236	81.43452054	0.84224826	-51.88707648
4.88	488	-0.177	-0.937	-0.22	2.7501984	37.0703826	1.8334656	81.46316844	0.87089616	-51.52038336
4.89	489	-0.296	-0.886	-0.161	7.734933	39.1903272	-1.7761698	81.54338256	0.93392154	-51.1365015
4.9	490	-0.377	-0.854	-0.166	14.610429	49.4462754	-7.7922288	81.68089248	1.0026765	-50.6781351
4.91	491	-0.425	-0.809	-0.151	19.480572	60.9627312	-13.4072172	81.88142778	1.20894138	-50.09371794
4.92	492	-0.443	-0.741	-0.102	22.6891368	73.7969904	-17.0168526	82.11634056	1.45531332	-49.39470918
4.93	493	-0.442	-0.639	0.021	22.2307704	87.3187992	-16.8449652	82.35698292	1.718874	-48.55246092
4.94	494	-0.352	-0.533	0.128	19.5378678	102.5021862	-12.8342592	82.57470696	1.95378678	-47.56124358
4.95	495	-0.222	-0.453	0.127	17.18874	118.0866438	-5.2139178	82.78097184	2.10848544	-46.40386842
4.96	496	-0.128	-0.337	0.047	7.3911582	133.3846224	4.2398892	82.88983386	2.19442914	-45.08606502
4.97	497	-0.077	-0.137	0.087	4.9847346	140.6038932	16.2147114	82.97577756	2.16578124	-43.67658834
4.98	498	-0.006	-0.03	0.219	7.734933	147.536685	25.9549974	83.09036916	2.04546006	-42.19262712
4.99	499	0.1	0.025	0.217	15.9855282	146.2188816	31.6845774	83.28517488	1.86784308	-40.71439548
5	500	0.198	0.049	0.182	25.9549974	135.4472712	33.231564	83.58884262	1.67876694	-39.3335667
5.01	501	0.268	0.069	0.178	36.6120162	124.9621398	29.6792244	83.97845406	1.4896908	-38.06732952
5.02	502	0.314	0.042	0.074	41.9978214	119.6909262	23.204799	84.41963172	1.35218088	-36.86411772
5.03	503	0.329	0.027	-0.021	38.6173692	112.299768	15.1260912	84.82070232	1.27769634	-35.73539046
5.04	504	0.334	0.013	-0.02	35.236917	105.137793	5.8441716	85.18739544	1.28342592	-34.68687732
5.05	505	0.328	-0.048	-0.02	32.8877892	101.7573408	-2.4064236	85.52544066	1.39228794	-33.67847124
5.06	506	0.323	-0.128	-0.259	28.3041252	91.5013926	-5.443101	85.82337882	1.49542038	-32.7731976
5.07	507	0.369	-0.216	-0.423	24.4653066	82.5632478	-2.7501984	86.08120992	1.55844576	-31.95959724
5.08	508	0.433	-0.327	-0.431	21.4286292	70.9894962	2.7501984	86.31039312	1.55844576	-31.2548589
5.09	509	0.539	-0.444	-0.446	15.9855282	53.571573	10.8289062	86.48228052	1.47250206	-30.71627838
5.1	510	0.693	-0.598	-0.492	7.734933	29.4500412	20.1108258	86.48228052	1.42093584	-30.40115148
5.11	511	0.877	-0.778	-0.557	-3.0366774	-3.151269	30.653253	86.44790304	1.1172681	-30.41261064
5.12	512	1.087	-0.885	-0.59	-11.5164558	-29.5646328	39.247623	86.33331144	0.7161975	-30.6819009
5.13	513	1.216	-0.809	-0.597	-4.297185	-54.5456016	43.3729206	86.29320438	0.26356068	-31.1975631
5.14	514	1.125	-0.513	-0.33	26.1841806	-92.246238	39.1903272	86.5739538	-0.14896908	-32.07991842
5.15	515	0.871	-0.177	-0.017	42.8572584	-130.7490156	26.8717302	87.03804978	-0.39534102	-33.3461556
5.16	516	0.613	0.063	0.133	62.3951262	-169.882047	7.3911582	87.70841064	-0.49847346	-35.01346338
5.17	517	0.412	0.19	0.234	80.1568242	-191.5398594	-7.5630456	88.56211806	-0.42398892	-36.8984952
5.18	518	0.307	0.156	0.302	84.9123756	-193.7743956	-21.2567418	89.46166212	-0.18334656	-38.80644534
5.19	519	0.181	0.048	0.395	81.1308528	-182.2579398	-26.4133638	90.30963996	0.12605076	-40.59980388
5.2	520	0.072	0.031	0.295	74.8283148	-160.42824	-23.3193906	91.100322	0.4297185	-42.1697088
5.21	521	-0.023	0.074	-0.005	68.2392978	-125.3059146	-18.7930224	91.79933076	0.6875496	-43.39583892
5.22	522	-0.15	0.117	-0.37	61.7075766	-64.744254	-17.5325148	92.42385498	0.91100322	-44.02036314
5.23	523	-0.356	0.14	-0.666	58.728195	-8.7662574	-16.2147114	93.0197313	1.08289062	-44.0891181
5.24	524	-0.751	0.138	-0.821	46.2950064	59.0719698	-19.0795014	93.49528644	1.22613012	-43.49324178
5.25	525	-2.037	0.02	-1.192	69.5571012	78.8963166	-18.907614	94.20575436	1.34072172	-42.69683016
5.26	526	-3.221	-0.507	-0.519	123.9881112	5.2139178	-8.9954406	95.46626196	1.432395	-42.62234562
5.27	527	-2.552	-0.568	0.606	138.8277234	-44.7480198	17.2460358	96.87000906	1.33499214	-43.06352328
5.28	528	-1.2	-0.892	0.763	180.1379952	-64.744254	38.7319608	98.6920155	1.06570188	-43.72242498
5.29	529	-0.223	-2.508	0.151	212.1090516	-52.8267276	38.4454818	100.840608	0.80787078	-44.27246466
5.3	530	2.986	-3.999	2.973	415.1653668	8.7662574	98.4914802	105.0518493	-0.14896908	-44.36986752
5.31	531	2.22	-3.999	1.815	308.4805872	20.7983754	153.3808566	108.1916591	-1.65584862	-44.57040282
5.32	532	0.953	-3.432	1.154	-66.9787902	53.858052	15.2406828	107.4869208	-1.98243468	-44.12922516
5.33	533	0.067	-2.736	0.365	83.7091638	39.4768062	17.5898106	108.3177099	-2.27464326	-43.8026391
5.34	534	-0.811	-2.681	1.108	323.8931574	-13.464513	71.4478626	111.6236776	-2.87624916	-44.12349558
5.35	535	-0.441	-2.367	2.138	317.6479152	-24.5798982	67.4371566	114.878079	-3.3804522	-44.57040282
5.36	536	0.148	-1.996	1.861	297.7089768	-2.2345362	34.3201842	117.9090268	-3.6669312	-44.69645358
5.37	537	0.021	-2.499	1.343	324.6380028	-10.4851314	8.1360036	121.2092649	-3.67839036	-44.78239728
5.38	538	-0.213	-2.569	1.142	145.531332	2.9220858	-4.3544808	122.681767	-3.66120162	-44.71364232
5.39	539	-0.194	-1.646	1.084	57.0666168	-2.6356068	12.605076	123.2661841	-3.74714532	-44.79385644
5.4	540	-0.301	-0.998	1.014	131.78034	-15.1260912	41.9405256	124.6412833	-4.01643558	-45.13763124
5.41	541	-0.54	-1.054	0.852	275.7073896	-15.4125702	44.2323576	127.4659663	-4.27426668	-45.47567646
5.42	542	-0.528	-1.233	0.593	352.9994238	14.8396122	39.820581	131.0526833	-4.68106686	-45.56734974
5.43	543	-0.541	-0.963	0.526	290.0886354	33.3461556	46.696077	133.9976875	-5.25975444	-45.6074568
5.44	544	-0.561	-0.644	0.49	260.3521152	26.9863218	53.858052	136.650483	-5.83271244	-45.77361462
5.45	545	-0.417	-0.318	0.457	231.9906942	27.9603504	52.7694318	139.0282587	-6.4171296	-45.9512316
5.46	546	-0.288	-0.083	0.502	232.7928354	23.4339822	50.8213746	141.411764	-6.9327918	-46.16895564
5.47	547	-0.206	0.053	0.551	245.5697988	10.8289062	47.6701056	143.9385088	-7.31667366	-46.44970506
5.48	548	-0.131	0.164	0.493	249.523209	3.2658606	49.2170922	146.5168198	-7.63180056	-46.80493902
5.49	549	-0.012	0.791	0.656	421.2387216	-40.2216516	58.7854908	150.8827597	-7.61461182	-47.45238156
5.5	550	-0.029	-0.051	0.947	569.0045898	-57.0666168	58.728195	156.7613088	-7.3911582	-48.14566074
5.51	551	-0.097	0.079	1.379	522.0793296	-76.3753014	60.733548	162.1643027	-6.92706222	-48.9019653
5.52	552	-0.253	0.201	1.832	322.6326498	-62.3951262	39.9924684	165.5103775	-6.46869582	-49.40616834
5.53	553	-0.186	0.05	0.983	151.1463204	-13.3499214	15.8136408	167.0630936	-6.3884817	-49.57232616
5.54	554	-0.126	-0.044	0.62	103.3616232	15.469866	8.59437	168.1173364	-6.56609868	-49.6181628
5.55	555	-0.083	0.082	0.586	106.3983006	25.6685184	10.5424272	169.2231453	-6.8468481	-49.66399944
5.56	556	-0.008	0.109	0.761	111.7841058	27.2728008	13.6364004	170.3633317	-7.14478626	-49.74994314
5.57	557	-0.024	-0.028	1.005	123.8162238	23.7204612	15.5844576	171.6295689	-7.41407652	-49.85880516
5.58	558	-0.119	-0.111	1.353	129.9468744	21.8296998	16.7303736	172.964561	-7.66617804	-49.9905855
5.59	559	-0.127	-0.107	1.538	130.5198324	14.32395	17.5898106	174.3052828	-7.83806544	-50.13955458
5.6	560	-0.197	-0.04	1.622	124.2745902	10.4851314	18.6784308	175.5887087	-7.96984578	-50.31144198
5.61	561	-0.24	-0.013	1.507	120.9514338	6.589017	22.4026578	176.8492163	-8.06151906	-50.52343644
5.62	562	-0.211	-0.054	1.392	118.315827	-3.151269	21.0275586	178.081076	-8.05578948	-50.72397174
5.63	563	-0.211	0.002	1.359	118.5450102	-9.2246238	21.0275586	179.3129357	-7.98130494	-50.92450704
5.64	564	-0.282	0.064	1.415	116.9407278	-14.896908	20.8556712	-179.4676343	-7.84379502	-51.11931276
5.65	565	-0.308	0.106	1.53	108.4036536	-20.340009	20.7983754	-178.3389071	-7.65471888	-51.3083889
5.66	566	-0.256	0.049	1.619	90.240885	-27.8457588	20.9702628	-177.3935264	-7.38542862	-51.49173546
5.67	567	-0.21	0.177	1.545	78.3806544	-31.4553942	19.3086846	-176.5741964	-7.07030172	-51.65789328
5.68	568	-0.356	0.298	1.346	74.48454	-36.4401288	19.7097552	-175.7949736	-6.70933818	-51.81259194
5.69	569	-0.352	0.092	1.389	89.1522648	-28.1322378	22.9756158	-174.861052	-6.42285918	-52.00739766
5.7	570	-0.407	0.397	1.33	75.8596392	-35.9817624	29.220858	-174.0474517	-6.05616606	-52.24804002
5.71	571	-0.298	0.208	1.23	38.7319608	-49.1025006	28.934379	-173.6234627	-5.55196302	-52.46576406
5.72	572	-0.19	0.217	1.124	22.631841	-47.3836266	33.7472262	-173.3599021	-5.04775998	-52.73505432
5.73	573	-0.052	-0.363	1.138	-19.3659804	-45.6074568	56.8374336	-173.5088711	-4.53209778	-53.23352778
5.74	574	-0.153	0.291	0.938	-7.8495246	-44.8626114	54.144531	-173.5489782	-4.03362432	-53.70908292
5.75	575	-0.084	-0.633	1.051	-18.048177	-44.977203	53.0559108	-173.7437839	-3.54088044	-54.1731789
5.76	576	-0.116	0.297	0.792	-5.8441716	-46.0658232	39.5913978	-173.7781614	-3.04240698	-54.50549454
5.77	577	-0.031	0.508	0.651	-6.6463128	-45.0344988	22.2880662	-173.8297276	-2.578311	-54.66592278
5.78	578	-0.047	0.194	0.794	-20.2827132	-39.5913978	12.2613012	-174.0302629	-2.17151082	-54.73467774
5.79	579	0.043	0.701	0.63	-3.724227	-37.6433406	6.1879464	-174.0646404	-1.79335854	-54.7461369
5.8	580	0.068	0.502	0.673	-14.4958374	-39.1330314	1.432395	-174.1047475	-1.38082878	-54.70602984
5.81	581	0.063	0.323	0.739	-12.6623718	-35.523396	0.6875496	-174.2307982	-1.0313244	-54.66592278
5.82	582	0.075	0.225	0.81	-7.5630456	-30.939732	1.3750992	-174.3052828	-0.72765666	-54.64300446
5.83	583	0.038	0.181	0.831	-11.1153852	-27.0436176	2.6356068	-174.4141448	-0.4583664	-54.63727488
5.84	584	0.032	0.12	0.86	-14.4385416	-22.91832	2.9793816	-174.5573843	-0.2291832	-54.63727488
5.85	585	0.023	0.095	0.89	-13.6364004	-18.7357266	2.5210152	-174.6891646	-0.0286479	-54.63727488
5.86	586	0.01	0.099	0.922	-11.4018642	-12.2040054	1.5469866	-174.8037562	0.09167328	-54.64300446
5.87	587	-0.002	0.103	0.962	-10.4278356	-7.734933	0.8021412	-174.9126182	0.16615782	-54.64300446
5.88	588	-0.006	0.102	1.018	-9.1100322	-5.0420304	0.4010706	-175.0042915	0.21772404	-54.63727488
5.89	589	-0.02	0.095	1.072	-7.7922288	-3.7815228	0.2291832	-175.0787761	0.2578311	-54.63727488
5.9	590	-0.022	0.1	1.122	-6.1879464	-3.724227	0.1145916	-175.1418014	0.28074942	-54.63727488
5.91	591	-0.027	0.099	1.144	-4.5263682	-4.2398892	0.0572958	-175.1876381	0.32658606	-54.63727488
5.92	592	-0.008	0.086	1.144	-3.437748	-3.9534102	-0.0572958	-175.2220156	0.36669312	-54.6315453
5.93	593	0.013	0.106	1.133	-1.6042824	-3.151269	-0.286479	-175.2392043	0.39534102	-54.62581572
5.94	594	0.015	0.114	1.113	-0.2291832	-1.6615782	-0.5156622	-175.2392043	0.41252976	-54.61435656
5.95	595	0.01	0.067	1.087	-0.4583664	0.1145916	-0.6875496	-175.2907705	0.46409598	-54.6028974
5.96	596	-0.002	0.093	1.06	-1.145916	1.6042824	-1.0313244	-175.3022297	0.44690724	-54.59143824
5.97	597	-0.017	0.128	1.043	-2.1772404	3.3231564	-1.145916	-175.325148	0.41252976	-54.58570866
5.98	598	-0.011	0.094	1.031	-3.5523396	4.297185	-1.4896908	-175.3652551	0.3724227	-54.5742495
5.99	599	0.016	0.124	1.016	-4.9847346	4.5263682	-1.6615782	-175.4168213	0.32658606	-54.56279034
6	600	-0.003	0.059	1.006	-5.3285094	5.5003968	-1.2605076	-175.4970354	0.28074942	-54.55706076
6.01	601	0.002	0.073	0.99	-6.9327918	5.0993262	-1.2605076	-175.5657904	0.2291832	-54.55133118
6.02	602	-0.021	0.02	0.965	-7.2765666	5.2139178	-0.8021412	-175.6402749	0.17761698	-54.5456016
6.03	603	-0.001	0.034	0.957	-7.3911582	3.437748	-0.572958	-175.7147594	0.1432395	-54.5456016
6.04	604	-0.019	0.001	0.941	-7.5057498	3.3231564	-0.4010706	-175.7949736	0.10886202	-54.5456016
6.05	605	-0.01	0.068	0.949	-6.7609044	2.6356068	0.1145916	-175.8866468	0.05156622	-54.55706076
6.06	606	-0.026	0.021	0.956	-6.8182002	2.1199446	0.0572958	-175.9554018	0.0286479	-54.56279034
6.07	607	-0.023	0.051	0.96	-7.3338624	1.9480572	0.1718874	-176.0298863	0.01145916	-54.56279034
6.08	608	-0.019	0.052	0.981	-7.5630456	1.5469866	0.1145916	-176.1101005	0	-54.56851992
6.09	609	-0.023	0.082	0.998	-8.59437	1.432395	0.1718874	-176.1960442	-0.01145916	-54.5742495
6.1	610	-0.02	0.068	1.015	-9.1100322	0.7448454	0.2291832	-176.2991766	-0.04583664	-54.57997908
6.11	611	-0.025	0.067	1.026	-8.59437	0.4583664	0.3437748	-176.3851203	-0.04583664	-54.58570866
6.12	612	-0.024	0.067	1.032	-7.3911582	0.4010706	0.3437748	-176.4596048	-0.05156622	-54.59143824
6.13	613	-0.022	0.066	1.034	-6.4744254	0.4583664	0.3437748	-176.5283598	-0.05156622	-54.59716782
6.14	614	-0.021	0.064	1.027	-5.7868758	0.9167328	0.286479	-176.5856556	-0.06302538	-54.6028974
6.15	615	-0.023	0.063	1.022	-5.2139178	1.6615782	0.1718874	-176.648681	-0.1145916	-54.61435656
6.16	616	-0.025	0.062	1.018	-4.5263682	2.291832	0.2291832	-176.6945176	-0.13750992	-54.62008614
6.17	617	-0.025	0.063	1.014	-3.8388186	2.8074942	0.2291832	-176.7346247	-0.16042824	-54.62008614
6.18	618	-0.026	0.064	1.014	-2.8074942	3.3231564	0.1145916	-176.7632726	-0.19480572	-54.62581572
6.19	619	-0.027	0.068	1.018	-1.8907614	3.6096354	0.1718874	-176.7804613	-0.2291832	-54.6315453
6.2	620	-0.027	0.072	1.02	-1.3178034	3.7815228	0.1145916	-176.7747317	-0.3151269	-54.64300446
6.21	621	-0.027	0.073	1.018	-0.859437	3.8388186	0.1718874	-176.7861909	-0.35523396	-54.64873404
6.22	622	-0.027	0.074	1.016	-0.6302538	3.724227	0.0572958	-176.7919205	-0.38961144	-54.65446362
6.23	623	-0.026	0.076	1.018	-0.4010706	3.4950438	0.0572958	-176.7976501	-0.42398892	-54.6601932
6.24	624	-0.027	0.078	1.017	-0.4010706	2.9793816	0.0572958	-176.8033796	-0.45263682	-54.6601932
6.25	625	-0.028	0.077	1.018	-0.5156622	2.3491278	0.0572958	-176.7632726	-0.55576926	-54.67738194
6.26	626	-0.027	0.076	1.013	-0.6875496	1.5469866	0	-176.7690022	-0.56722842	-54.67738194
6.27	627	-0.028	0.074	1.006	-0.859437	0.9167328	0	-176.7804613	-0.57868758	-54.67738194
6.28	628	-0.028	0.075	1.004	-0.6302538	0.5156622	-0.0572958	-176.7861909	-0.58441716	-54.67738194
6.29	629	-0.027	0.076	1.006	-0.4583664	0.1718874	-0.1718874	-176.7919205	-0.58441716	-54.67738194
6.3	630	-0.026	0.076	1.008	-0.6875496	-0.4010706	-0.0572958	-176.7117064	-0.69900876	-54.69457068
6.31	631	-0.025	0.077	1.008	-0.9740286	-0.7448454	-0.0572958	-176.7231655	-0.6875496	-54.69457068
6.32	632	-0.025	0.076	1.011	-1.0886202	-0.9740286	-0.0572958	-176.7346247	-0.68182002	-54.69457068
6.33	633	-0.024	0.076	1.016	-0.9740286	-1.145916	-0.1145916	-176.7460838	-0.66463128	-54.6888411
6.34	634	-0.025	0.075	1.02	-0.859437	-1.432395	-0.0572958	-176.7518134	-0.65317212	-54.6888411
6.35	635	-0.024	0.075	1.023	-0.6875496	-1.8334656	0	-176.7174359	-0.67609044	-54.69457068
6.36	636	-0.022	0.074	1.02	-0.5156622	-2.005353	-0.0572958	-176.7231655	-0.65317212	-54.6888411
6.37	637	-0.022	0.074	1.023	-0.286479	-2.2345362	0	-176.7288951	-0.63598338	-54.6888411
6.38	638	-0.023	0.073	1.024	0	-2.3491278	-0.0572958	-176.7288951	-0.60733548	-54.6888411
6.39	639	-0.022	0.071	1.024	0.0572958	-2.291832	-0.0572958	-176.7288951	-0.58441716	-54.68311152
6.4	640	-0.023	0.069	1.023	0.1145916	-2.1199446	0	-176.7117064	-0.61879464	-54.6888411
6.41	641	-0.022	0.068	1.02	0.4583664	-1.9480572	0	-176.7059768	-0.59587632	-54.6888411
6.42	642	-0.024	0.067	1.017	0.572958	-1.6042824	0	-176.7002472	-0.58441716	-54.6888411
6.43	643	-0.023	0.065	1.015	0.6302538	-1.3178034	0	-176.6945176	-0.56722842	-54.6888411
6.44	644	-0.022	0.063	1.016	0.6875496	-1.145916	0	-176.688788	-0.55576926	-54.68311152
6.45	645	-0.022	0.062	1.012	0.6302538	-0.9167328	0	-176.7002472	-0.62452422	-54.70030026
6.46	646	-0.021	0.062	1.016	0.4010706	-0.9740286	0	-176.6945176	-0.61306506	-54.70030026
6.47	647	-0.02	0.062	1.019	-0.0572958	-1.0313244	0	-176.6945176	-0.6016059	-54.70030026
6.48	648	-0.021	0.061	1.013	-0.4583664	-1.0886202	0.0572958	-176.7002472	-0.59014674	-54.69457068
6.49	649	-0.02	0.057	1.004	-0.6875496	-0.9740286	0	-176.7059768	-0.57868758	-54.69457068
6.5	650	-0.019	0.056	1.004	-0.5156622	-0.8021412	0	-176.7632726	-0.6302538	-54.71175942
6.51	651	-0.019	0.058	1.012	-0.4583664	-0.6875496	0	-176.7690022	-0.62452422	-54.71175942
6.52	652	-0.02	0.059	1.016	-0.7448454	-0.8021412	0.1145916	-176.7747317	-0.61306506	-54.71175942
6.53	653	-0.021	0.058	1.018	-0.7448454	-0.9740286	0.1145916	-176.7861909	-0.60733548	-54.71175942
6.54	654	-0.021	0.059	1.017	-0.4583664	-1.0886202	0.1718874	-176.7861909	-0.59587632	-54.71175942
6.55	655	-0.021	0.062	1.017	-0.3437748	-0.9740286	0.1145916	-176.7919205	-0.64744254	-54.72321858
6.56	656	-0.021	0.064	1.018	-0.4010706	-0.859437	0.1718874	-176.7919205	-0.64171296	-54.72321858
6.57	657	-0.021	0.064	1.02	-0.286479	-0.572958	0.2291832	-176.7976501	-0.63598338	-54.72894816
6.58	658	-0.02	0.066	1.02	-0.286479	-0.4010706	0.1718874	-176.7976501	-0.6302538	-54.72894816
6.59	659	-0.019	0.067	1.019	-0.3437748	-0.2291832	0.1718874	-176.8033796	-0.62452422	-54.72894816
6.6	660	-0.02	0.067	1.016	-0.4010706	-0.286479	0.1718874	-176.7632726	-0.7161975	-54.7461369
6.61	661	-0.022	0.068	1.016	-0.3437748	-0.2291832	0.1718874	-176.7632726	-0.71046792	-54.75186648
6.62	662	-0.022	0.067	1.015	-0.4010706	-0.1145916	0.1718874	-176.7690022	-0.71046792	-54.75186648
6.63	663	-0.022	0.067	1.012	-0.4583664	0	0.1145916	-176.7747317	-0.71046792	-54.75186648
6.64	664	-0.022	0.067	1.013	-0.4010706	0.1145916	0.1145916	-176.7804613	-0.71046792	-54.75759606
6.65	665	-0.021	0.069	1.018	-0.286479	0.3437748	0.0572958	-176.7174359	-0.78495246	-54.76905522
6.66	666	-0.022	0.069	1.019	-0.3437748	0.2291832	0.0572958	-176.7231655	-0.78495246	-54.76905522
6.67	667	-0.022	0.068	1.017	-0.4010706	0.286479	0.0572958	-176.7231655	-0.79068204	-54.76905522
6.68	668	-0.021	0.069	1.016	-0.286479	0.2291832	0	-176.7288951	-0.79068204	-54.76905522
6.69	669	-0.021	0.069	1.016	0	0.286479	0	-176.7288951	-0.79641162	-54.76905522
6.7	670	-0.022	0.07	1.017	0.1145916	0.286479	0.0572958	-176.6658697	-0.8880849	-54.78624396
6.71	671	-0.021	0.07	1.017	0.1145916	0.1145916	0	-176.6658697	-0.8880849	-54.78624396
6.72	672	-0.021	0.069	1.012	0.1145916	0.0572958	0	-176.6658697	-0.8880849	-54.78624396
6.73	673	-0.02	0.069	1.012	0.1718874	0.0572958	0	-176.6601401	-0.8880849	-54.78624396
6.74	674	-0.021	0.07	1.017	0.3437748	0	0	-176.6601401	-0.8880849	-54.78624396
6.75	675	-0.022	0.071	1.019	0.3437748	0.1718874	-0.0572958	-176.6028443	-0.95111028	-54.79770312
6.76	676	-0.022	0.07	1.02	0.286479	0.1145916	-0.0572958	-176.5971148	-0.95111028	-54.79770312
6.77	677	-0.022	0.068	1.017	0.1145916	0.1718874	-0.0572958	-176.5971148	-0.95111028	-54.79770312
6.78	678	-0.022	0.066	1.015	0	0.1718874	-0.0572958	-176.5971148	-0.95683986	-54.79197354
6.79	679	-0.022	0.068	1.017	0.0572958	0.1145916	-0.0572958	-176.5971148	-0.95683986	-54.79197354
6.8	680	-0.023	0.067	1.017	0.0572958	0	0	-176.6085739	-1.02559482	-54.8034327
6.81	681	-0.022	0.067	1.018	0.1145916	-0.0572958	-0.0572958	-176.6028443	-1.02559482	-54.8034327
6.82	682	-0.021	0.067	1.02	0	-0.0572958	-0.0572958	-176.6028443	-1.02559482	-54.8034327
6.83	683	-0.021	0.066	1.022	0	-0.1718874	-0.0572958	-176.6028443	-1.01986524	-54.8034327
6.84	684	-0.022	0.066	1.018	-0.0572958	-0.286479	-0.0572958	-176.6028443	-1.01986524	-54.8034327
6.85	685	-0.022	0.064	1.017	-0.1145916	-0.3437748	-0.0572958	-176.6314922	-1.03705398	-54.8034327
6.86	686	-0.022	0.064	1.02	0	-0.1718874	-0.0572958	-176.6314922	-1.03705398	-54.8034327
6.87	687	-0.022	0.064	1.016	0	-0.1718874	-0.0572958	-176.6314922	-1.03705398	-54.8034327
6.88	688	-0.022	0.064	1.012	0	-0.2291832	-0.0572958	-176.6314922	-1.0313244	-54.8034327
6.89	689	-0.023	0.064	1.01	0	-0.0572958	0	-176.6314922	-1.0313244	-54.8034327
6.9	690	-0.022	0.064	1.013	0	-0.0572958	-0.0572958	-176.6372218	-1.07716104	-54.80916228
6.91	691	-0.023	0.066	1.016	0.0572958	-0.1145916	0	-176.6372218	-1.07716104	-54.80916228
6.92	692	-0.023	0.066	1.016	0	0	0	-176.6372218	-1.07716104	-54.80916228
6.93	693	-0.023	0.067	1.018	-0.0572958	-0.1145916	0	-176.6372218	-1.07143146	-54.80916228
6.94	694	-0.022	0.067	1.015	-0.2291832	-0.286479	0.0572958	-176.6429514	-1.07143146	-54.80916228
6.95	695	-0.022	0.065	1.012	-0.286479	-0.4010706	0.0572958	-176.648681	-1.08289062	-54.81489186
6.96	696	-0.023	0.066	1.011	-0.3437748	-0.5156622	0.0572958	-176.648681	-1.07716104	-54.81489186
6.97	697	-0.021	0.066	1.015	-0.286479	-0.572958	0.1145916	-176.6544106	-1.07143146	-54.81489186
6.98	698	-0.021	0.066	1.018	-0.1145916	-0.6302538	0.1145916	-176.6544106	-1.06570188	-54.81489186
6.99	699	-0.021	0.066	1.019	-0.0572958	-0.572958	0.0572958	-176.6544106	-1.0599723	-54.81489186
7	700	-0.024	0.066	1.019	0	-0.5156622	0.1145916	-176.6544106	-1.07143146	-54.82062144
7.01	701	-0.023	0.068	1.02	0.0572958	-0.5156622	0.0572958	-176.6544106	-1.06570188	-54.82062144
7.02	702	-0.022	0.068	1.02	0.0572958	-0.4010706	0	-176.648681	-1.06570188	-54.82062144
7.03	703	-0.022	0.068	1.019	0.0572958	-0.2291832	0.0572958	-176.648681	-1.0599723	-54.82062144
7.04	704	-0.023	0.068	1.015	0	-0.1718874	0	-176.648681	-1.0599723	-54.82062144
7.05	705	-0.021	0.068	1.013	-0.0572958	-0.0572958	0	-176.6372218	-1.08289062	-54.82635102
7.06	706	-0.021	0.067	1.01	0	-0.1145916	0.0572958	-176.6372218	-1.07716104	-54.82635102
7.07	707	-0.022	0.067	1.012	0	-0.1718874	0	-176.6372218	-1.07716104	-54.82635102
7.08	708	-0.021	0.067	1.016	0	-0.0572958	0	-176.6372218	-1.07716104	-54.82635102
7.09	709	-0.022	0.067	1.015	0	-0.0572958	0.0572958	-176.6372218	-1.07716104	-54.82635102
7.1	710	-0.022	0.067	1.015	0.1145916	0	0	-176.6143035	-1.1172681	-54.8320806
7.11	711	-0.022	0.067	1.015	0	0	0	-176.6143035	-1.1172681	-54.8320806
7.12	712	-0.022	0.067	1.02	-0.286479	0	0	-176.6200331	-1.1172681	-54.8320806
7.13	713	-0.022	0.068	1.022	-0.286479	0	0.0572958	-176.6200331	-1.1172681	-54.8320806
7.14	714	-0.022	0.067	1.024	0	-0.2291832	0	-176.6200331	-1.11153852	-54.8320806
7.15	715	-0.022	0.067	1.021	0	-0.1718874	0	-176.6028443	-1.12872726	-54.83781018
7.16	716	-0.021	0.064	1.017	0	0	0	-176.6085739	-1.12872726	-54.83781018
7.17	717	-0.021	0.065	1.014	0.0572958	0.2291832	0	-176.6028443	-1.13445684	-54.83781018
7.18	718	-0.02	0.065	1.013	0.1718874	0.4010706	-0.0572958	-176.6028443	-1.13445684	-54.83781018
7.19	719	-0.021	0.066	1.015	0.2291832	0.4583664	0	-176.6028443	-1.14018642	-54.83781018
7.2	720	-0.021	0.068	1.015	0.2291832	0.4010706	0	-176.5971148	-1.145916	-54.83781018
7.21	721	-0.022	0.068	1.016	0.2291832	0.3437748	0	-176.5913852	-1.15164558	-54.83781018
7.22	722	-0.022	0.068	1.015	0.1718874	0.286479	0	-176.5913852	-1.15164558	-54.83781018
7.23	723	-0.021	0.067	1.013	0.2291832	0.3437748	-0.0572958	-176.5856556	-1.15737516	-54.83781018
7.24	724	-0.021	0.067	1.012	0.1718874	0.4583664	-0.0572958	-176.5856556	-1.16310474	-54.83781018
7.25	725	-0.021	0.067	1.012	0.1718874	0.5156622	-0.0572958	-176.5741964	-1.16883432	-54.83781018
7.26	726	-0.022	0.068	1.013	0.2291832	0.4583664	-0.0572958	-176.5741964	-1.1745639	-54.83781018
7.27	727	-0.023	0.069	1.015	0.2291832	0.4583664	-0.0572958	-176.5684669	-1.18029348	-54.83781018
7.28	728	-0.023	0.068	1.018	0.2291832	0.572958	-0.0572958	-176.5684669	-1.18602306	-54.8320806
7.29	729	-0.022	0.068	1.017	0.286479	0.5156622	0	-176.5627373	-1.19175264	-54.83781018
7.3	730	-0.022	0.067	1.018	0.2291832	0.3437748	-0.0572958	-176.5627373	-1.19748222	-54.8320806
7.31	731	-0.022	0.067	1.018	0.2291832	0.4010706	-0.0572958	-176.5627373	-1.19748222	-54.8320806
7.32	732	-0.022	0.067	1.018	0.286479	0.3437748	0	-176.5570077	-1.2032118	-54.8320806
7.33	733	-0.023	0.068	1.017	0.1718874	0.2291832	0	-176.5570077	-1.2032118	-54.8320806
7.34	734	-0.023	0.067	1.015	0.0572958	0.2291832	0	-176.5512781	-1.20894138	-54.8320806
7.35	735	-0.023	0.067	1.012	0.0572958	0.286479	0	-176.5512781	-1.22040054	-54.83781018
7.36	736	-0.024	0.066	1.014	0.1145916	0.286479	0	-176.5455485	-1.22040054	-54.83781018
7.37	737	-0.024	0.068	1.015	0.1145916	0.2291832	0	-176.5455485	-1.22613012	-54.83781018
7.38	738	-0.024	0.067	1.018	0.1718874	0.1718874	0	-176.5455485	-1.22613012	-54.83781018
7.39	739	-0.024	0.067	1.02	0.1718874	0.1718874	-0.0572958	-176.539819	-1.22613012	-54.83781018
7.4	740	-0.025	0.068	1.019	0.1145916	0.0572958	0	-176.5455485	-1.25477802	-54.83781018
7.41	741	-0.025	0.067	1.019	0.1145916	0	0	-176.539819	-1.25477802	-54.83781018
7.42	742	-0.025	0.068	1.017	0	0	0	-176.539819	-1.25477802	-54.83781018
7.43	743	-0.024	0.068	1.015	0	0	0	-176.539819	-1.25477802	-54.83781018
7.44	744	-0.024	0.068	1.015	-0.1145916	-0.0572958	0	-176.539819	-1.25477802	-54.83781018
7.45	745	-0.024	0.067	1.016	-0.1718874	-0.1718874	0	-176.5512781	-1.27196676	-54.84353976
7.46	746	-0.025	0.066	1.013	-0.286479	-0.1145916	0	-176.5570077	-1.26623718	-54.84353976
7.47	747	-0.024	0.067	1.012	-0.2291832	-0.0572958	0	-176.5570077	-1.26623718	-54.84353976
7.48	748	-0.025	0.068	1.014	-0.1145916	0	0	-176.5570077	-1.26623718	-54.84353976
7.49	749	-0.024	0.068	1.016	0	0	0	-176.5570077	-1.26623718	-54.84353976
7.5	750	-0.024	0.069	1.017	-0.0572958	-0.0572958	0	-176.539819	-1.27769634	-54.84353976
7.51	751	-0.024	0.068	1.017	0	-0.0572958	0	-176.539819	-1.27769634	-54.84353976
7.52	752	-0.025	0.069	1.016	0	-0.1718874	0.0572958	-176.539819	-1.27769634	-54.84353976
7.53	753	-0.024	0.069	1.015	0	-0.286479	0.0572958	-176.539819	-1.27196676	-54.84353976
7.54	754	-0.023	0.068	1.015	0.1718874	-0.286479	0.0572958	-176.539819	-1.27196676	-54.84353976
7.55	755	-0.024	0.069	1.017	0.1718874	-0.3437748	0	-176.5340894	-1.27196676	-54.84353976
7.56	756	-0.023	0.069	1.016	0.2291832	-0.286479	0	-176.5340894	-1.26623718	-54.84353976
7.57	757	-0.024	0.069	1.013	0.286479	-0.286479	0	-176.5283598	-1.26623718	-54.84353976
7.58	758	-0.025	0.069	1.015	0.286479	-0.1145916	0	-176.5226302	-1.26623718	-54.84353976
7.59	759	-0.024	0.07	1.018	0.4010706	0	0	-176.5226302	-1.26623718	-54.84353976
7.6	760	-0.025	0.07	1.02	0.3437748	-0.0572958	0	-176.5169006	-1.26623718	-54.84353976
7.61	761	-0.024	0.07	1.019	0.3437748	0	0.0572958	-176.5111711	-1.26623718	-54.84926934
7.62	762	-0.025	0.069	1.018	0.286479	0.0572958	0	-176.5054415	-1.26623718	-54.84926934
7.63	763	-0.023	0.069	1.015	0.2291832	0.0572958	0	-176.5054415	-1.26623718	-54.84926934
7.64	764	-0.022	0.068	1.015	0.2291832	0.2291832	0	-176.4997119	-1.27196676	-54.84926934
7.65	765	-0.025	0.069	1.017	0.286479	0.2291832	0	-176.4939823	-1.28342592	-54.84926934
7.66	766	-0.024	0.07	1.02	0.2291832	0.1718874	0	-176.4882527	-1.28342592	-54.84926934
7.67	767	-0.025	0.07	1.02	0.1145916	0	0	-176.4882527	-1.28342592	-54.84926934
7.68	768	-0.025	0.07	1.017	0	-0.1718874	0	-176.4882527	-1.28342592	-54.84926934
7.69	769	-0.024	0.069	1.014	-0.0572958	-0.3437748	0	-176.4882527	-1.27769634	-54.84926934
7.7	770	-0.023	0.069	1.011	-0.1718874	-0.3437748	0.0572958	-176.4882527	-1.27196676	-54.84926934
7.71	771	-0.023	0.07	1.015	-0.1145916	-0.2291832	0	-176.4882527	-1.27196676	-54.84926934
7.72	772	-0.025	0.071	1.017	-0.1145916	-0.2291832	0	-176.4882527	-1.27196676	-54.84926934
7.73	773	-0.025	0.07	1.018	-0.2291832	-0.3437748	0	-176.4939823	-1.26623718	-54.84926934
7.74	774	-0.025	0.07	1.018	-0.3437748	-0.2291832	0	-176.4997119	-1.2605076	-54.84926934
7.75	775	-0.024	0.069	1.014	-0.1718874	-0.2291832	-0.0572958	-176.4882527	-1.2605076	-54.84926934
7.76	776	-0.023	0.069	1.017	-0.1145916	-0.1718874	0	-176.4882527	-1.2605076	-54.84926934
7.77	777	-0.024	0.07	1.022	-0.4583664	-0.1145916	0	-176.4939823	-1.2605076	-54.84926934
7.78	778	-0.026	0.07	1.023	-0.6875496	-0.3437748	0	-176.5054415	-1.25477802	-54.84926934
7.79	779	-0.025	0.07	1.021	-0.572958	-0.5156622	0	-176.5111711	-1.24904844	-54.84926934
7.8	780	-0.024	0.068	1.017	-0.5156622	-0.572958	0	-176.5111711	-1.24331886	-54.84926934
7.81	781	-0.024	0.068	1.012	-0.4583664	-0.4583664	0	-176.5169006	-1.24331886	-54.84353976
7.82	782	-0.024	0.069	1.014	-0.2291832	-0.2291832	0	-176.5226302	-1.23758928	-54.84353976
7.83	783	-0.024	0.069	1.013	-0.0572958	-0.0572958	0	-176.5226302	-1.23758928	-54.84353976
7.84	784	-0.025	0.071	1.014	-0.0572958	-0.0572958	0	-176.5226302	-1.23758928	-54.84353976
7.85	785	-0.026	0.071	1.016	0.1718874	0	0	-176.4939823	-1.2605076	-54.84926934
7.86	786	-0.025	0.071	1.017	0.1718874	-0.0572958	0	-176.4939823	-1.2605076	-54.84926934
7.87	787	-0.024	0.071	1.017	0	0	0	-176.4939823	-1.2605076	-54.84926934
7.88	788	-0.025	0.07	1.017	0	-0.0572958	0	-176.4939823	-1.2605076	-54.84926934
7.89	789	-0.025	0.07	1.018	-0.0572958	-0.0572958	-0.0572958	-176.4939823	-1.2605076	-54.84926934
7.9	790	-0.024	0.07	1.016	-0.2291832	0	0	-176.4939823	-1.2605076	-54.84926934
7.91	791	-0.023	0.069	1.014	-0.4010706	-0.0572958	0	-176.4997119	-1.2605076	-54.84353976
7.92	792	-0.024	0.07	1.015	-0.4010706	-0.1145916	0	-176.4997119	-1.25477802	-54.84353976
7.93	793	-0.024	0.069	1.015	-0.4583664	-0.1145916	0	-176.5054415	-1.25477802	-54.84353976
7.94	794	-0.024	0.069	1.016	-0.4583664	-0.1718874	0	-176.5111711	-1.25477802	-54.84353976
7.95	795	-0.025	0.07	1.015	-0.286479	-0.2291832	0	-176.5111711	-1.2605076	-54.84353976
7.96	796	-0.024	0.07	1.014	-0.286479	-0.2291832	0	-176.5111711	-1.25477802	-54.84353976
7.97	797	-0.024	0.069	1.017	-0.3437748	-0.1145916	0	-176.5169006	-1.25477802	-54.84353976
7.98	798	-0.023	0.07	1.016	-0.286479	0	0	-176.5226302	-1.25477802	-54.84353976
7.99	799	-0.024	0.07	1.015	-0.1718874	0.0572958	0	-176.5226302	-1.25477802	-54.84353976
8	800	-0.024	0.07	1.016	-0.1145916	0.1145916	0	-176.5054415	-1.26623718	-54.84926934
8.01	801	-0.024	0.07	1.016	-0.1145916	0.2291832	0	-176.5054415	-1.27196676	-54.84926934
