TimeStamp(s)	FrameCounter	AccX	AccY	AccZ	GyrX	GyrY	GyrZ	EulerX	EulerY	EulerZ
0.01	1	0.023	-0.974	0.223	-5.5576926	-1.7761698	1.8907614	89.87419188	3.48931422	-19.88737218
0.02	2	0	-0.965	0.328	-6.7036086	-2.2345362	4.4690724	89.79970734	3.44347758	-19.9102905
0.03	3	-0.001	-0.965	0.333	-5.9587632	-1.7761698	5.0993262	89.74241154	3.39764094	-19.93320882
0.04	4	-0.001	-0.962	0.334	-5.9014674	-1.145916	5.6149884	89.67938616	3.34034514	-19.94466798
0.05	5	-0.003	-0.956	0.329	-5.72958	-0.859437	5.7868758	89.74814112	3.25440144	-19.9389384
0.06	6	-0.008	-0.949	0.328	-4.6409598	-0.7448454	5.6722842	89.70230448	3.19710564	-19.94466798
0.07	7	-0.014	-0.95	0.331	-3.4950438	-0.859437	5.443101	89.66219742	3.14553942	-19.95612714
0.08	8	-0.02	-0.954	0.336	-3.0366774	-0.1718874	4.9847346	89.63354952	3.0939732	-19.95612714
0.09	9	-0.025	-0.954	0.339	-2.9220858	0.859437	4.5263682	89.60490162	3.04813656	-19.95039756
0.1	10	-0.028	-0.954	0.342	-2.3491278	2.1199446	3.8961144	89.76532986	2.96219286	-19.90456092
0.11	11	-0.031	-0.952	0.34	-2.4637194	3.6096354	3.0366774	89.74241154	2.92781538	-19.87018344
0.12	12	-0.027	-0.951	0.336	-2.8074942	5.0993262	1.9480572	89.71376364	2.91062664	-19.81861722
0.13	13	-0.019	-0.947	0.331	-3.151269	6.5317212	0.8021412	89.68511574	2.89916748	-19.75559184
0.14	14	-0.013	-0.941	0.325	-3.437748	7.2765666	0.3437748	89.65073826	2.8934379	-19.6811073
0.15	15	-0.005	-0.94	0.325	-3.0366774	7.0473834	0.2291832	89.77105944	2.86479	-19.60089318
0.16	16	0	-0.94	0.319	-3.0939732	6.7036086	0.2291832	89.74241154	2.85906042	-19.53213822
0.17	17	0.002	-0.937	0.314	-2.9793816	6.1306506	0.2291832	89.71376364	2.85333084	-19.47484242
0.18	18	0.003	-0.941	0.317	-2.9220858	5.443101	0.4010706	89.68511574	2.85333084	-19.41754662
0.19	19	0	-0.936	0.313	-2.9220858	4.870143	0.3437748	89.65646784	2.84760126	-19.37170998
0.2	20	-0.009	-0.929	0.317	-2.3491278	4.0680018	0	89.87419188	2.79030546	-19.3086846
0.21	21	-0.023	-0.923	0.32	-1.4896908	3.6096354	-0.4583664	89.86273272	2.79603504	-19.26857754
0.22	22	-0.036	-0.928	0.32	-0.572958	4.1252976	-0.859437	89.85700314	2.8074942	-19.22847048
0.23	23	-0.044	-0.941	0.325	0.0572958	4.6409598	-0.9740286	89.85700314	2.81322378	-19.18263384
0.24	24	-0.052	-0.952	0.333	1.3750992	5.0993262	-0.572958	89.87419188	2.81895336	-19.13106762
0.25	25	-0.056	-0.965	0.337	2.5210152	6.5317212	0.0572958	90.04607928	2.76165756	-19.04512392
0.26	26	-0.052	-0.985	0.339	3.3804522	8.2505952	1.3178034	90.08618634	2.74446882	-18.9649098
0.27	27	-0.037	-1.002	0.336	3.2658606	9.8548776	2.8074942	90.12056382	2.71582092	-18.86750694
0.28	28	-0.022	-1.007	0.334	2.9220858	10.1986524	4.2398892	90.1549413	2.66998428	-18.7643745
0.29	29	-0.006	-1	0.332	2.005353	10.313244	4.870143	90.17785962	2.61841806	-18.66124206
0.3	30	0.002	-0.981	0.33	0.859437	10.5424272	4.2398892	90.2981808	2.56112226	-18.55238004
0.31	31	0.002	-0.96	0.331	0.0572958	10.3705398	2.6356068	90.2981808	2.53247436	-18.4492476
0.32	32	0.002	-0.942	0.328	-0.286479	10.026765	0.7448454	90.2981808	2.5210152	-18.35184474
0.33	33	0.002	-0.933	0.325	0	9.2819196	-0.6302538	90.30391038	2.52674478	-18.25444188
0.34	34	0.003	-0.933	0.317	0.2291832	8.021412	-1.2605076	90.30963996	2.53247436	-18.17995734
0.35	35	0.005	-0.94	0.308	0.6875496	6.7036086	-1.0886202	90.50444568	2.5210152	-18.09974322
0.36	36	0.004	-0.954	0.302	0.859437	5.5576926	-0.6875496	90.51590484	2.52674478	-18.048177
0.37	37	0	-0.972	0.297	0.286479	5.0993262	0.1145916	90.52163442	2.52674478	-17.99661078
0.38	38	-0.007	-0.984	0.299	-0.1718874	4.583664	0.9740286	90.51590484	2.50955604	-17.95077414
0.39	39	-0.011	-0.992	0.301	-0.4583664	4.4117766	1.718874	90.51590484	2.4923673	-17.9049375
0.4	40	-0.01	-0.993	0.308	-0.6302538	4.4117766	2.1772404	90.69352182	2.44080108	-17.85337128
0.41	41	-0.006	-0.985	0.314	-0.7448454	4.3544808	2.0626488	90.68779224	2.41788276	-17.80753464
0.42	42	-0.002	-0.97	0.316	-0.859437	4.4690724	1.5469866	90.67633308	2.40069402	-17.761698
0.43	43	0.001	-0.953	0.319	-0.8021412	4.4117766	0.8021412	90.6706035	2.38923486	-17.72159094
0.44	44	0.005	-0.938	0.322	-0.4010706	4.010706	-0.0572958	90.66487392	2.38923486	-17.68148388
0.45	45	0.009	-0.927	0.322	0	3.5523396	-0.7448454	90.98000082	2.37204612	-17.63564724
0.46	46	0.015	-0.928	0.319	0.5156622	2.9220858	-1.0313244	90.9857304	2.38350528	-17.60699934
0.47	47	0.021	-0.937	0.317	0.7448454	2.4064236	-1.145916	90.99718956	2.39496444	-17.58408102
0.48	48	0.025	-0.948	0.314	0.9167328	1.9480572	-1.145916	91.00291914	2.4064236	-17.56689228
0.49	49	0.028	-0.962	0.315	0.7448454	1.3750992	-0.9740286	91.0143783	2.41215318	-17.54970354
0.5	50	0.026	-0.974	0.315	0.4010706	0.6875496	-0.8021412	91.93684068	2.41215318	-17.54397396
0.51	51	0.023	-0.978	0.313	0.286479	0.0572958	-0.6875496	91.93684068	2.41788276	-17.53824438
0.52	52	0.018	-0.978	0.318	0.8021412	-0.9167328	-0.6875496	91.94829984	2.42361234	-17.54970354
0.53	53	0.009	-0.976	0.323	1.0313244	-1.9480572	-0.7448454	91.95402942	2.4350715	-17.56689228
0.54	54	0	-0.97	0.322	1.0886202	-2.6929026	-0.859437	91.96548858	2.44653066	-17.59554018
0.55	55	-0.003	-0.965	0.321	1.0313244	-2.9793816	-0.9740286	92.23477884	2.41215318	-17.60699934
0.56	56	-0.004	-0.96	0.319	0.9740286	-3.3804522	-0.859437	92.246238	2.42361234	-17.64137682
0.57	57	-0.003	-0.959	0.319	0.8021412	-3.4950438	-0.859437	92.25196758	2.4350715	-17.6757543
0.58	58	-0.002	-0.959	0.32	0.5156622	-3.2658606	-1.0886202	92.25769716	2.44653066	-17.71013178
0.59	59	0	-0.958	0.32	0.3437748	-2.9220858	-1.432395	92.26342674	2.4637194	-17.7330501
0.6	60	0.003	-0.955	0.323	0.286479	-2.8074942	-1.718874	92.532717	2.45226024	-17.75023884
0.61	61	0.002	-0.955	0.323	0.286479	-3.0939732	-1.8907614	92.532717	2.47517856	-17.77888674
0.62	62	0.001	-0.959	0.321	0.3437748	-3.6096354	-1.9480572	92.53844658	2.49809688	-17.81326422
0.63	63	0.002	-0.963	0.321	0.1145916	-3.4950438	-1.8334656	92.53844658	2.51528562	-17.8476417
0.64	64	0.002	-0.966	0.318	-0.5156622	-3.3804522	-1.718874	92.532717	2.53820394	-17.88201918
0.65	65	0.002	-0.967	0.312	-0.9167328	-3.437748	-1.6042824	92.72752272	2.52674478	-17.9049375
0.66	66	0.004	-0.966	0.307	-1.0313244	-3.4950438	-1.432395	92.71606356	2.54393352	-17.93931498
0.67	67	0.005	-0.964	0.31	-0.572958	-4.1825934	-1.3178034	92.7046044	2.55539268	-17.97942204
0.68	68	0.004	-0.963	0.319	0	-4.5263682	-1.2605076	92.7046044	2.57258142	-18.02525868
0.69	69	0	-0.959	0.324	0.2291832	-4.297185	-1.4896908	92.7046044	2.58977016	-18.06536574
0.7	70	-0.004	-0.956	0.329	0.572958	-3.8961144	-1.7761698	92.92232844	2.57258142	-18.08828406
0.71	71	-0.008	-0.956	0.331	0.572958	-3.6669312	-2.005353	92.92805802	2.59549974	-18.12266154
0.72	72	-0.012	-0.955	0.332	0.6875496	-3.6096354	-1.9480572	92.9337876	2.61841806	-18.15703902
0.73	73	-0.017	-0.954	0.33	0.8021412	-3.437748	-1.718874	92.93951718	2.64133638	-18.1914165
0.74	74	-0.02	-0.953	0.331	1.0313244	-3.2085648	-1.5469866	92.95097634	2.65852512	-18.2200644
0.75	75	-0.019	-0.953	0.332	0.9740286	-2.6356068	-1.4896908	93.23745534	2.6069589	-18.2200644
0.76	76	-0.015	-0.953	0.33	1.0313244	-1.718874	-1.4896908	93.24318492	2.62414764	-18.23725314
0.77	77	-0.01	-0.955	0.333	1.3178034	-1.0886202	-1.4896908	93.26037366	2.6356068	-18.24298272
0.78	78	-0.008	-0.954	0.334	1.4896908	-0.6302538	-1.6042824	93.27183282	2.65279554	-18.2487123
0.79	79	-0.004	-0.954	0.334	1.5469866	-0.572958	-1.6042824	93.28902156	2.66998428	-18.25444188
0.8	80	-0.004	-0.955	0.333	1.432395	-0.9167328	-1.432395	93.65571468	2.61841806	-18.23725314
0.81	81	-0.006	-0.955	0.335	1.0313244	-1.2032118	-1.3178034	93.66717384	2.6356068	-18.2487123
0.82	82	-0.009	-0.955	0.335	0.7448454	-1.0886202	-1.3178034	93.67290342	2.64706596	-18.25444188
0.83	83	-0.01	-0.956	0.333	0.8021412	-0.9167328	-1.3178034	93.68436258	2.6642547	-18.26590104
0.84	84	-0.009	-0.957	0.334	0.8021412	-0.6875496	-1.4896908	93.69009216	2.68144344	-18.27163062
0.85	85	-0.007	-0.959	0.333	0.6875496	-0.7448454	-1.4896908	94.10262192	2.61268848	-18.24298272
0.86	86	-0.003	-0.957	0.331	0.4583664	-0.6302538	-1.432395	94.1083515	2.62414764	-18.2487123
0.87	87	-0.001	-0.959	0.333	0.4583664	-0.6875496	-1.2032118	94.11408108	2.64133638	-18.25444188
0.88	88	0	-0.958	0.333	0.4010706	-0.6875496	-0.9167328	94.11981066	2.64706596	-18.26017146
0.89	89	0.002	-0.957	0.335	0.572958	-0.7448454	-0.6875496	94.12554024	2.65852512	-18.27163062
0.9	90	0.002	-0.955	0.336	0.7448454	-0.7448454	-0.7448454	94.68703908	2.57258142	-18.23725314
0.91	91	0	-0.954	0.338	0.6875496	-0.4583664	-0.9740286	94.69276866	2.58404058	-18.24298272
0.92	92	0	-0.953	0.338	0.7448454	-0.2291832	-1.0886202	94.70422782	2.59549974	-18.24298272
0.93	93	0	-0.951	0.336	0.8021412	-0.4010706	-1.2605076	94.7099574	2.6069589	-18.2487123
0.94	94	0.004	-0.951	0.335	0.6302538	-0.286479	-1.3750992	94.71568698	2.62414764	-18.2487123
0.95	95	0.007	-0.95	0.332	0.7448454	0.2291832	-1.432395	95.18551254	2.578311	-18.2200644
0.96	96	0.012	-0.95	0.337	1.7761698	-0.1145916	-1.2605076	95.20270128	2.58977016	-18.2200644
0.97	97	0.012	-0.952	0.341	2.3491278	-0.5156622	-1.2032118	95.2256196	2.60122932	-18.22579398
0.98	98	0.012	-0.95	0.342	2.005353	-0.4010706	-1.3178034	95.24280834	2.61841806	-18.22579398
0.99	99	0.012	-0.947	0.341	1.8907614	-0.286479	-1.432395	95.26572666	2.6356068	-18.23152356
1	100	0.013	-0.947	0.342	2.0626488	-0.5156622	-1.432395	95.58085356	2.61841806	-18.2200644
1.01	101	0.013	-0.949	0.341	2.1199446	-0.7448454	-1.2605076	95.60377188	2.62987722	-18.22579398
1.02	102	0.014	-0.948	0.34	1.8334656	-0.9740286	-0.9740286	95.62096062	2.64133638	-18.23152356
1.03	103	0.017	-0.947	0.339	1.9480572	-1.3178034	-0.859437	95.63814936	2.65279554	-18.24298272
1.04	104	0.018	-0.947	0.338	2.0626488	-1.6042824	-0.859437	95.66106768	2.6642547	-18.26017146
1.05	105	0.017	-0.951	0.337	1.9480572	-1.718874	-1.0313244	95.90171004	2.65279554	-18.26590104
1.06	106	0.016	-0.955	0.334	1.8907614	-1.718874	-1.3178034	95.92462836	2.66998428	-18.28308978
1.07	107	0.015	-0.959	0.336	1.8334656	-1.718874	-1.4896908	95.9418171	2.68717302	-18.29454894
1.08	108	0.014	-0.963	0.335	1.6615782	-1.7761698	-1.432395	95.95900584	2.70436176	-18.31173768
1.09	109	0.01	-0.965	0.334	1.4896908	-2.0626488	-1.2605076	95.970465	2.71582092	-18.334656
1.1	110	0.008	-0.967	0.333	1.0313244	-2.0626488	-1.0886202	96.256944	2.68717302	-18.334656
1.11	111	0.009	-0.966	0.333	0.5156622	-1.718874	-0.9740286	96.26267358	2.69863218	-18.34611516
1.12	112	0.014	-0.962	0.329	0.1718874	-1.3178034	-0.859437	96.26267358	2.71009134	-18.35757432
1.13	113	0.019	-0.96	0.329	0.286479	-1.2605076	-0.7448454	96.26840316	2.71582092	-18.36903348
1.14	114	0.019	-0.961	0.33	0.572958	-1.6615782	-0.6302538	96.27413274	2.72728008	-18.38622222
1.15	115	0.016	-0.96	0.331	0.4583664	-1.7761698	-0.7448454	96.63509628	2.68717302	-18.38622222
1.16	116	0.011	-0.96	0.333	0.2291832	-1.5469866	-0.8021412	96.63509628	2.69863218	-18.39768138
1.17	117	0.008	-0.96	0.332	0.1145916	-1.6042824	-0.8021412	96.63509628	2.71009134	-18.41487012
1.18	118	0.004	-0.962	0.334	-0.1145916	-1.5469866	-0.7448454	96.63509628	2.7215505	-18.42632928
1.19	119	0.004	-0.96	0.334	-0.5156622	-1.3178034	-0.6302538	96.6293667	2.72728008	-18.44351802
1.2	120	0.006	-0.958	0.332	-0.7448454	-1.0313244	-0.4583664	97.06481478	2.65279554	-18.4205997
1.21	121	0.01	-0.956	0.331	-1.0313244	-0.572958	-0.2291832	97.05335562	2.65852512	-18.4205997
1.22	122	0.011	-0.954	0.334	-1.2605076	-0.2291832	-0.2291832	97.04189646	2.65852512	-18.42632928
1.23	123	0.011	-0.953	0.331	-1.0313244	-0.286479	-0.2291832	97.0304373	2.6642547	-18.42632928
1.24	124	0.01	-0.953	0.333	-1.0313244	-0.4583664	-0.1145916	97.01897814	2.6642547	-18.43205886
1.25	125	0.011	-0.954	0.333	-1.0313244	-0.7448454	0	97.45442622	2.60122932	-18.41487012
1.26	126	0.013	-0.954	0.332	-0.9167328	-0.859437	0	97.44296706	2.60122932	-18.4205997
1.27	127	0.013	-0.953	0.333	-0.572958	-0.859437	0.1145916	97.43723748	2.60122932	-18.43205886
1.28	128	0.012	-0.956	0.334	-0.3437748	-1.145916	0.286479	97.4315079	2.60122932	-18.44351802
1.29	129	0.009	-0.955	0.338	-0.4583664	-1.0886202	0.286479	97.42577832	2.60122932	-18.45497718
1.3	130	0.007	-0.953	0.337	-0.572958	-1.0313244	0.2291832	97.92425178	2.50955604	-18.43205886
1.31	131	0.005	-0.951	0.336	-0.572958	-0.8021412	0.2291832	97.9185222	2.50382646	-18.43778844
1.32	132	0.003	-0.949	0.335	-0.4583664	-0.6875496	0.1145916	97.91279262	2.50382646	-18.44351802
1.33	133	0.003	-0.95	0.336	-0.286479	-0.4583664	0.1145916	97.90706304	2.50382646	-18.4492476
1.34	134	0.004	-0.951	0.337	-0.2291832	-0.2291832	0.1718874	97.90706304	2.50382646	-18.45497718
1.35	135	0.006	-0.952	0.336	-0.286479	-0.0572958	0.3437748	98.93838744	2.31475032	-18.38622222
1.36	136	0.007	-0.953	0.338	-0.286479	-0.1718874	0.4583664	98.93265786	2.30902074	-18.38622222
1.37	137	0.01	-0.955	0.337	-0.286479	-0.286479	0.5156622	98.93265786	2.30329116	-18.3919518
1.38	138	0.009	-0.956	0.336	-0.2291832	-0.3437748	0.6302538	98.92692828	2.29756158	-18.39768138
1.39	139	0.009	-0.955	0.335	-0.3437748	-0.286479	0.6302538	98.92692828	2.291832	-18.39768138
1.4	140	0.009	-0.956	0.335	-0.286479	-0.1145916	0.3437748	100.3879712	2.05118964	-18.32319684
1.41	141	0.008	-0.957	0.335	-0.1718874	0.0572958	0.1718874	100.3879712	2.05118964	-18.32319684
1.42	142	0.007	-0.959	0.337	-0.1718874	0.1718874	0.1145916	100.3879712	2.05118964	-18.31746726
1.43	143	0.005	-0.958	0.337	-0.5156622	0.286479	0.0572958	100.3822416	2.04546006	-18.31746726
1.44	144	0.005	-0.959	0.336	-0.9167328	0.572958	0	100.3707824	2.04546006	-18.31173768
1.45	145	0.007	-0.958	0.335	-0.9740286	1.0313244	0.0572958	100.6801798	1.99389384	-18.28308978
1.46	146	0.011	-0.958	0.338	-0.572958	0.8021412	0.286479	100.6744502	1.98816426	-18.2773602
1.47	147	0.012	-0.959	0.337	-0.5156622	0.5156622	0.4010706	100.6687206	1.98243468	-18.27163062
1.48	148	0.013	-0.958	0.337	-0.7448454	0.286479	0.5156622	100.6572614	1.9767051	-18.27163062
1.49	149	0.014	-0.958	0.338	-0.6875496	0.1145916	0.5156622	100.6515319	1.97097552	-18.27163062
1.5	150	0.013	-0.956	0.337	-0.6875496	0.0572958	0.5156622	101.0984391	1.90795014	-18.25444188
1.51	151	0.012	-0.955	0.338	-0.7448454	0.286479	0.286479	101.0927095	1.90222056	-18.25444188
1.52	152	0.01	-0.955	0.34	-0.6302538	0.4010706	0.1718874	101.0869799	1.90222056	-18.2487123
1.53	153	0.009	-0.955	0.34	-0.5156622	0.286479	0.2291832	101.0812504	1.89649098	-18.24298272
1.54	154	0.009	-0.954	0.339	-0.6302538	0.1718874	0.286479	101.0755208	1.89649098	-18.24298272
1.55	155	0.01	-0.953	0.34	-0.6302538	0.0572958	0.4010706	101.522428	1.82773602	-18.22579398
1.56	156	0.01	-0.952	0.338	-0.6302538	0.0572958	0.5156622	101.5166984	1.82200644	-18.22579398
1.57	157	0.012	-0.952	0.336	-0.8021412	0.286479	0.5156622	101.5109689	1.81627686	-18.22579398
1.58	158	0.012	-0.953	0.335	-0.859437	0.4010706	0.4583664	101.4995097	1.81054728	-18.2200644
1.59	159	0.014	-0.952	0.334	-1.0313244	0.572958	0.286479	101.4880505	1.8048177	-18.2200644
1.6	160	0.011	-0.952	0.335	-0.8021412	0.4583664	0.1718874	101.9120395	1.75325148	-18.19714608
1.61	161	0.012	-0.954	0.337	-0.6875496	0.286479	0.1145916	101.9063099	1.7475219	-18.19714608
1.62	162	0.011	-0.955	0.337	-0.6875496	0.1145916	0.1145916	101.9005803	1.7475219	-18.19714608
1.63	163	0.009	-0.957	0.338	-0.4010706	0	0.3437748	101.8948507	1.74179232	-18.19714608
1.64	164	0.008	-0.958	0.337	-0.4010706	-0.1145916	0.4010706	101.8891211	1.74179232	-18.19714608
1.65	165	0.009	-0.959	0.335	-0.6302538	-0.0572958	0.4583664	102.1985185	1.6902261	-18.1914165
1.66	166	0.01	-0.958	0.331	-0.5156622	-0.2291832	0.6302538	102.1927889	1.68449652	-18.1914165
1.67	167	0.009	-0.958	0.333	-0.4010706	-0.3437748	0.6302538	102.1927889	1.68449652	-18.19714608
1.68	168	0.008	-0.959	0.338	-0.3437748	-0.4010706	0.6302538	102.1870593	1.67876694	-18.20287566
1.69	169	0.008	-0.959	0.337	-0.7448454	-0.286479	0.6875496	102.1813297	1.66730778	-18.20860524
1.7	170	0.008	-0.957	0.334	-1.145916	-0.0572958	0.6875496	102.381865	1.62720072	-18.20287566
1.71	171	0.01	-0.953	0.331	-1.145916	0	0.7448454	102.3704059	1.62147114	-18.20287566
1.72	172	0.009	-0.946	0.335	-0.5156622	-0.0572958	0.5156622	102.3646763	1.61574156	-18.20860524
1.73	173	0.008	-0.946	0.336	0.3437748	-0.1718874	0.286479	102.3704059	1.61574156	-18.20860524
1.74	174	0.007	-0.949	0.337	0.7448454	-0.4010706	0.1718874	102.3761354	1.61574156	-18.21433482
1.75	175	0.003	-0.959	0.336	0.572958	-0.2291832	0	103.0063892	1.48396122	-18.17995734
1.76	176	0.001	-0.968	0.333	0.1145916	0.1718874	-0.0572958	103.0063892	1.48396122	-18.17422776
1.77	177	0	-0.971	0.334	-0.4583664	0.6875496	-0.0572958	103.0006597	1.48396122	-18.16849818
1.78	178	0.001	-0.967	0.336	-0.9740286	1.2032118	-0.0572958	102.9949301	1.47823164	-18.15703902
1.79	179	0	-0.958	0.333	-0.9740286	1.718874	-0.0572958	102.9834709	1.47823164	-18.13985028
1.8	180	0.004	-0.952	0.333	-0.4010706	1.718874	0	103.1438992	1.44385416	-18.11693196
1.81	181	0.007	-0.95	0.332	-0.1718874	1.432395	0.1145916	103.1381696	1.43812458	-18.09974322
1.82	182	0.012	-0.951	0.334	-0.0572958	0.9740286	0.1718874	103.1381696	1.432395	-18.09401364
1.83	183	0.014	-0.954	0.332	0.0572958	0.4583664	0.4010706	103.1381696	1.42666542	-18.08828406
1.84	184	0.015	-0.96	0.33	0	0	0.6302538	103.1381696	1.42093584	-18.09401364
1.85	185	0.015	-0.965	0.329	-0.1145916	-0.4010706	0.6875496	103.3558936	1.39801752	-18.09401364
1.86	186	0.011	-0.968	0.329	-0.5156622	-0.5156622	0.6875496	103.350164	1.39228794	-18.1054728
1.87	187	0.004	-0.965	0.327	-0.9740286	-0.572958	0.3437748	103.3387049	1.39228794	-18.11120238
1.88	188	0.003	-0.957	0.325	-1.3750992	-0.3437748	0.2291832	103.3272457	1.38655836	-18.11693196
1.89	189	0.001	-0.949	0.326	-1.145916	-0.4583664	0.1145916	103.3157866	1.38655836	-18.12266154
1.9	190	0	-0.943	0.328	-0.6875496	-0.4583664	0.0572958	103.5908064	1.32353298	-18.1054728
1.91	191	0.001	-0.945	0.327	-0.1718874	-0.5156622	0.1718874	103.5908064	1.32353298	-18.11120238
1.92	192	0	-0.952	0.327	0.0572958	-0.4583664	0.3437748	103.5908064	1.3178034	-18.11693196
1.93	193	0	-0.958	0.326	-0.1145916	-0.3437748	0.4010706	103.5850768	1.3178034	-18.12266154
1.94	194	0	-0.964	0.326	-0.3437748	-0.1718874	0.4583664	103.5850768	1.31207382	-18.12266154
1.95	195	0.001	-0.965	0.324	-0.572958	-0.1718874	0.4583664	103.774153	1.26623718	-18.11693196
1.96	196	0.002	-0.961	0.325	-0.572958	-0.3437748	0.286479	103.7684234	1.2605076	-18.12266154
1.97	197	0.001	-0.956	0.325	-0.3437748	-0.4583664	0.0572958	103.7626938	1.26623718	-18.12839112
1.98	198	0	-0.953	0.327	-0.1145916	-0.3437748	0	103.7626938	1.26623718	-18.12839112
1.99	199	-0.001	-0.951	0.33	-0.1145916	-0.2291832	0	103.7626938	1.26623718	-18.1341207
2	200	-0.004	-0.951	0.328	-0.2291832	0	0	104.1408461	1.145916	-18.09974322
2.01	201	-0.005	-0.951	0.326	-0.3437748	0.286479	-0.0572958	104.1408461	1.145916	-18.09401364
2.02	202	-0.005	-0.954	0.327	-0.2291832	0.2291832	-0.1145916	104.1351165	1.145916	-18.08828406
2.03	203	-0.005	-0.957	0.327	-0.2291832	0.4010706	-0.0572958	104.1351165	1.145916	-18.08828406
2.04	204	-0.002	-0.959	0.328	-0.1718874	0.6302538	-0.1145916	104.1293869	1.145916	-18.08255448
2.05	205	-0.001	-0.96	0.33	-0.1145916	0.859437	-0.1145916	104.3127335	1.10007936	-18.05963616
2.06	206	-0.001	-0.96	0.329	-0.1718874	0.9740286	0	104.3070039	1.10007936	-18.05390658
2.07	207	-0.001	-0.955	0.33	-0.1718874	1.145916	0.1145916	104.3070039	1.09434978	-18.04244742
2.08	208	-0.002	-0.955	0.331	-0.1145916	1.3750992	0.1718874	104.3070039	1.0886202	-18.02525868
2.09	209	0	-0.954	0.33	-0.0572958	1.4896908	0.1145916	104.3012743	1.08289062	-18.01379952
2.1	210	0	-0.953	0.33	0	1.5469866	0.0572958	104.4387842	1.04851314	-17.9908812
2.11	211	0	-0.954	0.329	0	1.5469866	0	104.4387842	1.04278356	-17.97942204
2.12	212	0	-0.957	0.33	0	1.3178034	-0.0572958	104.4387842	1.04278356	-17.9622333
2.13	213	0	-0.958	0.331	-0.1718874	1.0886202	-0.0572958	104.4387842	1.03705398	-17.95077414
2.14	214	0	-0.956	0.329	-0.4583664	0.9167328	0	104.4330547	1.03705398	-17.94504456
2.15	215	0	-0.956	0.328	-0.6302538	0.572958	0	104.564835	1.0026765	-17.92785582
2.16	216	0.001	-0.958	0.328	-0.7448454	0.6302538	0	104.5591054	1.0026765	-17.92212624
2.17	217	0	-0.958	0.327	-0.859437	0.6302538	0	104.5533758	0.99694692	-17.91639666
2.18	218	0	-0.959	0.326	-0.859437	0.4583664	0	104.5419167	0.99694692	-17.91066708
2.19	219	0	-0.961	0.326	-1.0313244	0.4583664	0	104.5304575	0.99694692	-17.91066708
2.2	220	0.001	-0.961	0.325	-1.2032118	0.4010706	0	104.6393195	0.9740286	-17.89920792
2.21	221	0.001	-0.962	0.325	-1.3178034	0.286479	0	104.6278604	0.9740286	-17.89920792
2.22	222	0.001	-0.963	0.324	-1.2605076	0.1145916	0.0572958	104.6106716	0.9740286	-17.89920792
2.23	223	0.001	-0.966	0.326	-1.3178034	-0.2291832	0.1718874	104.5992125	0.96829902	-17.89920792
2.24	224	0.002	-0.965	0.329	-1.3750992	-0.572958	0.2291832	104.5820237	0.96829902	-17.9049375
2.25	225	0.002	-0.964	0.33	-1.6042824	-0.859437	0.3437748	104.6393195	0.95683986	-17.91639666
2.26	226	0.001	-0.962	0.332	-2.005353	-1.0313244	0.2291832	104.6164012	0.95683986	-17.92785582
2.27	227	0	-0.96	0.328	-2.3491278	-1.145916	0.1145916	104.5934829	0.96256944	-17.93931498
2.28	228	-0.002	-0.965	0.327	-2.6356068	-1.0886202	0	104.5705646	0.96256944	-17.95077414
2.29	229	-0.004	-0.972	0.325	-3.2658606	-1.3178034	-0.1718874	104.5361871	0.96829902	-17.9622333
2.3	230	-0.006	-0.974	0.326	-4.2398892	-1.718874	-0.1718874	104.5189984	0.96256944	-17.97369246
2.31	231	-0.009	-0.977	0.32	-4.9274388	-2.2345362	-0.1145916	104.4674321	0.9740286	-17.99661078
2.32	232	-0.009	-0.982	0.319	-5.5003968	-2.4064236	0	104.4101363	0.97975818	-18.0195291
2.33	233	-0.011	-0.984	0.321	-6.1306506	-2.3491278	0	104.347111	0.98548776	-18.04244742
2.34	234	-0.011	-0.982	0.321	-6.7036086	-1.9480572	-0.1145916	104.278356	0.99121734	-18.06536574
2.35	235	-0.011	-0.976	0.326	-7.3911582	-1.145916	-0.4583664	104.2267898	0.99121734	-18.07109532
2.36	236	-0.009	-0.972	0.327	-8.021412	-0.0572958	-0.9167328	104.1465757	0.99694692	-18.07109532
2.37	237	-0.01	-0.972	0.324	-8.59437	0.6875496	-1.2605076	104.060632	1.00840608	-18.06536574
2.38	238	-0.008	-0.975	0.32	-9.2819196	1.2032118	-1.432395	103.9632291	1.01986524	-18.048177
2.39	239	-0.006	-0.979	0.317	-9.9694692	1.2032118	-1.3750992	103.8658262	1.0313244	-18.03671784
2.4	240	-0.003	-0.979	0.317	-10.313244	1.145916	-1.3750992	103.774153	1.03705398	-18.0195291
2.41	241	0	-0.976	0.317	-10.313244	1.2032118	-1.432395	103.6710205	1.04278356	-18.00806994
2.42	242	0.001	-0.972	0.318	-10.0840608	1.0313244	-1.2605076	103.5678881	1.05424272	-17.99661078
2.43	243	0	-0.969	0.322	-10.1413566	0.9740286	-1.3178034	103.4647556	1.06570188	-17.98515162
2.44	244	0.001	-0.964	0.326	-10.7143146	1.0886202	-1.3750992	103.3558936	1.07143146	-17.97369246
2.45	245	0.003	-0.96	0.331	-11.2872726	0.9167328	-1.3178034	103.2699499	1.08289062	-17.9622333
2.46	246	0.005	-0.956	0.331	-11.172681	0.2291832	-1.2032118	103.1553583	1.09434978	-17.95650372
2.47	247	0.004	-0.953	0.329	-10.599723	-0.6302538	-1.0886202	103.0464963	1.10580894	-17.9622333
2.48	248	0.003	-0.952	0.326	-9.9121734	-1.3750992	-0.9167328	102.9433639	1.1172681	-17.97369246
2.49	249	0.002	-0.952	0.324	-9.740286	-1.3750992	-0.9740286	102.845961	1.12872726	-17.98515162
2.5	250	0.002	-0.953	0.321	-9.6829902	-0.9167328	-1.145916	102.777206	1.14018642	-17.99661078
2.51	251	0.003	-0.953	0.322	-9.453807	-0.859437	-1.3178034	102.6798032	1.15164558	-18.00234036
2.52	252	0.003	-0.957	0.322	-8.9381448	-0.8021412	-1.4896908	102.5881299	1.16883432	-18.00806994
2.53	253	0.002	-0.961	0.319	-8.4224826	-0.8021412	-1.718874	102.5021862	1.18602306	-18.01379952
2.54	254	0.004	-0.966	0.319	-8.4224826	-1.2032118	-1.718874	102.4162425	1.20894138	-18.0195291
2.55	255	0.005	-0.967	0.325	-8.7089616	-2.8074942	-1.5469866	102.3532171	1.22613012	-18.048177
2.56	256	0.005	-0.968	0.325	-8.9954406	-4.870143	-1.145916	102.2615438	1.24904844	-18.09401364
2.57	257	0.001	-0.969	0.312	-9.2819196	-5.0420304	-1.0886202	102.164141	1.27196676	-18.13985028
2.58	258	-0.003	-0.971	0.301	-8.7662574	-4.010706	-1.2032118	102.0781973	1.2891555	-18.17995734
2.59	259	-0.003	-0.976	0.298	-8.1360036	-2.86479	-1.3750992	101.9922536	1.31207382	-18.20287566
2.6	260	-0.002	-0.98	0.304	-8.4224826	-2.6356068	-1.2605076	101.9349578	1.32353298	-18.22579398
2.61	261	-0.001	-0.98	0.305	-8.8235532	-2.86479	-1.2032118	101.8432845	1.34072172	-18.25444188
2.62	262	0	-0.982	0.3	-9.1100322	-2.6356068	-1.145916	101.7516112	1.35791046	-18.2773602
2.63	263	0.003	-0.984	0.292	-9.453807	-2.2345362	-1.145916	101.6542084	1.3750992	-18.29454894
2.64	264	0.004	-0.985	0.293	-10.026765	-1.7761698	-0.9740286	101.5510759	1.38655836	-18.31173768
2.65	265	0.003	-0.982	0.3	-10.4851314	-1.7761698	-0.9167328	101.4651322	1.39228794	-18.32892642
2.66	266	0.003	-0.984	0.298	-10.8289062	-2.005353	-0.859437	101.3562702	1.40947668	-18.34611516
2.67	267	0.005	-0.984	0.294	-11.4018642	-1.718874	-0.9167328	101.2416786	1.42093584	-18.3633039
2.68	268	0.005	-0.984	0.291	-11.8029348	-2.005353	-0.9167328	101.1213574	1.432395	-18.38622222
2.69	269	0.006	-0.981	0.288	-11.8602306	-2.6356068	-0.8021412	101.0010362	1.44385416	-18.40914054
2.7	270	0.004	-0.98	0.285	-11.9175264	-2.86479	-0.8021412	100.8979038	1.45531332	-18.43778844
2.71	271	0.004	-0.982	0.276	-12.4331886	-2.4064236	-0.9740286	100.771853	1.46677248	-18.46070676
2.72	272	0.004	-0.985	0.268	-13.0634424	-1.718874	-1.2032118	100.6343431	1.48396122	-18.4778955
2.73	273	0.007	-0.989	0.262	-13.8082878	-1.145916	-1.432395	100.4968332	1.50114996	-18.48935466
2.74	274	0.007	-0.993	0.261	-14.4385416	-0.9167328	-1.4896908	100.3478641	1.5183387	-18.49508424
2.75	275	0.01	-0.993	0.257	-15.0687954	-0.6875496	-1.5469866	100.2103542	1.52979786	-18.50081382
2.76	276	0.011	-0.993	0.254	-15.5844576	-0.572958	-1.4896908	100.049926	1.5469866	-18.5065434
2.77	277	0.011	-0.991	0.254	-16.2147114	-0.2291832	-1.6615782	99.88376814	1.55844576	-18.5065434
2.78	278	0.012	-0.99	0.257	-17.0741484	-0.572958	-1.8907614	99.71188074	1.58136408	-18.51227298
2.79	279	0.014	-0.989	0.259	-18.1054728	-2.5210152	-1.8907614	99.52853418	1.6042824	-18.5351913
2.8	280	0.015	-0.99	0.253	-18.4492476	-4.0680018	-1.8907614	99.3509172	1.62720072	-18.57529836
2.81	281	0.013	-0.991	0.245	-18.5065434	-4.5263682	-1.8334656	99.16184106	1.65011904	-18.61540542
2.82	282	0.011	-0.993	0.241	-18.907614	-4.4117766	-1.718874	98.96703534	1.67303736	-18.66124206
2.83	283	0.01	-0.995	0.235	-19.480572	-3.8961144	-1.5469866	98.77222962	1.69595568	-18.69561954
2.84	284	0.007	-0.998	0.234	-20.05353	-3.4950438	-1.2605076	98.56596474	1.71314442	-18.7357266
2.85	285	0.006	-1.002	0.235	-21.199446	-2.6356068	-1.3178034	98.35969986	1.72460358	-18.75864492
2.86	286	0.002	-1.003	0.23	-22.345362	-1.432395	-1.432395	98.13624624	1.74179232	-18.77583366
2.87	287	0	-1.005	0.223	-23.3766864	-0.572958	-1.5469866	97.89560388	1.75898106	-18.78156324
2.88	288	-0.001	-1.002	0.234	-23.8923486	-0.4583664	-1.6615782	97.65496152	1.7761698	-18.78729282
2.89	289	-0.002	-0.998	0.249	-24.6944898	0.572958	-1.718874	97.40286	1.78762896	-18.78156324
2.9	290	-0.001	-0.998	0.235	-26.069589	2.2345362	-1.7761698	97.15075848	1.79908812	-18.75864492
2.91	291	0.001	-0.993	0.207	-26.8144344	2.578311	-1.7761698	96.87573864	1.81054728	-18.7357266
2.92	292	0.004	-0.992	0.191	-26.1268848	2.1199446	-1.718874	96.61217796	1.82200644	-18.71280828
2.93	293	0.004	-0.995	0.192	-26.2414764	1.6615782	-1.8334656	96.34861728	1.8334656	-18.69561954
2.94	294	0.005	-0.998	0.188	-27.1582092	2.1772404	-2.005353	96.07359744	1.85065434	-18.6784308
2.95	295	0.007	-1.004	0.184	-27.8457588	2.2345362	-2.1772404	95.7985776	1.86784308	-18.65551248
2.96	296	0.014	-1.008	0.189	-28.7051958	1.432395	-2.1199446	95.50636902	1.88503182	-18.64405332
2.97	297	0.016	-1.003	0.199	-29.220858	0	-1.8907614	95.20843086	1.90222056	-18.64405332
2.98	298	0.013	-0.999	0.203	-28.7624916	-1.7761698	-1.7761698	94.91622228	1.9194093	-18.66697164
2.99	299	0.009	-0.999	0.203	-28.9916748	-3.3804522	-1.6042824	94.6240137	1.93659804	-18.70134912
3	300	0.004	-0.998	0.191	-29.793816	-3.9534102	-1.3178034	94.33180512	1.9480572	-18.74145618
3.01	301	0.001	-1.002	0.183	-30.5959572	-3.5523396	-1.3178034	94.01667822	1.95951636	-18.78156324
3.02	302	0.002	-1.006	0.175	-31.226211	-2.6356068	-1.432395	93.70155132	1.9767051	-18.81021114
3.03	303	0.004	-1.012	0.17	-32.1429438	-1.8334656	-1.6615782	93.37496526	1.99389384	-18.82739988
3.04	304	0.006	-1.015	0.175	-33.518043	-0.7448454	-1.718874	93.03119046	2.005353	-18.83885904
3.05	305	0.008	-1.014	0.171	-34.8931422	0.1718874	-1.6042824	92.68741566	2.01681216	-18.83885904
3.06	306	0.012	-1.014	0.16	-35.4661002	0.5156622	-1.0886202	92.3321817	2.02827132	-18.83885904
3.07	307	0.016	-1.014	0.155	-35.6379876	0.1145916	-0.5156622	91.96548858	2.02827132	-18.84458862
3.08	308	0.018	-1.01	0.148	-36.2682414	-0.4010706	-0.1145916	91.59879546	2.02827132	-18.8503182
3.09	309	0.013	-1.003	0.141	-36.955791	-1.4896908	0.1718874	91.22637276	2.02254174	-18.86750694
3.1	310	0.01	-1.001	0.147	-37.5860448	-1.432395	-0.2291832	90.85395006	2.02254174	-18.89042526
3.11	311	0.01	-1.004	0.143	-38.6173692	-0.9740286	-0.9740286	90.46433862	2.02827132	-18.90188442
3.12	312	0.009	-1.009	0.128	-39.7059894	-0.572958	-1.7761698	90.05753844	2.04546006	-18.91334358
3.13	313	0.006	-1.014	0.118	-40.680018	-0.0572958	-2.5210152	89.64500868	2.06837838	-18.91907316
3.14	314	0.003	-1.017	0.113	-41.825934	-0.2291832	-3.151269	89.22101976	2.09702628	-18.92480274
3.15	315	0.001	-1.02	0.111	-42.398892	-0.3437748	-3.5523396	88.80276042	2.12567418	-18.9362619
3.16	316	0	-1.014	0.116	-42.685371	0.7448454	-4.1825934	88.36731234	2.16005166	-18.93053232
3.17	317	0.008	-1.014	0.118	-42.5707794	2.3491278	-4.5263682	87.93759384	2.20015872	-18.91334358
3.18	318	0.017	-1.01	0.104	-44.4615408	2.2345362	-4.2398892	87.48495702	2.24026578	-18.90188442
3.19	319	0.02	-0.997	0.086	-46.0085274	1.6615782	-3.5523396	87.01513146	2.27464326	-18.89042526
3.2	320	0.018	-0.991	0.074	-46.8106686	1.2032118	-2.7501984	86.55103548	2.29756158	-18.88469568
3.21	321	0.016	-0.994	0.069	-47.8992888	1.2032118	-2.5210152	86.06402118	2.3204799	-18.8789661
3.22	322	0.011	-1.002	0.058	-48.8160216	1.2032118	-2.86479	85.5712773	2.34339822	-18.87323652
3.23	323	0.007	-1.007	0.055	-50.1911208	1.718874	-3.7815228	85.06134468	2.3777757	-18.86177736
3.24	324	0.004	-1.005	0.055	-51.56622	1.9480572	-4.9274388	84.5399529	2.42361234	-18.85604778
3.25	325	0.003	-0.989	0.063	-53.6861646	1.8907614	-5.6722842	84.00710196	2.46944898	-18.84458862
3.26	326	0.002	-0.969	0.071	-54.8320806	1.5469866	-5.7868758	83.44560312	2.52674478	-18.84458862
3.27	327	0.003	-0.949	0.058	-55.4050386	1.4896908	-5.72958	82.88410428	2.578311	-18.83885904
3.28	328	0.008	-0.936	0.049	-55.0612638	1.6042824	-5.5576926	82.32833502	2.62987722	-18.83885904
3.29	329	0.012	-0.938	0.048	-54.6601932	1.6042824	-5.5003968	81.77256576	2.68144344	-18.83312946
3.3	330	0.014	-0.94	0.042	-54.8893764	1.3750992	-5.6149884	81.22825566	2.73300966	-18.83312946
3.31	331	0.017	-0.944	0.033	-55.1185596	1.432395	-5.6722842	80.66675682	2.78457588	-18.83312946
3.32	332	0.015	-0.957	0.023	-55.5196302	1.8334656	-6.0733548	80.10525798	2.84187168	-18.83312946
3.33	333	0.015	-0.962	0.019	-57.0666168	2.6929026	-6.7036086	79.52084082	2.90489706	-18.8216703
3.34	334	0.016	-0.959	0.018	-58.0406454	3.3804522	-7.161975	78.93642366	2.97365202	-18.80448156
3.35	335	0.021	-0.952	0.01	-59.014674	3.8388186	-7.5057498	78.34627692	3.04813656	-18.78729282
3.36	336	0.022	-0.948	0	-59.874111	3.6669312	-7.3911582	77.73894144	3.11689152	-18.77583366
3.37	337	0.027	-0.947	0.005	-60.9054354	2.7501984	-7.0473834	77.1201468	3.18564648	-18.77010408
3.38	338	0.028	-0.942	0.011	-62.0513514	1.4896908	-6.5317212	76.489893	3.24867186	-18.77583366
3.39	339	0.026	-0.939	0.003	-62.7961968	0.9167328	-6.1879464	75.85390962	3.30023808	-18.78156324
3.4	340	0.025	-0.941	-0.013	-63.311859	0.7448454	-6.1879464	75.22365582	3.35753388	-18.79875198
3.41	341	0.025	-0.944	-0.022	-64.6869582	0.9740286	-6.1879464	74.56475412	3.4091001	-18.81021114
3.42	342	0.026	-0.948	-0.029	-65.7755784	1.3178034	-6.302538	73.90012284	3.4663959	-18.81594072
3.43	343	0.028	-0.949	-0.037	-67.036086	1.5469866	-6.7036086	73.21830282	3.52942128	-18.82739988
3.44	344	0.027	-0.948	-0.042	-68.6403684	1.5469866	-7.3338624	72.51929406	3.59244666	-18.83885904
3.45	345	0.028	-0.943	-0.041	-70.5884256	1.5469866	-7.9068204	71.81455572	3.66120162	-18.85604778
3.46	346	0.032	-0.937	-0.051	-72.479187	1.0886202	-8.1932994	71.08116948	3.73568616	-18.87323652
3.47	347	0.036	-0.933	-0.073	-74.1407652	-0.1145916	-8.1932994	70.32486492	3.80444112	-18.907614
3.48	348	0.035	-0.932	-0.092	-76.0315266	-1.6042824	-7.9641162	69.55137162	3.86173692	-18.95918022
3.49	349	0.02	-0.933	-0.064	-78.5525418	-3.437748	-7.3338624	68.74923042	3.91330314	-19.0222056
3.5	350	0.015	-0.927	-0.056	-81.0162612	-3.2085648	-7.2765666	67.93563006	3.95913978	-19.08523098
3.51	351	0.015	-0.911	-0.064	-82.8497268	-2.005353	-7.8495246	67.0933818	4.010706	-19.14252678
3.52	352	0.015	-0.905	-0.101	-84.8550798	-0.7448454	-8.7662574	66.22821522	4.07946096	-19.18836342
3.53	353	0.013	-0.905	-0.161	-86.8604328	0.1718874	-9.740286	65.34013032	4.15967508	-19.23420006
3.54	354	0	-0.901	-0.162	-86.4020664	0	-10.7716104	64.46350458	4.24561878	-19.2800367
3.55	355	-0.004	-0.899	-0.145	-84.6258966	0.859437	-12.0894138	63.60979716	4.34302164	-19.33160292
3.56	356	-0.005	-0.912	-0.159	-84.511305	1.6615782	-13.0634424	62.75036016	4.45761324	-19.37743956
3.57	357	-0.005	-0.91	-0.169	-83.1935016	1.3178034	-13.178034	61.90238232	4.56647526	-19.43473536
3.58	358	0	-0.929	-0.188	-81.7611066	0.5156622	-12.5477802	61.06586364	4.6696077	-19.49203116
3.59	359	0.009	-0.953	-0.211	-82.5632478	-0.286479	-12.032118	60.22361538	4.76128098	-19.56078612
3.6	360	0.021	-0.972	-0.21	-83.0216142	0.286479	-11.8602306	59.39282628	4.85295426	-19.61808192
3.61	361	0.045	-0.98	-0.206	-82.7351352	1.6042824	-11.745639	58.54484844	4.95035712	-19.66964814
3.62	362	0.079	-0.992	-0.224	-81.646515	2.1199446	-11.0580894	57.71405934	5.0420304	-19.71548478
3.63	363	0.084	-1.003	-0.214	-81.073557	0.7448454	-9.7975818	56.88327024	5.11651494	-19.767051
3.64	364	0.078	-1.022	-0.221	-79.354683	-0.9167328	-8.59437	56.07539946	5.17381074	-19.8243468
3.65	365	0.067	-1.035	-0.227	-78.5525418	-3.4950438	-7.9641162	55.290447	5.20818822	-19.90456092
3.66	366	0.062	-1.049	-0.237	-78.7244292	-4.583664	-7.448454	54.48257622	5.23683612	-19.98477504
3.67	367	0.056	-1.049	-0.238	-78.8390208	-4.9847346	-6.9327918	53.68043502	5.25402486	-20.07071874
3.68	368	0.043	-1.052	-0.235	-78.208767	-4.9274388	-6.875496	52.87829382	5.2712136	-20.15666244
3.69	369	0.033	-1.062	-0.22	-76.776372	-4.9274388	-6.4171296	52.08761178	5.28267276	-20.23687656
3.7	370	0.032	-1.053	-0.198	-76.1461182	-5.9587632	-5.5576926	51.3370368	5.27694318	-20.32282026
3.71	371	0.029	-1.044	-0.17	-75.8023434	-7.2192708	-4.3544808	50.5635435	5.25975444	-20.40876396
3.72	372	0.009	-1.05	-0.172	-75.343977	-6.875496	-3.724227	49.7900502	5.23110654	-20.48897808
3.73	373	-0.001	-1.087	-0.175	-75.7450476	-4.4117766	-3.5523396	49.0165569	5.22537696	-20.55200346
3.74	374	-0.002	-1.114	-0.154	-76.4325972	-2.2345362	-3.3804522	48.23733402	5.22537696	-20.59211052
3.75	375	0.003	-1.128	-0.111	-76.8909636	-0.6302538	-2.86479	47.49248862	5.22537696	-20.61502884
3.76	376	0.018	-1.11	-0.087	-78.8390208	0.7448454	-1.7761698	46.69034742	5.23110654	-20.62075842
3.77	377	0.033	-1.059	-0.069	-80.0422326	0.7448454	-0.1718874	45.87674706	5.23110654	-20.62075842
3.78	378	0.03	-0.995	-0.082	-81.1881486	0.1145916	1.6042824	45.05741712	5.20818822	-20.60929926
3.79	379	0.024	-0.912	-0.086	-82.2767688	1.145916	3.2658606	44.22089844	5.17954032	-20.58065136
3.8	380	0.019	-0.801	-0.067	-82.1621772	2.9220858	4.0680018	43.42448682	5.16235158	-20.52908514
3.81	381	0.016	-0.715	-0.072	-79.9849368	6.875496	4.297185	42.61661604	5.16808116	-20.44887102
3.82	382	0.015	-0.658	-0.052	-76.8336678	9.167328	4.3544808	41.84312274	5.19672906	-20.35719774
3.83	383	0.011	-0.644	-0.025	-73.911582	9.9121734	5.0420304	41.10400692	5.21964738	-20.2540653
3.84	384	0.008	-0.644	-0.035	-74.0834694	11.3445684	5.9587632	40.35916152	5.25402486	-20.13374412
3.85	385	0.017	-0.648	-0.056	-73.338624	13.0061466	7.2765666	39.6486936	5.29413192	-19.99050462
3.86	386	0.024	-0.631	0.019	-70.760313	12.605076	8.307891	38.94395526	5.3285094	-19.84726512
3.87	387	0.022	-0.637	0.067	-68.8695516	12.4331886	8.8235532	38.25640566	5.3571573	-19.69829604
3.88	388	0.056	-0.637	0.039	-69.1560306	12.0894138	9.5111028	37.56885606	5.38007562	-19.54359738
3.89	389	0.069	-0.612	0.032	-68.0101146	6.1306506	6.875496	36.88703604	5.37434604	-19.4519241
3.9	390	0.102	-0.568	0.024	-66.6923112	-2.4637194	4.9274388	36.23386392	5.32277982	-19.42900578
3.91	391	0.137	-0.529	-0.018	-65.1453246	-7.448454	2.4064236	35.57496222	5.2425657	-19.4519241
3.92	392	0.16	-0.472	-0.044	-63.9421128	-10.8289062	0.6302538	34.9217901	5.13943326	-19.51494948
3.93	393	0.211	-0.452	-0.079	-60.447069	-15.0687954	-1.0886202	34.29726588	5.01911208	-19.61235234
3.94	394	0.247	-0.424	-0.165	-59.014674	-20.8556712	-3.0939732	33.6899304	4.85868384	-19.75559184
3.95	395	0.263	-0.393	-0.27	-59.8168152	-25.4393352	-4.2398892	33.07686534	4.68106686	-19.9389384
3.96	396	0.244	-0.351	-0.389	-66.463128	-28.6479	-3.7815228	32.39504532	4.45761324	-20.12801454
3.97	397	0.178	-0.276	-0.503	-77.8649922	-27.9603504	-1.7761698	31.59290412	4.22843004	-20.29990194
3.98	398	0.099	-0.245	-0.494	-86.9177286	-28.361421	1.7761698	30.70481922	3.97059894	-20.43741186
3.99	399	0.073	-0.229	-0.445	-103.1897358	-28.2468294	4.297185	29.65630608	3.6955791	-20.54627388
4	400	0.13	-0.174	-0.478	-120.4930674	-25.496631	3.6669312	28.42444638	3.44920716	-20.63794716
4.01	401	0.145	-0.2	-0.548	-131.3792694	-17.18874	0.9167328	27.08945424	3.27731976	-20.7124317
4.02	402	0.058	-0.229	-0.592	-144.7864866	-9.7975818	-4.8128472	25.61695218	3.19137606	-20.7983754
4.03	403	0.002	-0.256	-0.557	-151.7192784	-9.3965112	-11.9175264	24.06996558	3.13980984	-20.94734448
4.04	404	-0.026	-0.279	-0.447	-157.56345	-9.9694692	-17.8189938	22.4599536	3.09970278	-21.1421502
4.05	405	-0.042	-0.228	-0.335	-165.298383	10.026765	-24.1215318	20.77545708	3.25440144	-21.32549676
4.06	406	-0.068	-0.152	-0.291	-164.3816502	18.907614	-26.356068	19.09096056	3.4950438	-21.49738416
4.07	407	0.007	-0.109	-0.425	-171.0852588	20.2254174	-26.4706596	17.34343866	3.74141574	-21.66927156
4.08	408	0.178	-0.041	-0.958	-186.3832374	18.5638392	-24.8663772	15.43548852	3.96486936	-21.84115896
4.09	409	0.033	-0.014	-1.869	-200.4207084	11.1153852	-23.0329116	13.38429888	4.10237928	-22.02450552
4.1	410	-0.114	0.319	-3.281	-194.80572	0.859437	-21.2567418	11.39613462	4.13102718	-22.21931124
4.11	411	-0.625	1.299	-3.996	-135.9629334	2.6929026	-36.3255372	9.98665794	4.20551172	-22.55735646
4.12	412	-0.008	2.92	-3.996	-55.4623344	35.809875	6.4171296	9.43088868	4.53782736	-22.41984654
4.13	413	-0.226	1.221	-3.996	-170.8560756	10.4851314	13.4072172	7.71201468	4.59512316	-22.26514788
4.14	414	0.107	1.386	-3.996	-139.5725688	40.5654264	5.7868758	6.29680842	4.96754586	-22.13336754
4.15	415	0.164	1.42	-3.87	-105.3669762	31.5699858	-13.4072172	5.2139178	5.27694318	-22.21931124
4.16	416	0.036	1.077	-3.062	-101.0697912	61.879464	-33.3461556	4.1539455	5.9014674	-22.47714234
4.17	417	0.053	0.506	-2.296	-105.9399342	71.5624542	-37.7579322	3.0366774	6.6176649	-22.78081008
4.18	418	0.038	-0.067	-1.66	-88.4074194	52.712136	-33.1169724	2.09702628	7.14478626	-23.06728908
4.19	419	0.082	-0.613	-1.181	-48.128472	34.5493674	-34.4920716	1.56417534	7.48856106	-23.38814556
4.2	420	0.02	-1.418	-0.894	-9.2246238	28.3041252	-29.793816	1.43812458	7.77504006	-23.66889498
4.21	421	0.165	-1.399	-0.813	-22.345362	18.7357266	-21.6005166	1.18029348	7.9641162	-23.87515986
4.22	422	0.218	-0.674	-0.867	-80.7297822	8.021412	-21.2567418	0.33231564	8.03860074	-24.08142474
4.23	423	0.23	-0.092	-0.884	-106.3410048	3.9534102	-20.626488	-0.76776372	8.06724864	-24.27623046
4.24	424	0.188	0.378	-0.795	-104.5075392	1.145916	-15.756345	-1.85065434	8.06151906	-24.42519954
4.25	425	0.157	0.772	-0.653	-92.532717	-5.72958	-10.4278356	-2.84760126	7.9927641	-24.52833198
4.26	426	0.297	1.013	-0.593	-72.3072996	-9.0527364	-4.010706	-3.58671708	7.89536124	-24.56270946
4.27	427	0.318	1.088	-0.559	-51.7381074	-7.5057498	-0.4010706	-4.10810886	7.81514712	-24.55697988
4.28	428	0.187	1.082	-0.558	-42.685371	-0.9740286	0.1718874	-4.54355694	7.80368796	-24.5512503
4.29	429	0.096	0.942	-0.546	-29.793816	12.0894138	-2.578311	-4.85295426	7.91254998	-24.5798982
4.3	430	0.093	0.711	-0.537	-11.6883432	16.1574156	-6.0733548	-5.08213746	8.06724864	-24.6658419
4.31	431	0.057	0.464	-0.511	5.0993262	11.5737516	-7.448454	-5.04775998	8.17611066	-24.74605602
4.32	432	0	0.255	-0.484	13.8082878	4.4117766	-5.6722842	-4.91597964	8.21621772	-24.8090814
4.33	433	-0.02	0.089	-0.452	13.750992	-2.4064236	-0.4583664	-4.77274014	8.1932994	-24.81481098
4.34	434	-0.036	-0.001	-0.403	8.6516658	-8.2505952	7.2192708	-4.67533728	8.11881486	-24.73459686
4.35	435	0	0.053	-0.37	2.9220858	-11.0580894	13.0634424	-4.62950064	8.01568242	-24.60281652
4.36	436	0.076	0.288	-0.449	-4.9274388	-6.8182002	16.1001198	-4.65814854	7.95838662	-24.4366587
4.37	437	0.102	0.552	-0.544	-9.5111028	-2.578311	17.0168526	-4.7269035	7.94692746	-24.2647713
4.38	438	0.091	0.778	-0.602	-2.4064236	-2.6356068	15.0114996	-4.73263308	7.92973872	-24.11007264
4.39	439	0.085	0.925	-0.638	17.7044022	-1.7761698	11.4018642	-4.53782736	7.92400914	-23.99548104
4.4	440	0.098	0.899	-0.695	42.5707794	3.0939732	8.1360036	-4.1539455	7.9641162	-23.92672608
4.41	441	0.105	0.706	-0.813	60.0459984	9.6829902	7.3911582	-3.54088044	8.07297822	-23.8637007
4.42	442	0.11	0.462	-0.975	67.7809314	13.4072172	8.4797784	-2.84187168	8.21621772	-23.78921616
4.43	443	0.121	0.262	-1.071	68.4111852	16.1001198	7.9641162	-2.13713334	8.38810512	-23.71473162
4.44	444	0.135	0.085	-1.134	62.6816052	20.4546006	5.0993262	-1.50114996	8.60009958	-23.66889498
4.45	445	0.159	-0.008	-1.22	49.1597964	29.8511118	2.5210152	-0.99694692	8.89803774	-23.64597666
4.46	446	0.225	-0.033	-1.275	37.9871154	27.1582092	3.151269	-0.61306506	9.17305758	-23.61159918
4.47	447	0.342	-0.023	-1.278	27.501984	17.9908812	5.3285094	-0.32658606	9.35067456	-23.56003296
4.48	448	0.431	0.034	-1.282	14.5531332	9.167328	6.6463128	-0.16615782	9.44807742	-23.491278
4.49	449	0.437	0.14	-1.278	1.145916	0.9167328	6.302538	-0.1432395	9.453807	-23.42825262
4.5	450	0.384	0.246	-1.228	-7.5630456	-6.4171296	4.9274388	-0.23491278	9.40224078	-23.38241598
4.51	451	0.297	0.311	-1.14	-11.45916	-10.4851314	3.5523396	-0.3437748	9.29910834	-23.3480385
4.52	452	0.226	0.302	-1.05	-10.1986524	-12.2040054	2.6929026	-0.44690724	9.17305758	-23.32512018
4.53	453	0.171	0.236	-0.994	-4.8128472	-12.2613012	2.86479	-0.4870143	9.0527364	-23.29647228
4.54	454	0.123	0.142	-0.956	-1.2605076	-9.5111028	3.6096354	-0.49274388	8.96106312	-23.2620948
4.55	455	0.089	0.053	-0.942	-1.3178034	-6.016059	4.0680018	-0.52139178	8.8522011	-23.21625816
4.56	456	0.068	-0.016	-0.935	-3.3231564	-3.5523396	4.1252976	-0.55003968	8.81782362	-23.1761511
4.57	457	0.053	-0.063	-0.913	-4.5263682	-2.6929026	3.724227	-0.59014674	8.78917572	-23.13604404
4.58	458	0.043	-0.099	-0.896	-4.583664	-1.6615782	2.578311	-0.6302538	8.77198698	-23.11312572
4.59	459	0.044	-0.132	-0.906	-4.6409598	0.2291832	1.0313244	-0.67609044	8.77771656	-23.10166656
4.6	460	0.06	-0.169	-0.945	-4.9847346	2.0626488	-0.572958	-0.60733548	8.73187992	-23.07301866
4.61	461	0.089	-0.191	-0.97	-5.3285094	1.9480572	-2.6929026	-0.66463128	8.74906866	-23.10166656
4.62	462	0.125	-0.204	-0.971	-5.2139178	0.8021412	-4.4690724	-0.72765666	8.76052782	-23.1475032
4.63	463	0.154	-0.19	-0.965	-5.0420304	0.4583664	-5.6722842	-0.78495246	8.76052782	-23.19906942
4.64	464	0.182	-0.17	-0.963	-4.3544808	0.859437	-6.4171296	-0.84224826	8.7662574	-23.26782438
4.65	465	0.204	-0.148	-0.962	-3.8961144	0.5156622	-6.9327918	-0.81360036	8.80636446	-23.33084976
4.66	466	0.212	-0.125	-0.964	-3.3231564	-0.6302538	-7.1046792	-0.85370742	8.80063488	-23.4053343
4.67	467	0.201	-0.099	-0.971	-2.291832	-1.8334656	-7.2192708	-0.8880849	8.77771656	-23.47408926
4.68	468	0.175	-0.074	-0.983	-0.4583664	-2.4064236	-7.1046792	-0.90527364	8.75479824	-23.5485738
4.69	469	0.152	-0.062	-0.986	2.0626488	-2.9793816	-6.7036086	-0.89381448	8.72042076	-23.61732876
4.7	470	0.129	-0.057	-0.982	4.3544808	-3.6669312	-5.6149884	-0.83651868	8.66885454	-23.66889498
4.71	471	0.116	-0.058	-0.98	6.302538	-4.1825934	-4.583664	-0.77922288	8.62874748	-23.71473162
4.72	472	0.105	-0.068	-0.978	7.6203414	-4.2398892	-3.6096354	-0.70473834	8.58291084	-23.7491091
4.73	473	0.101	-0.084	-0.978	7.9641162	-3.7815228	-3.0939732	-0.6302538	8.54853336	-23.78348658
4.74	474	0.108	-0.104	-0.98	7.7922288	-3.3231564	-2.6929026	-0.55576926	8.51415588	-23.81213448
4.75	475	0.113	-0.128	-0.986	7.161975	-2.6356068	-2.9793816	-0.41825934	8.46831924	-23.82932322
4.76	476	0.122	-0.16	-0.998	6.3598338	-2.0626488	-3.4950438	-0.36096354	8.44540092	-23.8637007
4.77	477	0.128	-0.183	-0.998	4.7555514	-1.8334656	-3.8388186	-0.3151269	8.42821218	-23.90380776
4.78	478	0.134	-0.198	-0.993	2.4064236	-1.6615782	-3.9534102	-0.29793816	8.41675302	-23.94391482
4.79	479	0.143	-0.193	-0.992	0.2291832	-1.6615782	-3.4950438	-0.29793816	8.39956428	-23.98402188
4.8	480	0.151	-0.176	-0.99	-1.718874	-1.6615782	-2.9220858	-0.18334656	8.38237554	-23.99548104
4.81	481	0.153	-0.148	-0.987	-3.2658606	-1.4896908	-2.6356068	-0.21772404	8.3651868	-24.01839936
4.82	482	0.154	-0.112	-0.986	-4.7555514	-0.5156622	-2.6929026	-0.27501984	8.35945722	-24.04704726
4.83	483	0.152	-0.075	-0.992	-5.8441716	0.7448454	-2.578311	-0.33804522	8.3651868	-24.06996558
4.84	484	0.152	-0.033	-0.994	-6.3598338	1.0313244	-2.2345362	-0.40680018	8.37664596	-24.0928839
4.85	485	0.152	-0.002	-0.989	-6.1879464	0.859437	-1.432395	-0.4870143	8.38237554	-24.11007264
4.86	486	0.153	0.024	-0.981	-5.9587632	0.572958	-0.572958	-0.55003968	8.38810512	-24.11580222
4.87	487	0.149	0.045	-0.975	-5.3858052	0.1145916	0.286479	-0.6016059	8.38810512	-24.11007264
4.88	488	0.144	0.062	-0.965	-4.7555514	-0.1718874	1.0313244	-0.65317212	8.38810512	-24.09861348
4.89	489	0.136	0.073	-0.952	-4.5263682	0.1145916	1.6615782	-0.69327918	8.38810512	-24.08142474
4.9	490	0.13	0.08	-0.953	-3.9534102	0.859437	2.1199446	-0.81360036	8.37664596	-24.06996558
4.91	491	0.126	0.079	-0.953	-2.9793816	1.2605076	2.4064236	-0.84224826	8.38810512	-24.04704726
4.92	492	0.124	0.069	-0.953	-1.6615782	1.4896908	2.291832	-0.859437	8.39956428	-24.01839936
4.93	493	0.122	0.052	-0.96	0.1718874	1.6042824	2.1772404	-0.85370742	8.41675302	-24.00121062
4.94	494	0.12	0.031	-0.97	1.4896908	1.718874	1.8334656	-0.83651868	8.43394176	-23.9782923
4.95	495	0.118	0.013	-0.977	2.005353	1.8907614	1.6042824	-0.8307891	8.41102344	-23.95537398
4.96	496	0.119	0.003	-0.981	2.2345362	2.1772404	1.6615782	-0.80787078	8.43394176	-23.93818524
4.97	497	0.122	-0.001	-0.981	2.2345362	2.578311	1.6615782	-0.77922288	8.45686008	-23.9209965
4.98	498	0.125	-0.005	-0.982	2.005353	3.151269	1.718874	-0.75630456	8.49123756	-23.90380776
4.99	499	0.127	-0.006	-0.983	1.6042824	3.3231564	1.6615782	-0.73911582	8.52561504	-23.88661902
5	500	0.129	-0.008	-0.984	1.145916	3.0366774	1.5469866	-0.72192708	8.51415588	-23.8637007
5.01	501	0.128	-0.009	-0.983	0.3437748	2.6929026	1.145916	-0.7161975	8.54280378	-23.85224154
5.02	502	0.131	-0.009	-0.978	-0.4583664	2.578311	0.7448454	-0.72192708	8.5657221	-23.84078238
5.03	503	0.137	-0.007	-0.977	-1.2032118	2.4637194	0.6302538	-0.73338624	8.59437	-23.8350528
5.04	504	0.14	-0.01	-0.978	-1.432395	1.9480572	0.5156622	-0.7448454	8.61155874	-23.82932322
5.05	505	0.139	-0.014	-0.978	-1.3178034	1.5469866	0.4010706	-0.73911582	8.58291084	-23.81213448
5.06	506	0.137	-0.02	-0.983	-0.9740286	1.3750992	0.1145916	-0.75057498	8.60009958	-23.81213448
5.07	507	0.136	-0.024	-0.986	-0.6302538	1.718874	-0.1718874	-0.75630456	8.61728832	-23.81213448
5.08	508	0.139	-0.029	-0.989	-0.2291832	2.1199446	-0.6302538	-0.76203414	8.63447706	-23.81786406
5.09	509	0.147	-0.032	-0.985	0.3437748	2.2345362	-0.9167328	-0.76203414	8.65739538	-23.82932322
5.1	510	0.157	-0.035	-0.981	0.9167328	1.7761698	-1.145916	-0.70473834	8.6803137	-23.8350528
5.11	511	0.162	-0.04	-0.976	1.6615782	1.0886202	-1.2605076	-0.6875496	8.69177286	-23.84651196
5.12	512	0.165	-0.047	-0.973	1.8907614	0.4010706	-1.2032118	-0.67036086	8.69750244	-23.85797112
5.13	513	0.166	-0.051	-0.971	2.005353	0	-1.2605076	-0.65317212	8.69750244	-23.87515986
5.14	514	0.168	-0.055	-0.974	1.8907614	-0.0572958	-1.2605076	-0.63598338	8.69750244	-23.88661902
5.15	515	0.17	-0.056	-0.981	1.6615782	-0.1718874	-1.145916	-0.52712136	8.72042076	-23.8923486
5.16	516	0.173	-0.054	-0.987	1.4896908	-0.3437748	-1.0313244	-0.5156622	8.71469118	-23.90380776
5.17	517	0.173	-0.051	-0.99	1.4896908	-0.6875496	-0.7448454	-0.49847346	8.7089616	-23.90953734
5.18	518	0.171	-0.049	-0.986	1.4896908	-0.859437	-0.6302538	-0.4870143	8.70323202	-23.91526692
5.19	519	0.169	-0.047	-0.985	1.6042824	-0.9740286	-0.5156622	-0.46982556	8.69177286	-23.9209965
5.2	520	0.169	-0.045	-0.981	1.4896908	-0.9740286	-0.4010706	-0.38388186	8.7089616	-23.9209965
5.21	521	0.169	-0.044	-0.981	1.3178034	-0.9167328	-0.3437748	-0.3724227	8.69750244	-23.92672608
5.22	522	0.168	-0.04	-0.979	0.859437	-0.9167328	-0.4583664	-0.36669312	8.68604328	-23.93245566
5.23	523	0.165	-0.036	-0.98	0.5156622	-0.9740286	-0.5156622	-0.36096354	8.6803137	-23.93818524
5.24	524	0.16	-0.028	-0.984	0.2291832	-0.9167328	-0.6302538	-0.36096354	8.66885454	-23.94391482
5.25	525	0.155	-0.023	-0.983	0.0572958	-0.7448454	-0.6875496	-0.33231564	8.64593622	-23.94391482
5.26	526	0.152	-0.019	-0.983	0.0572958	-0.7448454	-0.8021412	-0.33804522	8.63447706	-23.9496444
5.27	527	0.149	-0.013	-0.983	-0.0572958	-0.7448454	-0.9740286	-0.33804522	8.62874748	-23.96110356
5.28	528	0.145	-0.009	-0.983	-0.0572958	-0.6875496	-1.0886202	-0.33804522	8.6230179	-23.97256272
5.29	529	0.139	-0.006	-0.983	0	-0.6875496	-1.2032118	-0.3437748	8.61155874	-23.98402188
5.3	530	0.135	-0.004	-0.98	0.1145916	-0.7448454	-1.0313244	-0.37815228	8.5370742	-23.98975146
5.31	531	0.133	-0.003	-0.977	0.286479	-0.9740286	-0.859437	-0.37815228	8.53134462	-23.99548104
5.32	532	0.13	-0.006	-0.974	0.5156622	-0.9167328	-0.572958	-0.3724227	8.51988546	-24.0069402
5.33	533	0.13	-0.006	-0.973	0.6302538	-0.9740286	-0.1718874	-0.36669312	8.5084263	-24.0069402
5.34	534	0.129	-0.008	-0.974	0.7448454	-0.9740286	-0.1145916	-0.35523396	8.50269672	-24.0069402
5.35	535	0.129	-0.007	-0.975	0.8021412	-0.7448454	-0.1145916	-0.3724227	8.39956428	-23.99548104
5.36	536	0.128	-0.008	-0.978	0.859437	-0.3437748	-0.2291832	-0.36669312	8.3938347	-23.99548104
5.37	537	0.13	-0.007	-0.98	0.6875496	0.0572958	-0.286479	-0.36096354	8.3938347	-24.00121062
5.38	538	0.134	-0.007	-0.982	0.9167328	0.3437748	-0.4583664	-0.34950438	8.39956428	-24.0069402
5.39	539	0.137	-0.01	-0.983	1.2605076	0.4583664	-0.4583664	-0.33804522	8.40529386	-24.01266978
5.4	540	0.141	-0.018	-0.983	1.718874	0.4010706	-0.5156622	-0.30366774	8.37664596	-24.0069402
5.41	541	0.144	-0.026	-0.982	1.6615782	0.286479	-0.4583664	-0.29220858	8.38237554	-24.01266978
5.42	542	0.146	-0.032	-0.983	1.432395	0.286479	-0.4010706	-0.27501984	8.38810512	-24.01839936
5.43	543	0.148	-0.035	-0.984	1.0886202	0.286479	-0.4583664	-0.26356068	8.38810512	-24.02412894
5.44	544	0.146	-0.034	-0.982	0.8021412	0.286479	-0.4583664	-0.2578311	8.3938347	-24.02985852
5.45	545	0.146	-0.034	-0.98	0.6302538	0.4010706	-0.4583664	-0.18334656	8.37091638	-24.01839936
5.46	546	0.148	-0.033	-0.979	0.6302538	0.286479	-0.4583664	-0.17761698	8.37091638	-24.02412894
5.47	547	0.151	-0.033	-0.976	0.5156622	0.4010706	-0.5156622	-0.17761698	8.37664596	-24.02985852
5.48	548	0.157	-0.033	-0.975	0.3437748	0.3437748	-0.4010706	-0.1718874	8.38237554	-24.0355881
5.49	549	0.161	-0.033	-0.977	0.4010706	0.3437748	-0.4010706	-0.16615782	8.38237554	-24.0355881
5.5	550	0.164	-0.035	-0.979	0.3437748	0.1145916	-0.4583664	-0.06875496	8.45686008	-24.04131768
5.51	551	0.166	-0.036	-0.979	0.6302538	-0.286479	-0.4583664	-0.06302538	8.4511305	-24.04704726
5.52	552	0.164	-0.037	-0.979	0.859437	-0.7448454	-0.4583664	-0.0572958	8.44540092	-24.05277684
5.53	553	0.16	-0.038	-0.981	1.0886202	-1.2032118	-0.4583664	-0.04583664	8.43394176	-24.05850642
5.54	554	0.156	-0.038	-0.982	1.0886202	-0.9167328	-0.572958	-0.03437748	8.4224826	-24.064236
5.55	555	0.152	-0.035	-0.983	0.9167328	-0.9740286	-0.572958	0	8.40529386	-24.064236
5.56	556	0.152	-0.032	-0.975	0.9167328	-1.3178034	-0.4010706	0.00572958	8.3938347	-24.06996558
5.57	557	0.152	-0.027	-0.969	0.3437748	-1.6042824	-0.0572958	0.01145916	8.37664596	-24.06996558
5.58	558	0.15	-0.021	-0.969	0.2291832	-1.3178034	0	0.01145916	8.3651868	-24.07569516
5.59	559	0.149	-0.016	-0.973	0.286479	-0.9167328	-0.0572958	0.01718874	8.35372764	-24.07569516
5.6	560	0.148	-0.018	-0.969	0.286479	-0.7448454	-0.2291832	0.00572958	8.33080932	-24.07569516
5.61	561	0.145	-0.019	-0.974	0.4583664	-0.8021412	-0.3437748	0.01145916	8.32507974	-24.08142474
5.62	562	0.148	-0.026	-0.979	0.7448454	-1.4896908	-0.3437748	0.01718874	8.307891	-24.08142474
5.63	563	0.153	-0.029	-0.983	0.8021412	-1.7761698	-0.1145916	0.0286479	8.29070226	-24.08715432
5.64	564	0.156	-0.033	-0.99	0.9167328	-1.432395	0.0572958	0.03437748	8.27351352	-24.08715432
5.65	565	0.159	-0.036	-0.998	0.859437	-1.2605076	0.1718874	0.07448454	8.27351352	-24.08142474
5.66	566	0.16	-0.035	-1.003	0.4010706	-1.2032118	0.3437748	0.08021412	8.26205436	-24.08142474
5.67	567	0.158	-0.03	-1.004	0.2291832	-1.3750992	0.3437748	0.0859437	8.2505952	-24.07569516
5.68	568	0.156	-0.023	-0.998	0.3437748	-1.432395	0.1718874	0.0859437	8.23340646	-24.07569516
5.69	569	0.154	-0.017	-0.991	0.2291832	-1.718874	0.1718874	0.09167328	8.21621772	-24.06996558
5.7	570	0.15	-0.012	-0.983	-0.0572958	-1.8907614	0.1718874	0.0572958	8.1932994	-24.07569516
5.71	571	0.145	-0.008	-0.975	-0.3437748	-1.9480572	0.0572958	0.0572958	8.17611066	-24.07569516
5.72	572	0.14	-0.007	-0.97	-0.6875496	-1.8334656	0	0.05156622	8.15319234	-24.07569516
5.73	573	0.137	-0.007	-0.968	-0.859437	-1.3178034	-0.0572958	0.04010706	8.14173318	-24.07569516
5.74	574	0.135	-0.011	-0.967	-0.8021412	-0.5156622	-0.1145916	0.03437748	8.1360036	-24.07569516
5.75	575	0.135	-0.016	-0.968	-0.572958	0	-0.3437748	0.00572958	8.0787078	-24.07569516
5.76	576	0.133	-0.023	-0.97	-0.5156622	0.286479	-0.5156622	0	8.08443738	-24.08142474
5.77	577	0.133	-0.027	-0.971	-0.4010706	0.2291832	-0.572958	0	8.08443738	-24.08715432
5.78	578	0.134	-0.029	-0.971	-0.4010706	0.4010706	-0.5156622	-0.00572958	8.09016696	-24.0928839
5.79	579	0.135	-0.028	-0.973	-0.5156622	0.4583664	-0.5156622	-0.01145916	8.09589654	-24.09861348
5.8	580	0.137	-0.028	-0.974	-0.286479	0.4583664	-0.4583664	0.03437748	8.03860074	-24.08142474
5.81	581	0.139	-0.029	-0.973	0.0572958	0.1145916	-0.4583664	0.03437748	8.03860074	-24.08715432
5.82	582	0.14	-0.03	-0.975	0.1145916	0	-0.5156622	0.03437748	8.03860074	-24.0928839
5.83	583	0.14	-0.031	-0.975	0.286479	-0.0572958	-0.6875496	0.04010706	8.03860074	-24.09861348
5.84	584	0.139	-0.035	-0.975	0.3437748	-0.1145916	-0.859437	0.04010706	8.03860074	-24.11007264
5.85	585	0.141	-0.038	-0.978	0.3437748	-0.1145916	-0.9167328	0.10313244	8.021412	-24.11007264
5.86	586	0.147	-0.041	-0.979	0.286479	0	-0.9740286	0.10313244	8.021412	-24.1215318
5.87	587	0.152	-0.042	-0.982	0.3437748	0	-0.859437	0.10313244	8.021412	-24.12726138
5.88	588	0.158	-0.04	-0.984	0.3437748	-0.1718874	-0.7448454	0.10886202	8.021412	-24.13872054
5.89	589	0.158	-0.037	-0.982	0.2291832	-0.286479	-0.7448454	0.10886202	8.021412	-24.14445012
5.9	590	0.155	-0.034	-0.983	0.1718874	-0.2291832	-0.859437	0.1432395	8.04433032	-24.15590928
5.91	591	0.153	-0.031	-0.983	0.0572958	0	-0.9740286	0.1432395	8.04433032	-24.16736844
5.92	592	0.152	-0.027	-0.984	0.0572958	0	-0.9740286	0.13750992	8.04433032	-24.17309802
5.93	593	0.152	-0.022	-0.986	0.0572958	-0.286479	-1.0886202	0.13750992	8.04433032	-24.18455718
5.94	594	0.15	-0.018	-0.984	0.286479	-0.4583664	-1.0313244	0.1432395	8.03860074	-24.19601634
5.95	595	0.152	-0.02	-0.982	0.5156622	-0.6875496	-0.9740286	0.13750992	8.04433032	-24.21320508
5.96	596	0.153	-0.021	-0.98	0.6302538	-0.7448454	-0.8021412	0.1432395	8.03287116	-24.21893466
5.97	597	0.155	-0.022	-0.978	0.6302538	-0.8021412	-0.5156622	0.14896908	8.02714158	-24.22466424
5.98	598	0.155	-0.023	-0.978	0.4583664	-0.7448454	-0.4010706	0.15469866	8.021412	-24.23039382
5.99	599	0.153	-0.021	-0.977	0.1718874	-0.7448454	-0.2291832	0.15469866	8.00995284	-24.23039382
6	600	0.151	-0.018	-0.978	0	-0.7448454	-0.1718874	0.12032118	8.021412	-24.24185298
6.01	601	0.147	-0.014	-0.98	-0.1145916	-0.6302538	-0.286479	0.12032118	8.01568242	-24.24185298
6.02	602	0.144	-0.01	-0.981	-0.0572958	-0.5156622	-0.286479	0.1145916	8.00995284	-24.24758256
6.03	603	0.143	-0.009	-0.98	0	-0.286479	-0.4583664	0.1145916	8.00422326	-24.25331214
6.04	604	0.142	-0.01	-0.981	0.1145916	-0.3437748	-0.572958	0.1145916	8.00422326	-24.25904172
6.05	605	0.142	-0.015	-0.981	0.2291832	-0.286479	-0.6302538	0.09167328	7.98130494	-24.2647713
6.06	606	0.144	-0.017	-0.982	0.286479	-0.286479	-0.6302538	0.09740286	7.98130494	-24.27050088
6.07	607	0.144	-0.02	-0.98	0.1145916	-0.4583664	-0.6302538	0.09740286	7.97557536	-24.28196004
6.08	608	0.145	-0.02	-0.977	0	-0.4010706	-0.6302538	0.09740286	7.96984578	-24.28768962
6.09	609	0.143	-0.02	-0.976	-0.0572958	-0.3437748	-0.6875496	0.09167328	7.96984578	-24.2934192
6.1	610	0.143	-0.021	-0.977	0.0572958	-0.286479	-0.859437	0.0859437	7.95265704	-24.29914878
6.11	611	0.141	-0.023	-0.977	0.1718874	-0.1718874	-0.9167328	0.0859437	7.94692746	-24.31060794
6.12	612	0.14	-0.024	-0.976	0.3437748	-0.4010706	-0.8021412	0.09167328	7.94692746	-24.31633752
6.13	613	0.142	-0.024	-0.977	0.4010706	-0.4583664	-0.6302538	0.09167328	7.94119788	-24.32779668
6.14	614	0.143	-0.027	-0.978	0.3437748	-0.2291832	-0.3437748	0.09740286	7.9354683	-24.32779668
6.15	615	0.148	-0.03	-0.978	0	0	0.3437748	0.16615782	7.96984578	-24.3220671
6.16	616	0.153	-0.032	-0.979	0.0572958	-0.1718874	0.4010706	0.16615782	7.96984578	-24.31633752
6.17	617	0.153	-0.034	-0.981	0.1718874	-0.1718874	0.4010706	0.1718874	7.9641162	-24.31633752
6.18	618	0.151	-0.035	-0.98	0.2291832	-0.2291832	0.2291832	0.1718874	7.9641162	-24.31060794
6.19	619	0.147	-0.035	-0.982	0.1145916	-0.1145916	0	0.17761698	7.9641162	-24.31060794
6.2	620	0.145	-0.034	-0.983	0.1145916	-0.1145916	0.0572958	0.286479	7.94119788	-24.2934192
6.21	621	0.145	-0.031	-0.978	-0.0572958	-0.3437748	0.0572958	0.286479	7.9354683	-24.2934192
6.22	622	0.145	-0.026	-0.976	-0.2291832	-0.286479	0.0572958	0.28074942	7.9354683	-24.2934192
6.23	623	0.144	-0.022	-0.978	-0.1718874	-0.0572958	0	0.28074942	7.92973872	-24.2934192
6.24	624	0.145	-0.02	-0.975	-0.1718874	0	0	0.28074942	7.92973872	-24.2934192
6.25	625	0.144	-0.019	-0.973	-0.3437748	0.286479	-0.1718874	0.24637194	7.92400914	-24.2934192
6.26	626	0.143	-0.02	-0.977	-0.4010706	0.2291832	-0.1145916	0.24064236	7.92973872	-24.29914878
6.27	627	0.147	-0.022	-0.98	-0.5156622	0.286479	-0.1145916	0.23491278	7.92973872	-24.29914878
6.28	628	0.151	-0.022	-0.98	-0.4010706	0.4010706	-0.0572958	0.2291832	7.9354683	-24.29914878
6.29	629	0.151	-0.024	-0.981	0	0.7448454	-0.0572958	0.2291832	7.94119788	-24.29914878
6.3	630	0.149	-0.025	-0.985	0.2291832	0.6875496	-0.1145916	0.2291832	7.95838662	-24.30487836
6.31	631	0.146	-0.026	-0.985	0.3437748	0.572958	-0.2291832	0.2291832	7.9641162	-24.30487836
6.32	632	0.144	-0.026	-0.983	0.4583664	0.286479	-0.1718874	0.23491278	7.9641162	-24.30487836
6.33	633	0.144	-0.025	-0.979	0.2291832	0.0572958	0	0.24064236	7.9641162	-24.30487836
6.34	634	0.144	-0.022	-0.976	0	0.1145916	0.0572958	0.24064236	7.96984578	-24.30487836
6.35	635	0.146	-0.018	-0.975	-0.1145916	0.0572958	0.2291832	0.19480572	7.97557536	-24.31060794
6.36	636	0.149	-0.013	-0.977	-0.1718874	0.4010706	0.1718874	0.19480572	7.98130494	-24.30487836
6.37	637	0.152	-0.01	-0.98	-0.2291832	0.5156622	0.0572958	0.18907614	7.98703452	-24.30487836
6.38	638	0.155	-0.009	-0.98	0	0.4010706	-0.0572958	0.18907614	7.9927641	-24.30487836
6.39	639	0.157	-0.011	-0.98	0.1718874	0.2291832	-0.2291832	0.19480572	7.9927641	-24.31060794
6.4	640	0.156	-0.016	-0.979	0.286479	0.0572958	-0.286479	0.16615782	8.03860074	-24.3220671
6.41	641	0.155	-0.02	-0.977	0.0572958	0	-0.2291832	0.16615782	8.03860074	-24.32779668
6.42	642	0.153	-0.024	-0.979	-0.1718874	-0.0572958	-0.286479	0.16615782	8.03860074	-24.32779668
6.43	643	0.15	-0.025	-0.981	-0.3437748	-0.0572958	-0.1718874	0.16042824	8.03860074	-24.33352626
6.44	644	0.148	-0.024	-0.982	-0.4010706	-0.2291832	-0.0572958	0.15469866	8.03860074	-24.33352626
6.45	645	0.146	-0.023	-0.98	-0.4583664	-0.1718874	0	0.13178034	8.02714158	-24.33352626
6.46	646	0.145	-0.021	-0.981	-0.4010706	-0.0572958	0.0572958	0.13178034	8.02714158	-24.33352626
6.47	647	0.145	-0.021	-0.982	-0.2291832	-0.1145916	0.1145916	0.12605076	8.02714158	-24.33352626
6.48	648	0.146	-0.022	-0.979	-0.1145916	-0.1718874	0.1145916	0.12605076	8.02714158	-24.32779668
6.49	649	0.145	-0.022	-0.978	-0.0572958	-0.2291832	0.1145916	0.12605076	8.021412	-24.32779668
6.5	650	0.145	-0.023	-0.975	-0.1145916	-0.1145916	0.1718874	0.12605076	8.021412	-24.32779668
6.51	651	0.145	-0.025	-0.974	-0.0572958	-0.2291832	0.1718874	0.12032118	8.021412	-24.32779668
6.52	652	0.145	-0.026	-0.974	-0.1145916	0	0.1718874	0.12032118	8.021412	-24.3220671
6.53	653	0.146	-0.027	-0.976	-0.1718874	0.286479	0.2291832	0.12032118	8.021412	-24.3220671
6.54	654	0.147	-0.027	-0.978	-0.1718874	0.286479	0.2291832	0.12032118	8.02714158	-24.31633752
6.55	655	0.147	-0.027	-0.979	-0.2291832	0.1145916	0.3437748	0.13750992	8.02714158	-24.31060794
6.56	656	0.146	-0.027	-0.982	-0.0572958	0	0.3437748	0.13750992	8.02714158	-24.31060794
6.57	657	0.147	-0.026	-0.985	0	-0.0572958	0.4583664	0.13750992	8.02714158	-24.30487836
6.58	658	0.149	-0.025	-0.985	-0.0572958	0	0.4010706	0.13750992	8.02714158	-24.29914878
6.59	659	0.151	-0.024	-0.984	0	0.0572958	0.3437748	0.13750992	8.02714158	-24.2934192
6.6	660	0.151	-0.024	-0.982	0.1145916	-0.0572958	0.286479	0.13750992	8.04433032	-24.2934192
6.61	661	0.153	-0.025	-0.98	0.1145916	-0.0572958	0.2291832	0.13750992	8.04433032	-24.2934192
6.62	662	0.154	-0.024	-0.979	0	-0.286479	0.2291832	0.13750992	8.04433032	-24.28768962
6.63	663	0.155	-0.022	-0.978	-0.2291832	-0.5156622	0.286479	0.13750992	8.03860074	-24.28768962
6.64	664	0.154	-0.019	-0.98	-0.4010706	-0.6302538	0.4010706	0.13178034	8.02714158	-24.28196004
6.65	665	0.153	-0.016	-0.981	-0.4010706	-0.7448454	0.4010706	0.1145916	8.03287116	-24.28196004
6.66	666	0.151	-0.013	-0.98	-0.3437748	-0.6302538	0.1145916	0.10886202	8.02714158	-24.28196004
6.67	667	0.149	-0.012	-0.977	-0.286479	-0.572958	-0.0572958	0.10886202	8.021412	-24.28196004
6.68	668	0.148	-0.012	-0.976	-0.2291832	-0.3437748	-0.2291832	0.10313244	8.01568242	-24.28196004
6.69	669	0.146	-0.013	-0.976	-0.1145916	-0.3437748	-0.286479	0.10313244	8.01568242	-24.28768962
6.7	670	0.146	-0.013	-0.978	-0.1145916	-0.286479	-0.286479	0.03437748	8.00995284	-24.29914878
6.71	671	0.147	-0.013	-0.977	-0.0572958	-0.286479	-0.1718874	0.03437748	8.00422326	-24.29914878
6.72	672	0.148	-0.013	-0.977	0	-0.2291832	-0.1718874	0.03437748	8.00422326	-24.30487836
6.73	673	0.146	-0.015	-0.977	0.0572958	-0.0572958	-0.2291832	0.03437748	7.99849368	-24.30487836
6.74	674	0.145	-0.017	-0.978	0.1718874	-0.0572958	-0.286479	0.03437748	7.99849368	-24.31060794
6.75	675	0.144	-0.019	-0.979	0.2291832	-0.0572958	-0.2291832	0.02291832	7.98703452	-24.31060794
6.76	676	0.143	-0.019	-0.981	0.1718874	0	-0.1718874	0.02291832	7.98703452	-24.31633752
6.77	677	0.146	-0.019	-0.983	0.1718874	0.2291832	-0.1145916	0.0286479	7.9927641	-24.31633752
6.78	678	0.148	-0.02	-0.984	0.286479	0.1145916	0	0.0286479	7.9927641	-24.31633752
6.79	679	0.15	-0.02	-0.982	0.4010706	0.1718874	0	0.03437748	7.9927641	-24.31633752
6.8	680	0.15	-0.021	-0.983	0.5156622	0.0572958	0	0.04010706	8.00995284	-24.31633752
6.81	681	0.149	-0.024	-0.983	0.5156622	0	-0.1145916	0.04583664	8.00995284	-24.31633752
6.82	682	0.147	-0.024	-0.983	0.572958	-0.1145916	-0.2291832	0.05156622	8.00995284	-24.3220671
6.83	683	0.145	-0.024	-0.983	0.5156622	-0.0572958	-0.3437748	0.0572958	8.00995284	-24.3220671
6.84	684	0.145	-0.022	-0.984	0.4583664	-0.0572958	-0.3437748	0.06302538	8.00422326	-24.32779668
6.85	685	0.145	-0.021	-0.981	0.572958	-0.0572958	-0.286479	0.0572958	7.99849368	-24.33352626
6.86	686	0.143	-0.021	-0.98	0.572958	0	-0.2291832	0.06302538	7.99849368	-24.33352626
6.87	687	0.14	-0.019	-0.981	0.4583664	0.1145916	-0.3437748	0.06875496	7.99849368	-24.33925584
6.88	688	0.139	-0.018	-0.981	0.572958	0.1718874	-0.3437748	0.07448454	7.99849368	-24.34498542
6.89	689	0.14	-0.019	-0.979	0.6302538	0.4583664	-0.3437748	0.08021412	8.00422326	-24.34498542
6.9	690	0.14	-0.018	-0.978	0.572958	0.6875496	-0.2291832	0.08021412	8.00422326	-24.350715
6.91	691	0.144	-0.018	-0.975	0.6302538	0.7448454	-0.286479	0.0859437	8.00995284	-24.350715
6.92	692	0.148	-0.018	-0.974	0.7448454	0.6875496	-0.286479	0.09167328	8.01568242	-24.35644458
6.93	693	0.151	-0.018	-0.975	0.8021412	0.5156622	-0.5156622	0.09740286	8.021412	-24.36217416
6.94	694	0.155	-0.02	-0.976	0.9740286	0.286479	-0.572958	0.10886202	8.02714158	-24.36790374
