TimeStamp(s)	FrameCounter	AccX	AccY	AccZ	GyrX	GyrY	GyrZ	EulerX	EulerY	EulerZ
0.01	1	0.03	-1.004	0.008	-2.291832	0.1145916	-0.6875496	85.49106318	2.79603504	-48.08836494
0.02	2	0.032	-1.005	0.008	-2.291832	0.1145916	-0.6875496	85.46814486	2.80176462	-48.08836494
0.03	3	0.03	-1.004	0.01	-2.3491278	-0.2291832	-0.6875496	85.43949696	2.8074942	-48.08836494
0.04	4	0.027	-1.003	0.01	-2.1772404	-0.3437748	-0.572958	85.41657864	2.81322378	-48.09409452
0.05	5	0.028	-1.004	0.007	-2.0626488	-0.286479	-0.572958	85.5426294	2.79603504	-48.03679872
0.06	6	0.03	-1.007	0.002	-2.0626488	-0.1718874	-0.5156622	85.51971108	2.80176462	-48.03679872
0.07	7	0.031	-1.009	0.001	-2.1199446	-0.1718874	-0.5156622	85.49679276	2.80176462	-48.0425283
0.08	8	0.032	-1.012	0.006	-2.291832	-0.572958	-0.5156622	85.47387444	2.8074942	-48.04825788
0.09	9	0.032	-1.012	0.002	-2.2345362	-0.6875496	-0.4583664	85.45095612	2.81322378	-48.05398746
0.1	10	0.033	-1.014	0.001	-2.291832	-0.6302538	-0.5156622	85.53689982	2.80176462	-48.0138804
0.11	11	0.032	-1.013	0	-2.4064236	-0.8021412	-0.5156622	85.50825192	2.8074942	-48.02533956
0.12	12	0.031	-1.014	0	-2.578311	-0.9167328	-0.572958	85.4853336	2.81322378	-48.03679872
0.13	13	0.029	-1.014	0	-2.6929026	-0.9167328	-0.5156622	85.4566857	2.81895336	-48.0425283
0.14	14	0.029	-1.012	0	-2.8074942	-0.9167328	-0.5156622	85.4280378	2.81895336	-48.05398746
0.15	15	0.027	-1.01	0.002	-2.9793816	-1.0313244	-0.4583664	85.47387444	2.8074942	-48.03106914
0.16	16	0.025	-1.005	0.002	-3.0366774	-1.2032118	-0.3437748	85.44522654	2.8074942	-48.0425283
0.17	17	0.025	-1.002	0.001	-2.7501984	-0.9740286	-0.3437748	85.41657864	2.81322378	-48.05398746
0.18	18	0.026	-1.002	0.002	-2.86479	-0.7448454	-0.286479	85.38793074	2.81322378	-48.06544662
0.19	19	0.028	-1.003	0	-2.9793816	-0.5156622	-0.2291832	85.35355326	2.81895336	-48.0711762
0.2	20	0.028	-1.003	0.004	-3.0939732	-0.3437748	-0.1145916	85.43376738	2.79603504	-48.02533956
0.21	21	0.029	-1.003	0.002	-3.0366774	-0.1718874	-0.0572958	85.40511948	2.79603504	-48.02533956
0.22	22	0.03	-1.003	0.003	-2.8074942	-0.1145916	0	85.37647158	2.79603504	-48.03106914
0.23	23	0.03	-1.003	0.007	-2.7501984	-0.1718874	0	85.34782368	2.79603504	-48.03106914
0.24	24	0.029	-1.001	0.006	-2.5210152	-0.3437748	0.0572958	85.31917578	2.79603504	-48.03679872
0.25	25	0.027	-1.001	0.008	-2.3491278	-0.4583664	0.0572958	85.44522654	2.76165756	-47.97950292
0.26	26	0.026	-1.003	0.007	-2.0626488	-0.6302538	0.1718874	85.42230822	2.76165756	-47.9852325
0.27	27	0.023	-1.005	0.004	-1.8334656	-0.6875496	0.1718874	85.40511948	2.75592798	-47.99096208
0.28	28	0.024	-1.006	0.004	-1.8334656	-0.4583664	0.1718874	85.38220116	2.75592798	-47.99669166
0.29	29	0.025	-1.005	0.004	-1.8334656	-0.5156622	0.2291832	85.36501242	2.75592798	-48.00242124
0.3	30	0.025	-1.005	0.008	-1.9480572	-0.6302538	0.1718874	85.49106318	2.71582092	-47.95085502
0.31	31	0.024	-1.003	0.005	-1.8334656	-0.5156622	0.2291832	85.46814486	2.71582092	-47.9565846
0.32	32	0.025	-1.003	0.004	-1.432395	-0.286479	0.1718874	85.4566857	2.71009134	-47.9565846
0.33	33	0.024	-1.005	0.004	-1.4896908	-0.0572958	0.0572958	85.43949696	2.71009134	-47.9565846
0.34	34	0.025	-1.007	0.004	-1.3178034	0.1145916	0.0572958	85.4280378	2.71009134	-47.9565846
0.35	35	0.026	-1.008	0.002	-1.3178034	0.2291832	0	85.5999252	2.66998428	-47.87637048
0.36	36	0.025	-1.008	0.001	-1.3178034	0.2291832	0.0572958	85.58273646	2.6642547	-47.87637048
0.37	37	0.025	-1.008	0.008	-1.6042824	0.0572958	0	85.56554772	2.6642547	-47.87637048
0.38	38	0.024	-1.005	0.006	-1.6042824	0.1718874	0	85.55408856	2.6642547	-47.8706409
0.39	39	0.023	-1.01	0.004	-1.6042824	0.3437748	-0.1145916	85.53689982	2.66998428	-47.8706409
0.4	40	0.023	-1.013	0.003	-1.7761698	0.1145916	-0.2291832	85.67440974	2.62987722	-47.80188594
0.41	41	0.022	-1.015	0.002	-2.005353	0.1718874	-0.2291832	85.657221	2.62987722	-47.80188594
0.42	42	0.021	-1.015	0.001	-2.0626488	0.4583664	-0.4583664	85.63430268	2.6356068	-47.79615636
0.43	43	0.02	-1.015	0	-2.1772404	0.9167328	-0.6302538	85.61138436	2.64133638	-47.7846972
0.44	44	0.02	-1.013	0	-2.3491278	1.2605076	-0.8021412	85.58846604	2.65279554	-47.77323804
0.45	45	0.021	-1.011	0.002	-2.4637194	1.0886202	-0.9740286	85.64003226	2.6356068	-47.73313098
0.46	46	0.021	-1.01	-0.003	-2.3491278	0.6875496	-1.0313244	85.61711394	2.64706596	-47.7274014
0.47	47	0.022	-1.007	-0.002	-2.2345362	0.4583664	-1.0313244	85.59419562	2.65852512	-47.72167182
0.48	48	0.025	-1.005	-0.002	-2.3491278	0.1718874	-0.859437	85.5712773	2.6642547	-47.72167182
0.49	49	0.028	-1.007	-0.003	-2.291832	-0.1145916	-0.6302538	85.54835898	2.66998428	-47.7274014
0.5	50	0.03	-1.007	-0.001	-2.3491278	-0.6302538	-0.4010706	85.61711394	2.65852512	-47.69302392
0.51	51	0.03	-1.006	0.001	-2.291832	-0.9740286	-0.1718874	85.58846604	2.65852512	-47.70448308
0.52	52	0.028	-1.004	0.004	-2.1199446	-1.3178034	-0.0572958	85.5712773	2.65852512	-47.72167182
0.53	53	0.025	-1.004	0.003	-2.005353	-1.3750992	-0.1145916	85.54835898	2.65852512	-47.73313098
0.54	54	0.023	-1.003	0.006	-2.0626488	-1.3750992	-0.286479	85.52544066	2.6642547	-47.75031972
0.55	55	0.019	-1.001	0.008	-2.005353	-1.5469866	-0.3437748	85.5999252	2.6356068	-47.7274014
0.56	56	0.017	-1	0.003	-1.7761698	-1.432395	-0.572958	85.57700688	2.64133638	-47.73886056
0.57	57	0.014	-1.001	0.005	-1.7761698	-1.0313244	-0.6875496	85.55981814	2.64706596	-47.75031972
0.58	58	0.016	-1.003	0.003	-1.5469866	-0.6302538	-0.6302538	85.5426294	2.65279554	-47.76177888
0.59	59	0.018	-1.005	0.002	-1.3750992	-0.3437748	-0.3437748	85.53117024	2.65279554	-47.76177888
0.6	60	0.018	-1.005	0	-1.2032118	-0.2291832	-0.1718874	85.7431647	2.57258142	-47.67583518
0.61	61	0.02	-1.004	-0.002	-0.9740286	-0.0572958	-0.1145916	85.73170554	2.57258142	-47.68156476
0.62	62	0.02	-1.003	-0.004	-0.859437	-0.0572958	-0.1145916	85.72597596	2.57258142	-47.68156476
0.63	63	0.02	-1.003	-0.001	-0.859437	-0.1145916	-0.286479	85.7145168	2.578311	-47.68156476
0.64	64	0.019	-1.006	-0.001	-0.8021412	-0.1145916	-0.286479	85.70305764	2.578311	-47.68156476
0.65	65	0.02	-1.007	0.001	-0.572958	0	-0.4010706	86.01245496	2.4923673	-47.56124358
0.66	66	0.021	-1.007	0	-0.4583664	0.0572958	-0.3437748	86.01245496	2.49809688	-47.56124358
0.67	67	0.023	-1.006	-0.002	-0.6875496	0.286479	-0.4010706	86.0009958	2.49809688	-47.555514
0.68	68	0.024	-1.008	-0.002	-0.8021412	0.0572958	-0.4010706	85.99526622	2.50382646	-47.555514
0.69	69	0.025	-1.008	-0.002	-1.2032118	-0.1718874	-0.4583664	85.98380706	2.50955604	-47.56124358
0.7	70	0.024	-1.009	-0.001	-1.432395	-0.572958	-0.4010706	86.06402118	2.48663772	-47.5268661
0.71	71	0.024	-1.01	0	-1.4896908	-0.8021412	-0.4010706	86.04683244	2.48663772	-47.53832526
0.72	72	0.023	-1.013	0.003	-1.5469866	-0.5156622	-0.4010706	86.03537328	2.4923673	-47.54405484
0.73	73	0.023	-1.013	0	-1.5469866	-0.4583664	-0.286479	86.01818454	2.49809688	-47.54978442
0.74	74	0.022	-1.013	0	-1.432395	-0.2291832	-0.3437748	86.0009958	2.49809688	-47.54978442
0.75	75	0.021	-1.011	-0.001	-1.6615782	-0.1145916	-0.4583664	86.0869395	2.4637194	-47.51540694
0.76	76	0.021	-1.01	0	-1.6615782	-0.2291832	-0.6302538	86.06402118	2.47517856	-47.51540694
0.77	77	0.021	-1.008	-0.002	-1.7761698	-0.3437748	-0.6875496	86.04683244	2.48090814	-47.52113652
0.78	78	0.021	-1.007	-0.002	-1.8334656	-0.4010706	-0.8021412	86.0296437	2.48663772	-47.5268661
0.79	79	0.02	-1.004	-0.001	-1.7761698	-0.5156622	-0.8021412	86.01245496	2.49809688	-47.53259568
0.8	80	0.019	-1.004	-0.002	-1.7761698	-0.572958	-0.9167328	86.06402118	2.47517856	-47.51540694
0.81	81	0.019	-1.002	-0.001	-1.6615782	-0.6875496	-0.9167328	86.04683244	2.48663772	-47.52113652
0.82	82	0.019	-1.003	0	-1.5469866	-0.4010706	-0.9167328	86.0296437	2.4923673	-47.5268661
0.83	83	0.019	-1.003	0.002	-1.6042824	-0.1718874	-0.9167328	86.01245496	2.50382646	-47.5268661
0.84	84	0.02	-1.003	0.003	-1.6615782	-0.1145916	-0.859437	85.99526622	2.51528562	-47.53259568
0.85	85	0.021	-1.003	0.004	-1.8334656	-0.3437748	-0.8021412	86.06975076	2.4923673	-47.50394778
0.86	86	0.02	-1.003	0	-1.8334656	-0.6302538	-0.7448454	86.04683244	2.49809688	-47.50967736
0.87	87	0.022	-1.006	0.001	-1.8334656	-0.859437	-0.6302538	86.0296437	2.50382646	-47.52113652
0.88	88	0.025	-1.007	-0.001	-1.8334656	-1.0886202	-0.4583664	86.01245496	2.50955604	-47.53259568
0.89	89	0.025	-1.008	0	-1.718874	-1.3178034	-0.4583664	85.99526622	2.51528562	-47.54405484
0.9	90	0.025	-1.006	0.003	-1.6042824	-1.6615782	-0.4010706	86.04683244	2.49809688	-47.53259568
0.91	91	0.022	-1.006	0.001	-1.432395	-1.6615782	-0.572958	86.03537328	2.50382646	-47.54978442
0.92	92	0.02	-1.005	0.003	-1.3178034	-1.3750992	-0.6302538	86.01818454	2.50955604	-47.56697316
0.93	93	0.017	-1.007	0	-1.3178034	-1.145916	-0.6875496	86.00672538	2.51528562	-47.57843232
0.94	94	0.016	-1.008	-0.001	-1.2605076	-0.9167328	-0.6875496	85.98953664	2.52674478	-47.58989148
0.95	95	0.015	-1.009	0	-1.3178034	-0.8021412	-0.6302538	86.07548034	2.48663772	-47.56124358
0.96	96	0.016	-1.009	0	-1.432395	-0.7448454	-0.572958	86.0582916	2.4923673	-47.56697316
0.97	97	0.018	-1.009	0.007	-1.6615782	-0.5156622	-0.5156622	86.04110286	2.49809688	-47.57270274
0.98	98	0.019	-1.012	0.003	-1.8907614	-0.572958	-0.5156622	86.01818454	2.50382646	-47.5841619
0.99	99	0.019	-1.012	0.002	-1.8907614	-0.3437748	-0.6302538	86.0009958	2.50955604	-47.5841619
1	100	0.022	-1.01	0.001	-1.9480572	-0.2291832	-0.6302538	86.06975076	2.48663772	-47.555514
1.01	101	0.023	-1.01	-0.001	-1.8334656	-0.1718874	-0.6875496	86.05256202	2.49809688	-47.56124358
1.02	102	0.023	-1.01	-0.001	-1.8334656	0	-0.859437	86.0296437	2.50382646	-47.56124358
1.03	103	0.024	-1.01	0	-1.8334656	-0.1145916	-1.0313244	86.01245496	2.51528562	-47.56124358
1.04	104	0.023	-1.008	-0.003	-1.7761698	-0.3437748	-1.145916	85.99526622	2.52674478	-47.56697316
1.05	105	0.026	-1.005	-0.001	-1.6615782	-0.572958	-1.145916	86.04683244	2.5210152	-47.54978442
1.06	106	0.024	-1.005	-0.005	-1.6615782	-0.9167328	-1.0886202	86.0296437	2.53247436	-47.56124358
1.07	107	0.022	-1.006	-0.001	-1.6615782	-1.3178034	-1.0886202	86.01245496	2.54393352	-47.57270274
1.08	108	0.021	-1.008	-0.002	-1.8907614	-1.7761698	-1.0313244	85.99526622	2.5496631	-47.58989148
1.09	109	0.02	-1.005	-0.002	-1.8334656	-1.718874	-0.859437	85.9723479	2.56112226	-47.6128098
1.1	110	0.021	-1.007	0.001	-1.718874	-1.5469866	-0.9740286	86.01818454	2.54393352	-47.60135064
1.11	111	0.021	-1.005	0.005	-1.6615782	-1.6042824	-0.8021412	86.0009958	2.55539268	-47.61853938
1.12	112	0.021	-1.003	0.008	-1.5469866	-1.432395	-0.8021412	85.98380706	2.56112226	-47.63572812
1.13	113	0.02	-1.003	0.003	-1.0886202	-1.0313244	-0.8021412	85.9723479	2.56685184	-47.64718728
1.14	114	0.02	-1.003	0	-0.9167328	-0.7448454	-0.859437	85.96088874	2.578311	-47.65291686
1.15	115	0.018	-1.004	-0.002	-0.9167328	-0.6302538	-0.859437	86.04683244	2.54393352	-47.62999854
1.16	116	0.017	-1.005	0	-0.9740286	-0.572958	-0.9167328	86.04110286	2.5496631	-47.63572812
1.17	117	0.017	-1.004	0.001	-0.9740286	-0.6302538	-0.8021412	86.0296437	2.56112226	-47.6414577
1.18	118	0.018	-1.003	-0.002	-0.6875496	-0.5156622	-0.9167328	86.01818454	2.56685184	-47.64718728
1.19	119	0.018	-1.004	-0.002	-0.572958	-0.572958	-0.859437	86.01245496	2.578311	-47.65291686
1.2	120	0.018	-1.004	0	-0.6302538	-0.7448454	-0.859437	86.1155874	2.54393352	-47.62426896
1.21	121	0.018	-1.004	0	-0.7448454	-0.572958	-0.859437	86.10412824	2.5496631	-47.62999854
1.22	122	0.02	-1.005	0	-0.7448454	-0.6875496	-0.859437	86.09839866	2.56112226	-47.6414577
1.23	123	0.019	-1.006	-0.003	-0.6875496	-0.5156622	-0.859437	86.0869395	2.56685184	-47.64718728
1.24	124	0.02	-1.006	-0.001	-0.8021412	-0.2291832	-1.0313244	86.08120992	2.578311	-47.64718728
1.25	125	0.022	-1.005	-0.003	-0.8021412	-0.4010706	-1.0313244	86.16715362	2.5496631	-47.61853938
1.26	126	0.021	-1.007	-0.003	-0.6875496	-0.4010706	-1.0886202	86.15569446	2.56112226	-47.62426896
1.27	127	0.022	-1.009	-0.002	-0.8021412	-0.4583664	-1.0886202	86.14996488	2.57258142	-47.62999854
1.28	128	0.02	-1.011	-0.004	-0.8021412	-0.5156622	-1.0886202	86.13850572	2.58404058	-47.63572812
1.29	129	0.02	-1.016	-0.002	-0.859437	-0.5156622	-1.0886202	86.13277614	2.58977016	-47.64718728
1.3	130	0.019	-1.017	-0.002	-1.0886202	-0.4010706	-1.0886202	86.19580152	2.56685184	-47.62426896
1.31	131	0.021	-1.017	0	-1.2605076	-0.4010706	-0.9740286	86.18434236	2.578311	-47.62426896
1.32	132	0.023	-1.015	0	-1.3750992	-0.286479	-0.859437	86.1728832	2.58404058	-47.62999854
1.33	133	0.024	-1.012	0.003	-1.3178034	-0.0572958	-0.8021412	86.15569446	2.58977016	-47.62999854
1.34	134	0.025	-1.01	0.003	-1.4896908	0.1145916	-0.8021412	86.13850572	2.60122932	-47.62999854
1.35	135	0.024	-1.006	0	-1.432395	0.3437748	-0.8021412	86.21871984	2.578311	-47.59562106
1.36	136	0.024	-1.006	0.002	-1.4896908	0.5156622	-0.859437	86.2015311	2.58977016	-47.59562106
1.37	137	0.023	-1.004	0.001	-1.6615782	0.3437748	-0.9167328	86.18434236	2.59549974	-47.58989148
1.38	138	0.022	-1.002	-0.001	-1.6615782	0.5156622	-0.9167328	86.16715362	2.6069589	-47.5841619
1.39	139	0.023	-1.003	0	-1.432395	0.4583664	-1.0313244	86.14996488	2.61841806	-47.57843232
1.4	140	0.021	-1.003	0.002	-1.3750992	0.4583664	-1.0313244	86.230179	2.59549974	-47.54978442
1.41	141	0.02	-1.004	0.002	-1.0886202	0.3437748	-0.9740286	86.21871984	2.60122932	-47.54405484
1.42	142	0.019	-1.005	0.002	-1.0313244	0.286479	-0.9167328	86.20726068	2.61268848	-47.54405484
1.43	143	0.022	-1.004	0.002	-1.0313244	0.2291832	-0.8021412	86.19580152	2.61841806	-47.53832526
1.44	144	0.023	-1.002	0.005	-0.9740286	0.1145916	-0.6302538	86.18434236	2.62987722	-47.53832526
1.45	145	0.024	-1	0.003	-0.7448454	0	-0.6302538	86.33904102	2.58404058	-47.48675904
1.46	146	0.024	-0.999	0.006	-0.4583664	0.4010706	-0.6875496	86.33904102	2.58977016	-47.48102946
1.47	147	0.023	-1	0.004	-0.3437748	0.4583664	-0.7448454	86.33331144	2.59549974	-47.47529988
1.48	148	0.023	-1.002	0.003	-0.0572958	0.5156622	-0.8021412	86.33331144	2.6069589	-47.4695703
1.49	149	0.023	-1.006	0.007	0.0572958	0.4583664	-0.859437	86.33331144	2.61268848	-47.4695703
1.5	150	0.021	-1.008	0.006	0	0.286479	-0.859437	86.52238758	2.5496631	-47.40081534
1.51	151	0.019	-1.01	0.009	0.0572958	0.286479	-0.7448454	86.52811716	2.56112226	-47.40081534
1.52	152	0.018	-1.011	0.009	0.0572958	0.1718874	-0.7448454	86.52811716	2.56685184	-47.39508576
1.53	153	0.018	-1.012	0.002	0.1145916	0.1145916	-0.6302538	86.52811716	2.57258142	-47.39508576
1.54	154	0.021	-1.017	0	0	0.1718874	-0.6875496	86.52811716	2.58404058	-47.39508576
1.55	155	0.023	-1.017	-0.002	-0.1718874	0.1145916	-0.572958	86.67135666	2.5210152	-47.34351954
1.56	156	0.023	-1.016	0	-0.1718874	0.0572958	-0.572958	86.67135666	2.52674478	-47.34351954
1.57	157	0.022	-1.014	0.002	-0.4010706	-0.286479	-0.6875496	86.66562708	2.53247436	-47.34924912
1.58	158	0.022	-1.014	0.001	-0.5156622	-0.1145916	-0.6875496	86.6598975	2.53820394	-47.34924912
1.59	159	0.021	-1.012	0.002	-0.5156622	0.0572958	-0.859437	86.65416792	2.5496631	-47.34924912
1.6	160	0.022	-1.01	0.002	-0.5156622	0.0572958	-0.859437	86.75730036	2.51528562	-47.31487164
1.61	161	0.023	-1.013	0.003	-0.6875496	-0.1145916	-0.859437	86.75157078	2.5210152	-47.31487164
1.62	162	0.024	-1.013	0.001	-0.9740286	-0.572958	-0.859437	86.74011162	2.53247436	-47.32060122
1.63	163	0.025	-1.01	-0.001	-0.9167328	-0.6302538	-0.6875496	86.73438204	2.53820394	-47.33206038
1.64	164	0.025	-1.007	0	-0.9167328	-0.7448454	-0.5156622	86.72292288	2.54393352	-47.33778996
1.65	165	0.026	-1.007	0.001	-0.859437	-0.9740286	-0.3437748	86.79167784	2.5210152	-47.3263308
1.66	166	0.024	-1.007	0.005	-0.8021412	-1.2032118	-0.2291832	86.78021868	2.5210152	-47.33778996
1.67	167	0.021	-1.006	0.009	-0.9167328	-1.2032118	-0.0572958	86.7744891	2.5210152	-47.34924912
1.68	168	0.019	-1.004	0.008	-0.8021412	-0.9167328	0	86.76302994	2.5210152	-47.36070828
1.69	169	0.017	-1.004	0.009	-0.8021412	-0.7448454	-0.1145916	86.75730036	2.5210152	-47.36643786
1.7	170	0.013	-1.002	0.005	-0.7448454	-0.4010706	-0.3437748	86.87189196	2.45226024	-47.33206038
1.71	171	0.015	-1	0.006	-0.572958	-0.286479	-0.572958	86.86616238	2.45798982	-47.33206038
1.72	172	0.016	-0.997	0.007	-0.4583664	-0.3437748	-0.5156622	86.8604328	2.45798982	-47.33778996
1.73	173	0.015	-0.995	0.009	-0.4010706	-0.6875496	-0.5156622	86.8604328	2.4637194	-47.34351954
1.74	174	0.016	-0.994	0.005	-0.4010706	-0.7448454	-0.4583664	86.85470322	2.46944898	-47.3549787
1.75	175	0.018	-0.995	0.002	-0.1718874	-0.572958	-0.4583664	86.96356524	2.41788276	-47.32060122
1.76	176	0.021	-0.998	0.002	0	-0.5156622	-0.4010706	86.96929482	2.42361234	-47.3263308
1.77	177	0.022	-1.003	0	0.1145916	-0.3437748	-0.3437748	86.96929482	2.42361234	-47.33206038
1.78	178	0.023	-1.004	0	0.1718874	-0.4010706	-0.4010706	86.96929482	2.42934192	-47.33778996
1.79	179	0.021	-1.005	0.003	0.1145916	-0.3437748	-0.4583664	86.96929482	2.4350715	-47.34351954
1.8	180	0.02	-1.007	0.006	0	-0.4010706	-0.5156622	87.11253432	2.37204612	-47.30341248
1.81	181	0.016	-1.006	0.008	0	-0.4010706	-0.6875496	87.11253432	2.3777757	-47.30341248
1.82	182	0.014	-1.007	0.008	0.0572958	-0.2291832	-0.8021412	87.11253432	2.38923486	-47.30914206
1.83	183	0.014	-1.011	0.01	0	-0.1145916	-0.9167328	87.11253432	2.39496444	-47.30914206
1.84	184	0.014	-1.012	0.011	-0.1718874	-0.1718874	-0.859437	87.11253432	2.4064236	-47.31487164
1.85	185	0.012	-1.011	0.012	-0.286479	-0.4010706	-0.6875496	87.25004424	2.33766864	-47.27476458
1.86	186	0.01	-1.01	0.01	-0.6875496	-0.4583664	-0.4010706	87.24431466	2.33766864	-47.28049416
1.87	187	0.008	-1.013	0.009	-1.2605076	-0.5156622	-0.0572958	87.22712592	2.33766864	-47.28622374
1.88	188	0.012	-1.015	0.012	-2.005353	-0.3437748	0.1145916	87.20993718	2.33766864	-47.28622374
1.89	189	0.018	-1.017	0.024	-2.578311	-0.5156622	0.1145916	87.18128928	2.33766864	-47.29195332
1.9	190	0.025	-1.015	0.039	-2.86479	-1.2032118	-0.1718874	87.22139634	2.33193906	-47.28622374
1.91	191	0.029	-1.013	0.04	-3.0939732	-0.9167328	-0.7448454	87.18701886	2.33766864	-47.2976829
1.92	192	0.03	-1.014	0.043	-3.4950438	-0.4010706	-1.2605076	87.15264138	2.3491278	-47.30341248
1.93	193	0.026	-1.014	0.045	-4.4690724	-0.9167328	-1.3178034	87.10680474	2.36058696	-47.31487164
1.94	194	0.019	-1.012	0.054	-5.7868758	-2.1772404	-0.859437	87.04377936	2.37204612	-47.33778996
1.95	195	0.011	-1.011	0.058	-6.589017	-2.7501984	-0.572958	87.01513146	2.36631654	-47.3549787
1.96	196	0.01	-1.024	0.054	-7.6776372	-3.6096354	-0.4010706	86.93491734	2.36631654	-47.38935618
1.97	197	0.013	-1.041	0.06	-9.0527364	-5.5576926	0	86.84324406	2.36631654	-47.44665198
1.98	198	0.019	-1.049	0.055	-9.9121734	-6.5317212	0.572958	86.74011162	2.35485738	-47.51540694
1.99	199	0.022	-1.058	0.067	-9.9121734	-6.6463128	0.572958	86.63697918	2.3491278	-47.57843232
2	200	0.024	-1.07	0.065	-11.2872726	-6.1879464	0.1718874	86.53957632	2.33766864	-47.63572812
2.01	201	0.027	-1.08	0.061	-13.178034	-5.5576926	-0.6302538	86.40779598	2.34339822	-47.69302392
2.02	202	0.02	-1.087	0.06	-16.7876694	-4.9847346	-1.8907614	86.23590858	2.36058696	-47.74459014
2.03	203	0.012	-1.088	0.052	-19.480572	-4.4690724	-3.0939732	86.03537328	2.38350528	-47.79615636
2.04	204	0.004	-1.093	0.049	-21.7151082	-3.6669312	-4.1252976	85.81191966	2.42361234	-47.83626342
2.05	205	-0.004	-1.091	0.056	-24.2361234	-2.7501984	-5.156622	85.57700688	2.4637194	-47.86491132
2.06	206	-0.008	-1.086	0.064	-26.4133638	-1.4896908	-5.9014674	85.30771662	2.5210152	-47.88782964
2.07	207	-0.011	-1.078	0.073	-28.4760126	0.0572958	-6.3598338	85.02123762	2.58404058	-47.89355922
2.08	208	-0.014	-1.064	0.066	-30.080295	1.8907614	-6.589017	84.7118403	2.64706596	-47.88782964
2.09	209	-0.016	-1.06	0.057	-30.939732	3.5523396	-6.589017	84.40244298	2.71009134	-47.85918174
2.1	210	-0.014	-1.054	0.055	-32.7159018	4.4690724	-5.9587632	84.0815865	2.76165756	-47.81907468
2.11	211	-0.015	-1.043	0.031	-33.7472262	5.2712136	-5.7868758	83.74354128	2.82468294	-47.77896762
2.12	212	-0.014	-1.041	0.024	-34.7785506	6.3598338	-6.0733548	83.38830732	2.88197874	-47.72167182
2.13	213	-0.009	-1.033	0.03	-36.382833	6.8182002	-6.7036086	83.0216142	2.95646328	-47.6701056
2.14	214	-0.002	-1.026	0.025	-37.815228	7.1046792	-7.3338624	82.63773234	3.03094782	-47.6128098
2.15	215	0.006	-1.026	0.005	-39.3622146	7.448454	-7.7922288	82.25385048	3.10543236	-47.54978442
2.16	216	0.015	-1.028	0.006	-41.0237928	7.9641162	-7.9068204	81.83559114	3.19137606	-47.48675904
2.17	217	0.018	-1.024	-0.002	-42.4561878	8.0787078	-7.6203414	81.41160222	3.27159018	-47.41800408
2.18	218	0.015	-1.023	-0.015	-43.544808	9.2246238	-7.448454	80.97042456	3.3518043	-47.34351954
2.19	219	0.015	-1.032	-0.031	-44.690724	9.8548776	-7.3338624	80.51778774	3.43201842	-47.26330542
2.2	220	0.019	-1.042	-0.038	-46.5814854	9.2246238	-7.1046792	80.05942134	3.50650296	-47.18882088
2.21	221	0.026	-1.049	-0.041	-48.9306132	8.8235532	-6.7036086	79.56667746	3.5809875	-47.11433634
2.22	222	0.025	-1.046	-0.056	-51.2224452	7.8495246	-6.1879464	79.04528568	3.64974246	-47.05704054
2.23	223	0.025	-1.046	-0.058	-52.7694318	6.875496	-5.6722842	78.51243474	3.71276784	-47.00547432
2.24	224	0.028	-1.045	-0.07	-54.0299394	6.7609044	-5.3285094	77.96812464	3.77006364	-46.9539081
2.25	225	0.031	-1.053	-0.087	-55.4623344	7.3338624	-5.2712136	77.41808496	3.82735944	-46.8966123
2.26	226	0.041	-1.061	-0.095	-58.3844202	7.5057498	-5.443101	76.82793822	3.89038482	-46.8393165
2.27	227	0.044	-1.057	-0.096	-60.6762522	7.1046792	-5.443101	76.21487316	3.94768062	-46.78775028
2.28	228	0.045	-1.051	-0.102	-62.3951262	7.3911582	-5.8441716	75.57888978	4.01643558	-46.73618406
2.29	229	0.043	-1.052	-0.126	-64.8015498	7.8495246	-6.8182002	74.92571766	4.09092012	-46.68461784
2.3	230	0.05	-1.047	-0.135	-67.6663398	7.6776372	-7.6776372	74.24962722	4.17686382	-46.63305162
2.31	231	0.048	-1.033	-0.132	-69.327918	7.3911582	-8.3651868	73.54488888	4.2685371	-46.59294456
2.32	232	0.051	-1.027	-0.133	-69.9581718	6.016059	-9.0527364	72.84015054	4.36021038	-46.56429666
2.33	233	0.053	-1.03	-0.122	-72.5937786	4.4690724	-10.026765	72.10103472	4.45761324	-46.55856708
2.34	234	0.058	-1.011	-0.126	-75.5158644	3.0366774	-10.8289062	71.333271	4.56074568	-46.57002624
2.35	235	0.066	-1.01	-0.142	-75.4585686	3.151269	-11.5164558	70.57696644	4.6696077	-46.5814854
2.36	236	0.077	-1.023	-0.164	-76.776372	2.86479	-11.4018642	69.79201398	4.77846972	-46.59867414
2.37	237	0.079	-1.029	-0.166	-79.1254998	2.4064236	-11.6310474	68.98987278	4.88733174	-46.62159246
2.38	238	0.076	-1.02	-0.162	-79.8703452	1.7761698	-11.6310474	68.17054284	4.99046418	-46.65596994
2.39	239	0.073	-1.011	-0.177	-76.8909636	2.1772404	-11.5164558	67.39131996	5.09359662	-46.68461784
2.4	240	0.076	-1.038	-0.192	-73.4532156	3.724227	-11.6883432	66.65220414	5.20818822	-46.696077
2.41	241	0.077	-1.065	-0.206	-71.9635248	6.875496	-11.6883432	65.92454748	5.3285094	-46.68461784
2.42	242	0.087	-1.124	-0.268	-70.8749046	9.453807	-11.45916	65.2026204	5.46028974	-46.65024036
2.43	243	0.096	-1.157	-0.328	-71.61975	8.021412	-11.3445684	64.48069332	5.5863405	-46.62732204
2.44	244	0.102	-1.195	-0.348	-71.8489332	6.5317212	-10.1413566	63.74730708	5.69520252	-46.62159246
2.45	245	0.121	-1.196	-0.4	-71.8489332	4.6409598	-8.59437	63.02538	5.7868758	-46.62159246
2.46	246	0.13	-1.193	-0.422	-69.900876	2.578311	-7.8495246	62.3091825	5.85563076	-46.6387812
2.47	247	0.138	-1.168	-0.475	-66.9214944	1.5469866	-8.0787078	61.62736248	5.92438572	-46.66169952
2.48	248	0.147	-1.144	-0.505	-63.0826758	0	-8.7662574	60.98564952	5.99314068	-46.70753616
2.49	249	0.143	-1.113	-0.53	-58.3271244	-1.432395	-9.2819196	60.38404362	6.06189564	-46.77056154
2.5	250	0.129	-1.091	-0.547	-53.571573	-3.151269	-9.453807	59.83400394	6.11919144	-46.85077566
2.51	251	0.123	-1.074	-0.574	-50.0765292	-2.86479	-9.2246238	59.31834174	6.18221682	-46.9252602
2.52	252	0.128	-1.059	-0.581	-46.4668938	-2.4064236	-8.6516658	58.8427866	6.23951262	-46.99401516
2.53	253	0.145	-1.036	-0.593	-42.7999626	-1.7761698	-8.0787078	58.40160894	6.29107884	-47.05131096
2.54	254	0.169	-1.003	-0.622	-39.5913978	-0.1718874	-7.5630456	57.99480876	6.34837464	-47.0971476
2.55	255	0.184	-0.965	-0.641	-36.7266078	-0.5156622	-7.3338624	57.6109269	6.41140002	-47.14298424
2.56	256	0.195	-0.942	-0.662	-33.2888598	-2.4064236	-7.1046792	57.26142252	6.45150708	-47.20600962
2.57	257	0.193	-0.946	-0.672	-29.5646328	-5.2712136	-7.2192708	56.95775478	6.48015498	-47.28622374
2.58	258	0.187	-0.977	-0.671	-24.6944898	-8.4224826	-7.8495246	56.6941941	6.5030733	-47.40654492
2.59	259	0.183	-1.006	-0.647	-21.0848544	-10.886202	-8.1360036	56.4650109	6.50880288	-47.54405484
2.6	260	0.179	-1.015	-0.621	-16.615782	-12.6623718	-7.734933	56.28166434	6.50880288	-47.69302392
2.61	261	0.183	-1.012	-0.606	-12.032118	-13.9228794	-6.875496	56.14415442	6.49161414	-47.84772258
2.62	262	0.181	-0.99	-0.579	-7.161975	-15.183387	-5.72958	56.05248114	6.45723666	-48.00815082
2.63	263	0.172	-0.972	-0.563	-2.291832	-15.2406828	-4.4690724	56.01237408	6.41140002	-48.16284948
2.64	264	0.169	-0.95	-0.558	1.718874	-15.183387	-3.4950438	56.01810366	6.3598338	-48.31181856
2.65	265	0.156	-0.919	-0.547	5.6722842	-15.2979786	-2.8074942	56.06966988	6.30826758	-48.45505806
2.66	266	0.149	-0.898	-0.535	9.6256944	-14.7250206	-2.3491278	56.15561358	6.25097178	-48.5868384
2.67	267	0.144	-0.877	-0.519	12.5477802	-14.0947668	-1.9480572	56.27020518	6.19940556	-48.71861874
2.68	268	0.139	-0.859	-0.502	14.896908	-13.750992	-1.3178034	56.4077151	6.13638018	-48.83893992
2.69	269	0.133	-0.845	-0.481	16.3865988	-13.5791046	-0.7448454	56.56241376	6.0733548	-48.9592611
2.7	270	0.131	-0.83	-0.476	18.1627686	-13.2926256	0	56.74576032	6.016059	-49.06812312
2.71	271	0.134	-0.818	-0.464	20.2827132	-12.605076	0.8021412	56.94056604	5.94730404	-49.17125556
2.72	272	0.136	-0.802	-0.432	22.345362	-11.745639	1.5469866	57.16401966	5.8728195	-49.26292884
2.73	273	0.141	-0.789	-0.409	24.637194	-10.7716104	2.3491278	57.40466202	5.80406454	-49.33741338
2.74	274	0.149	-0.781	-0.411	27.0436176	-9.5683986	3.3804522	57.67395228	5.72958	-49.40043876
2.75	275	0.161	-0.769	-0.408	28.5906042	-9.167328	4.4690724	57.96616086	5.65509546	-49.45200498
2.76	276	0.172	-0.748	-0.396	30.1375908	-9.2819196	5.443101	58.2698286	5.56915176	-49.5035712
2.77	277	0.186	-0.735	-0.393	31.8564648	-8.3651868	6.302538	58.59068508	5.47747848	-49.54367826
2.78	278	0.202	-0.723	-0.378	33.1169724	-8.1360036	6.9900876	58.92300072	5.38007562	-49.57232616
2.79	279	0.216	-0.715	-0.367	33.9764094	-8.9381448	7.3911582	59.26677552	5.28267276	-49.61243322
2.8	280	0.233	-0.708	-0.366	34.663959	-9.1100322	7.5057498	59.6162799	5.19099948	-49.65254028
2.81	281	0.25	-0.697	-0.351	35.236917	-10.599723	7.734933	59.97151386	5.07640788	-49.7041065
2.82	282	0.26	-0.682	-0.333	36.5547204	-12.891555	8.307891	60.33820698	4.95035712	-49.77286146
2.83	283	0.265	-0.663	-0.324	37.9298196	-14.7823164	8.3651868	60.72208884	4.8128472	-49.85880516
2.84	284	0.26	-0.645	-0.316	39.534102	-17.18874	8.3651868	61.11742986	4.6696077	-49.96766718
2.85	285	0.252	-0.636	-0.311	41.539455	-19.9962342	8.59437	61.52995962	4.52063862	-50.09944752
2.86	286	0.231	-0.629	-0.31	42.3415962	-21.1421502	8.4224826	61.95394854	4.36021038	-50.2484166
2.87	287	0.222	-0.63	-0.299	42.9145542	-21.8869956	8.4224826	62.37793746	4.19405256	-50.39738568
2.88	288	0.22	-0.641	-0.287	43.1437374	-22.7464326	8.7662574	62.80765596	4.02216516	-50.55781392
2.89	289	0.219	-0.65	-0.272	43.4302164	-24.1788276	9.5683986	63.24310404	3.84454818	-50.72970132
2.9	290	0.216	-0.657	-0.262	43.9458786	-25.9549974	10.4278356	63.6842817	3.65547204	-50.91304788
2.91	291	0.218	-0.662	-0.267	43.6593996	-26.7571386	10.886202	64.1140002	3.45493674	-51.1078536
2.92	292	0.226	-0.664	-0.273	43.0864416	-27.6738714	11.0007936	64.5437187	3.24867186	-51.3083889
2.93	293	0.233	-0.67	-0.276	43.0864416	-28.934379	10.7143146	64.9734372	3.04240698	-51.52038336
2.94	294	0.241	-0.674	-0.258	42.8572584	-30.8251404	10.313244	65.4031557	2.8361421	-51.75529614
2.95	295	0.242	-0.677	-0.253	42.3415962	-33.3461556	9.9121734	65.82714462	2.6356068	-52.01885682
2.96	296	0.241	-0.679	-0.251	41.7686382	-35.809875	9.3392154	66.24540396	2.42361234	-52.30533582
2.97	297	0.234	-0.694	-0.24	41.7113424	-37.7006364	8.880849	66.65793372	2.2058883	-52.60900356
2.98	298	0.235	-0.712	-0.239	40.4508348	-38.1590028	8.4797784	67.0647339	1.99389384	-52.92986004
2.99	299	0.228	-0.714	-0.236	39.0184398	-39.8778768	8.307891	67.45434534	1.78189938	-53.26217568
3	300	0.218	-0.708	-0.241	38.2735944	-42.2843004	8.4797784	67.84395678	1.56990492	-53.61740964
3.01	301	0.213	-0.714	-0.244	37.8725238	-44.1750618	8.5370742	68.22210906	1.3464513	-53.98983234
3.02	302	0.212	-0.723	-0.249	37.2995658	-46.1804148	8.5370742	68.60026134	1.11153852	-54.38517336
3.03	303	0.207	-0.727	-0.228	36.3255372	-49.4462754	8.4797784	68.96695446	0.87662574	-54.81489186
3.04	304	0.208	-0.731	-0.216	35.0650296	-51.3943326	8.5370742	69.327918	0.6302538	-55.2617991
3.05	305	0.212	-0.735	-0.218	33.6899304	-51.7381074	8.1360036	69.6716928	0.40680018	-55.71443592
3.06	306	0.216	-0.751	-0.216	32.6013102	-52.425657	7.9641162	70.00973802	0.1718874	-56.1785319
3.07	307	0.215	-0.762	-0.211	31.51269	-53.6288688	7.3911582	70.33632408	-0.0572958	-56.65408704
3.08	308	0.21	-0.771	-0.201	29.0489706	-54.8893764	6.1879464	70.63999182	-0.27501984	-57.14683092
3.09	309	0.199	-0.768	-0.186	25.8404058	-57.3530958	4.7555514	70.91501166	-0.49274388	-57.6682227
3.1	310	0.192	-0.761	-0.198	24.637194	-60.5616606	2.8074942	71.17857234	-0.68182002	-58.22972154
3.11	311	0.184	-0.77	-0.205	24.064236	-61.9940556	0.6302538	71.44213302	-0.86516658	-58.8141387
3.12	312	0.177	-0.777	-0.194	22.4026578	-63.1399716	-1.3178034	71.68850496	-1.0313244	-59.4157446
3.13	313	0.181	-0.779	-0.189	20.340009	-63.7129296	-3.3231564	71.91195858	-1.1745639	-60.02308008
3.14	314	0.182	-0.771	-0.197	15.8709366	-64.5150708	-5.3858052	72.09530514	-1.30061466	-60.65333388
3.15	315	0.175	-0.753	-0.201	13.4072172	-65.030733	-7.6203414	72.25573338	-1.39801752	-61.29504684
3.16	316	0.172	-0.746	-0.192	12.4904844	-65.7182826	-10.4278356	72.41043204	-1.47250206	-61.94821896
3.17	317	0.167	-0.745	-0.191	10.8289062	-66.463128	-13.750992	72.54794196	-1.52406828	-62.61857982
3.18	318	0.162	-0.738	-0.202	9.3965112	-66.4058322	-17.3033316	72.66826314	-1.53552744	-63.30039984
3.19	319	0.155	-0.733	-0.18	7.3338624	-66.4058322	-21.3140376	72.77139558	-1.51260912	-63.99367902
3.2	320	0.15	-0.726	-0.168	5.156622	-64.6296624	-25.0955604	72.8516097	-1.432395	-64.6869582
3.21	321	0.151	-0.719	-0.193	1.6615782	-61.9940556	-28.4187168	72.89171676	-1.32926256	-65.35731906
3.22	322	0.151	-0.695	-0.198	-2.005353	-61.592985	-31.3408026	72.89744634	-1.19175264	-66.0334095
3.23	323	0.145	-0.668	-0.2	-2.1199446	-61.4210976	-33.5753388	72.89171676	-1.03705398	-66.7209591
3.24	324	0.139	-0.633	-0.199	-1.6615782	-58.9573782	-36.0390582	72.89744634	-0.84797784	-67.38559038
3.25	325	0.137	-0.596	-0.162	-0.5156622	-57.9833496	-38.388186	72.90317592	-0.6302538	-68.05022166
3.26	326	0.121	-0.559	-0.133	0.0572958	-58.3271244	-40.393539	72.92036466	-0.4010706	-68.72058252
3.27	327	0.107	-0.537	-0.141	-0.8021412	-56.5509546	-42.1697088	72.92036466	-0.14896908	-69.3852138
3.28	328	0.1	-0.519	-0.123	-0.9167328	-54.3737142	-43.7739912	72.92036466	0.12032118	-70.02692676
3.29	329	0.096	-0.497	-0.094	-1.8334656	-53.4569814	-45.0344988	72.90317592	0.40680018	-70.66863972
3.3	330	0.105	-0.494	-0.082	-5.6149884	-52.139178	-44.977203	72.8516097	0.69900876	-71.29316394
3.31	331	0.115	-0.482	-0.094	-9.1100322	-49.7327544	-41.539455	72.75420684	0.95683986	-71.88904026
3.32	332	0.086	-0.46	-0.159	-7.9641162	-47.0398518	-38.5027776	72.66826314	1.19748222	-72.4505391
3.33	333	0.123	-0.455	-0.218	-8.5370742	-43.8885828	-35.0077338	72.57658986	1.40947668	-72.97193088
3.34	334	0.144	-0.428	-0.199	-5.2139178	-43.544808	-29.507337	72.51356448	1.5756345	-73.47613392
3.35	335	0.187	-0.418	-0.111	-1.2605076	-42.7999626	-22.2307704	72.49637574	1.67876694	-73.94595948
3.36	336	0.18	-0.415	-0.046	-0.8021412	-40.0497642	-13.5791046	72.479187	1.70168526	-74.3699484
3.37	337	0.213	-0.394	-0.016	-5.9014674	-38.7892566	-5.0420304	72.41043204	1.63865988	-74.75383026
3.38	338	0.186	-0.382	-0.01	-12.605076	-38.9038482	3.5523396	72.2786517	1.50114996	-75.1147938
3.39	339	0.173	-0.359	-0.022	-17.2460358	-41.0810886	9.1100322	72.10103472	1.29488508	-75.47575734
3.4	340	0.169	-0.327	-0.05	-21.4286292	-43.3729206	15.2406828	71.88331068	1.03705398	-75.84245046
3.41	341	0.188	-0.308	-0.06	-21.3713334	-42.3415962	23.6631654	71.66558664	0.69327918	-76.1747661
3.42	342	0.176	-0.32	-0.061	-23.3766864	-37.2995658	31.7418732	71.43067386	0.286479	-76.4325972
3.43	343	0.2	-0.309	-0.057	-28.0176462	-30.8251404	39.4195104	71.14992444	-0.1718874	-76.59875502
3.44	344	0.198	-0.291	-0.096	-26.8717302	-24.064236	49.6754586	70.88636376	-0.7161975	-76.67323956
3.45	345	0.175	-0.289	-0.157	-19.5378678	-18.9649098	63.4837464	70.68582846	-1.36364004	-76.64459166
3.46	346	0.155	-0.313	-0.224	-11.2872726	-19.0795014	78.3233586	70.57123686	-2.15432208	-76.57010712
3.47	347	0.132	-0.368	-0.237	-8.021412	-23.777757	91.67328	70.49102274	-3.08824362	-76.49562258
3.48	348	0.102	-0.458	-0.215	-14.610429	-30.5959572	107.2004418	70.34205366	-4.18832298	-76.42686762
3.49	349	0.057	-0.495	-0.263	-23.8350528	-33.9191136	123.7016322	70.1014113	-5.44883058	-76.33519434
3.5	350	0.011	-0.508	-0.39	-27.3873924	-32.5440144	140.0309352	69.80347314	-6.86403684	-76.16903652
3.51	351	-0.034	-0.474	-0.533	-20.1681216	-29.8511118	155.3289138	69.56856036	-8.40529386	-75.916935
3.52	352	-0.107	-0.424	-0.607	-0.859437	-33.5753388	167.2464402	69.5284533	-10.07260164	-75.65337432
3.53	353	-0.25	-0.404	-0.547	15.8709366	-45.7793442	173.033316	69.66596322	-11.82585312	-75.48148692
3.54	354	-0.368	-0.379	-0.396	27.4446882	-59.874111	174.9813732	69.94671264	-13.64785956	-75.44137986
3.55	355	-0.388	-0.388	-0.464	25.1528562	-64.744254	175.0959648	70.20454374	-15.48705474	-75.46429818
3.56	356	-0.35	-0.449	-0.577	21.1421502	-72.4218912	172.6322454	70.46810442	-17.32052034	-75.5731602
3.57	357	-0.349	-0.615	-0.601	21.8296998	-79.9849368	169.2517932	70.76604258	-19.14825636	-75.77942508
3.58	358	-0.394	-0.863	-0.655	27.501984	-80.6724864	166.3870032	71.14419486	-20.94734448	-76.02006744
3.59	359	-0.488	-1.162	-0.707	35.523396	-82.505952	163.2357342	71.61975	-22.7177847	-76.30654644
3.6	360	-0.653	-1.539	-0.865	36.5547204	-91.5013926	167.6475108	72.15833052	-24.55697988	-76.68469872
3.61	361	-0.962	-2.099	-0.93	32.2002396	-105.8826384	181.627686	72.72555894	-26.56233288	-77.20036092
3.62	362	-1.29	-2.461	-0.732	26.356068	-122.1546456	201.7958076	73.32143526	-28.79686908	-77.85926262
3.63	363	-1.685	-2.741	-0.737	33.1169724	-120.3784758	219.442914	73.99179612	-31.19183352	-78.48378684
3.64	364	-2.207	-3.173	-0.683	64.6869582	-103.5335106	218.5261812	74.92571766	-33.52377258	-78.97080114
3.65	365	-2.83	-3.605	-0.386	98.6633676	-77.5785132	204.1449354	76.10028156	-35.64371718	-79.25728014
3.66	366	-2.959	-3.462	0.344	92.0170548	-41.252976	199.389384	76.99409604	-37.64907018	-79.17706602
3.67	367	-2.257	-2.688	1.157	47.4982182	-2.5210152	199.3320882	77.1487947	-39.57993864	-78.64421508
3.68	368	-1.71	-1.706	1.159	-3.9534102	33.0596766	195.8943402	76.4612451	-41.40767466	-77.64726816
3.69	369	-1.296	-0.779	0.819	1.2032118	57.6395748	198.1861722	75.53305314	-43.19530362	-76.2607098
3.7	370	-1.223	-0.516	0.828	32.085648	81.2454444	210.7912482	74.57621328	-45.0344988	-74.4272442
3.71	371	-1.579	-0.532	0.644	7.161975	107.9452872	214.2289962	72.9662013	-46.8106686	-72.09530514
3.72	372	-1.278	0.304	0.452	-70.8749046	106.1118216	239.9548104	70.31340576	-48.78164412	-69.4998054
3.73	373	-1.218	0.968	0.905	16.7876694	39.0757356	268.717302	68.94976572	-51.15369024	-67.4944524
3.74	374	-0.939	0.126	0.763	59.6449278	18.6784308	261.4980312	68.10178788	-53.50281804	-65.65525722
3.75	375	-0.997	-0.582	0.071	22.9756158	23.777757	249.9815754	66.69804078	-55.71443592	-63.64417464
3.76	376	-1.308	-0.796	-0.13	5.443101	23.0329116	249.0075468	64.89322308	-57.88021716	-61.41536802
3.77	377	-1.193	-0.65	0.153	13.9801752	31.6272816	259.4926782	62.67587562	-60.06318714	-58.66516962
3.78	378	-0.824	-0.362	0.163	9.0527364	39.9924684	271.009134	59.7881673	-62.24615712	-55.26752868
3.79	379	-0.683	-0.203	0.148	7.2192708	42.5134836	273.873924	56.28739392	-64.3431834	-51.26828184
3.8	380	-0.657	-0.236	0.092	10.6570188	34.4920716	267.571386	52.43711616	-66.3198885	-46.90807146
3.81	381	-0.78	-0.304	0.138	9.3392154	18.7930224	256.3414092	48.3290073	-68.17054284	-42.34732578
3.82	382	-0.923	-0.297	-0.013	-3.4950438	3.3804522	248.8929552	43.76253204	-69.93525348	-37.49437152
3.83	383	-1.211	-0.233	-0.142	-17.5325148	-5.5576926	245.3979114	38.4454818	-71.58537252	-32.04554094
3.84	384	-1.397	-0.006	-0.193	-35.5806918	0.6302538	251.8723368	31.66738866	-73.03495626	-25.30755486
3.85	385	-1.714	0.15	-0.194	-40.4508348	-0.1145916	254.8517184	23.6345175	-74.2267089	-17.35489782
3.86	386	-1.881	0.243	-0.101	-39.6486936	-16.902261	246.0281652	15.0114996	-75.2007375	-8.83501236
3.87	387	-1.87	0.38	-0.009	-30.939732	-36.5547204	238.2932322	5.92438572	-75.99714912	0.2291832
3.88	388	-1.695	0.471	0.015	-23.204799	-53.3423898	225.0006066	-3.36326346	-76.58729586	9.56266902
3.89	389	-1.623	0.562	-0.054	-13.178034	-62.8534926	201.108258	-12.19827582	-76.94252982	18.51227298
3.9	390	-1.479	0.579	0.066	12.4904844	-75.0002022	161.7460434	-19.62954108	-77.22327924	26.28158346
3.91	391	-1.393	0.615	-0.17	13.6936962	-85.370742	119.1179682	-25.72008462	-77.56132446	32.67579474
3.92	392	-1.276	0.718	-0.343	16.4438946	-76.6044846	83.7664596	-30.45844728	-77.84780346	37.70636598
3.93	393	-1.129	0.682	-0.284	31.3408026	-57.582279	53.7434604	-33.58679796	-78.05406834	41.24151684
3.94	394	-1.013	0.612	-0.307	44.8053156	-46.409598	31.3980984	-35.51766642	-78.26033322	43.68231792
3.95	395	-0.943	0.568	-0.251	57.6968706	-46.1804148	17.9335854	-36.93287268	-78.51243474	45.73350756
3.96	396	-0.875	0.518	-0.177	70.0727634	-37.8725238	5.9587632	-37.49437152	-78.77599542	47.03412222
3.97	397	-0.842	0.446	-0.172	71.7916374	-25.8977016	-1.4896908	-37.4141574	-78.99371946	47.6987535
3.98	398	-0.81	0.43	-0.143	71.906229	-26.0122932	-9.9694692	-37.00162764	-79.25728014	48.02533956
3.99	399	-0.752	0.429	-0.073	76.4325972	-30.4240698	-20.1108258	-36.22813434	-79.61824368	48.03679872
4	400	-0.666	0.403	-0.046	77.0055552	-31.9137606	-26.9863218	-35.25410574	-80.02504386	47.83626342
4.01	401	-0.632	0.382	-0.064	80.9016696	-28.7051958	-31.2835068	-33.77014452	-80.43184404	47.17163214
4.02	402	-0.624	0.383	-0.077	83.1935016	-20.1681216	-33.5753388	-31.78770984	-80.78134842	46.01425698
4.03	403	-0.653	0.401	-0.033	82.3913604	-12.3758928	-32.372127	-29.52452574	-81.0449091	44.57040282
4.04	404	-0.696	0.443	-0.007	77.5212174	-7.5630456	-28.6479	-27.27853038	-81.2454444	43.09790076
4.05	405	-0.823	0.515	-0.048	72.0208206	-6.302538	-25.2674478	-25.39922814	-81.39441348	41.92906644
4.06	406	-0.901	0.608	-0.06	71.3905668	-3.3231564	-23.0329116	-23.30793144	-81.51473466	40.54823766
4.07	407	-0.935	0.58	0.01	75.8596392	4.7555514	-24.923673	-20.82129372	-81.55484172	38.8179045
4.08	408	-0.943	0.457	0.042	80.1568242	13.750992	-29.6792244	-17.80180506	-81.51473466	36.57763872
4.09	409	-0.899	0.268	0.037	80.9016696	23.491278	-35.4661002	-14.28384294	-81.37722474	33.85035864
4.1	410	-0.854	0.092	-0.008	72.3645954	34.091001	-37.24227	-10.74869208	-81.12512322	31.01421654
4.11	411	-0.855	-0.012	-0.064	64.9734372	42.97185	-38.0444112	-7.36823988	-80.75270052	28.25255898
4.12	412	-0.907	-0.106	-0.042	60.8481396	52.139178	-38.961144	-4.19405256	-80.2714158	25.65132966
4.13	413	-0.959	-0.192	-0.067	48.2430636	57.4676874	-38.388186	-1.4610429	-79.71564654	23.36522724
4.14	414	-0.996	-0.199	-0.149	32.1429438	59.9887026	-38.101707	0.81932994	-79.11977022	21.35987424
4.15	415	-0.963	-0.138	-0.135	27.1582092	56.6082504	-34.4920716	2.71009134	-78.5525418	19.7097552
4.16	416	-0.995	-0.112	-0.062	22.345362	45.7220484	-30.1375908	4.19405256	-78.08271624	18.4205997
4.17	417	-1.048	-0.078	-0.086	19.3086846	38.674665	-25.4393352	5.36861646	-77.67591606	17.4179232
4.18	418	-1.067	-0.047	-0.108	20.1681216	32.8877892	-19.4232762	6.25097178	-77.33214126	16.71318486
4.19	419	-1.06	-0.035	-0.093	22.6891368	28.934379	-17.0168526	7.04165382	-77.02274394	16.13449728
4.2	420	-1.039	-0.008	-0.084	24.6944898	26.4706596	-16.5011904	7.80941754	-76.75345368	15.60164634
4.21	421	-1.034	0.004	-0.102	27.9030546	24.6944898	-16.902261	8.6230179	-76.489893	15.05733624
4.22	422	-1.012	-0.017	-0.139	27.215505	23.777757	-17.6471064	9.43661826	-76.22633232	14.4958374
4.23	423	-1.001	-0.024	-0.197	24.064236	24.2361234	-17.1314442	10.1700045	-75.95704206	13.99163436
4.24	424	-0.991	-0.045	-0.216	21.6578124	23.6631654	-16.2147114	10.82317662	-75.69348138	13.53899754
4.25	425	-1.012	-0.063	-0.19	18.1054728	21.6578124	-14.7250206	11.4018642	-75.46429818	13.13219736
4.26	426	-1.017	-0.081	-0.188	8.7089616	17.4179232	-12.6623718	11.80866438	-75.26949246	12.79988172
4.27	427	-0.999	-0.068	-0.222	0.8021412	14.6677248	-11.5737516	12.11233212	-75.10333464	12.4904844
4.28	428	-0.976	-0.055	-0.253	-2.6929026	13.178034	-11.0580894	12.37016322	-74.95436556	12.19827582
4.29	429	-0.955	-0.044	-0.247	-1.6615782	10.6570188	-11.172681	12.65664222	-74.8283148	11.88314892
4.3	430	-0.935	-0.058	-0.251	-2.4637194	6.3598338	-11.3445684	12.96030996	-74.73091194	11.53364454
4.31	431	-0.909	-0.056	-0.277	-3.0939732	4.7555514	-11.6310474	13.2926256	-74.6564274	11.15549226
4.32	432	-0.904	-0.074	-0.252	-3.151269	2.7501984	-12.318597	13.67077788	-74.60486118	10.73150334
4.33	433	-0.899	-0.094	-0.221	-7.1046792	0.0572958	-12.7769634	14.04320058	-74.5704837	10.26740736
4.34	434	-0.909	-0.109	-0.218	-10.7143146	-2.291832	-12.4904844	14.38697538	-74.56475412	9.7975818
4.35	435	-0.906	-0.114	-0.264	-10.4851314	-2.8074942	-12.1467096	14.76512766	-74.54756538	9.29910834
4.36	436	-0.909	-0.118	-0.267	-7.5630456	-4.5263682	-11.5164558	15.13182078	-74.55902454	8.83501236
4.37	437	-0.916	-0.133	-0.254	-8.021412	-7.161975	-10.8289062	15.50424348	-74.5991316	8.37091638
4.38	438	-0.918	-0.127	-0.241	-11.4018642	-8.8235532	-10.1413566	15.83082954	-74.66215698	7.9068204
4.39	439	-0.907	-0.103	-0.236	-12.9488508	-8.021412	-9.6256944	16.12303812	-74.70799362	7.47137232
4.4	440	-0.895	-0.087	-0.233	-11.45916	-7.3338624	-9.0527364	16.4152467	-74.75383026	7.0473834
4.41	441	-0.896	-0.082	-0.237	-9.9121734	-7.6776372	-8.4797784	16.69599612	-74.80539648	6.65204238
4.42	442	-0.907	-0.08	-0.223	-8.1932994	-10.4851314	-7.7922288	17.00539344	-74.87988102	6.2452422
4.43	443	-0.926	-0.081	-0.209	-8.6516658	-13.4072172	-7.2192708	17.3319795	-74.98301346	5.8155237
4.44	444	-0.936	-0.085	-0.205	-9.3965112	-15.0114996	-6.4171296	17.6471064	-75.10906422	5.39153478
4.45	445	-0.94	-0.093	-0.191	-10.313244	-15.756345	-5.6722842	17.96796288	-75.24657414	4.9560867
4.46	446	-0.963	-0.079	-0.181	-10.8289062	-16.1001198	-5.3858052	18.26017146	-75.37835448	4.54928652
4.47	447	-0.961	-0.077	-0.173	-7.448454	-16.615782	-5.0993262	18.58675752	-75.52159398	4.13102718
4.48	448	-0.962	-0.097	-0.159	-7.734933	-17.5898106	-4.4117766	18.907614	-75.67056306	3.724227
4.49	449	-0.961	-0.074	-0.184	-8.880849	-18.1054728	-2.005353	19.14252678	-75.8309913	3.39191136
4.5	450	-0.969	-0.076	-0.161	-5.5003968	-19.767051	0.4010706	19.37170998	-76.03725618	3.09970278
4.51	451	-0.99	-0.072	-0.139	-5.2139178	-21.6578124	1.8334656	19.56078612	-76.24352106	2.85333084
4.52	452	-1.004	-0.062	-0.139	-5.2139178	-21.8296998	3.3804522	19.70402562	-76.4612451	2.65852512
4.53	453	-1.006	-0.053	-0.137	-5.6149884	-19.7097552	4.6409598	19.76132142	-76.65605082	2.53820394
4.54	454	-1.01	-0.043	-0.14	-6.7036086	-17.2460358	5.2139178	19.74986226	-76.8336678	2.48663772
4.55	455	-1.017	-0.029	-0.138	-7.3338624	-15.2406828	5.156622	19.66964814	-77.02274394	2.4923673
4.56	456	-1.021	-0.023	-0.122	-6.2452422	-13.8655836	4.5263682	19.64100024	-77.16598344	2.4637194
4.57	457	-1.019	-0.015	-0.115	-4.3544808	-12.7769634	3.8388186	19.64100024	-77.29776378	2.41788276
4.58	458	-1.013	-0.023	-0.091	-0.286479	-11.745639	3.0939732	19.69829604	-77.41235538	2.36058696
4.59	459	-1.013	-0.032	-0.1	0.7448454	-11.6310474	2.86479	19.77278058	-77.53267656	2.291832
4.6	460	-1.012	-0.035	-0.11	1.2605076	-10.2559482	2.8074942	19.81861722	-77.68737522	2.2631841
4.61	461	-1.013	-0.037	-0.102	2.1199446	-8.7089616	2.7501984	19.87018344	-77.7790485	2.2345362
4.62	462	-1.015	-0.039	-0.091	2.9793816	-6.9900876	2.578311	19.9102905	-77.85353304	2.22880662
4.63	463	-1.015	-0.039	-0.092	3.3231564	-6.589017	2.8074942	19.93320882	-77.922288	2.24026578
4.64	464	-1.015	-0.036	-0.088	3.724227	-6.7036086	3.0939732	19.95039756	-77.99677254	2.2631841
4.65	465	-1.011	-0.034	-0.085	3.2658606	-6.8182002	3.0366774	19.9675863	-78.13428246	2.28610242
4.66	466	-1.013	-0.027	-0.072	3.6096354	-7.2765666	2.6929026	20.01342294	-78.208767	2.28037284
4.67	467	-1.016	-0.026	-0.072	3.6669312	-7.1046792	2.4637194	20.06498916	-78.28325154	2.26891368
4.68	468	-1.02	-0.027	-0.074	3.7815228	-6.1306506	2.2345362	20.1108258	-78.34627692	2.25745452
4.69	469	-1.024	-0.028	-0.068	3.9534102	-5.0993262	2.0626488	20.15093286	-78.40357272	2.2631841
4.7	470	-1.027	-0.03	-0.069	3.0939732	-4.4117766	2.005353	20.1681216	-78.5525418	2.291832
4.71	471	-1.026	-0.022	-0.075	2.1772404	-3.8961144	2.0626488	20.1681216	-78.59264886	2.31475032
4.72	472	-1.025	-0.017	-0.078	2.005353	-3.3804522	2.005353	20.15666244	-78.63275592	2.34339822
4.73	473	-1.023	-0.011	-0.074	1.9480572	-2.9793816	1.718874	20.15093286	-78.6671334	2.37204612
4.74	474	-1.019	-0.007	-0.058	2.9220858	-3.0939732	1.0886202	20.18531034	-78.6957813	2.36631654
4.75	475	-1.021	-0.01	-0.065	3.3231564	-3.437748	0.572958	20.16239202	-78.86193912	2.4350715
4.76	476	-1.019	-0.013	-0.082	3.0939732	-2.4064236	0	20.24260614	-78.87912786	2.38923486
4.77	477	-1.016	-0.019	-0.091	2.6929026	-0.6302538	-0.6302538	20.3113611	-78.88485744	2.3491278
4.78	478	-1.015	-0.022	-0.095	2.005353	1.0886202	-1.2605076	20.3686569	-78.8676687	2.30902074
4.79	479	-1.014	-0.027	-0.093	1.2605076	2.291832	-1.7761698	20.4259527	-78.84475038	2.2631841
4.8	480	-1.011	-0.033	-0.102	0.3437748	2.4637194	-2.1199446	20.41449354	-78.93069408	2.291832
4.81	481	-1.003	-0.036	-0.114	-0.1718874	2.86479	-2.2345362	20.46605976	-78.8963166	2.2345362
4.82	482	-0.999	-0.038	-0.118	0	3.0939732	-2.1199446	20.50616682	-78.86193912	2.19442914
4.83	483	-0.997	-0.039	-0.109	0.7448454	3.0366774	-2.0626488	20.55773304	-78.82756164	2.1485925
4.84	484	-0.995	-0.039	-0.103	0.6875496	3.2658606	-1.8334656	20.58638094	-78.78745458	2.12567418
4.85	485	-0.991	-0.034	-0.108	0.6302538	3.5523396	-1.718874	20.53481472	-78.85047996	2.19442914
4.86	486	-0.991	-0.032	-0.108	0.8021412	3.8961144	-1.8907614	20.56346262	-78.8103729	2.1772404
4.87	487	-0.994	-0.03	-0.114	0.572958	3.8388186	-2.2345362	20.5978401	-78.76453626	2.14286292
4.88	488	-0.993	-0.028	-0.115	0.6302538	4.0680018	-2.6356068	20.6551359	-78.71869962	2.0912967
4.89	489	-0.99	-0.033	-0.115	0.572958	4.3544808	-3.0366774	20.71816128	-78.6671334	2.0340009
4.9	490	-0.988	-0.038	-0.117	0.6875496	4.7555514	-2.9220858	20.72962044	-78.67286298	2.0340009
4.91	491	-0.988	-0.043	-0.119	0.9167328	5.0420304	-2.9220858	20.77545708	-78.61556718	1.99389384
4.92	492	-0.99	-0.044	-0.121	1.2605076	5.3285094	-2.6929026	20.81556414	-78.55827138	1.97097552
4.93	493	-0.988	-0.046	-0.118	0.9167328	5.3858052	-2.6356068	20.84421204	-78.50097558	1.9480572
4.94	494	-0.987	-0.048	-0.127	0	5.2712136	-2.7501984	20.87285994	-78.44367978	1.9194093
4.95	495	-0.988	-0.047	-0.13	-0.4010706	5.2139178	-2.6929026	20.86140078	-78.43222062	1.92513888
4.96	496	-0.988	-0.049	-0.129	-1.0886202	5.5003968	-2.8074942	20.87285994	-78.37492482	1.90222056
4.97	497	-0.982	-0.049	-0.132	-1.6615782	6.2452422	-2.7501984	20.86713036	-78.30616986	1.8907614
4.98	498	-0.975	-0.049	-0.136	-0.5156622	6.5317212	-2.291832	20.84421204	-78.2374149	1.90795014
4.99	499	-0.97	-0.048	-0.137	0.572958	5.156622	-1.7761698	20.83275288	-78.18584868	1.9194093
5	500	-0.972	-0.05	-0.14	0.9167328	3.5523396	-1.4896908	20.78691624	-78.208767	1.98816426
5.01	501	-0.971	-0.051	-0.148	0.4010706	2.86479	-1.432395	20.80410498	-78.17438952	1.97097552
5.02	502	-0.971	-0.052	-0.149	-0.4010706	2.1772404	-1.3178034	20.82129372	-78.1514712	1.95378678
5.03	503	-0.972	-0.057	-0.136	-1.3178034	1.4896908	-1.3750992	20.83848246	-78.13428246	1.91367972
5.04	504	-0.972	-0.058	-0.141	-2.2345362	1.0313244	-1.145916	20.84994162	-78.11709372	1.88503182
5.05	505	-0.971	-0.055	-0.141	-2.2345362	0.572958	-0.6875496	20.7983754	-78.24314448	1.92513888
5.06	506	-0.978	-0.057	-0.136	-1.3178034	-0.9167328	-0.4010706	20.82129372	-78.24887406	1.8907614
5.07	507	-0.988	-0.056	-0.134	-1.5469866	-1.718874	-0.286479	20.84994162	-78.2660628	1.83919518
5.08	508	-0.993	-0.051	-0.132	-2.578311	-1.5469866	-0.2291832	20.86140078	-78.27752196	1.79908812
5.09	509	-0.995	-0.048	-0.135	-3.3231564	-0.859437	-0.0572958	20.84421204	-78.28325154	1.78189938
5.1	510	-0.994	-0.044	-0.142	-3.4950438	-0.2291832	0.1145916	20.66086548	-78.39211356	1.94232762
5.11	511	-0.993	-0.042	-0.14	-2.7501984	0	0.1718874	20.62075842	-78.39211356	1.95378678
5.12	512	-0.99	-0.042	-0.139	-1.9480572	-0.1718874	0.1718874	20.5978401	-78.39211356	1.95951636
5.13	513	-0.984	-0.044	-0.134	-1.0886202	-0.8021412	0.1718874	20.58638094	-78.40357272	1.95378678
5.14	514	-0.983	-0.042	-0.142	-0.6302538	-1.4896908	0.286479	20.5978401	-78.41503188	1.93659804
5.15	515	-0.985	-0.042	-0.14	-0.1145916	-2.1772404	0.3437748	20.42022312	-78.56973054	2.1199446
5.16	516	-0.991	-0.04	-0.138	0.2291832	-2.6356068	0.3437748	20.4546006	-78.59837844	2.08556712
5.17	517	-0.993	-0.039	-0.136	0.572958	-2.6356068	0.3437748	20.49470766	-78.62129676	2.05691922
5.18	518	-0.998	-0.04	-0.131	0.7448454	-2.2345362	0.3437748	20.52908514	-78.64421508	2.0340009
5.19	519	-1	-0.038	-0.127	0.7448454	-1.718874	0.3437748	20.55200346	-78.66140382	2.01681216
5.2	520	-0.999	-0.036	-0.122	0.1718874	-1.2032118	0.286479	20.13374412	-78.99944904	2.4637194
5.21	521	-0.999	-0.03	-0.123	0	-0.6875496	0.1718874	20.1394737	-79.00517862	2.45798982
5.22	522	-0.997	-0.027	-0.128	0.286479	-0.2291832	0	20.14520328	-79.00517862	2.45226024
5.23	523	-0.992	-0.024	-0.125	0.572958	-0.1718874	-0.3437748	20.17385118	-79.00517862	2.42934192
5.24	524	-0.988	-0.025	-0.124	0.859437	-0.2291832	-0.7448454	20.2254174	-79.00517862	2.38350528
5.25	525	-0.982	-0.024	-0.128	1.145916	-0.3437748	-1.0313244	19.97904546	-79.13122938	2.65279554
5.26	526	-0.978	-0.027	-0.127	1.5469866	-0.4010706	-1.3178034	20.06498916	-79.13122938	2.57258142
5.27	527	-0.976	-0.032	-0.123	1.145916	-0.1145916	-1.6615782	20.1681216	-79.1254998	2.48663772
5.28	528	-0.978	-0.033	-0.128	0.5156622	0.5156622	-1.9480572	20.2540653	-79.11404064	2.40069402
5.29	529	-0.983	-0.034	-0.127	0.4010706	1.2605076	-2.3491278	20.35146816	-79.09112232	2.30902074
5.3	530	-0.99	-0.035	-0.126	0.4583664	1.7761698	-2.6356068	20.340009	-79.14268854	2.33193906
5.31	531	-0.999	-0.034	-0.125	0.859437	1.3178034	-2.6929026	20.44887102	-79.11977022	2.22307704
5.32	532	-1.004	-0.036	-0.125	0.8021412	0.8021412	-2.6356068	20.5691922	-79.10258148	2.10848544
5.33	533	-1.003	-0.038	-0.128	0.7448454	0.6875496	-2.578311	20.68951338	-79.08539274	1.99389384
5.34	534	-1	-0.041	-0.126	0.7448454	0.9167328	-2.6929026	20.80983456	-79.068204	1.87930224
5.35	535	-0.996	-0.044	-0.124	0.6875496	1.3750992	-2.7501984	20.8556712	-79.11977022	1.84492476
5.36	536	-0.993	-0.043	-0.128	0.859437	1.4896908	-2.8074942	20.9702628	-79.0968519	1.74179232
5.37	537	-0.994	-0.046	-0.125	1.2605076	1.6615782	-2.8074942	21.0848544	-79.068204	1.6329303
5.38	538	-0.996	-0.046	-0.126	0.6875496	1.8334656	-2.7501984	21.18798684	-79.04528568	1.53552744
5.39	539	-0.994	-0.046	-0.126	1.0313244	1.9480572	-2.7501984	21.29684886	-79.01663778	1.43812458
5.4	540	-0.993	-0.049	-0.121	1.7761698	1.5469866	-2.7501984	21.40571088	-79.05101526	1.35218088
5.41	541	-0.999	-0.053	-0.124	1.8907614	1.145916	-2.6356068	21.52603206	-79.02809694	1.24904844
5.42	542	-1	-0.051	-0.124	1.8334656	1.3750992	-2.5210152	21.64062366	-79.00517862	1.15164558
5.43	543	-1	-0.049	-0.125	1.7761698	1.5469866	-2.291832	21.73802652	-78.9822603	1.07143146
5.44	544	-0.998	-0.05	-0.126	1.7761698	1.718874	-2.1772404	21.82397022	-78.95934198	0.99694692
5.45	545	-0.993	-0.049	-0.13	1.3178034	1.5469866	-1.9480572	21.8296998	-79.00517862	1.01413566
5.46	546	-0.988	-0.048	-0.127	1.4896908	1.3178034	-1.7761698	21.90418434	-78.98798988	0.95111028
5.47	547	-0.984	-0.052	-0.125	1.0886202	1.2605076	-1.718874	21.9729393	-78.96507156	0.89381448
5.48	548	-0.98	-0.052	-0.125	0.9167328	1.3750992	-1.6042824	22.0302351	-78.94788282	0.84224826
5.49	549	-0.978	-0.057	-0.129	0.7448454	1.5469866	-1.4896908	22.07607174	-78.9249645	0.8021412
5.5	550	-0.982	-0.058	-0.138	0.1718874	2.005353	-1.432395	22.04742384	-78.96507156	0.83651868
5.51	551	-0.984	-0.058	-0.141	0	2.2345362	-1.432395	22.07034216	-78.93642366	0.81360036
5.52	552	-0.986	-0.058	-0.138	-0.4010706	2.1772404	-1.3178034	22.08180132	-78.91350534	0.79641162
5.53	553	-0.986	-0.057	-0.14	-0.9740286	2.0626488	-0.9740286	22.07607174	-78.89058702	0.79068204
5.54	554	-0.985	-0.053	-0.138	-1.3178034	1.4896908	-0.8021412	22.07034216	-78.87339828	0.78495246
5.55	555	-0.984	-0.05	-0.138	-1.3750992	1.0313244	-0.6302538	21.89272518	-78.95934198	0.95111028
5.56	556	-0.985	-0.047	-0.135	-0.9740286	0.7448454	-0.6302538	21.89845476	-78.9536124	0.93965112
5.57	557	-0.986	-0.046	-0.134	-1.145916	1.145916	-0.859437	21.90418434	-78.93642366	0.92246238
5.58	558	-0.985	-0.044	-0.137	-1.0886202	1.3178034	-0.9167328	21.90991392	-78.91923492	0.89954406
5.59	559	-0.985	-0.049	-0.14	-0.859437	1.145916	-1.0313244	21.92710266	-78.90777576	0.87662574
5.6	560	-0.985	-0.053	-0.139	-1.6615782	0.859437	-1.145916	21.87553644	-78.95934198	0.9167328
5.61	561	-0.984	-0.052	-0.139	-1.8334656	0.6302538	-0.859437	21.8869956	-78.9536124	0.88235532
5.62	562	-0.986	-0.05	-0.14	-1.3178034	0.7448454	-0.6875496	21.8869956	-78.94215324	0.86516658
5.63	563	-0.986	-0.048	-0.139	-0.9167328	1.0886202	-0.6302538	21.8869956	-78.93069408	0.859437
5.64	564	-0.986	-0.045	-0.14	-0.859437	1.145916	-0.6302538	21.88126602	-78.91923492	0.85370742
5.65	565	-0.987	-0.04	-0.14	-0.9167328	0.8021412	-0.6875496	21.59478702	-79.01663778	1.13445684
5.66	566	-0.985	-0.038	-0.141	-1.0313244	0.572958	-0.9167328	21.61770534	-79.0109082	1.10007936
5.67	567	-0.984	-0.037	-0.142	-0.859437	0.1718874	-0.9740286	21.65208282	-79.00517862	1.05424272
5.68	568	-0.986	-0.039	-0.142	-0.572958	-0.1145916	-1.145916	21.70364904	-78.99944904	0.99694692
5.69	569	-0.985	-0.04	-0.14	-0.1145916	-0.5156622	-1.2605076	21.772404	-78.99944904	0.92246238
5.7	570	-0.985	-0.044	-0.135	0	-1.4896908	-1.2032118	21.6864603	-79.0968519	1.01413566
5.71	571	-0.987	-0.044	-0.137	-0.286479	-2.6929026	-1.145916	21.8010519	-79.11977022	0.89954406
5.72	572	-0.991	-0.044	-0.138	-0.6302538	-3.437748	-1.145916	21.92137308	-79.14268854	0.76776372
5.73	573	-0.99	-0.045	-0.136	-0.7448454	-3.4950438	-1.145916	22.04169426	-79.17133644	0.63598338
5.74	574	-0.989	-0.045	-0.137	-0.5156622	-3.0366774	-1.2605076	22.16201544	-79.19425476	0.50993262
5.75	575	-0.985	-0.047	-0.139	0.286479	-2.578311	-1.432395	22.19066334	-79.25728014	0.4870143
5.76	576	-0.983	-0.053	-0.137	0.859437	-2.6356068	-1.3750992	22.32244368	-79.27446888	0.36096354
5.77	577	-0.981	-0.057	-0.139	0.6875496	-2.578311	-1.2605076	22.44849444	-79.29165762	0.24064236
5.78	578	-0.981	-0.058	-0.136	-0.1718874	-2.3491278	-1.145916	22.55735646	-79.30884636	0.13178034
5.79	579	-0.985	-0.058	-0.134	-1.0313244	-2.1772404	-1.0313244	22.64330016	-79.3260351	0.0286479
5.8	580	-0.989	-0.058	-0.137	-2.1772404	-1.718874	-1.0886202	22.67767764	-79.37760132	-0.02291832
5.81	581	-0.991	-0.055	-0.136	-2.6929026	-1.5469866	-1.0886202	22.74070302	-79.38906048	-0.10886202
5.82	582	-0.989	-0.054	-0.137	-2.6356068	-1.7761698	-1.0886202	22.8037284	-79.40051964	-0.20626488
5.83	583	-0.987	-0.056	-0.138	-2.7501984	-1.8907614	-1.0313244	22.87248336	-79.4119788	-0.30366774
5.84	584	-0.983	-0.058	-0.131	-3.2085648	-1.5469866	-0.9740286	22.92404958	-79.42343796	-0.38388186
5.85	585	-0.983	-0.057	-0.128	-3.5523396	-1.3750992	-0.7448454	22.91832	-79.47500418	-0.41825934
5.86	586	-0.983	-0.055	-0.137	-3.4950438	-1.2032118	-0.4010706	22.92977916	-79.48073376	-0.46409598
5.87	587	-0.984	-0.052	-0.139	-3.0366774	-1.2032118	-0.2291832	22.94123832	-79.49219292	-0.50420304
5.88	588	-0.988	-0.053	-0.137	-2.9220858	-0.859437	-0.3437748	22.9469679	-79.50365208	-0.5443101
5.89	589	-0.991	-0.051	-0.139	-3.3231564	-0.5156622	-0.3437748	22.9469679	-79.50365208	-0.57868758
5.9	590	-0.993	-0.05	-0.138	-3.5523396	-0.8021412	-0.286479	22.84956504	-79.54948872	-0.5156622
5.91	591	-0.996	-0.051	-0.136	-3.6669312	-1.3178034	-0.2291832	22.85529462	-79.56094788	-0.56149884
5.92	592	-0.996	-0.049	-0.137	-3.5523396	-2.005353	-0.1145916	22.87248336	-79.57813662	-0.61306506
5.93	593	-0.994	-0.045	-0.133	-3.0366774	-2.6929026	-0.0572958	22.90686084	-79.60105494	-0.67609044
5.94	594	-0.994	-0.044	-0.128	-2.4637194	-2.9220858	-0.1145916	22.95269748	-79.62970284	-0.75057498
5.95	595	-0.99	-0.038	-0.132	-2.2345362	-2.5210152	-0.2291832	22.82091714	-79.70418738	-0.64171296
5.96	596	-0.989	-0.038	-0.131	-1.3178034	-2.4064236	-0.4010706	22.88394252	-79.72137612	-0.7161975
5.97	597	-0.989	-0.041	-0.128	-1.145916	-2.3491278	-0.6875496	22.95842706	-79.74429444	-0.80787078
5.98	598	-0.989	-0.041	-0.128	-1.432395	-2.4064236	-0.859437	23.04437076	-79.76148318	-0.91100322
5.99	599	-0.989	-0.044	-0.135	-1.4896908	-2.6929026	-0.9740286	23.14177362	-79.77867192	-1.02559482
6	600	-0.988	-0.047	-0.137	-1.2605076	-2.7501984	-0.9167328	23.1475032	-79.83596772	-1.04278356
6.01	601	-0.987	-0.052	-0.133	-0.859437	-2.9793816	-0.9167328	23.25636522	-79.85888604	-1.16310474
6.02	602	-0.986	-0.051	-0.133	-1.0886202	-2.8074942	-0.6875496	23.3480385	-79.88180436	-1.26623718
6.03	603	-0.985	-0.05	-0.133	-1.145916	-2.86479	-0.6875496	23.43971178	-79.90472268	-1.3750992
6.04	604	-0.985	-0.049	-0.133	-1.2605076	-2.8074942	-0.6302538	23.53138506	-79.927641	-1.47823164
6.05	605	-0.986	-0.047	-0.132	-1.8334656	-2.6929026	-0.6875496	23.52565548	-79.99066638	-1.4896908
6.06	606	-0.985	-0.046	-0.116	-2.1772404	-2.4064236	-0.7448454	23.60014002	-80.00785512	-1.58709366
6.07	607	-0.986	-0.043	-0.117	-2.0626488	-1.8334656	-0.6875496	23.65743582	-80.02504386	-1.66730778
6.08	608	-0.988	-0.045	-0.126	-1.8907614	-1.0313244	-0.6302538	23.69754288	-80.03077344	-1.73033316
6.09	609	-0.991	-0.046	-0.133	-1.718874	-0.5156622	-0.859437	23.74337952	-80.03077344	-1.78762896
6.1	610	-0.99	-0.046	-0.135	-1.145916	-0.286479	-1.0886202	23.58295128	-80.08806924	-1.64438946
6.11	611	-0.988	-0.049	-0.134	-1.432395	-0.0572958	-1.2605076	23.64024708	-80.08806924	-1.71314442
6.12	612	-0.988	-0.051	-0.134	-1.7761698	-0.3437748	-1.2605076	23.69754288	-80.08233966	-1.79335854
6.13	613	-0.989	-0.052	-0.133	-2.3491278	-0.9167328	-1.145916	23.75483868	-80.08806924	-1.87930224
6.14	614	-0.988	-0.054	-0.131	-2.6929026	-1.2032118	-1.0886202	23.81786406	-80.09379882	-1.96524594
6.15	615	-0.987	-0.051	-0.13	-2.3491278	-1.5469866	-0.9167328	23.80067532	-80.14536504	-1.9767051
6.16	616	-0.984	-0.053	-0.123	-1.8907614	-1.7761698	-0.9167328	23.87515986	-80.1568242	-2.06837838
6.17	617	-0.986	-0.05	-0.126	-1.9480572	-1.8907614	-0.859437	23.9496444	-80.17401294	-2.16578124
6.18	618	-0.991	-0.048	-0.128	-2.0626488	-1.718874	-0.859437	24.01839936	-80.1854721	-2.25745452
6.19	619	-0.993	-0.048	-0.128	-2.291832	-1.5469866	-0.859437	24.08142474	-80.19693126	-2.34339822
6.2	620	-0.995	-0.049	-0.123	-2.0626488	-1.7761698	-0.7448454	24.05850642	-80.25422706	-2.34339822
6.21	621	-0.994	-0.048	-0.12	-1.8907614	-1.718874	-0.6302538	24.1215318	-80.26568622	-2.42361234
6.22	622	-0.993	-0.045	-0.121	-1.7761698	-1.6615782	-0.572958	24.17309802	-80.28287496	-2.49809688
6.23	623	-0.992	-0.045	-0.123	-1.4896908	-1.7761698	-0.6302538	24.2361234	-80.29433412	-2.578311
6.24	624	-0.992	-0.045	-0.128	-1.432395	-1.3178034	-0.7448454	24.29914878	-80.30579328	-2.65279554
6.25	625	-0.99	-0.044	-0.126	-1.145916	-1.2032118	-0.6302538	24.16163886	-80.38027782	-2.52674478
6.26	626	-0.989	-0.049	-0.121	-0.8021412	-1.2605076	-0.6302538	24.21893466	-80.3860074	-2.59549974
6.27	627	-0.989	-0.051	-0.121	-1.2032118	-1.0886202	-0.5156622	24.2647713	-80.39746656	-2.65279554
6.28	628	-0.988	-0.052	-0.121	-1.718874	-0.859437	-0.4583664	24.29914878	-80.40319614	-2.69863218
6.29	629	-0.988	-0.048	-0.125	-2.1199446	-0.572958	-0.5156622	24.31633752	-80.40319614	-2.74446882
6.3	630	-0.988	-0.048	-0.127	-2.291832	-0.6302538	-0.4583664	24.18455718	-80.45476236	-2.6356068
6.31	631	-0.991	-0.047	-0.127	-2.4637194	-1.0313244	-0.5156622	24.21320508	-80.46049194	-2.6929026
6.32	632	-0.992	-0.045	-0.127	-2.6356068	-1.3178034	-0.4583664	24.24758256	-80.4719511	-2.7501984
6.33	633	-0.994	-0.044	-0.127	-2.1772404	-1.432395	-0.4583664	24.28768962	-80.48341026	-2.81322378
6.34	634	-0.994	-0.043	-0.129	-1.5469866	-1.3178034	-0.6302538	24.34498542	-80.49486942	-2.88770832
6.35	635	-0.992	-0.046	-0.127	-1.4896908	-1.2032118	-0.8021412	24.24185298	-80.54070606	-2.79603504
6.36	636	-0.991	-0.045	-0.129	-1.8334656	-1.0313244	-0.9167328	24.29914878	-80.54643564	-2.87624916
6.37	637	-0.987	-0.047	-0.13	-1.7761698	-0.859437	-1.0313244	24.36217416	-80.55216522	-2.95646328
6.38	638	-0.985	-0.05	-0.129	-1.7761698	-0.6302538	-1.0313244	24.41946996	-80.55216522	-3.0366774
6.39	639	-0.984	-0.052	-0.121	-1.8907614	-0.4583664	-1.0313244	24.47103618	-80.55216522	-3.10543236
6.4	640	-0.986	-0.052	-0.123	-2.1199446	-0.286479	-0.9740286	24.37363332	-80.59227228	-3.0366774
6.41	641	-0.984	-0.048	-0.126	-1.9480572	-0.2291832	-0.859437	24.4080108	-80.59227228	-3.08824362
6.42	642	-0.987	-0.048	-0.125	-1.6615782	-0.4010706	-0.859437	24.44811786	-80.59227228	-3.151269
6.43	643	-0.987	-0.049	-0.123	-1.9480572	-0.4583664	-0.9167328	24.4939545	-80.59227228	-3.21429438
6.44	644	-0.987	-0.048	-0.122	-2.4637194	-0.3437748	-0.9167328	24.52833198	-80.59227228	-3.27731976
6.45	645	-0.989	-0.046	-0.123	-2.4637194	-0.4583664	-0.8021412	24.4080108	-80.63810892	-3.1799169
6.46	646	-0.99	-0.047	-0.123	-2.005353	-0.6302538	-0.7448454	24.44811786	-80.6438385	-3.2372127
6.47	647	-0.992	-0.049	-0.123	-2.005353	-0.6302538	-0.8021412	24.48822492	-80.6438385	-3.30023808
6.48	648	-0.995	-0.05	-0.121	-2.3491278	-0.5156622	-0.7448454	24.5226024	-80.6438385	-3.35753388
6.49	649	-0.995	-0.05	-0.123	-2.6929026	-0.1145916	-0.6875496	24.53406156	-80.6438385	-3.40337052
6.5	650	-0.996	-0.05	-0.122	-2.8074942	0	-0.572958	24.42519954	-80.68967514	-3.31742682
6.51	651	-0.993	-0.051	-0.122	-2.86479	-0.0572958	-0.4010706	24.41946996	-80.68967514	-3.34607472
6.52	652	-0.99	-0.05	-0.125	-2.9793816	-0.286479	-0.2291832	24.41374038	-80.68967514	-3.36899304
6.53	653	-0.988	-0.051	-0.122	-2.9793816	-0.4010706	-0.1145916	24.40228122	-80.69540472	-3.38618178
6.54	654	-0.988	-0.051	-0.123	-3.437748	-0.4583664	0	24.37363332	-80.69540472	-3.39764094
6.55	655	-0.99	-0.048	-0.13	-3.4950438	-0.4583664	0.0572958	24.16163886	-80.7297822	-3.22002396
6.56	656	-0.992	-0.045	-0.125	-2.9793816	-0.3437748	0	24.13872054	-80.7297822	-3.22575354
6.57	657	-0.991	-0.045	-0.126	-3.0939732	-0.3437748	0	24.1215318	-80.73551178	-3.24294228
6.58	658	-0.99	-0.041	-0.128	-3.0366774	-0.4583664	-0.1718874	24.11580222	-80.74124136	-3.2658606
6.59	659	-0.99	-0.041	-0.128	-2.6356068	-0.5156622	-0.2291832	24.11580222	-80.74124136	-3.28877892
6.6	660	-0.99	-0.043	-0.127	-2.5210152	-0.4583664	-0.3437748	23.9209965	-80.78134842	-3.1226211
6.61	661	-0.989	-0.042	-0.129	-2.6356068	-0.4583664	-0.4010706	23.92672608	-80.787078	-3.15699858
6.62	662	-0.987	-0.042	-0.13	-2.5210152	-0.5156622	-0.4010706	23.93818524	-80.787078	-3.19710564
6.63	663	-0.986	-0.043	-0.128	-2.4637194	-0.572958	-0.5156622	23.96110356	-80.79280758	-3.24294228
6.64	664	-0.984	-0.044	-0.128	-2.291832	-0.5156622	-0.5156622	23.9782923	-80.79853716	-3.28877892
6.65	665	-0.982	-0.044	-0.128	-2.291832	-0.5156622	-0.6302538	23.84651196	-80.82145548	-3.1799169
6.66	666	-0.984	-0.044	-0.13	-2.4064236	-0.9740286	-0.7448454	23.8923486	-80.82718506	-3.24867186
6.67	667	-0.987	-0.045	-0.129	-2.578311	-1.2605076	-0.859437	23.9496444	-80.83864422	-3.33461556
6.68	668	-0.99	-0.045	-0.125	-2.9220858	-1.718874	-0.9740286	24.02412894	-80.85010338	-3.437748
6.69	669	-0.992	-0.043	-0.127	-2.9220858	-2.0626488	-1.0313244	24.11007264	-80.86156254	-3.55806918
6.7	670	-0.991	-0.043	-0.129	-2.6929026	-2.1772404	-1.0886202	24.08142474	-80.89594002	-3.55806918
6.71	671	-0.991	-0.045	-0.127	-2.2345362	-2.4637194	-1.0313244	24.18455718	-80.91312876	-3.68411994
6.72	672	-0.993	-0.048	-0.122	-2.1199446	-2.3491278	-1.0313244	24.28768962	-80.9303175	-3.8101707
6.73	673	-0.994	-0.047	-0.126	-2.4064236	-1.7761698	-1.0313244	24.36790374	-80.94177666	-3.91903272
6.74	674	-0.995	-0.045	-0.13	-2.4637194	-1.3178034	-1.0313244	24.44238828	-80.95323582	-4.01643558
6.75	675	-0.995	-0.044	-0.128	-2.5210152	-1.145916	-1.0313244	24.36217416	-80.97615414	-3.96486936
6.76	676	-0.993	-0.045	-0.131	-2.7501984	-1.3750992	-0.9167328	24.42519954	-80.9876133	-4.06227222
6.77	677	-0.991	-0.046	-0.126	-2.7501984	-1.6615782	-0.7448454	24.48822492	-80.99907246	-4.14821592
6.78	678	-0.989	-0.045	-0.123	-2.6929026	-1.9480572	-0.8021412	24.56270946	-81.01053162	-4.25134836
6.79	679	-0.989	-0.048	-0.121	-2.7501984	-1.8907614	-0.9167328	24.64292358	-81.02772036	-4.36021038
6.8	680	-0.988	-0.048	-0.121	-3.0939732	-1.718874	-1.0313244	24.62573484	-81.05636826	-4.37739912
6.81	681	-0.99	-0.045	-0.119	-3.2085648	-1.6615782	-1.145916	24.70594896	-81.06782742	-4.49199072
6.82	682	-0.995	-0.044	-0.114	-3.151269	-1.5469866	-1.0886202	24.7804335	-81.07928658	-4.60085274
6.83	683	-0.999	-0.044	-0.112	-3.5523396	-1.2032118	-1.2032118	24.84918846	-81.08501616	-4.70971476
6.84	684	-0.996	-0.041	-0.119	-3.6096354	-0.859437	-1.2032118	24.90648426	-81.09074574	-4.80711762
6.85	685	-0.991	-0.042	-0.119	-2.9220858	-0.7448454	-1.2032118	24.84918846	-81.11939364	-4.77274014
6.86	686	-0.986	-0.045	-0.116	-2.578311	-0.6875496	-1.2032118	24.91221384	-81.11939364	-4.870143
