TimeStamp(s)	FrameCounter	AccX	AccY	AccZ	GyrX	GyrY	GyrZ	EulerX	EulerY	EulerZ
0.01	1	-0.041	-1.008	-0.013	-1.145916	-0.286479	0.1718874	86.30466354	0.2578311	-19.9962342
0.02	2	-0.046	-1.003	0.008	-2.1772404	-0.4010706	0.4583664	86.28174522	0.2578311	-20.00196378
0.03	3	-0.037	-0.999	0.01	-2.2345362	-0.0572958	0	86.2588269	0.25210152	-20.00196378
0.04	4	-0.029	-0.998	0.007	-2.0626488	0.1145916	-0.4010706	86.23590858	0.2578311	-20.00196378
0.05	5	-0.023	-1.002	0.007	-2.0626488	0.4010706	-0.7448454	86.3161227	0.24637194	-19.97904546
0.06	6	-0.02	-1.008	0.01	-2.1772404	0.0572958	-0.9167328	86.29320438	0.2578311	-19.97904546
0.07	7	-0.021	-1.014	0.009	-2.578311	-0.4010706	-0.9167328	86.26455648	0.26356068	-19.98477504
0.08	8	-0.022	-1.011	0.009	-2.6929026	-1.3178034	-0.7448454	86.23590858	0.26929026	-20.00196378
0.09	9	-0.024	-1.003	0.005	-2.4064236	-2.291832	-0.6302538	86.21299026	0.27501984	-20.0248821
0.1	10	-0.03	-0.997	0.005	-2.1199446	-3.3804522	-0.5156622	86.23590858	0.26356068	-20.04780042
0.11	11	-0.033	-0.993	0.008	-2.005353	-4.0680018	-0.572958	86.21871984	0.26356068	-20.09363706
0.12	12	-0.034	-1	0.007	-2.4064236	-4.010706	-0.6875496	86.19007194	0.26929026	-20.13374412
0.13	13	-0.032	-1.006	0.004	-2.8074942	-3.7815228	-0.9167328	86.16142404	0.28074942	-20.1681216
0.14	14	-0.029	-1.008	0.003	-2.8074942	-3.724227	-0.9740286	86.13277614	0.286479	-20.20822866
0.15	15	-0.028	-1.01	0	-2.9793816	-3.8388186	-0.9740286	86.13850572	0.28074942	-20.24260614
0.16	16	-0.028	-1.012	-0.001	-3.0366774	-3.7815228	-0.9167328	86.10985782	0.29220858	-20.2827132
0.17	17	-0.028	-1.013	-0.001	-3.2085648	-3.6669312	-0.6875496	86.07548034	0.29793816	-20.31709068
0.18	18	-0.032	-1.012	0.003	-3.5523396	-4.0680018	-0.572958	86.04110286	0.29793816	-20.35719774
0.19	19	-0.035	-1.009	0.006	-3.8388186	-4.6409598	-0.3437748	86.0009958	0.30366774	-20.40876396
0.2	20	-0.035	-1.007	0.006	-4.2398892	-4.8128472	-0.2291832	85.98953664	0.286479	-20.44887102
0.21	21	-0.033	-1.005	0	-4.6982556	-4.5263682	-0.286479	85.9437	0.286479	-20.49470766
0.22	22	-0.03	-1.006	-0.005	-5.156622	-4.010706	-0.1145916	85.89213378	0.286479	-20.53481472
0.23	23	-0.031	-1.007	-0.009	-5.6149884	-3.5523396	0	85.83483798	0.286479	-20.5691922
0.24	24	-0.032	-1.007	-0.01	-5.9587632	-2.86479	0.1145916	85.7718126	0.28074942	-20.60356968
0.25	25	-0.033	-1.004	-0.01	-5.8441716	-2.291832	0.286479	85.7431647	0.2578311	-20.62075842
0.26	26	-0.034	-1.006	-0.011	-5.6722842	-1.718874	0.572958	85.6858689	0.25210152	-20.63794716
0.27	27	-0.032	-1.01	-0.013	-5.9014674	-0.8021412	0.6875496	85.62284352	0.24637194	-20.64367674
0.28	28	-0.03	-1.015	-0.015	-6.7609044	0	1.0313244	85.55408856	0.23491278	-20.64940632
0.29	29	-0.027	-1.015	-0.014	-7.6203414	-0.0572958	1.3178034	85.47960402	0.21772404	-20.64940632
0.3	30	-0.021	-1.011	-0.009	-8.2505952	-0.286479	1.6042824	85.42230822	0.19480572	-20.64367674
0.31	31	-0.011	-1.006	-0.006	-8.1360036	-0.8021412	1.6615782	85.3420941	0.17761698	-20.6551359
0.32	32	-0.003	-1.01	-0.007	-7.9641162	-1.4896908	1.5469866	85.26187998	0.16042824	-20.66659506
0.33	33	0.005	-1.014	-0.006	-8.2505952	-2.005353	1.432395	85.17593628	0.14896908	-20.68951338
0.34	34	0.009	-1.019	0.002	-8.4797784	-2.578311	1.3750992	85.08999258	0.13178034	-20.7124317
0.35	35	0.013	-1.028	0.004	-8.7662574	-2.9793816	1.3750992	85.03842636	0.12032118	-20.73535002
0.36	36	0.014	-1.022	0.01	-8.4797784	-3.437748	1.5469866	84.95248266	0.10313244	-20.7697275
0.37	37	0.011	-1.014	0.007	-7.9068204	-4.1825934	1.8334656	84.87226854	0.08021412	-20.80983456
0.38	38	0.008	-1.007	0.003	-7.161975	-5.2139178	2.1772404	84.797784	0.0572958	-20.86140078
0.39	39	0.005	-1.002	0	-7.0473834	-6.3598338	2.578311	84.72902904	0.0286479	-20.92442616
0.4	40	0.003	-0.999	0	-7.3911582	-7.6203414	3.0366774	84.67746282	0	-20.99318112
0.41	41	-0.001	-0.999	0	-7.6776372	-8.8235532	3.2085648	84.60297828	-0.04010706	-21.07912482
0.42	42	-0.005	-1.002	0	-7.448454	-9.5111028	3.151269	84.52849374	-0.07448454	-21.1707981
0.43	43	-0.01	-1.004	0	-6.7036086	-9.6256944	3.0366774	84.45973878	-0.1145916	-21.26247138
0.44	44	-0.016	-1.006	-0.002	-6.2452422	-9.3392154	3.0939732	84.3967134	-0.15469866	-21.35414466
0.45	45	-0.018	-1.005	-0.002	-6.302538	-8.9381448	3.3804522	84.35660634	-0.19480572	-21.43435878
0.46	46	-0.022	-1.005	0	-6.4171296	-8.59437	3.724227	84.29358096	-0.23491278	-21.5145729
0.47	47	-0.023	-1.005	0.006	-6.1306506	-8.2505952	4.010706	84.23628516	-0.28074942	-21.59478702
0.48	48	-0.026	-1.005	0.008	-5.6149884	-7.7922288	4.297185	84.17898936	-0.33231564	-21.66927156
0.49	49	-0.032	-1.004	0.007	-4.9847346	-7.448454	4.583664	84.12742314	-0.38388186	-21.73802652
0.5	50	-0.039	-1.005	0.008	-4.010706	-7.0473834	4.583664	84.12742314	-0.44117766	-21.79532232
0.51	51	-0.042	-1.006	0.007	-2.6929026	-6.4171296	4.4117766	84.09877524	-0.49274388	-21.8583477
0.52	52	-0.032	-1.011	-0.005	-1.2605076	-5.9587632	3.8961144	84.08731608	-0.53285094	-21.90991392
0.53	53	-0.007	-1.019	-0.033	-0.859437	-5.9587632	3.3804522	84.0815865	-0.572958	-21.96720972
0.54	54	0.011	-1.023	-0.053	-1.145916	-6.3598338	2.4637194	84.07012734	-0.6016059	-22.0302351
0.55	55	0.015	-1.019	-0.056	-1.5469866	-6.4171296	1.3750992	84.07585692	-0.6016059	-22.0875309
0.56	56	0.01	-1.014	-0.049	-1.0313244	-6.9900876	0.8021412	84.07012734	-0.61306506	-22.15628586
0.57	57	0	-1.011	-0.049	0	-8.4224826	1.2032118	84.07012734	-0.6302538	-22.23649998
0.58	58	-0.009	-1.005	-0.063	0.1718874	-10.6570188	2.3491278	84.07585692	-0.66463128	-22.33963242
0.59	59	-0.018	-0.992	-0.069	-1.8907614	-13.2926256	3.724227	84.05866818	-0.71046792	-22.46568318
0.6	60	-0.021	-0.97	-0.075	-5.6149884	-16.7303736	4.1252976	84.00710196	-0.76776372	-22.631841
0.61	61	-0.026	-0.941	-0.088	-7.6776372	-20.7983754	3.2085648	83.93261742	-0.81360036	-22.8323763
0.62	62	-0.036	-0.899	-0.098	-7.6203414	-25.9549974	1.145916	83.86386246	-0.84797784	-23.08447782
0.63	63	-0.049	-0.863	-0.099	-6.4744254	-31.1689152	-1.6615782	83.80656666	-0.85370742	-23.39960472
0.64	64	-0.061	-0.84	-0.089	-7.6776372	-34.4920716	-4.9274388	83.7378117	-0.83651868	-23.74337952
0.65	65	-0.071	-0.833	-0.078	-12.4331886	-35.0650296	-8.0787078	83.6232201	-0.79068204	-24.09861348
0.66	66	-0.07	-0.847	-0.066	-17.8762896	-33.518043	-10.8289062	83.44560312	-0.71046792	-24.44238828
0.67	67	-0.065	-0.883	-0.042	-20.7983754	-30.4813656	-13.750992	83.24506782	-0.60733548	-24.76324476
0.68	68	-0.065	-0.938	0.008	-20.2827132	-27.6165756	-15.4125702	83.04453252	-0.48128472	-25.05545334
0.69	69	-0.068	-0.998	0.047	-18.3919518	-24.5798982	-16.1574156	82.86118596	-0.3437748	-25.31901402
0.7	70	-0.069	-1.059	0.052	-17.475219	-21.1421502	-15.6990492	82.7064873	-0.21772404	-25.54246764
0.71	71	-0.08	-1.111	0.047	-15.4125702	-19.7097552	-13.750992	82.55178864	-0.10313244	-25.7544621
0.72	72	-0.089	-1.144	0.069	-13.0634424	-19.194093	-10.7143146	82.4200083	-0.01718874	-25.96072698
0.73	73	-0.101	-1.165	0.097	-11.9175264	-19.3659804	-6.9327918	82.3054167	0.02291832	-26.16126228
0.74	74	-0.111	-1.186	0.118	-11.2872726	-19.767051	-2.9793816	82.1908251	0.03437748	-26.36179758
0.75	75	-0.116	-1.202	0.126	-10.313244	-19.8243468	0.9167328	82.11061098	0	-26.55087372
0.76	76	-0.117	-1.204	0.113	-8.880849	-20.1108258	3.7815228	82.02466728	-0.06302538	-26.74567944
0.77	77	-0.118	-1.177	0.094	-9.6829902	-20.912967	5.0420304	81.92726442	-0.13750992	-26.94621474
0.78	78	-0.12	-1.127	0.082	-11.172681	-22.2307704	5.2139178	81.8184024	-0.21199446	-27.1582092
0.79	79	-0.115	-1.084	0.078	-11.9175264	-23.8923486	5.3285094	81.7038108	-0.29220858	-27.3873924
0.8	80	-0.114	-1.057	0.066	-12.2613012	-25.8404058	5.72958	81.60640794	-0.38961144	-27.63376434
0.81	81	-0.106	-1.037	0.056	-12.318597	-27.788463	6.7609044	81.48608676	-0.49274388	-27.89732502
0.82	82	-0.096	-1.02	0.042	-13.1207382	-28.7051958	8.1360036	81.360036	-0.60733548	-28.16661528
0.83	83	-0.093	-0.993	0.037	-14.9542038	-27.6738714	9.453807	81.2167965	-0.73911582	-28.42444638
0.84	84	-0.096	-0.963	0.036	-17.0168526	-24.2934192	9.6829902	81.05063868	-0.86516658	-28.65362958
0.85	85	-0.102	-0.934	0.037	-18.5638392	-20.8556712	9.1100322	80.89021044	-0.99121734	-28.84270572
0.86	86	-0.111	-0.902	0.046	-19.7097552	-17.7044022	7.8495246	80.69540472	-1.09434978	-29.00886354
0.87	87	-0.114	-0.884	0.053	-21.0275586	-14.896908	6.1879464	80.48341026	-1.1745639	-29.14637346
0.88	88	-0.123	-0.867	0.061	-20.5691922	-12.8342592	4.1252976	80.28287496	-1.23758928	-29.26669464
0.89	89	-0.116	-0.863	0.08	-19.6524594	-11.0580894	2.1772404	80.08806924	-1.27769634	-29.37555666
0.9	90	-0.109	-0.866	0.096	-18.1627686	-10.1986524	0	79.95055932	-1.30061466	-29.47295952
0.91	91	-0.103	-0.87	0.115	-15.9855282	-9.740286	-3.0366774	79.79013108	-1.2891555	-29.57609196
0.92	92	-0.096	-0.876	0.12	-13.1207382	-8.8235532	-5.7868758	79.65835074	-1.24904844	-29.67349482
0.93	93	-0.095	-0.89	0.121	-10.6570188	-8.021412	-8.3651868	79.5552183	-1.18029348	-29.7651681
0.94	94	-0.1	-0.903	0.116	-9.3392154	-7.161975	-10.8289062	79.46354502	-1.08289062	-29.85684138
0.95	95	-0.112	-0.911	0.109	-8.4224826	-5.6722842	-13.2353298	79.42916754	-0.97975818	-29.93132592
0.96	96	-0.127	-0.92	0.112	-7.2192708	-3.8388186	-15.5844576	79.36041258	-0.8307891	-30.00008088
0.97	97	-0.142	-0.934	0.117	-6.1879464	-1.3750992	-17.475219	79.2973872	-0.66463128	-30.04591752
0.98	98	-0.153	-0.947	0.109	-6.2452422	1.718874	-19.0222056	79.23436182	-0.47555514	-30.06310626
0.99	99	-0.163	-0.965	0.101	-5.6722842	4.9274388	-20.3973048	79.17133644	-0.26929026	-30.0516471
1	100	-0.166	-0.977	0.092	-3.724227	7.5630456	-20.6837838	79.1827956	-0.08021412	-30.01154004
1.01	101	-0.159	-0.995	0.095	-1.3750992	10.1986524	-20.9702628	79.16560686	0.13178034	-29.95424424
1.02	102	-0.151	-1.019	0.084	0.4010706	12.6623718	-21.199446	79.17133644	0.36096354	-29.86830054
1.03	103	-0.139	-1.053	0.075	2.0626488	13.2353298	-20.7983754	79.18852518	0.58441716	-29.77662726
1.04	104	-0.114	-1.086	0.076	3.3231564	13.6936962	-19.8243468	79.22290266	0.8021412	-29.6792244
1.05	105	-0.095	-1.122	0.062	4.6409598	13.750992	-18.2773602	79.2973872	0.99121734	-29.57036238
1.06	106	-0.098	-1.152	0.05	4.8128472	12.6623718	-16.7303736	79.34895342	1.18029348	-29.4786891
1.07	107	-0.115	-1.165	0.046	1.8334656	9.740286	-15.756345	79.36614216	1.3464513	-29.40993414
1.08	108	-0.133	-1.16	0.048	-2.005353	3.6669312	-15.2979786	79.34895342	1.50114996	-29.40420456
1.09	109	-0.128	-1.177	0.029	-6.016059	-2.578311	-14.2093584	79.28592804	1.63865988	-29.45577078
1.1	110	-0.119	-1.218	0.002	-6.4171296	-11.9748222	-10.886202	79.23436182	1.71314442	-29.58755112
1.11	111	-0.102	-1.266	-0.018	-3.2658606	-18.2200644	-6.8182002	79.19425476	1.75325148	-29.78235684
1.12	112	-0.075	-1.288	-0.095	3.437748	-14.3812458	-3.151269	79.22863224	1.75898106	-29.92559634
1.13	113	-0.069	-1.314	-0.164	13.4072172	-8.4797784	1.0313244	79.36041258	1.73606274	-30.00581046
1.14	114	-0.067	-1.371	-0.132	20.5118964	-6.7036086	6.4744254	79.57240704	1.66730778	-30.05737668
1.15	115	-0.065	-1.399	-0.079	19.2513888	-6.589017	12.6623718	79.77294234	1.52979786	-30.09748374
1.16	116	-0.07	-1.374	-0.074	17.5325148	-4.297185	17.3033316	79.95055932	1.35791046	-30.1089429
1.17	117	-0.081	-1.332	-0.053	18.621135	-2.8074942	19.3086846	80.13963546	1.16310474	-30.10321332
1.18	118	-0.113	-1.267	-0.049	21.199446	-0.9740286	17.8189938	80.3573595	0.99121734	-30.080295
1.19	119	-0.168	-1.166	-0.074	25.210152	4.2398892	12.9488508	80.6151906	0.87089616	-30.01726962
1.2	120	-0.208	-1.054	-0.078	30.7678446	10.3705398	5.8441716	80.9303175	0.8021412	-29.90267802
1.21	121	-0.227	-0.96	-0.08	34.7212548	17.2460358	-1.9480572	81.28555146	0.84797784	-29.73079062
1.22	122	-0.243	-0.878	-0.105	35.809875	23.7204612	-8.3651868	81.646515	0.96256944	-29.507337
1.23	123	-0.246	-0.804	-0.132	35.8671708	29.6792244	-12.5477802	82.01320812	1.12299768	-29.23231716
1.24	124	-0.224	-0.753	-0.142	36.382833	35.1796212	-12.7769634	82.38563082	1.2891555	-28.89427194
1.25	125	-0.169	-0.723	-0.151	36.7266078	40.5081306	-10.8289062	82.75232394	1.432395	-28.51039008
1.26	126	-0.081	-0.702	-0.156	35.4088044	46.2950064	-7.6203414	83.11901706	1.55271618	-28.05775326
1.27	127	0.014	-0.691	-0.153	31.8564648	50.3057124	-3.7815228	83.4513327	1.63865988	-27.56500938
1.28	128	0.099	-0.682	-0.169	26.2987722	51.3370368	0.2291832	83.72635254	1.67876694	-27.05507676
1.29	129	0.158	-0.68	-0.184	20.3973048	49.4462754	4.8128472	83.938347	1.67303736	-26.56233288
1.3	130	0.184	-0.692	-0.19	15.6417534	44.8626114	9.740286	84.09304566	1.62720072	-26.10969606
1.31	131	0.175	-0.745	-0.201	11.45916	37.528749	16.6730778	84.21909642	1.4896908	-25.72008462
1.32	132	0.156	-0.82	-0.211	8.880849	28.6479	23.8350528	84.3107697	1.27196676	-25.41641688
1.33	133	0.145	-0.906	-0.213	6.1879464	20.3973048	30.7105488	84.37952466	0.98548776	-25.1815041
1.34	134	0.132	-0.979	-0.202	2.5210152	11.8602306	35.6952834	84.40244298	0.64171296	-25.03253502
1.35	135	0.119	-1.018	-0.175	-1.4896908	4.6409598	37.0703826	84.37379508	0.29220858	-24.9523209
1.36	136	0.111	-1.029	-0.153	-3.3231564	0.572958	33.9764094	84.34514718	-0.04010706	-24.91221384
1.37	137	0.09	-1.024	-0.133	-1.432395	-1.4896908	27.1009134	84.32795844	-0.30939732	-24.90075468
1.38	138	0.051	-1.023	-0.11	4.8128472	-2.4637194	18.1627686	84.37952466	-0.4870143	-24.91221384
1.39	139	0.019	-1.043	-0.104	14.32395	-3.4950438	7.3338624	84.52276416	-0.56149884	-24.93513216
1.4	140	-0.008	-1.079	-0.104	20.912967	-5.2139178	0.3437748	84.73475862	-0.56722842	-24.98669838
1.41	141	-0.027	-1.113	-0.08	23.4339822	-6.9327918	-2.4637194	84.97540098	-0.5443101	-25.05545334
1.42	142	-0.039	-1.12	-0.058	23.0329116	-7.161975	-3.2085648	85.21031376	-0.5156622	-25.1242083
1.43	143	-0.032	-1.118	-0.033	20.6837838	-4.1252976	-3.437748	85.42230822	-0.48128472	-25.17004494
1.44	144	-0.022	-1.109	-0.011	17.2460358	-0.1145916	-3.3804522	85.59419562	-0.44690724	-25.17004494
1.45	145	-0.016	-1.085	0.001	13.4072172	4.2398892	-4.1825934	85.74889428	-0.4010706	-25.12993788
1.46	146	-0.01	-1.056	0.01	11.1153852	8.307891	-5.5003968	85.8577563	-0.3437748	-25.04972376
1.47	147	-0.015	-1.045	0.009	9.5111028	11.1153852	-6.9327918	85.95515916	-0.26929026	-24.94086174
1.48	148	-0.013	-1.034	-0.002	7.7922288	12.032118	-7.7922288	86.0296437	-0.18334656	-24.82627014
1.49	149	0.012	-1.018	-0.007	6.0733548	10.5424272	-8.2505952	86.09266908	-0.09740286	-24.72886728
1.5	150	0.041	-1.001	0	4.297185	6.9327918	-8.3651868	86.15569446	0.00572958	-24.66011232
1.51	151	0.072	-0.985	0.014	2.291832	2.291832	-8.3651868	86.17861278	0.09167328	-24.64292358
1.52	152	0.105	-0.964	0.029	0.572958	-2.8074942	-8.1932994	86.18434236	0.1718874	-24.67730106
1.53	153	0.136	-0.942	0.036	0.859437	-8.7089616	-7.5630456	86.19580152	0.24064236	-24.76324476
1.54	154	0.127	-0.925	0.05	1.9480572	-14.896908	-7.3911582	86.21871984	0.30939732	-24.91794342
1.55	155	0.113	-0.906	0.07	4.010706	-20.912967	-7.1046792	86.28174522	0.38961144	-25.1242083
1.56	156	0.092	-0.881	0.098	6.1306506	-26.5279554	-6.3598338	86.3447706	0.44690724	-25.38776898
1.57	157	0.061	-0.861	0.125	7.9068204	-30.1375908	-5.3285094	86.4307143	0.4870143	-25.69143672
1.58	158	0.037	-0.851	0.15	9.8548776	-31.4553942	-3.6669312	86.52811716	0.5156622	-26.00083404
1.59	159	0.015	-0.853	0.169	11.3445684	-30.8251404	-1.7761698	86.64843834	0.52712136	-26.30450178
1.6	160	-0.005	-0.871	0.181	10.2559482	-29.1062664	0.7448454	86.79167784	0.50993262	-26.59098078
1.61	161	-0.035	-0.885	0.184	6.9900876	-27.3873924	3.4950438	86.86616238	0.46982556	-26.85454146
1.62	162	-0.045	-0.898	0.182	4.010706	-26.069589	6.4171296	86.90626944	0.39534102	-27.11237256
1.63	163	-0.046	-0.918	0.186	3.3231564	-24.5226024	10.3705398	86.94064692	0.286479	-27.34728534
1.64	164	-0.033	-0.933	0.189	2.86479	-24.0069402	14.037471	86.9750244	0.1432395	-27.57646854
1.65	165	-0.014	-0.942	0.195	2.8074942	-24.5226024	16.902261	87.04377936	-0.02291832	-27.80565174
1.66	166	0.008	-0.949	0.194	3.0939732	-24.5798982	19.0795014	87.07815684	-0.21772404	-28.04056452
1.67	167	0.038	-0.959	0.183	3.151269	-25.210152	20.340009	87.1182639	-0.42398892	-28.28120688
1.68	168	0.064	-0.962	0.18	2.1772404	-27.0436176	20.5118964	87.1469118	-0.63598338	-28.53903798
1.69	169	0.101	-0.959	0.163	1.0886202	-30.4240698	20.1681216	87.16410054	-0.84224826	-28.83124656
1.7	170	0.13	-0.957	0.152	0.0572958	-35.0650296	19.1367972	87.2042076	-1.01413566	-29.1635622
1.71	171	0.157	-0.955	0.16	0.4010706	-40.4508348	17.475219	87.22139634	-1.19748222	-29.55317364
1.72	172	0.15	-0.964	0.177	1.8334656	-46.5241896	14.8396122	87.25577382	-1.35218088	-30.01154004
1.73	173	0.129	-0.992	0.214	0.859437	-53.1705024	12.1467096	87.28442172	-1.48396122	-30.52720224
1.74	174	0.091	-1.028	0.248	-6.9900876	-60.3324774	9.3392154	87.23858508	-1.59282324	-31.12307856
1.75	175	0.023	-1.037	0.243	-13.6936962	-65.9474658	6.3598338	87.15264138	-1.6615782	-31.7705211
1.76	176	-0.042	-1.051	0.254	-15.469866	-65.9474658	3.3231564	87.02086104	-1.71314442	-32.42369322
1.77	177	-0.102	-1.067	0.247	-15.183387	-59.8168152	0.572958	86.89481028	-1.73606274	-33.01383996
1.78	178	-0.127	-1.087	0.241	-11.5737516	-50.7640788	-2.3491278	86.79740742	-1.72460358	-33.518043
1.79	179	-0.119	-1.117	0.243	-7.5630456	-39.9924684	-6.0733548	86.74011162	-1.67876694	-33.9191136
1.8	180	-0.112	-1.153	0.248	-7.5057498	-31.51269	-8.6516658	86.70000456	-1.6042824	-34.2342405
1.81	181	-0.113	-1.179	0.228	-10.1413566	-26.9863218	-10.4278356	86.60833128	-1.51260912	-34.50926034
1.82	182	-0.118	-1.199	0.192	-13.8082878	-23.7204612	-12.605076	86.47655094	-1.39801752	-34.75563228
1.83	183	-0.115	-1.202	0.106	-13.0634424	-19.7097552	-15.8709366	86.35050018	-1.24331886	-34.96189716
1.84	184	-0.096	-1.207	0.001	-2.1772404	-17.5898106	-20.2254174	86.33331144	-1.05424272	-35.14524372
1.85	185	-0.085	-1.253	-0.067	15.3552744	-17.2460358	-25.7258142	86.49373968	-0.8021412	-35.32859028
1.86	186	-0.104	-1.377	-0.114	29.8511118	-14.9542038	-32.945085	86.803137	-0.48128472	-35.4947481
1.87	187	-0.119	-1.486	-0.156	34.2055926	-11.1153852	-40.393539	87.1469118	-0.08021412	-35.62079886
1.88	188	-0.119	-1.516	-0.186	33.6326346	-8.9381448	-45.83664	87.4906866	0.3724227	-35.7239313
1.89	189	-0.097	-1.481	-0.166	31.8564648	-8.7089616	-46.3523022	87.81154308	0.8307891	-35.82706374
1.9	190	-0.042	-1.416	-0.154	31.9710564	-7.2192708	-42.5707794	88.13239956	1.25477802	-35.90727786
1.91	191	0.009	-1.302	-0.189	33.6326346	-7.734933	-35.4661002	88.47044478	1.61001198	-35.99322156
1.92	192	0.042	-1.136	-0.218	32.0283522	-12.5477802	-27.1009134	88.79703084	1.88503182	-36.11927232
1.93	193	0.065	-0.965	-0.252	26.6998428	-20.1108258	-19.1367972	89.06059152	2.07983754	-36.31407804
1.94	194	0.083	-0.826	-0.263	22.5745452	-27.4446882	-12.5477802	89.28404514	2.2058883	-36.58909788
1.95	195	0.09	-0.744	-0.213	19.0222056	-31.2835068	-7.734933	89.45020296	2.29756158	-36.8984952
1.96	196	0.105	-0.696	-0.14	13.6364004	-32.3148312	-4.6982556	89.5819833	2.3491278	-37.2136221
1.97	197	0.116	-0.696	-0.101	7.7922288	-32.085648	-3.151269	89.65073826	2.38923486	-37.53447858
1.98	198	0.111	-0.728	-0.088	1.0313244	-32.085648	-2.2345362	89.65073826	2.41788276	-37.84960548
1.99	199	0.074	-0.773	-0.087	-6.589017	-30.9970278	-2.005353	89.57625372	2.44653066	-38.1590028
2	200	0.009	-0.821	-0.083	-13.6364004	-26.9863218	-3.0366774	89.41582548	2.46944898	-38.42829306
2.01	201	-0.063	-0.884	-0.091	-18.6784308	-20.2254174	-4.9847346	89.21529018	2.5210152	-38.63455794
2.02	202	-0.138	-0.967	-0.101	-20.6837838	-12.4331886	-6.7036086	89.00329572	2.58977016	-38.7606087
2.03	203	-0.191	-1.024	-0.101	-20.9702628	-4.3544808	-7.1046792	88.79130126	2.65852512	-38.80644534
2.04	204	-0.231	-1.037	-0.09	-18.334656	3.151269	-5.7868758	88.60222512	2.71582092	-38.77779744
2.05	205	-0.254	-1.018	-0.064	-12.7769634	7.1046792	-3.151269	88.44752646	2.64133638	-38.72623122
2.06	206	-0.276	-1.01	-0.04	-6.1879464	9.1100322	-0.0572958	88.38450108	2.64133638	-38.63455794
2.07	207	-0.302	-1.01	-0.038	-0.572958	9.9694692	2.4064236	88.38450108	2.61841806	-38.53715508
2.08	208	-0.234	-1.011	-0.011	3.437748	11.2872726	5.5003968	88.42460814	2.56112226	-38.42256348
2.09	209	-0.239	-1.004	0.008	0.286479	14.2666542	6.6463128	88.43033772	2.4923673	-38.27932398
2.1	210	-0.218	-1.006	0.019	0	17.5325148	6.1879464	88.4360673	2.36631654	-38.10743658
2.11	211	-0.204	-1.017	0.026	2.4064236	20.3973048	5.6149884	88.4647152	2.30902074	-37.90690128
2.12	212	-0.114	-1.008	0.041	6.6463128	22.1161788	5.7868758	88.53919974	2.25172494	-37.68344766
2.13	213	-0.041	-1.033	0.057	7.1046792	23.0902074	8.3651868	88.61941386	2.16578124	-37.45426446
2.14	214	0.027	-1.01	0.064	2.3491278	23.0902074	9.9121734	88.64806176	2.06837838	-37.22508126
2.15	215	0.059	-0.983	0.065	2.1199446	23.4339822	9.2246238	88.6938984	1.98816426	-36.9844389
2.16	216	0.078	-0.947	0.067	0.286479	24.350715	7.734933	88.69962798	1.90795014	-36.74379654
2.17	217	0.09	-0.931	0.073	-2.1199446	24.4653066	5.7868758	88.68243924	1.85065434	-36.4974246
2.18	218	0.058	-0.918	0.086	-6.016059	22.5172494	3.9534102	88.62514344	1.81054728	-36.27397098
2.19	219	0.025	-0.908	0.09	-9.740286	19.5951636	2.4637194	88.53347016	1.78189938	-36.08489484
2.2	220	-0.022	-0.908	0.095	-11.745639	16.8449652	0.8021412	88.4360673	1.75898106	-35.91300744
2.21	221	-0.062	-0.91	0.105	-12.032118	15.183387	-0.9740286	88.31574612	1.77044022	-35.76403836
2.22	222	-0.103	-0.918	0.117	-12.4904844	14.32395	-3.0366774	88.19542494	1.79908812	-35.62652844
2.23	223	-0.133	-0.921	0.122	-12.891555	13.9228794	-5.5576926	88.0636446	1.85638392	-35.48901852
2.24	224	-0.145	-0.923	0.132	-12.4331886	14.5531332	-7.734933	87.93759384	1.93086846	-35.3515086
2.25	225	-0.142	-0.931	0.135	-11.5737516	15.9855282	-9.8548776	87.85165014	1.99962342	-35.19680994
2.26	226	-0.124	-0.933	0.144	-10.1986524	17.5898106	-11.0580894	87.75424728	2.11421502	-35.02492254
2.27	227	-0.091	-0.927	0.148	-7.5057498	19.1367972	-11.172681	87.67976274	2.22307704	-34.84157598
2.28	228	-0.064	-0.906	0.147	-5.3858052	20.2254174	-11.1153852	87.62819652	2.33766864	-34.64677026
2.29	229	-0.042	-0.873	0.156	-3.8961144	21.8296998	-11.3445684	87.59954862	2.45226024	-34.4347758
2.3	230	-0.028	-0.83	0.145	-2.005353	23.8350528	-11.5164558	87.61100778	2.56112226	-34.19986302
2.31	231	-0.041	-0.803	0.14	0.572958	24.5226024	-11.8029348	87.62246694	2.68144344	-33.95922066
2.32	232	-0.072	-0.802	0.14	1.2032118	23.204799	-11.5164558	87.63965568	2.80176462	-33.73576704
2.33	233	-0.122	-0.822	0.141	0	19.9389384	-10.5424272	87.64538526	2.91062664	-33.54096132
2.34	234	-0.174	-0.86	0.154	-1.3750992	17.2460358	-9.740286	87.63965568	3.0080295	-33.3748035
2.35	235	-0.191	-0.919	0.147	-1.8334656	15.6990492	-8.4224826	87.66830358	3.01948866	-33.22010484
2.36	236	-0.167	-1.01	0.138	-0.572958	13.6936962	-6.4744254	87.66830358	3.08824362	-33.0883245
2.37	237	-0.091	-1.108	0.112	0.286479	15.1260912	-4.6409598	87.67976274	3.13408026	-32.93935542
2.38	238	0.021	-1.152	0.099	2.6356068	17.0168526	-3.6669312	87.71414022	3.17418732	-32.7731976
2.39	239	0.098	-1.188	0.17	3.3804522	13.9228794	-2.5210152	87.75424728	3.20283522	-32.63568768
2.4	240	0.14	-1.176	0.235	-0.1145916	4.870143	-1.4896908	87.82873182	3.24867186	-32.5726623
2.41	241	0.164	-1.147	0.283	-7.3338624	-2.291832	-2.005353	87.75424728	3.27159018	-32.59558062
2.42	242	0.143	-1.131	0.23	-11.9175264	-7.448454	-2.0626488	87.62819652	3.28877892	-32.67579474
2.43	243	0.098	-1.175	0.176	-8.880849	-13.6364004	0.8021412	87.53652324	3.27731976	-32.81330466
2.44	244	0.028	-1.252	0.091	-0.859437	-13.3499214	6.7036086	87.5193345	3.2085648	-32.93935542
2.45	245	-0.041	-1.323	0.009	5.0993262	-9.8548776	13.1207382	87.56517114	3.07105488	-33.0310287
2.46	246	-0.089	-1.408	-0.058	9.2246238	-8.4797784	20.626488	87.65684442	2.86479	-33.10551324
2.47	247	-0.095	-1.491	-0.121	15.4125702	-9.5683986	29.7365202	87.81154308	2.56685184	-33.19145694
2.48	248	-0.073	-1.529	-0.132	24.923673	-11.9748222	39.0757356	88.0636446	2.18296998	-33.29458938
2.49	249	-0.029	-1.503	-0.086	32.7731976	-10.8289062	46.409598	88.39596024	1.72460358	-33.38626266
2.5	250	0	-1.39	-0.065	34.663959	-7.1046792	49.274388	88.74546462	1.23758928	-33.44355846
2.51	251	-0.02	-1.242	-0.08	30.5959572	-1.8907614	45.4928652	89.06059152	0.78495246	-33.44928804
2.52	252	-0.075	-1.039	-0.08	26.1841806	0.4583664	36.4401288	89.3241522	0.42398892	-33.43782888
2.53	253	-0.129	-0.887	-0.089	22.5172494	3.6669312	26.7571386	89.5533354	0.16042824	-33.39772182
2.54	254	-0.17	-0.782	-0.146	15.9282324	9.740286	17.5898106	89.71376364	-0.01145916	-33.29458938
2.55	255	-0.174	-0.724	-0.174	8.3651868	16.9595568	10.9434978	89.76532986	-0.14896908	-33.13416114
2.56	256	-0.136	-0.716	-0.179	2.0626488	23.777757	7.6203414	89.7825186	-0.2291832	-32.89924836
2.57	257	-0.075	-0.736	-0.164	-2.1772404	28.7624916	7.161975	89.7538707	-0.30939732	-32.61276936
2.58	258	0.003	-0.777	-0.136	-5.7868758	30.7678446	8.0787078	89.69084532	-0.39534102	-32.30910162
2.59	259	0.072	-0.828	-0.134	-9.8548776	30.1948866	9.3965112	89.5819833	-0.49847346	-32.01116346
2.6	260	0.131	-0.902	-0.155	-14.4385416	26.5852512	10.7716104	89.40436632	-0.59014674	-31.75333236
2.61	261	0.156	-0.976	-0.181	-19.194093	20.4546006	12.7196676	89.20383102	-0.72192708	-31.55279706
2.62	262	0.168	-1.034	-0.191	-23.3193906	11.2299768	15.8709366	88.96318866	-0.88235532	-31.43820546
2.63	263	0.165	-1.055	-0.183	-24.5798982	0	19.0795014	88.71108714	-1.07143146	-31.43820546
2.64	264	0.154	-1.046	-0.152	-22.1161788	-9.740286	20.7410796	88.4933631	-1.28342592	-31.53560832
2.65	265	0.134	-1.016	-0.113	-18.7930224	-15.5271618	19.4232762	88.2928278	-1.45531332	-31.6845774
2.66	266	0.096	-0.978	-0.063	-16.3865988	-18.2773602	15.5844576	88.13239956	-1.61001198	-31.86219438
2.67	267	0.055	-0.952	-0.039	-13.2926256	-19.4232762	8.021412	88.0063488	-1.69595568	-32.05127052
2.68	268	0.046	-0.966	-0.03	-8.880849	-18.2200644	-1.6615782	87.92613468	-1.67876694	-32.23461708
2.69	269	0.039	-1.002	-0.033	-6.8182002	-16.902261	-8.7089616	87.8631093	-1.59282324	-32.40650448
2.7	270	0.033	-1.031	-0.016	-5.156622	-16.7303736	-13.5218088	87.81727266	-1.44958374	-32.57839188
2.71	271	0.018	-1.043	0.006	-3.3804522	-16.2720072	-15.6990492	87.78862476	-1.29488508	-32.7445497
2.72	272	-0.002	-1.044	0.04	-3.2085648	-15.9282324	-15.8136408	87.76570644	-1.14018642	-32.91070752
2.73	273	-0.015	-1.029	0.067	-4.9274388	-15.469866	-14.2093584	87.7198698	-1.0026765	-33.06540618
2.74	274	-0.022	-1.008	0.071	-6.7609044	-15.5271618	-11.745639	87.65684442	-0.8880849	-33.22583442
2.75	275	-0.018	-0.989	0.066	-6.8182002	-15.6990492	-9.167328	87.61100778	-0.79641162	-33.38626266
2.76	276	-0.005	-0.966	0.048	-5.72958	-16.329303	-6.875496	87.55944156	-0.72765666	-33.5466909
2.77	277	-0.002	-0.948	0.036	-5.3858052	-17.0741484	-5.6722842	87.50787534	-0.67609044	-33.7185783
2.78	278	-0.006	-0.931	0.035	-5.9014674	-17.9908812	-4.9847346	87.45057954	-0.6302538	-33.90192486
2.79	279	-0.006	-0.926	0.037	-6.2452422	-18.5065434	-4.2398892	87.39328374	-0.59014674	-34.08527142
2.8	280	0.002	-0.932	0.045	-6.1879464	-18.9649098	-3.151269	87.35317668	-0.55576926	-34.27434756
2.81	281	0.021	-0.941	0.058	-7.161975	-19.9389384	-1.718874	87.28442172	-0.5443101	-34.47488286
2.82	282	0.051	-0.938	0.082	-9.3392154	-20.8556712	0.5156622	87.19274844	-0.55576926	-34.68114774
2.83	283	0.055	-0.934	0.1	-10.4851314	-22.2880662	2.005353	87.09534558	-0.57868758	-34.89887178
2.84	284	0.056	-0.921	0.119	-10.886202	-23.777757	3.3231564	86.98648356	-0.61879464	-35.13378456
2.85	285	0.051	-0.895	0.13	-10.6570188	-24.8090814	4.4690724	86.92345818	-0.6589017	-35.37442692
2.86	286	0.041	-0.868	0.145	-8.4224826	-25.78311	5.443101	86.84324406	-0.72192708	-35.62652844
2.87	287	0.027	-0.85	0.151	-5.6149884	-26.8144344	6.589017	86.79167784	-0.79068204	-35.89008912
2.88	288	0.016	-0.845	0.147	-3.6096354	-27.215505	7.734933	86.76302994	-0.87662574	-36.15937938
2.89	289	0.007	-0.842	0.14	-2.005353	-27.4446882	8.880849	86.75157078	-0.9740286	-36.42294006
2.9	290	0.005	-0.842	0.133	-0.4010706	-27.4446882	10.1986524	86.78594826	-1.07716104	-36.68650074
2.91	291	0.009	-0.839	0.126	1.432395	-27.3873924	11.4018642	86.80886658	-1.19748222	-36.95006142
2.92	292	0.02	-0.829	0.13	3.5523396	-28.6479	12.2040054	86.85470322	-1.32926256	-37.23081084
2.93	293	0.035	-0.816	0.161	5.3858052	-30.7105488	12.891555	86.92345818	-1.4610429	-37.52301942
2.94	294	0.051	-0.817	0.179	6.7036086	-31.9137606	13.2926256	87.0036723	-1.6042824	-37.83241674
2.95	295	0.081	-0.847	0.164	8.021412	-32.2575354	13.0061466	87.12972306	-1.718874	-38.14181406
2.96	296	0.105	-0.888	0.154	8.7662574	-30.939732	11.8602306	87.2328555	-1.83919518	-38.4454818
2.97	297	0.117	-0.953	0.162	8.880849	-28.9916748	9.8548776	87.33598794	-1.94232762	-38.72623122
2.98	298	0.092	-1.026	0.135	8.5370742	-26.8717302	6.9327918	87.4333908	-2.01681216	-38.98406232
2.99	299	0.027	-1.057	0.118	9.2246238	-25.8404058	4.0680018	87.54225282	-2.0626488	-39.24189342
3	300	-0.042	-1.058	0.142	11.172681	-22.2307704	1.7761698	87.70268106	-2.07983754	-39.45388788
3.01	301	-0.086	-1.037	0.156	11.0580894	-14.7823164	-0.859437	87.82300224	-2.07410796	-39.60285696
3.02	302	-0.098	-0.998	0.169	9.3965112	-5.0420304	-4.1825934	87.9204051	-2.0340009	-39.65442318
3.03	303	-0.091	-0.968	0.169	6.1879464	1.432395	-7.9641162	87.98343048	-1.95378678	-39.63723444
3.04	304	-0.089	-0.978	0.136	2.4637194	1.7761698	-11.3445684	88.01207838	-1.83919518	-39.62577528
3.05	305	-0.092	-1.022	0.047	-2.005353	-2.7501984	-14.610429	88.00061922	-1.71314442	-39.66015276
3.06	306	-0.073	-1.107	0	-3.151269	-0.286479	-19.2513888	87.96624174	-1.5183387	-39.66588234
3.07	307	-0.053	-1.254	-0.06	3.151269	14.9542038	-26.1841806	87.99488964	-1.2605076	-39.52837242
3.08	308	-0.089	-1.485	-0.19	14.3812458	27.9030546	-35.809875	88.13239956	-0.89954406	-39.25908216
3.09	309	-0.17	-1.672	-0.213	26.5279554	27.3873924	-45.3782736	88.39023066	-0.44690724	-39.00125106
3.1	310	-0.222	-1.807	-0.186	34.091001	25.8404058	-53.7434604	88.73400546	0.08021412	-38.75487912
3.11	311	-0.192	-1.813	-0.171	33.2888598	26.069589	-57.4103916	89.0663211	0.65317212	-38.5027776
3.12	312	-0.127	-1.618	-0.16	26.9863218	24.350715	-51.6808116	89.34134094	1.16310474	-38.26213524
3.13	313	-0.045	-1.369	-0.162	21.772404	18.5638392	-39.820581	89.56479456	1.55844576	-38.07878868
3.14	314	0.063	-1.15	-0.196	21.0275586	10.3705398	-26.4133638	89.77678902	1.82200644	-37.97565624
3.15	315	0.147	-1.005	-0.213	20.05353	-0.0572958	-16.329303	89.9257581	2.01108258	-37.97565624
3.16	316	0.193	-0.876	-0.207	13.750992	-12.032118	-9.740286	90.06326802	2.11421502	-38.09597742
3.17	317	0.2	-0.805	-0.167	5.2712136	-20.8556712	-6.302538	90.11483424	2.18296998	-38.3022423
3.18	318	0.183	-0.77	-0.136	-2.4637194	-28.1895336	-4.6409598	90.08045676	2.24026578	-38.58299172
3.19	319	0.161	-0.76	-0.104	-8.880849	-33.4034514	-3.6669312	89.9830539	2.28037284	-38.90957778
3.2	320	0.122	-0.773	-0.079	-14.9542038	-36.1536498	-1.6615782	89.80543692	2.31475032	-39.27054132
3.21	321	0.072	-0.822	-0.068	-21.199446	-36.2682414	0.8021412	89.5819833	2.31475032	-39.63150486
3.22	322	0	-0.916	-0.062	-28.1895336	-34.2055926	3.2658606	89.28404514	2.28610242	-39.97527966
3.23	323	-0.07	-1.041	-0.084	-37.3568616	-29.0489706	4.6409598	88.90016328	2.24026578	-40.26748824
3.24	324	-0.127	-1.145	-0.113	-44.9199072	-21.6578124	4.6409598	88.4360673	2.18869956	-40.48521228
3.25	325	-0.186	-1.164	-0.11	-45.83664	-15.9855282	4.3544808	87.95478258	2.1199446	-40.6513701
3.26	326	-0.254	-1.109	-0.102	-40.5081306	-10.3705398	4.2398892	87.54225282	2.07410796	-40.75450254
3.27	327	-0.31	-1.033	-0.104	-30.939732	-3.6669312	3.6096354	87.22712592	2.0340009	-40.7946096
3.28	328	-0.346	-0.992	-0.124	-20.626488	2.2345362	3.3231564	87.02086104	1.99962342	-40.77169128
3.29	329	-0.359	-0.995	-0.128	-15.9855282	8.1932994	3.8388186	86.8604328	1.95951636	-40.69147716
3.3	330	-0.359	-0.997	-0.113	-18.4492476	12.9488508	5.3858052	86.65416792	1.8334656	-40.57115598
3.31	331	-0.321	-0.99	-0.08	-25.9549974	17.2460358	8.6516658	86.39633682	1.75325148	-40.39926858
3.32	332	-0.208	-0.974	-0.05	-27.9030546	20.4546006	12.4904844	86.1155874	1.6329303	-40.1930037
3.33	333	-0.117	-0.993	-0.024	-23.6631654	20.9702628	15.2406828	85.87494504	1.4896908	-39.97527966
3.34	334	-0.011	-1.023	-0.005	-19.7097552	20.9702628	17.0741484	85.68013932	1.32353298	-39.75755562
3.35	335	0.093	-1.037	0.022	-17.475219	19.7097552	18.1627686	85.51971108	1.1745639	-39.55129074
3.36	336	0.179	-1.011	0.043	-16.1574156	18.5638392	18.6784308	85.35928284	0.99694692	-39.35648502
3.37	337	0.229	-0.979	0.088	-16.6730778	14.9542038	17.3606274	85.18739544	0.8307891	-39.19605678
3.38	338	0.227	-0.94	0.086	-21.485925	10.3705398	15.2406828	84.9696714	0.68182002	-39.08146518
3.39	339	0.193	-0.901	0.05	-26.642547	4.4117766	11.8029348	84.70038114	0.56722842	-39.02989896
3.4	340	0.142	-0.877	0.036	-26.9863218	-1.8907614	8.7662574	84.44827962	0.49847346	-39.04135812
3.41	341	0.081	-0.89	0.05	-25.8977016	-7.161975	6.4744254	84.18471894	0.4297185	-39.11011308
3.42	342	0.022	-0.9	0.059	-25.5539268	-10.9434978	3.7815228	83.92688784	0.38388186	-39.21324552
3.43	343	-0.028	-0.903	0.062	-24.8090814	-12.891555	1.0886202	83.67478632	0.35523396	-39.34502586
3.44	344	-0.07	-0.901	0.053	-23.3766864	-14.0947668	-1.0886202	83.43987354	0.35523396	-39.48826536
3.45	345	-0.1	-0.899	0.054	-19.480572	-14.0947668	-2.8074942	83.27371572	0.34950438	-39.63150486
3.46	346	-0.104	-0.898	0.079	-15.183387	-14.2666542	-3.6096354	83.12474664	0.3724227	-39.77474436
3.47	347	-0.077	-0.884	0.127	-9.3392154	-14.2666542	-3.6669312	83.02734378	0.38961144	-39.92371344
3.48	348	-0.035	-0.851	0.157	-4.0680018	-14.3812458	-3.9534102	82.98723672	0.41825934	-40.06695294
3.49	349	-0.008	-0.813	0.155	-0.2291832	-14.32395	-4.6982556	82.98723672	0.45263682	-40.21592202
3.5	350	0.005	-0.779	0.147	2.7501984	-15.756345	-5.7868758	83.05599168	0.49847346	-40.37635026
3.51	351	0	-0.761	0.126	4.8128472	-19.8816426	-7.734933	83.1075579	0.55576926	-40.57688556
3.52	352	-0.024	-0.765	0.093	6.2452422	-24.923673	-10.4278356	83.17058328	0.63598338	-40.83471666
3.53	353	-0.052	-0.787	0.046	9.1100322	-29.507337	-13.6364004	83.26225656	0.7448454	-41.1383844
3.54	354	-0.075	-0.837	-0.006	13.3499214	-33.9764094	-16.8449652	83.39976648	0.88235532	-41.49361836
3.55	355	-0.069	-0.911	-0.026	17.3033316	-37.0130868	-19.8816426	83.57738346	1.04278356	-41.87750022
3.56	356	-0.017	-0.996	-0.052	17.3033316	-37.9871154	-22.8037284	83.74927086	1.23758928	-42.27284124
3.57	357	0.062	-1.063	-0.084	12.7196676	-38.5600734	-25.6685184	83.87532162	1.4610429	-42.67964142
3.58	358	0.162	-1.097	-0.086	7.3338624	-36.669312	-28.8197874	83.94407658	1.718874	-43.06925286
3.59	359	0.261	-1.109	-0.036	2.4637194	-31.6845774	-31.6272816	83.96126532	2.01108258	-43.41875724
3.6	360	0.313	-1.144	-0.096	-4.6409598	-26.1841806	-31.226211	83.90396952	2.3204799	-43.70523624
3.61	361	0.277	-1.225	-0.219	-14.610429	-26.0122932	-25.0955604	83.74927086	2.54393352	-43.99171524
3.62	362	0.151	-1.427	-0.363	-21.199446	-35.0077338	-9.9121734	83.52008766	2.61268848	-44.3469492
3.63	363	0.014	-1.701	-0.411	-18.9649098	-51.279741	12.6623718	83.31382278	2.44080108	-44.83969308
3.64	364	-0.08	-1.789	-0.32	-7.1046792	-58.4990118	30.4813656	83.22787908	2.0912967	-45.38400318
3.65	365	-0.099	-1.574	-0.201	11.5737516	-58.0979412	35.5806918	83.3367411	1.68449652	-45.91685412
3.66	366	-0.132	-1.289	-0.156	22.2880662	-51.1651494	33.0596766	83.55446514	1.3178034	-46.3809501
3.67	367	-0.218	-1.02	-0.234	16.7303736	-40.3362432	23.491278	83.72635254	1.05424272	-46.7533728
3.68	368	-0.221	-0.809	-0.258	6.0733548	-34.37748	9.3392154	83.78364834	0.93392154	-47.07995886
3.69	369	-0.142	-0.722	-0.247	-2.6356068	-35.523396	-2.1772404	83.75500044	0.92246238	-47.43519282
3.7	370	0.001	-0.808	-0.255	-10.8289062	-41.4248634	-7.5630456	83.61749052	0.96829902	-47.85345216
3.71	371	0.125	-0.978	-0.275	-20.1108258	-50.0765292	-5.0420304	83.41122564	0.9740286	-48.35192562
3.72	372	0.231	-1.123	-0.293	-25.1528562	-58.8427866	1.432395	83.15339454	0.90527364	-48.93634278
3.73	373	0.312	-1.126	-0.266	-21.7151082	-64.8588456	5.72958	82.9356705	0.79068204	-49.56659658
3.74	374	0.365	-1.032	-0.2	-14.5531332	-68.75496	3.4950438	82.78670142	0.6875496	-50.24268702
3.75	375	0.328	-0.98	-0.148	-11.745639	-71.7916374	-5.0993262	82.66638024	0.69327918	-50.95315494
3.76	376	0.237	-1.005	-0.155	-12.8342592	-74.3699484	-14.037471	82.5345999	0.75630456	-51.70372992
3.77	377	0.176	-1.027	-0.171	-12.891555	-78.1514712	-20.7410796	82.40281956	0.88235532	-52.50014154
3.78	378	0.172	-1.003	-0.149	-11.5737516	-84.5686008	-25.2674478	82.28249838	1.03705398	-53.36530812
3.79	379	0.198	-0.968	-0.108	-10.4278356	-92.532717	-28.1895336	82.16790678	1.21467096	-54.3164184
3.8	380	0.231	-0.934	-0.067	-10.599723	-98.0904096	-29.1635622	82.05331518	1.41520626	-55.3190949
3.81	381	0.254	-0.905	-0.056	-11.8602306	-100.840608	-28.7051958	81.92153484	1.58136408	-56.3504193
3.82	382	0.241	-0.895	-0.052	-12.2040054	-102.7886652	-27.9603504	81.77829534	1.74179232	-57.39893244
3.83	383	0.2	-0.916	-0.041	-11.2872726	-104.2210602	-27.4446882	81.646515	1.8907614	-58.46463432
3.84	384	0.152	-0.954	-0.044	-10.3705398	-105.3096804	-27.4446882	81.51473466	2.0340009	-59.53606578
3.85	385	0.112	-0.982	-0.041	-8.1360036	-106.1691174	-27.9030546	81.41160222	2.18869956	-60.6189564
3.86	386	0.068	-1.005	-0.033	-4.4117766	-106.6274838	-28.2468294	81.33711768	2.33193906	-61.7075766
3.87	387	0.048	-1.01	-0.036	-1.5469866	-108.1744704	-27.3873924	81.29128104	2.46944898	-62.81338554
3.88	388	0.052	-0.985	-0.051	-0.5156622	-110.294415	-25.0955604	81.25117398	2.58404058	-63.93065364
3.89	389	0.071	-0.951	-0.054	-0.3437748	-111.8986974	-22.5172494	81.21106692	2.6642547	-65.06511048
3.9	390	0.109	-0.918	-0.067	0.1718874	-113.3310924	-20.1108258	81.17668944	2.72728008	-66.2052969
3.91	391	0.154	-0.897	-0.071	0.3437748	-114.8207832	-18.334656	81.14231196	2.76738714	-67.36267206
3.92	392	0.201	-0.878	-0.068	0	-117.2845026	-17.2460358	81.09647532	2.79030546	-68.53723596
3.93	393	0.245	-0.866	-0.061	-0.7448454	-120.9514338	-16.2147114	81.0449091	2.79603504	-69.75190692
3.94	394	0.287	-0.857	-0.056	-1.145916	-126.05076	-14.9542038	80.9876133	2.7788463	-71.01241452
3.95	395	0.307	-0.851	-0.032	-0.1718874	-132.8116644	-13.6936962	80.94750624	2.76165756	-72.3359475
3.96	396	0.305	-0.856	-0.007	2.578311	-139.0569066	-12.1467096	80.9303175	2.70436176	-73.71677628
3.97	397	0.28	-0.876	-0.003	5.156622	-144.2708244	-10.7143146	80.9303175	2.62414764	-75.14917128
3.98	398	0.239	-0.903	-0.012	7.3911582	-150.5160666	-8.3651868	80.9589654	2.51528562	-76.63886208
3.99	399	0.192	-0.929	-0.012	9.740286	-156.7613088	-5.2139178	81.0162612	2.36631654	-78.18584868
4	400	0.15	-0.954	-0.011	11.1153852	-160.8293106	-1.9480572	81.09074574	2.18869956	-79.76148318
4.01	401	0.12	-0.969	-0.024	11.3445684	-160.7720148	0.4010706	81.17095986	1.98816426	-81.33711768
4.02	402	0.116	-0.974	-0.063	11.2299768	-156.7613088	1.3178034	81.25690356	1.78189938	-82.87264512
4.03	403	0.131	-0.975	-0.09	11.8602306	-150.5160666	0.7448454	81.35430642	1.58709366	-84.35087676
4.04	404	0.134	-0.981	-0.106	11.745639	-146.4480648	-0.5156622	81.45743886	1.42093584	-85.78327176
4.05	405	0.117	-0.992	-0.106	9.6829902	-143.0103168	-2.1772404	81.53765298	1.27769634	-87.19274844
4.06	406	0.058	-1	-0.127	7.6776372	-142.6092462	-2.9793816	81.60640794	1.14018642	-88.59649554
4.07	407	-0.001	-0.978	-0.136	7.2192708	-143.1822042	-2.578311	81.6751629	1.0026765	-90.00024264
4.08	408	-0.031	-0.929	-0.115	6.3598338	-143.1249084	-1.2605076	81.73818828	0.84797784	-91.40971932
4.09	409	-0.04	-0.884	-0.119	4.6982556	-143.4686832	0.9740286	81.78402492	0.67609044	-92.819196
4.1	410	-0.039	-0.852	-0.142	2.4064236	-144.0416412	5.0993262	81.81267282	0.4583664	-94.2229431
4.11	411	-0.037	-0.855	-0.16	-1.2605076	-145.4740362	10.0840608	81.80694324	0.19480572	-95.63814936
4.12	412	-0.037	-0.905	-0.177	-4.8128472	-145.7032194	12.2040054	81.77829534	-0.0859437	-97.05335562
4.13	413	-0.036	-0.993	-0.153	-7.6776372	-143.3540916	10.313244	81.72672912	-0.35523396	-98.44564356
4.14	414	-0.036	-1.103	-0.13	-10.1413566	-138.655836	5.3858052	81.65224458	-0.56722842	-99.80355402
4.15	415	-0.044	-1.187	-0.147	-11.2299768	-132.0095232	-0.6302538	81.57203046	-0.72192708	-101.0984391
4.16	416	-0.05	-1.194	-0.159	-8.1360036	-124.5610692	-5.9587632	81.52046424	-0.80787078	-102.3302988
4.17	417	-0.046	-1.122	-0.139	-3.0366774	-117.2845026	-9.740286	81.52046424	-0.85370742	-103.4991331
4.18	418	-0.042	-0.997	-0.131	0.1718874	-111.8414016	-11.1153852	81.55484172	-0.87662574	-104.6106716
4.19	419	-0.053	-0.884	-0.113	1.718874	-108.1171746	-10.3705398	81.60640794	-0.89954406	-105.6878327
4.2	420	-0.061	-0.805	-0.085	1.8907614	-105.3669762	-7.5630456	81.65797416	-0.95111028	-106.7306162
4.21	421	-0.073	-0.764	-0.058	2.3491278	-106.7420754	-3.2658606	81.70954038	-1.04278356	-107.784859
4.22	422	-0.074	-0.773	-0.034	2.6356068	-109.2057948	1.3178034	81.77256576	-1.18029348	-108.8562904
4.23	423	-0.067	-0.837	-0.037	2.2345362	-111.5549226	4.6982556	81.83559114	-1.35218088	-109.9449106
4.24	424	-0.065	-0.938	-0.042	1.8907614	-112.7008386	6.589017	81.89861652	-1.5469866	-111.04499
4.25	425	-0.05	-1.036	-0.061	2.9793816	-111.6695142	6.9900876	81.97883064	-1.74179232	-112.1336102
4.26	426	-0.022	-1.103	-0.084	5.6149884	-109.9506402	5.3858052	82.08769266	-1.91367972	-113.2050416
4.27	427	0.005	-1.12	-0.093	9.6256944	-108.3463578	1.718874	82.23666174	-2.04546006	-114.2650139
4.28	428	0.022	-1.089	-0.095	12.605076	-107.9452872	-2.291832	82.41427872	-2.13713334	-115.3307158
4.29	429	0.019	-1.036	-0.092	14.2666542	-108.9193158	-5.2712136	82.61481402	-2.19442914	-116.4078769
4.3	430	0.003	-0.983	-0.088	14.4385416	-110.4663024	-7.161975	82.8210789	-2.22307704	-117.5022266
4.31	431	-0.014	-0.941	-0.102	12.4904844	-110.867373	-7.3338624	83.00442546	-2.25745452	-118.602306
4.32	432	-0.031	-0.917	-0.1	9.6829902	-110.580894	-6.3598338	83.1648537	-2.29756158	-119.6966558
4.33	433	-0.049	-0.914	-0.098	7.2765666	-109.434978	-4.6409598	83.29663404	-2.34339822	-120.7795464
4.34	434	-0.067	-0.93	-0.106	5.9014674	-107.143146	-2.6929026	83.41695522	-2.41215318	-121.8395187
4.35	435	-0.072	-0.954	-0.12	5.2712136	-103.7626938	-0.9740286	83.52008766	-2.4923673	-122.8593839
4.36	436	-0.066	-0.978	-0.116	5.7868758	-100.554129	0.286479	83.64040884	-2.578311	-123.8506013
4.37	437	-0.054	-0.998	-0.11	6.8182002	-97.8612264	1.3750992	83.7664596	-2.66998428	-124.8131707
4.38	438	-0.038	-1.001	-0.105	7.3911582	-96.1423524	2.291832	83.89823994	-2.76738714	-125.7585514
4.39	439	-0.025	-0.982	-0.106	7.3338624	-95.9131692	3.2085648	84.03574986	-2.87624916	-126.7039321
4.4	440	-0.01	-0.951	-0.113	7.9068204	-96.7726062	3.8961144	84.1675302	-2.9793816	-127.6550424
4.41	441	0.009	-0.921	-0.13	8.4797784	-97.9185222	4.2398892	84.32222886	-3.08824362	-128.6176118
4.42	442	0.025	-0.897	-0.141	8.880849	-99.5801004	4.0680018	84.47692752	-3.19710564	-129.5916404
4.43	443	0.034	-0.886	-0.146	8.4224826	-101.8719324	3.2658606	84.63735576	-3.30023808	-130.5943169
4.44	444	0.037	-0.88	-0.147	6.7609044	-102.9032568	1.6615782	84.77486568	-3.3804522	-131.6084526
4.45	445	0.032	-0.867	-0.139	6.4744254	-103.13244	-0.1145916	84.90664602	-3.43201842	-132.6283178
4.46	446	0.018	-0.867	-0.142	6.302538	-102.273003	-1.9480572	85.04988552	-3.47212548	-133.6424535
4.47	447	0.002	-0.866	-0.154	4.9274388	-100.0384668	-3.8961144	85.1702067	-3.48931422	-134.6336708
4.48	448	-0.014	-0.857	-0.174	2.9793816	-96.4288314	-5.9014674	85.27333914	-3.48358464	-135.5905107
4.49	449	-0.032	-0.848	-0.191	0.7448454	-92.1889422	-7.448454	85.34782368	-3.46066632	-136.5072435
4.5	450	-0.057	-0.835	-0.197	-1.0886202	-87.4906866	-8.307891	85.38793074	-3.42628884	-137.3781397
4.51	451	-0.082	-0.822	-0.192	-2.6356068	-81.8756982	-8.3651868	85.41657864	-3.38618178	-138.1974696
4.52	452	-0.104	-0.804	-0.181	-4.297185	-76.776372	-7.3338624	85.4280378	-3.3518043	-138.9595037
4.53	453	-0.12	-0.789	-0.195	-6.302538	-72.3072996	-5.9014674	85.41657864	-3.32888598	-139.6814308
4.54	454	-0.133	-0.779	-0.218	-9.6256944	-67.5517482	-4.9847346	85.36501242	-3.31742682	-140.3517917
4.55	455	-0.139	-0.769	-0.217	-13.1207382	-62.5670136	-4.5263682	85.2561504	-3.31742682	-140.9763159
4.56	456	-0.139	-0.756	-0.216	-16.329303	-57.4676874	-4.870143	85.13009964	-3.30023808	-141.5492739
4.57	457	-0.134	-0.745	-0.221	-18.5065434	-51.3943326	-6.1879464	84.98113056	-3.27159018	-142.0649361
4.58	458	-0.126	-0.725	-0.243	-21.485925	-44.6334282	-7.9068204	84.79205442	-3.22002396	-142.5175729
4.59	459	-0.113	-0.696	-0.24	-24.9809688	-37.5860448	-9.3392154	84.56287122	-3.15699858	-142.8957252
4.6	460	-0.088	-0.653	-0.212	-28.3041252	-31.3980984	-9.5683986	84.2821218	-3.08824362	-143.2165817
4.61	461	-0.076	-0.605	-0.25	-30.0229992	-27.4446882	-8.8235532	83.9956428	-3.02521824	-143.5030607
4.62	462	-0.074	-0.565	-0.292	-33.0596766	-23.2620948	-7.734933	83.67478632	-2.96792244	-143.743703
4.63	463	-0.077	-0.524	-0.267	-36.5547204	-20.912967	-6.5317212	83.31382278	-2.9220858	-143.9614271
4.64	464	-0.083	-0.48	-0.248	-39.0757356	-17.6471064	-5.7868758	82.92994092	-2.88770832	-144.1447736
4.65	465	-0.077	-0.453	-0.222	-41.8832298	-15.0687954	-6.016059	82.50022242	-2.84760126	-144.3052019
4.66	466	-0.063	-0.419	-0.204	-44.8053156	-10.6570188	-7.3911582	82.05331518	-2.79030546	-144.4255231
4.67	467	-0.049	-0.401	-0.202	-46.7533728	-6.1306506	-9.6829902	81.58348962	-2.71009134	-144.5057372
4.68	468	-0.035	-0.387	-0.189	-50.133825	-2.9793816	-11.9175264	81.073557	-2.60122932	-144.5573034
4.69	469	-0.036	-0.385	-0.185	-56.0352924	-0.6302538	-13.8082878	80.50632858	-2.46944898	-144.5916809
4.7	470	-0.017	-0.392	-0.128	-62.6816052	1.0313244	-14.9542038	79.8703452	-2.32620948	-144.6088696
4.71	471	-0.005	-0.351	-0.067	-66.463128	1.8907614	-16.2720072	79.19425476	-2.17151082	-144.6260584
4.72	472	-0.011	-0.33	-0.076	-62.8534926	3.8388186	-16.9595568	78.5525418	-2.005353	-144.6260584
4.73	473	-0.003	-0.315	-0.075	-53.7434604	0.9740286	-20.2254174	78.0082317	-1.81627686	-144.6604358
4.74	474	0.002	-0.221	-0.043	-49.4462754	-7.9641162	-18.907614	77.50975824	-1.65011904	-144.7864866
4.75	475	-0.023	-0.117	-0.039	-54.7747848	-7.161975	-13.178034	76.95398898	-1.5469866	-144.889619
4.76	476	-0.037	-0.07	-0.054	-53.9726436	-2.291832	-8.5370742	76.4039493	-1.47250206	-144.9354557
4.77	477	-0.042	-0.039	-0.083	-48.128472	0.1145916	-1.5469866	75.916935	-1.4610429	-144.9411853
4.78	478	-0.065	-0.016	-0.065	-43.8885828	0	4.9847346	75.47002776	-1.51260912	-144.9354557
4.79	479	-0.205	-0.079	-0.101	-32.2002396	2.86479	12.4331886	75.1434417	-1.6329303	-144.8781599
4.8	480	-0.106	-0.131	-0.069	-42.9145542	3.437748	11.1153852	74.70226404	-1.75325148	-144.8208641
4.81	481	-0.079	-0.015	-0.021	-39.7059894	7.3338624	3.437748	74.29546386	-1.77044022	-144.7463795
4.82	482	-0.041	0.053	-0.026	-23.6058696	10.9434978	-4.1825934	74.0548215	-1.70741484	-144.6547063
4.83	483	0.032	0.051	-0.066	-11.6883432	15.0114996	-12.4904844	73.92877074	-1.55271618	-144.5458442
4.84	484	0.116	0.13	-0.106	2.291832	16.7876694	-19.7097552	73.94595948	-1.32353298	-144.4369822
4.85	485	0.181	0.208	-0.152	19.5951636	18.907614	-23.8923486	74.12357646	-1.0313244	-144.316661
4.86	486	0.201	0.258	-0.147	37.1276784	16.329303	-23.4339822	74.49599916	-0.76203414	-144.2192582
4.87	487	0.177	0.296	-0.158	58.2698286	9.2819196	-20.5118964	75.0861459	-0.53858052	-144.1791511
4.88	488	0.104	0.296	-0.132	77.9795838	-2.2345362	-13.8082878	75.87682794	-0.4010706	-144.2307173
4.89	489	-0.016	0.312	-0.02	94.824549	-15.8709366	-4.583664	76.84512696	-0.37815228	-144.385416
4.9	490	-0.149	0.335	0.144	114.4197126	-22.8037284	5.72958	78.02542044	-0.4870143	-144.5916809
4.91	491	-0.234	0.343	0.319	138.1974696	-28.1895336	18.048177	79.43489712	-0.69327918	-144.8151345
4.92	492	-0.246	0.33	0.263	159.1104366	-27.2728008	29.1635622	81.05636826	-1.0026765	-145.0213994
4.93	493	-0.191	0.331	0.17	181.1693196	-27.7311672	37.3568616	82.90129302	-1.38082878	-145.2219347
4.94	494	-0.158	0.217	0.093	220.4169426	-21.8869956	45.83664	85.14728838	-1.8334656	-145.3709038
4.95	495	-0.223	-0.239	0.259	280.2910536	-22.5745452	60.0459984	88.01780796	-2.41788276	-145.531332
4.96	496	-0.203	-1.466	0.331	327.3309054	-24.350715	69.041439	91.35242352	-3.07105488	-145.7318673
4.97	497	-0.462	-3.244	2.822	503.630082	0.572958	61.1919144	96.46320888	-3.64974246	-145.708949
4.98	498	0.158	-3.999	1.88	495.9524448	5.8441716	41.0810886	101.4937801	-4.02789474	-145.6516532
4.99	499	0.245	-3.999	2.476	464.2678674	-18.9649098	9.167328	106.214954	-4.04508348	-145.7891631
5	500	-0.062	-3.999	2.478	204.8897808	2.5210152	-55.4623344	108.2833324	-3.51796212	-145.5714391
5.01	501	0.099	-3.999	2.217	204.6605976	44.8626114	-49.1597964	110.3173333	-3.2085648	-144.9698332
5.02	502	-0.534	-2.613	2.54	124.3891818	5.7868758	37.0130868	111.5835705	-3.56952834	-145.0328585
5.03	503	-0.009	-0.281	2.113	223.740099	-9.0527364	40.2216516	113.8696729	-3.8961144	-145.2391234
5.04	504	0.139	-0.716	1.674	417.113424	15.0114996	30.5959572	118.098103	-4.22843004	-145.1818276
5.05	505	0.122	-1.792	1.433	317.8770984	30.1948866	27.788463	121.3066678	-4.6123119	-145.0213994
5.06	506	0.099	-0.583	0.674	187.8156324	20.2254174	8.7089616	123.1974292	-4.79565846	-144.8724303
5.07	507	-0.03	-0.293	0.717	150.0004044	-3.8388186	38.5027776	124.7444158	-5.08786704	-145.0958839
5.08	508	-0.493	0.376	1.209	249.8669838	-7.9068204	56.2071798	127.3112676	-5.49466722	-145.4568475
5.09	509	-0.398	-0.325	0.811	569.520252	45.3209778	51.1078536	133.0752251	-6.1879464	-145.3709038
5.1	510	-0.204	-0.258	0.721	575.6509026	70.4165382	53.2277982	138.8964784	-7.08749046	-145.2047459
5.11	511	-0.088	-0.27	0.723	530.2153332	9.5111028	49.7327544	144.3109315	-7.48856106	-145.462577
5.12	512	-0.164	-0.049	1.513	415.2799584	-19.4232762	49.6754586	148.5909277	-7.61461182	-145.926673
5.13	513	-0.093	0.052	1.352	216.9791946	-5.5576926	44.0031744	150.8426527	-7.79795838	-146.3048253
5.14	514	-0.109	-0.006	0.906	146.8491354	-17.8189938	40.2789474	152.3953688	-7.83806544	-146.7230846
5.15	515	-0.18	0.099	0.925	129.3739164	12.605076	28.074942	153.7532793	-8.09016696	-146.9121608
5.16	516	0.011	-0.097	0.725	120.2638842	31.7418732	23.0902074	154.9794094	-8.48550798	-146.9751862
5.17	517	-0.07	-0.126	0.907	125.5350978	27.501984	25.5539268	156.2685649	-8.84647152	-147.0840482
5.18	518	-0.065	-0.115	0.855	136.364004	13.2926256	24.2361234	157.672312	-9.07565472	-147.2444764
5.19	519	-0.037	-0.304	0.909	154.0111104	1.0886202	30.0229992	159.2765944	-9.20170548	-147.5080371
5.2	520	-0.057	-0.22	0.884	180.5963616	-5.8441716	38.9038482	161.178815	-9.29910834	-147.8747302
5.21	521	-0.311	-0.28	1.103	208.270233	-3.6669312	39.4195104	163.3560554	-9.40224078	-148.2356938
5.22	522	-0.348	-0.089	1.34	201.2801454	-2.7501984	34.6066632	165.4473521	-9.4824549	-148.5565502
5.23	523	-0.133	-0.126	1.295	194.1181704	7.3338624	28.4187168	167.4584347	-9.63715356	-148.8029222
5.24	524	-0.191	-0.011	1.281	195.7224528	17.8189938	23.204799	169.4752468	-9.87779592	-148.9805392
5.25	525	-0.218	-0.034	1.495	191.1387888	20.6837838	19.3659804	171.4404928	-10.12989744	-149.1237787
5.26	526	-0.314	0.093	1.504	181.2839112	22.2880662	18.1627686	173.3026063	-10.38772854	-149.2670182
5.27	527	-0.213	0.133	1.619	178.762896	24.350715	17.0741484	175.1360719	-10.66274838	-149.4045281
5.28	528	-0.25	0.082	1.701	176.1272892	25.496631	15.469866	176.9466191	-10.94922738	-149.5363084
5.29	529	-0.296	0.269	1.642	169.4236806	24.4080108	16.2147114	178.694141	-11.21278806	-149.6795479
5.3	530	-0.266	0.297	1.678	166.6161864	21.3713334	13.2353298	-179.5879555	-11.44197126	-149.8055987
5.31	531	-0.207	0.153	1.722	152.4641238	19.9962342	9.453807	-178.0237802	-11.65396572	-149.897272
5.32	532	-0.293	0.145	1.563	132.066819	20.626488	6.7036086	-176.6715993	-11.87168976	-149.9717565
5.33	533	-0.176	0.206	1.481	110.3517108	20.3973048	2.7501984	-175.5486016	-12.08368422	-150.0118636
5.34	534	-0.198	0.094	1.394	85.7718126	20.05353	1.145916	-174.6719759	-12.2899491	-150.0405115
5.35	535	-0.228	0.296	1.443	78.5525418	13.8082878	1.3178034	-173.8583755	-12.4331886	-150.0691594
5.36	536	-0.243	0.169	1.385	60.5043648	14.0947668	-0.859437	-173.2453105	-12.58215768	-150.0748889
5.37	537	-0.21	0.264	1.264	46.409598	13.2353298	-0.8021412	-172.7754849	-12.7196676	-150.0863481
5.38	538	-0.246	0.271	1.172	33.8618178	12.032118	0.1718874	-172.4317101	-12.83998878	-150.1035368
5.39	539	-0.22	0.169	1.051	25.4393352	10.3705398	-1.2032118	-172.173879	-12.9488508	-150.1092664
5.4	540	-0.168	0.048	0.961	23.9496444	4.7555514	-0.9167328	-171.9446958	-12.98895786	-150.0978073
5.41	541	-0.188	0.018	0.831	25.6685184	-1.6042824	0.1718874	-171.6811351	-12.9774987	-150.0978073
5.42	542	-0.15	0.02	0.793	17.6471064	-4.1825934	-0.859437	-171.5035181	-12.93739164	-150.0806185
5.43	543	-0.111	0.009	0.723	5.72958	-6.8182002	-2.2345362	-171.4519519	-12.87436626	-150.046241
5.44	544	-0.148	0.069	0.722	-1.4896908	-10.7143146	-2.86479	-171.4805998	-12.7769634	-149.9946748
5.45	545	-0.126	0.105	0.662	-10.886202	-13.0634424	-4.5263682	-171.5894618	-12.65091264	-149.9316494
5.46	546	-0.122	0.198	0.624	-25.210152	-10.8289062	-4.9274388	-171.8587521	-12.55350978	-149.8628945
5.47	547	-0.139	0.219	0.644	-35.0077338	-4.4117766	-5.156622	-172.2254452	-12.51340272	-149.8055987
5.48	548	-0.146	0.246	0.66	-40.4508348	0.9167328	-5.0420304	-172.6494341	-12.52486188	-149.759762
5.49	549	-0.175	0.277	0.662	-44.6334282	2.1772404	-3.9534102	-173.1078005	-12.54205062	-149.7253846
5.5	550	-0.19	0.294	0.715	-47.3263308	1.7761698	-2.86479	-173.5604374	-12.55923936	-149.7139254
5.51	551	-0.162	0.199	0.862	-50.993262	-0.9167328	-2.0626488	-174.0818291	-12.5477802	-149.6967367
5.52	552	-0.14	0.167	0.991	-53.8007562	-3.4950438	-1.432395	-174.6318688	-12.50767314	-149.6795479
5.53	553	-0.136	0.075	1.065	-57.7541664	-3.7815228	-2.1199446	-175.2220156	-12.46756608	-149.6566296
5.54	554	-0.214	0.277	1.084	-57.868758	-1.3178034	-1.4896908	-175.8121623	-12.44464776	-149.6451704
5.55	555	-0.157	0.238	1.076	-56.2071798	0.1145916	-1.2032118	-176.3679316	-12.4331886	-149.6394409
5.56	556	-0.2	0.112	1.079	-50.133825	0.7448454	-1.4896908	-176.8778642	-12.4331886	-149.6279817
5.57	557	-0.192	0.103	1.044	-44.117766	-1.2032118	0.7448454	-177.3247714	-12.41599986	-149.6394409
5.58	558	-0.168	0.018	1.07	-39.6486936	-4.870143	0.3437748	-177.725842	-12.36443364	-149.6451704
5.59	559	-0.232	-0.017	1.146	-32.372127	-6.0733548	0.572958	-178.0524281	-12.30140826	-149.6451704
5.6	560	-0.217	-0.075	1.271	-18.3919518	-5.9587632	-0.2291832	-178.2529634	-12.2326533	-149.6394409
5.61	561	-0.166	0.013	1.334	-5.0993262	-2.0626488	-0.4583664	-178.3045296	-12.20973498	-149.6337113
5.62	562	-0.191	0.033	1.221	9.6256944	0.859437	-0.6302538	-178.2071267	-12.22119414	-149.6279817
5.63	563	-0.199	0.001	1.149	20.8556712	-0.1145916	0.4583664	-177.9951323	-12.22119414	-149.6279817
5.64	564	-0.211	0.077	1.087	26.642547	-1.2032118	1.432395	-177.7201124	-12.21546456	-149.6394409
5.65	565	-0.178	0.069	1.027	30.1375908	-5.2712136	2.2345362	-177.4107151	-12.14098002	-149.6566296
5.66	566	-0.173	0.087	0.968	31.2835068	-9.9694692	3.0366774	-177.0841291	-12.04357716	-149.6795479
5.67	567	-0.179	0.102	0.932	30.2521824	-14.4385416	3.6096354	-176.7747317	-11.90033766	-149.7024662
5.68	568	-0.16	0.089	0.926	26.8144344	-18.1627686	4.1252976	-176.4939823	-11.72272068	-149.7253846
5.69	569	-0.147	0.062	0.911	22.631841	-21.0848544	3.6669312	-176.2590695	-11.5164558	-149.7425733
5.7	570	-0.158	0.04	0.89	18.1627686	-21.4286292	3.437748	-176.0814526	-11.29873176	-149.7540325
5.71	571	-0.126	0.064	0.891	13.8655836	-18.5065434	3.0939732	-175.9382131	-11.1153852	-149.7654916
5.72	572	-0.133	0.057	0.878	8.4797784	-13.5218088	2.4637194	-175.8465398	-10.98360486	-149.7769508
5.73	573	-0.13	0.075	0.856	2.291832	-9.3392154	1.7761698	-175.8178919	-10.886202	-149.7826804
5.74	574	-0.125	0.076	0.852	-4.5263682	-6.9327918	1.4896908	-175.8637285	-10.81744704	-149.7941395
5.75	575	-0.131	0.08	0.873	-9.2246238	-6.1306506	1.2032118	-175.9496722	-10.73150334	-149.7998691
5.76	576	-0.135	0.083	0.916	-12.0894138	-6.2452422	0.9740286	-176.0699934	-10.66847796	-149.8055987
5.77	577	-0.12	0.083	0.933	-13.5791046	-5.7868758	0.6875496	-176.2075033	-10.60545258	-149.8055987
5.78	578	-0.137	0.097	0.955	-14.2666542	-5.443101	0.6875496	-176.3507428	-10.55388636	-149.8113283
5.79	579	-0.135	0.08	0.989	-13.2353298	-5.0993262	0.8021412	-176.4825232	-10.50232014	-149.8170578
5.8	580	-0.147	0.091	1.034	-11.4018642	-4.870143	0.8021412	-176.6143035	-10.4278356	-149.8170578
5.81	581	-0.144	0.047	1.054	-9.3392154	-5.156622	0.7448454	-176.7059768	-10.37626938	-149.8170578
5.82	582	-0.147	0.06	1.072	-6.9900876	-6.3598338	0.859437	-176.7747317	-10.313244	-149.8227874
5.83	583	-0.139	0.099	1.092	-3.9534102	-7.6776372	1.0313244	-176.8148388	-10.23875946	-149.828517
5.84	584	-0.148	0.078	1.088	-1.432395	-8.307891	1.145916	-176.826298	-10.15281576	-149.8342466
5.85	585	-0.139	0.079	1.085	-0.5156622	-8.59437	1.0313244	-176.8148388	-10.026765	-149.8399762
5.86	586	-0.138	0.085	1.073	0.8021412	-7.448454	0.9167328	-176.8091092	-9.95228046	-149.8399762
5.87	587	-0.133	0.088	1.045	1.5469866	-5.7868758	0.8021412	-176.7919205	-9.89498466	-149.8457057
5.88	588	-0.122	0.08	1.02	2.1199446	-4.6982556	0.7448454	-176.7690022	-9.84914802	-149.8514353
5.89	589	-0.133	0.094	1.004	3.0366774	-3.6096354	0.7448454	-176.7346247	-9.81477054	-149.8514353
5.9	590	-0.126	0.087	0.999	3.0939732	-3.0366774	0.6875496	-176.6658697	-9.69444936	-149.8628945
5.91	591	-0.122	0.09	0.996	2.0626488	-2.1199446	0.5156622	-176.6429514	-9.67726062	-149.8686241
5.92	592	-0.121	0.093	0.998	0.4583664	-1.2605076	0.2291832	-176.6372218	-9.66007188	-149.8686241
5.93	593	-0.123	0.094	0.996	-1.0886202	-0.4010706	0.0572958	-176.648681	-9.66007188	-149.8686241
5.94	594	-0.118	0.088	0.988	-2.8074942	0.2291832	-0.0572958	-176.6773289	-9.66007188	-149.8686241
5.95	595	-0.114	0.086	0.985	-4.6982556	0.9740286	-0.0572958	-176.7002472	-9.5683986	-149.8686241
5.96	596	-0.125	0.089	0.988	-6.016059	1.2605076	-0.1145916	-176.757543	-9.58558734	-149.8743536
5.97	597	-0.126	0.09	0.988	-6.7609044	0.9740286	-0.1718874	-176.826298	-9.59131692	-149.8686241
5.98	598	-0.121	0.085	0.987	-7.9068204	-0.4010706	0	-176.9122417	-9.58558734	-149.8686241
5.99	599	-0.12	0.08	0.984	-7.8495246	-0.859437	0	-176.9867262	-9.57985776	-149.8686241
6	600	-0.118	0.081	0.976	-6.4171296	-0.859437	0.1718874	-177.0096445	-9.49964364	-149.8800832
6.01	601	-0.123	0.084	0.976	-4.9847346	-0.6875496	0.0572958	-177.0612107	-9.49391406	-149.8800832
6.02	602	-0.122	0.082	0.976	-4.1252976	-0.6875496	0.1145916	-177.1013178	-9.48818448	-149.8800832
6.03	603	-0.119	0.079	0.986	-3.6669312	-1.2605076	0.286479	-177.1414249	-9.47099574	-149.8858128
6.04	604	-0.126	0.085	1.003	-3.0939732	-0.9167328	0.0572958	-177.1700728	-9.46526616	-149.8858128
6.05	605	-0.123	0.082	1.014	-2.2345362	0	-0.0572958	-177.0898586	-9.29337876	-149.9030015
6.06	606	-0.127	0.082	1.016	-1.3750992	0.9167328	-0.1145916	-177.1070474	-9.30483792	-149.897272
6.07	607	-0.124	0.08	1.017	-1.0886202	1.6042824	-0.4583664	-177.1185065	-9.31629708	-149.897272
6.08	608	-0.125	0.078	1.02	-1.2605076	2.4064236	-0.572958	-177.1356953	-9.34494498	-149.8915424
6.09	609	-0.127	0.076	1.024	-1.2605076	3.437748	-0.6875496	-177.1471544	-9.37932246	-149.8858128
6.1	610	-0.129	0.078	1.026	-1.145916	4.5263682	-0.8021412	-177.1299657	-9.36213372	-149.8858128
6.11	611	-0.13	0.074	1.028	-1.145916	5.6149884	-1.0313244	-177.1471544	-9.41942952	-149.8800832
6.12	612	-0.13	0.072	1.025	-1.6615782	6.4171296	-1.0886202	-177.1643432	-9.4824549	-149.8743536
6.13	613	-0.13	0.07	1.022	-2.1772404	7.161975	-1.2032118	-177.1872615	-9.55693944	-149.8686241
6.14	614	-0.134	0.071	1.013	-2.6356068	7.6776372	-1.2032118	-177.2159094	-9.63142398	-149.8628945
6.15	615	-0.135	0.068	1.005	-3.151269	7.5630456	-1.2032118	-177.2388277	-9.67726062	-149.8571649
6.16	616	-0.138	0.061	0.996	-3.7815228	6.9900876	-1.145916	-177.2789348	-9.74601558	-149.8514353
6.17	617	-0.131	0.065	0.99	-4.1252976	6.1879464	-1.0886202	-177.3247714	-9.80904096	-149.8457057
6.18	618	-0.146	0.051	0.984	-4.010706	5.0420304	-0.8021412	-177.3706081	-9.86060718	-149.8399762
6.19	619	-0.131	0.069	0.987	-3.5523396	2.6356068	-0.4583664	-177.4049855	-9.8835255	-149.8399762
6.2	620	-0.14	0.059	0.993	-2.6929026	0.9167328	-0.1718874	-177.399256	-9.77466348	-149.8399762
6.21	621	-0.139	0.063	0.999	-2.0626488	-0.7448454	0	-177.4221743	-9.7689339	-149.8399762
6.22	622	-0.139	0.063	1.005	-1.3178034	-1.9480572	0.1718874	-177.4336334	-9.74601558	-149.8399762
6.23	623	-0.138	0.065	1.01	-0.6875496	-2.9220858	0.3437748	-177.4450926	-9.71736768	-149.8399762
6.24	624	-0.135	0.066	1.01	-0.2291832	-3.5523396	0.5156622	-177.4450926	-9.6829902	-149.8457057
6.25	625	-0.137	0.065	1.007	0.0572958	-3.6669312	0.5156622	-177.4164447	-9.57412818	-149.8514353
6.26	626	-0.133	0.066	1.011	0.2291832	-4.3544808	0.572958	-177.4107151	-9.53402112	-149.8571649
6.27	627	-0.133	0.066	1.006	0.4583664	-3.9534102	0.5156622	-177.4049855	-9.49391406	-149.8571649
6.28	628	-0.132	0.067	1.004	0.3437748	-3.437748	0.4010706	-177.399256	-9.45953658	-149.8571649
6.29	629	-0.13	0.069	1.008	0.0572958	-3.151269	0.4010706	-177.399256	-9.4251591	-149.8628945
6.3	630	-0.129	0.071	1.007	-0.1145916	-2.7501984	0.3437748	-177.3362306	-9.29337876	-149.8743536
6.31	631	-0.129	0.072	1.005	-0.1718874	-2.4064236	0.286479	-177.3362306	-9.27046044	-149.8743536
6.32	632	-0.129	0.073	1.006	-0.1145916	-1.8334656	0.2291832	-177.3362306	-9.24754212	-149.8743536
6.33	633	-0.129	0.072	1.006	0	-1.3750992	0.1145916	-177.3362306	-9.23608296	-149.8743536
6.34	634	-0.128	0.07	1.007	0.0572958	-0.9167328	0.0572958	-177.3362306	-9.2246238	-149.8743536
6.35	635	-0.127	0.069	1.002	0.1718874	-0.6302538	0	-177.0554812	-8.67458412	-149.9144607
6.36	636	-0.127	0.069	1.003	-0.1145916	-0.3437748	-0.1145916	-177.0554812	-8.67458412	-149.9144607
6.37	637	-0.127	0.069	1.003	-0.1145916	0.0572958	-0.1145916	-177.0554812	-8.67458412	-149.9144607
6.38	638	-0.129	0.072	1.004	0.1718874	0.4010706	-0.0572958	-177.0554812	-8.6803137	-149.9144607
6.39	639	-0.129	0.07	1.01	0.1145916	0.4583664	-0.0572958	-177.0497516	-8.6803137	-149.9144607
6.4	640	-0.13	0.072	1.014	-0.0572958	0.3437748	-0.0572958	-176.9065121	-8.3365389	-149.9316494
6.41	641	-0.132	0.072	1.015	0.2291832	0.0572958	-0.0572958	-176.9007825	-8.3365389	-149.9316494
6.42	642	-0.117	0.065	1.018	0.6875496	-0.286479	0	-176.8950529	-8.3365389	-149.9316494
6.43	643	-0.168	0.103	1.013	0.6875496	-0.8021412	-0.0572958	-176.8835938	-8.32507974	-149.9259199
6.44	644	-0.079	0.035	1.018	1.0886202	-0.6875496	-0.0572958	-176.8721346	-8.31935016	-149.9259199
6.45	645	-0.128	0.061	1.001	1.3750992	-0.286479	-0.1145916	-176.7861909	-8.30216142	-149.937379
6.46	646	-0.128	0.073	0.994	0.9740286	-0.2291832	0.0572958	-176.7747317	-8.30216142	-149.937379
6.47	647	-0.123	0.066	0.997	0.859437	-0.8021412	0	-176.7690022	-8.29070226	-149.937379
6.48	648	-0.128	0.069	0.998	0.8021412	-1.0886202	0.0572958	-176.757543	-8.2792431	-149.937379
6.49	649	-0.124	0.069	1.002	0.6875496	-0.6875496	0	-176.7518134	-8.27351352	-149.937379
6.5	650	-0.126	0.069	1.006	0.572958	-0.4010706	-0.0572958	-176.7174359	-8.14746276	-149.937379
6.51	651	-0.127	0.071	1.009	0.4583664	0.1718874	0	-176.7117064	-8.14746276	-149.937379
6.52	652	-0.125	0.067	1.009	0.5156622	0.6302538	-0.0572958	-176.7059768	-8.15319234	-149.937379
6.53	653	-0.126	0.07	1.009	0.572958	0.859437	-0.0572958	-176.7002472	-8.1646515	-149.937379
6.54	654	-0.127	0.069	1.01	0.8021412	0.9167328	-0.0572958	-176.6945176	-8.17038108	-149.937379
6.55	655	-0.128	0.068	1.009	0.6875496	0.859437	0	-176.6715993	-8.11308528	-149.937379
6.56	656	-0.13	0.069	1.008	0.6302538	0.7448454	0	-176.6601401	-8.11881486	-149.937379
6.57	657	-0.129	0.069	1.008	0.6302538	0.6875496	0	-176.6544106	-8.12454444	-149.937379
6.58	658	-0.128	0.07	1.009	0.4583664	0.6302538	0	-176.6544106	-8.13027402	-149.9431086
6.59	659	-0.129	0.07	1.01	0.286479	0.7448454	0	-176.648681	-8.14173318	-149.9431086
6.6	660	-0.129	0.069	1.009	0.2291832	0.8021412	0	-176.6257627	-8.07297822	-149.9431086
6.61	661	-0.128	0.07	1.006	0.286479	0.6875496	0	-176.6257627	-8.0787078	-149.9431086
6.62	662	-0.128	0.07	1.003	0.286479	0.4583664	0	-176.6200331	-8.08443738	-149.9431086
6.63	663	-0.128	0.07	1.002	0.2291832	0.286479	0	-176.6200331	-8.09016696	-149.9431086
6.64	664	-0.128	0.071	1.002	0.1145916	0.1718874	0	-176.6143035	-8.09016696	-149.9431086
6.65	665	-0.128	0.071	1.004	0.0572958	0.0572958	0	-176.5111711	-7.74066258	-149.9545678
6.66	666	-0.128	0.072	1.002	-0.1145916	0.1145916	0.1145916	-176.5169006	-7.74066258	-149.9545678
6.67	667	-0.128	0.071	1.004	-0.1718874	0	0	-176.5169006	-7.74066258	-149.9545678
6.68	668	-0.128	0.071	1.006	-0.1145916	0	0	-176.5169006	-7.74066258	-149.9545678
6.69	669	-0.128	0.07	1.007	0	0.0572958	0	-176.5169006	-7.74066258	-149.9545678
6.7	670	-0.127	0.07	1.005	0	0.1718874	0	-176.4825232	-7.62607098	-149.9602973
6.71	671	-0.128	0.07	1.005	0	0.1718874	0	-176.4825232	-7.63180056	-149.9602973
6.72	672	-0.128	0.07	1.004	0	0.2291832	-0.0572958	-176.4825232	-7.63180056	-149.9602973
6.73	673	-0.127	0.07	1.003	0	0.4583664	-0.1145916	-176.4825232	-7.63753014	-149.9602973
6.74	674	-0.126	0.07	1.001	0.0572958	0.4583664	-0.0572958	-176.4825232	-7.64325972	-149.9545678
6.75	675	-0.128	0.07	1.004	0.3437748	0.5156622	0	-176.471064	-7.62607098	-149.9602973
6.76	676	-0.129	0.07	1.005	0.572958	0.6875496	0	-176.4653344	-7.63753014	-149.9602973
6.77	677	-0.128	0.071	1.008	0.7448454	0.6302538	0	-176.4596048	-7.64325972	-149.9602973
6.78	678	-0.129	0.072	1.008	0.6875496	0.572958	0	-176.4481457	-7.6489893	-149.9602973
6.79	679	-0.127	0.071	1.011	0.572958	0.6302538	0	-176.4424161	-7.65471888	-149.9602973
6.8	680	-0.128	0.072	1.011	0.5156622	0.7448454	0	-176.4309569	-7.63753014	-149.9602973
6.81	681	-0.128	0.072	1.011	0.4583664	0.7448454	0	-176.4252274	-7.64325972	-149.9602973
6.82	682	-0.129	0.072	1.011	0.1718874	0.7448454	0	-176.4252274	-7.6489893	-149.9602973
6.83	683	-0.128	0.072	1.011	0.1718874	0.6875496	0	-176.4194978	-7.65471888	-149.9660269
6.84	684	-0.128	0.072	1.008	-0.1145916	0.6302538	0	-176.4194978	-7.66617804	-149.9660269
6.85	685	-0.128	0.071	1.008	-0.1718874	0.572958	0	-176.4137682	-7.63180056	-149.9660269
6.86	686	-0.128	0.072	1.009	0	0.6302538	0	-176.4194978	-7.64325972	-149.9660269
6.87	687	-0.128	0.072	1.012	0.1145916	0.286479	0	-176.4137682	-7.64325972	-149.9660269
6.88	688	-0.128	0.072	1.01	0.1145916	0.2291832	0	-176.4137682	-7.6489893	-149.9660269
6.89	689	-0.129	0.071	1.008	0	0.0572958	0.0572958	-176.4137682	-7.6489893	-149.9660269
6.9	690	-0.129	0.072	1.008	-0.1145916	-0.3437748	0	-176.3965795	-7.61461182	-149.9660269
6.91	691	-0.128	0.073	1.01	0	-0.572958	0.0572958	-176.3965795	-7.60888224	-149.9717565
6.92	692	-0.129	0.072	1.008	0	-0.5156622	0.0572958	-176.3965795	-7.60315266	-149.9717565
6.93	693	-0.127	0.07	1.003	-0.3437748	-0.4583664	0	-176.402309	-7.59742308	-149.9717565
6.94	694	-0.127	0.071	1.003	-0.6302538	-0.286479	-0.0572958	-176.4080386	-7.5916935	-149.9660269
6.95	695	-0.128	0.073	1.007	-0.4010706	-0.3437748	0	-176.3965795	-7.56877518	-149.9717565
6.96	696	-0.128	0.073	1.009	-0.1145916	-0.2291832	0	-176.3965795	-7.56877518	-149.9717565
6.97	697	-0.129	0.072	1.009	0.0572958	0	-0.0572958	-176.3965795	-7.56877518	-149.9717565
6.98	698	-0.129	0.071	1.009	-0.0572958	0.2291832	-0.0572958	-176.3965795	-7.56877518	-149.9717565
6.99	699	-0.129	0.07	1.007	-0.6302538	0.3437748	-0.0572958	-176.402309	-7.57450476	-149.9660269
7	700	-0.129	0.071	1.009	-0.4010706	0.286479	0	-176.3965795	-7.55158644	-149.9717565
7.01	701	-0.129	0.072	1.012	0.1145916	0.0572958	0	-176.3908499	-7.55158644	-149.9717565
7.02	702	-0.129	0.071	1.008	0	0	0	-176.3908499	-7.55158644	-149.9717565
7.03	703	-0.128	0.07	1.005	-0.1718874	0.1145916	0	-176.3965795	-7.55158644	-149.9717565
7.04	704	-0.128	0.071	1.005	-0.2291832	0.2291832	0	-176.3965795	-7.55158644	-149.9717565
7.05	705	-0.128	0.072	1.007	-0.1718874	0.1145916	-0.0572958	-176.3908499	-7.51720896	-149.9717565
7.06	706	-0.128	0.073	1.01	-0.1145916	0.0572958	-0.1145916	-176.3908499	-7.51720896	-149.9660269
7.07	707	-0.129	0.073	1.008	-0.0572958	0	-0.0572958	-176.3908499	-7.51720896	-149.9660269
7.08	708	-0.129	0.072	1.007	-0.0572958	0	-0.0572958	-176.3908499	-7.51720896	-149.9660269
7.09	709	-0.128	0.072	1.005	-0.2291832	0	-0.1145916	-176.3965795	-7.51720896	-149.9660269
7.1	710	-0.129	0.07	1.002	-0.2291832	-0.0572958	-0.0572958	-176.402309	-7.48856106	-149.9602973
7.11	711	-0.128	0.07	1.002	-0.286479	0	-0.1145916	-176.4080386	-7.48856106	-149.9602973
7.12	712	-0.129	0.07	1.002	-0.2291832	0.2291832	-0.0572958	-176.4080386	-7.49429064	-149.9602973
7.13	713	-0.129	0.072	1.005	-0.1718874	0.4010706	-0.0572958	-176.4137682	-7.50002022	-149.9602973
7.14	714	-0.13	0.072	1.008	-0.0572958	0.572958	-0.0572958	-176.4137682	-7.5057498	-149.9602973
7.15	715	-0.129	0.072	1.007	-0.0572958	0.6302538	-0.1145916	-176.402309	-7.49429064	-149.9602973
7.16	716	-0.13	0.072	1.008	0	0.6302538	-0.0572958	-176.402309	-7.50002022	-149.9602973
7.17	717	-0.129	0.072	1.006	0	0.6875496	-0.0572958	-176.402309	-7.51147938	-149.9602973
7.18	718	-0.129	0.071	1.004	0.0572958	0.7448454	-0.1145916	-176.402309	-7.51720896	-149.9602973
7.19	719	-0.129	0.071	1.004	0	0.8021412	-0.1145916	-176.402309	-7.52293854	-149.9602973
7.2	720	-0.13	0.07	1.003	-0.0572958	0.7448454	-0.1145916	-176.402309	-7.52293854	-149.9602973
7.21	721	-0.13	0.071	1.004	0	0.5156622	0	-176.402309	-7.52866812	-149.9602973
7.22	722	-0.131	0.071	1.006	0.0572958	0.4583664	0	-176.402309	-7.5343977	-149.9602973
7.23	723	-0.13	0.071	1.008	0.286479	0.286479	0	-176.402309	-7.54012728	-149.9602973
7.24	724	-0.131	0.072	1.009	0.3437748	0	0.1145916	-176.3965795	-7.54012728	-149.9602973
7.25	725	-0.13	0.072	1.01	0.286479	-0.2291832	0.1145916	-176.3908499	-7.51720896	-149.9602973
7.26	726	-0.13	0.071	1.012	0.2291832	-0.3437748	0.1145916	-176.3851203	-7.51147938	-149.9602973
7.27	727	-0.131	0.072	1.013	0.286479	-0.4583664	0.1718874	-176.3851203	-7.51147938	-149.9660269
7.28	728	-0.131	0.073	1.015	0.3437748	-0.5156622	0.1145916	-176.3793907	-7.5057498	-149.9660269
7.29	729	-0.13	0.072	1.014	0.2291832	-0.6875496	0.1718874	-176.3736611	-7.49429064	-149.9660269
7.3	730	-0.13	0.071	1.01	0	-0.6875496	0.1145916	-176.3736611	-7.48283148	-149.9660269
7.31	731	-0.13	0.071	1.009	-0.286479	-0.6302538	0.0572958	-176.3736611	-7.4771019	-149.9660269
7.32	732	-0.13	0.072	1.009	-0.4010706	-0.572958	0	-176.3793907	-7.47137232	-149.9660269
7.33	733	-0.13	0.072	1.009	-0.572958	-0.5156622	0	-176.3851203	-7.46564274	-149.9660269
7.34	734	-0.13	0.071	1.007	-0.6302538	-0.572958	0	-176.3908499	-7.45991316	-149.9660269
7.35	735	-0.131	0.072	1.01	-0.7448454	-0.6302538	0	-176.3965795	-7.448454	-149.9660269
7.36	736	-0.131	0.071	1.009	-0.7448454	-0.6302538	0	-176.4080386	-7.44272442	-149.9660269
7.37	737	-0.129	0.07	1.003	-0.9167328	-0.7448454	0	-176.4137682	-7.43699484	-149.9660269
7.38	738	-0.129	0.071	1.004	-1.0886202	-0.4583664	0	-176.4252274	-7.43126526	-149.9660269
7.39	739	-0.129	0.072	1.006	-0.6875496	-0.1718874	0	-176.4366865	-7.42553568	-149.9660269
7.4	740	-0.129	0.072	1.01	-0.286479	-0.0572958	-0.0572958	-176.4194978	-7.41407652	-149.9660269
7.41	741	-0.13	0.071	1.011	-0.1145916	0	0	-176.4194978	-7.41407652	-149.9660269
7.42	742	-0.129	0.071	1.007	-0.1718874	0	0	-176.4194978	-7.41407652	-149.9660269
7.43	743	-0.129	0.07	1.005	-0.286479	-0.0572958	-0.0572958	-176.4252274	-7.41407652	-149.9660269
7.44	744	-0.129	0.069	1.006	-0.2291832	0	-0.0572958	-176.4252274	-7.41407652	-149.9660269
7.45	745	-0.13	0.072	1.01	0.0572958	0.0572958	0	-176.3965795	-7.41407652	-149.9717565
7.46	746	-0.131	0.072	1.014	0.2291832	0.1145916	-0.0572958	-176.3908499	-7.4198061	-149.9717565
7.47	747	-0.129	0.069	1.01	0.2291832	-0.1145916	0	-176.3908499	-7.41407652	-149.9717565
7.48	748	-0.13	0.07	1.006	0	-0.1718874	-0.0572958	-176.3908499	-7.41407652	-149.9660269
7.49	749	-0.129	0.07	1.008	0	0	-0.0572958	-176.3908499	-7.41407652	-149.9660269
7.5	750	-0.13	0.072	1.011	0.286479	0.1145916	-0.0572958	-176.3793907	-7.41407652	-149.9660269
7.51	751	-0.131	0.072	1.012	0.4583664	0.1718874	-0.0572958	-176.3736611	-7.41407652	-149.9660269
7.52	752	-0.13	0.071	1.01	0.4010706	0	0	-176.3736611	-7.41407652	-149.9660269
7.53	753	-0.13	0.072	1.008	0.2291832	-0.1145916	0	-176.3679316	-7.41407652	-149.9660269
7.54	754	-0.13	0.071	1.007	0.1718874	-0.1145916	-0.0572958	-176.3679316	-7.41407652	-149.9660269
7.55	755	-0.13	0.07	1.005	0.0572958	-0.2291832	-0.0572958	-176.362202	-7.41407652	-149.9660269
7.56	756	-0.129	0.072	1.003	0.0572958	-0.286479	0	-176.362202	-7.40834694	-149.9660269
7.57	757	-0.13	0.071	1.003	0	-0.4010706	0	-176.362202	-7.40261736	-149.9660269
7.58	758	-0.131	0.071	1.003	-0.0572958	-0.4010706	0	-176.362202	-7.40261736	-149.9660269
7.59	759	-0.131	0.07	1.005	0	-0.2291832	0	-176.362202	-7.39688778	-149.9660269
7.6	760	-0.131	0.071	1.005	0	-0.2291832	0	-176.362202	-7.39688778	-149.9660269
7.61	761	-0.13	0.071	1.006	-0.0572958	-0.1145916	0	-176.362202	-7.39688778	-149.9660269
7.62	762	-0.13	0.072	1.008	-0.1145916	-0.1145916	0	-176.362202	-7.3911582	-149.9660269
7.63	763	-0.132	0.07	1.01	0	0	0	-176.362202	-7.3911582	-149.9660269
7.64	764	-0.131	0.071	1.011	0.1718874	-0.1145916	0.0572958	-176.362202	-7.3911582	-149.9660269
7.65	765	-0.13	0.071	1.008	0.2291832	-0.1718874	0.1145916	-176.362202	-7.38542862	-149.9660269
7.66	766	-0.13	0.07	1.006	-0.0572958	-0.0572958	0.0572958	-176.3679316	-7.38542862	-149.9660269
7.67	767	-0.13	0.07	1.007	-0.1145916	0	0	-176.3679316	-7.38542862	-149.9660269
7.68	768	-0.13	0.07	1.008	-0.0572958	0.1718874	0	-176.3679316	-7.38542862	-149.9660269
7.69	769	-0.131	0.07	1.005	-0.1145916	0.2291832	0	-176.3679316	-7.3911582	-149.9660269
7.7	770	-0.13	0.071	1.008	-0.1718874	0.1718874	0	-176.3679316	-7.38542862	-149.9660269
7.71	771	-0.131	0.073	1.012	-0.2291832	0.1145916	0	-176.3679316	-7.3911582	-149.9660269
7.72	772	-0.131	0.072	1.012	0.1145916	0.0572958	0	-176.3679316	-7.3911582	-149.9660269
7.73	773	-0.13	0.072	1.009	0.4010706	0	0	-176.362202	-7.3911582	-149.9660269
7.74	774	-0.13	0.071	1.007	0.5156622	0	0	-176.3564724	-7.3911582	-149.9660269
7.75	775	-0.13	0.071	1.01	0	0.0572958	0	-176.3450132	-7.38542862	-149.9717565
7.76	776	-0.131	0.071	1.01	-0.1145916	-0.1145916	0	-176.3507428	-7.38542862	-149.9717565
7.77	777	-0.131	0.072	1.013	0.286479	-0.4583664	0.0572958	-176.3450132	-7.37969904	-149.9717565
7.78	778	-0.13	0.071	1.007	0.4010706	-0.572958	0	-176.3392837	-7.37396946	-149.9717565
7.79	779	-0.129	0.069	0.999	0	-0.4583664	0	-176.3392837	-7.36823988	-149.9717565
7.8	780	-0.13	0.07	1	-0.0572958	-0.2291832	0.0572958	-176.3450132	-7.36823988	-149.9717565
7.81	781	-0.13	0.07	1.004	0.0572958	0	0	-176.3450132	-7.36823988	-149.9717565
7.82	782	-0.13	0.072	1.006	0.1718874	0	0.0572958	-176.3392837	-7.3625103	-149.9717565
7.83	783	-0.131	0.072	1.006	0.1145916	-0.1718874	0.0572958	-176.3392837	-7.3625103	-149.9717565
7.84	784	-0.13	0.07	1.004	0.0572958	-0.1145916	0.0572958	-176.3392837	-7.3625103	-149.9717565
7.85	785	-0.13	0.072	1.004	-0.0572958	-0.0572958	0.0572958	-176.3335541	-7.36823988	-149.9717565
7.86	786	-0.131	0.071	1.007	-0.1145916	0.0572958	0.0572958	-176.3335541	-7.36823988	-149.9774861
7.87	787	-0.131	0.072	1.008	0	0.1718874	0	-176.3335541	-7.36823988	-149.9774861
7.88	788	-0.131	0.071	1.009	0.1718874	0.2291832	0	-176.3335541	-7.37396946	-149.9774861
7.89	789	-0.131	0.071	1.009	0.1145916	0.1718874	0	-176.3278245	-7.37396946	-149.9774861
7.9	790	-0.13	0.071	1.009	0.1145916	0.1145916	0	-176.3278245	-7.37396946	-149.9774861
7.91	791	-0.13	0.071	1.01	0.1718874	0	0	-176.3278245	-7.37396946	-149.9774861
7.92	792	-0.131	0.072	1.007	0.1145916	0	0.0572958	-176.3220949	-7.37396946	-149.9774861
7.93	793	-0.13	0.07	1.006	0.1145916	0	0.0572958	-176.3220949	-7.37396946	-149.9774861
7.94	794	-0.13	0.071	1.004	0	0	0.0572958	-176.3220949	-7.37396946	-149.9774861
7.95	795	-0.13	0.071	1.007	0.0572958	0	0	-176.3278245	-7.37969904	-149.9774861
7.96	796	-0.13	0.071	1.01	0.1145916	0	0	-176.3278245	-7.37969904	-149.9774861
7.97	797	-0.131	0.072	1.008	0.0572958	0	0.0572958	-176.3278245	-7.37969904	-149.9774861
7.98	798	-0.13	0.071	1.007	0.1145916	-0.0572958	0.0572958	-176.3220949	-7.37969904	-149.9774861
7.99	799	-0.131	0.072	1.008	0.1145916	-0.0572958	0.0572958	-176.3220949	-7.37969904	-149.9832157
8	800	-0.13	0.071	1.007	0.1718874	0	0	-176.3220949	-7.38542862	-149.9832157
8.01	801	-0.13	0.071	1.007	0.1718874	-0.1145916	0.0572958	-176.3220949	-7.37969904	-149.9832157
8.02	802	-0.13	0.071	1.007	0.1718874	-0.1145916	0.0572958	-176.3220949	-7.37969904	-149.9832157
8.03	803	-0.13	0.072	1.007	0.1145916	0.0572958	0.0572958	-176.3163653	-7.37969904	-149.9832157
8.04	804	-0.13	0.071	1.007	0.1145916	0.1145916	0.0572958	-176.3163653	-7.38542862	-149.9832157
8.05	805	-0.13	0.072	1.008	0	0.1718874	0.0572958	-176.3163653	-7.38542862	-149.9832157
8.06	806	-0.131	0.072	1.01	0	0.2291832	-0.0572958	-176.3163653	-7.38542862	-149.9832157
8.07	807	-0.13	0.072	1.01	0	0.1718874	0	-176.3163653	-7.3911582	-149.9832157
8.08	808	-0.131	0.072	1.009	0	0.1718874	0	-176.3163653	-7.3911582	-149.9832157
8.09	809	-0.131	0.071	1.008	-0.1145916	0.0572958	0	-176.3163653	-7.3911582	-149.9832157
8.1	810	-0.131	0.071	1.008	-0.1145916	0	0	-176.3220949	-7.39688778	-149.9832157
8.11	811	-0.13	0.071	1.007	-0.1145916	-0.0572958	0	-176.3220949	-7.39688778	-149.9832157
8.12	812	-0.13	0.071	1.005	-0.1718874	-0.0572958	0	-176.3220949	-7.39688778	-149.9832157
8.13	813	-0.131	0.071	1.004	-0.1718874	0	0	-176.3278245	-7.39688778	-149.9832157
8.14	814	-0.13	0.071	1.006	-0.1145916	-0.0572958	0	-176.3278245	-7.39688778	-149.9832157
8.15	815	-0.131	0.071	1.006	0	0	0	-176.3220949	-7.39688778	-149.9832157
