TimeStamp(s)	FrameCounter	AccX	AccY	AccZ	GyrX	GyrY	GyrZ	EulerX	EulerY	EulerZ
0.01	1	0.015	-0.985	0.224	-1.5469866	-0.1145916	0.1145916	101.0124954	1.38082878	-53.3710377
0.02	2	0.014	-0.983	0.224	-1.4896908	0	0.0572958	100.9953067	1.38082878	-53.3710377
0.03	3	0.012	-0.983	0.224	-1.432395	0	0	100.9838475	1.38082878	-53.3710377
0.04	4	0.014	-0.985	0.224	-1.432395	0.1145916	0	100.9666588	1.38082878	-53.3710377
0.05	5	0.015	-0.985	0.226	-1.3750992	0.2291832	-0.0572958	100.9723883	1.3750992	-53.36530812
0.06	6	0.014	-0.985	0.227	-1.6615782	0.1145916	0	100.9551996	1.3750992	-53.35957854
0.07	7	0.012	-0.984	0.223	-1.6615782	-0.0572958	0.0572958	100.9380109	1.3750992	-53.36530812
0.08	8	0.013	-0.984	0.224	-1.432395	-0.0572958	0.2291832	100.9265517	1.3750992	-53.36530812
0.09	9	0.014	-0.983	0.224	-1.432395	0	0.3437748	100.909363	1.36936962	-53.36530812
0.1	10	0.017	-0.982	0.225	-1.2605076	-0.0572958	0.5156622	100.9208221	1.36936962	-53.35957854
0.11	11	0.02	-0.984	0.227	-0.9740286	-0.286479	0.6875496	100.909363	1.35791046	-53.36530812
0.12	12	0.025	-0.989	0.227	-1.0313244	-0.5156622	0.9167328	100.8979038	1.35218088	-53.3710377
0.13	13	0.028	-0.991	0.226	-1.6615782	-1.145916	1.2605076	100.8807151	1.34072172	-53.38822644
0.14	14	0.028	-0.992	0.229	-1.9480572	-2.1772404	1.7761698	100.8635263	1.32926256	-53.41114476
0.15	15	0.024	-0.991	0.236	-1.9480572	-3.0939732	2.3491278	100.8520672	1.31207382	-53.44552224
0.16	16	0.019	-0.99	0.239	-1.9480572	-3.2658606	2.6356068	100.8291488	1.29488508	-53.47989972
0.17	17	0.017	-0.987	0.234	-2.3491278	-3.0939732	2.4637194	100.8062305	1.27769634	-53.52000678
0.18	18	0.015	-0.98	0.235	-2.9220858	-4.3544808	2.1199446	100.7775826	1.26623718	-53.56584342
0.19	19	0.005	-0.979	0.238	-3.2085648	-7.734933	1.7761698	100.7432051	1.26623718	-53.64032796
0.2	20	-0.011	-0.98	0.237	-3.8388186	-9.3392154	1.0313244	100.7088277	1.26623718	-53.73200124
0.21	21	-0.02	-0.987	0.234	-4.1825934	-8.6516658	0	100.662991	1.28342592	-53.81794494
0.22	22	-0.011	-1.003	0.241	-4.4690724	-7.6203414	-1.145916	100.6171544	1.31207382	-53.89242948
0.23	23	0.002	-1.01	0.257	-5.156622	-8.307891	-2.0626488	100.5655882	1.35218088	-53.96691402
0.24	24	0.007	-1.007	0.264	-5.2139178	-8.7089616	-3.0939732	100.5082924	1.39801752	-54.04712814
0.25	25	0.003	-1.007	0.259	-5.156622	-8.1932994	-4.8128472	100.4624557	1.4610429	-54.1158831
0.26	26	0.001	-1.014	0.253	-6.2452422	-7.9068204	-6.589017	100.3994303	1.54125702	-54.18463806
0.27	27	0	-1.011	0.248	-7.3338624	-7.734933	-7.5630456	100.3249458	1.6329303	-54.24766344
0.28	28	-0.01	-1.004	0.241	-7.5630456	-7.2192708	-8.1360036	100.2447317	1.72460358	-54.29922966
0.29	29	-0.02	-0.999	0.233	-7.6776372	-6.5317212	-8.6516658	100.1645176	1.82200644	-54.35079588
0.3	30	-0.031	-0.993	0.233	-7.5630456	-5.6722842	-9.1100322	100.0957626	1.91367972	-54.39090294
0.31	31	-0.039	-0.986	0.236	-7.1046792	-4.297185	-9.7975818	100.0212781	2.01681216	-54.41382126
0.32	32	-0.042	-0.981	0.233	-7.1046792	-2.7501984	-10.4851314	99.94679352	2.12567418	-54.42528042
0.33	33	-0.042	-0.978	0.237	-7.448454	-1.7761698	-10.7716104	99.87230898	2.2345362	-54.42528042
0.34	34	-0.041	-0.974	0.237	-7.3911582	-1.3750992	-11.0580894	99.79782444	2.34339822	-54.41955084
0.35	35	-0.04	-0.98	0.232	-7.8495246	-1.2032118	-11.2872726	99.7233399	2.44653066	-54.40809168
0.36	36	-0.031	-0.985	0.219	-7.6203414	-0.4583664	-11.1153852	99.64885536	2.55539268	-54.39663252
0.37	37	-0.021	-0.985	0.216	-6.875496	1.145916	-10.7143146	99.5801004	2.65852512	-54.36798462
0.38	38	-0.009	-0.983	0.218	-5.9587632	3.3231564	-10.313244	99.51707502	2.75592798	-54.32214798
0.39	39	0.001	-0.984	0.236	-7.2192708	5.6722842	-10.1413566	99.44832006	2.84187168	-54.24766344
0.4	40	0.011	-0.984	0.237	-10.1986524	8.7662574	-10.1986524	99.3509172	2.9220858	-54.144531
0.41	41	0.029	-0.985	0.213	-12.5477802	11.8029348	-9.6829902	99.23059602	2.99657034	-54.01848024
0.42	42	0.036	-0.989	0.198	-11.45916	13.6936962	-8.3651868	99.11600442	3.04813656	-53.86951116
0.43	43	0.027	-1.001	0.186	-10.4278356	14.7250206	-7.9641162	99.01860156	3.09970278	-53.7148125
0.44	44	0.033	-1.002	0.18	-9.7975818	14.9542038	-7.6203414	98.92692828	3.14553942	-53.56011384
0.45	45	0.05	-1.01	0.175	-11.2872726	14.7823164	-7.1046792	98.81806626	3.19137606	-53.40541518
0.46	46	0.035	-0.999	0.166	-11.0007936	15.5844576	-6.3598338	98.70920424	3.22575354	-53.24498694
0.47	47	0.03	-0.998	0.161	-9.2246238	16.4438946	-5.443101	98.62326054	3.24867186	-53.07882912
0.48	48	0.012	-1.004	0.183	-8.307891	17.761698	-6.2452422	98.548776	3.28304934	-52.89548256
0.49	49	0.019	-0.999	0.175	-11.5737516	18.5065434	-7.161975	98.43991398	3.31742682	-52.70640642
0.5	50	0.028	-0.996	0.193	-12.9488508	19.3659804	-6.589017	98.3195928	3.34607472	-52.50587112
0.51	51	0.037	-1.001	0.213	-14.7250206	20.7410796	-5.6149884	98.1763533	3.36899304	-52.29960624
0.52	52	0.054	-1.017	0.215	-16.2720072	22.2307704	-4.7555514	98.02165464	3.37472262	-52.07615262
0.53	53	0.057	-1.059	0.222	-16.9595568	22.5172494	-2.7501984	97.8612264	3.36326346	-51.852699
0.54	54	0.075	-1.07	0.22	-21.1421502	22.5172494	-0.572958	97.65496152	3.33461556	-51.63497496
0.55	55	0.074	-1.062	0.209	-23.8350528	22.1734746	1.718874	97.42577832	3.28304934	-51.4229805
0.56	56	0.079	-1.053	0.217	-26.2414764	21.6005166	2.578311	97.16794722	3.22002396	-51.21671562
0.57	57	0.084	-1.043	0.215	-27.4446882	22.1734746	3.2085648	96.89865696	3.15699858	-51.01045074
0.58	58	0.088	-1.042	0.21	-28.8770832	22.4599536	3.6669312	96.61217796	3.08251404	-50.79845628
0.59	59	0.085	-1.053	0.209	-30.1948866	22.345362	3.8388186	96.3142398	3.01375908	-50.58646182
0.6	60	0.08	-1.067	0.213	-31.8564648	22.0015872	3.724227	96.00484248	2.94500412	-50.37446736
0.61	61	0.093	-1.054	0.219	-33.0023808	21.6578124	4.0680018	95.67252684	2.87624916	-50.17393206
0.62	62	0.097	-1.048	0.212	-33.231564	21.5432208	4.3544808	95.34594078	2.80176462	-49.96766718
0.63	63	0.103	-1.045	0.202	-34.37748	20.626488	4.8128472	95.00216598	2.72728008	-49.77286146
0.64	64	0.106	-1.044	0.189	-35.8671708	19.3659804	5.3858052	94.64693202	2.65279554	-49.59524448
0.65	65	0.108	-1.03	0.17	-36.8411994	18.1054728	6.3598338	94.2802389	2.57258142	-49.42335708
0.66	66	0.118	-1.012	0.161	-37.5860448	16.615782	7.2192708	93.90208662	2.48090814	-49.26865842
0.67	67	0.129	-0.998	0.159	-37.4714532	14.4958374	7.5630456	93.52393434	2.38923486	-49.13687808
0.68	68	0.133	-0.991	0.167	-37.1849742	12.318597	7.5630456	93.15151164	2.29756158	-49.02228648
0.69	69	0.13	-0.983	0.168	-37.4141574	10.7143146	7.1046792	92.77335936	2.21734746	-48.92488362
0.7	70	0.13	-0.987	0.156	-37.7006364	9.1100322	6.5317212	92.40093666	2.1485925	-48.83893992
0.71	71	0.132	-0.998	0.148	-38.2735944	6.3598338	6.2452422	92.01132522	2.07983754	-48.7873737
0.72	72	0.133	-1.01	0.14	-38.5600734	3.151269	6.016059	91.62171378	2.01681216	-48.7587258
0.73	73	0.121	-1.02	0.135	-39.4768062	0.3437748	6.1306506	91.22064318	1.95378678	-48.76445538
0.74	74	0.102	-1.018	0.109	-40.8519054	-0.8021412	6.5317212	90.80238384	1.88503182	-48.77591454
0.75	75	0.084	-1.019	0.09	-41.5967508	-1.5469866	6.9900876	90.3841245	1.81627686	-48.79883286
0.76	76	0.07	-1.031	0.102	-41.0810886	-2.2345362	7.2765666	89.96586516	1.74179232	-48.82748076
0.77	77	0.049	-1.026	0.102	-41.9405256	-2.4637194	8.0787078	89.54187624	1.65584862	-48.85612866
0.78	78	0.043	-1.011	0.097	-43.3156248	-3.8388186	9.0527364	89.10069858	1.56417534	-48.89623572
0.79	79	0.037	-1.006	0.115	-44.0031744	-8.0787078	9.740286	88.65379134	1.4610429	-48.98217942
0.8	80	0.012	-0.99	0.136	-45.0917946	-13.750992	10.9434978	88.20115452	1.35218088	-49.11968934
0.81	81	-0.011	-1.006	0.133	-44.8626114	-14.610429	11.745639	87.7485177	1.22613012	-49.26292884
0.82	82	0.01	-1.053	0.117	-44.8626114	-11.3445684	10.9434978	87.2901513	1.11153852	-49.37752044
0.83	83	0.064	-1.113	0.064	-43.9458786	-6.7609044	8.7662574	86.84324406	1.01986524	-49.4462754
0.84	84	0.117	-1.165	-0.002	-43.831287	-5.2139178	6.7036086	86.39633682	0.95111028	-49.49784162
0.85	85	0.17	-1.209	-0.063	-43.6021038	-6.2452422	5.3858052	85.95515916	0.89381448	-49.560867
0.86	86	0.207	-1.227	-0.128	-42.7999626	-9.7975818	5.0420304	85.51971108	0.83651868	-49.65826986
0.87	87	0.227	-1.203	-0.128	-39.534102	-15.8136408	5.6149884	85.11864048	0.76776372	-49.81296852
0.88	88	0.223	-1.152	-0.095	-33.518043	-21.8296998	7.161975	84.78059526	0.68182002	-50.03069256
0.89	89	0.177	-1.117	-0.061	-27.3873924	-29.1635622	10.313244	84.49984584	0.55576926	-50.31144198
0.9	90	0.121	-1.092	-0.06	-21.8869956	-35.0077338	15.0114996	84.2821218	0.38388186	-50.64375762
0.91	91	0.065	-1.062	-0.058	-15.6417534	-37.6433406	19.1367972	84.12742314	0.16615782	-50.99899158
0.92	92	0.042	-1.019	-0.057	-10.886202	-36.8984952	20.626488	84.01856112	-0.0572958	-51.34276638
0.93	93	0.043	-0.967	-0.074	-5.6722842	-33.518043	20.7410796	83.9669949	-0.286479	-51.6521637
0.94	94	0.044	-0.934	-0.105	-1.6615782	-30.653253	20.1681216	83.95553574	-0.50993262	-51.93291312
0.95	95	0.028	-0.915	-0.126	1.5469866	-29.3927454	19.2513888	83.97845406	-0.72192708	-52.20220338
0.96	96	0.006	-0.892	-0.15	4.1825934	-28.7051958	17.7044022	84.0242907	-0.9167328	-52.47149364
0.97	97	-0.017	-0.862	-0.153	6.589017	-29.5646328	15.4125702	84.10450482	-1.09434978	-52.74651348
0.98	98	-0.022	-0.815	-0.151	8.0787078	-29.9657034	12.5477802	84.1961781	-1.23758928	-53.0272629
0.99	99	-0.011	-0.741	-0.15	10.026765	-30.7678446	9.7975818	84.3107697	-1.35791046	-53.31947148
1	100	-0.011	-0.679	-0.147	11.8602306	-31.9710564	8.0787078	84.43682046	-1.45531332	-53.6288688
1.01	101	-0.026	-0.622	-0.146	13.2926256	-32.658606	6.7609044	84.58578954	-1.5469866	-53.9439957
1.02	102	-0.038	-0.58	-0.151	14.7250206	-32.8877892	5.72958	84.74621778	-1.62147114	-54.2591226
1.03	103	-0.045	-0.565	-0.14	17.3033316	-33.0596766	4.6409598	84.93529392	-1.68449652	-54.57997908
1.04	104	-0.053	-0.575	-0.123	19.4232762	-32.5440144	3.151269	85.14728838	-1.73606274	-54.89510598
1.05	105	-0.066	-0.604	-0.135	20.05353	-31.799169	1.4896908	85.35928284	-1.77044022	-55.21023288
1.06	106	-0.077	-0.638	-0.138	20.5118964	-30.2521824	-0.4010706	85.58273646	-1.7761698	-55.50817104
1.07	107	-0.084	-0.687	-0.144	20.5118964	-28.074942	-2.8074942	85.8004605	-1.75898106	-55.78319088
1.08	108	-0.09	-0.731	-0.141	20.1681216	-25.3247436	-4.5263682	86.01818454	-1.72460358	-56.0352924
1.09	109	-0.094	-0.767	-0.121	19.8243468	-22.1161788	-5.9587632	86.230179	-1.67303736	-56.25301644
1.1	110	-0.101	-0.797	-0.119	19.0222056	-19.0795014	-7.1046792	86.42498472	-1.61574156	-56.44782216
1.11	111	-0.105	-0.817	-0.124	18.5638392	-16.2720072	-7.734933	86.61979044	-1.54125702	-56.61397998
1.12	112	-0.101	-0.842	-0.12	19.5951636	-13.9228794	-7.7922288	86.82605532	-1.46677248	-56.7514899
1.13	113	-0.089	-0.872	-0.118	20.6837838	-11.2872726	-7.2192708	87.03804978	-1.39228794	-56.8660815
1.14	114	-0.074	-0.897	-0.123	21.3140376	-9.167328	-6.1306506	87.2615034	-1.33499214	-56.95775478
1.15	115	-0.065	-0.928	-0.111	22.058883	-7.2765666	-4.6982556	87.47349786	-1.2891555	-57.02650974
1.16	116	-0.071	-0.959	-0.08	23.3766864	-5.7868758	-3.6096354	87.71414022	-1.25477802	-57.08380554
1.17	117	-0.086	-0.993	-0.064	24.0069402	-4.4690724	-2.6929026	87.96051216	-1.22613012	-57.12964218
1.18	118	-0.102	-1.025	-0.049	24.8090814	-3.0366774	-1.8907614	88.21261368	-1.2032118	-57.15829008
1.19	119	-0.121	-1.061	-0.03	25.4393352	-1.2032118	-0.6875496	88.47044478	-1.19175264	-57.16401966
1.2	120	-0.14	-1.098	-0.016	25.3820394	0.6302538	0.8021412	88.72827588	-1.21467096	-57.15829008
1.21	121	-0.152	-1.128	-0.011	24.637194	2.8074942	2.1199446	88.97464782	-1.2318597	-57.1239126
1.22	122	-0.162	-1.154	-0.005	23.5485738	5.6722842	3.437748	89.21529018	-1.26623718	-57.0666168
1.23	123	-0.159	-1.165	0.012	22.1734746	8.7662574	4.6982556	89.4387438	-1.31207382	-56.97494352
1.24	124	-0.136	-1.152	0.02	21.8296998	10.8289062	5.2712136	89.65646784	-1.36364004	-56.8660815
1.25	125	-0.133	-1.159	0.033	22.8037284	12.318597	5.6722842	89.88565104	-1.42666542	-56.74003074
1.26	126	-0.122	-1.166	0.05	23.1475032	13.6364004	5.9014674	90.11483424	-1.4896908	-56.60252082
1.27	127	-0.105	-1.173	0.063	23.6058696	14.5531332	5.9587632	90.34974702	-1.55271618	-56.45928132
1.28	128	-0.085	-1.172	0.091	23.6058696	15.6417534	5.9014674	90.57893022	-1.61574156	-56.29885308
1.29	129	-0.066	-1.149	0.095	22.631841	16.902261	5.2712136	90.80238384	-1.67303736	-56.13269526
1.3	130	-0.054	-1.129	0.096	22.9756158	17.761698	4.0680018	91.03156704	-1.718874	-55.95507828
1.31	131	-0.042	-1.109	0.091	23.3766864	17.1314442	3.0366774	91.26075024	-1.75325148	-55.78319088
1.32	132	-0.036	-1.087	0.091	23.6631654	15.9282324	2.5210152	91.49566302	-1.78762896	-55.62276264
1.33	133	-0.031	-1.067	0.103	23.6631654	14.8396122	1.9480572	91.7305758	-1.81627686	-55.47379356
1.34	134	-0.02	-1.05	0.107	23.0902074	13.4072172	1.4896908	91.959759	-1.8334656	-55.33628364
1.35	135	-0.011	-1.042	0.111	22.345362	11.5737516	1.3178034	92.1889422	-1.85065434	-55.22169204
1.36	136	-0.006	-1.039	0.118	21.199446	9.740286	1.3750992	92.40093666	-1.86784308	-55.12428918
1.37	137	-0.001	-1.035	0.114	19.3086846	7.8495246	1.145916	92.5900128	-1.88503182	-55.04407506
1.38	138	0.001	-1.033	0.117	18.048177	5.7868758	0.859437	92.77335936	-1.89649098	-54.98677926
1.39	139	0.001	-1.028	0.129	16.8449652	3.437748	0.4010706	92.93951718	-1.90222056	-54.9466722
1.4	140	-0.003	-1.024	0.135	15.8136408	2.005353	-0.0572958	93.11713416	-1.89649098	-54.92375388
1.41	141	-0.011	-1.024	0.144	15.0114996	0.1145916	-0.5156622	93.26610324	-1.8907614	-54.92375388
1.42	142	-0.019	-1.022	0.155	14.32395	-1.8334656	-0.8021412	93.41507232	-1.87930224	-54.93521304
1.43	143	-0.024	-1.02	0.165	13.464513	-3.8388186	-1.0886202	93.55258224	-1.8621135	-54.9753201
1.44	144	-0.03	-1.015	0.163	12.0894138	-5.9587632	-1.718874	93.678633	-1.83919518	-55.02688632
1.45	145	-0.036	-1.006	0.164	11.5164558	-7.3338624	-2.4064236	93.81614292	-1.8048177	-55.09564128
1.46	146	-0.039	-0.997	0.166	11.745639	-8.1360036	-2.9793816	93.9364641	-1.77044022	-55.1758554
1.47	147	-0.042	-0.984	0.173	12.2040054	-8.8235532	-3.4950438	94.06251486	-1.72460358	-55.25606952
1.48	148	-0.042	-0.966	0.178	12.318597	-8.3651868	-3.7815228	94.1942952	-1.67876694	-55.33628364
1.49	149	-0.041	-0.955	0.176	12.4904844	-8.021412	-3.9534102	94.32607554	-1.62720072	-55.41076818
1.5	150	-0.039	-0.957	0.177	12.6623718	-8.3651868	-4.1252976	94.46931504	-1.58136408	-55.48525272
1.51	151	-0.049	-0.967	0.17	12.8342592	-8.59437	-4.297185	94.60109538	-1.52406828	-55.56546684
1.52	152	-0.06	-0.98	0.17	13.464513	-8.6516658	-4.1252976	94.74433488	-1.47250206	-55.64568096
1.53	153	-0.064	-0.998	0.174	13.8655836	-9.0527364	-3.9534102	94.88757438	-1.42666542	-55.73162466
1.54	154	-0.064	-1.004	0.18	14.2666542	-9.1100322	-3.3804522	95.03654346	-1.38082878	-55.81183878
1.55	155	-0.061	-1.015	0.19	14.6677248	-8.7089616	-2.6929026	95.20270128	-1.3464513	-55.8920529
1.56	156	-0.058	-1.013	0.195	14.3812458	-7.6776372	-2.0626488	95.35167036	-1.3178034	-55.96653744
1.57	157	-0.055	-1.011	0.196	14.1520626	-6.7609044	-1.5469866	95.49490986	-1.2891555	-56.02956282
1.58	158	-0.054	-1.014	0.192	14.0947668	-5.7868758	-0.9740286	95.64387894	-1.27196676	-56.08112904
1.59	159	-0.056	-1.018	0.188	14.2666542	-4.583664	-0.4010706	95.78711844	-1.2605076	-56.12696568
1.6	160	-0.056	-1.02	0.191	14.1520626	-3.3804522	0.1145916	95.94754668	-1.26623718	-56.15561358
1.61	161	-0.052	-1.018	0.189	13.8082878	-2.3491278	0.6875496	96.09078618	-1.26623718	-56.1785319
1.62	162	-0.049	-1.017	0.188	13.4072172	-1.3750992	1.2605076	96.2282961	-1.27769634	-56.18999106
1.63	163	-0.038	-1.02	0.188	12.891555	-0.2291832	1.432395	96.36007644	-1.2891555	-56.19572064
1.64	164	-0.027	-1.02	0.183	12.2040054	0.5156622	1.2605076	96.48039762	-1.30061466	-56.18999106
1.65	165	-0.018	-1.02	0.178	11.6883432	0.859437	1.0313244	96.61217796	-1.30634424	-56.1785319
1.66	166	-0.009	-1.019	0.175	10.886202	0.7448454	0.6875496	96.72103998	-1.3178034	-56.17280232
1.67	167	-0.002	-1.014	0.174	9.7975818	0	0.4583664	96.82417242	-1.3178034	-56.17280232
1.68	168	0.001	-1.008	0.185	8.4797784	-1.5469866	0.2291832	96.91011612	-1.3178034	-56.18426148
1.69	169	0.004	-1.003	0.182	7.3338624	-3.2658606	0	96.98460066	-1.31207382	-56.21863896
1.7	170	0.003	-1.003	0.17	6.7036086	-4.1825934	-0.4583664	97.06481478	-1.2891555	-56.25301644
1.71	171	0	-1.007	0.164	6.4171296	-4.4117766	-0.9167328	97.12784016	-1.27196676	-56.29885308
1.72	172	-0.005	-1.01	0.17	5.3858052	-4.3544808	-1.432395	97.18513596	-1.25477802	-56.33896014
1.73	173	-0.008	-1.01	0.172	4.583664	-4.297185	-1.7761698	97.2309726	-1.22613012	-56.37333762
1.74	174	-0.011	-1.011	0.176	4.1825934	-4.4117766	-2.0626488	97.27680924	-1.2032118	-56.41344468
1.75	175	-0.015	-1.014	0.179	3.724227	-4.4690724	-2.291832	97.32837546	-1.16883432	-56.45355174
1.76	176	-0.017	-1.014	0.182	2.86479	-4.7555514	-2.3491278	97.35702336	-1.13445684	-56.49938838
1.77	177	-0.016	-1.013	0.189	1.4896908	-5.3285094	-2.1199446	97.3742121	-1.10580894	-56.5509546
1.78	178	-0.01	-1.012	0.191	-0.572958	-5.72958	-1.9480572	97.3742121	-1.07716104	-56.60252082
1.79	179	-0.007	-1.006	0.187	-2.86479	-5.6722842	-1.8907614	97.3455642	-1.04851314	-56.65408704
1.8	180	-0.019	-1.008	0.174	-4.010706	-5.156622	-2.291832	97.31118672	-1.01986524	-56.69992368
1.81	181	-0.019	-1.011	0.17	-5.156622	-5.0420304	-2.6356068	97.2596205	-0.98548776	-56.7514899
1.82	182	-0.023	-1.015	0.17	-6.302538	-5.0420304	-2.8074942	97.19659512	-0.95111028	-56.79732654
1.83	183	-0.028	-1.014	0.18	-7.161975	-4.9847346	-3.151269	97.12784016	-0.91100322	-56.84316318
1.84	184	-0.034	-1.004	0.197	-7.734933	-5.0420304	-3.0939732	97.04762604	-0.87089616	-56.88899982
1.85	185	-0.045	-0.987	0.2	-7.5057498	-5.3285094	-2.6356068	96.99033024	-0.84797784	-56.93483646
1.86	186	-0.053	-0.98	0.191	-6.9900876	-4.1252976	-2.1199446	96.92157528	-0.82505952	-56.97494352
1.87	187	-0.057	-0.98	0.192	-6.0733548	-1.8334656	-2.0626488	96.8585499	-0.8021412	-56.99213226
1.88	188	-0.047	-0.979	0.201	-5.443101	-0.0572958	-2.6929026	96.80698368	-0.7734933	-56.99213226
1.89	189	-0.029	-0.981	0.202	-4.4690724	1.2032118	-3.724227	96.76114704	-0.73911582	-56.97494352
1.9	190	-0.012	-0.985	0.205	-3.5523396	2.2345362	-4.870143	96.74968788	-0.6875496	-56.94056604
1.91	191	-0.003	-0.99	0.2	-2.7501984	3.0366774	-5.5003968	96.72103998	-0.64171296	-56.90618856
1.92	192	-0.001	-0.99	0.198	-1.8907614	3.4950438	-5.3858052	96.69812166	-0.59014674	-56.8660815
1.93	193	-0.007	-0.99	0.196	-1.145916	3.3231564	-4.4117766	96.6866625	-0.55003968	-56.82597444
1.94	194	-0.012	-0.988	0.194	-1.0313244	3.3804522	-3.0366774	96.67520334	-0.52712136	-56.79159696
1.95	195	-0.014	-0.99	0.19	-1.145916	3.8961144	-2.005353	96.69812166	-0.50993262	-56.74576032
1.96	196	-0.01	-0.992	0.187	-1.2605076	4.7555514	-1.4896908	96.6866625	-0.50420304	-56.69992368
1.97	197	0	-0.992	0.185	-1.6615782	5.9014674	-1.3178034	96.66374418	-0.49847346	-56.6368983
1.98	198	0.01	-0.994	0.183	-1.9480572	6.6463128	-1.432395	96.64655544	-0.49274388	-56.57387292
1.99	199	0.017	-0.994	0.176	-2.0626488	6.8182002	-1.8907614	96.62363712	-0.4870143	-56.49938838
2	200	0.025	-0.997	0.177	-2.005353	6.3598338	-2.291832	96.61790754	-0.45263682	-56.436363
2.01	201	0.032	-1	0.184	-2.1199446	4.6409598	-2.4064236	96.59498922	-0.43544808	-56.38479678
2.02	202	0.031	-0.998	0.18	-2.4637194	2.4064236	-2.0626488	96.5720709	-0.41825934	-56.36187846
2.03	203	0.024	-0.996	0.176	-2.5210152	0.9740286	-1.6042824	96.543423	-0.4010706	-56.3504193
2.04	204	0.017	-0.993	0.179	-2.291832	0.286479	-1.0313244	96.52050468	-0.38961144	-56.34468972
2.05	205	0.009	-0.99	0.181	-2.005353	-0.0572958	-0.6302538	96.58353006	-0.35523396	-56.33323056
2.06	206	0.002	-0.987	0.182	-1.6042824	-0.1145916	-0.4583664	96.56634132	-0.34950438	-56.33896014
2.07	207	-0.005	-0.986	0.181	-1.145916	0.1145916	-0.572958	96.55488216	-0.3437748	-56.33323056
2.08	208	-0.012	-0.986	0.184	-0.9167328	0.7448454	-0.9740286	96.543423	-0.33231564	-56.32750098
2.09	209	-0.017	-0.987	0.183	-0.9740286	1.2032118	-1.3750992	96.53196384	-0.32085648	-56.31031224
2.1	210	-0.021	-0.993	0.18	-1.0313244	1.7761698	-1.5469866	96.56634132	-0.32085648	-56.28739392
2.11	211	-0.024	-0.996	0.177	-1.2032118	2.4637194	-1.432395	96.55488216	-0.30939732	-56.2644756
2.12	212	-0.024	-0.997	0.177	-1.3178034	2.9220858	-0.9167328	96.53769342	-0.30366774	-56.23009812
2.13	213	-0.021	-0.996	0.176	-1.432395	3.437748	-0.5156622	96.52050468	-0.30366774	-56.19572064
2.14	214	-0.016	-0.996	0.18	-1.3750992	3.3231564	-0.1145916	96.50904552	-0.30939732	-56.16707274
2.15	215	-0.012	-0.995	0.176	-1.432395	3.0939732	0.286479	96.53196384	-0.3151269	-56.13269526
2.16	216	-0.009	-0.995	0.172	-1.432395	3.0366774	0.4583664	96.5147751	-0.32658606	-56.09831778
2.17	217	-0.005	-0.997	0.17	-1.4896908	3.0366774	0.4583664	96.49758636	-0.33231564	-56.06966988
2.18	218	-0.002	-0.995	0.168	-1.432395	2.86479	0.4010706	96.4861272	-0.3437748	-56.04102198
2.19	219	0	-0.991	0.171	-1.0313244	2.4064236	0.286479	96.47466804	-0.34950438	-56.01810366
2.2	220	-0.001	-0.992	0.17	-0.9740286	2.1772404	0	96.5147751	-0.33804522	-55.99518534
2.21	221	-0.003	-0.993	0.167	-1.0886202	2.005353	-0.2291832	96.50331594	-0.3437748	-55.97226702
2.22	222	-0.005	-0.997	0.168	-1.145916	1.7761698	-0.5156622	96.49185678	-0.33804522	-55.95507828
2.23	223	-0.005	-0.999	0.167	-1.0886202	1.5469866	-0.5156622	96.48039762	-0.33804522	-55.93788954
2.24	224	-0.005	-1	0.169	-1.0313244	1.3750992	-0.286479	96.46893846	-0.33231564	-55.92643038
2.25	225	-0.002	-1	0.176	-1.0313244	1.145916	0.0572958	96.543423	-0.3151269	-55.90351206
2.26	226	-0.002	-1.001	0.175	-1.3178034	0.8021412	0.5156622	96.53196384	-0.32658606	-55.89778248
2.27	227	0	-1	0.169	-1.432395	0.572958	0.9740286	96.5147751	-0.33804522	-55.8920529
2.28	228	0.001	-1	0.173	-1.432395	0.1718874	1.432395	96.49758636	-0.34950438	-55.8920529
2.29	229	0	-0.996	0.177	-1.3178034	-0.286479	1.8907614	96.4861272	-0.36669312	-55.89778248
2.3	230	0.001	-0.995	0.172	-1.4896908	-0.572958	2.1772404	96.50904552	-0.37815228	-55.90351206
2.31	231	0.002	-0.998	0.173	-1.6042824	-0.7448454	2.4064236	96.49185678	-0.4010706	-55.90924164
2.32	232	0.004	-0.999	0.173	-2.1199446	-1.0313244	2.578311	96.47466804	-0.42398892	-55.92643038
2.33	233	0.002	-0.996	0.173	-2.1772404	-1.8334656	3.151269	96.45174972	-0.45263682	-55.9493487
2.34	234	-0.003	-0.993	0.178	-1.4896908	-2.9220858	4.010706	96.43456098	-0.4870143	-55.98372618
2.35	235	-0.009	-0.995	0.181	-0.9167328	-3.8388186	4.7555514	96.45174972	-0.52712136	-56.02383324
2.36	236	-0.011	-0.998	0.186	-1.0313244	-4.583664	5.5003968	96.44602014	-0.57868758	-56.07539946
2.37	237	-0.012	-0.998	0.185	-1.3750992	-5.8441716	6.6463128	96.4288314	-0.63598338	-56.13842484
2.38	238	-0.008	-0.999	0.192	-1.4896908	-7.7922288	8.3651868	96.41737224	-0.70473834	-56.22436854
2.39	239	-0.006	-1.003	0.188	-1.8907614	-10.8289062	10.6570188	96.4001835	-0.79641162	-56.34468972
2.4	240	-0.002	-1.01	0.188	-1.9480572	-13.2926256	13.178034	96.39445392	-0.90527364	-56.48792922
2.41	241	-0.005	-1.009	0.189	-2.4637194	-13.8655836	15.1260912	96.37726518	-1.03705398	-56.64262788
2.42	242	-0.009	-1.004	0.193	-2.6929026	-12.891555	15.756345	96.34861728	-1.1745639	-56.78586738
2.43	243	-0.021	-0.998	0.195	-2.9793816	-11.3445684	15.5271618	96.32569896	-1.31207382	-56.91764772
2.44	244	-0.031	-0.995	0.193	-3.6669312	-9.6829902	14.9542038	96.29132148	-1.44958374	-57.02650974
2.45	245	-0.035	-0.998	0.189	-4.297185	-8.1932994	14.6677248	96.26267358	-1.58136408	-57.1239126
2.46	246	-0.028	-1.007	0.186	-4.8128472	-7.3911582	14.7823164	96.21683694	-1.718874	-57.21558588
2.47	247	-0.021	-1.012	0.188	-5.2139178	-7.7922288	15.2979786	96.1710003	-1.85638392	-57.30725916
2.48	248	-0.016	-1.013	0.191	-5.6149884	-8.4797784	16.1574156	96.11943408	-2.005353	-57.4103916
2.49	249	-0.011	-1.011	0.198	-5.9014674	-8.880849	16.9595568	96.06213828	-2.16578124	-57.51352404
2.5	250	-0.009	-1.01	0.205	-5.72958	-8.8235532	17.9908812	96.02203122	-2.32620948	-57.62238606
2.51	251	-0.007	-1.003	0.213	-5.5576926	-8.1360036	18.621135	95.970465	-2.49809688	-57.7255185
2.52	252	-0.007	-0.991	0.207	-5.8441716	-6.875496	18.2200644	95.91889878	-2.66998428	-57.8114622
2.53	253	-0.005	-0.992	0.206	-6.7036086	-6.016059	17.761698	95.85014382	-2.8361421	-57.89167632
2.54	254	-0.006	-0.982	0.209	-7.3338624	-5.0420304	16.902261	95.78138886	-2.99657034	-57.9547017
2.55	255	-0.002	-0.975	0.215	-8.1360036	-3.6669312	16.2147114	95.72409306	-3.14553942	-58.0119975
2.56	256	0.002	-0.98	0.209	-8.59437	-3.0939732	16.1574156	95.63814936	-3.30023808	-58.05783414
2.57	257	-0.003	-0.989	0.221	-9.1100322	-2.86479	16.6730778	95.54647608	-3.46066632	-58.10367078
2.58	258	-0.007	-0.997	0.204	-11.0580894	-2.8074942	17.4179232	95.43761406	-3.63255372	-58.14950742
2.59	259	-0.008	-1.012	0.191	-11.0007936	-3.151269	18.621135	95.32875204	-3.8101707	-58.20107364
2.6	260	-0.013	-1.018	0.2	-10.5424272	-4.010706	19.8816426	95.24280834	-3.99351726	-58.25836944
2.61	261	-0.011	-1.013	0.204	-10.7143146	-4.6409598	21.4286292	95.1396759	-4.20551172	-58.3271244
2.62	262	-0.015	-1	0.2	-11.2872726	-4.4690724	22.2307704	95.03081388	-4.41750618	-58.39587936
2.63	263	-0.02	-1	0.196	-11.745639	-3.8961144	22.7464326	94.91622228	-4.6409598	-58.45317516
2.64	264	-0.022	-1.008	0.18	-12.6623718	-2.9793816	22.8610242	94.79017152	-4.86441342	-58.50474138
2.65	265	-0.028	-1.022	0.17	-13.178034	-2.1772404	22.8610242	94.66985034	-5.08213746	-58.55057802
2.66	266	-0.042	-1.033	0.189	-14.0947668	-1.718874	22.91832	94.53234042	-5.30559108	-58.5849555
2.67	267	-0.053	-1.033	0.197	-17.0741484	-0.859437	22.6891368	94.36045302	-5.53477428	-58.6136034
2.68	268	-0.054	-1.029	0.171	-18.7357266	-0.859437	22.8037284	94.17710646	-5.7582279	-58.6422513
2.69	269	-0.055	-1.023	0.169	-18.334656	-0.9167328	23.3193906	93.9937599	-5.99314068	-58.6708992
2.7	270	-0.06	-1.024	0.188	-19.4232762	-0.286479	23.4339822	93.81041334	-6.2165943	-58.69381752
2.71	271	-0.053	-1.015	0.194	-22.058883	1.2032118	23.777757	93.58695972	-6.45723666	-58.6995471
2.72	272	-0.059	-1.013	0.182	-22.5745452	3.0939732	24.2934192	93.35777652	-6.7036086	-58.68808794
2.73	273	-0.054	-1.017	0.161	-22.4026578	4.010706	24.4080108	93.12859332	-6.94998054	-58.66516962
2.74	274	-0.05	-1.019	0.154	-22.5172494	4.4117766	24.6944898	92.89368054	-7.20208206	-58.63652172
2.75	275	-0.053	-1.025	0.14	-23.3193906	3.5523396	24.923673	92.65876776	-7.44272442	-58.61933298
2.76	276	-0.057	-1.027	0.142	-23.9496444	2.6929026	25.1528562	92.4181254	-7.69482594	-58.60214424
2.77	277	-0.069	-1.022	0.144	-24.923673	2.6356068	24.9809688	92.1602943	-7.94692746	-58.59068508
2.78	278	-0.078	-1.015	0.138	-24.9809688	2.4064236	24.1788276	91.90819278	-8.1932994	-58.57922592
2.79	279	-0.085	-1.032	0.136	-26.0122932	1.8907614	23.0902074	91.63890252	-8.4224826	-58.57349634
2.8	280	-0.079	-1.009	0.129	-26.6998428	2.005353	23.3193906	91.37534184	-8.6516658	-58.56203718
2.81	281	-0.093	-1.016	0.131	-27.6738714	2.4637194	23.6631654	91.09459242	-8.89230816	-58.54484844
2.82	282	-0.085	-1.006	0.112	-29.4500412	3.437748	24.064236	90.79092468	-9.13295052	-58.52193012
2.83	283	-0.101	-1.005	0.103	-29.8511118	2.86479	25.2674478	90.48725694	-9.38505204	-58.4990118
2.84	284	-0.109	-1.005	0.097	-30.1948866	0.859437	26.2414764	90.17785962	-9.6543423	-58.49328222
2.85	285	-0.117	-1.001	0.098	-30.080295	-1.0313244	27.2728008	89.88565104	-9.91790298	-58.51047096
2.86	286	-0.129	-0.999	0.09	-30.7105488	-2.5210152	28.1895336	89.57625372	-10.20438198	-58.53911886
2.87	287	-0.128	-0.997	0.088	-32.0283522	-2.9793816	28.074942	89.26112682	-10.4851314	-58.56776676
2.88	288	-0.137	-0.988	0.07	-31.7418732	-3.2085648	27.9030546	88.94027034	-10.76015124	-58.60214424
2.89	289	-0.147	-0.998	0.073	-31.226211	-3.2085648	27.788463	88.63087302	-11.04090066	-58.63652172
2.9	290	-0.157	-0.997	0.071	-31.6845774	-3.3804522	27.9603504	88.3214757	-11.3159205	-58.66516962
2.91	291	-0.165	-0.995	0.071	-31.799169	-3.3804522	28.2468294	88.0063488	-11.6023995	-58.69381752
2.92	292	-0.167	-0.995	0.063	-32.2002396	-3.724227	28.4760126	87.6912219	-11.8888785	-58.728195
2.93	293	-0.175	-0.988	0.045	-32.3148312	-4.9847346	28.7624916	87.37036542	-12.1753575	-58.76830206
2.94	294	-0.192	-0.974	0.046	-32.4867186	-5.0420304	28.8197874	87.04950894	-12.46756608	-58.80840912
2.95	295	-0.209	-0.975	0.036	-31.5699858	-4.6409598	28.5906042	86.7458412	-12.75404508	-58.84851618
2.96	296	-0.217	-0.992	0.029	-31.1116194	-4.583664	28.5333084	86.43644388	-13.04052408	-58.88289366
2.97	297	-0.223	-1	0.039	-31.6845774	-3.151269	28.4187168	86.12131698	-13.32700308	-58.9000824
2.98	298	-0.229	-0.984	0.016	-33.0023808	-2.3491278	28.1322378	85.78900134	-13.6077525	-58.90581198
2.99	299	-0.227	-0.975	0.011	-32.4867186	-1.9480572	27.9603504	85.46241528	-13.88850192	-58.91154156
3	300	-0.224	-0.97	0.01	-32.4867186	-2.005353	27.6165756	85.13582922	-14.16352176	-58.91154156
3.01	301	-0.224	-0.956	0.013	-32.372127	-1.432395	27.3873924	84.80924316	-14.4385416	-58.90581198
3.02	302	-0.224	-0.938	0.001	-32.1429438	-0.8021412	27.501984	84.47692752	-14.71929102	-58.89435282
3.03	303	-0.197	-0.958	0.003	-30.5386614	-0.9167328	26.5279554	84.1675302	-14.9828517	-58.87716408
3.04	304	-0.202	-0.952	-0.007	-31.1689152	-0.9167328	25.496631	83.84667372	-15.2406828	-58.86570492
3.05	305	-0.201	-0.939	-0.009	-30.1948866	-0.859437	24.5226024	83.54300598	-15.48132516	-58.85424576
3.06	306	-0.197	-0.931	-0.007	-29.507337	-0.2291832	23.2620948	83.23933824	-15.71050836	-58.83132744
3.07	307	-0.184	-0.934	-0.025	-28.7051958	-0.6875496	22.2880662	82.94712966	-15.93396198	-58.8141387
3.08	308	-0.176	-0.931	-0.033	-28.4760126	-2.3491278	21.5432208	82.65492108	-16.15168602	-58.8141387
3.09	309	-0.174	-0.926	-0.037	-27.9603504	-3.724227	20.8556712	82.37417166	-16.36368048	-58.83132744
3.1	310	-0.174	-0.917	-0.032	-27.4446882	-4.870143	20.2254174	82.11634056	-16.5584862	-58.85424576
3.11	311	-0.176	-0.911	-0.027	-26.356068	-5.2712136	19.4232762	81.85850946	-16.7590215	-58.88289366
3.12	312	-0.181	-0.911	-0.028	-25.496631	-5.2139178	18.7357266	81.60640794	-16.95382722	-58.91727114
3.13	313	-0.187	-0.918	-0.037	-24.637194	-5.0993262	18.1627686	81.36576558	-17.14290336	-58.94018946
3.14	314	-0.191	-0.924	-0.036	-24.1215318	-5.6722842	17.6471064	81.1308528	-17.32624992	-58.97456694
3.15	315	-0.195	-0.92	-0.037	-23.9496444	-6.5317212	17.0741484	80.91312876	-17.49240774	-59.02040358
3.16	316	-0.197	-0.915	-0.041	-23.0329116	-7.3338624	16.615782	80.69540472	-17.66429514	-59.0719698
3.17	317	-0.196	-0.912	-0.04	-22.1161788	-8.4224826	16.4438946	80.48913984	-17.84191212	-59.13499518
3.18	318	-0.196	-0.911	-0.045	-21.3140376	-9.3965112	16.5584862	80.3000637	-18.0195291	-59.20375014
3.19	319	-0.203	-0.904	-0.041	-20.8556712	-10.0840608	16.9595568	80.11098756	-18.20287566	-59.27823468
3.2	320	-0.206	-0.891	-0.036	-19.8243468	-9.8548776	17.5898106	79.95055932	-18.38049264	-59.3584488
3.21	321	-0.172	-0.928	-0.034	-18.2200644	-10.3705398	16.902261	79.79013108	-18.5638392	-59.43293334
3.22	322	-0.18	-0.916	-0.044	-19.1367972	-11.172681	16.329303	79.62397326	-18.74145618	-59.52460662
3.23	323	-0.179	-0.91	-0.056	-18.621135	-11.9748222	16.1001198	79.4692746	-18.91907316	-59.6162799
3.24	324	-0.174	-0.908	-0.061	-18.1054728	-12.7196676	15.8709366	79.32030552	-19.09096056	-59.71941234
3.25	325	-0.164	-0.909	-0.053	-17.5325148	-13.0634424	15.6417534	79.19425476	-19.2513888	-59.82827436
3.26	326	-0.153	-0.908	-0.042	-17.0168526	-13.1207382	15.469866	79.05674484	-19.4232762	-59.93713638
3.27	327	-0.138	-0.911	-0.043	-16.615782	-13.2353298	15.2979786	78.9249645	-19.5951636	-60.0459984
3.28	328	-0.124	-0.911	-0.039	-16.5011904	-13.464513	15.0114996	78.79891374	-19.767051	-60.16059
3.29	329	-0.113	-0.906	-0.044	-16.6730778	-13.8655836	14.610429	78.67286298	-19.93320882	-60.2751816
3.3	330	-0.11	-0.901	-0.057	-16.6730778	-15.3552744	14.1520626	78.56400096	-20.07071874	-60.40696194
3.31	331	-0.116	-0.899	-0.058	-16.7303736	-17.3606274	13.4072172	78.44940936	-20.23687656	-60.5616606
3.32	332	-0.116	-0.898	-0.059	-17.18874	-18.334656	12.4904844	78.33481776	-20.39157522	-60.72781842
3.33	333	-0.106	-0.894	-0.057	-17.761698	-18.334656	11.6883432	78.21449658	-20.53481472	-60.89970582
3.34	334	-0.094	-0.893	-0.059	-17.18874	-17.761698	10.886202	78.09990498	-20.67805422	-61.06013406
3.35	335	-0.086	-0.903	-0.07	-18.1627686	-18.3919518	10.1413566	77.99104296	-20.78118666	-61.23775104
3.36	336	-0.08	-0.914	-0.076	-19.4232762	-18.048177	9.5111028	77.85926262	-20.90723742	-61.40390886
3.37	337	-0.059	-0.926	-0.074	-20.626488	-18.048177	8.5370742	77.71029354	-21.02182902	-61.57579626
3.38	338	-0.042	-0.917	-0.045	-23.2620948	-23.0329116	7.9068204	77.56132446	-21.14787978	-61.79924988
3.39	339	-0.041	-0.897	-0.048	-25.1528562	-30.366774	6.9327918	77.41808496	-21.27393054	-62.10291762
3.4	340	-0.053	-0.901	-0.088	-24.923673	-34.8358464	5.2712136	77.30349336	-21.36560382	-62.45815158
3.41	341	-0.058	-0.9	-0.112	-24.6944898	-36.4401288	2.5210152	77.19463134	-21.46300668	-62.83630386
3.42	342	-0.048	-0.885	-0.135	-25.5539268	-36.2682414	-0.7448454	77.08576932	-21.52603206	-63.22018572
3.43	343	-0.032	-0.859	-0.132	-26.9863218	-37.9298196	-4.2398892	76.96544814	-21.56613912	-63.6269859
3.44	344	-0.009	-0.838	-0.128	-27.215505	-41.7686382	-7.3338624	76.8623157	-21.57759828	-64.0853523
3.45	345	0.015	-0.81	-0.14	-27.3873924	-45.83664	-10.2559482	76.776372	-21.54895038	-64.58955534
3.46	346	0.044	-0.791	-0.154	-26.2987722	-48.2430636	-13.6936962	76.71334662	-21.5145729	-65.12813586
3.47	347	0.072	-0.777	-0.167	-24.6944898	-51.279741	-16.7876694	76.67896914	-21.4572771	-65.70682344
3.48	348	0.096	-0.77	-0.174	-22.058883	-56.6655462	-18.907614	76.69615788	-21.39425172	-66.34280682
3.49	349	0.11	-0.769	-0.187	-21.199446	-61.9940556	-20.2254174	76.74199452	-21.31976718	-67.036086
3.5	350	0.126	-0.738	-0.191	-20.4546006	-65.8328742	-21.3713334	76.8050199	-21.2280939	-67.77520182
3.51	351	0.127	-0.718	-0.182	-17.5898106	-69.614397	-22.6891368	76.9196115	-21.14787978	-68.5544247
3.52	352	0.123	-0.7	-0.177	-13.5218088	-72.5364828	-25.0955604	77.08576932	-21.04474734	-69.36802506
3.53	353	0.108	-0.724	-0.154	-10.5424272	-74.7137232	-27.4446882	77.28630462	-20.92442616	-70.21027332
3.54	354	0.082	-0.731	-0.16	-8.7662574	-76.3753014	-36.1536498	77.5212174	-20.71816128	-71.08689906
3.55	355	0.076	-0.759	-0.129	-6.302538	-75.916935	-45.8939358	77.7790485	-20.3973048	-71.97498396
3.56	356	0.071	-0.7	-0.105	-5.9587632	-75.8596392	-54.5456016	78.04260918	-20.00769336	-72.88598718
3.57	357	0.03	-0.579	-0.071	-0.8021412	-72.8229618	-60.9627312	78.34054734	-19.5378678	-73.7683425
3.58	358	0.039	-0.526	-0.067	6.1306506	-66.4058322	-67.6663398	78.68432214	-18.9935577	-74.59340202
3.59	359	0.11	-0.607	-0.039	11.1153852	-56.8374336	-72.7083702	79.03382652	-18.37476306	-75.32105868
3.6	360	0.225	-0.727	-0.03	14.9542038	-49.3889796	-72.2500038	79.39479006	-17.72159094	-75.96850122
3.61	361	0.239	-0.75	-0.095	15.2406828	-49.0452048	-64.744254	79.74429444	-17.16582168	-76.58729586
3.62	362	0.195	-0.75	-0.127	14.8396122	-57.3530958	-50.8213746	80.0995284	-16.74756234	-77.2633863
3.63	363	0.174	-0.763	-0.145	13.9801752	-69.327918	-33.6326346	80.46622152	-16.51837914	-78.02542044
3.64	364	0.102	-0.728	-0.133	11.6310474	-77.4639216	-14.037471	80.82718506	-16.47827208	-78.8390208
3.65	365	0.112	-0.709	-0.104	13.9801752	-81.5319234	5.9587632	81.21106692	-16.62151158	-79.66408032
3.66	366	0.125	-0.648	-0.127	15.469866	-81.5319234	25.210152	81.61213752	-16.96528638	-80.46049194
3.67	367	0.138	-0.486	-0.135	17.5325148	-80.3860074	39.4768062	82.03039686	-17.4465711	-81.22825566
3.68	368	0.153	-0.286	-0.094	22.345362	-77.8649922	42.4561878	82.49449284	-17.94504456	-81.96737148
3.69	369	0.17	-0.206	-0.088	28.7624916	-72.7083702	42.2270046	83.01015504	-18.42632928	-82.66638024
3.7	370	0.16	-0.233	-0.084	33.7472262	-70.0727634	47.9565846	83.57738346	-18.94772106	-83.33101152
3.71	371	0.151	-0.283	-0.024	40.2789474	-67.895523	58.4990118	84.20763726	-19.57224528	-83.97272448
3.72	372	0.138	-0.379	-0.053	49.3889796	-63.884817	70.7030172	84.91810518	-20.3113611	-84.5686008
3.73	373	0.084	-0.445	-0.164	49.7327544	-61.6502808	83.2507974	85.64003226	-21.16506852	-85.1415588
3.74	374	-0.051	-0.391	-0.218	50.706783	-64.2285918	95.683986	86.39060724	-22.13336754	-85.75462386
3.75	375	-0.252	-0.321	-0.133	58.9000824	-72.8229618	107.6015124	87.26723298	-23.22198774	-86.46509178
3.76	376	-0.497	-0.327	-0.05	68.8695516	-85.1988546	122.7276036	88.33293486	-24.44238828	-87.33025836
3.77	377	-0.778	-0.525	0.02	82.0475856	-96.0850566	137.1661452	89.6106312	-25.78883958	-88.34439402
3.78	378	-0.954	-0.754	0.128	93.8505204	-109.2630906	152.1776448	91.12324032	-27.25561206	-89.5533354
3.79	379	-1.207	-0.944	0.245	103.8199896	-114.4197126	171.4290336	92.82492558	-28.8770832	-90.89405712
3.8	380	-1.364	-1.093	0.427	118.3731228	-105.8253426	187.2999702	94.70422782	-30.63033468	-92.22331968
3.81	381	-1.561	-1.182	0.52	125.0767314	-97.3455642	201.0509622	96.69239208	-32.4867186	-93.5640414
3.82	382	-1.879	-1.295	0.669	133.0408476	-87.8344614	216.5208282	98.8066071	-34.46915328	-94.92768144
3.83	383	-2.114	-1.517	0.824	153.552744	-72.0208206	218.6407728	101.1328166	-36.45158796	-96.2282961
3.84	384	-1.868	-1.519	0.916	151.9484616	-53.6861646	216.4062366	103.4246486	-38.4168339	-97.4315079
3.85	385	-2.151	-1.745	0.901	188.7323652	-38.1590028	201.1655538	106.0430666	-40.23311076	-98.53158726
3.86	386	-2.884	-2.154	0.79	147.250206	20.912967	174.9813732	107.7905885	-41.95198476	-98.92692828
3.87	387	-2.469	-1.644	0.669	56.3217714	84.224826	191.4252678	108.1744704	-44.03755188	-98.65763802
3.88	388	-1.957	-0.8	0.679	-4.7555514	111.0392604	231.2458488	107.7905885	-46.58721498	-98.2050012
3.89	389	-1.768	-0.144	0.741	-3.9534102	117.8574606	274.6187694	107.4410842	-49.56659658	-97.79820102
3.9	390	-1.736	-0.18	0.657	27.6165756	137.9682864	287.624916	107.1660643	-52.73505432	-97.10492184
3.91	391	-1.627	-0.141	0.407	8.8235532	173.033316	288.0832824	106.1232808	-56.0066445	-95.73555222
3.92	392	-1.413	-0.143	0.466	45.0344988	168.6788352	282.5828856	105.246655	-59.19802056	-94.17710646
3.93	393	-1.319	-0.296	0.529	84.1675302	141.520626	278.744067	104.9773648	-62.26907544	-92.89941012
3.94	394	-1.305	-0.482	0.481	91.2722094	104.0491728	279.5462082	105.3612466	-65.23699788	-92.30926338
3.95	395	-1.356	-0.658	0.47	72.9375534	88.0063488	276.5668266	105.8826384	-68.13043578	-92.08008018
3.96	396	-1.342	-0.631	0.431	43.3729206	91.7305758	280.3483494	106.0602554	-71.0754399	-91.79933076
3.97	397	-1.156	-0.458	0.283	31.1116194	98.4914802	291.1772556	105.9628525	-74.14649478	-91.37534184
3.98	398	-1.001	-0.285	0.22	28.9916748	103.418919	301.2613164	105.6305369	-77.32641168	-90.73935846
3.99	399	-1.053	-0.152	0.211	34.6066632	105.3669762	302.8655988	104.9429873	-80.52351732	-89.69084532
4	400	-1.332	0.057	0.269	50.0192334	86.0582916	288.770832	104.920069	-83.5372764	-89.15799438
4.01	401	-1.495	0.09	0.461	40.5081306	54.2591226	256.5705924	107.6129716	-86.1442353	-91.45555596
4.02	402	-1.596	0.074	0.333	0.6875496	33.9764094	219.9585762	119.4789317	-88.2928278	-103.3215161
4.03	403	-1.806	-0.138	0.524	-4.6982556	0.3437748	183.1746726	-158.1020305	-89.094969	174.2021503
4.04	404	-1.588	-0.123	0.503	-27.6738714	-17.8189938	150.6306582	-119.3987176	-87.90321636	135.2066288
4.05	405	-1.268	0.105	0.233	-34.6066632	-15.756345	125.8215768	-111.5434634	-86.69427498	127.0018703
4.06	406	-1.144	0.324	0.174	-24.4653066	-12.4904844	100.6114248	-108.4724086	-85.7145168	123.6729843
4.07	407	-1.001	0.522	-0.004	-18.048177	0.6875496	77.5212174	-105.819613	-84.97540098	120.8368422
4.08	408	-0.889	0.66	-0.218	-12.6623718	7.6776372	60.6189564	-103.5335106	-84.41390214	118.4075003
4.09	409	-0.81	0.65	-0.148	-2.4637194	-2.9220858	44.8053156	-102.8574202	-83.97272448	117.7027619
4.1	410	-0.674	0.678	-0.035	8.1932994	-15.3552744	29.793816	-103.3387049	-83.57738346	118.2757199
4.11	411	-0.616	0.638	0.033	26.6998428	-12.0894138	18.1627686	-103.6996684	-83.37684816	118.9174329
4.12	412	-0.672	0.516	0.032	32.085648	-8.021412	9.453807	-103.8257192	-83.27371572	119.3700697
4.13	413	-0.757	0.491	0.056	31.9710564	-5.3858052	3.7815228	-103.8429079	-83.22787908	119.7138445
4.14	414	-0.757	0.508	0.06	34.091001	1.7761698	-2.8074942	-103.3788119	-83.26225656	119.5992529
4.15	415	-0.704	0.563	0.051	38.6173692	7.8495246	-8.4797784	-102.4047833	-83.3080932	119.0091062
4.16	416	-0.692	0.574	0.093	41.539455	9.9694692	-16.2147114	-101.3963773	-83.49143976	118.4132299
4.17	417	-0.718	0.553	0.1	49.7900502	11.9175264	-24.0069402	-100.198895	-83.74927086	117.7199507
4.18	418	-0.751	0.465	0.075	57.868758	15.5271618	-29.3354496	-98.57169432	-84.06439776	116.6714375
4.19	419	-0.783	0.366	0.079	58.6136034	21.9442914	-35.9817624	-96.21683694	-84.44255004	114.9009973
4.2	420	-0.836	0.287	0.065	57.582279	30.7678446	-42.8572584	-92.68741566	-84.87799812	111.9330749
4.21	421	-0.851	0.237	0.091	53.4569814	38.961144	-48.0711762	-87.56517114	-85.34782368	107.3322221
4.22	422	-0.862	0.231	0.124	51.0505578	46.3523022	-50.4775998	-80.39746656	-85.79473092	100.6572614
4.23	423	-0.871	0.186	0.097	52.1964738	50.706783	-50.8213746	-71.1327357	-86.14996488	91.89100404
4.24	424	-0.871	0.128	0.082	46.2950064	47.2117392	-47.841993	-61.12315944	-86.38487766	82.32260544
4.25	425	-0.949	0.109	0.025	36.8411994	42.5134836	-43.6021038	-51.32557764	-86.49946926	72.8802576
4.26	426	-0.99	0.078	-0.003	35.4088044	44.2323576	-39.4768062	-41.44205214	-86.47082136	63.32904774
4.27	427	-1.006	0.059	-0.037	28.5333084	47.4409224	-35.1223254	-32.372127	-86.29320438	54.52268328
4.28	428	-1.047	0.052	-0.031	24.6944898	48.2430636	-34.2628884	-24.39082206	-86.0296437	46.77056154
4.29	429	-1.061	0.004	0.006	28.1895336	49.7327544	-35.4661002	-17.26895412	-85.6858689	39.91225428
4.3	430	-1.068	-0.032	-0.013	27.1582092	48.3576552	-34.8358464	-11.33883882	-85.30198704	34.22851092
4.31	431	-1.089	-0.005	-0.004	23.9496444	41.7113424	-33.518043	-6.589017	-84.9410235	29.70214272
4.32	432	-1.101	-0.01	-0.05	23.1475032	38.7892566	-33.0023808	-2.5496631	-84.58005996	25.88051286
4.33	433	-1.076	-0.012	-0.107	19.9389384	33.0596766	-34.2055926	1.0886202	-84.25920348	22.41411696
4.34	434	-1.042	0.048	-0.118	19.4232762	26.2414764	-32.658606	4.25707794	-83.97845406	19.4232762
4.35	435	-1.016	-0.021	-0.105	27.8457588	17.8762896	-31.226211	7.23645954	-83.7664596	16.70745528
4.36	436	-1.001	-0.029	-0.099	24.1215318	11.9175264	-30.653253	10.02103542	-83.60030178	14.1520626
4.37	437	-0.983	-0.037	-0.086	21.8296998	7.6776372	-30.653253	12.73685634	-83.46279186	11.63677698
4.38	438	-0.979	-0.038	-0.101	20.7983754	4.9274388	-30.366774	15.37246314	-83.34247068	9.1959759
4.39	439	-0.972	-0.062	-0.075	22.4026578	2.8074942	-31.0543236	18.04244742	-83.2221495	6.73798608
4.4	440	-0.979	-0.072	-0.07	19.9389384	0.859437	-31.1116194	20.72962044	-83.1075579	4.23415962
4.41	441	-0.991	-0.102	-0.075	18.7357266	-0.0572958	-31.4553942	23.30220186	-82.98723672	1.8334656
4.42	442	-0.987	-0.117	-0.081	16.7876694	-2.578311	-30.1948866	25.77165084	-82.88410428	-0.47555514
4.43	443	-0.992	-0.126	-0.064	14.7823164	-4.6409598	-28.1895336	28.08640116	-82.79816058	-2.65852512
4.44	444	-0.975	-0.125	-0.069	10.886202	-6.8182002	-26.0122932	30.24645282	-82.72367604	-4.72117392
4.45	445	-0.972	-0.132	-0.065	8.021412	-8.9954406	-24.9809688	32.48098902	-82.66638024	-6.88695516
4.46	446	-0.935	-0.145	-0.078	2.9793816	-8.9954406	-24.8663772	34.49780118	-82.60335486	-8.89230816
4.47	447	-0.911	-0.153	-0.09	0.5156622	-9.0527364	-24.8663772	36.46304712	-82.52887032	-10.86901326
4.48	448	-0.887	-0.173	-0.094	-1.6615782	-9.5111028	-24.350715	38.35380852	-82.45438578	-12.78842256
4.49	449	-0.887	-0.188	-0.081	-2.4637194	-10.886202	-23.5485738	40.21592202	-82.3913604	-14.6963727
4.5	450	-0.89	-0.2	-0.065	-2.6356068	-11.6310474	-22.4026578	42.18116796	-82.31687586	-16.7017257
4.51	451	-0.901	-0.204	-0.05	-4.0680018	-12.4331886	-20.5118964	43.87712364	-82.26530964	-18.45497718
4.52	452	-0.916	-0.197	-0.028	-6.0733548	-13.464513	-18.2773602	45.47567646	-82.23093216	-20.12228496
4.53	453	-0.937	-0.185	-0.015	-7.0473834	-14.2666542	-15.9855282	46.97682642	-82.20801384	-21.70937862
4.54	454	-0.963	-0.183	-0.006	-7.734933	-14.0947668	-13.2926256	48.32327772	-82.20228426	-23.1475032
4.55	455	-0.964	-0.178	0	-7.8495246	-14.1520626	-10.0840608	49.72702482	-82.21374342	-24.637194
4.56	456	-0.986	-0.191	-0.003	-7.734933	-13.5218088	-7.1046792	50.75261964	-82.24239132	-25.74873252
4.57	457	-1.005	-0.199	0.015	-6.7036086	-14.5531332	-4.0680018	51.72091866	-82.29968712	-26.79151608
4.58	458	-1.018	-0.195	0.011	-7.3911582	-15.2979786	-0.5156622	52.58035566	-82.38563082	-27.73689678
4.59	459	-1.022	-0.187	0.006	-7.6203414	-15.469866	2.7501984	53.32520106	-82.50022242	-28.5619563
4.6	460	-1.011	-0.18	0	-7.9641162	-16.042824	5.443101	54.19036764	-82.63200276	-29.51306658
4.61	461	-1.006	-0.17	-0.002	-8.3651868	-16.042824	7.5630456	54.8034327	-82.78097184	-30.21207534
4.62	462	-0.99	-0.156	-0.001	-8.1360036	-15.8136408	9.167328	55.35347238	-82.94140008	-30.84805872
4.63	463	-0.969	-0.142	-0.005	-7.5057498	-15.2979786	11.172681	55.81183878	-83.11901706	-31.38090966
4.64	464	-0.958	-0.128	-0.008	-7.161975	-15.4125702	13.0061466	56.21863896	-83.3080932	-31.86792396
4.65	465	-0.958	-0.115	0.003	-6.8182002	-15.5271618	13.9801752	56.74576032	-83.5086285	-32.4580707
4.66	466	-0.965	-0.105	0.006	-6.5317212	-14.1520626	14.32395	57.05515764	-83.70343422	-32.84195256
4.67	467	-0.98	-0.094	0.016	-6.3598338	-13.2926256	14.0947668	57.33590706	-83.89251036	-33.18572736
4.68	468	-0.995	-0.083	0.023	-6.5317212	-13.2353298	13.6364004	57.65103396	-84.07585692	-33.56387964
4.69	469	-1.003	-0.076	0.024	-6.7609044	-13.750992	13.0061466	58.06356372	-84.2534739	-34.05089394
4.7	470	-1.006	-0.062	0.026	-7.448454	-14.0947668	12.1467096	58.68235836	-84.44255004	-34.74417312
4.71	471	-1.002	-0.048	0.027	-7.161975	-13.9801752	11.1153852	59.28396426	-84.60297828	-35.42026356
4.72	472	-1.003	-0.037	0.034	-5.9014674	-12.7769634	9.6256944	59.9027589	-84.75194736	-36.096354
4.73	473	-1.002	-0.03	0.042	-4.2398892	-11.5737516	7.8495246	60.55593102	-84.87226854	-36.78963318
4.74	474	-1.012	-0.034	0.052	-3.151269	-10.7143146	6.1879464	61.2492102	-84.97540098	-37.51728984
4.75	475	-1.022	-0.04	0.063	-2.6356068	-10.0840608	4.8128472	62.36074872	-85.10145174	-38.65747626
4.76	476	-1.031	-0.042	0.067	-2.005353	-9.6829902	3.724227	63.16288992	-85.17593628	-39.48253578
4.77	477	-1.037	-0.045	0.075	-0.572958	-9.2819196	2.6356068	64.01659734	-85.23896166	-40.34197278
4.78	478	-1.039	-0.052	0.086	1.3178034	-8.7089616	1.6042824	64.89895266	-85.2847983	-41.21286894
4.79	479	-1.038	-0.058	0.085	2.1199446	-7.9641162	0.9740286	65.75838966	-85.32490536	-42.0551172
4.8	480	-1.037	-0.059	0.095	3.151269	-6.589017	0.2291832	67.4944524	-85.3993899	-43.7453433
4.81	481	-1.036	-0.067	0.104	3.8388186	-4.297185	-0.2291832	68.0387625	-85.41084906	-44.25527592
4.82	482	-1.038	-0.067	0.093	3.3231564	-3.0366774	-0.572958	68.45129226	-85.41657864	-44.6334282
4.83	483	-1.04	-0.066	0.091	3.6096354	-2.6356068	-0.7448454	68.83517412	-85.41657864	-44.977203
4.84	484	-1.042	-0.067	0.093	3.9534102	-2.2345362	-0.9740286	69.17894892	-85.41084906	-45.28087074
4.85	485	-1.036	-0.07	0.095	3.8961144	-1.3178034	-1.0313244	70.92074124	-85.4566857	-46.97109684
4.86	486	-1.03	-0.07	0.091	3.4950438	-0.286479	-1.145916	71.04106242	-85.44522654	-47.05131096
4.87	487	-1.03	-0.066	0.09	3.6096354	0.572958	-1.4896908	71.06398074	-85.4280378	-47.0398518
4.88	488	-1.026	-0.068	0.092	3.9534102	1.145916	-1.7761698	71.02960326	-85.41084906	-46.97109684
4.89	489	-1.02	-0.07	0.088	3.8961144	1.7761698	-2.005353	70.93792998	-85.38220116	-46.83358692
4.9	490	-1.017	-0.076	0.08	3.724227	2.8074942	-2.3491278	71.63693874	-85.37647158	-47.48675904
4.91	491	-1.018	-0.08	0.068	3.3231564	3.6669312	-2.6356068	71.333271	-85.3420941	-47.1544434
4.92	492	-1.017	-0.084	0.064	2.6356068	4.2398892	-2.7501984	70.97230746	-85.30198704	-46.75910238
4.93	493	-1.019	-0.085	0.07	1.0313244	4.0680018	-2.8074942	70.62280308	-85.26187998	-46.39813884
4.94	494	-1.016	-0.087	0.058	-1.145916	3.724227	-2.9793816	70.3019466	-85.22177292	-46.0944711
4.95	495	-1.009	-0.083	0.05	-2.4637194	3.0939732	-3.0939732	70.74312426	-85.20458418	-46.54710792
4.96	496	-0.995	-0.085	0.041	-2.6929026	3.0366774	-3.0366774	70.49675232	-85.16447712	-46.32938388
4.97	497	-0.983	-0.09	0.027	-2.4064236	2.8074942	-2.86479	70.26756912	-85.13009964	-46.12884858
4.98	498	-0.976	-0.092	0.027	-1.8334656	2.4064236	-2.6356068	70.08995214	-85.09572216	-45.96842034
4.99	499	-0.976	-0.09	0.032	-1.6615782	2.4637194	-2.6356068	69.90660558	-85.06134468	-45.80226252
5	500	-0.976	-0.094	0.036	-1.8907614	2.9220858	-2.7501984	70.35351282	-85.03269678	-46.26062892
5.01	501	-0.979	-0.097	0.04	-2.3491278	2.86479	-2.578311	70.11860004	-84.9983193	-46.05436404
5.02	502	-0.988	-0.102	0.035	-2.578311	2.5210152	-2.4637194	69.92379432	-84.9696714	-45.87674706
5.03	503	-0.998	-0.102	0.022	-2.2345362	2.1772404	-1.8334656	69.74044776	-84.94675308	-45.71631882
5.04	504	-1.001	-0.099	0.018	-1.6042824	2.2345362	-1.2032118	69.53418288	-84.92956434	-45.52724268
5.05	505	-0.998	-0.097	0.022	-0.9167328	2.4637194	-0.572958	70.36497198	-84.91810518	-46.35803178
5.06	506	-0.995	-0.098	0.022	0	2.3491278	0	70.11287046	-84.9123756	-46.10593026
5.07	507	-0.994	-0.098	0.023	0.1145916	1.718874	0.4010706	69.91233516	-84.9123756	-45.90539496
5.08	508	-0.992	-0.096	0.026	0	1.3750992	0.572958	69.74617734	-84.9123756	-45.73350756
5.09	509	-0.989	-0.095	0.028	-0.2291832	1.3178034	0.7448454	69.56856036	-84.91810518	-45.56162016
5.1	510	-0.986	-0.09	0.031	-0.4583664	1.7761698	0.8021412	70.65718056	-84.94675308	-46.6387812
5.11	511	-0.984	-0.087	0.034	-0.4010706	2.0626488	0.6875496	70.40507904	-84.94675308	-46.39240926
5.12	512	-0.983	-0.088	0.031	-0.8021412	2.5210152	0.572958	70.1014113	-84.94675308	-46.10020068
5.13	513	-0.984	-0.089	0.028	-1.145916	2.6356068	0.4583664	69.7862844	-84.9410235	-45.79080336
5.14	514	-0.986	-0.089	0.026	-1.2605076	2.578311	0.4010706	69.48261666	-84.93529392	-45.50432436
5.15	515	-0.987	-0.086	0.017	-1.145916	2.1199446	0.1718874	70.20454374	-84.95821224	-46.22625144
5.16	516	-0.984	-0.084	0.017	-1.2605076	1.4896908	0	70.02692676	-84.95248266	-46.06009362
5.17	517	-0.982	-0.084	0.019	-1.5469866	1.0313244	-0.1718874	69.90660558	-84.94675308	-45.95696118
5.18	518	-0.977	-0.081	0.021	-1.718874	0.8021412	-0.4010706	69.82066188	-84.9410235	-45.88247664
5.19	519	-0.978	-0.081	0.025	-1.5469866	0.8021412	-0.6302538	69.74044776	-84.93529392	-45.81945126
5.2	520	-0.982	-0.082	0.026	-1.3178034	0.8021412	-1.0313244	70.76604258	-84.95248266	-46.85077566
5.21	521	-0.984	-0.084	0.024	-1.145916	0.5156622	-1.145916	70.73739468	-84.9410235	-46.83358692
5.22	522	-0.988	-0.086	0.026	-0.859437	-0.1145916	-1.145916	70.7889609	-84.92956434	-46.8966123
5.23	523	-0.993	-0.087	0.027	-1.0313244	-0.572958	-1.3178034	70.89209334	-84.91810518	-47.0112039
5.24	524	-0.997	-0.087	0.029	-1.145916	-0.9167328	-1.432395	71.03533284	-84.90664602	-47.16590256
5.25	525	-1	-0.089	0.031	-1.0313244	-1.2032118	-1.4896908	72.39897288	-84.92383476	-48.5295426
5.26	526	-0.999	-0.092	0.036	-0.8021412	-1.2032118	-1.5469866	72.57658986	-84.9123756	-48.71288916
5.27	527	-1	-0.091	0.035	-0.9167328	-1.0886202	-1.5469866	72.7370181	-84.90091644	-48.88477656
5.28	528	-1.003	-0.091	0.039	-0.4583664	-0.9167328	-1.3750992	72.8802576	-84.88945728	-49.02801606
5.29	529	-1.004	-0.091	0.04	-0.4010706	-0.5156622	-1.3178034	72.97766046	-84.87799812	-49.13687808
5.3	530	-1.006	-0.093	0.039	0.1145916	-0.4010706	-1.0886202	75.45283902	-84.90091644	-51.58340874
5.31	531	-1.006	-0.096	0.039	0.572958	-0.5156622	-0.8021412	75.5445123	-84.89518686	-51.66935244
5.32	532	-1.005	-0.097	0.042	0.5156622	-0.7448454	-0.5156622	75.64191516	-84.89518686	-51.7667553
5.33	533	-1.002	-0.097	0.044	0.3437748	-0.7448454	-0.2291832	75.73931802	-84.88945728	-51.85842858
5.34	534	-1	-0.095	0.048	0.0572958	-0.6875496	0	75.81953214	-84.89518686	-51.93291312
5.35	535	-0.999	-0.095	0.046	0	-0.5156622	0.1718874	80.95323582	-84.92956434	-57.02078016
5.36	536	-0.999	-0.093	0.046	-0.0572958	-0.572958	0.2291832	81.01053162	-84.92956434	-57.07807596
5.37	537	-1	-0.094	0.044	-0.1718874	-0.4583664	0.1718874	81.06209784	-84.93529392	-57.13537176
5.38	538	-0.999	-0.092	0.041	-0.1145916	-0.4010706	0.286479	81.1022049	-84.93529392	-57.17547882
5.39	539	-0.997	-0.094	0.04	-0.1145916	-0.1718874	0.4010706	81.11366406	-84.9410235	-57.18693798
5.4	540	-0.995	-0.092	0.039	-0.2291832	0.0572958	0.4010706	85.25042082	-84.9410235	-61.28358768
5.41	541	-0.995	-0.094	0.039	-0.4010706	0.1718874	0.3437748	85.21604334	-84.94675308	-61.25493978
5.42	542	-0.996	-0.091	0.04	-0.6302538	0.3437748	0.286479	85.16447712	-84.94675308	-61.20910314
5.43	543	-0.996	-0.089	0.04	-0.6875496	0.4583664	0.3437748	85.10145174	-84.95248266	-61.15180734
5.44	544	-0.999	-0.09	0.041	-0.6302538	0.5156622	0.286479	85.03269678	-84.95248266	-61.08878196
5.45	545	-0.999	-0.092	0.041	-0.8021412	0.6875496	0.286479	86.32758186	-84.95248266	-62.38366704
5.46	546	-0.998	-0.092	0.041	-1.145916	0.9167328	0.4010706	86.20726068	-84.95821224	-62.27480502
5.47	547	-0.997	-0.091	0.041	-1.2605076	0.9740286	0.4583664	86.0869395	-84.95821224	-62.16021342
5.48	548	-0.997	-0.09	0.039	-1.2605076	0.6875496	0.572958	85.98953664	-84.96394182	-62.0799993
5.49	549	-0.998	-0.089	0.039	-1.6042824	0.4583664	0.6302538	85.9150521	-84.9696714	-62.0227035
5.5	550	-0.998	-0.087	0.04	-1.8334656	0.4583664	0.5156622	86.7458412	-84.98686014	-62.85922218
5.51	551	-0.996	-0.086	0.04	-1.7761698	0.6302538	0.2291832	86.65416792	-84.98686014	-62.78473764
5.52	552	-0.995	-0.088	0.03	-1.5469866	0.9740286	0	86.52238758	-84.98686014	-62.67587562
5.53	553	-0.995	-0.088	0.029	-1.2605076	1.145916	-0.1718874	86.37914808	-84.98686014	-62.5383657
5.54	554	-0.997	-0.09	0.034	-1.145916	1.718874	-0.3437748	86.1728832	-84.98113056	-62.34928956
5.55	555	-1.001	-0.09	0.041	-0.8021412	1.6615782	-0.3437748	87.01513146	-84.97540098	-63.18580824
5.56	556	-1.002	-0.091	0.046	-0.859437	1.3178034	-0.1718874	86.8604328	-84.9696714	-63.03683916
5.57	557	-1	-0.09	0.045	-1.3178034	0.7448454	-0.1145916	86.75730036	-84.9696714	-62.95089546
5.58	558	-0.997	-0.092	0.035	-1.4896908	0.5156622	-0.1145916	86.6885454	-84.9696714	-62.89359966
5.59	559	-0.994	-0.091	0.035	-1.6615782	0.2291832	-0.1718874	86.64270876	-84.96394182	-62.87068134
5.6	560	-0.998	-0.088	0.037	-1.7761698	0.6302538	-0.3437748	87.28442172	-84.96394182	-63.51812388
5.61	561	-1.002	-0.09	0.037	-1.6615782	0.9167328	-0.4010706	87.16410054	-84.95821224	-63.41499144
5.62	562	-1.004	-0.091	0.043	-1.6615782	0.7448454	-0.4010706	87.0609681	-84.95821224	-63.33477732
5.63	563	-1	-0.091	0.043	-1.7761698	0.8021412	-0.286479	86.95210608	-84.95248266	-63.24310404
5.64	564	-0.997	-0.093	0.038	-1.5469866	0.9167328	-0.1718874	86.8317849	-84.95248266	-63.1399716
5.65	565	-0.997	-0.094	0.036	-1.432395	1.3178034	-0.0572958	87.376095	-84.9410235	-63.6842817
5.66	566	-0.996	-0.092	0.031	-1.2605076	1.6042824	-0.0572958	87.18128928	-84.9410235	-63.50093514
5.67	567	-0.994	-0.092	0.031	-0.9740286	1.432395	0	87.00940188	-84.9410235	-63.3405069
5.68	568	-0.997	-0.093	0.035	-1.0886202	0.9167328	-0.0572958	86.8890807	-84.9410235	-63.23737446
5.69	569	-1.001	-0.093	0.041	-1.7761698	0.286479	-0.0572958	86.84324406	-84.9410235	-63.20872656
5.7	570	-1.002	-0.091	0.041	-2.86479	-0.7448454	-0.1145916	87.39901332	-84.9410235	-63.78741414
5.71	571	-1	-0.09	0.037	-3.6096354	-2.0626488	-0.1145916	87.59954862	-84.93529392	-64.0280565
5.72	572	-0.996	-0.09	0.035	-3.7815228	-3.0939732	-0.0572958	87.91467552	-84.93529392	-64.38329046
5.73	573	-0.994	-0.09	0.031	-3.3804522	-4.1252976	0	88.34439402	-84.9410235	-64.84738644
5.74	574	-0.993	-0.09	0.027	-2.86479	-4.4117766	0.1145916	88.81994916	-84.9410235	-65.35158948
5.75	575	-0.99	-0.092	0.026	-2.6356068	-4.2398892	0.0572958	89.44447338	-84.93529392	-66.0047616
5.76	576	-0.987	-0.091	0.028	-2.5210152	-3.3231564	-0.0572958	89.79397776	-84.93529392	-66.38291388
5.77	577	-0.986	-0.092	0.027	-2.2345362	-2.1199446	-0.286479	90.01743138	-84.92956434	-66.62355624
5.78	578	-0.988	-0.093	0.026	-1.7761698	-1.145916	-0.3437748	90.13202298	-84.92956434	-66.76106616
5.79	579	-0.99	-0.095	0.029	-1.5469866	-0.6875496	-0.4583664	90.19504836	-84.92383476	-66.84128028
5.8	580	-0.991	-0.095	0.029	-1.432395	-0.6875496	-0.3437748	90.81957258	-84.90664602	-67.47153408
5.81	581	-0.994	-0.092	0.033	-1.432395	-0.8021412	-0.286479	90.8997867	-84.90091644	-67.56893694
5.82	582	-0.996	-0.092	0.035	-1.5469866	-0.8021412	-0.2291832	90.98000082	-84.90091644	-67.66061022
5.83	583	-0.994	-0.09	0.037	-1.4896908	-1.0313244	-0.286479	91.08313326	-84.89518686	-67.7809314
5.84	584	-0.995	-0.09	0.037	-1.3750992	-1.3750992	-0.286479	91.22064318	-84.89518686	-67.94135964
5.85	585	-0.995	-0.093	0.043	-1.6615782	-1.6042824	-0.3437748	91.96548858	-84.8837277	-68.69193462
5.86	586	-0.994	-0.093	0.045	-2.0626488	-1.0886202	-0.6302538	92.06862102	-84.87799812	-68.81798538
5.87	587	-0.992	-0.093	0.047	-2.291832	-0.6302538	-0.7448454	92.12018724	-84.86653896	-68.89246992
5.88	588	-0.994	-0.094	0.046	-2.2345362	-0.4583664	-0.7448454	92.14883514	-84.86080938	-68.94403614
5.89	589	-0.998	-0.095	0.043	-2.1199446	-0.2291832	-0.6302538	92.15456472	-84.8550798	-68.97268404
5.9	590	-1	-0.096	0.042	-2.0626488	-0.2291832	-0.4010706	92.9337876	-84.83789106	-69.76336608
5.91	591	-1	-0.095	0.043	-1.9480572	-0.3437748	-0.2291832	92.95670592	-84.83216148	-69.80920272
5.92	592	-1.002	-0.096	0.047	-1.8907614	-0.286479	-0.1145916	92.97389466	-84.83216148	-69.84930978
5.93	593	-1.002	-0.095	0.047	-2.0626488	-0.0572958	-0.1145916	92.9624355	-84.83216148	-69.85503936
5.94	594	-1.001	-0.093	0.048	-2.005353	0.5156622	-0.1145916	92.88795096	-84.8264319	-69.79774356
5.95	595	-1	-0.092	0.048	-1.7761698	0.5156622	0	93.8505204	-84.81497274	-70.76604258
5.96	596	-1.002	-0.095	0.045	-1.718874	0.1718874	0.1145916	93.81041334	-84.82070232	-70.74885384
5.97	597	-0.999	-0.097	0.044	-1.6042824	-0.4010706	0.3437748	93.8505204	-84.82070232	-70.80614964
5.98	598	-0.997	-0.097	0.043	-1.6615782	-0.859437	0.5156622	93.9364641	-84.8264319	-70.90928208
5.99	599	-0.995	-0.096	0.042	-1.8334656	-1.2605076	0.6302538	94.06824444	-84.83216148	-71.05825116
6	600	-0.993	-0.093	0.042	-1.9480572	-0.9740286	0.6875496	94.6240137	-84.83216148	-71.63120916
6.01	601	-0.993	-0.092	0.04	-2.0626488	-0.6302538	0.5156622	94.6813095	-84.83216148	-71.71142328
6.02	602	-0.994	-0.093	0.038	-2.2345362	-0.2291832	0.286479	94.69849824	-84.83789106	-71.74580076
6.03	603	-0.995	-0.093	0.038	-1.9480572	0.0572958	0.1145916	94.66985034	-84.83789106	-71.74007118
6.04	604	-0.996	-0.094	0.039	-1.718874	0.286479	0	94.61828412	-84.83789106	-71.71142328
6.05	605	-0.996	-0.094	0.043	-1.6615782	0.4583664	0	95.3688591	-84.82070232	-72.46772784
6.06	606	-0.996	-0.095	0.044	-1.718874	0.6302538	0.0572958	95.2829154	-84.82070232	-72.39897288
6.07	607	-0.996	-0.095	0.041	-1.8907614	0.6302538	0.0572958	95.1969717	-84.8264319	-72.33021792
6.08	608	-0.996	-0.096	0.039	-1.9480572	0.9167328	0.0572958	95.07665052	-84.8264319	-72.23281506
6.09	609	-0.999	-0.095	0.04	-2.0626488	1.145916	0.1145916	94.93341102	-84.83216148	-72.11249388
6.1	610	-1	-0.094	0.038	-2.0626488	1.2032118	0.1145916	95.2256196	-84.8264319	-72.41616162
6.11	611	-0.999	-0.091	0.04	-1.8334656	0.9167328	0.1718874	95.10529842	-84.8264319	-72.31875876
6.12	612	-1	-0.091	0.043	-1.9480572	0.5156622	0.0572958	95.03654346	-84.83216148	-72.26719254
6.13	613	-0.998	-0.09	0.044	-1.8907614	0.4583664	0	94.96205892	-84.83216148	-72.21562632
6.14	614	-0.998	-0.091	0.047	-1.6615782	0.7448454	-0.1145916	94.86465606	-84.83216148	-72.12968262
6.15	615	-0.998	-0.093	0.046	-1.5469866	0.9740286	-0.2291832	95.34594078	-84.82070232	-72.62815608
6.16	616	-1	-0.094	0.043	-1.2605076	1.145916	-0.1718874	95.20270128	-84.81497274	-72.49637574
6.17	617	-1.001	-0.094	0.039	-1.2032118	1.0886202	-0.1145916	95.07665052	-84.81497274	-72.37605456
6.18	618	-1.002	-0.095	0.037	-1.432395	1.0886202	0	94.94487018	-84.82070232	-72.26146296
6.19	619	-1.003	-0.095	0.039	-1.5469866	0.6875496	0.1145916	94.8531969	-84.82070232	-72.18697842
6.2	620	-0.997	-0.094	0.04	-1.7761698	0.3437748	0.2291832	95.29437456	-84.81497274	-72.63961524
6.21	621	-0.992	-0.092	0.038	-1.8907614	0.4583664	0.1145916	95.2256196	-84.81497274	-72.5937786
6.22	622	-0.988	-0.093	0.033	-1.432395	0.4010706	0	95.1683238	-84.81497274	-72.54794196
6.23	623	-0.99	-0.094	0.037	-1.3178034	0.1718874	-0.0572958	95.13394632	-84.81497274	-72.52502364
6.24	624	-0.995	-0.097	0.039	-1.6042824	0	0	95.11675758	-84.81497274	-72.53075322
6.25	625	-0.997	-0.096	0.039	-2.1772404	-0.1718874	0.0572958	95.64960852	-84.797784	-73.0807929
6.26	626	-0.996	-0.099	0.044	-2.5210152	-0.572958	0.3437748	95.69544516	-84.80351358	-73.14954786
6.27	627	-0.994	-0.098	0.041	-2.86479	-1.0886202	0.6875496	95.7985776	-84.80924316	-73.2813282
6.28	628	-0.991	-0.099	0.04	-2.7501984	-1.2032118	0.9740286	95.9131692	-84.82070232	-73.43029728
6.29	629	-0.991	-0.098	0.036	-2.8074942	-0.7448454	1.0886202	95.98765374	-84.8264319	-73.52770014
6.3	630	-0.993	-0.095	0.036	-2.9220858	-0.0572958	1.0313244	96.24548484	-84.83216148	-73.81990872
6.31	631	-0.993	-0.093	0.035	-2.7501984	0.4010706	0.9167328	96.18818904	-84.83789106	-73.78553124
6.32	632	-0.994	-0.091	0.034	-2.4637194	0.4010706	0.8021412	96.13089324	-84.84935022	-73.75115376
6.33	633	-0.996	-0.09	0.035	-2.2345362	0.1145916	0.7448454	96.09651576	-84.8550798	-73.74542418
6.34	634	-0.997	-0.091	0.039	-2.005353	0	0.6875496	96.0850566	-84.86653896	-73.75115376
6.35	635	-0.997	-0.09	0.039	-1.718874	-0.1718874	0.6302538	96.63509628	-84.86653896	-74.3126526
6.36	636	-0.997	-0.09	0.041	-1.4896908	-0.1718874	0.572958	96.65228502	-84.87226854	-74.34703008
6.37	637	-0.998	-0.09	0.041	-1.2605076	-0.2291832	0.4583664	96.67520334	-84.87226854	-74.38140756
6.38	638	-1	-0.09	0.039	-1.0886202	-0.2291832	0.4010706	96.69812166	-84.87799812	-74.41578504
6.39	639	-0.999	-0.091	0.041	-1.0886202	-0.1145916	0.3437748	96.70958082	-84.8837277	-74.43870336
6.4	640	-0.998	-0.09	0.043	-1.145916	0	0.286479	97.52318118	-84.87226854	-75.2580333
6.41	641	-0.996	-0.09	0.04	-1.2032118	0.3437748	0.1145916	97.47734454	-84.87226854	-75.22365582
6.42	642	-0.995	-0.091	0.036	-1.0886202	0.3437748	0.1145916	97.4315079	-84.87799812	-75.19500792
6.43	643	-0.996	-0.091	0.036	-0.9167328	0.2291832	0	97.39713042	-84.87799812	-75.16636002
6.44	644	-0.994	-0.09	0.034	-0.7448454	0.1718874	0	97.36848252	-84.87799812	-75.1434417
6.45	645	-0.994	-0.092	0.037	-0.6875496	0	-0.1145916	98.43991398	-84.84935022	-76.21487316
6.46	646	-0.994	-0.09	0.039	-0.7448454	-0.0572958	-0.1718874	98.4341844	-84.84935022	-76.22060274
6.47	647	-0.991	-0.092	0.037	-0.7448454	-0.3437748	-0.286479	98.46856188	-84.84362064	-76.25498022
6.48	648	-0.989	-0.093	0.038	-0.7448454	-0.7448454	-0.3437748	98.53731684	-84.84362064	-76.33519434
6.49	649	-0.991	-0.095	0.038	-0.9740286	-0.6302538	-0.4010706	98.59461264	-84.83789106	-76.4039493
6.5	650	-0.993	-0.095	0.036	-1.3178034	-0.3437748	-0.4583664	98.9498466	-84.80924316	-76.77064242
6.51	651	-0.994	-0.097	0.037	-1.3178034	-0.0572958	-0.4010706	98.94411702	-84.80351358	-76.776372
6.52	652	-0.994	-0.097	0.039	-1.2032118	-0.2291832	-0.286479	98.95557618	-84.80351358	-76.8050199
6.53	653	-0.993	-0.097	0.037	-1.2032118	-0.572958	-0.1145916	99.0071424	-84.797784	-76.8623157
6.54	654	-0.994	-0.098	0.038	-1.2032118	-0.859437	0.0572958	99.0930861	-84.797784	-76.95971856
6.55	655	-0.995	-0.097	0.038	-1.4896908	-1.2032118	0.2291832	99.45404964	-84.78632484	-77.33787084
6.56	656	-0.994	-0.096	0.041	-1.6042824	-1.2032118	0.4583664	99.5801004	-84.78632484	-77.48111034
6.57	657	-0.993	-0.097	0.044	-1.6615782	-1.0313244	0.4583664	99.68323284	-84.79205442	-77.6071611
6.58	658	-0.994	-0.098	0.043	-1.7761698	-0.4010706	0.6302538	99.72906948	-84.79205442	-77.6644569
6.59	659	-0.997	-0.096	0.042	-1.718874	0	0.7448454	99.72906948	-84.80351358	-77.68164564
6.6	660	-0.998	-0.096	0.038	-1.3750992	0.2291832	0.9167328	99.94679352	-84.797784	-77.91655842
6.61	661	-0.999	-0.096	0.041	-1.0886202	0.0572958	1.0313244	99.9525231	-84.80351358	-77.93374716
6.62	662	-0.997	-0.095	0.045	-1.0313244	-0.1718874	1.145916	99.98690058	-84.81497274	-77.9795838
6.63	663	-0.998	-0.091	0.045	-1.0313244	-0.3437748	1.2032118	100.0384668	-84.8264319	-78.04260918
6.64	664	-0.998	-0.09	0.047	-1.0313244	-0.2291832	1.145916	100.0843034	-84.83789106	-78.09990498
6.65	665	-0.997	-0.089	0.044	-0.9167328	-0.1718874	1.0313244	100.5999656	-84.84362064	-78.62129676
6.66	666	-0.998	-0.089	0.044	-0.6875496	-0.0572958	0.9740286	100.622884	-84.8550798	-78.64994466
6.67	667	-1	-0.091	0.045	-0.5156622	0	0.859437	100.6343431	-84.86080938	-78.6671334
6.68	668	-1.002	-0.092	0.047	-0.6302538	0.1718874	0.9167328	100.6286135	-84.87226854	-78.6671334
6.69	669	-1.003	-0.092	0.049	-0.9740286	0.4583664	0.859437	100.5885065	-84.8837277	-78.63275592
6.7	670	-1.002	-0.089	0.046	-0.9167328	0.4583664	0.859437	101.0755208	-84.8837277	-79.1254998
6.71	671	-1.001	-0.089	0.046	-0.572958	0.1145916	0.9167328	101.0697912	-84.88945728	-79.13122938
6.72	672	-1	-0.09	0.05	-0.4010706	-0.1145916	0.9740286	101.1098983	-84.90091644	-79.17133644
6.73	673	-1	-0.089	0.05	-0.6302538	-0.286479	0.9167328	101.1557349	-84.90664602	-79.22290266
6.74	674	-0.998	-0.087	0.045	-0.9167328	-0.1718874	0.859437	101.1843828	-84.91810518	-79.26300972
6.75	675	-0.996	-0.085	0.044	-0.9740286	-0.3437748	0.6875496	101.7286929	-84.9123756	-79.8130494
6.76	676	-0.995	-0.087	0.044	-0.9740286	-0.4010706	0.4583664	101.7745295	-84.91810518	-79.8703452
6.77	677	-0.996	-0.088	0.045	-1.2032118	-0.4583664	0.1718874	101.8203662	-84.91810518	-79.927641
6.78	678	-0.995	-0.089	0.041	-1.4896908	-0.4583664	0.0572958	101.8604732	-84.91810518	-79.9849368
6.79	679	-0.996	-0.09	0.042	-1.6042824	-0.4583664	-0.0572958	101.8948507	-84.91810518	-80.03650302
6.8	680	-0.997	-0.093	0.042	-1.718874	-0.4010706	-0.1145916	102.2787326	-84.89518686	-80.43184404
6.81	681	-0.998	-0.093	0.046	-1.8334656	-0.2291832	0	102.2901917	-84.89518686	-80.46622152
6.82	682	-1	-0.093	0.042	-2.1199446	-0.4010706	0.0572958	102.3188396	-84.89518686	-80.51778774
6.83	683	-1.001	-0.092	0.04	-2.4064236	-0.5156622	0.1718874	102.3646763	-84.89518686	-80.5865427
6.84	684	-1	-0.092	0.041	-2.4637194	-0.7448454	0.1145916	102.4277017	-84.89518686	-80.6724864
6.85	685	-0.998	-0.091	0.037	-2.291832	-0.9167328	0.1145916	102.628237	-84.8837277	-80.89594002
6.86	686	-0.994	-0.09	0.036	-2.005353	-0.9740286	0.0572958	102.7199102	-84.8837277	-81.01053162
6.87	687	-0.993	-0.091	0.035	-1.6615782	-1.0886202	0.0572958	102.8230427	-84.8837277	-81.1308528
