TimeStamp(s)	FrameCounter	AccX	AccY	AccZ	GyrX	GyrY	GyrZ	EulerX	EulerY	EulerZ
0.01	1	0.04	-0.998	0.026	-3.5523396	-2.6929026	0.5156622	88.64233218	3.82735944	-7.23645954
0.02	2	0.053	-0.993	0.046	-7.2765666	-4.5263682	1.3178034	88.56211806	3.8101707	-7.28229618
0.03	3	0.053	-0.996	0.042	-7.9068204	-3.8961144	1.6615782	88.48190394	3.79298196	-7.32240324
0.04	4	0.051	-0.997	0.04	-7.9068204	-3.0366774	1.718874	88.40168982	3.77579322	-7.35105114
0.05	5	0.052	-1.001	0.044	-7.5057498	-2.6356068	1.6615782	88.34439402	3.75860448	-7.37396946
0.06	6	0.045	-1.006	0.045	-7.3338624	-2.3491278	1.2032118	88.2641799	3.74714532	-7.39688778
0.07	7	0.036	-1.02	0.041	-7.9068204	-1.3750992	0.4583664	88.18396578	3.74141574	-7.41407652
0.08	8	0.023	-1.031	0.033	-8.7089616	-0.1718874	-0.7448454	88.09802208	3.74714532	-7.41407652
0.09	9	0.014	-1.051	0.03	-8.8235532	1.4896908	-2.3491278	88.0063488	3.77006364	-7.40261736
0.1	10	0.017	-1.063	0.04	-9.7975818	4.0680018	-5.0420304	87.9204051	3.81590028	-7.3625103
0.11	11	0.024	-1.067	0.034	-11.2299768	7.2765666	-7.2192708	87.81154308	3.88465524	-7.29375534
0.12	12	0.04	-1.064	0.027	-12.8342592	10.886202	-8.7662574	87.68549232	3.97632852	-7.1906229
0.13	13	0.061	-1.053	0.02	-14.32395	13.6364004	-9.1100322	87.5479824	4.06227222	-7.05884256
0.14	14	0.076	-1.038	0.022	-15.9855282	15.0114996	-8.880849	87.39328374	4.1539455	-6.91560306
0.15	15	0.08	-1.019	0.024	-17.761698	16.1574156	-8.021412	87.22712592	4.2398892	-6.7609044
0.16	16	0.081	-1.001	0.021	-19.1367972	17.9908812	-7.448454	87.04377936	4.31437374	-6.589017
0.17	17	0.09	-0.984	0.02	-19.4232762	19.5378678	-7.3338624	86.85470322	4.38885828	-6.39994086
0.18	18	0.1	-0.966	0.028	-18.9649098	20.2827132	-7.3911582	86.67708624	4.4690724	-6.20513514
0.19	19	0.115	-0.953	0.043	-18.334656	19.8816426	-7.5630456	86.50519884	4.54928652	-6.016059
0.2	20	0.124	-0.946	0.064	-17.0168526	18.5638392	-7.5630456	86.35622976	4.63523022	-5.83271244
0.21	21	0.133	-0.947	0.086	-15.8709366	16.902261	-7.2192708	86.20726068	4.70971476	-5.6722842
0.22	22	0.139	-0.952	0.107	-14.2093584	14.896908	-6.5317212	86.06975076	4.77846972	-5.5290447
0.23	23	0.139	-0.969	0.119	-12.9488508	12.7769634	-5.443101	85.94942958	4.83576552	-5.40872352
0.24	24	0.136	-0.987	0.119	-12.605076	11.2299768	-4.6982556	85.8291084	4.88733174	-5.2998615
0.25	25	0.128	-1.006	0.121	-12.032118	9.9694692	-4.3544808	85.74889428	4.94462754	-5.19672906
0.26	26	0.12	-1.03	0.122	-10.6570188	8.021412	-4.7555514	85.64003226	4.99619376	-5.12224452
0.27	27	0.115	-1.053	0.116	-10.026765	6.7036086	-5.3285094	85.5426294	5.04775998	-5.05921914
0.28	28	0.113	-1.063	0.105	-10.1413566	6.5317212	-6.016059	85.44522654	5.11078536	-5.00192334
0.29	29	0.116	-1.069	0.091	-10.1986524	7.1046792	-6.7609044	85.34782368	5.17954032	-4.93889796
0.3	30	0.121	-1.066	0.08	-10.313244	8.307891	-7.6203414	85.27333914	5.26548402	-4.85868384
0.31	31	0.117	-1.053	0.075	-10.7143146	9.740286	-8.2505952	85.1702067	5.35142772	-4.76701056
0.32	32	0.112	-1.034	0.08	-10.8289062	10.8289062	-8.4224826	85.06707426	5.443101	-4.6696077
0.33	33	0.1	-1.01	0.079	-10.886202	11.9175264	-7.734933	84.96394182	5.52331512	-4.5550161
0.34	34	0.089	-0.984	0.071	-11.2299768	13.464513	-6.4171296	84.86080938	5.59779966	-4.42896534
0.35	35	0.084	-0.961	0.071	-11.745639	14.3812458	-5.2712136	84.77486568	5.65509546	-4.28572584
0.36	36	0.084	-0.947	0.069	-12.318597	15.2979786	-4.4690724	84.66600366	5.70666168	-4.14248634
0.37	37	0.089	-0.941	0.062	-12.8342592	16.042824	-4.1252976	84.54568248	5.7582279	-3.98778768
0.38	38	0.1	-0.941	0.055	-13.178034	16.1001198	-4.1252976	84.4253613	5.80979412	-3.83308902
0.39	39	0.117	-0.942	0.051	-13.0061466	15.6990492	-4.0680018	84.30504012	5.86136034	-3.68411994
0.4	40	0.128	-0.944	0.05	-12.1467096	14.896908	-3.8961144	84.21909642	5.91865614	-3.53515086
0.41	41	0.139	-0.95	0.054	-11.172681	14.2093584	-3.2085648	84.11596398	5.9587632	-3.39764094
0.42	42	0.147	-0.956	0.06	-10.026765	11.45916	-2.1199446	84.0242907	5.9874111	-3.28877892
0.43	43	0.152	-0.963	0.069	-8.8235532	8.880849	-1.145916	83.94407658	6.00459984	-3.20283522
0.44	44	0.156	-0.976	0.077	-7.734933	6.302538	-0.1145916	83.86959204	6.01032942	-3.13980984
0.45	45	0.158	-0.99	0.082	-6.9900876	3.5523396	0.6875496	83.89251036	6.03324774	-3.08251404
0.46	46	0.159	-0.997	0.089	-6.1306506	0.7448454	1.0886202	83.82948498	6.02178858	-3.07105488
0.47	47	0.165	-1	0.096	-5.8441716	-2.3491278	1.6042824	83.7664596	6.00459984	-3.0939732
0.48	48	0.171	-0.996	0.101	-5.6149884	-5.6149884	2.0626488	83.7091638	5.98168152	-3.151269
0.49	49	0.18	-0.989	0.105	-5.5576926	-8.7662574	2.6929026	83.64040884	5.94730404	-3.2372127
0.5	50	0.187	-0.985	0.108	-5.5003968	-13.4072172	3.6096354	83.6232201	5.91865614	-3.3518043
0.51	51	0.194	-0.98	0.11	-5.0993262	-17.0168526	4.3544808	83.55446514	5.86136034	-3.51796212
0.52	52	0.199	-0.982	0.108	-4.9274388	-20.7410796	5.0420304	83.48571018	5.79260538	-3.71849742
0.53	53	0.197	-0.984	0.104	-4.4117766	-24.0069402	5.6722842	83.4226848	5.71239126	-3.94768062
0.54	54	0.192	-0.992	0.096	-4.1252976	-26.8717302	6.1879464	83.35965942	5.63217714	-4.2112413
0.55	55	0.187	-0.996	0.081	-3.7815228	-29.3354496	6.6463128	83.31955236	5.55196302	-4.48626114
0.56	56	0.18	-0.997	0.07	-2.86479	-31.4553942	7.1046792	83.26798614	5.44883058	-4.78992888
0.57	57	0.177	-0.993	0.074	-1.4896908	-33.3461556	7.6776372	83.2221495	5.34569814	-5.11078536
0.58	58	0.175	-0.991	0.079	-0.6302538	-35.809875	8.021412	83.18777202	5.23110654	-5.45456016
0.59	59	0.179	-0.989	0.076	0.4583664	-37.3568616	8.307891	83.17058328	5.11651494	-5.8155237
0.6	60	0.186	-0.986	0.088	1.8907614	-39.1330314	8.5370742	83.18204244	5.00765292	-6.1879464
0.61	61	0.199	-0.987	0.105	3.3231564	-41.1956802	8.7089616	83.18777202	4.88733174	-6.58328742
0.62	62	0.204	-0.993	0.113	4.8128472	-43.4302164	8.7662574	83.20496076	4.76128098	-7.00727634
0.63	63	0.206	-1.008	0.118	5.8441716	-45.263682	8.59437	83.23933824	4.63523022	-7.44272442
0.64	64	0.198	-1.036	0.097	6.4171296	-45.9512316	8.307891	83.27371572	4.51490904	-7.88390208
0.65	65	0.161	-1.085	0.066	7.448454	-45.7220484	8.021412	83.3367411	4.40031744	-8.32507974
0.66	66	0.123	-1.134	0.084	10.7716104	-42.3415962	6.9900876	83.41695522	4.297185	-8.73187992
0.67	67	0.096	-1.167	0.115	10.8289062	-38.961144	6.302538	83.5086285	4.19978214	-9.1100322
0.68	68	0.078	-1.191	0.105	6.9327918	-33.6899304	5.72958	83.56019472	4.11383844	-9.43661826
0.69	69	0.07	-1.193	0.049	2.86479	-25.3820394	5.5576926	83.57165388	4.0393539	-9.6829902
0.7	70	0.057	-1.189	-0.001	3.2085648	-17.9908812	5.2139178	83.60603136	3.97059894	-9.84914802
0.71	71	0.034	-1.191	0	5.156622	-13.0634424	4.297185	83.651868	3.91903272	-9.97519878
0.72	72	0.018	-1.199	0.023	4.583664	-8.6516658	2.3491278	83.69770464	3.89038482	-10.0554129
0.73	73	0.034	-1.176	0.018	2.291832	-5.6722842	0.9167328	83.71489338	3.87319608	-10.1127087
0.74	74	0.077	-1.124	-0.025	0.8021412	-5.9587632	2.005353	83.72062296	3.85027776	-10.1700045
0.75	75	0.116	-1.065	-0.065	1.0886202	-8.9954406	5.72958	83.73208212	3.79871154	-10.25021862
0.76	76	0.134	-1.005	-0.087	2.4637194	-13.8082878	10.3705398	83.74927086	3.68411994	-10.37626938
0.77	77	0.125	-0.953	-0.115	3.3231564	-19.5951636	14.1520626	83.77791876	3.52942128	-10.55388636
0.78	78	0.097	-0.91	-0.13	3.9534102	-25.4393352	15.5844576	83.80656666	3.35753388	-10.78879914
0.79	79	0.065	-0.882	-0.137	3.437748	-28.8197874	14.2093584	83.82948498	3.19137606	-11.0580894
0.8	80	0.029	-0.855	-0.146	2.1772404	-30.9970278	10.7143146	83.82948498	3.05959572	-11.35602756
0.81	81	0	-0.821	-0.127	0.572958	-32.2002396	5.6722842	83.8237554	2.9793816	-11.66542488
0.82	82	-0.007	-0.811	-0.105	-2.4064236	-31.6845774	0.3437748	83.78937792	2.9507337	-11.98055178
0.83	83	-0.007	-0.828	-0.094	-4.8128472	-29.507337	-3.3231564	83.72635254	2.95646328	-12.27276036
0.84	84	-0.01	-0.872	-0.089	-6.6463128	-26.0122932	-5.7868758	83.651868	2.99657034	-12.53632104
0.85	85	-0.023	-0.931	-0.084	-7.0473834	-21.199446	-6.875496	83.5659243	3.03094782	-12.75404508
0.86	86	-0.044	-0.995	-0.085	-6.7036086	-15.3552744	-6.4744254	83.49143976	3.08251404	-12.91447332
0.87	87	-0.066	-1.055	-0.088	-6.4171296	-8.4797784	-4.583664	83.4226848	3.1226211	-13.0061466
0.88	88	-0.084	-1.109	-0.091	-5.5003968	-1.2032118	-1.5469866	83.365389	3.13408026	-13.01760576
0.89	89	-0.099	-1.151	-0.098	-3.4950438	5.443101	2.4064236	83.33101152	3.11689152	-12.96603954
0.9	90	-0.104	-1.179	-0.107	-1.7761698	12.1467096	7.8495246	83.31955236	3.03094782	-12.8342592
0.91	91	-0.098	-1.177	-0.099	-0.6302538	15.183387	12.7196676	83.31955236	2.9220858	-12.67383096
0.92	92	-0.081	-1.149	-0.094	0.0572958	16.6730778	17.1314442	83.33101152	2.76738714	-12.4904844
0.93	93	-0.053	-1.102	-0.087	0.0572958	16.9595568	19.9389384	83.3367411	2.58404058	-12.29567868
0.94	94	-0.021	-1.041	-0.074	0	16.329303	20.8556712	83.34247068	2.39496444	-12.11233212
0.95	95	0.014	-0.986	-0.05	-0.3437748	15.1260912	19.9962342	83.35392984	2.2058883	-11.94044472
0.96	96	0.053	-0.941	-0.038	-1.718874	12.9488508	18.334656	83.3367411	2.03973048	-11.79147564
0.97	97	0.088	-0.906	-0.038	-3.2085648	10.1413566	16.615782	83.3080932	1.88503182	-11.67115446
0.98	98	0.096	-0.891	-0.037	-4.1825934	6.302538	15.2406828	83.26798614	1.73606274	-11.59666992
0.99	99	0.088	-0.882	-0.024	-4.1825934	3.3231564	14.4385416	83.22787908	1.59855282	-11.5451037
1	100	0.07	-0.887	-0.009	-4.297185	0.5156622	14.1520626	83.20496076	1.46677248	-11.52218538
1.01	101	0.037	-0.896	-0.004	-4.6409598	-1.5469866	13.9801752	83.15339454	1.32926256	-11.52218538
1.02	102	0.003	-0.907	0.006	-4.4690724	-2.6929026	13.9801752	83.11328748	1.18602306	-11.53364454
1.03	103	-0.035	-0.918	0.021	-4.1252976	-2.6929026	13.4072172	83.06745084	1.04851314	-11.5451037
1.04	104	-0.059	-0.925	0.032	-4.4690724	-1.6615782	12.0894138	83.0216142	0.92819196	-11.5451037
1.05	105	-0.076	-0.93	0.041	-4.6409598	-0.2291832	9.9694692	83.0216142	0.80787078	-11.53364454
1.06	106	-0.073	-0.934	0.052	-4.1825934	1.2605076	7.1046792	82.98150714	0.73911582	-11.51072622
1.07	107	-0.066	-0.937	0.065	-5.6722842	2.2345362	4.9274388	82.92421134	0.6875496	-11.48207832
1.08	108	-0.055	-0.937	0.07	-6.016059	2.7501984	2.9793816	82.86118596	0.66463128	-11.45343042
1.09	109	-0.05	-0.939	0.068	-6.7609044	2.7501984	0.859437	82.792431	0.65317212	-11.42478252
1.1	110	-0.039	-0.938	0.069	-7.2765666	2.291832	-1.2032118	82.792431	0.6589017	-11.39613462
1.11	111	-0.024	-0.94	0.075	-7.9641162	2.2345362	-3.0939732	82.71221688	0.6875496	-11.37894588
1.12	112	-0.024	-0.939	0.072	-8.2505952	1.9480572	-4.9274388	82.62627318	0.73911582	-11.36748672
1.13	113	-0.029	-0.925	0.063	-6.9327918	2.4637194	-7.0473834	82.55751822	0.81360036	-11.35029798
1.14	114	-0.039	-0.914	0.067	-4.3544808	4.2398892	-9.2819196	82.51168158	0.90527364	-11.32165008
1.15	115	-0.051	-0.911	0.091	-1.6042824	7.734933	-10.8289062	82.54605906	1.00840608	-11.25289512
1.16	116	-0.064	-0.916	0.112	0.572958	11.5164558	-11.6310474	82.55178864	1.13445684	-11.15549226
1.17	117	-0.088	-0.93	0.112	3.2085648	15.469866	-11.8602306	82.58616612	1.27196676	-11.01798234
1.18	118	-0.114	-0.949	0.107	6.4744254	20.05353	-11.4018642	82.6491915	1.4037471	-10.83463578
1.19	119	-0.145	-0.967	0.107	9.453807	24.2934192	-10.0840608	82.75232394	1.52979786	-10.60545258
1.2	120	-0.179	-0.986	0.115	11.8029348	28.3041252	-7.9068204	82.90129302	1.61001198	-10.33616232
1.21	121	-0.201	-1.011	0.11	13.1207382	32.372127	-5.0420304	83.03880294	1.69595568	-10.02103542
1.22	122	-0.201	-1.031	0.101	14.9542038	36.7839036	-1.3178034	83.1935016	1.74179232	-9.66007188
1.23	123	-0.189	-1.049	0.109	15.6417534	39.1330314	1.718874	83.35965942	1.76471064	-9.27046044
1.24	124	-0.169	-1.071	0.123	15.0687954	40.7373138	3.3804522	83.52008766	1.76471064	-8.86366026
1.25	125	-0.145	-1.096	0.135	15.0114996	42.112413	3.6669312	83.69770464	1.75325148	-8.43967134
1.26	126	-0.127	-1.126	0.152	13.2926256	44.1750618	3.0366774	83.84094414	1.75898106	-7.99849368
1.27	127	-0.098	-1.167	0.099	9.3392154	47.841993	2.1199446	83.94407658	1.7761698	-7.52293854
1.28	128	-0.053	-1.227	0.013	8.1360036	50.0192334	1.3178034	84.03574986	1.8048177	-7.02446508
1.29	129	-0.029	-1.31	0.035	10.7143146	45.8939358	1.2605076	84.15607104	1.82200644	-6.57182826
1.3	130	-0.012	-1.376	-0.015	8.4224826	37.5860448	3.0366774	84.24774432	1.82200644	-6.19940556
1.31	131	0.047	-1.407	-0.191	2.3491278	37.1276784	5.443101	84.27639222	1.79335854	-5.82698286
1.32	132	0.13	-1.405	-0.292	4.7555514	35.8671708	7.734933	84.33368802	1.74179232	-5.46028974
1.33	133	0.196	-1.394	-0.242	8.5370742	27.1009134	10.1413566	84.4253613	1.6615782	-5.1852699
1.34	134	0.226	-1.338	-0.196	8.2505952	19.480572	12.605076	84.511305	1.55271618	-4.97900502
1.35	135	0.215	-1.224	-0.147	6.6463128	14.7250206	14.2666542	84.58005996	1.432395	-4.81857678
1.36	136	0.174	-1.094	-0.131	6.5317212	12.0894138	14.7250206	84.64881492	1.29488508	-4.68679644
1.37	137	0.12	-0.948	-0.139	5.7868758	12.6623718	12.891555	84.70611072	1.18029348	-4.54928652
1.38	138	0.071	-0.836	-0.154	3.724227	16.2147114	10.3705398	84.74621778	1.0886202	-4.3831287
1.39	139	0.017	-0.76	-0.165	1.2605076	19.6524594	8.1360036	84.75767694	1.01986524	-4.17686382
1.4	140	-0.058	-0.724	-0.157	0.1145916	22.058883	6.8182002	84.75194736	0.95111028	-3.95913978
1.41	141	-0.12	-0.747	-0.122	1.3178034	24.350715	4.6982556	84.76340652	0.92246238	-3.71276784
1.42	142	-0.148	-0.81	-0.086	1.6042824	25.7258142	1.9480572	84.78059526	0.9167328	-3.45493674
1.43	143	-0.13	-0.896	-0.079	1.2605076	25.2674478	-0.7448454	84.797784	0.9453807	-3.2085648
1.44	144	-0.08	-0.987	-0.087	0.859437	23.204799	-2.5210152	84.80351358	0.97975818	-2.9793816
1.45	145	-0.002	-1.086	-0.116	0.7448454	19.9389384	-3.9534102	84.80351358	1.03705398	-2.79030546
1.46	146	0.087	-1.137	-0.13	0.859437	15.6990492	-5.7868758	84.81497274	1.10580894	-2.6356068
1.47	147	0.168	-1.133	-0.125	0.859437	12.7769634	-7.8495246	84.82070232	1.19175264	-2.5210152
1.48	148	0.233	-1.093	-0.108	0.8021412	9.5111028	-9.8548776	84.83216148	1.29488508	-2.4350715
1.49	149	0.271	-1.034	-0.09	0.2291832	5.5003968	-11.6883432	84.83216148	1.41520626	-2.38923486
1.5	150	0.286	-0.968	-0.082	-0.572958	0.859437	-13.0634424	84.82070232	1.63865988	-2.38923486
1.51	151	0.278	-0.908	-0.08	-1.3178034	-3.6096354	-13.8655836	84.80351358	1.7761698	-2.44080108
1.52	152	0.244	-0.868	-0.073	-1.6042824	-7.8495246	-13.9801752	84.78632484	1.90795014	-2.53247436
1.53	153	0.178	-0.841	-0.06	-1.2605076	-11.3445684	-13.6936962	84.7691361	2.0340009	-2.65279554
1.54	154	0.114	-0.829	-0.045	0.0572958	-14.2093584	-13.750992	84.7691361	2.16578124	-2.8074942
1.55	155	0.062	-0.838	-0.038	2.6356068	-15.6990492	-13.9228794	84.79205442	2.291832	-2.97365202
1.56	156	0.036	-0.854	-0.016	3.7815228	-16.1574156	-14.037471	84.8264319	2.42361234	-3.14553942
1.57	157	0.038	-0.873	0.005	2.9793816	-16.1574156	-14.2666542	84.84935022	2.55539268	-3.31742682
1.58	158	0.047	-0.902	0.015	2.4064236	-16.7303736	-14.037471	84.87226854	2.68144344	-3.4950438
1.59	159	0.061	-0.925	0.022	1.3750992	-17.1314442	-13.178034	84.87799812	2.8074942	-3.67839036
1.6	160	0.081	-0.947	0.031	0.8021412	-17.8189938	-11.5737516	84.90091644	2.91635622	-3.85600734
1.61	161	0.103	-0.966	0.043	0.9167328	-18.8503182	-8.4797784	84.90091644	2.99084076	-4.05081306
1.62	162	0.117	-0.97	0.058	0.572958	-19.6524594	-4.2398892	84.90091644	3.01948866	-4.25134836
1.63	163	0.127	-0.96	0.067	0.1718874	-20.340009	-0.2291832	84.89518686	3.01375908	-4.45188366
1.64	164	0.125	-0.944	0.074	-0.4010706	-21.2567418	3.151269	84.8837277	2.96792244	-4.65814854
1.65	165	0.114	-0.924	0.084	0	-22.5172494	5.9587632	84.90664602	2.91062664	-4.870143
1.66	166	0.104	-0.912	0.102	-0.1145916	-24.1788276	7.9641162	84.90091644	2.81322378	-5.10505578
1.67	167	0.099	-0.901	0.116	-0.572958	-26.1841806	9.0527364	84.8837277	2.71009134	-5.3571573
1.68	168	0.102	-0.892	0.112	-1.3750992	-28.0176462	10.026765	84.86080938	2.59549974	-5.62071798
1.69	169	0.113	-0.888	0.093	-2.0626488	-29.7365202	11.5164558	84.83216148	2.45798982	-5.90719698
1.7	170	0.126	-0.895	0.068	-1.5469866	-32.0283522	13.2353298	84.8264319	2.3204799	-6.21086472
1.71	171	0.137	-0.912	0.047	-0.3437748	-33.2888598	14.6677248	84.81497274	2.15432208	-6.52599162
1.72	172	0.146	-0.936	0.041	1.3178034	-34.1482968	15.6417534	84.82070232	1.98243468	-6.8468481
1.73	173	0.16	-0.968	0.039	2.5210152	-33.2888598	15.6990492	84.84362064	1.8048177	-7.161975
1.74	174	0.169	-1.012	0.022	1.8334656	-29.9084076	13.8082878	84.8550798	1.65011904	-7.448454
1.75	175	0.135	-1.063	-0.009	0.572958	-25.78311	10.886202	84.86653896	1.54125702	-7.68909636
1.76	176	0.08	-1.106	-0.019	0.3437748	-21.3713334	8.7089616	84.87226854	1.43812458	-7.89536124
1.77	177	0.003	-1.123	0.005	1.2032118	-16.8449652	7.2192708	84.8837277	1.35791046	-8.05578948
1.78	178	-0.071	-1.103	0.082	4.9847346	-15.8136408	7.5630456	84.92956434	1.27196676	-8.20475856
1.79	179	-0.09	-1.052	0.181	10.1986524	-21.9442914	9.7975818	85.03269678	1.16310474	-8.41102344
1.8	180	-0.038	-1.018	0.272	13.178034	-30.4813656	11.2872726	85.20458418	1.03705398	-8.69750244
1.81	181	0.051	-1.034	0.288	12.2613012	-38.6173692	9.8548776	85.33063494	0.9167328	-9.06992514
1.82	182	0.165	-1.093	0.28	13.0634424	-45.83664	6.5317212	85.46241528	0.8307891	-9.51683238
1.83	183	0.306	-1.181	0.274	16.7876694	-49.560867	1.8907614	85.6285731	0.79068204	-10.00384668
1.84	184	0.423	-1.259	0.193	19.3086846	-52.2537696	-2.4637194	85.8291084	0.79068204	-10.51950888
1.85	185	0.466	-1.282	0.068	18.1627686	-56.722842	-3.724227	86.01245496	0.81932994	-11.08100772
1.86	186	0.372	-1.239	-0.077	9.9121734	-62.6243094	-0.8021412	86.1155874	0.8021412	-11.69407278
1.87	187	0.193	-1.189	-0.2	4.9847346	-62.5097178	0.6302538	86.16715362	0.7734933	-12.31286742
1.88	188	-0.004	-1.199	-0.216	4.4690724	-56.7801378	-3.4950438	86.21299026	0.78495246	-12.87436626
1.89	189	-0.227	-1.3	-0.158	4.0680018	-45.4928652	-14.896908	86.25309732	0.9167328	-13.33273266
1.9	190	-0.456	-1.423	-0.154	1.8907614	-30.9970278	-28.361421	86.26455648	1.18029348	-13.65931872
1.91	191	-0.55	-1.429	-0.169	-3.437748	-20.3973048	-38.2162986	86.230179	1.5469866	-13.88277234
1.92	192	-0.437	-1.275	-0.194	-6.5317212	-15.183387	-41.539455	86.15569446	1.95378678	-14.06038932
1.93	193	-0.211	-1.008	-0.243	-6.4171296	-11.745639	-37.9298196	86.0869395	2.32620948	-14.20362882
1.94	194	-0.03	-0.822	-0.24	-4.1252976	-11.172681	-29.8511118	86.04110286	2.61841806	-14.33540916
1.95	195	0.111	-0.722	-0.204	-2.8074942	-12.3758928	-21.485925	85.98953664	2.8361421	-14.47291908
1.96	196	0.224	-0.709	-0.123	-1.145916	-12.7196676	-14.2666542	85.9723479	2.97365202	-14.610429
1.97	197	0.278	-0.772	-0.048	0.2291832	-13.5791046	-6.9327918	85.96661832	3.0366774	-14.74793892
1.98	198	0.274	-0.876	-0.02	-0.2291832	-14.2093584	-0.2291832	85.96088874	3.03094782	-14.89117842
1.99	199	0.237	-0.983	-0.013	-2.291832	-12.2040054	4.6409598	85.93224084	2.9793816	-15.0114996
2	200	0.173	-1.065	-0.024	-4.9847346	-7.5630456	8.1932994	85.88067462	2.91635622	-15.08025456
2.01	201	0.067	-1.105	-0.07	-7.9641162	-1.2605076	10.4851314	85.8004605	2.81322378	-15.08598414
2.02	202	-0.052	-1.11	-0.097	-8.9381448	6.6463128	10.8289062	85.70878722	2.70436176	-15.0114996
2.03	203	-0.166	-1.09	-0.102	-8.2505952	12.1467096	11.1153852	85.63430268	2.60122932	-14.88544884
2.04	204	-0.266	-1.044	-0.084	-7.5057498	16.3865988	12.9488508	85.55981814	2.48090814	-14.71356144
2.05	205	-0.326	-0.98	-0.06	-6.3598338	21.2567418	15.5844576	85.49679276	2.28610242	-14.4958374
2.06	206	-0.326	-0.924	-0.03	-5.443101	26.8717302	18.3919518	85.45095612	2.11421502	-14.21508798
2.07	207	-0.261	-0.879	-0.012	-3.4950438	31.9137606	20.2827132	85.42230822	1.93086846	-13.88850192
2.08	208	-0.147	-0.845	0.007	-3.8388186	35.3515086	20.8556712	85.38793074	1.74179232	-13.5218088
2.09	209	-0.019	-0.835	0.01	-2.86479	37.2995658	20.5691922	85.36501242	1.55844576	-13.13792694
2.1	210	0.09	-0.832	0.02	-0.2291832	36.5547204	19.3659804	85.37647158	1.39228794	-12.75977466
2.11	211	0.149	-0.841	0.027	-1.0886202	32.8877892	17.7044022	85.370742	1.23758928	-12.42172944
2.12	212	0.185	-0.85	0.036	-1.718874	27.215505	15.756345	85.35355326	1.09434978	-12.14098002
2.13	213	0.177	-0.869	0.05	-2.9793816	21.1421502	13.750992	85.32490536	0.96829902	-11.9175264
2.14	214	0.136	-0.885	0.064	-5.2712136	16.1574156	11.8029348	85.27333914	0.859437	-11.75136858
2.15	215	0.069	-0.898	0.064	-7.9068204	12.318597	9.6256944	85.22177292	0.77922288	-11.61958824
2.16	216	-0.009	-0.909	0.067	-9.2246238	10.2559482	7.448454	85.12437006	0.71046792	-11.51072622
2.17	217	-0.072	-0.919	0.075	-10.9434978	10.313244	4.9847346	85.01550804	0.66463128	-11.40759378
2.18	218	-0.109	-0.93	0.08	-13.178034	12.318597	1.4896908	84.87799812	0.65317212	-11.2872726
2.19	219	-0.126	-0.935	0.086	-14.610429	14.8396122	-0.859437	84.72902904	0.67036086	-11.1440331
2.2	220	-0.127	-0.937	0.096	-16.2720072	17.475219	-2.8074942	84.5972487	0.6875496	-10.9721457
2.21	221	-0.116	-0.939	0.096	-18.4492476	20.4546006	-4.297185	84.40817256	0.7448454	-10.77733998
2.22	222	-0.094	-0.938	0.1	-20.2827132	23.2620948	-5.2712136	84.20190768	0.81360036	-10.55388636
2.23	223	-0.079	-0.932	0.104	-22.058883	26.069589	-5.7868758	83.97845406	0.8880849	-10.30178484
2.24	224	-0.058	-0.914	0.108	-23.0902074	29.3354496	-6.589017	83.74354128	0.9740286	-10.026765
2.25	225	-0.055	-0.904	0.106	-23.204799	32.945085	-7.734933	83.52581724	1.06570188	-9.70590852
2.26	226	-0.06	-0.896	0.103	-22.0015872	37.3568616	-9.5111028	83.3080932	1.19175264	-9.35067456
2.27	227	-0.07	-0.895	0.09	-21.3140376	41.4248634	-10.8289062	83.09609874	1.33499214	-8.96106312
2.28	228	-0.091	-0.9	0.073	-18.5065434	44.8626114	-12.032118	82.9070226	1.49542038	-8.53134462
2.29	229	-0.116	-0.921	0.067	-15.183387	48.5295426	-12.6623718	82.7637831	1.6615782	-8.07297822
2.3	230	-0.145	-0.953	0.071	-11.1153852	50.706783	-12.1467096	82.67210982	1.81627686	-7.58596392
2.31	231	-0.168	-0.993	0.057	-8.0787078	52.4829528	-10.2559482	82.59762528	1.97097552	-7.08749046
2.32	232	-0.164	-1.038	0.038	-6.0733548	53.9153478	-7.1046792	82.55178864	2.0912967	-6.56609868
2.33	233	-0.11	-1.065	0.045	-3.0939732	55.863405	-3.4950438	82.52887032	2.18296998	-6.016059
2.34	234	-0.024	-1.067	0.069	0.859437	57.2958	-0.1145916	82.55178864	2.24026578	-5.45456016
2.35	235	0.032	-1.061	0.12	3.6096354	56.2644756	1.0313244	82.63200276	2.291832	-4.89306132
2.36	236	0.068	-1.074	0.186	5.3858052	53.9153478	2.0626488	82.70075772	2.32620948	-4.36021038
2.37	237	0.076	-1.12	0.242	4.870143	52.6548402	3.2085648	82.7637831	2.34339822	-3.8388186
2.38	238	0.087	-1.216	0.177	-1.8334656	56.8374336	4.870143	82.7637831	2.3491278	-3.27159018
2.39	239	0.107	-1.353	0.059	-6.1306506	56.4936588	8.2505952	82.71794646	2.32620948	-2.70436176
2.4	240	0.105	-1.544	-0.058	-4.7555514	46.4668938	12.8342592	82.68356898	2.24599536	-2.2345362
2.41	241	0.125	-1.714	-0.231	-8.59437	36.8411994	19.480572	82.60335486	2.08556712	-1.84492476
2.42	242	0.205	-1.848	-0.417	-9.6256944	26.5852512	26.642547	82.51168158	1.85065434	-1.55271618
2.43	243	0.271	-1.883	-0.458	-2.9793816	11.1153852	31.4553942	82.48876326	1.55271618	-1.4037471
2.44	244	0.274	-1.719	-0.376	6.589017	-3.3804522	35.2942128	82.55178864	1.2032118	-1.39228794
2.45	245	0.2	-1.41	-0.282	12.891555	-8.880849	34.7212548	82.68356898	0.859437	-1.432395
2.46	246	0.093	-1.114	-0.209	15.183387	-8.2505952	30.080295	82.83826764	0.55576926	-1.47823164
2.47	247	-0.02	-0.87	-0.169	15.0687954	-7.2765666	22.5172494	82.9929663	0.32658606	-1.52406828
2.48	248	-0.082	-0.708	-0.15	12.891555	-5.156622	13.5791046	83.12474664	0.18907614	-1.55271618
2.49	249	-0.089	-0.596	-0.14	9.3965112	-1.0313244	5.0420304	83.21641992	0.13750992	-1.55844576
2.5	250	-0.07	-0.533	-0.128	6.875496	1.3750992	-0.7448454	83.2794453	0.1432395	-1.5469866
2.51	251	-0.045	-0.56	-0.1	6.2452422	1.0313244	-5.3858052	83.34247068	0.19480572	-1.54125702
2.52	252	-0.015	-0.638	-0.065	5.6722842	-1.0313244	-10.1413566	83.39976648	0.29793816	-1.56417534
2.53	253	0.019	-0.748	-0.043	3.6669312	-5.2712136	-13.750992	83.43987354	0.4297185	-1.62720072
2.54	254	0.06	-0.842	-0.026	1.432395	-10.7716104	-14.6677248	83.4513327	0.56722842	-1.75325148
2.55	255	0.1	-0.924	-0.034	0.4010706	-16.615782	-12.7769634	83.46852144	0.69900876	-1.93086846
2.56	256	0.15	-0.979	-0.053	0.7448454	-22.1734746	-9.453807	83.47425102	0.7734933	-2.16005166
2.57	257	0.192	-0.983	-0.067	0.6875496	-27.1582092	-5.3285094	83.48571018	0.80787078	-2.42934192
2.58	258	0.228	-0.947	-0.079	0.4010706	-32.372127	-3.151269	83.48571018	0.80787078	-2.75592798
2.59	259	0.235	-0.912	-0.059	2.4637194	-36.7266078	-2.6356068	83.51435808	0.8021412	-3.11689152
2.6	260	0.212	-0.886	-0.037	3.7815228	-39.8778768	-3.2085648	83.56019472	0.8307891	-3.51223254
2.61	261	0.161	-0.864	-0.018	4.010706	-42.4561878	-4.8128472	83.60030178	0.84224826	-3.93622146
2.62	262	0.096	-0.863	-0.003	4.9274388	-44.4615408	-6.6463128	83.64613842	0.87089616	-4.3831287
2.63	263	0.049	-0.848	-0.013	6.9327918	-44.0031744	-8.4797784	83.72062296	0.92246238	-4.82430636
2.64	264	0.028	-0.827	-0.001	5.3285094	-43.2010332	-9.0527364	83.77218918	0.9740286	-5.25975444
2.65	265	0.01	-0.797	-0.017	1.0313244	-42.7999626	-10.313244	83.78364834	1.04278356	-5.68947294
2.66	266	0.032	-0.785	-0.037	-1.7761698	-43.3729206	-11.745639	83.76073002	1.12299768	-6.1306506
2.67	267	0.068	-0.801	-0.036	-2.7501984	-45.3782736	-12.8342592	83.73208212	1.21467096	-6.59474658
2.68	268	0.115	-0.847	-0.039	-4.297185	-48.0711762	-13.2353298	83.6805159	1.30634424	-7.08176088
2.69	269	0.165	-0.884	-0.038	-6.2452422	-46.409598	-12.9488508	83.61176094	1.39801752	-7.55158644
2.7	270	0.237	-0.876	0.067	1.5469866	-44.404245	-10.3705398	83.64613842	1.4896908	-7.99849368
2.71	271	0.262	-0.856	0.049	8.9954406	-55.9779966	-5.0993262	83.73208212	1.49542038	-8.55426294
2.72	272	0.206	-0.8	0.053	10.886202	-73.7396946	0.0572958	83.83521456	1.43812458	-9.2819196
2.73	273	0.221	-0.845	0.19	14.3812458	-76.203414	2.1199446	83.97272448	1.35791046	-10.026765
2.74	274	0.228	-0.926	0.211	11.0580894	-68.6403684	-2.2345362	84.07585692	1.32926256	-10.70858502
2.75	275	0.174	-1.018	0.175	6.589017	-65.1453246	-7.1046792	84.16180062	1.36364004	-11.35602756
2.76	276	0.092	-1.091	0.112	0.1145916	-60.6762522	-10.313244	84.15607104	1.42093584	-11.96336304
2.77	277	0.033	-1.078	0.07	-7.2765666	-55.6342218	-10.5424272	84.07585692	1.48396122	-12.52486188
2.78	278	0	-1.01	0.064	-13.3499214	-51.852699	-7.8495246	83.93261742	1.52406828	-13.04625366
2.79	279	-0.009	-0.923	0.055	-16.4438946	-51.2224452	-4.0680018	83.75500044	1.5183387	-13.55618628
2.8	280	0.022	-0.861	0.091	-14.896908	-54.2591226	-0.2291832	83.61749052	1.48396122	-14.08903722
2.81	281	0.065	-0.838	0.123	-11.9748222	-57.868758	4.7555514	83.49143976	1.38655836	-14.65626564
2.82	282	0.084	-0.845	0.137	-9.167328	-59.1292656	9.167328	83.3940369	1.24331886	-15.22922364
2.83	283	0.095	-0.877	0.141	-7.5630456	-57.6395748	11.9748222	83.31382278	1.07143146	-15.7849929
2.84	284	0.103	-0.914	0.141	-5.5003968	-53.6861646	12.4904844	83.25652698	0.89954406	-16.3006551
2.85	285	0.108	-0.943	0.139	-4.1825934	-48.2430636	11.745639	83.24506782	0.75630456	-16.7590215
2.86	286	0.127	-0.913	0.179	-0.1718874	-45.83664	11.5737516	83.24506782	0.6016059	-17.19446958
2.87	287	0.143	-0.825	0.256	10.886202	-54.8320806	14.2666542	83.35965942	0.41252976	-17.72159094
2.88	288	0.127	-0.787	0.25	17.4179232	-76.1461182	17.475219	83.54300598	0.17761698	-18.4492476
2.89	289	0.157	-0.777	0.324	17.5898106	-86.1728832	16.7876694	83.73208212	-0.05156622	-19.2800367
2.9	290	0.209	-0.807	0.391	13.6936962	-84.2821218	12.6623718	83.92115826	-0.22345362	-20.09363706
2.91	291	0.218	-0.89	0.352	7.5057498	-81.1308528	8.9381448	84.01283154	-0.3724227	-20.8843191
2.92	292	0.181	-0.972	0.284	-0.9167328	-74.5418358	6.4744254	84.01856112	-0.49274388	-21.61197576
2.93	293	0.113	-0.992	0.23	-7.9068204	-66.1193532	7.2765666	83.95553574	-0.61879464	-22.25368872
2.94	294	0.051	-0.93	0.213	-9.8548776	-60.9054354	12.1467096	83.86959204	-0.78495246	-22.84383546
2.95	295	0.012	-0.847	0.215	-7.0473834	-57.3530958	17.9335854	83.84094414	-1.00840608	-23.38814556
2.96	296	-0.03	-0.738	0.23	-2.6929026	-51.6808116	21.9442914	83.82948498	-1.26623718	-23.87515986
2.97	297	-0.073	-0.665	0.255	1.145916	-47.4409224	24.8090814	83.85813288	-1.5469866	-24.3220671
2.98	298	-0.107	-0.636	0.269	0.5156622	-41.1383844	26.5852512	83.8810512	-1.83919518	-24.70021938
2.99	299	-0.094	-0.608	0.202	-4.0680018	-30.9970278	27.1582092	83.85813288	-2.13713334	-24.97523922
3	300	-0.038	-0.565	0.108	-7.7922288	-22.9756158	27.6738714	83.7951075	-2.42361234	-25.17577452
3.01	301	0.021	-0.532	0.009	-8.9954406	-20.2254174	28.5333084	83.71489338	-2.72728008	-25.34766192
3.02	302	0.065	-0.481	-0.078	-10.886202	-18.907614	29.8511118	83.61749052	-3.0366774	-25.50236058
3.03	303	0.079	-0.42	-0.125	-14.037471	-17.4179232	32.8877892	83.48571018	-3.37472262	-25.6398705
3.04	304	0.069	-0.363	-0.108	-16.902261	-12.5477802	35.4661002	83.31955236	-3.74141574	-25.7258142
3.05	305	0.028	-0.26	-0.114	-21.3713334	-4.010706	35.5806918	83.09609874	-4.0966497	-25.7258142
3.06	306	-0.03	-0.191	-0.148	-24.0069402	1.5469866	35.3515086	82.8497268	-4.44615408	-25.67424798
3.07	307	-0.074	-0.188	-0.237	-31.7418732	2.5210152	35.9244666	82.51741116	-4.80138804	-25.60549302
3.08	308	-0.096	-0.153	-0.378	-41.9405256	4.1825934	36.8411994	82.08769266	-5.16235158	-25.51954932
3.09	309	-0.087	-0.093	-0.418	-43.4302164	5.2139178	36.669312	81.63505584	-5.52331512	-25.42214646
3.1	310	-0.043	-0.067	-0.407	-41.0237928	4.5263682	34.0337052	81.17668944	-5.86136034	-25.33047318
3.11	311	0.015	-0.056	-0.425	-42.8572584	2.4637194	30.1948866	80.73551178	-6.15356892	-25.2674478
3.12	312	0.059	-0.058	-0.444	-45.1490904	-0.4583664	27.5592798	80.27714538	-6.43431834	-25.23307032
3.13	313	0.043	-0.098	-0.441	-50.1911208	-3.6669312	27.6738714	79.76721276	-6.71506776	-25.22734074
3.14	314	-0.031	-0.152	-0.361	-58.728195	-8.7089616	28.6479	79.17706602	-7.01300592	-25.2674478
3.15	315	-0.181	-0.232	-0.151	-66.8641986	-17.9335854	26.2987722	78.51243474	-7.31667366	-25.39922814
3.16	316	-0.306	-0.458	-0.08	-88.6938984	-15.2406828	22.5745452	77.63007942	-7.57450476	-25.50809016
3.17	317	-0.364	-0.69	-0.427	-125.9934642	7.1046792	21.6578124	76.33519434	-7.78076964	-25.40495772
3.18	318	-0.442	-0.916	-0.791	-148.1669388	28.1322378	25.9549974	74.78820774	-7.98703452	-25.07837166
3.19	319	-0.604	-1.227	-1.007	-173.5489782	43.3156248	31.2835068	72.94901256	-8.1932994	-24.59135736
3.2	320	-0.825	-1.694	-1.32	-196.238115	70.9322004	33.518043	70.83479754	-8.3365389	-23.82359364
3.21	321	-1.158	-2.505	-1.685	-211.9371642	111.440331	33.2888598	68.50285848	-8.31362058	-22.67194806
3.22	322	-2.119	-3.943	-2.398	-261.4407354	166.5588906	5.156622	65.60942058	-7.7922288	-21.12496146
3.23	323	-3.515	-3.999	-2.504	-267.1130196	245.0541366	-111.153852	62.65868688	-5.83844202	-19.41181704
3.24	324	-3.93	-3.941	-0.54	-254.2214646	357.239313	-159.5115072	59.85119268	-2.85906042	-17.03404134
3.25	325	-1.515	-2.875	-0.097	-255.9976344	380.730591	-9.1100322	57.10672386	-0.93965112	-13.82547654
3.26	326	0.393	-2.165	-0.503	-254.5652394	304.9282476	108.1744704	54.45392832	-0.23491278	-10.69712586
3.27	327	1.291	-1.754	-1.143	-216.5208282	258.690537	142.666542	52.21939212	0.06302538	-7.76931048
3.28	328	1.533	-1.789	-0.341	-182.8881936	223.6255074	114.6488958	50.34581946	0.48128472	-5.30559108
3.29	329	2.386	-1.957	0.62	-176.2418808	116.4250656	39.7059894	48.5581905	0.87089616	-4.15967508
3.3	330	1.826	-1.381	1.002	-254.2787604	-30.9970278	-50.5921914	45.9798795	1.00840608	-4.73836266
3.31	331	0.637	-0.88	0.868	-276.2803476	-86.803137	-87.5479824	43.16092614	0.98548776	-5.98168152
3.32	332	0.421	-0.753	0.945	-286.192521	-109.6641612	-100.2103542	40.24456992	0.82505952	-7.47137232
3.33	333	0.07	-0.664	0.945	-282.8693646	-95.2829154	-93.392154	37.36832076	0.64744254	-8.80636446
3.34	334	-0.266	-0.45	1.112	-301.7196828	-75.1147938	-66.0620574	34.30872504	0.40680018	-9.78612264
3.35	335	-0.707	0.234	1.072	-331.6280904	-33.9191136	-16.329303	30.939732	0.16042824	-10.1127087
3.36	336	-1.183	0.87	0.888	-295.1879616	-11.9175264	13.8082878	27.94316166	-0.04010706	-10.0554129
3.37	337	-1.329	0.922	0.858	-251.8723368	6.1306506	28.5333084	25.38776898	-0.14896908	-9.76320432
3.38	338	-1.049	0.403	0.698	-204.7178934	28.6479	40.10706	23.30793144	-0.0859437	-9.27619002
3.39	339	-0.665	0.175	0.469	-189.5918022	50.1911208	49.1025006	21.37706298	0.14896908	-8.61728832
3.4	340	-0.366	0.138	0.225	-171.4290336	66.2339448	46.3523022	19.6238115	0.55576926	-7.9354683
3.41	341	-0.076	0.233	-0.089	-157.0477878	79.068204	34.8358464	18.02525868	1.15164558	-7.3338624
3.42	342	0.242	0.355	-0.456	-131.6657484	80.9016696	21.6578124	16.69599612	1.82773602	-6.86403684
3.43	343	0.511	0.543	-0.818	-109.8933444	73.2240324	14.4385416	15.5844576	2.4637194	-6.49734372
3.44	344	0.713	0.878	-1.101	-86.4593622	57.1812084	13.8082878	14.71356144	2.95646328	-6.19940556
3.45	345	0.897	1.115	-1.125	-61.020027	35.1223254	15.9855282	14.08903722	3.24867186	-5.94730404
3.46	346	1.061	1.101	-1.159	-32.6013102	3.8388186	16.3865988	13.76818074	3.24294228	-5.77541664
3.47	347	1.148	0.949	-1.106	-15.9282324	-21.9442914	12.0894138	13.61348208	3.00229992	-5.71812084
3.48	348	1.067	0.732	-1.1	-9.740286	-46.0658232	5.9587632	13.51607922	2.54393352	-5.77541664
3.49	349	0.798	0.476	-1.111	-12.0894138	-67.4371566	1.432395	13.39575804	1.89649098	-5.93584488
3.5	350	0.501	0.216	-1.137	-18.5638392	-81.360036	-0.7448454	13.18949316	1.13445684	-6.15356892
3.51	351	0.212	-0.107	-1.127	-20.8556712	-89.2668564	-1.5469866	12.98895786	0.28074942	-6.3884817
3.52	352	-0.045	-0.427	-1.21	-15.8709366	-90.1835892	-0.4583664	12.83998878	-0.572958	-6.6176649
3.53	353	-0.103	-0.525	-1.153	-8.4797784	-87.2615034	0.286479	12.76550424	-1.41520626	-6.82965936
3.54	354	-0.082	-0.381	-1.035	-12.318597	-79.354683	-0.5156622	12.65664222	-2.17151082	-7.02446508
3.55	355	-0.095	-0.242	-0.86	-9.0527364	-79.1254998	0.0572958	12.58215768	-2.93927454	-7.2192708
3.56	356	-0.135	-0.133	-0.749	2.86479	-79.6984578	0.8021412	12.6337239	-3.70703826	-7.40261736
3.57	357	-0.132	-0.083	-0.756	11.745639	-73.9688778	0.572958	12.7769634	-4.41750618	-7.58023434
3.58	358	-0.111	-0.047	-0.806	15.2979786	-62.5670136	1.6042824	12.95458038	-5.0133825	-7.71774426
3.59	359	-0.137	0.009	-0.942	2.5210152	-42.8572584	3.3804522	12.98895786	-5.43164184	-7.7922288
3.6	360	-0.205	0.139	-1.03	-14.5531332	-20.05353	5.2712136	12.75404508	-5.67801378	-7.7922288
3.61	361	-0.338	0.19	-0.993	-20.2827132	-1.5469866	8.6516658	12.54205062	-5.71239126	-7.7062851
3.62	362	-0.425	0.268	-0.95	-24.5226024	14.4958374	12.0894138	12.27276036	-5.60352924	-7.55158644
3.63	363	-0.397	0.443	-0.944	-20.7410796	26.642547	15.2979786	12.04357716	-5.38007562	-7.33959198
3.64	364	-0.251	0.547	-0.939	-16.1574156	35.5806918	16.1001198	11.84877144	-5.07640788	-7.09894962
3.65	365	-0.026	0.544	-0.973	-18.5065434	42.3415962	17.7044022	11.56802202	-4.70971476	-6.82965936
3.66	366	0.167	0.377	-1.169	-26.4133638	51.2224452	17.8189938	11.27581344	-4.25134836	-6.54318036
3.67	367	-0.006	0.138	-1.73	-46.0658232	74.0261736	16.9595568	10.7716104	-3.5809875	-6.21086472
3.68	368	-0.018	-0.022	-2.257	-65.6609868	85.084263	14.32395	10.07833122	-2.79030546	-5.89000824
3.69	369	-0.812	-0.154	-2.707	-93.7932246	68.75496	2.1199446	9.1100322	-2.13713334	-5.72958
3.7	370	-0.979	0.089	-2.899	-116.2531782	59.4730404	3.3804522	7.91827956	-1.58136408	-5.5863405
3.71	371	-0.585	0.502	-3.016	-116.9980236	62.3951262	0	6.71506776	-0.98548776	-5.48320806
3.72	372	0.042	0.408	-2.937	-111.3830352	42.2270046	-10.4278356	5.58061092	-0.572958	-5.52331512
3.73	373	0.303	0.179	-2.392	-103.0178484	35.0650296	-14.037471	4.53209778	-0.2291832	-5.6149884
3.74	374	-0.019	0.07	-2.045	-87.7198698	42.5134836	-12.891555	3.63255372	0.18334656	-5.69520252
3.75	375	-0.343	0.104	-1.762	-89.8398144	36.4974246	-8.7089616	2.71582092	0.53285094	-5.74676874
3.76	376	-0.451	0.332	-1.541	-93.678633	32.945085	-4.1825934	1.75898106	0.84797784	-5.7582279
3.77	377	-0.25	0.52	-1.366	-82.5632478	36.2109456	-5.9014674	0.9167328	1.19748222	-5.79260538
3.78	378	0.033	0.557	-1.268	-60.2751816	42.112413	-10.313244	0.29220858	1.6042824	-5.87854908
3.79	379	0.237	0.469	-1.184	-43.4302164	42.1697088	-12.0894138	-0.14896908	2.01681216	-5.98168152
3.8	380	0.322	0.388	-1.078	-32.7731976	36.2109456	-12.5477802	-0.52712136	2.39496444	-6.1020027
3.81	381	0.325	0.353	-0.989	-22.5172494	30.8251404	-12.5477802	-0.76776372	2.6929026	-6.2165943
3.82	382	0.22	0.355	-0.904	-17.5898106	27.6165756	-13.0634424	-0.95683986	2.96219286	-6.34264506
3.83	383	0.132	0.348	-0.863	-17.9908812	28.361421	-11.0007936	-1.145916	3.24294228	-6.45150708
3.84	384	0.071	0.308	-0.836	-17.3606274	30.7678446	-6.7036086	-1.32926256	3.54088044	-6.51453246
3.85	385	0.066	0.236	-0.861	-16.6730778	33.9764094	-1.718874	-1.54125702	3.87319608	-6.5317212
3.86	386	0.12	0.15	-0.891	-16.5011904	37.24227	1.718874	-1.71314442	4.24561878	-6.51453246
3.87	387	0.203	0.076	-0.94	-15.2406828	37.5860448	3.6096354	-1.86784308	4.6123119	-6.48015498
3.88	388	0.259	0.039	-0.963	-12.2613012	34.4920716	4.4117766	-1.99389384	4.9560867	-6.43431834
3.89	389	0.266	0.038	-0.949	-8.3651868	27.5592798	4.297185	-2.07983754	5.23110654	-6.39421128
3.9	390	0.232	0.071	-0.923	-4.0680018	20.5118964	3.6096354	-2.1485925	5.4717489	-6.36556338
3.91	391	0.208	0.11	-0.881	0.286479	17.475219	2.7501984	-2.1485925	5.6436363	-6.33691548
3.92	392	0.196	0.13	-0.858	3.2085648	14.0947668	1.5469866	-2.11421502	5.7868758	-6.32545632
3.93	393	0.212	0.122	-0.882	3.8388186	9.9694692	0.286479	-2.07410796	5.88427866	-6.31972674
3.94	394	0.254	0.091	-0.922	4.2398892	6.302538	0.4583664	-2.0340009	5.94730404	-6.31972674
3.95	395	0.294	0.053	-0.969	4.1252976	2.1199446	0.9167328	-2.02254174	6.20513514	-6.31399716
3.96	396	0.312	0.016	-1.012	3.4950438	-3.0366774	1.5469866	-1.98243468	6.17648724	-6.29680842
3.97	397	0.326	-0.016	-1.059	1.9480572	-8.7662574	2.4637194	-1.95951636	6.09054354	-6.26816052
3.98	398	0.31	-0.039	-1.092	0	-15.3552744	4.0680018	-1.95378678	5.94157446	-6.22805346
3.99	399	0.27	-0.068	-1.109	-2.0626488	-21.485925	6.7609044	-1.96524594	5.72958	-6.1592985
4	400	0.209	-0.091	-1.082	-3.2658606	-26.0122932	9.453807	-1.95951636	5.48893764	-6.05616606
4.01	401	0.147	-0.1	-1.041	-3.5523396	-28.4760126	10.7716104	-1.98243468	5.20818822	-5.94730404
4.02	402	0.103	-0.094	-1.032	-3.6669312	-27.3300966	10.599723	-2.005353	4.93889796	-5.83844202
4.03	403	0.084	-0.084	-1.017	-3.151269	-23.9496444	9.5683986	-2.02827132	4.70398518	-5.74103916
4.04	404	0.077	-0.074	-0.988	-2.578311	-20.3973048	7.161975	-2.04546006	4.50344988	-5.6722842
4.05	405	0.078	-0.074	-0.98	-3.2658606	-16.5584862	4.010706	-2.0340009	4.34302164	-5.62071798
4.06	406	0.09	-0.068	-0.983	-3.8961144	-13.2926256	1.145916	-2.06837838	4.2112413	-5.60925882
4.07	407	0.093	-0.068	-0.987	-3.0939732	-11.0007936	-1.145916	-2.10275586	4.10237928	-5.62071798
4.08	408	0.089	-0.064	-1.004	-2.8074942	-8.7089616	-2.9220858	-2.13140376	4.01643558	-5.64936588
4.09	409	0.072	-0.052	-0.998	-2.6356068	-6.4171296	-4.1252976	-2.16005166	3.94768062	-5.68947294
4.1	410	0.038	-0.032	-0.972	-2.86479	-4.6982556	-4.4690724	-2.16578124	3.8674665	-5.72958
4.11	411	0.008	-0.005	-0.936	-3.0939732	-2.5210152	-4.8128472	-2.20015872	3.8388186	-5.77541664
4.12	412	-0.007	0.012	-0.925	-4.4690724	1.145916	-4.9274388	-2.24599536	3.84454818	-5.82698286
4.13	413	-0.021	0.028	-0.929	-5.8441716	4.6982556	-4.6409598	-2.30902074	3.89038482	-5.8728195
4.14	414	-0.017	0.034	-0.942	-5.9587632	7.448454	-3.7815228	-2.3777757	3.96486936	-5.91292656
4.15	415	0	0.031	-0.956	-4.6982556	8.8235532	-2.1772404	-2.42934192	4.010706	-5.93584488
4.16	416	0.038	0.004	-0.941	0.0572958	7.9641162	-0.7448454	-2.4350715	4.08519054	-5.94157446
4.17	417	0.074	-0.015	-0.909	4.4117766	5.2139178	0.2291832	-2.38923486	4.13675676	-5.94157446
4.18	418	0.108	-0.02	-0.919	4.4690724	1.0886202	-0.1145916	-2.34339822	4.14821592	-5.94157446
4.19	419	0.088	-0.028	-1.009	-0.859437	-5.8441716	-0.9167328	-2.3491278	4.09092012	-5.95303362
4.2	420	0.04	-0.011	-1.092	-7.6776372	-10.7143146	-2.6929026	-2.42361234	3.97059894	-5.97595194
4.21	421	0.003	0.038	-1.039	-11.5737516	-10.7143146	-6.1879464	-2.54393352	3.86173692	-6.03897732
4.22	422	-0.023	0.043	-0.905	-6.2452422	0.6875496	-12.1467096	-2.61841806	3.86173692	-6.1592985
4.23	423	-0.044	-0.001	-0.962	-8.1360036	7.9068204	-15.4125702	-2.71009134	3.93622146	-6.31399716
4.24	424	-0.076	-0.021	-1.071	-10.1986524	0.7448454	-12.9488508	-2.82468294	3.93622146	-6.44004792
4.25	425	-0.103	-0.019	-1.065	-5.7868758	-9.9121734	-6.1306506	-2.86479	3.76433406	-6.49734372
4.26	426	-0.09	-0.031	-1.023	1.8334656	-17.761698	1.432395	-2.84187168	3.59244666	-6.48015498
4.27	427	-0.085	-0.06	-0.934	4.3544808	-15.2406828	5.9587632	-2.79030546	3.44347758	-6.4171296
4.28	428	-0.007	-0.054	-0.962	-2.1772404	-4.6982556	7.448454	-2.8074942	3.40337052	-6.34264506
4.29	429	0.05	-0.057	-0.938	-1.3178034	-5.2139178	7.8495246	-2.81895336	3.3518043	-6.26243094
4.3	430	0.113	-0.054	-0.984	3.8961144	-15.0687954	7.161975	-2.74446882	3.22002396	-6.18221682
4.31	431	0.153	-0.081	-0.937	7.734933	-23.3766864	4.6409598	-2.65852512	2.99657034	-6.13638018
4.32	432	0.208	-0.025	-0.934	4.9274388	-19.767051	0.6302538	-2.6069589	2.80176462	-6.12492102
4.33	433	0.207	-0.025	-0.908	5.0993262	-15.2979786	-3.0939732	-2.55539268	2.64706596	-6.15356892
4.34	434	0.13	-0.042	-0.947	1.3178034	-10.5424272	-4.3544808	-2.54393352	2.54393352	-6.19367598
4.35	435	0.021	-0.06	-0.948	-1.0886202	-5.443101	-3.6096354	-2.45798982	2.42361234	-6.22232388
4.36	436	-0.068	-0.066	-0.964	-2.7501984	1.8907614	-1.2605076	-2.48663772	2.44080108	-6.23378304
4.37	437	-0.12	-0.064	-0.988	-3.3804522	9.2819196	1.4896908	-2.5210152	2.53247436	-6.2165943
4.38	438	-0.12	-0.061	-0.995	-3.6096354	14.9542038	4.010706	-2.55539268	2.68144344	-6.18221682
4.39	439	-0.097	-0.052	-0.997	-3.3231564	19.9389384	5.2712136	-2.58977016	2.88197874	-6.1306506
4.4	440	-0.041	-0.033	-1.016	-3.2085648	24.637194	4.870143	-2.61268848	3.10543236	-6.08481396
4.41	441	0.015	-0.011	-1.034	-2.7501984	29.220858	2.9793816	-2.64133638	3.39764094	-6.06189564
4.42	442	0.075	0.018	-1.05	-2.6929026	30.653253	0.6875496	-2.66998428	3.70130868	-6.05616606
4.43	443	0.134	0.041	-1.055	-2.4064236	28.9916748	-1.0886202	-2.70436176	3.9820581	-6.0733548
4.44	444	0.187	0.053	-1.053	-1.432395	25.210152	-2.4637194	-2.7215505	4.23415962	-6.1020027
4.45	445	0.222	0.06	-1.031	-0.3437748	19.9389384	-3.0939732	-2.74446882	4.48053156	-6.14210976
4.46	446	0.229	0.06	-1.01	1.0313244	14.2093584	-2.86479	-2.73873924	4.61804148	-6.17075766
4.47	447	0.214	0.057	-1.001	1.432395	8.4797784	-2.0626488	-2.72728008	4.70398518	-6.19367598
4.48	448	0.167	0.044	-0.993	1.6042824	3.3804522	-0.9167328	-2.71009134	4.73836266	-6.20513514
4.49	449	0.116	0.028	-0.984	1.0886202	-1.145916	1.2032118	-2.69863218	4.7269035	-6.19367598
4.5	450	0.07	0.016	-0.973	0.1718874	-2.4064236	2.6356068	-2.67571386	4.65241896	-6.16502808
4.51	451	0.036	0.014	-0.975	-0.7448454	-1.8334656	3.151269	-2.68144344	4.63523022	-6.1306506
4.52	452	0.012	0.016	-0.976	-1.6615782	-0.6302538	2.5210152	-2.69863218	4.62950064	-6.10773228
4.53	453	0.009	0.024	-0.978	-2.9793816	1.8334656	1.2605076	-2.72728008	4.64668938	-6.09627312
4.54	454	0.019	0.045	-0.991	-1.9480572	3.724227	0.1718874	-2.7501984	4.68679644	-6.09054354
4.55	455	0.03	0.058	-0.966	2.6929026	2.8074942	-0.1718874	-2.76165756	4.65814854	-6.1020027
4.56	456	0.07	0.055	-0.935	5.2139178	2.9793816	-0.572958	-2.71009134	4.68679644	-6.10773228
4.57	457	0.105	0.04	-0.953	5.2139178	2.6356068	-0.572958	-2.65852512	4.71544434	-6.11919144
4.58	458	0.129	0.017	-0.966	4.6982556	0.6875496	-0.5156622	-2.61268848	4.72117392	-6.12492102
4.59	459	0.146	-0.006	-0.969	3.724227	-0.4010706	-0.572958	-2.578311	4.71544434	-6.1306506
4.6	460	0.157	-0.021	-0.972	2.86479	-0.6875496	-1.145916	-2.45226024	4.83576552	-6.12492102
4.61	461	0.156	-0.026	-0.977	1.8334656	0.0572958	-1.718874	-2.4350715	4.83576552	-6.14210976
4.62	462	0.143	-0.016	-0.983	0.5156622	1.3750992	-1.7761698	-2.42934192	4.85295426	-6.1592985
4.63	463	0.12	-0.003	-0.99	-0.2291832	2.4637194	-1.145916	-2.4350715	4.87587258	-6.17648724
4.64	464	0.088	0.007	-0.994	-0.286479	3.437748	0.2291832	-2.4350715	4.91025006	-6.17075766
4.65	465	0.063	0.011	-1.002	-0.286479	4.5263682	2.0626488	-2.42934192	4.91597964	-6.15356892
4.66	466	0.053	0.013	-1.013	-0.4583664	5.0993262	3.2658606	-2.4350715	4.96754586	-6.11919144
4.67	467	0.054	0.01	-1.02	-0.6302538	5.5576926	3.8388186	-2.4350715	5.02484166	-6.07908438
4.68	468	0.063	0.005	-1.018	-0.6302538	5.3858052	3.7815228	-2.44080108	5.07640788	-6.0447069
4.69	469	0.075	0	-1.01	-0.6302538	4.583664	3.0366774	-2.44653066	5.12224452	-6.016059
4.7	470	0.091	-0.009	-1.001	-0.8021412	3.5523396	2.1199446	-2.40069402	5.16235158	-5.98168152
4.71	471	0.105	-0.02	-0.996	-0.9740286	2.3491278	1.2605076	-2.4064236	5.1852699	-5.97022236
4.72	472	0.115	-0.028	-0.992	-1.3750992	0.9167328	0.3437748	-2.42361234	5.19672906	-5.97022236
4.73	473	0.121	-0.037	-0.986	-1.432395	-0.4010706	-0.572958	-2.44080108	5.19099948	-5.97595194
4.74	474	0.117	-0.041	-0.977	-1.5469866	-1.0886202	-1.0886202	-2.45226024	5.17954032	-5.9874111
4.75	475	0.109	-0.043	-0.969	-1.6042824	-1.2605076	-1.2032118	-2.33766864	5.1852699	-5.97595194
4.76	476	0.098	-0.041	-0.964	-1.432395	-1.3750992	-0.859437	-2.35485738	5.16808116	-5.98168152
4.77	477	0.086	-0.034	-0.964	-1.145916	-1.6042824	-0.1718874	-2.36631654	5.156622	-5.9874111
4.78	478	0.076	-0.023	-0.968	-0.8021412	-2.005353	0.2291832	-2.37204612	5.13370368	-5.98168152
4.79	479	0.069	-0.011	-0.974	-0.3437748	-2.6929026	0.4583664	-2.3777757	5.10505578	-5.97595194
4.8	480	0.067	0	-0.977	0	-3.0939732	0.286479	-2.32620948	5.00765292	-5.97022236
4.81	481	0.065	0.006	-0.983	0.5156622	-3.3804522	-0.3437748	-2.32620948	4.97327544	-5.97022236
4.82	482	0.065	0.011	-0.99	0.572958	-3.151269	-1.0886202	-2.3204799	4.94462754	-5.98168152
4.83	483	0.065	0.014	-0.998	0.1718874	-2.7501984	-1.7761698	-2.31475032	4.91597964	-5.99887026
4.84	484	0.064	0.016	-1	-0.4010706	-2.1772404	-2.1772404	-2.3204799	4.89306132	-6.02178858
4.85	485	0.066	0.019	-0.996	-0.859437	-1.3750992	-2.291832	-2.33766864	4.83003594	-6.0447069
4.86	486	0.07	0.019	-0.991	-0.9167328	-0.3437748	-2.291832	-2.3491278	4.82430636	-6.06762522
4.87	487	0.077	0.017	-0.987	-0.8021412	0.9167328	-1.9480572	-2.35485738	4.83003594	-6.09054354
4.88	488	0.087	0.014	-0.986	-0.7448454	1.8907614	-1.5469866	-2.36631654	4.85295426	-6.10773228
4.89	489	0.095	0.013	-0.989	-0.9740286	2.4064236	-1.145916	-2.3777757	4.87587258	-6.11919144
4.9	490	0.101	0.008	-0.993	-1.0313244	2.2345362	-0.6875496	-2.35485738	4.92170922	-6.11919144
4.91	491	0.108	0.005	-0.996	-1.2605076	1.6042824	-0.2291832	-2.36631654	4.93889796	-6.11919144
4.92	492	0.111	0.002	-0.996	-1.8334656	0.9740286	0.1145916	-2.38923486	4.94462754	-6.11919144
4.93	493	0.105	0.001	-0.989	-2.2345362	0	0.4010706	-2.41215318	4.94462754	-6.11346186
4.94	494	0.095	0.001	-0.98	-2.4637194	-0.6875496	0.4583664	-2.4350715	4.93889796	-6.10773228
4.95	495	0.086	0.001	-0.979	-2.4637194	-0.6875496	0.572958	-2.41215318	4.91025006	-6.09627312
4.96	496	0.078	0.003	-0.987	-2.291832	-0.4010706	0.6875496	-2.4350715	4.90452048	-6.09054354
4.97	497	0.075	0.007	-0.991	-1.8907614	-0.4583664	0.7448454	-2.45226024	4.90452048	-6.08481396
4.98	498	0.074	0.009	-0.983	-1.6615782	-0.7448454	0.6875496	-2.46944898	4.89306132	-6.0733548
4.99	499	0.076	0.011	-0.979	-1.9480572	-0.6302538	0.8021412	-2.4923673	4.88733174	-6.06762522
5	500	0.076	0.011	-0.984	-2.0626488	0	0.9740286	-2.48090814	4.84722468	-6.05043648
5.01	501	0.077	0.012	-0.991	-1.9480572	0.6302538	1.2605076	-2.50382646	4.85295426	-6.03897732
5.02	502	0.08	0.013	-0.998	-1.4896908	1.2605076	1.5469866	-2.51528562	4.870143	-6.02751816
5.03	503	0.086	0.014	-1	-1.145916	2.005353	1.6615782	-2.52674478	4.88733174	-6.01032942
5.04	504	0.089	0.014	-1	-0.8021412	2.4064236	1.6042824	-2.53247436	4.91597964	-5.99314068
5.05	505	0.095	0.013	-0.998	-0.2291832	2.291832	1.5469866	-2.50955604	4.93889796	-5.97595194
5.06	506	0.097	0.009	-0.997	0.1718874	1.9480572	1.432395	-2.50955604	4.9560867	-5.9587632
5.07	507	0.099	0.008	-0.991	0.6302538	1.5469866	1.145916	-2.50382646	4.97327544	-5.94730404
5.08	508	0.1	0.004	-0.983	0.1145916	1.2032118	1.2605076	-2.49809688	4.9847346	-5.93584488
5.09	509	0.103	-0.002	-0.981	0.1145916	0.7448454	1.2032118	-2.49809688	4.99619376	-5.92438572
5.1	510	0.102	-0.006	-0.976	0.5156622	0.5156622	1.2032118	-2.38350528	5.03630082	-5.89573782
5.11	511	0.103	-0.012	-0.974	0.5156622	0	1.2032118	-2.3777757	5.03630082	-5.88427866
5.12	512	0.1	-0.016	-0.975	0.286479	-0.3437748	1.2605076	-2.37204612	5.03057124	-5.86708992
5.13	513	0.098	-0.019	-0.978	0	-0.9740286	1.145916	-2.37204612	5.01911208	-5.85563076
5.14	514	0.095	-0.018	-0.981	-0.0572958	-1.2032118	0.7448454	-2.37204612	5.00765292	-5.84990118
5.15	515	0.089	-0.017	-0.984	0	-1.3750992	0.286479	-2.19442914	4.96754586	-5.82125328
5.16	516	0.086	-0.014	-0.988	0.2291832	-1.2605076	-0.0572958	-2.18869956	4.9560867	-5.82125328
5.17	517	0.082	-0.01	-0.991	0.4583664	-1.0313244	-0.286479	-2.18296998	4.94462754	-5.82698286
5.18	518	0.079	-0.004	-0.992	0.572958	-0.8021412	-0.5156622	-2.1772404	4.93889796	-5.83271244
5.19	519	0.076	0	-0.996	0.6302538	-0.4583664	-0.7448454	-2.17151082	4.93316838	-5.83844202
5.2	520	0.075	0.003	-0.998	0.8021412	-0.286479	-0.9167328	-2.1199446	4.85868384	-5.8441716
5.21	521	0.074	0.005	-0.996	1.0313244	-0.1145916	-0.9167328	-2.11421502	4.85868384	-5.84990118
5.22	522	0.074	0.004	-0.991	1.0313244	-0.0572958	-0.9740286	-2.10275586	4.85868384	-5.86136034
5.23	523	0.074	0.004	-0.984	0.8021412	0.0572958	-1.2032118	-2.09702628	4.85868384	-5.8728195
5.24	524	0.073	0.003	-0.983	0.8021412	0.2291832	-1.3178034	-2.08556712	4.85868384	-5.88427866
5.25	525	0.076	0.002	-0.984	0.7448454	0.6875496	-1.2032118	-2.04546006	4.83003594	-5.89573782
5.26	526	0.076	0.003	-0.986	0.6875496	0.9740286	-1.145916	-2.03973048	4.8414951	-5.90719698
5.27	527	0.08	0.004	-0.985	0.572958	1.0313244	-1.0313244	-2.0340009	4.85295426	-5.91865614
5.28	528	0.081	0.006	-0.984	0.572958	0.9740286	-0.9740286	-2.0340009	4.85868384	-5.9301153
5.29	529	0.081	0.006	-0.985	0.7448454	0.9167328	-0.8021412	-2.02254174	4.870143	-5.93584488
5.3	530	0.081	0.008	-0.986	0.7448454	0.8021412	-0.6875496	-1.99962342	4.84722468	-5.94157446
5.31	531	0.082	0.008	-0.985	0.7448454	0.859437	-0.5156622	-1.99389384	4.85295426	-5.94730404
5.32	532	0.083	0.012	-0.987	0.6875496	0.9167328	-0.4583664	-1.98816426	4.86441342	-5.95303362
5.33	533	0.085	0.013	-0.988	0.6875496	1.0313244	-0.4583664	-1.98243468	4.87587258	-5.9587632
5.34	534	0.087	0.014	-0.991	0.9167328	1.0886202	-0.3437748	-1.97097552	4.88733174	-5.9587632
5.35	535	0.092	0.014	-0.991	1.0313244	1.145916	-0.3437748	-1.96524594	4.89306132	-5.96449278
5.36	536	0.095	0.012	-0.99	1.2032118	1.0886202	-0.286479	-1.95378678	4.90452048	-5.97022236
5.37	537	0.099	0.008	-0.99	1.2032118	0.9740286	-0.2291832	-1.94232762	4.91597964	-5.97022236
5.38	538	0.102	0.006	-0.989	1.145916	0.8021412	-0.1145916	-1.93086846	4.92170922	-5.97022236
5.39	539	0.102	0.003	-0.988	1.0313244	0.8021412	0.0572958	-1.9194093	4.93316838	-5.97022236
5.4	540	0.102	0.001	-0.985	0.9740286	0.6302538	0.1145916	-1.8621135	4.97327544	-5.96449278
5.41	541	0.101	0	-0.985	0.8021412	0.572958	0.1718874	-1.85638392	4.97900502	-5.96449278
5.42	542	0.099	-0.001	-0.986	0.6875496	0.6302538	0.1718874	-1.85065434	4.9847346	-5.9587632
5.43	543	0.098	-0.002	-0.987	0.6875496	0.572958	0.2291832	-1.83919518	4.99046418	-5.9587632
5.44	544	0.097	-0.005	-0.986	0.6875496	0.5156622	0.2291832	-1.8334656	4.99619376	-5.95303362
5.45	545	0.096	-0.009	-0.986	0.8021412	0.4010706	0.286479	-1.73033316	5.0133825	-5.93584488
5.46	546	0.097	-0.01	-0.988	0.7448454	0.4583664	0.2291832	-1.72460358	5.01911208	-5.93584488
5.47	547	0.096	-0.01	-0.988	0.8021412	0.2291832	0.1145916	-1.71314442	5.01911208	-5.93584488
5.48	548	0.094	-0.009	-0.989	0.9167328	0.1145916	0.1145916	-1.70741484	5.01911208	-5.93584488
5.49	549	0.091	-0.009	-0.987	0.9167328	-0.0572958	0.0572958	-1.69595568	5.01911208	-5.9301153
5.5	550	0.089	-0.008	-0.987	0.7448454	0	0	-1.5756345	4.97900502	-5.91865614
5.51	551	0.088	-0.007	-0.986	0.6302538	0.0572958	0	-1.56417534	4.97900502	-5.91292656
5.52	552	0.088	-0.006	-0.985	0.6875496	0	0	-1.55844576	4.9847346	-5.91865614
5.53	553	0.087	-0.005	-0.986	0.6875496	0.0572958	0	-1.55271618	4.9847346	-5.91865614
5.54	554	0.086	-0.005	-0.985	0.7448454	0.0572958	-0.0572958	-1.54125702	4.9847346	-5.91865614
5.55	555	0.086	-0.004	-0.987	0.6302538	0.0572958	-0.1145916	-1.46677248	4.9274388	-5.90719698
5.56	556	0.086	-0.004	-0.989	0.6875496	0.0572958	-0.1145916	-1.4610429	4.93316838	-5.91292656
5.57	557	0.085	-0.002	-0.989	0.859437	-0.0572958	-0.2291832	-1.45531332	4.93316838	-5.91292656
5.58	558	0.086	-0.002	-0.988	0.9167328	0	-0.286479	-1.44385416	4.9274388	-5.91865614
5.59	559	0.085	-0.003	-0.985	0.7448454	0	-0.286479	-1.43812458	4.93316838	-5.91865614
5.6	560	0.087	-0.002	-0.984	0.6302538	0.1145916	-0.286479	-1.39801752	4.89306132	-5.91865614
5.61	561	0.088	0	-0.985	0.4010706	0.1718874	-0.2291832	-1.39801752	4.89306132	-5.92438572
5.62	562	0.09	0.002	-0.987	0.4010706	0.3437748	-0.0572958	-1.39228794	4.8987909	-5.92438572
5.63	563	0.092	0.003	-0.985	0.4010706	0.1718874	0.0572958	-1.38655836	4.8987909	-5.92438572
5.64	564	0.09	0.002	-0.98	0.2291832	0.0572958	0.0572958	-1.38655836	4.8987909	-5.92438572
5.65	565	0.089	0	-0.98	0.1145916	0.1718874	0	-1.35791046	4.870143	-5.91865614
5.66	566	0.088	-0.001	-0.981	0.1145916	0.4010706	-0.0572958	-1.35791046	4.87587258	-5.91865614
5.67	567	0.088	-0.003	-0.982	-0.4583664	0.2291832	-0.0572958	-1.36364004	4.87587258	-5.91865614
5.68	568	0.088	-0.004	-0.983	-0.4583664	0.1145916	-0.1145916	-1.36936962	4.87587258	-5.91865614
5.69	569	0.091	-0.005	-0.986	-0.6302538	0.0572958	-0.0572958	-1.3750992	4.87587258	-5.92438572
5.7	570	0.094	-0.004	-0.988	-0.859437	-0.1718874	0	-1.36364004	4.88733174	-5.91865614
5.71	571	0.098	-0.002	-0.99	-1.145916	-0.286479	0.1718874	-1.3750992	4.88160216	-5.91865614
5.72	572	0.098	-0.002	-0.992	-1.3178034	-0.1718874	0.3437748	-1.38655836	4.88160216	-5.91292656
5.73	573	0.094	-0.004	-0.993	-1.3750992	-0.3437748	0.4010706	-1.39801752	4.87587258	-5.90719698
5.74	574	0.089	-0.006	-0.992	-1.145916	-0.2291832	0.286479	-1.40947668	4.87587258	-5.90719698
5.75	575	0.086	-0.007	-0.989	-0.9167328	-0.1718874	0.1145916	-1.36364004	4.84722468	-5.89573782
5.76	576	0.085	-0.006	-0.983	-0.7448454	-0.1145916	0	-1.3750992	4.84722468	-5.89573782
5.77	577	0.086	-0.004	-0.981	-0.8021412	0	-0.1145916	-1.38082878	4.84722468	-5.89573782
5.78	578	0.089	-0.003	-0.981	-0.859437	-0.0572958	-0.286479	-1.39228794	4.8414951	-5.9014674
5.79	579	0.091	-0.002	-0.981	-0.859437	-0.2291832	-0.2291832	-1.4037471	4.8414951	-5.9014674
5.8	580	0.092	-0.003	-0.984	-0.8021412	-0.286479	-0.2291832	-1.38082878	4.8414951	-5.9014674
5.81	581	0.092	-0.004	-0.983	-0.8021412	-0.1145916	-0.2291832	-1.38655836	4.8414951	-5.90719698
5.82	582	0.091	-0.004	-0.983	-0.8021412	0	-0.1145916	-1.39801752	4.8414951	-5.90719698
5.83	583	0.09	-0.003	-0.984	-0.7448454	0	-0.0572958	-1.4037471	4.8414951	-5.90719698
5.84	584	0.091	-0.004	-0.984	-0.6875496	-0.0572958	-0.0572958	-1.41520626	4.8414951	-5.90719698
5.85	585	0.093	-0.003	-0.984	-0.859437	0	-0.0572958	-1.38082878	4.8414951	-5.90719698
5.86	586	0.093	-0.004	-0.984	-0.859437	-0.1145916	-0.0572958	-1.39228794	4.8414951	-5.90719698
5.87	587	0.093	-0.005	-0.986	-0.8021412	-0.1718874	-0.0572958	-1.4037471	4.8414951	-5.90719698
5.88	588	0.094	-0.005	-0.987	-0.859437	-0.286479	0	-1.40947668	4.83576552	-5.90719698
5.89	589	0.095	-0.005	-0.987	-0.9167328	-0.3437748	0.0572958	-1.42093584	4.83576552	-5.90719698
5.9	590	0.094	-0.006	-0.985	-1.0886202	-0.4010706	0.0572958	-1.39801752	4.83576552	-5.9014674
5.91	591	0.093	-0.006	-0.984	-1.3750992	-0.4583664	0.0572958	-1.41520626	4.83003594	-5.9014674
5.92	592	0.092	-0.005	-0.985	-1.3178034	-0.5156622	0.1145916	-1.42666542	4.82430636	-5.89573782
5.93	593	0.089	-0.002	-0.987	-0.7448454	-0.4010706	0.0572958	-1.43812458	4.81857678	-5.89573782
5.94	594	0.088	-0.003	-0.988	-0.2291832	-0.2291832	0	-1.43812458	4.81857678	-5.89573782
5.95	595	0.088	-0.003	-0.986	-0.1718874	-0.1145916	0	-1.36364004	4.79565846	-5.88427866
5.96	596	0.088	-0.004	-0.986	-0.0572958	-0.2291832	-0.0572958	-1.36364004	4.78992888	-5.89000824
5.97	597	0.088	-0.005	-0.986	-0.0572958	-0.2291832	-0.1145916	-1.36364004	4.78992888	-5.89000824
5.98	598	0.09	-0.004	-0.988	0	-0.0572958	-0.1145916	-1.36364004	4.78992888	-5.89000824
5.99	599	0.092	-0.004	-0.989	0	0	-0.1145916	-1.36364004	4.78992888	-5.89000824
6	600	0.093	-0.001	-0.988	0	-0.0572958	0	-1.25477802	4.8128472	-5.87854908
6.01	601	0.09	-0.002	-0.988	-0.0572958	0	0	-1.25477802	4.8128472	-5.87854908
6.02	602	0.09	-0.002	-0.987	-0.2291832	0	0	-1.25477802	4.8128472	-5.87854908
6.03	603	0.091	-0.002	-0.988	-0.286479	0	0.0572958	-1.2605076	4.8128472	-5.8728195
6.04	604	0.092	-0.002	-0.988	-0.1145916	0	0.0572958	-1.2605076	4.8128472	-5.8728195
6.05	605	0.092	-0.001	-0.987	-0.0572958	0	0.0572958	-1.23758928	4.81857678	-5.8728195
6.06	606	0.092	-0.002	-0.985	-0.1718874	-0.1718874	0.1145916	-1.24331886	4.81857678	-5.86708992
6.07	607	0.091	-0.003	-0.985	-0.2291832	-0.286479	0.1145916	-1.24331886	4.8128472	-5.86708992
6.08	608	0.09	-0.003	-0.987	-0.3437748	-0.2291832	0.0572958	-1.24904844	4.8128472	-5.86708992
6.09	609	0.089	-0.003	-0.987	-0.1718874	-0.286479	0	-1.24904844	4.80711762	-5.86708992
6.1	610	0.089	-0.003	-0.987	0	-0.2291832	0	-1.1745639	4.77274014	-5.85563076
6.11	611	0.091	-0.003	-0.988	0	-0.1718874	-0.0572958	-1.1745639	4.77274014	-5.86136034
6.12	612	0.091	-0.002	-0.989	0	-0.1145916	-0.1145916	-1.1745639	4.76701056	-5.86136034
6.13	613	0.092	-0.002	-0.989	0	-0.1145916	-0.0572958	-1.1745639	4.76701056	-5.86136034
6.14	614	0.092	-0.003	-0.989	0.1145916	0	-0.0572958	-1.1745639	4.76701056	-5.86136034
6.15	615	0.091	-0.003	-0.988	0.0572958	0	-0.1145916	-1.16310474	4.76701056	-5.86136034
6.16	616	0.091	-0.004	-0.987	0	0	-0.0572958	-1.16310474	4.76701056	-5.86136034
6.17	617	0.091	-0.003	-0.987	0	0.0572958	0	-1.16310474	4.77274014	-5.86136034
6.18	618	0.091	-0.003	-0.988	0	0.1145916	0	-1.16310474	4.77274014	-5.86136034
6.19	619	0.09	-0.003	-0.988	0	0	0	-1.16310474	4.77274014	-5.86136034
6.2	620	0.09	-0.003	-0.988	0	0	0	-1.13445684	4.77274014	-5.86136034
6.21	621	0.089	-0.003	-0.986	0	0	0	-1.13445684	4.77274014	-5.86136034
6.22	622	0.089	-0.004	-0.987	0	0	0	-1.13445684	4.77274014	-5.86136034
6.23	623	0.088	-0.004	-0.986	0	0	0	-1.13445684	4.77274014	-5.86136034
6.24	624	0.089	-0.003	-0.983	0	0	0	-1.13445684	4.77274014	-5.86136034
6.25	625	0.089	-0.003	-0.985	0.0572958	0.0572958	0.0572958	-1.12872726	4.76128098	-5.85563076
6.26	626	0.089	-0.003	-0.986	0	0.1718874	0.0572958	-1.12872726	4.76128098	-5.85563076
6.27	627	0.09	-0.002	-0.988	0.1145916	0.0572958	0.0572958	-1.12872726	4.76128098	-5.85563076
6.28	628	0.089	-0.002	-0.989	0.286479	0	0	-1.12299768	4.76701056	-5.85563076
6.29	629	0.089	-0.002	-0.989	0.3437748	0.1145916	0.0572958	-1.1172681	4.76701056	-5.85563076
6.3	630	0.091	-0.003	-0.989	0.286479	0.0572958	0	-1.1172681	4.76701056	-5.85563076
6.31	631	0.09	-0.002	-0.988	0.3437748	0.0572958	0	-1.11153852	4.76701056	-5.85563076
6.32	632	0.091	-0.004	-0.986	0.3437748	-0.0572958	0	-1.10580894	4.76701056	-5.85563076
6.33	633	0.091	-0.002	-0.986	0.2291832	0	-0.0572958	-1.10580894	4.76701056	-5.85563076
6.34	634	0.091	-0.004	-0.987	0.1145916	0	0	-1.10580894	4.76701056	-5.85563076
6.35	635	0.092	-0.004	-0.984	0	0	0	-1.0886202	4.77274014	-5.85563076
6.36	636	0.091	-0.004	-0.982	-0.1718874	-0.0572958	0	-1.09434978	4.77274014	-5.85563076
6.37	637	0.091	-0.002	-0.983	-0.2291832	0	0	-1.09434978	4.77274014	-5.85563076
6.38	638	0.091	-0.002	-0.986	-0.3437748	0.2291832	0.0572958	-1.10007936	4.77846972	-5.85563076
6.39	639	0.091	0	-0.988	-0.286479	0.2291832	0.1145916	-1.10007936	4.77846972	-5.84990118
6.4	640	0.091	0	-0.988	-0.1718874	0.1718874	0	-1.10580894	4.77846972	-5.85563076
6.41	641	0.091	-0.002	-0.989	-0.0572958	0.0572958	0.0572958	-1.10580894	4.77846972	-5.84990118
6.42	642	0.09	-0.004	-0.987	0	0	0.0572958	-1.10580894	4.77846972	-5.84990118
6.43	643	0.091	-0.005	-0.984	-0.0572958	0	0	-1.11153852	4.77846972	-5.84990118
6.44	644	0.092	-0.003	-0.985	-0.1718874	0	0	-1.11153852	4.77846972	-5.84990118
6.45	645	0.092	-0.001	-0.987	-0.2291832	0	0	-1.1172681	4.78992888	-5.84990118
6.46	646	0.092	0	-0.986	-0.286479	0	0.0572958	-1.12299768	4.78992888	-5.84990118
6.47	647	0.09	0	-0.983	-0.286479	0	0.1145916	-1.12299768	4.7841993	-5.84990118
6.48	648	0.087	-0.002	-0.981	-0.1718874	0	0.0572958	-1.12872726	4.7841993	-5.84990118
6.49	649	0.086	-0.003	-0.981	-0.3437748	0.2291832	0	-1.12872726	4.78992888	-5.84990118
6.5	650	0.086	-0.005	-0.984	-0.3437748	0.3437748	-0.1718874	-1.12299768	4.77846972	-5.84990118
6.51	651	0.087	-0.006	-0.983	-0.3437748	0.3437748	-0.1718874	-1.12872726	4.7841993	-5.84990118
6.52	652	0.088	-0.006	-0.984	-0.4010706	0.286479	-0.1145916	-1.12872726	4.7841993	-5.84990118
6.53	653	0.09	-0.005	-0.985	-0.5156622	0.1718874	-0.0572958	-1.13445684	4.78992888	-5.85563076
6.54	654	0.094	-0.002	-0.991	-0.6302538	0.1718874	0.0572958	-1.14018642	4.78992888	-5.84990118
6.55	655	0.097	-0.001	-0.994	-0.572958	0	0.2291832	-1.145916	4.80138804	-5.84990118
6.56	656	0.096	-0.001	-0.996	-0.572958	-0.1718874	0.286479	-1.15164558	4.80138804	-5.8441716
6.57	657	0.09	-0.002	-0.993	-0.286479	-0.2291832	0.2291832	-1.15737516	4.79565846	-5.8441716
6.58	658	0.088	-0.002	-0.991	-0.0572958	-0.286479	0.0572958	-1.15737516	4.79565846	-5.8441716
6.59	659	0.088	-0.001	-0.986	0	-0.1718874	0	-1.15737516	4.79565846	-5.8441716
6.6	660	0.087	0.001	-0.984	0	-0.1718874	-0.1718874	-1.1745639	4.76701056	-5.8441716
6.61	661	0.088	0.003	-0.982	0.1145916	-0.2291832	-0.2291832	-1.1745639	4.76128098	-5.84990118
6.62	662	0.09	0.004	-0.984	0.2291832	-0.2291832	-0.1718874	-1.16883432	4.76128098	-5.84990118
6.63	663	0.092	0.003	-0.985	0.2291832	-0.1718874	-0.3437748	-1.16883432	4.7555514	-5.85563076
6.64	664	0.094	0	-0.985	0.3437748	-0.1145916	-0.1718874	-1.16310474	4.7555514	-5.85563076
6.65	665	0.094	0	-0.985	0.4583664	-0.1145916	-0.0572958	-1.16310474	4.76701056	-5.86136034
6.66	666	0.094	0	-0.986	0.3437748	-0.1145916	0	-1.16310474	4.76128098	-5.85563076
6.67	667	0.093	0	-0.987	0.286479	-0.1718874	0.0572958	-1.15737516	4.76128098	-5.85563076
6.68	668	0.091	0	-0.988	0.286479	-0.2291832	0.0572958	-1.15164558	4.76128098	-5.85563076
6.69	669	0.091	0	-0.988	0.3437748	-0.1718874	0	-1.15164558	4.7555514	-5.85563076
6.7	670	0.09	-0.001	-0.988	0.4583664	-0.1145916	0	-1.14018642	4.74982182	-5.85563076
6.71	671	0.09	-0.003	-0.989	0.4583664	-0.1718874	0.1145916	-1.13445684	4.74982182	-5.85563076
6.72	672	0.09	-0.004	-0.99	0.3437748	-0.1718874	0.0572958	-1.13445684	4.74982182	-5.85563076
6.73	673	0.09	-0.005	-0.986	0.1145916	-0.1145916	0.1718874	-1.12872726	4.74982182	-5.84990118
6.74	674	0.09	-0.004	-0.983	0	-0.1718874	0.1718874	-1.12872726	4.74409224	-5.84990118
6.75	675	0.09	-0.003	-0.985	-0.1145916	-0.1718874	0.1145916	-1.12299768	4.74409224	-5.84990118
6.76	676	0.087	-0.001	-0.986	-0.1145916	-0.1145916	0.2291832	-1.12299768	4.74409224	-5.8441716
6.77	677	0.087	0	-0.987	-0.1145916	-0.1145916	0.0572958	-1.12872726	4.73836266	-5.8441716
6.78	678	0.087	0	-0.987	0.0572958	-0.0572958	0	-1.12299768	4.73836266	-5.8441716
6.79	679	0.087	-0.001	-0.986	0.1718874	-0.0572958	0	-1.12299768	4.73836266	-5.8441716
6.8	680	0.087	0	-0.987	0.1718874	-0.0572958	-0.1145916	-1.12872726	4.7269035	-5.8441716
6.81	681	0.089	-0.001	-0.987	0.2291832	0.0572958	-0.1718874	-1.12872726	4.7269035	-5.84990118
6.82	682	0.09	-0.001	-0.988	0.286479	0.0572958	-0.1718874	-1.12299768	4.7269035	-5.84990118
6.83	683	0.09	0	-0.989	0.286479	0.1718874	-0.1145916	-1.12299768	4.7269035	-5.84990118
6.84	684	0.091	0	-0.988	0.286479	0.0572958	-0.0572958	-1.1172681	4.73263308	-5.85563076
6.85	685	0.091	-0.001	-0.987	0.1718874	0	0	-1.12299768	4.74982182	-5.85563076
6.86	686	0.091	-0.001	-0.988	0	0.0572958	0	-1.12299768	4.74982182	-5.85563076
