TimeStamp(s)	FrameCounter	AccX	AccY	AccZ	GyrX	GyrY	GyrZ	EulerX	EulerY	EulerZ
0.01	1	0.028	-0.987	0.225	-0.859437	-0.2291832	0.1145916	101.7917183	1.8334656	-18.77583366
0.02	2	0.025	-0.987	0.225	-1.8334656	0.0572958	0.2291832	101.7745295	1.8334656	-18.77583366
0.03	3	0.023	-0.985	0.223	-2.1772404	0	0.1718874	101.7516112	1.82773602	-18.77583366
0.04	4	0.021	-0.984	0.222	-2.291832	0	0.1145916	101.7286929	1.82773602	-18.77583366
0.05	5	0.022	-0.984	0.222	-2.1772404	-0.2291832	0.1145916	101.700045	1.82200644	-18.77583366
0.06	6	0.024	-0.983	0.222	-2.005353	-0.3437748	0.1145916	101.6828563	1.82200644	-18.78156324
0.07	7	0.026	-0.982	0.221	-1.8907614	-0.286479	0.2291832	101.6599379	1.81627686	-18.78156324
0.08	8	0.025	-0.982	0.222	-1.718874	-0.2291832	0.2291832	101.6427492	1.81627686	-18.78729282
0.09	9	0.026	-0.984	0.225	-1.6042824	-0.1718874	0.286479	101.6255605	1.81627686	-18.78729282
0.1	10	0.024	-0.985	0.225	-1.5469866	-0.286479	0.2291832	101.6141013	1.81054728	-18.7930224
0.11	11	0.024	-0.987	0.227	-1.6615782	-0.3437748	0.1718874	101.5969126	1.8048177	-18.7930224
0.12	12	0.023	-0.987	0.226	-1.6615782	-0.1718874	0.1145916	101.5797238	1.8048177	-18.79875198
0.13	13	0.022	-0.986	0.224	-1.6042824	0	0.0572958	101.5625351	1.8048177	-18.79875198
0.14	14	0.022	-0.985	0.223	-1.4896908	0.2291832	0.1145916	101.5510759	1.8048177	-18.7930224
0.15	15	0.019	-0.982	0.222	-1.3750992	0.286479	0.1145916	101.5396168	1.78762896	-18.78729282
0.16	16	0.019	-0.981	0.222	-1.2032118	0.4010706	0.2291832	101.522428	1.78189938	-18.78156324
0.17	17	0.02	-0.982	0.22	-1.2032118	0.5156622	0.286479	101.5109689	1.78189938	-18.78156324
0.18	18	0.02	-0.983	0.219	-1.2032118	0.7448454	0.286479	101.4995097	1.7761698	-18.77583366
0.19	19	0.022	-0.984	0.22	-1.2605076	0.859437	0.286479	101.4880505	1.77044022	-18.7643745
0.2	20	0.025	-0.985	0.22	-1.2605076	0.9167328	0.4010706	101.4765914	1.76471064	-18.75864492
0.21	21	0.026	-0.985	0.218	-1.145916	0.6875496	0.3437748	101.4651322	1.75898106	-18.75291534
0.22	22	0.027	-0.984	0.218	-1.145916	0.4010706	0.4010706	101.4536731	1.75325148	-18.74718576
0.23	23	0.027	-0.985	0.218	-1.145916	0.1718874	0.3437748	101.4364843	1.7475219	-18.74718576
0.24	24	0.025	-0.986	0.219	-1.0886202	0.286479	0.4583664	101.4250252	1.74179232	-18.74718576
0.25	25	0.021	-0.986	0.219	-0.859437	0.3437748	0.4583664	101.4192956	1.73033316	-18.7357266
0.26	26	0.019	-0.985	0.217	-0.7448454	0.4010706	0.5156622	101.4078364	1.718874	-18.7357266
0.27	27	0.02	-0.984	0.218	-0.572958	0.4010706	0.5156622	101.4021068	1.71314442	-18.72999702
0.28	28	0.02	-0.982	0.22	-0.286479	0.3437748	0.5156622	101.4021068	1.70741484	-18.72999702
0.29	29	0.022	-0.981	0.221	-0.1145916	0.4010706	0.4010706	101.3963773	1.70168526	-18.72999702
0.3	30	0.022	-0.982	0.22	-0.1145916	0.5156622	0.3437748	101.4021068	1.6902261	-18.71853786
0.31	31	0.023	-0.984	0.218	-0.1718874	0.572958	0.4583664	101.3963773	1.68449652	-18.71280828
0.32	32	0.024	-0.986	0.217	-0.1145916	0.286479	0.4583664	101.3963773	1.67876694	-18.71280828
0.33	33	0.023	-0.988	0.218	-0.1145916	0.1145916	0.572958	101.3963773	1.67303736	-18.71280828
0.34	34	0.023	-0.988	0.218	-0.0572958	-0.0572958	0.572958	101.3963773	1.66730778	-18.71280828
0.35	35	0.022	-0.989	0.219	-0.1145916	-0.1718874	0.4010706	101.3906477	1.65584862	-18.71280828
0.36	36	0.021	-0.987	0.219	-0.0572958	-0.1145916	0.3437748	101.3906477	1.65011904	-18.71853786
0.37	37	0.02	-0.987	0.219	-0.0572958	0	0.286479	101.3849181	1.65011904	-18.71853786
0.38	38	0.02	-0.987	0.219	0	0.0572958	0.1145916	101.3849181	1.64438946	-18.71853786
0.39	39	0.02	-0.985	0.218	-0.0572958	0.1718874	0.1145916	101.3849181	1.64438946	-18.71280828
0.4	40	0.02	-0.985	0.218	0.1718874	0.0572958	0.1145916	101.3849181	1.62720072	-18.7070787
0.41	41	0.022	-0.984	0.219	0.286479	0.1145916	0.1718874	101.3849181	1.62720072	-18.7070787
0.42	42	0.024	-0.984	0.217	0.5156622	0.1145916	0.2291832	101.3906477	1.62147114	-18.7070787
0.43	43	0.024	-0.984	0.217	0.4583664	0.1718874	0.2291832	101.3963773	1.62147114	-18.7070787
0.44	44	0.025	-0.986	0.216	0.5156622	0.2291832	0.2291832	101.4021068	1.61574156	-18.70134912
0.45	45	0.024	-0.986	0.214	0.572958	0.2291832	0.2291832	101.3906477	1.61574156	-18.70134912
0.46	46	0.023	-0.987	0.214	0.6302538	0.1718874	0.1718874	101.3963773	1.61574156	-18.70134912
0.47	47	0.022	-0.988	0.217	0.8021412	0.0572958	0.0572958	101.4078364	1.61574156	-18.70134912
0.48	48	0.021	-0.987	0.219	0.9740286	0	0.2291832	101.413566	1.61001198	-18.70134912
0.49	49	0.021	-0.987	0.22	0.9167328	0.0572958	0.1718874	101.4250252	1.61001198	-18.70134912
0.5	50	0.02	-0.987	0.219	0.9167328	0.1145916	0.286479	101.4307547	1.6042824	-18.69561954
0.51	51	0.02	-0.987	0.218	0.859437	0.2291832	0.1718874	101.4422139	1.59855282	-18.69561954
0.52	52	0.021	-0.988	0.216	0.8021412	0.3437748	0.1718874	101.4479435	1.59855282	-18.68988996
0.53	53	0.022	-0.988	0.216	0.7448454	0.4583664	0.1145916	101.4594026	1.59282324	-18.68988996
0.54	54	0.024	-0.988	0.216	0.7448454	0.5156622	0.1145916	101.4651322	1.59282324	-18.68416038
0.55	55	0.023	-0.989	0.215	0.7448454	0.4010706	0.1145916	101.4536731	1.59282324	-18.6784308
0.56	56	0.026	-0.988	0.214	0.8021412	0.0572958	0.0572958	101.4594026	1.59282324	-18.6784308
0.57	57	0.024	-0.988	0.215	0.859437	-0.2291832	0.1145916	101.4708618	1.59282324	-18.68416038
0.58	58	0.023	-0.987	0.214	0.9167328	-0.3437748	0.0572958	101.4765914	1.59282324	-18.68416038
0.59	59	0.019	-0.987	0.214	0.9167328	-0.286479	0	101.4880505	1.59282324	-18.68988996
0.6	60	0.018	-0.987	0.214	1.0886202	-0.286479	0	101.4880505	1.58709366	-18.68988996
0.61	61	0.017	-0.986	0.215	1.0886202	-0.0572958	-0.1145916	101.4995097	1.58709366	-18.68988996
0.62	62	0.019	-0.986	0.213	0.9740286	0	-0.1718874	101.5052393	1.58709366	-18.68988996
0.63	63	0.022	-0.985	0.214	0.9740286	0.0572958	-0.1718874	101.5166984	1.58709366	-18.68988996
0.64	64	0.023	-0.986	0.215	0.8021412	0.1145916	-0.0572958	101.5281576	1.59282324	-18.68988996
0.65	65	0.023	-0.989	0.214	0.572958	0.2291832	0	101.4995097	1.59855282	-18.68988996
0.66	66	0.024	-0.991	0.212	0.5156622	0.0572958	-0.1145916	101.5052393	1.59855282	-18.68416038
0.67	67	0.022	-0.994	0.213	0.5156622	0	-0.1145916	101.5109689	1.59855282	-18.68988996
0.68	68	0.021	-0.995	0.215	0.5156622	0.0572958	-0.2291832	101.5166984	1.6042824	-18.68416038
0.69	69	0.018	-0.997	0.217	0.2291832	0.4583664	-0.1145916	101.5166984	1.6042824	-18.6784308
0.7	70	0.017	-0.994	0.219	0	0.572958	0	101.4995097	1.5756345	-18.66697164
0.71	71	0.018	-0.989	0.218	-0.2291832	0.4010706	-0.1145916	101.4995097	1.5756345	-18.66124206
0.72	72	0.022	-0.986	0.218	-0.286479	0.1145916	0	101.4937801	1.5756345	-18.66124206
0.73	73	0.026	-0.985	0.217	-0.4010706	0	0	101.4880505	1.5756345	-18.66124206
0.74	74	0.027	-0.985	0.214	-1.2032118	-0.1145916	-0.0572958	101.4765914	1.5756345	-18.66124206
0.75	75	0.028	-0.986	0.215	-1.0886202	-0.1718874	0	101.4536731	1.59282324	-18.66697164
0.76	76	0.026	-0.987	0.213	-1.2032118	-0.1718874	-0.1145916	101.4422139	1.59282324	-18.67270122
0.77	77	0.025	-0.987	0.212	-1.2605076	-0.2291832	-0.1718874	101.4250252	1.59855282	-18.67270122
0.78	78	0.022	-0.986	0.213	-1.0313244	-0.4583664	-0.1145916	101.413566	1.59855282	-18.6784308
0.79	79	0.021	-0.987	0.213	-0.6875496	-0.6875496	-0.1718874	101.4078364	1.6042824	-18.68416038
0.8	80	0.021	-0.989	0.213	-0.6875496	-0.6302538	-0.2291832	101.3849181	1.6042824	-18.68988996
0.81	81	0.021	-0.987	0.212	-0.7448454	-0.6875496	-0.3437748	101.3791885	1.61001198	-18.69561954
0.82	82	0.021	-0.988	0.212	-0.7448454	-0.6875496	-0.3437748	101.3734589	1.61574156	-18.70134912
0.83	83	0.021	-0.989	0.21	-0.6875496	-0.6875496	-0.286479	101.3619998	1.62147114	-18.7070787
0.84	84	0.021	-0.988	0.211	-0.7448454	-0.7448454	-0.3437748	101.3562702	1.62720072	-18.71280828
0.85	85	0.022	-0.988	0.211	-0.9167328	-0.6302538	-0.3437748	101.3333519	1.6329303	-18.72426744
0.86	86	0.021	-0.988	0.211	-0.9740286	-0.5156622	-0.2291832	101.3218927	1.6329303	-18.72426744
0.87	87	0.021	-0.987	0.211	-1.0313244	-0.4583664	-0.286479	101.3104336	1.63865988	-18.72999702
0.88	88	0.021	-0.988	0.213	-1.0313244	-0.2291832	-0.1718874	101.2989744	1.64438946	-18.7357266
0.89	89	0.021	-0.988	0.213	-1.0313244	-0.1718874	-0.286479	101.2932448	1.64438946	-18.7357266
0.9	90	0.019	-0.988	0.212	-1.0313244	-0.1718874	-0.286479	101.2703265	1.63865988	-18.7357266
0.91	91	0.018	-0.988	0.212	-1.0313244	-0.0572958	-0.286479	101.2588673	1.64438946	-18.7357266
0.92	92	0.019	-0.991	0.213	-1.145916	0.2291832	-0.286479	101.2474082	1.64438946	-18.72999702
0.93	93	0.019	-0.992	0.214	-1.3178034	0.3437748	-0.286479	101.235949	1.65011904	-18.72426744
0.94	94	0.021	-0.992	0.213	-1.5469866	0.1145916	-0.2291832	101.2187603	1.65011904	-18.72426744
0.95	95	0.022	-0.992	0.212	-1.7761698	-0.1145916	-0.2291832	101.195842	1.65011904	-18.72426744
0.96	96	0.024	-0.991	0.211	-1.8334656	-0.4010706	-0.1145916	101.1786532	1.65584862	-18.72999702
0.97	97	0.025	-0.991	0.211	-1.9480572	-0.4583664	-0.1145916	101.1557349	1.65584862	-18.7357266
0.98	98	0.024	-0.991	0.21	-1.9480572	-0.3437748	-0.1718874	101.1385462	1.6615782	-18.7357266
0.99	99	0.022	-0.99	0.21	-2.0626488	-0.1145916	-0.2291832	101.1156278	1.6615782	-18.74145618
1	100	0.02	-0.988	0.21	-1.9480572	-0.1145916	-0.2291832	101.0927095	1.6615782	-18.74145618
1.01	101	0.02	-0.987	0.212	-1.8907614	-0.1145916	-0.2291832	101.0755208	1.6615782	-18.74145618
1.02	102	0.02	-0.986	0.213	-1.6615782	-0.1718874	-0.1718874	101.058332	1.66730778	-18.74145618
1.03	103	0.021	-0.986	0.213	-1.6615782	-0.2291832	-0.1718874	101.0411433	1.66730778	-18.74718576
1.04	104	0.023	-0.988	0.215	-1.6615782	-0.1718874	-0.0572958	101.0239546	1.67303736	-18.74718576
1.05	105	0.023	-0.989	0.214	-1.6615782	-0.4010706	0	101.0067658	1.67303736	-18.75291534
1.06	106	0.024	-0.992	0.212	-1.9480572	-0.4010706	0	100.9838475	1.67303736	-18.75291534
1.07	107	0.022	-0.992	0.209	-2.0626488	-0.4010706	0	100.9666588	1.67303736	-18.75864492
1.08	108	0.021	-0.991	0.209	-2.1772404	-0.4010706	0	100.9437404	1.67303736	-18.7643745
1.09	109	0.021	-0.989	0.209	-2.2345362	-0.1718874	-0.0572958	100.9208221	1.67303736	-18.7643745
1.1	110	0.021	-0.988	0.208	-2.2345362	0.0572958	-0.1145916	100.8921742	1.67303736	-18.7643745
1.11	111	0.021	-0.987	0.209	-2.1199446	0.286479	-0.1718874	100.8692559	1.67303736	-18.75864492
1.12	112	0.022	-0.988	0.207	-2.0626488	0.3437748	-0.1145916	100.8520672	1.67303736	-18.75864492
1.13	113	0.023	-0.987	0.207	-2.005353	0.2291832	-0.1718874	100.8291488	1.67876694	-18.75291534
1.14	114	0.026	-0.987	0.208	-1.8334656	0	-0.0572958	100.8119601	1.67876694	-18.75291534
1.15	115	0.025	-0.988	0.21	-1.6615782	-0.2291832	0	100.7947714	1.68449652	-18.75864492
1.16	116	0.027	-0.987	0.209	-1.7761698	-0.4010706	0	100.7775826	1.68449652	-18.7643745
1.17	117	0.026	-0.987	0.209	-1.8907614	-0.4010706	0	100.7603939	1.68449652	-18.77010408
1.18	118	0.026	-0.987	0.208	-1.9480572	-0.3437748	0	100.7374756	1.68449652	-18.77010408
1.19	119	0.023	-0.988	0.206	-1.8907614	-0.4010706	-0.0572958	100.7202868	1.68449652	-18.77583366
1.2	120	0.022	-0.989	0.204	-1.8907614	-0.4010706	-0.1718874	100.6916389	1.68449652	-18.77583366
1.21	121	0.022	-0.99	0.202	-1.9480572	-0.3437748	-0.1718874	100.6744502	1.6902261	-18.78156324
1.22	122	0.023	-0.988	0.201	-1.8334656	-0.286479	-0.1718874	100.6572614	1.6902261	-18.78729282
1.23	123	0.024	-0.988	0.202	-1.6042824	-0.2291832	-0.1145916	100.6400727	1.69595568	-18.78729282
1.24	124	0.023	-0.988	0.204	-1.432395	-0.1718874	-0.0572958	100.622884	1.69595568	-18.78729282
1.25	125	0.022	-0.988	0.204	-1.3750992	-0.0572958	0	100.6056952	1.69595568	-18.7930224
1.26	126	0.023	-0.989	0.202	0	0.0572958	0	100.6056952	1.69595568	-18.78729282
1.27	127	0.024	-0.99	0.202	0.4010706	0.1718874	0.0572958	100.6114248	1.69595568	-18.78729282
1.28	128	0.024	-0.992	0.202	0.6875496	0.0572958	0.0572958	100.6171544	1.69595568	-18.78729282
1.29	129	0.026	-0.995	0.201	0.572958	0.1718874	0.1718874	100.622884	1.6902261	-18.78729282
1.3	130	0.026	-0.996	0.2	0.4583664	0.0572958	0.1718874	100.5942361	1.70168526	-18.78729282
1.31	131	0.026	-0.995	0.197	0.1718874	0	0.1718874	100.5942361	1.69595568	-18.78729282
1.32	132	0.025	-0.994	0.194	-0.2291832	0.0572958	0.0572958	100.5942361	1.69595568	-18.78729282
1.33	133	0.021	-0.994	0.188	-0.6302538	0.1145916	0	100.5885065	1.69595568	-18.78729282
1.34	134	0.02	-0.992	0.185	-0.9167328	0.4010706	-0.0572958	100.5770473	1.69595568	-18.78156324
1.35	135	0.016	-0.989	0.184	-0.859437	0.5156622	-0.0572958	100.5254811	1.67876694	-18.77583366
1.36	136	0.016	-0.988	0.184	-0.8021412	0.9167328	-0.1145916	100.5197515	1.67876694	-18.7643745
1.37	137	0.016	-0.988	0.185	-0.6875496	1.2032118	-0.1145916	100.5140219	1.67876694	-18.75291534
1.38	138	0.018	-0.988	0.186	-0.5156622	1.3178034	-0.1718874	100.5082924	1.67876694	-18.74145618
1.39	139	0.021	-0.989	0.188	-0.3437748	1.6042824	-0.3437748	100.5025628	1.67876694	-18.72426744
1.4	140	0.022	-0.992	0.188	-0.4010706	1.718874	-0.286479	100.4796445	1.67303736	-18.7070787
1.41	141	0.019	-0.995	0.191	-0.6302538	1.7761698	-0.4583664	100.4739149	1.67303736	-18.68988996
1.42	142	0.017	-0.998	0.192	-0.9167328	2.005353	-0.572958	100.4624557	1.67303736	-18.66697164
1.43	143	0.016	-1	0.197	-1.3178034	2.2345362	-0.572958	100.4509966	1.67876694	-18.64405332
1.44	144	0.017	-1.001	0.195	-2.1199446	2.578311	-0.6875496	100.4280782	1.67876694	-18.61540542
1.45	145	0.018	-0.998	0.193	-2.578311	2.86479	-0.572958	100.3937008	1.67303736	-18.58675752
1.46	146	0.019	-0.998	0.193	-2.578311	2.8074942	-0.572958	100.3707824	1.67303736	-18.55810962
1.47	147	0.019	-1	0.193	-2.7501984	2.86479	-0.4583664	100.3421345	1.67303736	-18.52946172
1.48	148	0.021	-1.003	0.191	-2.7501984	2.6929026	-0.4010706	100.3134866	1.67303736	-18.5065434
1.49	149	0.021	-1.007	0.188	-2.9220858	2.6356068	-0.3437748	100.2848387	1.67303736	-18.4778955
1.5	150	0.022	-1.008	0.189	-3.151269	2.8074942	-0.3437748	100.2447317	1.66730778	-18.4492476
1.51	151	0.021	-1.008	0.19	-3.4950438	2.9793816	-0.3437748	100.2103542	1.66730778	-18.4205997
1.52	152	0.022	-1.005	0.189	-4.0680018	3.0939732	-0.286479	100.1702471	1.6615782	-18.3919518
1.53	153	0.022	-1.001	0.183	-4.4690724	2.7501984	-0.2291832	100.1244105	1.6615782	-18.3633039
1.54	154	0.026	-0.998	0.178	-4.870143	2.3491278	-0.2291832	100.0785739	1.65584862	-18.34038558
1.55	155	0.028	-0.997	0.173	-5.156622	2.1199446	-0.286479	100.0155485	1.65584862	-18.32319684
1.56	156	0.031	-0.999	0.169	-5.443101	1.9480572	-0.286479	99.95825268	1.65584862	-18.30027852
1.57	157	0.03	-1.001	0.165	-5.8441716	1.9480572	-0.2291832	99.90095688	1.65584862	-18.28308978
1.58	158	0.028	-1.002	0.164	-6.302538	1.9480572	-0.0572958	99.83220192	1.65011904	-18.26590104
1.59	159	0.025	-1.002	0.162	-6.9900876	1.6615782	0	99.76344696	1.65011904	-18.2487123
1.6	160	0.022	-1.002	0.158	-7.7922288	1.5469866	0	99.67177368	1.64438946	-18.23725314
1.61	161	0.018	-1.004	0.155	-8.6516658	1.5469866	-0.0572958	99.58582998	1.63865988	-18.2200644
1.62	162	0.013	-1.007	0.15	-9.453807	1.8907614	-0.1145916	99.48842712	1.63865988	-18.20287566
1.63	163	0.012	-1.005	0.146	-10.313244	2.3491278	-0.1718874	99.38529468	1.6329303	-18.17995734
1.64	164	0.01	-1.007	0.141	-11.2299768	2.9220858	-0.286479	99.27070308	1.6329303	-18.15703902
1.65	165	0.012	-1.007	0.139	-11.8602306	3.437748	-0.4010706	99.13892274	1.62720072	-18.12266154
1.66	166	0.014	-1.008	0.138	-12.5477802	4.010706	-0.572958	99.01287198	1.62147114	-18.08255448
1.67	167	0.018	-1.009	0.137	-13.5218088	4.6409598	-0.6875496	98.87536206	1.62147114	-18.03671784
1.68	168	0.015	-1.012	0.132	-14.2666542	5.156622	-0.9167328	98.73212256	1.62147114	-17.9908812
1.69	169	0.017	-1.012	0.128	-14.9542038	5.6149884	-0.859437	98.58315348	1.62147114	-17.9335854
1.7	170	0.016	-1.014	0.124	-15.5271618	5.8441716	-0.9740286	98.41699566	1.61574156	-17.8762896
1.71	171	0.017	-1.015	0.119	-16.2147114	6.0733548	-0.9740286	98.25083784	1.61574156	-17.8189938
1.72	172	0.019	-1.018	0.111	-17.0741484	6.4744254	-1.0886202	98.07895044	1.61574156	-17.75596842
1.73	173	0.02	-1.018	0.103	-17.7044022	6.875496	-1.145916	97.90133346	1.61001198	-17.68721346
1.74	174	0.022	-1.022	0.096	-18.2200644	7.2192708	-1.3178034	97.7179869	1.61574156	-17.6184585
1.75	175	0.024	-1.027	0.088	-19.0795014	7.5630456	-1.5469866	97.5174516	1.61574156	-17.54397396
1.76	176	0.027	-1.03	0.081	-20.5691922	7.9068204	-1.718874	97.30545714	1.62147114	-17.46948942
1.77	177	0.027	-1.029	0.077	-21.6578124	7.734933	-1.7761698	97.0877331	1.62147114	-17.3892753
1.78	178	0.03	-1.029	0.074	-22.91832	7.6203414	-1.7761698	96.8585499	1.62720072	-17.31479076
1.79	179	0.03	-1.029	0.067	-24.350715	7.7922288	-1.718874	96.60644838	1.6329303	-17.24030622
1.8	180	0.029	-1.03	0.062	-25.9549974	7.8495246	-1.8907614	96.33715812	1.63865988	-17.16582168
1.81	181	0.027	-1.033	0.061	-27.1009134	8.1932994	-1.7761698	96.06786786	1.64438946	-17.08560756
1.82	182	0.029	-1.037	0.058	-28.5333084	8.3651868	-2.005353	95.77565928	1.65011904	-17.00539344
1.83	183	0.03	-1.045	0.047	-30.3094782	8.307891	-2.0626488	95.47199154	1.6615782	-16.92517932
1.84	184	0.029	-1.045	0.042	-32.4867186	7.5630456	-2.1199446	95.1396759	1.67303736	-16.85069478
1.85	185	0.031	-1.048	0.055	-34.0337052	7.734933	-1.8907614	94.79017152	1.67876694	-16.78193982
1.86	186	0.033	-1.051	0.054	-36.3255372	8.7662574	-1.4896908	94.4234784	1.68449652	-16.69599612
1.87	187	0.038	-1.054	0.045	-39.0184398	9.740286	-1.145916	94.02813738	1.67876694	-16.60432284
1.88	188	0.039	-1.053	0.036	-40.966497	9.7975818	-0.6302538	93.61560762	1.67303736	-16.51264956
1.89	189	0.04	-1.052	0.027	-42.2270046	9.3392154	-0.2291832	93.18588912	1.66730778	-16.42670586
1.9	190	0.039	-1.053	0.016	-43.7739912	9.167328	-0.1718874	92.73898188	1.6615782	-16.34076216
1.91	191	0.04	-1.051	0.01	-45.7793442	9.2819196	-0.1145916	92.2748859	1.65011904	-16.25481846
1.92	192	0.04	-1.05	0.002	-48.5868384	8.8235532	-0.0572958	91.7878716	1.64438946	-16.16887476
1.93	193	0.039	-1.052	-0.008	-50.7640788	8.307891	-0.1718874	91.2722094	1.6329303	-16.09439022
1.94	194	0.038	-1.044	-0.005	-52.5975444	7.5057498	-0.3437748	90.73935846	1.6329303	-16.02563526
1.95	195	0.039	-1.039	-0.008	-53.6861646	6.4171296	-0.286479	90.18931878	1.62720072	-15.96833946
1.96	196	0.042	-1.039	-0.026	-56.0925882	6.0733548	0.0572958	89.62209036	1.62147114	-15.91677324
1.97	197	0.047	-1.043	-0.036	-58.9000824	5.443101	0.5156622	89.02621404	1.61001198	-15.86520702
1.98	198	0.051	-1.045	-0.042	-61.9940556	4.4117766	1.2032118	88.39596024	1.59282324	-15.83082954
1.99	199	0.055	-1.037	-0.06	-64.744254	3.437748	1.6615782	87.73705854	1.56990492	-15.80218164
2	200	0.059	-1.029	-0.09	-67.036086	2.8074942	2.005353	87.05523852	1.5469866	-15.7849929
2.01	201	0.061	-1.017	-0.113	-69.2706222	1.9480572	2.1772404	86.35050018	1.52406828	-15.76780416
2.02	202	0.063	-1.005	-0.13	-71.333271	1.0313244	2.0626488	85.6285731	1.49542038	-15.76780416
2.03	203	0.066	-0.994	-0.128	-73.7396946	0.1145916	1.8907614	84.87799812	1.46677248	-15.76780416
2.04	204	0.06	-0.984	-0.116	-76.203414	-0.6302538	1.8334656	84.10450482	1.44385416	-15.7849929
2.05	205	0.056	-0.97	-0.126	-79.0109082	-2.1199446	1.8334656	83.30236362	1.41520626	-15.8136408
2.06	206	0.053	-0.95	-0.16	-81.3027402	-4.010706	1.5469866	82.4773041	1.39228794	-15.85947744
2.07	207	0.05	-0.938	-0.174	-82.505952	-6.0733548	1.145916	81.63505584	1.36364004	-15.92250282
2.08	208	0.048	-0.932	-0.176	-84.224826	-8.7662574	1.0886202	80.78134842	1.33499214	-16.01990568
2.09	209	0.048	-0.922	-0.203	-85.3134462	-10.7716104	1.3178034	79.91618184	1.30061466	-16.1287677
2.1	210	0.05	-0.911	-0.221	-85.5426294	-12.1467096	1.4896908	79.0395561	1.25477802	-16.25481846
2.11	211	0.045	-0.902	-0.217	-86.0009958	-13.3499214	1.6042824	78.16865994	1.20894138	-16.39232838
2.12	212	0.049	-0.891	-0.211	-86.4020664	-14.2093584	1.4896908	77.2920342	1.15737516	-16.53556788
2.13	213	0.046	-0.889	-0.223	-86.803137	-15.3552744	1.3750992	76.40967888	1.10580894	-16.68453696
2.14	214	0.048	-0.888	-0.22	-86.803137	-15.6417534	1.0313244	75.52732356	1.05424272	-16.8449652
2.15	215	0.048	-0.895	-0.23	-85.4280378	-15.756345	0.5156622	74.6564274	1.0026765	-16.99966386
2.16	216	0.04	-0.909	-0.25	-84.5686008	-17.0741484	0.4010706	73.7969904	0.95111028	-17.17155126
2.17	217	0.032	-0.904	-0.272	-84.2821218	-18.8503182	0.0572958	72.94328298	0.89381448	-17.3606274
2.18	218	0.014	-0.905	-0.293	-83.651868	-20.7983754	-0.2291832	72.09530514	0.8307891	-17.56689228
2.19	219	0	-0.902	-0.303	-82.4486562	-21.9442914	-0.6875496	71.25878646	0.76203414	-17.78461632
2.2	220	0	-0.912	-0.273	-81.932994	-22.4599536	-0.9167328	70.42799736	0.69327918	-18.00234036
2.21	221	0.023	-0.907	-0.232	-84.3967134	-20.912967	-1.3178034	69.56856036	0.63598338	-18.21433482
2.22	222	0.051	-0.902	-0.258	-86.4020664	-19.194093	-1.9480572	68.69193462	0.57868758	-18.40341096
2.23	223	0.057	-0.909	-0.293	-86.5739538	-18.4492476	-1.7761698	67.81530888	0.52139178	-18.58675752
2.24	224	0.042	-0.921	-0.322	-85.3134462	-18.3919518	-0.859437	66.9501423	0.45263682	-18.77010408
2.25	225	0.019	-0.939	-0.352	-83.651868	-19.3086846	0.286479	66.10216446	0.3724227	-18.95345064
2.26	226	-0.011	-0.941	-0.382	-82.7351352	-19.3086846	1.432395	65.26564578	0.27501984	-19.12533804
2.27	227	-0.034	-0.94	-0.352	-81.5892192	-17.761698	1.8334656	64.44058626	0.17761698	-19.28576628
2.28	228	-0.037	-0.91	-0.287	-79.5838662	-16.9595568	1.3178034	63.63271548	0.0859437	-19.44046494
2.29	229	-0.018	-0.884	-0.275	-76.489893	-20.3973048	0.572958	62.85922218	-0.01145916	-19.6238115
2.3	230	0.018	-0.877	-0.332	-76.0315266	-19.4232762	-0.8021412	62.09145846	-0.09167328	-19.80715806
2.31	231	0.048	-0.878	-0.403	-76.6044846	-16.5584862	-3.151269	61.31796516	-0.14896908	-19.97331588
2.32	232	0.074	-0.899	-0.481	-74.771019	-14.7250206	-4.0680018	60.5616606	-0.18907614	-20.12801454
2.33	233	0.077	-0.919	-0.537	-71.61975	-15.5271618	-3.6096354	59.83973352	-0.24064236	-20.2827132
2.34	234	0.04	-0.911	-0.534	-67.8382272	-18.1627686	-2.4064236	59.15218392	-0.3151269	-20.4546006
2.35	235	-0.033	-0.888	-0.541	-64.2285918	-20.2827132	-0.9740286	58.50474138	-0.41825934	-20.63794716
2.36	236	-0.111	-0.87	-0.462	-59.9887026	-17.18874	-1.2605076	57.8974059	-0.49847346	-20.7983754
2.37	237	-0.128	-0.876	-0.436	-60.5616606	-12.4331886	-3.8388186	57.28434084	-0.53858052	-20.92442616
2.38	238	-0.079	-0.874	-0.41	-62.6243094	-6.589017	-6.7036086	56.65408704	-0.52712136	-21.02182902
2.39	239	0.012	-0.88	-0.411	-62.1086472	-0.286479	-9.3965112	56.02383324	-0.4583664	-21.07912482
2.4	240	0.087	-0.877	-0.53	-61.5356892	3.437748	-9.6829902	55.39930902	-0.36096354	-21.10777272
2.41	241	0.112	-0.88	-0.595	-55.9779966	4.297185	-8.1932994	54.82635102	-0.27501984	-21.11923188
2.42	242	0.085	-0.891	-0.564	-49.9046418	-0.5156622	-5.7868758	54.32214798	-0.24064236	-21.15933894
2.43	243	-0.032	-0.873	-0.514	-46.2377106	-7.9068204	-2.578311	53.85232242	-0.26929026	-21.24528264
2.44	244	-0.149	-0.863	-0.552	-44.2896534	-9.1100322	-2.291832	53.40541518	-0.30939732	-21.33122634
2.45	245	-0.213	-0.846	-0.524	-42.685371	-8.3651868	-5.6722842	52.97569668	-0.33231564	-21.43435878
2.46	246	-0.185	-0.842	-0.502	-42.7426668	-7.161975	-10.599723	52.54597818	-0.29793816	-21.55467996
2.47	247	-0.075	-0.85	-0.442	-44.1750618	-3.151269	-14.896908	52.09907094	-0.2005353	-21.67500114
2.48	248	0.069	-0.836	-0.54	-46.7533728	0.0572958	-15.9282324	51.6235158	-0.08021412	-21.772404
2.49	249	0.167	-0.816	-0.6	-44.117766	0.6875496	-14.4958374	51.17660856	0.02291832	-21.8583477
2.5	250	0.195	-0.817	-0.648	-40.966497	-0.6875496	-12.2613012	50.75834922	0.12605076	-21.9442914
2.51	251	0.135	-0.813	-0.667	-37.8725238	-2.8074942	-10.2559482	50.36873778	0.17761698	-22.03596468
2.52	252	0.038	-0.849	-0.648	-32.1429438	-4.6982556	-8.7089616	50.0478813	0.21199446	-22.12763796
2.53	253	-0.042	-0.87	-0.616	-29.6792244	-5.72958	-8.0787078	49.74421356	0.23491278	-22.22504082
2.54	254	-0.099	-0.867	-0.607	-28.8770832	-5.9587632	-9.2819196	49.45200498	0.26356068	-22.33390284
2.55	255	-0.092	-0.848	-0.592	-27.8457588	-5.9587632	-11.6310474	49.17698514	0.30366774	-22.44849444
2.56	256	-0.046	-0.826	-0.591	-26.5852512	-5.2712136	-13.0061466	48.90769488	0.36096354	-22.5745452
2.57	257	0.013	-0.807	-0.601	-25.3820394	-4.6409598	-13.1207382	48.64986378	0.4297185	-22.70059596
2.58	258	0.055	-0.796	-0.602	-23.6631654	-4.8128472	-12.2613012	48.40349184	0.4870143	-22.81518756
2.59	259	0.064	-0.811	-0.599	-22.2307704	-4.9847346	-10.4851314	48.18003822	0.52712136	-22.92404958
2.6	260	0.044	-0.831	-0.599	-22.631841	-5.0993262	-8.2505952	47.96231418	0.55576926	-23.02145244
2.61	261	0.01	-0.829	-0.598	-23.2620948	-4.9847346	-6.7036086	47.72167182	0.572958	-23.10166656
2.62	262	-0.028	-0.819	-0.575	-23.777757	-5.3285094	-6.4171296	47.48102946	0.58441716	-23.18761026
2.63	263	-0.06	-0.806	-0.588	-25.7258142	-5.0420304	-6.5317212	47.22319836	0.59587632	-23.26782438
2.64	264	-0.065	-0.792	-0.578	-27.3873924	-3.7815228	-7.2192708	46.94244894	0.61879464	-23.3480385
2.65	265	-0.049	-0.784	-0.576	-28.5333084	-3.3231564	-7.8495246	46.66169952	0.64171296	-23.42252304
2.66	266	-0.029	-0.782	-0.586	-29.9084076	-3.3231564	-7.8495246	46.35803178	0.67036086	-23.50273716
2.67	267	-0.004	-0.78	-0.593	-31.1689152	-3.3804522	-7.3911582	46.04290488	0.69900876	-23.5772217
2.68	268	0.013	-0.782	-0.602	-32.1429438	-4.1825934	-6.3598338	45.71631882	0.71046792	-23.65743582
2.69	269	0.022	-0.783	-0.618	-33.1742682	-4.9847346	-4.870143	45.3782736	0.71046792	-23.72619078
2.7	270	0.022	-0.781	-0.62	-33.6899304	-5.8441716	-3.2658606	45.04595796	0.6875496	-23.79494574
2.71	271	0.016	-0.769	-0.632	-34.950438	-6.2452422	-2.005353	44.690724	0.65317212	-23.85224154
2.72	272	0.009	-0.753	-0.629	-35.6952834	-6.1879464	-1.4896908	44.32403088	0.61879464	-23.90953734
2.73	273	0.003	-0.743	-0.63	-36.382833	-5.72958	-1.432395	43.95733776	0.58441716	-23.96110356
2.74	274	-0.006	-0.73	-0.628	-37.1276784	-5.0993262	-1.6042824	43.57918548	0.55576926	-24.0069402
2.75	275	-0.016	-0.721	-0.633	-37.9298196	-4.0680018	-1.9480572	43.2010332	0.52712136	-24.05277684
2.76	276	-0.016	-0.719	-0.641	-38.2162986	-3.6669312	-2.0626488	42.81715134	0.50993262	-24.0928839
2.77	277	-0.024	-0.727	-0.645	-38.3308902	-4.4117766	-1.4896908	42.4275399	0.4870143	-24.13299096
2.78	278	-0.012	-0.729	-0.634	-37.815228	-4.9274388	-0.7448454	42.04365804	0.45263682	-24.1788276
2.79	279	0.003	-0.733	-0.632	-37.9298196	-3.9534102	0.1145916	41.65977618	0.41825934	-24.20174592
2.8	280	0.023	-0.731	-0.664	-38.5027776	-3.5523396	1.432395	41.27589432	0.37815228	-24.21893466
2.81	281	0.028	-0.721	-0.689	-38.388186	-4.1252976	2.6929026	40.88628288	0.32658606	-24.22466424
2.82	282	0.013	-0.709	-0.701	-37.4141574	-3.9534102	3.5523396	40.5081306	0.26929026	-24.22466424
2.83	283	-0.006	-0.702	-0.694	-36.3255372	-2.9793816	3.8961144	40.14143748	0.21199446	-24.21893466
2.84	284	-0.017	-0.699	-0.687	-35.1796212	-2.2345362	3.6096354	39.78047394	0.16615782	-24.20174592
2.85	285	-0.029	-0.699	-0.68	-34.4347758	-1.4896908	3.2085648	39.44242872	0.12605076	-24.19028676
2.86	286	-0.036	-0.691	-0.683	-33.804522	-0.2291832	3.151269	39.09865392	0.10313244	-24.16736844
2.87	287	-0.036	-0.678	-0.682	-32.6013102	0.4583664	3.3804522	38.76633828	0.08021412	-24.13872054
2.88	288	-0.025	-0.668	-0.68	-30.5959572	0.5156622	3.7815228	38.45694096	0.0572958	-24.10434306
2.89	289	-0.006	-0.652	-0.702	-29.2781538	0.1718874	4.2398892	38.1590028	0.02291832	-24.06996558
2.9	290	0.007	-0.643	-0.7	-27.215505	-0.4010706	4.6982556	37.88971254	-0.00572958	-24.0355881
2.91	291	0.014	-0.638	-0.713	-26.2987722	-1.145916	4.9847346	37.62615186	-0.04583664	-24.0069402
2.92	292	0.013	-0.641	-0.709	-24.637194	-1.8334656	5.0993262	37.37405034	-0.09740286	-23.9782923
2.93	293	0.007	-0.649	-0.697	-23.5485738	-1.6042824	4.870143	37.13340798	-0.1432395	-23.9496444
2.94	294	0.001	-0.654	-0.682	-22.91832	-0.6875496	4.6982556	36.90422478	-0.17761698	-23.91526692
2.95	295	-0.005	-0.654	-0.679	-22.8610242	0.4010706	4.3544808	36.68650074	-0.20626488	-23.87515986
2.96	296	-0.02	-0.654	-0.668	-22.4026578	1.7761698	4.1252976	36.45731754	-0.21772404	-23.8350528
2.97	297	-0.029	-0.644	-0.682	-22.1734746	2.578311	3.9534102	36.23386392	-0.22345362	-23.78348658
2.98	298	-0.032	-0.631	-0.696	-21.0848544	2.7501984	3.8388186	36.02186946	-0.2291832	-23.73764994
2.99	299	-0.038	-0.619	-0.699	-19.8243468	3.0366774	3.6669312	35.81560458	-0.2291832	-23.6918133
3	300	-0.039	-0.604	-0.701	-18.6784308	3.8388186	3.437748	35.6379876	-0.2291832	-23.6345175
3.01	301	-0.035	-0.597	-0.712	-17.3606274	4.297185	3.2085648	35.46037062	-0.21772404	-23.58295128
3.02	302	-0.033	-0.605	-0.702	-16.042824	5.2139178	3.2085648	35.2942128	-0.19480572	-23.52565548
3.03	303	-0.038	-0.621	-0.692	-15.469866	6.3598338	3.2085648	35.13951414	-0.16615782	-23.4626301
3.04	304	-0.042	-0.637	-0.675	-15.0114996	7.9641162	3.2658606	34.98481548	-0.12605076	-23.38814556
3.05	305	-0.044	-0.64	-0.663	-15.183387	9.453807	3.2658606	34.84730556	-0.08021412	-23.30793144
3.06	306	-0.043	-0.634	-0.67	-15.4125702	10.7143146	3.5523396	34.6926069	-0.01718874	-23.21052858
3.07	307	-0.03	-0.614	-0.696	-15.1260912	10.4851314	4.0680018	34.53790824	0.03437748	-23.1188553
3.08	308	-0.017	-0.585	-0.697	-13.3499214	8.7662574	5.2139178	34.40039832	0.07448454	-23.02718202
3.09	309	0	-0.557	-0.701	-11.4018642	7.6776372	6.3598338	34.28007714	0.09740286	-22.92977916
3.1	310	0.015	-0.529	-0.712	-9.3392154	7.448454	6.9327918	34.18840386	0.12032118	-22.82664672
3.11	311	0.013	-0.516	-0.706	-7.0473834	8.2505952	6.9900876	34.11391932	0.14896908	-22.72351428
3.12	312	0.002	-0.52	-0.703	-5.2712136	10.026765	6.6463128	34.0623531	0.18907614	-22.60892268
3.13	313	-0.004	-0.541	-0.682	-3.8961144	11.4018642	6.1879464	34.02224604	0.24637194	-22.49433108
3.14	314	-0.003	-0.566	-0.678	-3.2658606	11.1153852	5.7868758	33.98786856	0.30366774	-22.37973948
3.15	315	0.021	-0.574	-0.689	-2.8074942	8.8235532	5.9587632	33.9764094	0.34950438	-22.28233662
3.16	316	0.036	-0.569	-0.707	-1.8907614	5.5576926	6.3598338	33.95349108	0.35523396	-22.19639292
3.17	317	0.04	-0.552	-0.728	-0.859437	3.0939732	6.3598338	33.9477615	0.3437748	-22.12763796
3.18	318	0.058	-0.52	-0.741	0.0572958	1.718874	5.9014674	33.9477615	0.32658606	-22.07034216
3.19	319	0.065	-0.489	-0.732	3.6669312	-0.1718874	5.156622	33.98213898	0.29793816	-22.02450552
3.2	320	0.058	-0.47	-0.704	7.1046792	-1.4896908	4.4117766	34.05089394	0.27501984	-22.0015872
3.21	321	0.056	-0.472	-0.665	10.7143146	-1.7761698	3.8388186	34.15975596	0.24064236	-21.97866888
3.22	322	0.047	-0.494	-0.631	13.9228794	-1.5469866	3.3804522	34.30299546	0.20626488	-21.96148014
3.23	323	0.032	-0.534	-0.61	16.615782	-1.3178034	2.9793816	34.47488286	0.18334656	-21.9442914
3.24	324	0.023	-0.581	-0.588	18.8503182	-1.7761698	2.5210152	34.663959	0.16042824	-21.93283224
3.25	325	0.015	-0.622	-0.569	20.3973048	-2.4064236	2.4637194	34.89887178	0.13178034	-21.92710266
3.26	326	0.013	-0.651	-0.589	21.2567418	-3.2085648	2.9220858	35.11659582	0.09167328	-21.92137308
3.27	327	0.02	-0.663	-0.588	23.2620948	-4.9274388	4.1825934	35.35723818	0.0286479	-21.9156435
3.28	328	0.017	-0.667	-0.577	24.8663772	-6.2452422	5.7868758	35.6093397	-0.04583664	-21.90991392
3.29	329	0.022	-0.668	-0.558	26.8144344	-5.2712136	6.875496	35.87862996	-0.12032118	-21.88126602
3.3	330	0.012	-0.667	-0.544	28.0176462	-4.0680018	7.7922288	36.19375686	-0.19480572	-21.84688854
3.31	331	-0.007	-0.666	-0.479	29.793816	-2.5210152	8.3651868	36.49169502	-0.26356068	-21.79532232
3.32	332	-0.017	-0.668	-0.447	31.0543236	1.6042824	8.2505952	36.80682192	-0.29220858	-21.72083778
3.33	333	-0.018	-0.669	-0.443	31.6272816	4.8128472	8.0787078	37.1276784	-0.29793816	-21.62343492
3.34	334	-0.019	-0.672	-0.435	32.5440144	7.3338624	8.5370742	37.45999404	-0.29220858	-21.50884332
3.35	335	-0.021	-0.68	-0.435	34.091001	9.453807	9.3965112	37.82668716	-0.27501984	-21.37706298
3.36	336	-0.03	-0.69	-0.445	35.6379876	10.1413566	10.1986524	38.1876507	-0.25210152	-21.23382348
3.37	337	-0.031	-0.698	-0.404	37.7006364	11.2299768	10.599723	38.56580298	-0.2291832	-21.07912482
3.38	338	-0.03	-0.706	-0.377	39.5913978	13.1207382	11.172681	38.96687358	-0.19480572	-20.90723742
3.39	339	-0.025	-0.703	-0.319	42.6280752	14.4385416	12.4331886	39.39659208	-0.16042824	-20.71816128
3.4	340	-0.027	-0.711	-0.292	44.404245	16.7303736	14.1520626	39.86641764	-0.12032118	-20.50043724
3.41	341	-0.035	-0.702	-0.296	44.7480198	19.480572	15.469866	40.31905446	-0.06875496	-20.2540653
3.42	342	-0.048	-0.702	-0.267	46.5814854	21.3140376	16.2720072	40.78888002	-0.01145916	-19.99050462
3.43	343	-0.067	-0.705	-0.251	47.7846972	23.4339822	16.5584862	41.27016474	0.05156622	-19.7097552
3.44	344	-0.079	-0.713	-0.236	49.7327544	25.0955604	16.615782	41.77436778	0.13178034	-19.41181704
3.45	345	-0.088	-0.721	-0.227	50.6494872	26.1268848	16.8449652	42.30721872	0.20626488	-19.1081493
3.46	346	-0.102	-0.726	-0.212	51.56622	26.6998428	17.4179232	42.8286105	0.286479	-18.79875198
3.47	347	-0.109	-0.729	-0.197	52.0245864	27.0436176	18.048177	43.35573186	0.36096354	-18.4778955
3.48	348	-0.096	-0.713	-0.15	52.1964738	28.6479	17.8189938	43.88285322	0.44690724	-18.14557986
3.49	349	-0.072	-0.691	-0.102	51.1651494	30.7678446	16.7303736	44.404245	0.55003968	-17.80753464
3.5	350	-0.053	-0.658	-0.034	49.4462754	33.6899304	14.7250206	44.92563678	0.68182002	-17.46375984
3.51	351	-0.05	-0.633	0.007	44.6334282	35.236917	12.605076	45.3782736	0.83651868	-17.11998504
3.52	352	-0.079	-0.661	-0.146	36.8984952	40.3362432	11.5164558	45.75642588	1.0313244	-16.74756234
3.53	353	-0.087	-0.758	-0.521	15.9855282	45.83664	12.1467096	45.9225837	1.25477802	-16.329303
3.54	354	-0.096	-0.913	-0.832	-0.5156622	50.0192334	14.1520626	45.9225837	1.48396122	-15.86520702
3.55	355	-0.075	-1.127	-1.076	-23.6631654	49.847346	16.5584862	45.68767092	1.69595568	-15.38965188
3.56	356	0.012	-1.362	-1.224	-51.6808116	48.3003594	17.0741484	45.17200872	1.8907614	-14.91982632
3.57	357	0.103	-1.739	-1.422	-83.8810512	46.8106686	14.32395	44.32976046	2.09702628	-14.48437824
3.58	358	0.112	-2.426	-1.724	-122.0973498	47.9565846	9.5111028	43.09790076	2.3491278	-14.08330764
3.59	359	0.037	-3.06	-1.668	-160.6574232	48.5868384	5.5003968	41.47642962	2.6356068	-13.71088494
3.6	360	0.123	-2.804	-1.621	-191.9982258	42.97185	6.2452422	39.53983158	2.88770832	-13.38429888
3.61	361	0.222	-2.237	-1.461	-203.9157522	35.2942128	8.6516658	37.48291236	3.07105488	-13.0920903
3.62	362	0.258	-1.824	-1.258	-212.7393054	31.9710564	8.3651868	35.33431986	3.2372127	-12.82852962
3.63	363	0.245	-1.523	-0.969	-214.1144046	33.1169724	4.5263682	33.16853862	3.44920716	-12.59934642
3.64	364	0.212	-1.274	-0.571	-215.6040954	33.7472262	-1.8907614	30.98556864	3.70703826	-12.42745902
3.65	365	0.192	-0.943	-0.3	-221.161788	31.799169	-10.1986524	28.75676202	3.99924684	-12.3472449
3.66	366	0.161	-0.551	-0.041	-221.448267	32.7731976	-18.7930224	26.50503708	4.33729206	-12.35297448
3.67	367	0.173	-0.272	0.183	-217.4948568	36.8984952	-25.5539268	24.28768962	4.74409224	-12.41027028
3.68	368	0.174	0.006	0.381	-217.0937862	38.3308902	-30.5959572	22.07034216	5.17381074	-12.52486188
3.69	369	0.123	0.338	0.462	-216.4635324	37.1276784	-32.1429438	19.8529947	5.60352924	-12.67956054
3.7	370	0.081	0.712	0.37	-207.0670212	34.4347758	-30.3094782	17.71013178	5.99314068	-12.83998878
3.71	371	0.104	1.113	0.266	-186.0394626	30.7678446	-27.9030546	15.80218164	6.33691548	-13.00041702
3.72	372	0.168	1.191	0.197	-146.8491354	15.4125702	-22.8610242	14.28957252	6.52599162	-13.16657484
3.73	373	0.272	0.942	0.083	-109.6641612	-4.010706	-10.7716104	13.16657484	6.49734372	-13.27543686
3.74	374	0.479	0.651	-0.013	-83.938347	-22.0015872	0.6875496	12.31286742	6.2738901	-13.3212735
3.75	375	0.682	0.54	-0.029	-63.1972674	-43.0291458	4.6982556	11.63677698	5.89000824	-13.3785693
3.76	376	0.852	0.564	0.07	-43.6021038	-65.0880288	3.7815228	11.19559932	5.24829528	-13.48743132
3.77	377	0.721	0.658	0.208	-32.6013102	-76.3180056	-5.3285094	10.8575541	4.52063862	-13.69942578
3.78	378	0.4	0.76	0.116	-19.7097552	-71.61975	-17.7044022	10.63983006	3.85600734	-14.02601184
3.79	379	0.151	0.831	-0.09	-5.6149884	-76.776372	-23.204799	10.5710751	3.15699858	-14.41562328
3.8	380	-0.023	0.986	-0.181	5.5003968	-97.5174516	-15.3552744	10.57680468	2.24026578	-14.77085724
3.81	381	-0.129	1.141	-0.346	11.8029348	-118.602306	2.005353	10.70285544	1.0886202	-15.00004044
3.82	382	-0.015	1.198	-0.674	17.8762896	-131.8376358	18.5065434	10.90339074	-0.20626488	-15.0974433
3.83	383	0.13	1.022	-0.9	34.7785506	-139.5725688	23.2620948	11.27581344	-1.59282324	-15.17765742
3.84	384	0.209	0.697	-1.069	64.4004792	-137.796399	15.183387	11.95763346	-2.94500412	-15.34381524
3.85	385	0.073	0.494	-1.19	87.7198698	-120.7795464	5.5003968	12.8629071	-4.10237928	-15.57872802
3.86	386	-0.246	0.404	-1.292	107.0858502	-85.0269672	-0.8021412	13.9801752	-4.8987909	-15.8136408
3.87	387	-0.654	0.316	-1.228	120.5503632	-35.4661002	0	15.21776448	-5.21964738	-15.91677324
3.88	388	-1.004	0.313	-1.07	134.2440594	6.3598338	8.6516658	16.56994536	-5.16808116	-15.81937038
3.89	389	-1.123	0.262	-0.955	143.4113874	19.8816426	21.6005166	18.00234036	-5.02484166	-15.5558097
3.9	390	-0.999	-0.086	-1.057	135.3899754	17.3606274	23.777757	19.34879166	-4.93316838	-15.27506028
3.91	391	-0.475	-0.652	-1.608	99.8665794	25.7258142	8.0787078	20.34573858	-4.70971476	-15.10890246
3.92	392	-0.104	-1.573	-2.912	3.437748	67.2079734	-17.3606274	20.36292732	-4.03362432	-15.02295876
3.93	393	-0.059	-2.042	-3.972	-162.720072	104.2210602	-24.7517856	18.68988996	-3.0080295	-14.87398968
3.94	394	-0.367	-0.882	-3.996	-221.9639292	101.5854534	-5.8441716	16.40951712	-2.07410796	-14.58751068
3.95	395	-0.71	0.855	-3.996	-165.9286368	78.4379502	5.72958	14.70783186	-1.36936962	-14.2953021
3.96	396	0.008	1.295	-3.996	-113.732163	72.5937786	-10.0840608	13.53899754	-0.67036086	-14.19789924
3.97	397	0.336	0.465	-3.239	-30.653253	47.1544434	-3.6096354	13.22387064	-0.21199446	-14.10622596
3.98	398	0.123	0.145	-1.911	-57.4676874	15.9855282	-3.724227	12.6337239	-0.0572958	-14.10049638
3.99	399	-0.055	0.297	-1.396	-50.2484166	24.6944898	-11.172681	12.12379128	0.18907614	-14.14633302
4	400	-0.137	0.374	-0.499	-39.1330314	28.1322378	-26.1268848	11.69407278	0.49847346	-14.33540916
4.01	401	-0.259	0.4	-0.395	-42.9145542	24.2361234	-40.1643558	11.25289512	0.8021412	-14.6677248
4.02	402	-0.39	0.351	-0.3	-41.0237928	27.3300966	-52.5975444	10.82317662	1.16310474	-15.12036162
4.03	403	-0.307	0.237	-0.304	-29.2781538	35.0077338	-57.009321	10.50804972	1.6042824	-15.60164634
4.04	404	-0.171	0.134	-0.403	-17.18874	38.9038482	-53.5142772	10.313244	2.07410796	-16.042824
4.05	405	0.019	0.114	-0.504	-20.9702628	38.4454818	-44.404245	10.06687206	2.53247436	-16.39805796
4.06	406	0.226	0.016	-0.613	-17.8189938	39.4768062	-36.7839036	9.86633676	2.97365202	-16.67880738
4.07	407	0.333	-0.097	-0.604	-24.923673	37.7006364	-37.4714532	9.59131692	3.40337052	-16.97101596
4.08	408	0.29	-0.124	-0.545	-39.9924684	32.658606	-41.252976	9.15586884	3.7815228	-17.30906118
4.09	409	0.215	-0.06	-0.641	-47.9565846	29.5646328	-38.388186	8.64593622	4.1252976	-17.62991766
4.1	410	0.191	0.111	-0.732	-37.8725238	28.4187168	-30.1948866	8.21048814	4.45188366	-17.88201918
4.11	411	0.24	0.309	-0.793	-28.361421	26.4133638	-23.491278	7.9068204	4.73836266	-18.06536574
4.12	412	0.277	0.504	-0.864	-27.9603504	23.3193906	-19.3659804	7.60315266	4.99046418	-18.2200644
4.13	413	0.302	0.613	-0.953	-26.7571386	19.7097552	-18.334656	7.31667366	5.20245864	-18.36903348
4.14	414	0.319	0.557	-1.105	-26.8717302	16.5584862	-14.6677248	7.03019466	5.38007562	-18.48935466
4.15	415	0.277	0.431	-1.176	-21.7151082	10.4278356	-9.6829902	6.76663398	5.50612638	-18.56956878
4.16	416	0.274	0.258	-1.207	-11.3445684	2.8074942	-4.5263682	6.6463128	5.53477428	-18.60967584
4.17	417	0.268	0.159	-1.229	-3.3231564	-3.8961144	-1.718874	6.60620574	5.5003968	-18.63259416
4.18	418	0.272	0.106	-1.247	4.0680018	-9.3965112	-1.718874	6.6463128	5.40872352	-18.66697164
4.19	419	0.306	0.074	-1.235	10.026765	-15.469866	-2.8074942	6.74944524	5.26548402	-18.71853786
4.2	420	0.369	0.061	-1.201	12.891555	-21.0848544	-2.9793816	6.85830726	5.08213746	-18.78156324
4.21	421	0.41	0.059	-1.155	13.464513	-24.5798982	-1.3178034	6.99581718	4.8414951	-18.83312946
4.22	422	0.41	0.082	-1.102	13.5791046	-26.6998428	1.4896908	7.1333271	4.583664	-18.85604778
4.23	423	0.357	0.084	-1.052	12.6623718	-28.8770832	4.0680018	7.27083702	4.297185	-18.86177736
4.24	424	0.314	0.072	-0.998	10.7143146	-30.5959572	6.1879464	7.37969904	3.99351726	-18.8503182
4.25	425	0.292	0.059	-0.959	10.1413566	-29.507337	6.4744254	7.45991316	3.72995658	-18.83885904
4.26	426	0.274	0.044	-0.961	10.026765	-26.4133638	5.8441716	7.56877518	3.4663959	-18.8216703
4.27	427	0.257	0.025	-0.973	7.734933	-23.491278	5.72958	7.6489893	3.23148312	-18.80448156
4.28	428	0.241	0.012	-1.013	5.3858052	-21.7151082	6.1306506	7.71201468	3.0080295	-18.77583366
4.29	429	0.205	0.004	-0.997	4.6982556	-21.772404	6.2452422	7.7635809	2.79030546	-18.74718576
4.3	430	0.145	-0.015	-0.948	4.4690724	-23.1475032	5.7868758	7.78649922	2.57258142	-18.7357266
4.31	431	0.103	-0.052	-0.939	4.1825934	-23.7204612	5.0420304	7.83233586	2.33193906	-18.72426744
4.32	432	0.077	-0.099	-0.937	3.6669312	-22.6891368	4.1825934	7.87244292	2.10848544	-18.71853786
4.33	433	0.078	-0.142	-0.957	4.0680018	-21.0848544	3.4950438	7.91827956	1.89649098	-18.71853786
4.34	434	0.071	-0.18	-0.964	4.7555514	-20.1108258	2.005353	7.96984578	1.69595568	-18.72999702
4.35	435	0.061	-0.185	-0.985	4.0680018	-19.6524594	-0.286479	8.021412	1.51260912	-18.77010408
4.36	436	0.05	-0.187	-0.981	3.5523396	-18.9649098	-2.8074942	8.05578948	1.33499214	-18.82739988
4.37	437	0.026	-0.186	-0.999	0.8021412	-18.1627686	-4.4117766	8.06724864	1.16310474	-18.90188442
4.38	438	0.016	-0.157	-1.099	-2.9793816	-18.4492476	-4.7555514	8.03860074	0.98548776	-18.97636896
4.39	439	-0.014	-0.111	-1.081	-1.9480572	-21.5432208	-4.2398892	8.01568242	0.78495246	-19.05658308
4.4	440	-0.051	-0.088	-0.998	0.7448454	-24.7517856	-3.6096354	8.00995284	0.52712136	-19.13106762
4.41	441	-0.09	-0.081	-0.952	1.432395	-24.923673	-3.437748	8.02714158	0.29220858	-19.20555216
4.42	442	-0.121	-0.086	-0.94	1.6042824	-22.91832	-3.3231564	8.0500599	0.07448454	-19.27430712
4.43	443	-0.159	-0.101	-0.936	1.7761698	-19.6524594	-3.2085648	8.06724864	-0.10886202	-19.34306208
4.44	444	-0.203	-0.124	-0.934	2.005353	-16.1574156	-3.0366774	8.09016696	-0.26356068	-19.40035788
4.45	445	-0.249	-0.155	-0.967	1.5469866	-12.2040054	-2.9793816	8.1073557	-0.49274388	-19.43473536
4.46	446	-0.276	-0.166	-1	0.6875496	-8.021412	-3.0939732	8.11881486	-0.56722842	-19.480572
4.47	447	-0.282	-0.173	-1.003	0.9740286	-2.4064236	-3.3231564	8.13027402	-0.58441716	-19.51494948
4.48	448	-0.262	-0.169	-0.989	2.6356068	3.8388186	-3.4950438	8.15892192	-0.53858052	-19.54359738
4.49	449	-0.228	-0.173	-0.966	4.297185	7.7922288	-3.6096354	8.19902898	-0.4583664	-19.5665157
4.5	450	-0.199	-0.194	-0.934	4.2398892	8.307891	-2.8074942	8.26778394	-0.46982556	-19.5665157
4.51	451	-0.175	-0.215	-0.923	2.6929026	5.9014674	-0.4583664	8.29070226	-0.41252976	-19.5665157
4.52	452	-0.156	-0.229	-0.916	0.6875496	2.578311	2.4064236	8.29643184	-0.38961144	-19.5378678
4.53	453	-0.154	-0.233	-0.896	-0.9167328	-0.859437	4.9847346	8.29070226	-0.40680018	-19.48630158
4.54	454	-0.155	-0.223	-0.858	-2.7501984	-3.0939732	6.2452422	8.26205436	-0.44690724	-19.42900578
4.55	455	-0.117	-0.196	-0.867	-7.9641162	3.3231564	5.3858052	8.18756982	-0.45263682	-19.3659804
4.56	456	-0.082	-0.156	-0.89	-10.313244	6.1306506	3.6096354	8.0787078	-0.4010706	-19.32014376
4.57	457	-0.058	-0.153	-0.913	-13.4072172	11.745639	2.005353	7.94119788	-0.29220858	-19.2800367
4.58	458	-0.012	-0.136	-0.964	-15.9282324	17.18874	1.2605076	7.78076964	-0.12605076	-19.23992964
4.59	459	0.007	-0.132	-0.982	-15.1260912	18.2773602	2.1772404	7.6203414	0.04010706	-19.18836342
4.6	460	0.03	-0.134	-0.984	-15.2979786	19.2513888	3.437748	7.45991316	0.2291832	-19.12533804
4.61	461	0.036	-0.117	-1	-16.3865988	21.0848544	4.297185	7.29375534	0.42398892	-19.04512392
4.62	462	0.049	-0.087	-1.031	-15.8709366	22.4026578	4.6409598	7.12759752	0.63598338	-18.9649098
4.63	463	0.056	-0.058	-1.045	-13.5791046	23.4339822	4.5263682	6.9900876	0.859437	-18.88469568
4.64	464	0.066	-0.027	-1.054	-10.7143146	24.350715	3.8961144	6.875496	1.0886202	-18.81021114
4.65	465	0.085	0.003	-1.055	-7.8495246	24.4653066	3.0939732	6.76663398	1.33499214	-18.74718576
4.66	466	0.109	0.027	-1.047	-5.9014674	23.9496444	2.4064236	6.7036086	1.56990492	-18.68416038
4.67	467	0.133	0.048	-1.029	-5.0993262	22.9756158	1.8334656	6.65204238	1.79335854	-18.63259416
4.68	468	0.156	0.062	-1.008	-3.5523396	21.6005166	1.5469866	6.61193532	1.99962342	-18.58675752
4.69	469	0.173	0.072	-0.995	-1.9480572	19.7097552	1.718874	6.59474658	2.18869956	-18.54092088
4.7	470	0.176	0.071	-0.982	-0.859437	17.0168526	2.578311	6.51453246	2.40069402	-18.50081382
4.71	471	0.171	0.067	-0.977	-0.1145916	13.5791046	3.8388186	6.51453246	2.52674478	-18.44351802
4.72	472	0.162	0.058	-0.972	0.7448454	10.4278356	4.870143	6.52026204	2.62414764	-18.38049264
4.73	473	0.148	0.047	-0.965	1.3178034	8.3651868	5.5576926	6.53745078	2.70436176	-18.31746726
4.74	474	0.132	0.029	-0.973	1.3750992	6.7036086	5.72958	6.55463952	2.76165756	-18.2487123
4.75	475	0.12	0.014	-0.982	1.8334656	4.870143	5.6722842	6.48588456	2.84187168	-18.19714608
4.76	476	0.112	0.002	-0.991	2.3491278	3.3804522	5.3285094	6.51453246	2.87051958	-18.13985028
4.77	477	0.102	-0.006	-0.996	2.291832	1.8907614	4.4690724	6.54318036	2.88197874	-18.08828406
4.78	478	0.097	-0.015	-1.013	2.2345362	0.6302538	3.6669312	6.56609868	2.88197874	-18.05390658
4.79	479	0.091	-0.022	-1.023	2.9793816	-1.2605076	3.0939732	6.60047616	2.87051958	-18.02525868
4.8	480	0.089	-0.027	-1.022	3.437748	-2.6929026	2.4637194	6.54890994	2.86479	-18.00806994
4.81	481	0.09	-0.028	-1.021	3.2085648	-2.86479	1.8334656	6.58328742	2.8361421	-17.99661078
4.82	482	0.086	-0.024	-1.014	2.7501984	-2.9220858	0.9167328	6.61193532	2.80176462	-17.9908812
4.83	483	0.079	-0.016	-1.002	2.6929026	-2.5210152	0	6.64058322	2.7788463	-17.99661078
4.84	484	0.074	-0.013	-0.993	3.0366774	-1.7761698	-0.9167328	6.66923112	2.76165756	-18.00806994
4.85	485	0.067	-0.011	-0.981	3.5523396	-1.0886202	-1.8334656	6.58328742	2.76738714	-18.03671784
4.86	486	0.064	-0.02	-0.961	3.2085648	0.6875496	-2.8074942	6.61193532	2.77311672	-18.05963616
4.87	487	0.077	-0.025	-0.97	2.86479	1.6615782	-3.6096354	6.64058322	2.79603504	-18.09401364
4.88	488	0.085	-0.045	-0.965	3.9534102	1.3178034	-3.724227	6.68069028	2.81322378	-18.12839112
4.89	489	0.104	-0.074	-0.972	3.8388186	1.2032118	-3.2658606	6.71506776	2.83041252	-18.1627686
4.9	490	0.113	-0.095	-0.989	3.6669312	-0.0572958	-2.578311	6.71506776	2.8934379	-18.19714608
4.91	491	0.107	-0.113	-0.993	3.8388186	-1.7761698	-1.8907614	6.74944524	2.88197874	-18.2200644
4.92	492	0.1	-0.126	-0.99	3.6096354	-3.2658606	-1.432395	6.7895523	2.84760126	-18.23725314
4.93	493	0.085	-0.129	-0.988	2.86479	-4.4117766	-1.3178034	6.8182002	2.8074942	-18.26017146
4.94	494	0.064	-0.122	-0.991	2.005353	-5.0993262	-1.2032118	6.83538894	2.76165756	-18.2773602
4.95	495	0.048	-0.111	-0.995	1.3750992	-5.2712136	-1.3178034	6.8182002	2.69863218	-18.30027852
4.96	496	0.034	-0.097	-0.996	0.9167328	-4.9274388	-1.6042824	6.82965936	2.65279554	-18.32319684
4.97	497	0.028	-0.087	-0.995	0.6875496	-4.4117766	-1.7761698	6.83538894	2.61268848	-18.34611516
4.98	498	0.029	-0.075	-0.993	0.4583664	-3.6096354	-1.7761698	6.83538894	2.578311	-18.36903348
4.99	499	0.031	-0.063	-0.99	0.286479	-2.9220858	-1.718874	6.84111852	2.5496631	-18.3919518
5	500	0.033	-0.051	-0.986	0.572958	-2.6929026	-1.3178034	6.7036086	2.49809688	-18.40914054
5.01	501	0.032	-0.04	-0.982	0.8021412	-2.6356068	-0.9740286	6.71506776	2.47517856	-18.42632928
5.02	502	0.027	-0.03	-0.977	1.0313244	-2.6929026	-0.6875496	6.72652692	2.44653066	-18.43778844
5.03	503	0.021	-0.019	-0.976	1.2032118	-2.5210152	-0.4010706	6.73798608	2.42361234	-18.44351802
5.04	504	0.015	-0.009	-0.982	1.4896908	-2.2345362	-0.3437748	6.75517482	2.40069402	-18.4492476
5.05	505	0.011	-0.004	-0.988	1.8334656	-1.6042824	-0.4010706	6.52026204	2.31475032	-18.46070676
5.06	506	0.012	0.001	-0.992	2.1772404	-0.6302538	-0.5156622	6.54318036	2.30902074	-18.46643634
5.07	507	0.012	0.002	-0.994	2.4064236	0.286479	-0.6302538	6.57182826	2.31475032	-18.47216592
5.08	508	0.018	0.001	-0.995	2.578311	1.2032118	-0.572958	6.59474658	2.32620948	-18.4778955
5.09	509	0.026	-0.004	-0.996	2.6356068	1.9480572	-0.3437748	6.62339448	2.3491278	-18.4778955
5.1	510	0.036	-0.011	-0.995	2.8074942	2.578311	0	6.50880288	2.36631654	-18.4778955
5.11	511	0.046	-0.021	-0.995	3.0939732	2.9220858	0.6875496	6.54318036	2.39496444	-18.46643634
5.12	512	0.052	-0.033	-0.993	3.2658606	2.9220858	1.432395	6.57755784	2.42361234	-18.4492476
5.13	513	0.055	-0.042	-0.993	3.437748	2.86479	1.8907614	6.61193532	2.44653066	-18.42632928
5.14	514	0.055	-0.05	-0.991	3.4950438	2.6356068	2.2345362	6.6463128	2.46944898	-18.39768138
5.15	515	0.053	-0.054	-0.991	3.6669312	2.3491278	2.4064236	6.6176649	2.4923673	-18.37476306
5.16	516	0.053	-0.059	-0.99	3.724227	2.1199446	2.2345362	6.65777196	2.51528562	-18.35184474
5.17	517	0.054	-0.061	-0.989	3.6669312	1.8334656	2.0626488	6.69214944	2.52674478	-18.32892642
5.18	518	0.06	-0.063	-0.988	3.2085648	1.5469866	1.7761698	6.72652692	2.54393352	-18.3060081
5.19	519	0.065	-0.063	-0.986	2.4637194	1.3178034	1.4896908	6.75517482	2.55539268	-18.28881936
5.2	520	0.069	-0.065	-0.984	2.1772404	1.3750992	1.2032118	6.6749607	2.59549974	-18.28308978
5.21	521	0.072	-0.065	-0.985	1.8907614	1.6615782	1.0313244	6.69214944	2.61268848	-18.27163062
5.22	522	0.074	-0.066	-0.983	1.4896908	1.9480572	0.9167328	6.70933818	2.62987722	-18.26017146
5.23	523	0.076	-0.064	-0.983	1.2605076	2.5210152	0.9167328	6.72079734	2.65279554	-18.2487123
5.24	524	0.078	-0.06	-0.986	1.432395	2.6356068	0.859437	6.73798608	2.67571386	-18.23152356
5.25	525	0.078	-0.057	-0.985	1.6042824	2.578311	0.7448454	6.64058322	2.73873924	-18.23152356
5.26	526	0.081	-0.052	-0.984	1.6042824	2.578311	0.6875496	6.65777196	2.76165756	-18.2200644
5.27	527	0.083	-0.048	-0.983	1.7761698	2.291832	0.572958	6.6749607	2.78457588	-18.21433482
5.28	528	0.085	-0.045	-0.985	1.8334656	2.0626488	0.5156622	6.69214944	2.8074942	-18.20287566
5.29	529	0.085	-0.044	-0.989	1.8907614	1.6615782	0.4583664	6.70933818	2.81895336	-18.19714608
5.3	530	0.086	-0.049	-0.987	1.9480572	1.0886202	0.5156622	6.54318036	2.8934379	-18.20287566
5.31	531	0.083	-0.049	-0.986	1.7761698	0.6875496	0.5156622	6.5603691	2.89916748	-18.19714608
5.32	532	0.082	-0.05	-0.992	1.7761698	0.5156622	0.572958	6.58328742	2.90489706	-18.1914165
5.33	533	0.079	-0.051	-0.995	1.6615782	0.1718874	0.6875496	6.60047616	2.90489706	-18.18568692
5.34	534	0.072	-0.046	-0.991	1.145916	-0.0572958	0.6875496	6.61193532	2.90489706	-18.17422776
5.35	535	0.068	-0.039	-0.987	0.572958	-0.286479	0.572958	6.06189564	2.9507337	-18.20287566
5.36	536	0.063	-0.034	-0.987	0.8021412	-0.3437748	0.4010706	6.06762522	2.94500412	-18.19714608
5.37	537	0.065	-0.034	-0.989	1.4896908	-0.3437748	0.1145916	6.08481396	2.94500412	-18.19714608
5.38	538	0.069	-0.037	-0.99	2.005353	-0.1718874	0	6.1020027	2.93927454	-18.19714608
5.39	539	0.071	-0.041	-0.988	2.005353	-0.2291832	-0.0572958	6.12492102	2.93927454	-18.20287566
5.4	540	0.072	-0.044	-0.984	1.6042824	-0.4010706	-0.0572958	5.9014674	2.9793816	-18.2200644
5.41	541	0.071	-0.046	-0.985	1.3750992	-0.572958	0	5.91292656	2.97365202	-18.2200644
5.42	542	0.066	-0.049	-0.985	1.2032118	-0.8021412	0	5.92438572	2.96219286	-18.2200644
5.43	543	0.064	-0.049	-0.987	1.0886202	-0.6875496	0	5.93584488	2.95646328	-18.2200644
5.44	544	0.063	-0.048	-0.987	1.0886202	-0.286479	-0.0572958	5.94730404	2.9507337	-18.2200644
5.45	545	0.061	-0.048	-0.988	1.432395	0	-0.0572958	5.68374336	2.96219286	-18.23725314
5.46	546	0.06	-0.051	-0.989	1.4896908	0.0572958	0	5.69520252	2.96219286	-18.23725314
5.47	547	0.06	-0.054	-0.989	1.3750992	0.0572958	0.1718874	5.71239126	2.96219286	-18.23725314
5.48	548	0.06	-0.053	-0.991	1.3178034	0	0.3437748	5.72385042	2.96219286	-18.23152356
5.49	549	0.061	-0.052	-0.99	1.3178034	0	0.4583664	5.74103916	2.96219286	-18.23152356
5.5	550	0.06	-0.053	-0.99	1.0313244	0.1145916	0.5156622	5.51185596	2.96792244	-18.23725314
5.51	551	0.061	-0.054	-0.988	0.7448454	0.0572958	0.6302538	5.52331512	2.96792244	-18.23152356
5.52	552	0.059	-0.054	-0.982	0.6302538	0	0.572958	5.5290447	2.96792244	-18.2200644
5.53	553	0.057	-0.053	-0.979	0.6875496	0.2291832	0.572958	5.53477428	2.96792244	-18.21433482
5.54	554	0.057	-0.051	-0.979	0.7448454	0.6302538	0.5156622	5.54623344	2.97365202	-18.20860524
5.55	555	0.057	-0.047	-0.983	0.9167328	0.9167328	0.572958	5.39153478	2.9793816	-18.20860524
5.56	556	0.057	-0.046	-0.986	1.0886202	1.145916	0.4583664	5.40299394	2.99084076	-18.20287566
5.57	557	0.059	-0.047	-0.99	1.145916	1.3750992	0.4583664	5.4144531	3.0080295	-18.19714608
5.58	558	0.06	-0.049	-0.991	1.2032118	1.3178034	0.5156622	5.42591226	3.01948866	-18.1914165
5.59	559	0.062	-0.051	-0.991	1.2605076	1.0313244	0.5156622	5.43737142	3.03094782	-18.18568692
5.6	560	0.065	-0.052	-0.992	0.9167328	0.7448454	0.5156622	5.2425657	3.05386614	-18.1914165
5.61	561	0.066	-0.05	-0.985	0.572958	0.3437748	0.4010706	5.24829528	3.05959572	-18.18568692
5.62	562	0.068	-0.045	-0.979	0.6302538	0.4583664	0.6302538	5.25402486	3.0653253	-18.17995734
5.63	563	0.073	-0.042	-0.981	0.7448454	0.7448454	0.6875496	5.26548402	3.07105488	-18.16849818
5.64	564	0.074	-0.038	-0.981	0.8021412	0.7448454	0.6302538	5.2712136	3.07678446	-18.1627686
5.65	565	0.07	-0.035	-0.982	0.8021412	0.9167328	0.4583664	5.07640788	3.11689152	-18.16849818
5.66	566	0.071	-0.038	-0.986	1.145916	0.9167328	0.286479	5.08786704	3.1226211	-18.16849818
5.67	567	0.071	-0.043	-0.988	1.6042824	0.8021412	0.2291832	5.10505578	3.13408026	-18.1627686
5.68	568	0.073	-0.05	-0.986	1.8334656	0.6302538	0.1145916	5.12224452	3.13980984	-18.1627686
5.69	569	0.074	-0.055	-0.983	1.6042824	0.3437748	0.1145916	5.13943326	3.14553942	-18.15703902
5.7	570	0.075	-0.057	-0.983	1.2032118	0.1145916	0.1145916	4.91025006	3.2085648	-18.17422776
5.71	571	0.076	-0.055	-0.983	1.0313244	-0.0572958	0.1718874	4.91597964	3.2085648	-18.17422776
5.72	572	0.078	-0.051	-0.983	0.9167328	-0.1145916	0.286479	4.9274388	3.2085648	-18.16849818
5.73	573	0.074	-0.047	-0.986	0.8021412	-0.1145916	0.3437748	4.93889796	3.20283522	-18.16849818
5.74	574	0.071	-0.045	-0.987	0.5156622	-0.2291832	0.286479	4.94462754	3.20283522	-18.1627686
5.75	575	0.069	-0.043	-0.985	0.6302538	0	0.1718874	4.6123119	3.2372127	-18.17995734
5.76	576	0.07	-0.044	-0.984	0.859437	0.0572958	0.0572958	4.62377106	3.24294228	-18.17995734
5.77	577	0.07	-0.044	-0.981	0.859437	0.0572958	0	4.63523022	3.24294228	-18.17995734
5.78	578	0.071	-0.044	-0.976	0.8021412	-0.1718874	-0.0572958	4.6409598	3.2372127	-18.17995734
5.79	579	0.071	-0.043	-0.975	0.7448454	-0.2291832	-0.0572958	4.64668938	3.2372127	-18.18568692
5.8	580	0.072	-0.042	-0.978	0.9167328	-0.2291832	-0.0572958	4.45761324	3.2658606	-18.19714608
5.81	581	0.071	-0.042	-0.983	1.0886202	-0.286479	-0.0572958	4.4690724	3.2658606	-18.20287566
5.82	582	0.069	-0.043	-0.986	1.0886202	-0.2291832	-0.0572958	4.47480198	3.26013102	-18.20287566
5.83	583	0.067	-0.043	-0.988	1.145916	-0.0572958	0	4.49199072	3.26013102	-18.20287566
5.84	584	0.064	-0.045	-0.99	1.0313244	-0.0572958	0.0572958	4.4977203	3.26013102	-18.20287566
5.85	585	0.067	-0.047	-0.991	0.859437	-0.2291832	0.0572958	4.29145542	3.2658606	-18.21433482
5.86	586	0.067	-0.047	-0.991	0.9167328	-0.4010706	0.1145916	4.30291458	3.2658606	-18.21433482
5.87	587	0.068	-0.046	-0.991	0.9167328	-0.5156622	0.0572958	4.31437374	3.26013102	-18.21433482
5.88	588	0.069	-0.047	-0.989	0.9740286	-0.6302538	0.0572958	4.32010332	3.25440144	-18.21433482
5.89	589	0.068	-0.048	-0.988	1.0886202	-0.6875496	0	4.33156248	3.24294228	-18.21433482
5.9	590	0.068	-0.048	-0.987	1.0313244	-0.6302538	0.0572958	4.18832298	3.25440144	-18.22579398
5.91	591	0.067	-0.046	-0.988	1.0886202	-0.5156622	0.0572958	4.19978214	3.24867186	-18.2200644
5.92	592	0.065	-0.046	-0.989	1.145916	-0.4583664	0.0572958	4.2112413	3.24294228	-18.2200644
5.93	593	0.063	-0.043	-0.987	1.0313244	-0.3437748	0.0572958	4.22270046	3.24294228	-18.2200644
5.94	594	0.064	-0.045	-0.987	0.9740286	-0.1718874	0	4.23415962	3.2372127	-18.2200644
5.95	595	0.065	-0.045	-0.987	1.145916	-0.0572958	0	4.06227222	3.24867186	-18.23152356
5.96	596	0.067	-0.044	-0.987	1.3750992	0	0	4.07946096	3.24867186	-18.23152356
5.97	597	0.068	-0.044	-0.986	1.3750992	0	-0.0572958	4.09092012	3.24867186	-18.23725314
5.98	598	0.07	-0.041	-0.986	1.3750992	0.1718874	0	4.10810886	3.24867186	-18.23725314
5.99	599	0.071	-0.042	-0.987	1.3178034	0.1718874	0.0572958	4.11956802	3.25440144	-18.23152356
6	600	0.071	-0.04	-0.992	1.3750992	0.286479	0.1718874	4.00497642	3.27159018	-18.24298272
6.01	601	0.068	-0.043	-0.992	1.432395	0.0572958	0.286479	4.01643558	3.27159018	-18.23725314
6.02	602	0.067	-0.046	-0.989	1.3750992	-0.0572958	0.2291832	4.03362432	3.27159018	-18.23725314
6.03	603	0.067	-0.047	-0.988	1.3178034	-0.0572958	0.1718874	4.04508348	3.27159018	-18.23152356
6.04	604	0.068	-0.048	-0.988	1.3178034	0	0.1145916	4.06227222	3.27159018	-18.23152356
6.05	605	0.067	-0.048	-0.985	1.145916	-0.1145916	0	3.90184398	3.28304934	-18.24298272
6.06	606	0.067	-0.046	-0.984	0.8021412	-0.1145916	0	3.90757356	3.28304934	-18.24298272
6.07	607	0.07	-0.043	-0.985	-0.0572958	0	-0.2291832	3.90757356	3.28304934	-18.2487123
6.08	608	0.072	-0.042	-0.986	-0.0572958	0.1718874	-0.1718874	3.90757356	3.28304934	-18.2487123
6.09	609	0.073	-0.041	-0.986	0	0	-0.0572958	3.90757356	3.28304934	-18.2487123
6.1	610	0.071	-0.042	-0.987	0	0	-0.0572958	2.84187168	3.44920716	-18.31746726
6.11	611	0.072	-0.043	-0.991	0	-0.286479	0	2.84187168	3.44920716	-18.32319684
6.12	612	0.071	-0.046	-0.99	-0.0572958	-0.4010706	0	2.84187168	3.44347758	-18.32319684
6.13	613	0.068	-0.044	-0.989	0	-0.4010706	0	2.84187168	3.437748	-18.32319684
6.14	614	0.067	-0.044	-0.988	0.0572958	-0.4010706	-0.0572958	2.84187168	3.43201842	-18.32319684
6.15	615	0.066	-0.045	-0.987	0	-0.3437748	-0.2291832	2.578311	3.43201842	-18.34038558
6.16	616	0.069	-0.043	-0.987	-0.2291832	0	-0.286479	2.578311	3.43201842	-18.34611516
6.17	617	0.069	-0.041	-0.988	-0.2291832	0.1145916	-0.2291832	2.57258142	3.43201842	-18.34611516
6.18	618	0.07	-0.04	-0.987	-0.0572958	0.1145916	-0.1718874	2.57258142	3.437748	-18.35184474
6.19	619	0.07	-0.041	-0.988	0	0.3437748	0	2.57258142	3.437748	-18.35184474
6.2	620	0.071	-0.044	-0.988	0	0.3437748	0	2.42934192	3.47785506	-18.35757432
6.21	621	0.071	-0.046	-0.986	0	0.2291832	0.1145916	2.42934192	3.47785506	-18.35757432
6.22	622	0.07	-0.048	-0.985	0	0.0572958	0.0572958	2.4350715	3.47785506	-18.35757432
6.23	623	0.07	-0.046	-0.986	0	-0.0572958	0.1145916	2.4350715	3.47785506	-18.35184474
6.24	624	0.069	-0.045	-0.986	0	-0.1145916	0.1145916	2.42934192	3.47785506	-18.35184474
6.25	625	0.067	-0.042	-0.985	0	-0.1145916	0	2.22880662	3.47212548	-18.36903348
6.26	626	0.066	-0.041	-0.988	0	-0.0572958	0	2.22880662	3.47212548	-18.36903348
6.27	627	0.066	-0.04	-0.989	-0.1145916	-0.1718874	0	2.22880662	3.47212548	-18.36903348
6.28	628	0.066	-0.04	-0.992	-0.1718874	-0.1145916	0	2.22880662	3.47212548	-18.36903348
6.29	629	0.067	-0.04	-0.99	-0.1145916	-0.1718874	0	2.22307704	3.4663959	-18.36903348
6.3	630	0.067	-0.044	-0.988	-0.1145916	-0.1718874	0	2.10848544	3.4663959	-18.37476306
6.31	631	0.068	-0.043	-0.987	-0.2291832	0	0	2.10275586	3.4663959	-18.37476306
6.32	632	0.068	-0.042	-0.987	-0.0572958	0	0	2.10275586	3.4663959	-18.37476306
6.33	633	0.067	-0.041	-0.99	0.0572958	0	0	2.10848544	3.4663959	-18.37476306
6.34	634	0.068	-0.043	-0.989	0.1718874	0.0572958	0.0572958	2.10848544	3.4663959	-18.37476306
6.35	635	0.067	-0.042	-0.989	0	0.1145916	0.0572958	1.98816426	3.47212548	-18.38049264
6.36	636	0.069	-0.042	-0.99	0	0.1718874	0.0572958	1.98816426	3.47212548	-18.38049264
6.37	637	0.068	-0.042	-0.989	0.1718874	0.1145916	0	1.98816426	3.47212548	-18.38049264
6.38	638	0.067	-0.041	-0.987	0	0.1145916	0.0572958	1.98816426	3.47212548	-18.38049264
6.39	639	0.068	-0.043	-0.985	0	0	0.0572958	1.98816426	3.47212548	-18.38049264
6.4	640	0.067	-0.044	-0.984	0	0	0.0572958	1.9194093	3.4663959	-18.38622222
6.41	641	0.067	-0.043	-0.984	-0.0572958	0	0	1.9194093	3.4663959	-18.38622222
6.42	642	0.067	-0.043	-0.986	-0.1145916	0	0.0572958	1.91367972	3.4663959	-18.38049264
6.43	643	0.068	-0.042	-0.987	-0.1718874	0	0.0572958	1.91367972	3.4663959	-18.38049264
6.44	644	0.069	-0.04	-0.987	0	0	0.0572958	1.91367972	3.4663959	-18.38049264
6.45	645	0.07	-0.04	-0.988	-0.1718874	0.0572958	0	1.79908812	3.48358464	-18.38622222
6.46	646	0.068	-0.04	-0.987	-0.2291832	0.1145916	0	1.79908812	3.48358464	-18.38622222
6.47	647	0.068	-0.041	-0.987	-0.0572958	0.1145916	0	1.79335854	3.48358464	-18.38622222
6.48	648	0.07	-0.044	-0.986	-0.0572958	0	-0.0572958	1.79335854	3.48358464	-18.38622222
6.49	649	0.07	-0.044	-0.986	0	0	0	1.79335854	3.48358464	-18.38622222
6.5	650	0.071	-0.041	-0.985	0	0.1145916	0.0572958	1.74179232	3.50077338	-18.3919518
6.51	651	0.071	-0.038	-0.986	0	0.2291832	0.286479	1.74179232	3.50650296	-18.38622222
6.52	652	0.07	-0.039	-0.987	-0.0572958	0.286479	0.3437748	1.74179232	3.50650296	-18.38622222
6.53	653	0.068	-0.036	-0.986	-0.1145916	0.286479	0.3437748	1.74179232	3.51223254	-18.38049264
6.54	654	0.066	-0.037	-0.983	-0.1145916	0.4010706	0.286479	1.73606274	3.51796212	-18.37476306
6.55	655	0.065	-0.039	-0.985	0	0.6875496	0.1718874	1.70741484	3.5236917	-18.37476306
6.56	656	0.068	-0.042	-0.986	0	0.9167328	0.2291832	1.70741484	3.52942128	-18.37476306
6.57	657	0.068	-0.045	-0.982	-0.1718874	0.6875496	0	1.70168526	3.53515086	-18.36903348
6.58	658	0.068	-0.046	-0.979	-0.3437748	0.4010706	0	1.70168526	3.54088044	-18.36903348
6.59	659	0.069	-0.046	-0.983	-0.4583664	0.4010706	-0.0572958	1.69595568	3.54661002	-18.37476306
6.6	660	0.072	-0.045	-0.99	-0.4010706	0.3437748	0	1.6615782	3.56379876	-18.37476306
6.61	661	0.073	-0.042	-0.993	-0.4583664	0.2291832	0.0572958	1.65584862	3.56952834	-18.37476306
6.62	662	0.072	-0.039	-0.991	-0.572958	0.2291832	0	1.65011904	3.56952834	-18.37476306
6.63	663	0.073	-0.039	-0.992	-0.1718874	0.1718874	0	1.65011904	3.57525792	-18.37476306
6.64	664	0.073	-0.038	-0.992	0.0572958	0.2291832	-0.1718874	1.65011904	3.57525792	-18.37476306
6.65	665	0.074	-0.039	-0.989	0.286479	0	-0.2291832	1.61001198	3.58671708	-18.38049264
6.66	666	0.072	-0.037	-0.986	0.286479	-0.1718874	-0.1145916	1.61574156	3.58671708	-18.38049264
6.67	667	0.071	-0.038	-0.984	0.3437748	-0.3437748	-0.1145916	1.61574156	3.5809875	-18.38622222
6.68	668	0.07	-0.036	-0.984	0.286479	-0.3437748	-0.1718874	1.62147114	3.5809875	-18.38622222
6.69	669	0.069	-0.037	-0.985	0.3437748	-0.286479	-0.1145916	1.62720072	3.57525792	-18.38622222
6.7	670	0.067	-0.035	-0.983	0.1718874	-0.1145916	-0.1145916	1.55844576	3.56952834	-18.3919518
6.71	671	0.067	-0.035	-0.985	0.1145916	0	-0.1718874	1.56417534	3.56952834	-18.39768138
6.72	672	0.07	-0.034	-0.988	0	0.1718874	-0.2291832	1.55844576	3.56952834	-18.39768138
6.73	673	0.072	-0.035	-0.991	0	0.1718874	-0.1718874	1.55844576	3.56952834	-18.39768138
6.74	674	0.072	-0.036	-0.989	0	0	-0.0572958	1.55844576	3.56952834	-18.39768138
6.75	675	0.072	-0.038	-0.99	0	-0.286479	-0.0572958	1.52406828	3.5809875	-18.40341096
6.76	676	0.072	-0.041	-0.991	0.0572958	-0.4010706	0	1.52406828	3.57525792	-18.40341096
6.77	677	0.073	-0.042	-0.99	0.1718874	-0.5156622	0	1.52979786	3.56952834	-18.40341096
6.78	678	0.072	-0.043	-0.989	0.286479	-0.4583664	0	1.52979786	3.56379876	-18.40341096
6.79	679	0.071	-0.044	-0.988	0.1145916	-0.2291832	-0.0572958	1.53552744	3.56379876	-18.40341096
6.8	680	0.07	-0.044	-0.986	0	-0.286479	-0.1145916	1.5183387	3.56379876	-18.40914054
6.81	681	0.071	-0.043	-0.985	-0.0572958	-0.1718874	-0.1145916	1.5183387	3.56379876	-18.40914054
6.82	682	0.07	-0.041	-0.987	0	-0.1145916	-0.1145916	1.5183387	3.56379876	-18.40914054
6.83	683	0.069	-0.039	-0.987	-0.0572958	-0.1718874	-0.1145916	1.5183387	3.56379876	-18.41487012
6.84	684	0.068	-0.038	-0.987	-0.1145916	-0.1145916	-0.1145916	1.51260912	3.55806918	-18.41487012
6.85	685	0.068	-0.038	-0.986	-0.1718874	-0.1145916	0	1.4610429	3.5523396	-18.4205997
6.86	686	0.068	-0.037	-0.985	-0.2291832	-0.0572958	0.0572958	1.4610429	3.5523396	-18.41487012
6.87	687	0.069	-0.037	-0.987	0	-0.1718874	0.1145916	1.4610429	3.54661002	-18.41487012
6.88	688	0.07	-0.036	-0.988	0.0572958	-0.0572958	0.1145916	1.4610429	3.54661002	-18.41487012
6.89	689	0.07	-0.035	-0.988	0.1718874	0.0572958	0.1718874	1.4610429	3.54661002	-18.41487012
6.9	690	0.071	-0.035	-0.991	0.2291832	0.0572958	0.0572958	1.39801752	3.56379876	-18.41487012
6.91	691	0.071	-0.035	-0.989	0.286479	0.2291832	0	1.39801752	3.56379876	-18.41487012
6.92	692	0.072	-0.037	-0.989	0.5156622	0.2291832	0	1.4037471	3.56952834	-18.41487012
6.93	693	0.073	-0.04	-0.986	0.4010706	0.0572958	0	1.40947668	3.56952834	-18.41487012
6.94	694	0.073	-0.041	-0.985	0.3437748	-0.0572958	0	1.40947668	3.56952834	-18.41487012
6.95	695	0.071	-0.041	-0.984	0.0572958	0	0	1.35791046	3.59244666	-18.4205997
6.96	696	0.07	-0.039	-0.986	0.0572958	-0.0572958	0	1.35791046	3.59244666	-18.4205997
6.97	697	0.07	-0.038	-0.987	0.0572958	-0.0572958	0	1.35791046	3.59244666	-18.4205997
6.98	698	0.068	-0.037	-0.989	0.0572958	-0.0572958	0	1.35791046	3.58671708	-18.4205997
6.99	699	0.066	-0.037	-0.986	-0.1145916	-0.1718874	-0.0572958	1.35791046	3.58671708	-18.4205997
7	700	0.067	-0.037	-0.986	-0.286479	-0.1145916	-0.1145916	1.32353298	3.57525792	-18.42632928
7.01	701	0.069	-0.037	-0.988	-0.4010706	0	-0.1718874	1.3178034	3.57525792	-18.42632928
7.02	702	0.069	-0.036	-0.99	-0.1718874	-0.0572958	-0.1145916	1.31207382	3.57525792	-18.42632928
7.03	703	0.07	-0.037	-0.989	-0.0572958	0	-0.1145916	1.31207382	3.57525792	-18.42632928
7.04	704	0.073	-0.036	-0.989	0.0572958	0	0	1.31207382	3.57525792	-18.42632928
7.05	705	0.074	-0.037	-0.989	0.1145916	0	0	1.26623718	3.60390582	-18.43205886
7.06	706	0.075	-0.038	-0.988	0.1145916	-0.0572958	0	1.27196676	3.60390582	-18.43205886
7.07	707	0.074	-0.041	-0.987	-0.0572958	-0.2291832	0.0572958	1.26623718	3.60390582	-18.43205886
7.08	708	0.073	-0.04	-0.987	-0.3437748	-0.3437748	0.1718874	1.26623718	3.59817624	-18.42632928
7.09	709	0.071	-0.039	-0.988	-0.4583664	-0.4010706	0.1145916	1.2605076	3.59244666	-18.42632928
7.1	710	0.069	-0.039	-0.99	-0.3437748	-0.286479	0.1718874	1.24904844	3.58671708	-18.42632928
