TimeStamp(s)	FrameCounter	AccX	AccY	AccZ	GyrX	GyrY	GyrZ	EulerX	EulerY	EulerZ
0.01	1	-0.031	-1.001	0.118	0.9167328	-0.5156622	-0.2291832	95.78711844	-2.47517856	-39.4768062
0.02	2	-0.023	-1.003	0.116	1.2032118	-0.572958	-0.4583664	95.7985776	-2.46944898	-39.4768062
0.03	3	-0.022	-1.002	0.116	1.2605076	-0.3437748	-0.4010706	95.81576634	-2.4637194	-39.48253578
0.04	4	-0.022	-1.002	0.118	1.145916	-0.286479	-0.4010706	95.8272255	-2.45798982	-39.48826536
0.05	5	-0.022	-1.004	0.12	0.9740286	-0.2291832	-0.4010706	95.8272255	-2.41215318	-39.48826536
0.06	6	-0.02	-1.007	0.118	0.859437	-0.1718874	-0.3437748	95.83868466	-2.4064236	-39.49399494
0.07	7	-0.018	-1.008	0.117	0.859437	-0.4583664	-0.1145916	95.84441424	-2.4064236	-39.49399494
0.08	8	-0.017	-1.005	0.115	0.8021412	-0.6875496	0	95.8558734	-2.4064236	-39.49972452
0.09	9	-0.02	-1.004	0.12	0.6302538	-0.859437	0.0572958	95.86160298	-2.40069402	-39.51118368
0.1	10	-0.018	-1.004	0.127	0.2291832	-0.3437748	0.0572958	95.89598046	-2.24599536	-39.52264284
0.11	11	-0.016	-1.006	0.131	-0.1718874	-0.0572958	0.1145916	95.89025088	-2.25172494	-39.52837242
0.12	12	-0.016	-1.009	0.132	-0.7448454	0	0.2291832	95.8845213	-2.25172494	-39.52837242
0.13	13	-0.015	-1.012	0.127	-0.8021412	0	0.1145916	95.87306214	-2.25172494	-39.52837242
0.14	14	-0.016	-1.019	0.123	-0.6875496	-0.1145916	0.1145916	95.86733256	-2.25745452	-39.52837242
0.15	15	-0.017	-1.022	0.124	-0.572958	-0.3437748	0.0572958	95.86160298	-2.20015872	-39.534102
0.16	16	-0.018	-1.016	0.124	-0.6875496	-0.6302538	0.1145916	95.85014382	-2.2058883	-39.53983158
0.17	17	-0.018	-1.003	0.125	-0.572958	-0.9167328	0.1145916	95.84441424	-2.2058883	-39.55129074
0.18	18	-0.019	-0.995	0.126	-0.5156622	-0.9740286	0.1718874	95.84441424	-2.2058883	-39.5627499
0.19	19	-0.018	-0.994	0.124	-0.572958	-0.9167328	0.286479	95.83868466	-2.2058883	-39.56847948
0.2	20	-0.021	-0.993	0.124	-0.6302538	-0.9740286	0.3437748	95.83295508	-2.18296998	-39.58566822
0.21	21	-0.023	-0.998	0.121	-0.5156622	-0.8021412	0.286479	95.8272255	-2.18296998	-39.5913978
0.22	22	-0.027	-1.003	0.113	-0.572958	-0.4583664	0.1718874	95.82149592	-2.18869956	-39.59712738
0.23	23	-0.028	-1.004	0.102	-0.5156622	-0.286479	0.1145916	95.81576634	-2.18869956	-39.59712738
0.24	24	-0.026	-1.006	0.099	-0.4010706	-0.286479	0.1718874	95.81003676	-2.18869956	-39.60285696
0.25	25	-0.019	-1.003	0.105	-0.7448454	-0.4583664	0.5156622	95.78711844	-2.16578124	-39.60858654
0.26	26	-0.014	-1.003	0.105	-1.2605076	-0.6302538	0.9167328	95.7699297	-2.17151082	-39.6200457
0.27	27	-0.014	-1.003	0.102	-1.8907614	-0.859437	1.145916	95.75274096	-2.18296998	-39.62577528
0.28	28	-0.018	-1.005	0.098	-1.9480572	-0.8021412	1.3178034	95.73555222	-2.19442914	-39.63723444
0.29	29	-0.021	-1.013	0.1	-1.6615782	-0.8021412	1.3750992	95.71836348	-2.2058883	-39.6486936
0.3	30	-0.024	-1.019	0.104	-1.9480572	-0.572958	1.3178034	95.683986	-2.2058883	-39.65442318
0.31	31	-0.021	-1.017	0.105	-2.3491278	-0.2291832	1.0886202	95.66106768	-2.21734746	-39.66015276
0.32	32	-0.018	-1.017	0.106	-2.7501984	-0.1718874	1.0313244	95.63241978	-2.22880662	-39.66588234
0.33	33	-0.017	-1.018	0.11	-3.2658606	-0.5156622	1.145916	95.5980423	-2.24026578	-39.67161192
0.34	34	-0.017	-1.016	0.111	-3.3804522	-0.7448454	1.2032118	95.56366482	-2.25172494	-39.6773415
0.35	35	-0.019	-1.016	0.111	-3.2658606	-0.8021412	1.145916	95.52928734	-2.25172494	-39.68880066
0.36	36	-0.02	-1.013	0.113	-3.2658606	-0.8021412	1.0313244	95.49490986	-2.25745452	-39.70025982
0.37	37	-0.02	-1.004	0.11	-3.3231564	-0.859437	0.6875496	95.46053238	-2.2631841	-39.71171898
0.38	38	-0.018	-0.998	0.112	-3.437748	-0.859437	0.4583664	95.4261549	-2.26891368	-39.71744856
0.39	39	-0.019	-0.991	0.112	-3.6096354	-0.859437	0.3437748	95.39177742	-2.27464326	-39.72890772
0.4	40	-0.021	-0.988	0.112	-3.3231564	-0.7448454	0.3437748	95.35739994	-2.2631841	-39.7346373
0.41	41	-0.023	-0.989	0.111	-2.7501984	-0.4010706	0.4010706	95.32875204	-2.2631841	-39.74036688
0.42	42	-0.027	-0.991	0.112	-2.0626488	-0.1145916	0.3437748	95.30583372	-2.26891368	-39.74609646
0.43	43	-0.027	-0.991	0.113	-1.6042824	0.286479	0.2291832	95.28864498	-2.26891368	-39.74036688
0.44	44	-0.032	-0.991	0.118	-1.0886202	0.8021412	0	95.27718582	-2.27464326	-39.7346373
0.45	45	-0.029	-0.993	0.121	-1.2605076	1.2032118	0	95.27145624	-2.25745452	-39.72317814
0.46	46	-0.027	-0.989	0.119	-1.145916	1.2032118	0.0572958	95.25999708	-2.25745452	-39.71171898
0.47	47	-0.027	-0.996	0.119	-0.9167328	0.859437	0.1145916	95.24853792	-2.2631841	-39.70025982
0.48	48	-0.026	-1.009	0.121	-1.145916	0.6875496	0.1145916	95.23707876	-2.2631841	-39.69453024
0.49	49	-0.025	-1.017	0.116	-1.5469866	0.9167328	-0.1718874	95.21989002	-2.2631841	-39.68307108
0.5	50	-0.026	-1.021	0.107	-2.005353	1.2032118	-0.572958	95.19124212	-2.24599536	-39.67161192
0.51	51	-0.027	-1.022	0.1	-2.3491278	1.145916	-0.9167328	95.1683238	-2.24026578	-39.66015276
0.52	52	-0.03	-1.017	0.093	-2.6356068	0.859437	-1.0313244	95.1396759	-2.22880662	-39.65442318
0.53	53	-0.032	-1.011	0.09	-2.8074942	0.572958	-0.9167328	95.111028	-2.22307704	-39.6486936
0.54	54	-0.03	-1.005	0.091	-2.9220858	0.4583664	-0.6875496	95.07665052	-2.21734746	-39.64296402
0.55	55	-0.027	-1.004	0.098	-2.86479	0.1145916	-0.4583664	95.04227304	-2.19442914	-39.64296402
0.56	56	-0.025	-1.012	0.105	-2.8074942	-0.3437748	-0.4583664	95.01362514	-2.18869956	-39.64296402
0.57	57	-0.023	-1.021	0.109	-2.86479	-0.6875496	-0.6302538	94.98497724	-2.18296998	-39.6486936
0.58	58	-0.02	-1.029	0.106	-3.4950438	-1.0313244	-0.9167328	94.95059976	-2.17151082	-39.66015276
0.59	59	-0.022	-1.033	0.099	-4.2398892	-1.4896908	-1.145916	94.90476312	-2.16005166	-39.6773415
0.6	60	-0.026	-1.028	0.092	-5.0420304	-1.9480572	-1.3178034	94.84746732	-2.14286292	-39.69453024
0.61	61	-0.032	-1.019	0.088	-5.3285094	-2.1772404	-1.7761698	94.7959011	-2.1199446	-39.71744856
0.62	62	-0.033	-1.011	0.086	-5.2712136	-1.4896908	-2.3491278	94.74433488	-2.09702628	-39.72890772
0.63	63	-0.033	-1.013	0.09	-5.156622	-0.6302538	-2.7501984	94.68703908	-2.06837838	-39.7346373
0.64	64	-0.027	-1.021	0.097	-4.870143	0	-3.0366774	94.64120244	-2.03973048	-39.72890772
0.65	65	-0.022	-1.024	0.103	-4.870143	0	-3.151269	94.58963622	-1.99962342	-39.72890772
0.66	66	-0.019	-1.029	0.104	-5.3285094	-0.1145916	-2.9220858	94.53234042	-1.97097552	-39.72890772
0.67	67	-0.014	-1.024	0.105	-6.0733548	-0.1145916	-2.7501984	94.47504462	-1.94232762	-39.72890772
0.68	68	-0.016	-1.028	0.112	-6.589017	-0.0572958	-2.8074942	94.40628966	-1.91367972	-39.72890772
0.69	69	-0.013	-1.025	0.111	-8.2505952	0	-2.578311	94.32034596	-1.8907614	-39.72890772
0.7	70	-0.017	-1.033	0.104	-8.8235532	-0.2291832	-2.291832	94.23440226	-1.8621135	-39.72890772
0.71	71	-0.018	-1.035	0.105	-9.8548776	-0.5156622	-1.9480572	94.1369994	-1.84492476	-39.7346373
0.72	72	-0.016	-1.042	0.099	-10.026765	-0.4583664	-1.6615782	94.03386696	-1.82773602	-39.74036688
0.73	73	-0.021	-1.044	0.095	-10.6570188	-0.2291832	-1.3178034	93.92500494	-1.81627686	-39.74036688
0.74	74	-0.02	-1.043	0.086	-10.886202	0.1718874	-1.3178034	93.81614292	-1.79908812	-39.74036688
0.75	75	-0.017	-1.035	0.083	-11.4018642	0.4583664	-1.432395	93.69582174	-1.78189938	-39.7346373
0.76	76	-0.013	-1.027	0.082	-11.172681	0.1718874	-1.4896908	93.58123014	-1.77044022	-39.7346373
0.77	77	-0.012	-1.013	0.08	-11.4018642	-0.2291832	-1.4896908	93.46663854	-1.75325148	-39.74036688
0.78	78	-0.014	-0.997	0.08	-11.5164558	-0.6302538	-1.2605076	93.34631736	-1.74179232	-39.74609646
0.79	79	-0.016	-0.991	0.083	-11.2872726	-0.6875496	-1.0886202	93.23172576	-1.73033316	-39.75182604
0.8	80	-0.015	-0.992	0.083	-11.172681	-0.4583664	-0.9167328	93.12286374	-1.718874	-39.75755562
0.81	81	-0.019	-0.991	0.075	-11.1153852	-0.1145916	-0.9740286	93.00827214	-1.71314442	-39.7632852
0.82	82	-0.021	-1.005	0.067	-11.1153852	0.286479	-1.2032118	92.89368054	-1.70168526	-39.75755562
0.83	83	-0.022	-1.004	0.069	-11.45916	0.859437	-1.5469866	92.77908894	-1.68449652	-39.75182604
0.84	84	-0.019	-0.997	0.063	-11.5164558	1.0313244	-1.3178034	92.66449734	-1.67303736	-39.74036688
0.85	85	-0.014	-0.995	0.062	-11.45916	0.8021412	-0.859437	92.54417616	-1.6615782	-39.7346373
0.86	86	-0.021	-0.997	0.056	-10.8289062	0.572958	-0.4010706	92.43531414	-1.6615782	-39.72890772
0.87	87	-0.006	-0.989	0.069	-10.9434978	0.572958	-0.3437748	92.32072254	-1.65584862	-39.72317814
0.88	88	-0.009	-1.012	0.059	-10.1986524	0.6875496	0.2291832	92.2175901	-1.6615782	-39.71744856
0.89	89	-0.008	-1.028	0.055	-10.7143146	-0.1145916	0.859437	92.10872808	-1.66730778	-39.72317814
0.9	90	-0.024	-1.024	0.057	-11.0580894	-1.0886202	1.0313244	91.99413648	-1.67876694	-39.7346373
0.91	91	-0.027	-1.032	0.059	-11.8602306	-0.1718874	1.0313244	91.8738153	-1.6902261	-39.74036688
0.92	92	-0.034	-1.005	0.053	-12.605076	0.8021412	0.4583664	91.74776454	-1.69595568	-39.7346373
0.93	93	-0.032	-0.979	0.054	-12.0894138	2.2345362	-0.0572958	91.62171378	-1.69595568	-39.71171898
0.94	94	-0.038	-0.974	0.057	-11.2299768	3.0366774	-0.1145916	91.50712218	-1.69595568	-39.68307108
0.95	95	-0.029	-0.984	0.056	-10.2559482	4.010706	0.3437748	91.40398974	-1.70168526	-39.64296402
0.96	96	-0.016	-1.013	0.051	-9.453807	4.6982556	1.0313244	91.30658688	-1.718874	-39.59712738
0.97	97	-0.003	-1.023	0.034	-10.4851314	4.870143	1.3178034	91.19772486	-1.73033316	-39.55129074
0.98	98	0	-1.007	0.026	-11.6883432	3.8388186	1.4896908	91.07740368	-1.75325148	-39.51691326
0.99	99	0.003	-0.969	0.022	-12.4904844	2.5210152	1.5469866	90.95135292	-1.77044022	-39.49399494
1	100	0.005	-0.943	0.027	-12.1467096	1.3178034	1.2032118	90.82530216	-1.7761698	-39.48253578
1.01	101	0.004	-0.948	0.035	-10.886202	0	0.7448454	90.71644014	-1.78189938	-39.48253578
1.02	102	0.001	-0.983	0.036	-10.026765	-0.9740286	0.5156622	90.6133077	-1.78762896	-39.49399494
1.03	103	-0.002	-1.022	0.03	-10.1413566	-1.8907614	0.3437748	90.51017526	-1.79335854	-39.51118368
1.04	104	-0.014	-1.057	0.032	-10.5424272	-3.2658606	0.1718874	90.40704282	-1.79335854	-39.54556116
1.05	105	-0.03	-1.072	0.026	-11.172681	-4.6409598	-0.0572958	90.29245122	-1.79335854	-39.5913978
1.06	106	-0.037	-1.075	0.012	-11.9748222	-4.6982556	-0.5156622	90.17213004	-1.78762896	-39.64296402
1.07	107	-0.041	-1.078	0.007	-11.8602306	-4.2398892	-1.0886202	90.05180886	-1.7761698	-39.68307108
1.08	108	-0.044	-1.087	0.014	-11.172681	-3.2658606	-1.6042824	89.94294684	-1.75898106	-39.71744856
1.09	109	-0.04	-1.094	0.012	-10.8289062	-1.5469866	-1.9480572	89.83408482	-1.73606274	-39.7346373
1.1	110	-0.04	-1.1	0.014	-11.172681	-0.0572958	-2.2345362	89.71949322	-1.718874	-39.74036688
1.11	111	-0.039	-1.092	0.01	-12.4904844	1.2032118	-2.3491278	89.58771288	-1.69595568	-39.72890772
1.12	112	-0.037	-1.089	0.016	-13.464513	1.9480572	-2.1199446	89.45020296	-1.67303736	-39.71171898
1.13	113	-0.039	-1.111	0.031	-13.6936962	1.2605076	-2.1772404	89.31269304	-1.65584862	-39.70025982
1.14	114	-0.041	-1.088	0.028	-16.042824	0.2291832	-1.4896908	89.14653522	-1.63865988	-39.70025982
1.15	115	-0.047	-1.097	0.021	-17.1314442	0.0572958	-1.145916	88.97464782	-1.6329303	-39.70025982
1.16	116	-0.042	-1.081	0.013	-18.9649098	0.1145916	-0.9740286	88.78557168	-1.62147114	-39.70025982
1.17	117	-0.029	-1.059	0.008	-19.6524594	-0.2291832	-0.6302538	88.58503638	-1.62147114	-39.7059894
1.18	118	-0.017	-1.061	0.012	-20.626488	-1.3178034	-0.8021412	88.37304192	-1.61001198	-39.72317814
1.19	119	-0.007	-1.048	0.021	-22.345362	-2.0626488	-1.0886202	88.1495883	-1.6042824	-39.74609646
1.2	120	0	-1.062	0.037	-22.631841	-2.6356068	-1.718874	87.92613468	-1.58136408	-39.77474436
1.21	121	-0.004	-1.073	0.043	-23.8350528	-3.6096354	-2.9793816	87.68549232	-1.55844576	-39.81485142
1.22	122	-0.015	-1.079	0.042	-25.496631	-2.9220858	-3.724227	87.42766122	-1.52406828	-39.8492289
1.23	123	-0.025	-1.074	0.04	-26.929026	-1.432395	-3.7815228	87.15837096	-1.4896908	-39.86641764
1.24	124	-0.025	-1.053	0.03	-27.6165756	-0.859437	-3.3804522	86.87762154	-1.45531332	-39.88360638
1.25	125	-0.018	-1.044	0.011	-28.074942	-0.9740286	-2.86479	86.59687212	-1.42666542	-39.89506554
1.26	126	-0.015	-1.043	-0.016	-28.6479	-0.8021412	-2.6356068	86.30466354	-1.4037471	-39.9065247
1.27	127	-0.017	-1.054	-0.024	-29.3354496	-1.145916	-2.8074942	86.00672538	-1.38082878	-39.92371344
1.28	128	-0.019	-1.074	-0.03	-30.366774	-2.4637194	-2.8074942	85.69732806	-1.35218088	-39.95236134
1.29	129	-0.036	-1.11	-0.051	-31.8564648	-3.724227	-2.7501984	85.37647158	-1.32926256	-39.99819798
1.3	130	-0.052	-1.133	-0.06	-33.1169724	-2.4064236	-2.0626488	85.04415594	-1.3178034	-40.02684588
1.31	131	-0.052	-1.145	-0.065	-33.9764094	0.572958	-0.8021412	84.70038114	-1.31207382	-40.02684588
1.32	132	-0.048	-1.145	-0.066	-34.4920716	2.0626488	0.0572958	84.34514718	-1.31207382	-40.00965714
1.33	133	-0.042	-1.141	-0.072	-34.4920716	1.6042824	0.3437748	83.9956428	-1.3178034	-39.9924684
1.34	134	-0.034	-1.14	-0.056	-36.3255372	0.6302538	-0.1145916	83.62894968	-1.32353298	-39.9924684
1.35	135	-0.016	-1.111	-0.079	-37.4714532	-0.9167328	-0.7448454	83.2507974	-1.3178034	-40.00392756
1.36	136	0.006	-1.091	-0.096	-36.669312	0.1145916	-1.0886202	82.8783747	-1.30634424	-40.00965714
1.37	137	0.02	-1.1	-0.092	-36.1536498	2.3491278	-0.4010706	82.505952	-1.30634424	-39.9924684
1.38	138	0.024	-1.117	-0.108	-34.37748	2.9793816	0.3437748	82.15644762	-1.30634424	-39.9638205
1.39	139	0.022	-1.14	-0.136	-32.945085	2.5210152	0.859437	81.82413198	-1.3178034	-39.94090218
1.4	140	0.005	-1.141	-0.137	-33.4607472	2.8074942	0.9740286	81.48035718	-1.32353298	-39.91798386
1.41	141	-0.016	-1.128	-0.141	-33.231564	2.578311	0.6302538	81.14231196	-1.32926256	-39.89506554
1.42	142	-0.03	-1.106	-0.15	-32.8304934	2.3491278	-0.0572958	80.80999632	-1.32926256	-39.87214722
1.43	143	-0.015	-1.099	-0.169	-31.51269	1.9480572	-0.0572958	80.48913984	-1.32926256	-39.85495848
1.44	144	0	-1.102	-0.136	-30.8824362	2.5210152	0.3437748	80.17401294	-1.33499214	-39.83776974
1.45	145	0.015	-1.112	-0.131	-30.1948866	4.0680018	0.8021412	79.8703452	-1.33499214	-39.79766268
1.46	146	0.008	-1.131	-0.156	-29.9657034	4.297185	0.9167328	79.56094788	-1.34072172	-39.75755562
1.47	147	0	-1.128	-0.16	-30.939732	4.6409598	0.1718874	79.24582098	-1.34072172	-39.71171898
1.48	148	-0.013	-1.11	-0.174	-32.085648	5.2712136	-0.6875496	78.91923492	-1.32353298	-39.66588234
1.49	149	-0.018	-1.099	-0.198	-32.8304934	4.9847346	-1.718874	78.58691928	-1.30634424	-39.62577528
1.5	150	-0.015	-1.093	-0.206	-32.945085	5.0993262	-2.0626488	78.24887406	-1.27769634	-39.57993864
1.51	151	-0.005	-1.08	-0.221	-33.1169724	5.156622	-1.9480572	77.91082884	-1.24904844	-39.53983158
1.52	152	0.012	-1.06	-0.23	-33.6899304	3.9534102	-1.2032118	77.56705404	-1.23758928	-39.5054541
1.53	153	0.026	-1.052	-0.22	-33.4034514	1.6615782	-0.2291832	77.22900882	-1.2318597	-39.49399494
1.54	154	0.031	-1.047	-0.222	-33.7472262	0.4583664	0.5156622	76.88523402	-1.24331886	-39.48826536
1.55	155	0.029	-1.033	-0.222	-33.9764094	-0.4583664	0.8021412	76.54145922	-1.24904844	-39.49399494
1.56	156	0.025	-1.02	-0.206	-32.6013102	0.4010706	0.6875496	76.20914358	-1.25477802	-39.49399494
1.57	157	0.023	-1.025	-0.225	-32.6013102	1.3178034	0.572958	75.87682794	-1.26623718	-39.48253578
1.58	158	0.028	-1.012	-0.253	-33.2888598	-0.3437748	0.5156622	75.53878272	-1.27196676	-39.48826536
1.59	159	0.037	-1.014	-0.234	-32.5440144	-2.7501984	0.7448454	75.21219666	-1.2891555	-39.51691326
1.6	160	0.044	-1.017	-0.235	-33.3461556	-4.6982556	1.718874	74.87415144	-1.31207382	-39.55702032
1.61	161	0.036	-1.021	-0.246	-33.1169724	-6.1306506	2.4637194	74.53610622	-1.35791046	-39.61431612
1.62	162	0.019	-0.981	-0.258	-33.1742682	-5.7868758	1.8907614	74.20379058	-1.39228794	-39.66588234
1.63	163	0.005	-0.962	-0.278	-31.6845774	-4.6409598	1.145916	73.8829341	-1.42093584	-39.71171898
1.64	164	-0.002	-0.95	-0.286	-29.6792244	-4.870143	0	73.58499594	-1.432395	-39.7632852
1.65	165	0.004	-0.952	-0.258	-27.9030546	-4.9847346	-0.8021412	73.30424652	-1.43812458	-39.81485142
1.66	166	0.017	-0.96	-0.259	-26.5279554	-6.7036086	-0.6302538	73.03495626	-1.44958374	-39.88360638
1.67	167	0.024	-0.962	-0.25	-26.2987722	-7.9641162	-0.286479	72.77139558	-1.47250206	-39.9638205
1.68	168	0.034	-0.956	-0.244	-25.3820394	-8.7089616	-0.0572958	72.51929406	-1.50114996	-40.0497642
1.69	169	0.021	-0.957	-0.265	-24.8090814	-9.2246238	-0.2291832	72.26719254	-1.52406828	-40.14143748
1.7	170	0.008	-0.943	-0.296	-23.9496444	-10.313244	-1.0313244	72.02655018	-1.54125702	-40.24456992
1.71	171	-0.003	-0.921	-0.292	-22.631841	-10.9434978	-2.0626488	71.80309656	-1.55271618	-40.35343194
1.72	172	-0.013	-0.904	-0.306	-20.4546006	-10.2559482	-2.7501984	71.60256126	-1.55844576	-40.46229396
1.73	173	-0.017	-0.895	-0.298	-18.907614	-10.4278356	-2.86479	71.41348512	-1.56417534	-40.57115598
1.74	174	-0.019	-0.897	-0.285	-18.048177	-11.1153852	-3.2085648	71.23586814	-1.56990492	-40.69147716
1.75	175	-0.028	-0.916	-0.268	-17.4179232	-10.2559482	-3.7815228	71.06398074	-1.56417534	-40.80033918
1.76	176	-0.037	-0.911	-0.276	-18.334656	-8.7089616	-4.010706	70.88063418	-1.55844576	-40.89774204
1.77	177	-0.032	-0.887	-0.296	-18.5065434	-7.3911582	-4.297185	70.69728762	-1.54125702	-40.98368574
1.78	178	-0.022	-0.879	-0.3	-17.6471064	-8.1932994	-4.2398892	70.51967064	-1.52406828	-41.07535902
1.79	179	-0.01	-0.887	-0.308	-16.7303736	-10.0840608	-3.6096354	70.35351282	-1.52406828	-41.18422104
1.8	180	0.005	-0.91	-0.324	-16.329303	-11.9175264	-3.151269	70.19308458	-1.52979786	-41.3102718
1.81	181	0.005	-0.939	-0.305	-15.5271618	-13.464513	-2.7501984	70.03838592	-1.5469866	-41.44778172
1.82	182	0	-0.961	-0.318	-15.5271618	-13.1207382	-2.7501984	69.88368726	-1.56417534	-41.57956206
1.83	183	-0.026	-0.945	-0.316	-16.5011904	-11.6310474	-3.151269	69.72325902	-1.56990492	-41.69988324
1.84	184	-0.052	-0.935	-0.317	-17.5898106	-10.886202	-3.7815228	69.55137162	-1.5756345	-41.82020442
1.85	185	-0.059	-0.915	-0.339	-19.6524594	-10.5424272	-4.1252976	69.35083632	-1.5756345	-41.93479602
1.86	186	-0.05	-0.917	-0.332	-19.9389384	-11.0007936	-3.2085648	69.15030102	-1.58136408	-42.04938762
1.87	187	-0.033	-0.922	-0.348	-20.1108258	-9.9694692	-2.1199446	68.9554953	-1.59855282	-42.15252006
1.88	188	-0.027	-0.948	-0.326	-20.5691922	-9.2819196	-1.0313244	68.74923042	-1.62147114	-42.24419334
1.89	189	-0.036	-0.976	-0.311	-21.6578124	-8.9381448	-0.1145916	68.53150638	-1.65011904	-42.33013704
1.9	190	-0.061	-0.999	-0.337	-22.7464326	-7.6203414	0.9740286	68.30232318	-1.69595568	-42.398892
1.91	191	-0.065	-0.964	-0.36	-23.491278	-7.2192708	2.005353	68.0674104	-1.74179232	-42.46191738
1.92	192	-0.048	-0.924	-0.306	-22.4026578	-7.734933	1.9480572	67.84395678	-1.78762896	-42.52494276
1.93	193	-0.06	-0.913	-0.292	-24.0069402	-7.9641162	2.1199446	67.60331442	-1.83919518	-42.59369772
1.94	194	-0.079	-0.909	-0.346	-24.350715	-7.5630456	2.2345362	67.35694248	-1.8907614	-42.6567231
1.95	195	-0.072	-0.91	-0.379	-23.2620948	-7.3338624	2.291832	67.1220297	-1.94232762	-42.71974848
1.96	196	-0.062	-0.923	-0.363	-22.2880662	-6.4171296	2.291832	66.89857608	-1.99389384	-42.7713147
1.97	197	-0.06	-0.94	-0.357	-22.1161788	-4.0680018	3.0939732	66.67512246	-2.03973048	-42.79423302
1.98	198	-0.065	-0.947	-0.315	-20.5691922	0.1718874	4.2398892	66.46885758	-2.07983754	-42.77704428
1.99	199	-0.067	-0.913	-0.328	-19.7097552	3.0366774	4.0680018	66.2625927	-2.10848544	-42.73693722
2	200	-0.051	-0.876	-0.309	-15.0687954	4.8128472	2.6929026	66.1193532	-2.1199446	-42.67964142
2.01	201	-0.035	-0.877	-0.313	-11.9748222	5.72958	1.5469866	65.99330244	-2.11421502	-42.62234562
2.02	202	-0.022	-0.896	-0.342	-9.3965112	3.7815228	0.859437	65.89589958	-2.10848544	-42.58796814
2.03	203	0.001	-0.905	-0.319	-6.0733548	3.0939732	-0.572958	65.8328742	-2.0912967	-42.55932024
2.04	204	0.002	-0.934	-0.298	-3.7815228	2.4637194	-1.9480572	65.79276714	-2.0626488	-42.54786108
2.05	205	-0.009	-0.945	-0.291	-3.2658606	2.1199446	-2.291832	65.81568546	-2.01681216	-42.53640192
2.06	206	-0.003	-0.915	-0.283	-3.0366774	1.3178034	-2.4637194	65.78703756	-1.98816426	-42.53640192
2.07	207	-0.002	-0.876	-0.275	-1.5469866	-1.432395	-2.6929026	65.76984882	-1.97097552	-42.55932024
2.08	208	0.01	-0.849	-0.261	1.718874	-4.1825934	-3.0366774	65.78703756	-1.95951636	-42.61088646
2.09	209	0.039	-0.849	-0.268	6.3598338	-4.6409598	-4.297185	65.85579252	-1.93659804	-42.66818226
2.1	210	0.071	-0.842	-0.288	11.2872726	-5.5003968	-4.9847346	65.98184328	-1.8907614	-42.7426668
2.11	211	0.087	-0.837	-0.293	17.2460358	-7.0473834	-4.9847346	66.15946026	-1.86784308	-42.82288092
2.12	212	0.087	-0.844	-0.301	22.2307704	-8.9381448	-4.297185	66.39437304	-1.8621135	-42.92028378
2.13	213	0.086	-0.844	-0.292	26.642547	-11.745639	-3.3231564	66.66939288	-1.86784308	-43.04060496
2.14	214	0.084	-0.848	-0.31	30.4813656	-16.042824	-2.005353	66.98451978	-1.90795014	-43.19530362
2.15	215	0.087	-0.848	-0.302	33.518043	-20.9702628	-0.2291832	67.33975374	-1.96524594	-43.39010934
2.16	216	0.092	-0.836	-0.292	36.382833	-25.8977016	1.0886202	67.71790602	-2.0626488	-43.61929254
2.17	217	0.106	-0.848	-0.278	39.3622146	-32.2002396	2.1199446	68.13616536	-2.18869956	-43.90577154
2.18	218	0.124	-0.86	-0.272	40.8519054	-38.6173692	3.151269	68.56588386	-2.34339822	-44.25527592
2.19	219	0.148	-0.86	-0.264	41.4248634	-44.9199072	4.0680018	69.0127911	-2.52674478	-44.65634652
2.2	220	0.16	-0.857	-0.243	41.4821592	-50.9359662	4.8128472	69.46542792	-2.7215505	-45.10898334
2.21	221	0.164	-0.863	-0.224	40.7946096	-55.7488134	4.9847346	69.90660558	-2.93927454	-45.61318638
2.22	222	0.162	-0.861	-0.214	38.8465524	-60.8481396	4.9274388	70.34205366	-3.17418732	-46.16322606
2.23	223	0.145	-0.861	-0.161	37.528749	-68.2965936	5.2139178	70.76604258	-3.42628884	-46.78775028
2.24	224	0.111	-0.876	-0.129	36.382833	-75.7450476	5.5576926	71.1900315	-3.6955791	-47.48102946
2.25	225	0.078	-0.897	-0.155	33.1169724	-80.787078	5.3285094	71.5911021	-3.97059894	-48.23160444
2.26	226	0.06	-0.916	-0.156	31.2835068	-85.4853336	5.72958	71.98071354	-4.26280752	-49.02228648
2.27	227	0.048	-0.925	-0.136	29.2781538	-90.2981808	6.5317212	72.35313624	-4.57220484	-49.85880516
2.28	228	0.041	-0.94	-0.139	26.4706596	-92.8764918	7.2192708	72.70264062	-4.88733174	-50.72397174
2.29	229	0.037	-0.958	-0.158	24.1215318	-95.9131692	7.161975	73.04068584	-5.20818822	-51.61778622
2.3	230	0.034	-0.951	-0.117	20.3973048	-97.9185222	6.302538	73.35581274	-5.51185596	-52.53451902
2.31	231	0.039	-0.948	-0.118	17.8762896	-99.0071424	5.156622	73.64229174	-5.8155237	-53.46844056
2.32	232	0.03	-0.951	-0.143	14.610429	-104.1064686	4.6982556	73.90585242	-6.11919144	-54.45392832
2.33	233	0.015	-0.952	-0.1	11.3445684	-107.3150334	4.3544808	74.15222436	-6.42285918	-55.47952314
2.34	234	0.007	-0.949	-0.056	8.1360036	-107.5442166	4.1252976	74.36421882	-6.72079734	-56.50511796
2.35	235	0.019	-0.945	-0.092	2.1772404	-107.4869208	5.6149884	74.53037664	-7.02446508	-57.53071278
2.36	236	0.026	-0.94	-0.117	-2.8074942	-110.5235982	7.0473834	74.64496824	-7.35105114	-58.57922592
2.37	237	0.037	-0.915	-0.118	-6.8182002	-114.3624168	6.9900876	74.73664152	-7.68909636	-59.66784612
2.38	238	0.047	-0.899	-0.13	-9.9694692	-118.888785	6.1879464	74.80539648	-8.02714158	-60.80803254
2.39	239	0.046	-0.893	-0.107	-11.8602306	-122.613012	5.5576926	74.86842186	-8.3651868	-61.98259644
2.4	240	0.035	-0.892	-0.047	-12.4331886	-127.0247886	5.0420304	74.94863598	-8.70323202	-63.20872656
2.41	241	0.01	-0.897	-0.057	-14.2666542	-135.3899754	3.6669312	75.02312052	-9.0527364	-64.5150708
2.42	242	-0.018	-0.901	-0.054	-18.5638392	-138.7131318	2.4064236	75.06895716	-9.39078162	-65.86725168
2.43	243	-0.034	-0.892	-0.018	-23.8350528	-134.358651	2.4064236	75.06322758	-9.72309726	-67.17359592
2.44	244	-0.013	-0.9	-0.085	-26.5279554	-132.1241148	4.1252976	75.03457968	-10.06687206	-68.45129226
2.45	245	0	-0.884	-0.102	-28.8197874	-134.2440594	5.72958	74.99447262	-10.4278356	-69.75190692
2.46	246	0.016	-0.872	-0.073	-27.2728008	-135.3899754	5.9014674	74.97728388	-10.8002583	-71.06398074
2.47	247	0.029	-0.874	-0.071	-28.0176462	-138.8277234	6.5317212	74.96582472	-11.18414016	-72.41043204
2.48	248	0.02	-0.86	-0.034	-30.366774	-142.2654714	7.161975	74.94863598	-11.58521076	-73.79126082
2.49	249	-0.004	-0.841	0.006	-33.1169724	-145.6459236	7.2192708	74.91998808	-11.99201094	-75.20646708
2.5	250	-0.022	-0.803	0.095	-33.7472262	-144.7291908	7.1046792	74.90852892	-12.39308154	-76.61594376
2.51	251	-0.014	-0.793	0.045	-35.9817624	-140.1455268	7.448454	74.8569627	-12.79415214	-77.9795838
2.52	252	-0.013	-0.774	-0.004	-37.0130868	-138.942315	8.7089616	74.80539648	-13.2066819	-79.33176468
2.53	253	-0.025	-0.759	0	-36.3255372	-139.4006814	10.1986524	74.76528942	-13.63067082	-80.68394556
2.54	254	-0.02	-0.757	0.011	-35.6952834	-138.7131318	10.5424272	74.74810068	-14.06038932	-82.03039686
2.55	255	0.006	-0.774	0.041	-36.5547204	-135.3326796	11.172681	74.72518236	-14.47864866	-83.34820026
2.56	256	0.023	-0.774	0.024	-36.955791	-132.9835518	12.2613012	74.69653446	-14.91409674	-84.63735576
2.57	257	0.041	-0.736	0.025	-37.0130868	-135.504567	12.4331886	74.6850753	-15.3552744	-85.95515916
2.58	258	0.049	-0.714	0.024	-33.9764094	-140.3174142	11.2872726	74.72518236	-15.79645206	-87.33025836
2.59	259	0.055	-0.712	0.052	-31.6272816	-143.1822042	10.0840608	74.81112606	-16.23190014	-88.73400546
2.6	260	0.066	-0.718	0.067	-29.2781538	-146.5626564	9.3965112	74.95436556	-16.65588906	-90.1835892
2.61	261	0.051	-0.703	0.121	-25.6685184	-149.7712212	9.3965112	75.1434417	-17.09133714	-91.66755042
2.62	262	0.038	-0.715	0.159	-23.3193906	-149.4847422	9.3392154	75.36689532	-17.52105564	-93.15151164
2.63	263	0.025	-0.696	0.134	-22.91832	-149.8858128	8.1360036	75.60753768	-17.9335854	-94.64693202
2.64	264	0.042	-0.706	0.138	-19.9962342	-153.3808566	6.4744254	75.90547584	-18.32892642	-96.18818904
2.65	265	0.057	-0.678	0.143	-17.5898106	-158.5947744	4.7555514	76.27216896	-18.70134912	-97.79820102
2.66	266	0.061	-0.657	0.156	-13.4072172	-162.2617056	2.2345362	76.6904283	-19.05658308	-99.45404964
2.67	267	0.065	-0.658	0.132	-12.891555	-164.5535376	-0.4583664	77.13733554	-19.37743956	-101.1442757
2.68	268	0.057	-0.658	0.152	-9.6256944	-167.3610318	-1.9480572	77.64153858	-19.67537772	-102.8746089
2.69	269	0.063	-0.686	0.166	-7.2765666	-168.6788352	-1.8334656	78.1801191	-19.96185672	-104.6221308
2.7	270	0.036	-0.701	0.162	-4.7555514	-171.314442	-1.3750992	78.781725	-20.23114698	-106.4040302
2.71	271	0.001	-0.677	0.175	-1.7761698	-173.8354572	-2.6356068	79.41770838	-20.4832485	-108.2145775
2.72	272	-0.003	-0.625	0.197	0.7448454	-178.0753464	-4.8128472	80.10525798	-20.70097254	-110.0824205
2.73	273	-0.034	-0.592	0.213	1.145916	-181.5703902	-7.1046792	80.82145548	-20.87858952	-111.9961003
2.74	274	-0.077	-0.553	0.214	1.3178034	-178.2472338	-10.7143146	81.5319234	-20.9989107	-113.8868617
2.75	275	-0.079	-0.539	0.252	-0.2291832	-171.8874	-14.896908	82.219473	-21.03901776	-115.7203273
2.76	276	-0.094	-0.52	0.28	-0.5156622	-164.8973124	-19.0222056	82.87264512	-21.02182902	-117.4850379
2.77	277	-0.109	-0.535	0.256	-2.3491278	-154.6413642	-23.7204612	83.46279186	-20.92442616	-119.1466161
2.78	278	-0.116	-0.555	0.217	-4.8128472	-145.7032194	-26.8717302	83.98991322	-20.77545708	-120.7107914
2.79	279	-0.157	-0.557	0.158	-8.9381448	-140.8330764	-28.2468294	84.44827962	-20.5978401	-122.2291301
2.8	280	-0.182	-0.547	0.136	-13.2926256	-136.9942578	-27.6165756	84.8550798	-20.41449354	-123.7016322
2.81	281	-0.229	-0.496	0.098	-17.761698	-136.650483	-24.923673	85.1988546	-20.24833572	-125.1626751
2.82	282	-0.289	-0.409	0.09	-18.8503182	-136.7650746	-22.0015872	85.53117024	-20.10509622	-126.623718
2.83	283	-0.313	-0.346	0.107	-18.1054728	-130.061466	-19.194093	85.84056756	-19.97904546	-128.0045468
2.84	284	-0.329	-0.311	0.101	-19.3086846	-122.1546456	-15.183387	86.09839866	-19.8816426	-129.3051614
2.85	285	-0.343	-0.287	0.074	-21.6005166	-117.3990942	-11.172681	86.32185228	-19.8243468	-130.5484803
2.86	286	-0.305	-0.261	0.081	-24.923673	-113.1019092	-7.8495246	86.4880101	-19.78996932	-131.7402329
2.87	287	-0.221	-0.211	0.085	-26.4706596	-109.4922738	-5.443101	86.62552002	-19.77278058	-132.8976081
2.88	288	-0.106	-0.176	0.037	-22.0015872	-94.4234784	-3.724227	86.75157078	-19.767051	-133.894555
2.89	289	0.016	-0.182	-0.066	-23.491278	-83.4226848	-0.4010706	86.82032574	-19.78423974	-134.7711808
2.9	290	0.056	-0.216	-0.279	-29.3354496	-78.6098376	6.302538	86.79740742	-19.86445386	-135.5962403
2.91	291	0.084	-0.292	-0.397	-30.7678446	-82.0475856	18.5638392	86.78594826	-20.07644832	-136.4499477
2.92	292	0.054	-0.386	-0.47	-28.1895336	-102.273003	34.8358464	86.88335112	-20.4546006	-137.50992
2.93	293	0.008	-0.461	-0.317	-25.1528562	-134.5878342	52.1964738	87.14118222	-21.00464028	-138.9079375
2.94	294	0.036	-0.501	-0.156	-30.5386614	-161.1730854	66.176649	87.46776828	-21.69218988	-140.592434
2.95	295	0.113	-0.412	-0.05	-27.7311672	-181.4557986	75.8023434	87.92613468	-22.46568318	-142.5003842
2.96	296	0.12	-0.259	0.115	-11.6310474	-199.962342	77.9795838	88.6652505	-23.24490606	-144.6260584
2.97	297	-0.061	-0.252	0.227	-1.3750992	-200.9936664	79.5265704	89.54187624	-24.0069402	-146.7803804
2.98	298	-0.245	-0.362	0.234	-0.1718874	-191.9982258	88.3501236	90.42996114	-24.83199972	-148.8716771
2.99	299	-0.345	-0.453	0.128	-8.1360036	-182.200644	103.4762148	91.23210234	-25.78883958	-150.8827597
3	300	-0.324	-0.481	0.016	-22.0015872	-176.0126976	121.0087296	91.91392236	-26.89464852	-152.8651944
3.01	301	-0.352	-0.491	-0.014	-35.0650296	-174.2938236	141.9789924	92.50979868	-28.1895336	-154.8705474
3.02	302	-0.729	-0.554	-0.004	-27.9030546	-183.1173768	168.5642436	93.3062103	-29.72506104	-157.0420582
3.03	303	-1.254	-0.847	0.131	-15.9855282	-187.8729282	193.4879166	94.34326428	-31.46685336	-159.3453494
3.04	304	-1.828	-1.262	0.116	-7.8495246	-186.3832374	222.5368872	95.58085356	-33.45501762	-161.751773
3.05	305	-2.476	-1.527	0.14	2.1199446	-171.7155126	239.6110356	96.9731415	-35.59215096	-164.1123599
3.06	306	-2.874	-1.675	0.269	17.3033316	-145.8751068	262.4720598	98.49720978	-37.93554918	-166.3297074
3.07	307	-3.037	-1.797	0.612	43.2010332	-123.3578574	290.3178186	100.3249458	-40.54823766	-168.4897591
3.08	308	-3.428	-1.84	0.639	72.9948492	-105.6534552	315.1841958	102.5537524	-43.3729206	-170.6899178
3.09	309	-3.546	-1.883	0.955	106.7993712	-72.8802576	321.3721422	105.0976859	-46.27208808	-172.7353778
3.1	310	-3.68	-1.963	1.254	134.1294678	-38.9038482	299.8862172	107.7791294	-49.00509774	-174.5115476
3.11	311	-2.583	-2.548	1.707	156.3029424	26.8717302	219.0991392	109.8876148	-51.14796066	-175.1933677
3.12	312	-1.369	-1.377	1.504	129.0874374	101.0697912	232.7928354	111.0220717	-53.68043502	-174.9813732
3.13	313	-1.088	-0.336	1.167	145.0729656	90.1262934	295.7609196	112.872726	-56.7514899	-175.4511988
3.14	314	-1.691	0.052	0.743	152.9224902	114.305121	307.9076292	114.7405691	-60.02880966	-175.829351
3.15	315	-2.346	0.345	1.173	153.7246314	117.3990942	293.2972002	116.6943559	-63.18007866	-176.293447
3.16	316	-2.536	0.518	1.182	169.595568	93.0483792	281.0931948	119.4560134	-66.0907053	-177.4508222
3.17	317	-2.254	0.008	1.228	183.0027852	64.0567044	260.8677774	123.2146179	-68.6403684	-179.513471
3.18	318	-1.912	-0.798	1.18	186.8416038	46.409598	240.64236	127.8269298	-70.85771586	177.5883321
3.19	319	-1.873	-0.859	1.005	170.6268924	31.9137606	240.7569516	133.5507802	-72.8802576	173.38855
3.2	320	-1.438	-0.283	0.789	133.5565098	29.5646328	258.1748748	140.6955665	-74.84550354	167.3610318
3.21	321	-1.165	-0.184	0.736	116.310474	16.4438946	260.0083404	149.7884099	-76.45551552	159.2021099
3.22	322	-1.05	-0.091	0.463	66.9214944	3.5523396	249.6950964	160.1360314	-77.53840614	149.2899365
3.23	323	-1.297	-0.387	-0.095	50.6494872	7.734933	211.4787978	169.9851794	-78.15720078	139.7387266
3.24	324	-1.107	-0.242	-0.103	52.3110654	28.9916748	177.61698	178.9462426	-78.61556718	131.1328975
3.25	325	-1.2	0.117	-0.134	73.5105114	43.1437374	163.4649174	-171.9504254	-78.9536124	122.613012
3.26	326	-1.555	0.313	0.01	112.9300218	40.7373138	135.2753838	-163.579509	-79.068204	115.2505017
3.27	327	-1.575	0.264	0.074	131.6657484	48.8160216	86.1728832	-157.1509202	-79.25155056	110.0652318
3.28	328	-1.275	0.242	0.161	120.4930674	67.6663398	33.5753388	-152.7047662	-79.72137612	106.7764529
3.29	329	-1.132	0.334	0.217	111.5549226	72.3072996	17.3033316	-148.6539531	-80.26568622	103.8028009
3.3	330	-1.139	0.411	0.087	102.2157072	80.787078	8.880849	-144.3624977	-80.88448086	100.4968332
3.31	331	-1.01	0.428	-0.1	86.9750244	88.7511942	2.4064236	-139.7444562	-81.5605713	96.70958082
3.32	332	-0.781	0.456	-0.184	80.6724864	86.6885454	0.6302538	-134.6966962	-82.17936594	92.42385498
3.33	333	-0.595	0.443	-0.209	79.4119788	70.760313	1.0886202	-129.8494715	-82.63773234	88.33293486
3.34	334	-0.685	0.446	-0.233	76.3753014	54.3164184	-0.6302538	-125.6496894	-82.97004798	84.87799812
3.35	335	-0.58	0.355	-0.13	76.0315266	46.5241896	-2.4064236	-121.6217947	-83.23933824	81.5892192
3.36	336	-0.575	0.366	-0.042	72.192708	40.393539	0.9740286	-117.7944352	-83.42841438	78.47232768
3.37	337	-0.617	0.415	0.006	66.4058322	29.5646328	0.9167328	-114.7176508	-83.54873556	76.04871534
3.38	338	-0.679	0.427	0.003	59.1865614	18.048177	-2.1772404	-112.6836499	-83.64040884	74.60486118
3.39	339	-0.677	0.391	0.006	55.0612638	7.8495246	-3.2658606	-111.5377339	-83.7091638	74.01471444
3.4	340	-0.566	0.372	0.02	49.4462754	0.2291832	-3.0939732	-110.976235	-83.71489338	73.95168906
3.41	341	-0.504	0.399	0.031	42.8572584	-7.2765666	-2.1199446	-111.1996886	-83.71489338	74.61632034
3.42	342	-0.55	0.411	0.011	36.5547204	-13.1207382	-0.9167328	-111.9388045	-83.68624548	75.73931802
3.43	343	-0.565	0.488	-0.039	33.3461556	-13.464513	-1.8907614	-112.763864	-83.65759758	76.90815234
3.44	344	-0.696	0.49	-0.09	26.8717302	-9.1100322	-0.9167328	-113.2623374	-83.64040884	77.68164564
3.45	345	-0.746	0.523	-0.094	15.756345	-5.7868758	3.8388186	-112.6378132	-83.46852144	77.22327924
3.46	346	-0.747	0.53	-0.063	9.2819196	-2.6929026	8.3651868	-112.477385	-83.38257774	77.16025386
3.47	347	-0.71	0.545	-0.034	6.1306506	-0.9167328	12.605076	-112.082044	-83.26225656	76.82220864
3.48	348	-0.688	0.589	-0.04	4.0680018	-0.5156622	13.178034	-111.6752438	-83.14193538	76.45551552
3.49	349	-0.762	0.615	-0.043	5.2712136	-2.4637194	10.7143146	-111.4861676	-83.03307336	76.3180056
3.5	350	-0.857	0.591	-0.035	5.7868758	-1.3178034	5.3285094	-110.294415	-82.74659436	75.18927834
3.51	351	-0.933	0.512	-0.015	5.2139178	0.286479	0	-110.2142009	-82.74659436	75.16636002
3.52	352	-1.034	0.433	-0.013	4.4117766	0.4010706	-4.3544808	-110.2543079	-82.78670142	75.24657414
3.53	353	-1.08	0.361	-0.001	3.6096354	0.6875496	-8.1932994	-110.3803587	-82.86691554	75.41273196
3.54	354	-1.114	0.314	0.005	0.286479	2.0626488	-12.3758928	-110.5694348	-82.9929663	75.6018081
3.55	355	-1.125	0.273	0.032	-2.0626488	6.7036086	-16.615782	-110.4777616	-83.14766496	75.49294608
3.56	356	-1.119	0.266	0.035	-4.010706	14.3812458	-20.1108258	-109.9620994	-83.38257774	74.93144724
3.57	357	-1.097	0.244	0.025	-2.5210152	23.1475032	-23.8350528	-108.753158	-83.67478632	73.6823988
3.58	358	-1.09	0.226	0.008	-1.2032118	30.4240698	-26.5852512	-106.8337487	-84.01283154	71.7343416
3.59	359	-1.074	0.211	-0.008	-0.9740286	34.6066632	-28.7624916	-104.3299222	-84.3680655	69.20186724
3.6	360	-1.052	0.192	-0.012	-1.718874	33.3461556	-29.3927454	-101.591183	-84.7118403	66.42875052
3.61	361	-1.034	0.181	-0.012	-2.6929026	28.361421	-29.7365202	-99.11600442	-85.04415594	63.90773532
3.62	362	-1.029	0.177	-0.002	-2.8074942	23.1475032	-30.1375908	-96.92157528	-85.370742	61.6789287
3.63	363	-1.031	0.165	-0.001	-0.6875496	19.0222056	-30.8824362	-94.92768144	-85.6858689	59.66784612
3.64	364	-1.04	0.152	-0.005	1.6042824	17.0168526	-31.4553942	-92.8764918	-86.00672538	57.62238606
3.65	365	-1.038	0.143	-0.005	2.7501984	15.8709366	-31.7418732	-90.60757812	-86.3161227	55.3763907
3.66	366	-1.036	0.111	-0.02	4.0680018	15.5844576	-31.1116194	-87.98343048	-86.61979044	52.78662054
3.67	367	-1.012	0.041	-0.035	6.1306506	14.037471	-31.1116194	-85.1129109	-86.91199902	49.96766718
3.68	368	-1.003	0.057	-0.039	2.4064236	10.9434978	-32.8304934	-82.26530964	-87.22139634	47.14298424
3.69	369	-0.988	0.004	-0.058	3.6096354	8.2505952	-33.1742682	-79.29165762	-87.53079366	44.19798012
3.7	370	-0.974	-0.041	-0.043	5.9014674	6.1879464	-32.8877892	-75.73358844	-87.85165014	40.70293632
3.71	371	-0.959	-0.067	-0.04	5.7868758	4.1825934	-30.7105488	-72.08384598	-88.13239956	37.10476008
3.72	372	-0.949	-0.099	-0.029	6.1879464	2.291832	-28.934379	-68.03303292	-88.39023066	33.11124282
3.73	373	-0.95	-0.098	-0.017	4.3544808	0.3437748	-26.6998428	-63.6269859	-88.63087302	28.75103244
3.74	374	-0.945	-0.104	-0.023	4.0680018	-0.6302538	-24.6944898	-58.3557723	-88.84859706	23.51419632
3.75	375	-0.944	-0.107	-0.028	4.3544808	-0.8021412	-22.5745452	-50.07079962	-89.06059152	15.28078986
3.76	376	-0.952	-0.116	-0.023	3.2658606	-0.1718874	-20.5118964	-40.57115598	-89.20383102	5.80979412
3.77	377	-0.944	-0.131	-0.006	2.005353	0.5156622	-18.907614	-28.28693646	-89.30696346	-6.45150708
3.78	378	-0.97	-0.125	0.002	0.1718874	0.6302538	-17.2460358	-14.2093584	-89.36425926	-20.52908514
3.79	379	-0.985	-0.106	0.008	0	0.6302538	-15.469866	-0.18907614	-89.37571842	-34.5493674
3.8	380	-0.995	-0.092	0.008	-0.4010706	1.8907614	-13.5218088	14.69064312	-89.34134094	-49.44054582
3.81	381	-0.999	-0.075	0.009	-1.718874	3.9534102	-11.8602306	22.73497344	-89.26112682	-57.50206488
3.82	382	-1.003	-0.062	0.013	-3.2085648	4.8128472	-9.9694692	27.72543762	-89.1809127	-62.52690654
3.83	383	-1	-0.055	0.019	-4.5263682	5.0993262	-8.1932994	30.69336006	-89.094969	-65.54066562
3.84	384	-1.002	-0.055	0.019	-6.302538	3.9534102	-6.589017	32.73309054	-89.03194362	-67.64342148
3.85	385	-0.978	-0.048	0.025	-7.2765666	2.1772404	-5.2139178	35.80414542	-88.98610698	-70.79469048
3.86	386	-0.985	-0.046	0.014	-7.7922288	0.9167328	-3.437748	36.96152058	-88.95745908	-72.03227976
3.87	387	-0.992	-0.044	0.008	-9.0527364	0	-2.1772404	37.82668716	-88.94599992	-72.98911962
3.88	388	-0.99	-0.035	0	-10.313244	-0.3437748	-0.4583664	38.06159994	-88.94599992	-73.32716484
3.89	389	-1	-0.026	-0.009	-10.0840608	0.1718874	1.3178034	37.31102496	-88.95745908	-72.6797223
3.9	390	-1.006	-0.016	-0.01	-9.0527364	2.005353	2.4064236	35.41453398	-88.95745908	-70.8749046
3.91	391	-1.018	-0.01	-0.01	-7.9068204	3.6669312	3.6669312	32.50390734	-88.94599992	-68.04449208
3.92	392	-1.035	-0.007	-0.01	-6.875496	4.8128472	4.5263682	28.934379	-88.92881118	-64.5437187
3.93	393	-1.031	-0.001	-0.017	-6.2452422	5.156622	5.2712136	25.06118292	-88.91162244	-60.733548
3.94	394	-1.042	0.004	-0.019	-5.3285094	6.2452422	6.1879464	20.69524296	-88.87724496	-56.42490384
3.95	395	-1.039	0.007	-0.029	-4.297185	7.6776372	7.161975	15.60164634	-88.82567874	-51.37141428
3.96	396	-1.037	0.015	-0.035	-2.9793816	8.5370742	7.9641162	10.8575541	-88.76265336	-46.65596994
3.97	397	-1.035	0.026	-0.038	-1.3178034	8.880849	8.3651868	6.4171296	-88.68816882	-42.23273418
3.98	398	-1.028	0.036	-0.034	0.1145916	8.8235532	8.4224826	2.48090814	-88.6079547	-38.29651272
3.99	399	-1.026	0.051	-0.031	1.2032118	8.8235532	8.021412	-0.8307891	-88.522011	-34.96762674
4	400	-1.023	0.064	-0.035	2.5210152	9.3965112	7.5057498	-4.37739912	-88.41887856	-31.39236882
4.01	401	-1.02	0.071	-0.041	4.010706	10.3705398	7.1046792	-6.5603691	-88.31001654	-29.16929178
4.02	402	-1.014	0.069	-0.046	5.5576926	11.2872726	6.7036086	-8.28497268	-88.18969536	-27.3873924
4.03	403	-1.004	0.068	-0.047	6.875496	11.6310474	6.0733548	-9.58558734	-88.0636446	-26.01802278
4.04	404	-0.997	0.066	-0.046	7.734933	11.2872726	5.2139178	-10.4851314	-87.94332342	-25.0382646
4.05	405	-0.992	0.066	-0.044	8.3651868	10.5424272	4.0680018	-11.48207832	-87.82873182	-23.96110356
4.06	406	-0.991	0.067	-0.044	8.6516658	9.9121734	2.7501984	-11.62531782	-87.72559938	-23.73192036
4.07	407	-0.992	0.069	-0.045	8.880849	9.453807	1.2032118	-11.41332336	-87.62819652	-23.85224154
4.08	408	-0.991	0.069	-0.051	9.2819196	9.5111028	-0.1145916	-10.89193158	-87.53652324	-24.28196004
4.09	409	-0.994	0.068	-0.055	9.5111028	9.9121734	-1.3178034	-10.12416786	-87.43912038	-24.95805048
4.1	410	-0.99	0.061	-0.062	9.9694692	10.4851314	-2.578311	-9.44234784	-87.33025836	-25.53673806
4.11	411	-0.987	0.058	-0.063	10.1986524	10.4851314	-3.724227	-8.26778394	-87.2328555	-26.6138991
4.12	412	-0.988	0.053	-0.067	10.599723	9.7975818	-4.7555514	-6.97289886	-87.14118222	-27.79992216
4.13	413	-0.988	0.046	-0.07	11.0007936	8.9381448	-5.5576926	-5.60925882	-87.05523852	-29.05470018
4.14	414	-0.99	0.036	-0.074	11.172681	8.9381448	-6.1879464	-4.19978214	-86.96929482	-30.36104442
4.15	415	-0.989	0.027	-0.082	10.9434978	8.9381448	-6.875496	-2.85333084	-86.87189196	-31.59290412
4.16	416	-0.996	0.019	-0.087	10.7143146	8.5370742	-7.0473834	-1.44958374	-86.79167784	-32.89351878
4.17	417	-0.989	0.009	-0.089	10.2559482	7.6776372	-6.7609044	-0.16615782	-86.7171933	-34.07381226
4.18	418	-0.989	0.003	-0.091	9.6829902	6.302538	-6.4744254	1.01413566	-86.64843834	-35.16816204
4.19	419	-0.987	-0.002	-0.087	8.880849	4.5263682	-6.302538	2.14286292	-86.6026017	-36.20521602
4.2	420	-0.993	-0.009	-0.083	8.1360036	2.9793816	-6.1306506	3.24867186	-86.55676506	-37.23081084
4.21	421	-0.996	-0.011	-0.08	7.161975	2.291832	-5.6722842	4.22843004	-86.52811716	-38.14181406
4.22	422	-0.999	-0.014	-0.082	6.3598338	2.1772404	-5.2712136	5.12224452	-86.49946926	-38.97260316
4.23	423	-0.999	-0.015	-0.083	5.5003968	2.5210152	-4.6982556	5.89573782	-86.47082136	-39.68880066
4.24	424	-0.996	-0.02	-0.089	4.7555514	3.0939732	-4.0680018	6.5317212	-86.43644388	-40.2789474
4.25	425	-0.992	-0.025	-0.093	3.6669312	3.724227	-3.3804522	7.14478626	-86.36768892	-40.85763498
4.26	426	-0.984	-0.023	-0.093	2.2345362	4.2398892	-2.6356068	7.48283148	-86.32185228	-41.17276188
4.27	427	-0.976	-0.026	-0.09	1.145916	4.297185	-1.6615782	7.64325972	-86.27601564	-41.32173096
4.28	428	-0.972	-0.026	-0.085	0.0572958	3.5523396	-0.6302538	7.65471888	-86.24163816	-41.33319012
4.29	429	-0.976	-0.026	-0.081	-0.8021412	2.005353	0.1145916	7.58023434	-86.21871984	-41.26443516
4.3	430	-0.981	-0.019	-0.083	-1.9480572	0.9167328	0.572958	7.42553568	-86.14996488	-41.13265482
4.31	431	-0.985	-0.01	-0.093	-2.7501984	0.1145916	0.859437	7.26510744	-86.14996488	-41.00087448
4.32	432	-0.986	-0.004	-0.102	-3.3804522	0	0.9740286	7.08176088	-86.15569446	-40.8519054
4.33	433	-0.983	-0.001	-0.106	-4.0680018	0	1.145916	6.86976642	-86.15569446	-40.680018
4.34	434	-0.98	0	-0.103	-4.6409598	-0.3437748	1.432395	6.61193532	-86.16142404	-40.46802354
4.35	435	-0.98	0.002	-0.098	-4.9274388	-1.145916	1.7761698	6.1306506	-86.1442353	-40.03830504
4.36	436	-0.979	0.004	-0.094	-5.0993262	-2.1199446	1.8334656	5.83844202	-86.1728832	-39.79766268
4.37	437	-0.983	0.006	-0.092	-5.0993262	-2.9793816	1.9480572	5.54050386	-86.2015311	-39.55129074
4.38	438	-0.988	0.01	-0.09	-5.2712136	-3.6096354	1.9480572	5.24829528	-86.24163816	-39.31064838
4.39	439	-0.993	0.013	-0.086	-5.5576926	-3.8961144	2.005353	4.95035712	-86.28174522	-39.07000602
4.4	440	-0.997	0.017	-0.085	-5.9014674	-4.0680018	1.8334656	4.39458786	-86.31039312	-38.57153256
4.41	441	-0.998	0.021	-0.082	-5.72958	-4.1825934	1.6042824	4.14248634	-86.35050018	-38.37672684
4.42	442	-1	0.024	-0.077	-5.443101	-4.010706	1.5469866	3.8961144	-86.39633682	-38.1876507
4.43	443	-1.001	0.026	-0.072	-4.9847346	-3.6096354	1.3750992	3.67839036	-86.4307143	-38.0157633
4.44	444	-1.003	0.027	-0.069	-4.3544808	-3.0366774	1.0313244	3.50650296	-86.46509178	-37.88971254
4.45	445	-1.006	0.026	-0.065	-3.8388186	-2.4064236	0.6875496	2.83041252	-86.47655094	-37.25372916
4.46	446	-1.007	0.026	-0.064	-3.3804522	-1.9480572	0.4010706	2.74446882	-86.49946926	-37.20216294
4.47	447	-1.008	0.025	-0.062	-3.2658606	-1.432395	0.1145916	2.69863218	-86.51092842	-37.19070378
4.48	448	-1.006	0.026	-0.062	-2.8074942	-0.9740286	-0.1145916	2.70436176	-86.52238758	-37.22508126
4.49	449	-1.004	0.024	-0.059	-2.291832	-0.4583664	-0.2291832	2.72728008	-86.52811716	-37.2709179
4.5	450	-1.003	0.024	-0.06	-1.718874	-0.0572958	-0.3437748	1.2891555	-86.51092842	-35.85571164
4.51	451	-1.004	0.022	-0.06	-0.9740286	-0.0572958	-0.5156622	1.36936962	-86.51092842	-35.94738492
4.52	452	-1.007	0.019	-0.06	-0.4583664	-0.286479	-0.6875496	1.4896908	-86.516658	-36.07343568
4.53	453	-1.01	0.019	-0.059	0	-0.5156622	-0.859437	1.63865988	-86.52238758	-36.22240476
4.54	454	-1.01	0.018	-0.061	0.1718874	-0.7448454	-0.9740286	1.81054728	-86.52811716	-36.38856258
4.55	455	-1.01	0.02	-0.062	0.9740286	-0.6302538	-1.0313244	1.18602306	-86.516658	-35.76403836
4.56	456	-1.006	0.015	-0.061	1.3750992	-0.3437748	-1.2032118	1.40947668	-86.516658	-35.97030324
4.57	457	-1.003	0.013	-0.065	1.145916	-0.1718874	-1.2605076	1.63865988	-86.516658	-36.1822977
4.58	458	-1.001	0.015	-0.066	1.3178034	0	-1.432395	1.8907614	-86.516658	-36.42294006
4.59	459	-1.001	0.015	-0.062	2.1199446	0.6875496	-1.718874	2.18869956	-86.51092842	-36.6979599
4.6	460	-1.004	0.012	-0.06	2.6356068	1.8907614	-1.7761698	2.24599536	-86.4880101	-36.73233738
4.61	461	-1.005	0.011	-0.063	2.6356068	2.86479	-1.718874	2.52674478	-86.45363262	-36.99016848
4.62	462	-1.004	0.009	-0.065	2.5210152	3.3804522	-1.718874	2.79603504	-86.41925514	-37.23081084
4.63	463	-1.002	0.007	-0.064	2.2345362	3.6096354	-1.6615782	3.04240698	-86.38487766	-37.45999404
4.64	464	-1	0.007	-0.066	2.1199446	3.4950438	-1.6042824	3.27731976	-86.3447706	-37.6719885
4.65	465	-0.999	0.006	-0.065	2.291832	3.5523396	-1.6042824	3.33461556	-86.30466354	-37.70636598
4.66	466	-0.999	0.005	-0.065	2.4064236	3.437748	-1.4896908	3.54661002	-86.27028606	-37.89544212
4.67	467	-1.001	0.004	-0.064	2.3491278	3.3231564	-1.432395	3.74714532	-86.23590858	-38.0730591
4.68	468	-1.001	0.002	-0.064	2.1772404	3.6096354	-1.2605076	3.91903272	-86.19580152	-38.22202818
4.69	469	-0.999	0.002	-0.064	1.9480572	4.010706	-1.2605076	4.0680018	-86.15569446	-38.35380852
4.7	470	-1	0.003	-0.067	1.6042824	4.6409598	-1.145916	4.03362432	-86.09839866	-38.3022423
4.71	471	-0.999	0.004	-0.069	1.3178034	5.2712136	-1.0886202	4.13675676	-86.04683244	-38.39391558
4.72	472	-0.998	0.005	-0.071	1.145916	5.6722842	-1.0313244	4.21697088	-85.98953664	-38.46840012
4.73	473	-0.997	0.004	-0.072	0.9167328	5.7868758	-1.0313244	4.297185	-85.93224084	-38.5314255
4.74	474	-0.998	0.005	-0.073	0.859437	5.9587632	-0.9740286	4.3544808	-85.87494504	-38.58299172
4.75	475	-0.999	0.007	-0.075	0.6875496	6.0733548	-1.0313244	4.2112413	-85.8004605	-38.43975222
4.76	476	-0.999	0.008	-0.077	0.5156622	6.302538	-1.0313244	4.27426668	-85.73743512	-38.49704802
4.77	477	-0.999	0.01	-0.08	0.5156622	6.4744254	-1.0886202	4.34302164	-85.67440974	-38.5600734
4.78	478	-0.999	0.011	-0.084	0.572958	6.9327918	-1.2032118	4.4117766	-85.60565478	-38.62309878
4.79	479	-1	0.012	-0.087	0.7448454	7.448454	-1.2605076	4.48053156	-85.53117024	-38.68612416
4.8	480	-0.998	0.011	-0.09	1.0313244	8.021412	-1.2605076	4.37166954	-85.43949696	-38.56580298
4.81	481	-0.998	0.009	-0.09	1.2032118	8.2505952	-1.3750992	4.45188366	-85.35355326	-38.63455794
4.82	482	-0.997	0.01	-0.091	1.3750992	8.307891	-1.3750992	4.5263682	-85.27333914	-38.69758332
4.83	483	-0.999	0.012	-0.091	1.3750992	8.0787078	-1.432395	4.6123119	-85.18739544	-38.76633828
4.84	484	-0.998	0.01	-0.093	1.5469866	7.8495246	-1.5469866	4.71544434	-85.1129109	-38.85801156
4.85	485	-0.998	0.008	-0.095	1.6615782	7.6776372	-1.5469866	4.68106686	-85.02123762	-38.81217492
4.86	486	-0.996	0.008	-0.095	1.6042824	7.6203414	-1.6042824	4.7841993	-84.94675308	-38.89811862
4.87	487	-0.994	0.006	-0.097	1.7761698	7.2765666	-1.6042824	4.8987909	-84.87226854	-38.9897919
4.88	488	-0.995	0.006	-0.098	1.7761698	6.9900876	-1.6615782	5.00765292	-84.80351358	-39.08719476
4.89	489	-0.994	0.007	-0.099	1.7761698	6.8182002	-1.6615782	5.1279741	-84.73475862	-39.1903272
4.9	490	-0.99	0.004	-0.102	1.718874	6.6463128	-1.718874	5.10505578	-84.6545445	-39.15594972
4.91	491	-0.989	0.004	-0.103	1.6615782	6.6463128	-1.8334656	5.23683612	-84.58578954	-39.26481174
4.92	492	-0.991	0.003	-0.104	1.5469866	6.5317212	-1.8907614	5.36861646	-84.51703458	-39.38513292
4.93	493	-0.993	0.004	-0.105	1.432395	6.4171296	-1.9480572	5.50612638	-84.4540092	-39.51118368
4.94	494	-0.991	0.002	-0.108	1.3750992	6.1306506	-2.005353	5.65509546	-84.39098382	-39.64296402
4.95	495	-0.99	0	-0.11	1.432395	5.72958	-1.9480572	5.67801378	-84.31649928	-39.65442318
4.96	496	-0.99	-0.001	-0.112	1.3178034	5.2712136	-1.8907614	5.8155237	-84.25920348	-39.78047394
4.97	497	-0.989	-0.001	-0.112	1.2605076	5.156622	-1.7761698	5.94157446	-84.20763726	-39.89506554
4.98	498	-0.988	-0.001	-0.116	1.3178034	5.0993262	-1.6615782	6.05043648	-84.15607104	-39.9924684
4.99	499	-0.989	-0.001	-0.117	1.3750992	4.9847346	-1.6042824	6.1592985	-84.10450482	-40.08987126
5	500	-0.989	-0.005	-0.117	1.3178034	4.7555514	-1.6042824	6.18221682	-84.03574986	-40.10133042
5.01	501	-0.99	-0.008	-0.12	1.0886202	4.4690724	-1.5469866	6.28534926	-83.98991322	-40.1930037
5.02	502	-0.991	-0.008	-0.122	0.6875496	4.1252976	-1.432395	6.37129296	-83.94407658	-40.27321782
5.03	503	-0.989	-0.006	-0.122	0.286479	3.6096354	-1.145916	6.44004792	-83.9096991	-40.3362432
5.04	504	-0.986	-0.006	-0.121	0	2.9793816	-0.9740286	6.49161414	-83.8810512	-40.38780942
5.05	505	-0.983	-0.007	-0.123	-0.1718874	2.5210152	-0.6875496	6.30826758	-83.7951075	-40.21019244
5.06	506	-0.983	-0.007	-0.126	-0.1145916	1.8907614	-0.4583664	6.32545632	-83.77218918	-40.23311076
5.07	507	-0.985	-0.008	-0.126	-0.1718874	1.5469866	-0.286479	6.33691548	-83.76073002	-40.24456992
5.08	508	-0.985	-0.008	-0.125	-0.2291832	1.3750992	-0.1145916	6.32545632	-83.74354128	-40.23884034
5.09	509	-0.986	-0.008	-0.122	-0.6302538	1.3750992	0	6.302538	-83.73208212	-40.2216516
5.1	510	-0.986	-0.006	-0.12	-1.0313244	1.145916	0.1145916	5.9874111	-83.66905674	-39.91798386
5.11	511	-0.985	-0.003	-0.119	-1.145916	0.572958	0.286479	5.94157446	-83.66332716	-39.88360638
5.12	512	-0.983	0	-0.117	-1.2032118	0.0572958	0.3437748	5.89573782	-83.66332716	-39.8492289
5.13	513	-0.983	0	-0.117	-1.0886202	0.1145916	0.4010706	5.8441716	-83.65759758	-39.80912184
5.14	514	-0.985	0	-0.119	-0.9167328	0.1718874	0.3437748	5.79833496	-83.65759758	-39.77474436
5.15	515	-0.987	0	-0.12	-0.8021412	0.4010706	0.2291832	5.16808116	-83.58311304	-39.1616793
5.16	516	-0.988	0.001	-0.121	-0.7448454	0.286479	0.1718874	5.13943326	-83.57738346	-39.1330314
5.17	517	-0.989	0.003	-0.122	-0.8021412	0.0572958	0.1145916	5.11651494	-83.57738346	-39.12157224
5.18	518	-0.99	0.004	-0.122	-0.6302538	-0.1145916	0.1145916	5.09359662	-83.57738346	-39.11011308
5.19	519	-0.99	0.004	-0.122	-0.3437748	-0.4010706	0.1718874	5.08213746	-83.58311304	-39.09865392
5.2	520	-0.99	0.002	-0.121	-0.0572958	-0.6302538	0	4.14821592	-83.48571018	-38.17619154
5.21	521	-0.991	0.004	-0.121	0.1718874	-0.9167328	0	4.15967508	-83.49716934	-38.18192112
5.22	522	-0.992	0.003	-0.12	0.5156622	-1.2032118	0	4.17686382	-83.5086285	-38.19910986
5.23	523	-0.994	0.005	-0.118	0.6875496	-1.2032118	-0.0572958	4.20551172	-83.52008766	-38.2162986
5.24	524	-0.993	0.004	-0.118	0.7448454	-1.145916	-0.1145916	4.23415962	-83.53154682	-38.23921692
5.25	525	-0.994	0.004	-0.115	0.7448454	-0.9740286	-0.2291832	3.83308902	-83.51435808	-37.83241674
5.26	526	-0.993	0.003	-0.115	0.8021412	-0.859437	-0.286479	3.87892566	-83.52008766	-37.8725238
5.27	527	-0.992	0.002	-0.114	0.9167328	-0.859437	-0.3437748	3.93049188	-83.52581724	-37.91263086
5.28	528	-0.991	0.001	-0.115	1.0313244	-0.9167328	-0.5156622	3.99924684	-83.5372764	-37.96992666
5.29	529	-0.99	0.002	-0.114	1.145916	-1.0886202	-0.5156622	4.0680018	-83.54873556	-38.02722246
5.3	530	-0.991	0.002	-0.113	1.0886202	-1.2605076	-0.6875496	3.94768062	-83.54300598	-37.9011717
5.31	531	-0.992	0.001	-0.115	1.0886202	-1.145916	-0.8021412	4.0393539	-83.55446514	-37.98138582
5.32	532	-0.992	-0.001	-0.115	1.2032118	-1.145916	-0.8021412	4.13675676	-83.5659243	-38.06732952
5.33	533	-0.992	-0.001	-0.114	1.0886202	-1.0313244	-0.7448454	4.22843004	-83.57738346	-38.14754364
5.34	534	-0.993	-0.003	-0.112	0.9167328	-0.859437	-0.7448454	4.31437374	-83.58311304	-38.22202818
5.35	535	-0.992	-0.003	-0.113	0.8021412	-0.6875496	-0.572958	4.15967508	-83.56019472	-38.06159994
5.36	536	-0.994	-0.004	-0.114	0.5156622	-0.859437	-0.4583664	4.21697088	-83.57165388	-38.11889574
5.37	537	-0.994	-0.002	-0.112	0.5156622	-1.0886202	-0.4010706	4.27426668	-83.58311304	-38.16473238
5.38	538	-0.995	-0.004	-0.111	0.6302538	-1.0313244	-0.3437748	4.32010332	-83.58884262	-38.20483944
5.39	539	-0.993	-0.006	-0.111	0.1718874	-1.2032118	-0.2291832	4.3544808	-83.60030178	-38.23921692
5.4	540	-0.992	-0.006	-0.113	-0.2291832	-1.3750992	-0.286479	4.21697088	-83.60030178	-38.10743658
5.41	541	-0.993	-0.001	-0.108	-0.0572958	-1.2032118	-0.3437748	4.26280752	-83.61176094	-38.14754364
5.42	542	-0.996	-0.002	-0.105	0.286479	-0.4583664	-0.4583664	4.31437374	-83.61176094	-38.19910986
5.43	543	-0.997	-0.003	-0.105	0.2291832	0.286479	-0.4010706	4.34875122	-83.61176094	-38.23348734
5.44	544	-0.997	-0.004	-0.11	-0.1145916	0.6875496	-0.1718874	4.36021038	-83.60603136	-38.2449465
5.45	545	-0.995	-0.004	-0.113	-0.4010706	0.572958	-0.0572958	4.010706	-83.54873556	-37.9011717
5.46	546	-0.995	-0.003	-0.113	-0.572958	0.1145916	0	4.00497642	-83.54873556	-37.90690128
5.47	547	-0.994	0	-0.113	-0.572958	-0.1145916	0	4.00497642	-83.54873556	-37.91263086
5.48	548	-0.996	0	-0.112	-0.4583664	-0.2291832	-0.0572958	4.010706	-83.55446514	-37.91836044
5.49	549	-0.996	0	-0.109	-0.4010706	-0.2291832	0	4.00497642	-83.55446514	-37.91836044
5.5	550	-0.998	0	-0.107	-0.3437748	-0.1718874	-0.0572958	3.32888598	-83.54873556	-37.24799958
5.51	551	-0.997	0.001	-0.108	-0.4010706	-0.0572958	-0.1145916	3.34034514	-83.54873556	-37.26518832
5.52	552	-0.998	0.001	-0.108	-0.4010706	0	-0.1718874	3.34607472	-83.54873556	-37.28237706
5.53	553	-0.997	0	-0.111	-0.286479	0.3437748	-0.2291832	3.36326346	-83.54300598	-37.2995658
5.54	554	-0.996	0.001	-0.112	-0.1145916	0.7448454	-0.2291832	3.3804522	-83.5372764	-37.31675454
5.55	555	-0.994	0	-0.114	0	0.9167328	-0.3437748	3.12835068	-83.49716934	-37.06465302
5.56	556	-0.994	0	-0.114	0.1718874	0.9167328	-0.286479	3.151269	-83.48571018	-37.08757134
5.57	557	-0.993	0	-0.113	0.1718874	0.859437	-0.3437748	3.1799169	-83.4799806	-37.11621924
5.58	558	-0.994	0	-0.113	0.2291832	0.7448454	-0.3437748	3.2085648	-83.46852144	-37.13913756
5.59	559	-0.994	-0.001	-0.113	0.0572958	0.9167328	-0.3437748	3.2372127	-83.46279186	-37.16778546
5.6	560	-0.993	-0.001	-0.113	0.0572958	1.0313244	-0.3437748	3.0366774	-83.43414396	-36.96725016
5.61	561	-0.993	-0.002	-0.114	0	1.145916	-0.286479	3.05386614	-83.4226848	-36.99016848
5.62	562	-0.992	-0.001	-0.114	0	1.145916	-0.286479	3.07105488	-83.41122564	-37.00735722
5.63	563	-0.993	-0.002	-0.114	-0.0572958	1.0886202	-0.286479	3.0939732	-83.39976648	-37.03027554
5.64	564	-0.993	0	-0.114	-0.0572958	1.0313244	-0.286479	3.11116194	-83.38830732	-37.05319386
5.65	565	-0.993	-0.001	-0.116	-0.0572958	0.9740286	-0.4010706	2.91062664	-83.35392984	-36.85265856
5.66	566	-0.994	0	-0.115	0	0.9167328	-0.4010706	2.93927454	-83.34247068	-36.88130646
5.67	567	-0.994	-0.001	-0.117	0	0.9167328	-0.4583664	2.96792244	-83.33101152	-36.90995436
5.68	568	-0.992	-0.002	-0.118	0	0.9167328	-0.4583664	3.0080295	-83.32528194	-36.95006142
5.69	569	-0.992	-0.004	-0.12	0	1.145916	-0.4010706	3.0366774	-83.31382278	-36.97870932
5.7	570	-0.992	-0.004	-0.119	0.1145916	1.2605076	-0.3437748	2.9507337	-83.27371572	-36.89276562
5.71	571	-0.993	-0.004	-0.12	0.1145916	1.3178034	-0.286479	2.96792244	-83.25652698	-36.90422478
5.72	572	-0.992	-0.003	-0.12	0.0572958	1.3750992	-0.2291832	2.9793816	-83.24506782	-36.92141352
5.73	573	-0.994	-0.002	-0.12	0.0572958	1.4896908	-0.1718874	2.99084076	-83.22787908	-36.9271431
5.74	574	-0.994	-0.001	-0.12	0.0572958	1.3178034	-0.2291832	3.00229992	-83.21641992	-36.94433184
5.75	575	-0.994	-0.001	-0.12	-0.0572958	1.145916	-0.2291832	2.77311672	-83.17058328	-36.71514864
5.76	576	-0.993	-0.003	-0.12	-0.1145916	0.9740286	-0.2291832	2.78457588	-83.1648537	-36.7266078
5.77	577	-0.991	-0.004	-0.121	-0.1145916	0.9167328	-0.1718874	2.79030546	-83.15339454	-36.73806696
5.78	578	-0.989	-0.004	-0.123	-0.0572958	0.9167328	-0.0572958	2.79030546	-83.14193538	-36.73806696
5.79	579	-0.988	-0.005	-0.122	0	0.9740286	-0.0572958	2.79030546	-83.1362058	-36.73233738
5.8	580	-0.988	-0.005	-0.12	-0.286479	0.9167328	0	2.70436176	-83.09609874	-36.65212326
5.81	581	-0.989	-0.004	-0.118	-0.5156622	0.5156622	-0.0572958	2.69863218	-83.09036916	-36.65785284
5.82	582	-0.99	0	-0.115	-0.5156622	-0.2291832	-0.1718874	2.71582092	-83.09609874	-36.67504158
5.83	583	-0.991	0	-0.115	-0.4583664	-0.6875496	-0.2291832	2.73300966	-83.10182832	-36.6979599
5.84	584	-0.991	0	-0.116	-0.3437748	-0.5156622	-0.2291832	2.75592798	-83.1075579	-36.7266078
5.85	585	-0.993	-0.001	-0.119	-0.1718874	0	-0.1718874	2.41215318	-83.05599168	-36.38856258
5.86	586	-0.994	-0.001	-0.122	-0.0572958	0.572958	-0.2291832	2.42934192	-83.0502621	-36.40575132
5.87	587	-0.99	-0.001	-0.125	-0.0572958	0.6875496	-0.1718874	2.44080108	-83.04453252	-36.41721048
5.88	588	-0.993	0	-0.121	0	0.6875496	-0.0572958	2.44653066	-83.03880294	-36.42294006
5.89	589	-0.992	0	-0.121	0.0572958	0.4010706	-0.0572958	2.45226024	-83.03307336	-36.42866964
5.9	590	-0.994	0	-0.119	0.1718874	0.1145916	-0.0572958	1.68449652	-82.98723672	-35.6666355
5.91	591	-0.994	-0.001	-0.119	0.1718874	-0.0572958	-0.1145916	1.69595568	-82.98723672	-35.67809466
5.92	592	-0.994	-0.004	-0.119	0.286479	-0.2291832	-0.1718874	1.718874	-82.98723672	-35.6952834
5.93	593	-0.995	-0.001	-0.12	0.4010706	-0.1145916	0	1.72460358	-82.9929663	-35.70101298
5.94	594	-0.993	-0.002	-0.121	0.4583664	0.1145916	0	1.73033316	-82.98723672	-35.70101298
5.95	595	-0.991	-0.002	-0.123	0.572958	0.4010706	0.0572958	1.65011904	-82.95858882	-35.61506928
5.96	596	-0.991	-0.001	-0.123	0.6875496	0.5156622	0.0572958	1.65011904	-82.95285924	-35.60361012
5.97	597	-0.992	-0.002	-0.122	0.8021412	0.6302538	0	1.6615782	-82.94712966	-35.6093397
5.98	598	-0.993	-0.002	-0.12	0.6875496	0.572958	-0.0572958	1.67303736	-82.94140008	-35.61506928
5.99	599	-0.992	-0.002	-0.118	0.6302538	0.5156622	-0.0572958	1.68449652	-82.9356705	-35.62079886
6	600	-0.992	-0.003	-0.12	0.5156622	0.5156622	0	1.67303736	-82.91275218	-35.59788054
6.01	601	-0.99	-0.003	-0.121	0.5156622	0.4583664	-0.0572958	1.67876694	-82.9070226	-35.60361012
6.02	602	-0.992	-0.004	-0.121	0.5156622	0.4010706	0	1.68449652	-82.9070226	-35.60361012
6.03	603	-0.992	-0.002	-0.122	0.4010706	0.4010706	0	1.6902261	-82.90129302	-35.60361012
6.04	604	-0.992	-0.002	-0.124	0.3437748	0.4010706	-0.0572958	1.70168526	-82.89556344	-35.6093397
6.05	605	-0.99	-0.003	-0.122	0.3437748	0.4010706	-0.0572958	1.61574156	-82.85545638	-35.523396
6.06	606	-0.991	-0.003	-0.122	0.286479	0.286479	-0.0572958	1.62147114	-82.85545638	-35.52912558
6.07	607	-0.99	-0.003	-0.121	0.1718874	0.4010706	-0.0572958	1.6329303	-82.8497268	-35.53485516
6.08	608	-0.99	-0.004	-0.12	0.1145916	0.3437748	0	1.6329303	-82.84399722	-35.53485516
6.09	609	-0.991	-0.003	-0.12	0	0.1718874	-0.0572958	1.63865988	-82.84399722	-35.54058474
6.1	610	-0.99	-0.004	-0.121	-0.0572958	0	0	1.14018642	-82.75805352	-35.04784086
6.11	611	-0.991	-0.004	-0.12	0	0	-0.0572958	1.145916	-82.75805352	-35.05357044
6.12	612	-0.991	-0.002	-0.122	0	0	0	1.15164558	-82.75805352	-35.05357044
6.13	613	-0.991	-0.002	-0.122	0	0.0572958	-0.1145916	1.16310474	-82.75805352	-35.0650296
6.14	614	-0.991	-0.002	-0.124	0.0572958	0	-0.1718874	1.1745639	-82.75232394	-35.08221834
