TimeStamp(s)	FrameCounter	AccX	AccY	AccZ	GyrX	GyrY	GyrZ	EulerX	EulerY	EulerZ
0.01	1	-0.052	-1.016	0.041	-4.7555514	-5.7868758	1.0313244	92.13737598	-2.07983754	-16.63870032
0.02	2	-0.049	-1.012	0.027	-8.2505952	-8.6516658	2.6929026	92.06289144	-2.10275586	-16.72464402
0.03	3	-0.048	-1.009	0.029	-7.7922288	-10.1413566	2.8074942	91.9884069	-2.12567418	-16.82777646
0.04	4	-0.053	-1.005	0.03	-7.3911582	-11.8602306	2.578311	91.91392236	-2.14286292	-16.94809764
0.05	5	-0.063	-1.003	0.031	-6.8182002	-13.1207382	2.291832	91.85089698	-2.16578124	-17.07987798
0.06	6	-0.07	-1.002	0.032	-6.2452422	-14.1520626	1.8907614	91.79360118	-2.1772404	-17.22311748
0.07	7	-0.076	-1	0.031	-6.302538	-14.8396122	1.432395	91.73630538	-2.18296998	-17.37208656
0.08	8	-0.082	-0.999	0.033	-6.4744254	-15.0687954	1.0313244	91.67900958	-2.18296998	-17.52105564
0.09	9	-0.087	-0.998	0.032	-6.7036086	-14.8396122	0.859437	91.6159842	-2.18869956	-17.67002472
0.1	10	-0.091	-0.998	0.033	-6.6463128	-14.3812458	0.8021412	91.55295882	-2.20015872	-17.81326422
0.11	11	-0.095	-0.997	0.035	-6.302538	-13.750992	0.859437	91.49566302	-2.20015872	-17.95077414
0.12	12	-0.095	-0.998	0.038	-5.5576926	-12.8342592	1.2032118	91.4440968	-2.2058883	-18.0768249
0.13	13	-0.095	-0.996	0.041	-5.156622	-12.2613012	1.2605076	91.39826016	-2.21161788	-18.19714608
0.14	14	-0.095	-0.993	0.041	-5.156622	-11.9175264	1.2605076	91.35242352	-2.22307704	-18.31746726
0.15	15	-0.094	-0.99	0.04	-5.0420304	-11.745639	1.0886202	91.30658688	-2.24026578	-18.43778844
0.16	16	-0.092	-0.988	0.039	-4.6982556	-11.745639	0.859437	91.26647982	-2.24026578	-18.55238004
0.17	17	-0.088	-0.988	0.035	-4.1825934	-11.5737516	0.4583664	91.22637276	-2.24026578	-18.66697164
0.18	18	-0.087	-0.99	0.034	-3.5523396	-11.2299768	0	91.19772486	-2.2345362	-18.78156324
0.19	19	-0.087	-0.992	0.033	-2.9793816	-11.0580894	-0.286479	91.17480654	-2.22880662	-18.89042526
0.2	20	-0.088	-0.993	0.033	-2.4064236	-10.599723	-0.7448454	91.15188822	-2.22880662	-18.99928728
0.21	21	-0.088	-0.995	0.036	-1.8907614	-10.313244	-1.145916	91.13469948	-2.21161788	-19.09669014
0.22	22	-0.092	-0.997	0.037	-1.5469866	-10.0840608	-1.3750992	91.12324032	-2.19442914	-19.19982258
0.23	23	-0.092	-0.999	0.038	-1.145916	-9.740286	-1.3750992	91.11751074	-2.1772404	-19.29722544
0.24	24	-0.093	-1	0.037	-1.0313244	-9.6256944	-1.4896908	91.11178116	-2.16005166	-19.38889872
0.25	25	-0.09	-1	0.036	-1.145916	-9.453807	-1.5469866	91.100322	-2.15432208	-19.48630158
0.26	26	-0.087	-0.999	0.035	-1.2605076	-9.3965112	-1.718874	91.09459242	-2.13140376	-19.57797486
0.27	27	-0.085	-1	0.035	-1.432395	-9.2819196	-1.7761698	91.08313326	-2.10848544	-19.66964814
0.28	28	-0.083	-1.003	0.035	-1.5469866	-9.5111028	-2.005353	91.0716741	-2.08556712	-19.76132142
0.29	29	-0.084	-1.004	0.035	-1.6615782	-9.6256944	-2.3491278	91.06021494	-2.05691922	-19.85872428
0.3	30	-0.084	-1.003	0.033	-1.718874	-9.6829902	-2.8074942	91.0430262	-2.03973048	-19.95612714
0.31	31	-0.086	-1.004	0.034	-1.6615782	-9.6829902	-3.2085648	91.03156704	-2.005353	-20.04780042
0.32	32	-0.088	-1.004	0.035	-1.2605076	-9.3392154	-3.4950438	91.02010788	-1.96524594	-20.1394737
0.33	33	-0.086	-1.003	0.036	-0.8021412	-9.167328	-3.7815228	91.02010788	-1.9194093	-20.23114698
0.34	34	-0.088	-1	0.036	-0.4583664	-8.7089616	-4.010706	91.02010788	-1.87930224	-20.31709068
0.35	35	-0.088	-1	0.036	-0.4010706	-8.4224826	-4.1252976	91.0143783	-1.85065434	-20.40303438
0.36	36	-0.087	-0.998	0.036	-0.572958	-8.1932994	-4.1825934	91.0143783	-1.8048177	-20.4832485
0.37	37	-0.085	-1	0.033	-0.6302538	-8.021412	-4.2398892	91.00864872	-1.75898106	-20.56346262
0.38	38	-0.081	-1.003	0.032	-0.6302538	-7.9641162	-4.3544808	91.00291914	-1.71314442	-20.63794716
0.39	39	-0.079	-1.009	0.031	-0.572958	-7.9641162	-4.583664	91.00291914	-1.6615782	-20.71816128
0.4	40	-0.081	-1.015	0.031	-0.572958	-7.734933	-5.0420304	90.99718956	-1.62720072	-20.79264582
0.41	41	-0.083	-1.019	0.031	-0.5156622	-7.2765666	-5.5003968	90.99145998	-1.56990492	-20.86713036
0.42	42	-0.087	-1.02	0.032	0	-6.589017	-6.016059	90.99718956	-1.50687954	-20.93015574
0.43	43	-0.091	-1.019	0.031	0.4010706	-5.5576926	-6.4171296	91.00291914	-1.43812458	-20.98172196
0.44	44	-0.097	-1.016	0.028	0.6875496	-4.5263682	-6.6463128	91.00864872	-1.36936962	-21.0275586
0.45	45	-0.1	-1.011	0.027	0.5156622	-3.724227	-6.589017	91.00864872	-1.33499214	-21.06766566
0.46	46	-0.098	-1.01	0.025	0.3437748	-2.9793816	-6.4171296	91.0143783	-1.27196676	-21.09058398
0.47	47	-0.093	-1.01	0.028	0.0572958	-2.4637194	-6.2452422	91.0143783	-1.20894138	-21.11923188
0.48	48	-0.083	-1.015	0.031	-0.6302538	-2.8074942	-6.1879464	91.00864872	-1.145916	-21.1421502
0.49	49	-0.071	-1.024	0.032	-1.4896908	-4.010706	-6.016059	90.99718956	-1.08289062	-21.18225726
0.5	50	-0.058	-1.031	0.025	-2.578311	-5.7868758	-5.8441716	90.96281208	-1.0313244	-21.23955306
0.51	51	-0.053	-1.032	0.023	-3.8388186	-7.8495246	-5.7868758	90.9284346	-0.96829902	-21.31976718
0.52	52	-0.053	-1.026	0.025	-4.1252976	-8.880849	-5.6722842	90.88832754	-0.91100322	-21.40571088
0.53	53	-0.053	-1.022	0.022	-3.6669312	-8.4224826	-5.7868758	90.85395006	-0.84797784	-21.485925
0.54	54	-0.042	-1.017	0.021	-3.0939732	-7.3338624	-6.1306506	90.82530216	-0.78495246	-21.56040954
0.55	55	-0.034	-1.012	0.022	-2.1199446	-5.7868758	-6.4171296	90.79665426	-0.72192708	-21.61770534
0.56	56	-0.034	-1.009	0.021	-0.9167328	-5.0420304	-6.7609044	90.79092468	-0.65317212	-21.66354198
0.57	57	-0.036	-1.011	0.023	-0.8021412	-4.870143	-7.2192708	90.7851951	-0.58441716	-21.7151082
0.58	58	-0.03	-1.006	0.03	-1.0886202	-4.9274388	-7.448454	90.77373594	-0.50420304	-21.76094484
0.59	59	-0.02	-1.003	0.033	-0.6302538	-5.156622	-7.3338624	90.76800636	-0.4297185	-21.81251106
0.6	60	-0.015	-1.002	0.037	-0.1145916	-5.0993262	-7.3338624	90.76800636	-0.35523396	-21.8583477
0.61	61	-0.015	-1	0.037	0.4010706	-3.6669312	-8.021412	90.77373594	-0.27501984	-21.89272518
0.62	62	-0.011	-1.001	0.032	0.2291832	-0.859437	-9.3965112	90.77373594	-0.18334656	-21.90418434
0.63	63	-0.012	-0.992	0.031	0.1718874	2.9793816	-11.0580894	90.77373594	-0.07448454	-21.86980686
0.64	64	-0.014	-0.986	0.039	0.7448454	7.2765666	-12.5477802	90.7851951	0.04583664	-21.79532232
0.65	65	-0.013	-0.996	0.047	1.2032118	11.8602306	-13.9801752	90.79665426	0.17761698	-21.67500114
0.66	66	0	-1.021	0.05	0	15.9282324	-14.8396122	90.79665426	0.32085648	-21.5145729
0.67	67	0.019	-1.037	0.051	-2.86479	19.9389384	-15.1260912	90.76227678	0.4583664	-21.31976718
0.68	68	0.031	-1.038	0.047	-5.8441716	23.1475032	-14.610429	90.70498098	0.59587632	-21.0848544
0.69	69	0.046	-1.023	0.045	-6.589017	24.2934192	-13.6364004	90.63622602	0.72192708	-20.84421204
0.7	70	0.062	-1.006	0.046	-6.1306506	23.8350528	-12.2613012	90.57320064	0.84224826	-20.60929926
0.71	71	0.074	-0.997	0.043	-5.443101	22.5745452	-10.599723	90.52163442	0.93965112	-20.38584564
0.72	72	0.083	-0.992	0.047	-5.0993262	20.6837838	-9.3392154	90.4700682	1.02559482	-20.17958076
0.73	73	0.086	-0.989	0.055	-5.156622	18.8503182	-8.4797784	90.41850198	1.10007936	-19.99050462
0.74	74	0.085	-0.987	0.058	-4.8128472	16.9595568	-8.0787078	90.36693576	1.1745639	-19.8243468
0.75	75	0.089	-0.991	0.061	-4.9847346	14.6677248	-7.9641162	90.3268287	1.26623718	-19.6811073
0.76	76	0.091	-1.001	0.059	-5.6722842	12.1467096	-8.307891	90.2695329	1.34072172	-19.56078612
0.77	77	0.097	-1.007	0.054	-6.302538	9.9694692	-8.5370742	90.20650752	1.42093584	-19.45765368
0.78	78	0.1	-1.013	0.047	-6.4744254	7.9641162	-8.59437	90.13775256	1.50687954	-19.38316914
0.79	79	0.097	-1.016	0.045	-6.302538	6.302538	-8.59437	90.07472718	1.58709366	-19.32014376
0.8	80	0.091	-1.015	0.049	-5.6722842	4.7555514	-8.59437	90.02889054	1.6902261	-19.26857754
0.81	81	0.082	-1.016	0.055	-4.9274388	3.6096354	-8.4224826	89.97732432	1.7761698	-19.23420006
0.82	82	0.07	-1.02	0.057	-4.5263682	2.8074942	-7.8495246	89.93148768	1.85065434	-19.20555216
0.83	83	0.059	-1.021	0.06	-4.583664	2.6929026	-6.875496	89.88565104	1.9194093	-19.17690426
0.84	84	0.052	-1.022	0.063	-4.6982556	2.86479	-5.9587632	89.8398144	1.9767051	-19.15398594
0.85	85	0.052	-1.022	0.061	-5.72958	3.0366774	-5.0993262	89.79970734	2.0340009	-19.11960846
0.86	86	0.062	-1.022	0.056	-7.5630456	3.3804522	-4.2398892	89.7252228	2.07410796	-19.08523098
0.87	87	0.068	-1.022	0.047	-9.5111028	3.4950438	-3.3231564	89.62781994	2.10848544	-19.0508535
0.88	88	0.076	-1.016	0.038	-11.172681	3.0366774	-2.291832	89.51322834	2.13140376	-19.0222056
0.89	89	0.08	-1.009	0.034	-11.9175264	2.005353	-1.3178034	89.39290716	2.14286292	-19.00501686
0.9	90	0.08	-1.006	0.03	-11.8029348	0.8021412	-0.4010706	89.28404514	2.16578124	-18.9935577
0.91	91	0.074	-1.002	0.029	-11.4018642	-0.3437748	0	89.16372396	2.16005166	-18.99928728
0.92	92	0.073	-1.001	0.03	-11.172681	-1.432395	0.1145916	89.05486194	2.16005166	-19.01647602
0.93	93	0.073	-1	0.028	-11.4018642	-2.8074942	0.1718874	88.93454076	2.16005166	-19.04512392
0.94	94	0.075	-1	0.024	-11.9175264	-4.8128472	0.572958	88.81421958	2.1485925	-19.09669014
0.95	95	0.077	-1.004	0.019	-12.4904844	-7.1046792	1.2032118	88.68816882	2.1485925	-19.1654451
0.96	96	0.079	-1.001	0.016	-12.8342592	-9.5683986	1.8334656	88.55638848	2.13140376	-19.26284796
0.97	97	0.083	-0.999	0.016	-12.605076	-12.0894138	2.4637194	88.42460814	2.10275586	-19.38316914
0.98	98	0.081	-0.997	0.02	-12.4331886	-14.7823164	3.0366774	88.2928278	2.07410796	-19.53213822
0.99	99	0.08	-0.997	0.027	-12.4331886	-17.9908812	3.5523396	88.16677704	2.0340009	-19.7097552
1	100	0.083	-0.999	0.039	-12.4331886	-21.3140376	3.9534102	88.04072628	1.99962342	-19.91602008
1.01	101	0.084	-1.004	0.048	-12.7196676	-24.4080108	4.2398892	87.90894594	1.95378678	-20.15666244
1.02	102	0.081	-1.008	0.053	-13.0634424	-27.1009134	4.4117766	87.77143602	1.90795014	-20.4259527
1.03	103	0.073	-1.006	0.059	-13.750992	-29.6792244	4.6409598	87.62246694	1.85638392	-20.72389086
1.04	104	0.062	-1.002	0.06	-14.6677248	-32.0283522	4.8128472	87.46776828	1.8048177	-21.03901776
1.05	105	0.047	-0.994	0.062	-14.9542038	-34.2055926	5.156622	87.3187992	1.7475219	-21.3713334
1.06	106	0.035	-0.984	0.065	-15.2979786	-35.8671708	5.5003968	87.15837096	1.68449652	-21.72656736
1.07	107	0.026	-0.982	0.067	-15.0114996	-36.7266078	5.5003968	87.0036723	1.61574156	-22.09326048
1.08	108	0.014	-0.978	0.072	-14.896908	-36.6120162	5.443101	86.84897364	1.55271618	-22.45422402
1.09	109	0.004	-0.978	0.071	-14.2666542	-36.4974246	5.6722842	86.69427498	1.48396122	-22.80945798
1.1	110	0.004	-0.974	0.078	-14.896908	-36.3255372	6.2452422	86.55103548	1.40947668	-23.16469194
1.11	111	0.005	-0.964	0.09	-14.610429	-36.4974246	6.9327918	86.4020664	1.32926256	-23.52565548
1.12	112	0.014	-0.96	0.103	-13.5791046	-36.0390582	7.5630456	86.2588269	1.23758928	-23.88088944
1.13	113	0.01	-0.958	0.107	-13.0061466	-35.5806918	7.734933	86.12704656	1.145916	-24.22466424
1.14	114	0.006	-0.957	0.113	-12.318597	-34.8358464	7.5630456	86.0009958	1.05424272	-24.56843904
1.15	115	0.003	-0.952	0.119	-12.2040054	-34.091001	6.6463128	85.89213378	0.9740286	-24.90075468
1.16	116	-0.001	-0.951	0.117	-11.8029348	-33.1169724	6.016059	85.7718126	0.89954406	-25.22161116
1.17	117	0	-0.948	0.118	-11.0580894	-33.1169724	5.72958	85.657221	0.82505952	-25.54819722
1.18	118	0.003	-0.948	0.126	-10.0840608	-34.2055926	6.2452422	85.55981814	0.7448454	-25.88051286
1.19	119	-0.002	-0.946	0.133	-9.6256944	-35.9244666	7.1046792	85.46241528	0.65317212	-26.23574682
1.2	120	-0.012	-0.939	0.147	-8.0787078	-37.528749	7.9068204	85.40511948	0.55576926	-26.59671036
1.21	121	-0.013	-0.931	0.16	-5.9587632	-39.0184398	8.2505952	85.3420941	0.45263682	-26.97486264
1.22	122	-0.013	-0.922	0.176	-4.2398892	-39.9924684	7.9641162	85.30198704	0.35523396	-27.36447408
1.23	123	-0.016	-0.917	0.191	-1.6042824	-40.966497	7.1046792	85.29052788	0.2578311	-27.76554468
1.24	124	-0.022	-0.915	0.194	1.6615782	-41.252976	6.6463128	85.3134462	0.1718874	-28.16661528
1.25	125	-0.024	-0.916	0.192	4.3544808	-40.9092012	6.7609044	85.38793074	0.08021412	-28.5619563
1.26	126	-0.018	-0.918	0.186	5.72958	-39.3622146	7.2192708	85.45095612	-0.00572958	-28.94583816
1.27	127	-0.01	-0.922	0.18	7.8495246	-36.8984952	8.021412	85.53689982	-0.10313244	-29.30107212
1.28	128	-0.001	-0.968	0.16	8.4797784	-35.523396	8.4797784	85.6285731	-0.2005353	-29.64484692
1.29	129	-0.012	-1.07	0.105	3.8388186	-35.4661002	7.8495246	85.67440974	-0.29793816	-29.98862172
1.3	130	-0.092	-1.216	-0.032	-0.2291832	-36.6120162	4.3544808	85.68013932	-0.36096354	-30.34958526
1.31	131	-0.194	-1.359	-0.05	10.886202	-35.6379876	-6.2452422	85.8004605	-0.3151269	-30.70481922
1.32	132	-0.244	-1.449	-0.076	23.3766864	-33.5753388	-15.2406828	86.04110286	-0.17761698	-31.04286444
1.33	133	-0.181	-1.495	-0.081	28.9916748	-30.4813656	-19.8243468	86.33904102	0.00572958	-31.35799134
1.34	134	-0.059	-1.457	-0.083	30.8251404	-28.8197874	-19.4232762	86.6598975	0.18907614	-31.65019992
1.35	135	0.046	-1.34	-0.095	28.7051958	-29.3927454	-13.3499214	86.9463765	0.32085648	-31.9424085
1.36	136	0.121	-1.208	-0.107	27.2728008	-33.0596766	-4.9847346	87.22712592	0.36669312	-32.26899456
1.37	137	0.177	-1.137	-0.105	27.1009134	-37.2995658	2.3491278	87.50787534	0.33804522	-32.63568768
1.38	138	0.2	-1.084	-0.114	22.8610242	-43.3156248	6.5317212	87.74278812	0.26929026	-33.0596766
1.39	139	0.183	-1.057	-0.149	15.4125702	-51.1651494	6.9327918	87.90321636	0.19480572	-33.55815006
1.4	140	0.139	-1.043	-0.195	8.6516658	-56.5509546	4.297185	87.98343048	0.16042824	-34.1196489
1.41	141	0.083	-1.025	-0.227	4.1825934	-60.3324774	1.0313244	88.02926712	0.1432395	-34.71552522
1.42	142	0.02	-0.982	-0.238	0.572958	-63.2545632	-1.4896908	88.04072628	0.15469866	-35.34004944
1.43	143	-0.015	-0.952	-0.228	0	-63.4264506	-3.4950438	88.05218544	0.18334656	-35.97030324
1.44	144	-0.03	-0.939	-0.215	0.0572958	-61.306506	-4.4690724	88.05791502	0.2291832	-36.57763872
1.45	145	-0.042	-0.938	-0.191	-0.6875496	-57.0666168	-4.583664	88.0349967	0.26356068	-37.14486714
1.46	146	-0.046	-0.942	-0.184	-1.2605076	-52.2537696	-3.5523396	88.02926712	0.29793816	-37.66052934
1.47	147	-0.05	-0.931	-0.185	-1.6615782	-46.123119	-1.5469866	88.01207838	0.30939732	-38.11889574
1.48	148	-0.057	-0.925	-0.186	-0.2291832	-42.5134836	0.6875496	88.01207838	0.29793816	-38.53715508
1.49	149	-0.067	-0.929	-0.174	0.6302538	-38.961144	3.5523396	88.02353754	0.2578311	-38.92103694
1.5	150	-0.086	-0.926	-0.168	1.6042824	-35.523396	6.5317212	88.02353754	0.17761698	-39.2762709
1.51	151	-0.115	-0.927	-0.155	2.4064236	-32.1429438	9.0527364	88.05218544	0.0859437	-39.5913978
1.52	152	-0.145	-0.93	-0.136	3.0366774	-28.8197874	11.2299768	88.08656292	-0.02291832	-39.87214722
1.53	153	-0.167	-0.938	-0.113	2.5210152	-24.8663772	13.0634424	88.11521082	-0.15469866	-40.11278958
1.54	154	-0.178	-0.948	-0.101	1.432395	-20.626488	14.2093584	88.13239956	-0.29793816	-40.31332488
1.55	155	-0.177	-0.96	-0.099	-0.0572958	-15.2979786	14.5531332	88.11521082	-0.47555514	-40.46802354
1.56	156	-0.163	-0.968	-0.096	-0.859437	-11.3445684	14.037471	88.10948124	-0.61879464	-40.57115598
1.57	157	-0.136	-0.977	-0.088	-1.0313244	-7.8495246	13.3499214	88.09802208	-0.75057498	-40.64564052
1.58	158	-0.102	-0.979	-0.073	-0.9167328	-4.1825934	12.6623718	88.0922925	-0.87662574	-40.68574758
1.59	159	-0.072	-0.972	-0.067	-0.4010706	-1.3750992	11.9175264	88.08656292	-0.99694692	-40.69720674
1.6	160	-0.059	-0.964	-0.058	0.0572958	0.2291832	11.2299768	88.0636446	-1.12872726	-40.69147716
1.61	161	-0.06	-0.958	-0.046	0.0572958	0.9740286	10.8289062	88.0636446	-1.23758928	-40.680018
1.62	162	-0.074	-0.961	-0.039	0.0572958	1.0886202	11.0580894	88.0636446	-1.3464513	-40.66282926
1.63	163	-0.089	-0.973	-0.039	-1.2605076	0.859437	11.2299768	88.05218544	-1.45531332	-40.6513701
1.64	164	-0.1	-0.974	-0.04	-2.6356068	1.6615782	10.6570188	88.02353754	-1.56417534	-40.63418136
1.65	165	-0.109	-0.973	-0.038	-3.151269	2.86479	9.3965112	87.9777009	-1.6902261	-40.60553346
1.66	166	-0.113	-0.967	-0.038	-4.010706	4.1825934	7.6776372	87.93759384	-1.76471064	-40.55969682
1.67	167	-0.116	-0.965	-0.037	-4.6982556	4.9847346	6.0733548	87.88602762	-1.82200644	-40.5081306
1.68	168	-0.116	-0.962	-0.037	-5.2712136	5.5003968	4.7555514	87.82873182	-1.87357266	-40.45656438
1.69	169	-0.12	-0.962	-0.035	-6.2452422	5.7868758	3.724227	87.76570644	-1.90795014	-40.393539
1.7	170	-0.119	-0.965	-0.028	-7.2192708	6.2452422	2.9793816	87.67976274	-1.97097552	-40.3362432
1.71	171	-0.117	-0.968	-0.022	-7.9641162	6.8182002	2.1772404	87.59954862	-1.99389384	-40.26748824
1.72	172	-0.12	-0.969	-0.011	-8.2505952	7.6776372	1.432395	87.50787534	-2.005353	-40.1930037
1.73	173	-0.116	-0.968	0.002	-8.3651868	9.0527364	0.8021412	87.42193164	-2.01108258	-40.10133042
1.74	174	-0.127	-0.965	0.014	-7.734933	10.6570188	0	87.33598794	-2.01108258	-39.99819798
1.75	175	-0.132	-0.958	0.023	-7.2192708	12.1467096	-0.9167328	87.27296256	-2.02827132	-39.8778768
1.76	176	-0.137	-0.951	0.03	-6.875496	13.750992	-1.6615782	87.19274844	-2.01108258	-39.74609646
1.77	177	-0.137	-0.95	0.036	-6.302538	15.2979786	-2.4064236	87.12399348	-1.98243468	-39.59712738
1.78	178	-0.134	-0.942	0.041	-5.72958	16.2720072	-2.9793816	87.05523852	-1.9480572	-39.43669914
1.79	179	-0.131	-0.933	0.045	-3.3231564	17.5898106	-3.437748	87.01513146	-1.90795014	-39.26481174
1.8	180	-0.129	-0.919	0.055	-1.8907614	18.8503182	-3.9534102	87.0036723	-1.8907614	-39.08146518
1.81	181	-0.131	-0.905	0.066	0.2291832	20.3973048	-4.6982556	86.99794272	-1.8334656	-38.88092988
1.82	182	-0.136	-0.895	0.082	2.4637194	22.5172494	-5.6722842	87.01513146	-1.7761698	-38.66320584
1.83	183	-0.142	-0.888	0.093	3.724227	25.0955604	-6.5317212	87.04377936	-1.70168526	-38.4168339
1.84	184	-0.15	-0.885	0.088	4.9274388	28.0176462	-7.2192708	87.07815684	-1.62147114	-38.14181406
1.85	185	-0.145	-0.894	0.091	6.6463128	30.3094782	-7.5630456	87.15264138	-1.55844576	-37.8438759
1.86	186	-0.131	-0.895	0.1	8.307891	30.366774	-7.448454	87.22139634	-1.47823164	-37.54593774
1.87	187	-0.112	-0.878	0.144	15.9282324	28.4760126	-6.875496	87.376095	-1.39801752	-37.26518832
1.88	188	-0.093	-0.87	0.18	20.6837838	28.6479	-6.7036086	87.57090072	-1.32926256	-36.9844389
1.89	189	-0.074	-0.88	0.189	21.8296998	29.3927454	-6.9327918	87.78289518	-1.25477802	-36.69223032
1.9	190	-0.062	-0.915	0.167	18.907614	28.1895336	-7.3911582	87.98916006	-1.18029348	-36.4114809
1.91	191	-0.045	-0.962	0.143	15.4125702	25.0955604	-6.9327918	88.13812914	-1.10580894	-36.16510896
1.92	192	-0.025	-1.016	0.133	13.750992	21.6005166	-4.5263682	88.26990948	-1.0599723	-35.9531145
1.93	193	-0.005	-1.054	0.118	12.891555	17.761698	-0.6875496	88.39596024	-1.04851314	-35.77549752
1.94	194	0.004	-1.074	0.122	13.6936962	13.2926256	3.3231564	88.52774058	-1.08289062	-35.6379876
1.95	195	0.011	-1.107	0.124	14.7250206	8.9954406	6.1879464	88.6938984	-1.13445684	-35.54631432
1.96	196	0.025	-1.191	0.08	13.3499214	6.7609044	8.1932994	88.82567874	-1.21467096	-35.47755936
1.97	197	0.056	-1.324	0.018	11.4018642	3.2085648	11.745639	88.94027034	-1.33499214	-35.44318188
1.98	198	0.123	-1.485	-0.036	10.7143146	-2.1772404	17.9335854	89.05486194	-1.51260912	-35.46037062
1.99	199	0.217	-1.658	-0.076	7.2192708	-10.9434978	26.929026	89.12934648	-1.7761698	-35.56350306
2	200	0.285	-1.717	-0.1	2.6356068	-23.204799	34.37748	89.16945354	-2.10848544	-35.78695668
2.01	201	0.215	-1.531	-0.1	0.859437	-31.9710564	38.0444112	89.19237186	-2.48663772	-36.10208358
2.02	202	-0.023	-1.104	-0.066	13.1207382	-34.0337052	35.809875	89.34707052	-2.8361421	-36.43439922
2.03	203	-0.296	-0.898	0.007	40.2216516	-29.793816	24.9809688	89.77678902	-3.07105488	-36.72087822
2.04	204	-0.496	-0.904	0.026	51.56622	-18.621135	10.886202	90.31536954	-3.17418732	-36.8984952
2.05	205	-0.592	-0.97	0.046	40.680018	-5.3285094	-2.5210152	90.7278993	-3.19710564	-36.95006142
2.06	206	-0.557	-1.023	0.021	29.507337	11.1153852	-12.318597	91.02010788	-3.07678446	-36.83546982
2.07	207	-0.463	-1.053	-0.028	20.1108258	30.1375908	-17.18874	91.20345444	-2.91635622	-36.53180208
2.08	208	-0.346	-1.058	-0.078	10.2559482	49.3889796	-17.5325148	91.2722094	-2.76738714	-36.0390582
2.09	209	-0.219	-1.028	-0.128	1.432395	65.3745078	-13.8655836	91.24929108	-2.6642547	-35.38588608
2.1	210	-0.07	-0.967	-0.193	-5.0993262	75.2293854	-7.0473834	91.13469948	-2.62987722	-34.64677026
2.11	211	0.053	-0.897	-0.242	-9.9121734	80.0995284	1.145916	90.9857304	-2.67571386	-33.85608822
2.12	212	0.118	-0.833	-0.266	-10.7143146	77.922288	7.6203414	90.83103174	-2.79030546	-33.0883245
2.13	213	0.139	-0.795	-0.263	-9.740286	71.8489332	12.318597	90.68779224	-2.93927454	-32.37785658
2.14	214	0.135	-0.785	-0.25	-7.5630456	63.4837464	14.7250206	90.56747106	-3.11116194	-31.75333236
2.15	215	0.131	-0.813	-0.235	-3.6669312	53.285094	14.3812458	90.46433862	-3.26013102	-31.226211
2.16	216	0.128	-0.855	-0.219	-0.7448454	42.3415962	11.9748222	90.42996114	-3.39191136	-30.80795166
2.17	217	0.134	-0.881	-0.196	2.3491278	32.1429438	8.7089616	90.42996114	-3.48931422	-30.49282476
2.18	218	0.136	-0.881	-0.154	6.9900876	23.7204612	4.4690724	90.48152736	-3.54088044	-30.25791198
2.19	219	0.121	-0.883	-0.116	13.4072172	16.2720072	-0.5156622	90.60757812	-3.54088044	-30.09175416
2.2	220	0.091	-0.909	-0.08	17.1314442	10.9434978	-4.1825934	90.75081762	-3.47785506	-29.98289214
2.21	221	0.072	-0.95	-0.052	18.907614	7.0473834	-6.3598338	90.93989376	-3.41482968	-29.9084076
2.22	222	0.068	-1.001	-0.033	19.5951636	4.3544808	-7.448454	91.13469948	-3.34034514	-29.86257096
2.23	223	0.074	-1.047	-0.015	18.3919518	2.9793816	-8.1932994	91.31804604	-3.26013102	-29.82819348
2.24	224	0.078	-1.08	-0.003	16.329303	2.6356068	-8.7089616	91.48420386	-3.17418732	-29.79954558
2.25	225	0.073	-1.097	0.011	13.9228794	3.724227	-9.2246238	91.6159842	-3.05959572	-29.75370894
2.26	226	0.055	-1.104	0.017	10.3705398	5.5003968	-9.453807	91.71911664	-2.96792244	-29.69641314
2.27	227	0.034	-1.092	0.016	5.72958	7.5057498	-9.0527364	91.77068286	-2.88197874	-29.61619902
2.28	228	0.003	-1.075	0.017	2.4064236	9.1100322	-8.6516658	91.7878716	-2.79603504	-29.52452574
2.29	229	-0.021	-1.055	0.018	0.1145916	10.7143146	-8.4224826	91.78214202	-2.7215505	-29.41566372
2.3	230	-0.03	-1.043	0.017	-1.4896908	12.032118	-8.8235532	91.75349412	-2.6356068	-29.29534254
2.31	231	-0.025	-1.038	0.018	-3.2085648	12.891555	-9.5111028	91.70765748	-2.5496631	-29.1635622
2.32	232	-0.014	-1.032	0.009	-5.7868758	13.5218088	-10.2559482	91.6446321	-2.45226024	-29.02605228
2.33	233	0.007	-1.029	-0.001	-8.2505952	13.8082878	-10.599723	91.55295882	-2.35485738	-28.88854236
2.34	234	0.033	-1.017	-0.013	-10.313244	13.6364004	-10.3705398	91.43836722	-2.2631841	-28.75103244
2.35	235	0.056	-0.994	-0.023	-11.8602306	12.9488508	-9.3965112	91.29512772	-2.15432208	-28.6192521
2.36	236	0.065	-0.972	-0.024	-12.032118	11.9175264	-8.2505952	91.16907696	-2.07983754	-28.5046605
2.37	237	0.072	-0.957	-0.016	-11.6310474	10.886202	-6.9900876	91.0430262	-2.01681216	-28.39579848
2.38	238	0.072	-0.952	-0.005	-11.2872726	9.2819196	-5.7868758	90.92270502	-1.96524594	-28.3041252
2.39	239	0.07	-0.948	0.006	-11.0580894	7.3911582	-4.5263682	90.80811342	-1.9194093	-28.22964066
2.4	240	0.066	-0.947	0.015	-11.1153852	5.2712136	-3.3804522	90.68779224	-1.85638392	-28.17807444
2.41	241	0.056	-0.938	0.021	-10.9434978	2.9793816	-2.1772404	90.57893022	-1.83919518	-28.14942654
2.42	242	0.046	-0.931	0.035	-9.6256944	0.6302538	-0.7448454	90.47579778	-1.82773602	-28.14369696
2.43	243	0.044	-0.923	0.052	-7.8495246	-2.4064236	0.5156622	90.40131324	-1.8334656	-28.16661528
2.44	244	0.04	-0.92	0.069	-4.870143	-4.8128472	1.5469866	90.34974702	-1.85065434	-28.21245192
2.45	245	0.039	-0.927	0.09	-2.4637194	-7.161975	2.5210152	90.36693576	-1.8334656	-28.28120688
2.46	246	0.045	-0.937	0.108	-1.2032118	-9.6256944	3.3804522	90.3554766	-1.86784308	-28.37860974
2.47	247	0.052	-0.945	0.129	-0.286479	-12.318597	4.297185	90.36120618	-1.90222056	-28.49893092
2.48	248	0.064	-0.945	0.15	0.1718874	-14.7823164	5.3285094	90.36693576	-1.95378678	-28.6479
2.49	249	0.07	-0.937	0.165	0.5156622	-16.7876694	6.2452422	90.3841245	-2.01108258	-28.81405782
2.5	250	0.07	-0.919	0.164	0.4583664	-18.048177	7.2192708	90.42996114	-2.04546006	-28.9916748
2.51	251	0.065	-0.902	0.149	-0.1145916	-18.9649098	7.9068204	90.4414203	-2.1199446	-29.18075094
2.52	252	0.056	-0.889	0.153	0	-18.907614	8.021412	90.44714988	-2.19442914	-29.36982708
2.53	253	0.041	-0.886	0.14	0.6875496	-17.3606274	8.021412	90.46433862	-2.26891368	-29.54171448
2.54	254	0.032	-0.877	0.135	2.86479	-17.3033316	8.4224826	90.50444568	-2.34339822	-29.71360188
2.55	255	0.023	-0.88	0.135	5.6149884	-19.7097552	9.2246238	90.59038938	-2.41788276	-29.9084076
2.56	256	-0.008	-0.893	0.152	6.9900876	-24.1215318	9.9121734	90.67633308	-2.50382646	-30.14904996
2.57	257	-0.056	-0.896	0.188	10.9434978	-26.8717302	11.1153852	90.80238384	-2.6069589	-30.41261064
2.58	258	-0.085	-0.896	0.209	16.3865988	-27.6738714	11.745639	90.9857304	-2.71009134	-30.68763048
2.59	259	-0.066	-0.924	0.23	22.6891368	-27.8457588	10.599723	91.23783192	-2.80176462	-30.96265032
2.6	260	-0.056	-0.945	0.252	25.8977016	-26.1841806	8.1932994	91.54149966	-2.86479	-31.22048142
2.61	261	-0.056	-0.959	0.278	29.9084076	-23.3766864	4.8128472	91.86235614	-2.89916748	-31.44966462
2.62	262	-0.045	-0.982	0.309	34.8358464	-19.9389384	0.6875496	92.22904926	-2.88770832	-31.64447034
2.63	263	-0.02	-1.009	0.347	38.961144	-15.8136408	-3.2085648	92.63011986	-2.84187168	-31.79343942
2.64	264	0.005	-1.043	0.377	40.10706	-11.4018642	-6.4171296	93.0483792	-2.76738714	-31.89657186
2.65	265	0.001	-1.117	0.36	38.388186	-6.8182002	-8.2505952	93.46090896	-2.67571386	-31.95386766
2.66	266	-0.075	-1.277	0.31	34.3201842	-4.0680018	-9.9121734	93.81041334	-2.56685184	-31.98251556
2.67	267	-0.176	-1.431	0.201	23.5485738	-2.9793816	-12.0894138	94.0510557	-2.44653066	-31.9997043
2.68	268	-0.214	-1.516	0.078	7.7922288	0.4583664	-14.037471	94.13126982	-2.30329116	-31.98824514
2.69	269	-0.239	-1.55	0.072	-1.6615782	3.0366774	-16.2147114	94.1083515	-2.1485925	-31.9424085
2.7	270	-0.234	-1.577	0.052	-6.3598338	5.6149884	-20.340009	94.03959654	-1.95378678	-31.87365354
2.71	271	-0.196	-1.515	-0.082	-13.9801752	14.2666542	-24.8090814	93.89062746	-1.72460358	-31.71895488
2.72	272	-0.121	-1.406	-0.172	-17.8762896	19.194093	-28.7624916	93.70155132	-1.45531332	-31.51269
2.73	273	-0.069	-1.251	-0.22	-12.1467096	21.6578124	-31.6272816	93.5640414	-1.16310474	-31.27777722
2.74	274	0.055	-1.105	-0.266	-2.2345362	20.05353	-29.2781538	93.5353935	-0.89381448	-31.06005318
2.75	275	0.189	-1.048	-0.381	0.1718874	6.5317212	-22.631841	93.4208019	-0.62452422	-30.99129822
2.76	276	0.274	-0.945	-0.429	-0.6302538	-10.3705398	-17.3033316	93.41507232	-0.44690724	-31.0829715
2.77	277	0.318	-0.874	-0.406	6.3598338	-26.069589	-13.6364004	93.48382728	-0.286479	-31.32934344
2.78	278	0.31	-0.863	-0.353	11.6310474	-37.9298196	-9.7975818	93.60987804	-0.15469866	-31.69603656
2.79	279	0.271	-0.845	-0.3	11.172681	-45.0344988	-6.3598338	93.73019922	-0.05156622	-32.13148464
2.8	280	0.208	-0.843	-0.261	7.0473834	-48.128472	-4.2398892	93.7645767	0.05156622	-32.60703978
2.81	281	0.126	-0.852	-0.232	2.8074942	-47.4409224	-4.4690724	93.79895418	0.13750992	-33.07113576
2.82	282	0	-0.869	-0.209	-2.5210152	-43.6021038	-5.2712136	93.77603586	0.23491278	-33.49512468
2.83	283	-0.103	-0.888	-0.198	-6.1306506	-36.4974246	-6.2452422	93.71874006	0.32658606	-33.85035864
2.84	284	-0.182	-0.903	-0.182	-5.5003968	-29.5646328	-5.3858052	93.66144426	0.40680018	-34.14256722
2.85	285	-0.246	-0.917	-0.164	-3.5523396	-22.4599536	-2.8074942	93.54685266	0.3724227	-34.37175042
2.86	286	-0.287	-0.931	-0.147	-0.5156622	-15.8709366	0.4010706	93.54685266	0.37815228	-34.53217866
2.87	287	-0.295	-0.935	-0.118	3.0366774	-8.9381448	3.0939732	93.57550056	0.35523396	-34.61812236
2.88	288	-0.265	-0.932	-0.076	6.7036086	-1.432395	4.8128472	93.64425552	0.30939732	-34.6353111
2.89	289	-0.21	-0.933	-0.043	8.3651868	4.4690724	6.4171296	93.73019922	0.24637194	-34.59520404
2.9	290	-0.135	-0.94	-0.017	7.448454	8.021412	8.1932994	93.77603586	0.12032118	-34.52644908
2.91	291	-0.089	-0.96	0.009	6.4171296	10.4851314	10.4278356	93.84479082	0.01145916	-34.42904622
2.92	292	-0.065	-0.992	0.037	5.0993262	11.0007936	12.4904844	93.89062746	-0.12032118	-34.32591378
2.93	293	-0.062	-1.022	0.058	2.7501984	11.1153852	13.8655836	93.91927536	-0.26356068	-34.22851092
2.94	294	-0.057	-1.046	0.077	0.1145916	11.2299768	14.2093584	93.91927536	-0.41825934	-34.12537848
2.95	295	-0.07	-1.061	0.087	-0.7448454	11.8029348	14.1520626	93.9078162	-0.58441716	-34.02224604
2.96	296	-0.091	-1.076	0.096	-2.5210152	12.891555	13.5218088	93.8791683	-0.72765666	-33.90192486
2.97	297	-0.107	-1.083	0.106	-5.0993262	14.0947668	12.9488508	93.8218725	-0.87089616	-33.7758741
2.98	298	-0.112	-1.084	0.109	-7.5057498	15.4125702	12.3758928	93.74165838	-1.00840608	-33.6326346
2.99	299	-0.111	-1.075	0.11	-9.6256944	17.5325148	12.032118	93.63852594	-1.145916	-33.46647678
3	300	-0.112	-1.053	0.108	-11.2872726	19.1367972	11.9175264	93.52393434	-1.29488508	-33.2888598
3.01	301	-0.104	-1.027	0.105	-11.9748222	19.8816426	11.6883432	93.392154	-1.432395	-33.09978366
3.02	302	-0.105	-1.008	0.102	-12.2040054	20.4546006	11.2872726	93.26037366	-1.55844576	-32.91070752
3.03	303	-0.096	-1	0.099	-12.2613012	21.2567418	10.886202	93.12859332	-1.68449652	-32.70444264
3.04	304	-0.098	-0.991	0.097	-11.8602306	22.2307704	10.886202	92.99681298	-1.81054728	-32.49244818
3.05	305	-0.097	-0.981	0.099	-10.8289062	23.3193906	11.0580894	92.88222138	-1.95378678	-32.26899456
3.06	306	-0.092	-0.964	0.103	-9.740286	23.8923486	11.3445684	92.77335936	-2.08556712	-32.04554094
3.07	307	-0.088	-0.942	0.111	-8.307891	24.2934192	11.5737516	92.6759565	-2.21734746	-31.81062816
3.08	308	-0.092	-0.919	0.115	-7.3338624	24.637194	11.2872726	92.5900128	-2.3491278	-31.57571538
3.09	309	-0.089	-0.896	0.125	-6.2452422	24.9809688	10.4851314	92.50979868	-2.46944898	-31.32934344
3.1	310	-0.084	-0.876	0.128	-5.443101	25.78311	8.9954406	92.45250288	-2.58404058	-31.0829715
3.11	311	-0.078	-0.862	0.131	-4.010706	26.4706596	6.8182002	92.40093666	-2.66998428	-30.8251404
3.12	312	-0.078	-0.855	0.138	-2.5210152	27.0436176	4.010706	92.35510002	-2.72728008	-30.55585014
3.13	313	-0.079	-0.851	0.146	-1.2032118	27.501984	1.2032118	92.32645212	-2.76165756	-30.28655988
3.14	314	-0.085	-0.848	0.148	0.2291832	27.9603504	-1.6615782	92.31499296	-2.76165756	-30.01154004
3.15	315	-0.093	-0.851	0.142	0.6875496	29.0489706	-4.1252976	92.32072254	-2.7501984	-29.71933146
3.16	316	-0.102	-0.863	0.137	0.572958	29.8511118	-5.9014674	92.30926338	-2.71009134	-29.4213933
3.17	317	-0.111	-0.874	0.106	0.2291832	29.220858	-6.9900876	92.29207464	-2.6642547	-29.12918472
3.18	318	-0.117	-0.875	0.088	1.2605076	27.9030546	-7.8495246	92.28634506	-2.60122932	-28.85416488
3.19	319	-0.125	-0.869	0.093	3.3231564	26.929026	-8.7089616	92.30926338	-2.53247436	-28.58487462
3.2	320	-0.13	-0.865	0.09	5.72958	25.78311	-9.9694692	92.35510002	-2.4637194	-28.32131394
3.21	321	-0.128	-0.864	0.101	8.1932994	25.9549974	-12.1467096	92.42385498	-2.36058696	-28.05775326
3.22	322	-0.129	-0.878	0.109	10.0840608	27.7311672	-14.32395	92.50979868	-2.24026578	-27.77700384
3.23	323	-0.131	-0.912	0.113	11.4018642	29.7365202	-15.469866	92.61293112	-2.10275586	-27.47906568
3.24	324	-0.136	-0.938	0.121	10.3705398	30.1948866	-14.9542038	92.7046044	-1.9767051	-27.16966836
3.25	325	-0.135	-0.945	0.154	10.6570188	30.8824362	-13.9801752	92.80773684	-1.87357266	-26.85454146
3.26	326	-0.138	-0.947	0.198	14.4385416	32.7159018	-13.2353298	92.93951718	-1.77044022	-26.5279554
3.27	327	-0.141	-0.953	0.239	20.1108258	34.7785506	-12.891555	93.12859332	-1.66730778	-26.17272144
3.28	328	-0.143	-0.957	0.273	25.1528562	36.3255372	-13.0634424	93.36923568	-1.56417534	-25.80602832
3.29	329	-0.149	-0.963	0.301	28.361421	38.5600734	-14.32395	93.64425552	-1.45531332	-25.4106873
3.3	330	-0.156	-0.997	0.308	27.1582092	43.258329	-16.1001198	93.91927536	-1.34072172	-24.96950964
3.31	331	-0.134	-1.087	0.257	18.6784308	51.3943326	-17.4179232	94.09116276	-1.22040054	-24.44811786
3.32	332	-0.07	-1.212	0.168	10.313244	55.0612638	-16.2720072	94.17710646	-1.11153852	-23.8923486
3.33	333	0.02	-1.375	0.061	5.5576926	50.706783	-11.5164558	94.21721352	-1.04851314	-23.38814556
3.34	334	0.133	-1.521	-0.026	0.4010706	39.9924684	-3.2085648	94.21148394	-1.05424272	-22.98707496
3.35	335	0.195	-1.56	-0.044	1.7761698	29.0489706	6.4744254	94.21148394	-1.14018642	-22.70632554
3.36	336	0.165	-1.553	-0.106	3.9534102	20.6837838	15.5271618	94.24586142	-1.3178034	-22.5172494
3.37	337	0.13	-1.544	-0.13	6.016059	11.0580894	25.0955604	94.30315722	-1.5756345	-22.42557612
3.38	338	0.134	-1.479	-0.22	12.318597	5.443101	31.6845774	94.42920798	-1.89649098	-22.39692822
3.39	339	0.063	-1.272	-0.207	25.210152	16.6730778	32.2002396	94.6813095	-2.22880662	-22.25368872
3.4	340	-0.099	-1.091	-0.092	36.669312	30.4240698	26.9863218	95.0250843	-2.53820394	-21.9729393
3.41	341	-0.271	-1.01	-0.002	44.404245	39.5913978	17.3606274	95.44907322	-2.75592798	-21.59478702
3.42	342	-0.346	-1.016	-0.016	42.2270046	49.3889796	6.9900876	95.85014382	-2.88197874	-21.1135023
3.43	343	-0.31	-1.045	-0.056	33.6899304	58.3271244	-1.8907614	96.15381156	-2.93927454	-20.53481472
3.44	344	-0.235	-1.042	-0.076	23.777757	64.2858876	-6.5317212	96.35434686	-2.95646328	-19.89310176
3.45	345	-0.152	-1.023	-0.095	15.1260912	68.5830726	-7.2765666	96.44029056	-2.98511118	-19.21128174
3.46	346	-0.062	-0.996	-0.138	6.9327918	73.5678072	-6.0733548	96.46320888	-3.02521824	-18.48362508
3.47	347	0.043	-0.965	-0.182	-1.3178034	77.8649922	-3.6096354	96.39445392	-3.09970278	-17.71586136
3.48	348	0.124	-0.927	-0.2	-6.8182002	78.208767	-1.6042824	96.27413274	-3.18564648	-16.94809764
3.49	349	0.177	-0.9	-0.197	-8.4224826	76.5471888	0.4583664	96.13662282	-3.2945085	-16.19752266
3.5	350	0.221	-0.885	-0.185	-8.4797784	72.765666	2.291832	95.96473542	-3.38618178	-15.48705474
3.51	351	0.244	-0.892	-0.181	-8.5370742	66.6350154	3.4950438	95.83295508	-3.50650296	-14.83388262
3.52	352	0.247	-0.912	-0.18	-9.5683986	58.8427866	3.724227	95.68971558	-3.62109456	-14.26092462
3.53	353	0.233	-0.934	-0.177	-10.7143146	49.6754586	3.0939732	95.54647608	-3.71276784	-13.7796399
3.54	354	0.21	-0.95	-0.169	-10.886202	38.961144	1.4896908	95.40323658	-3.77579322	-13.40148762
3.55	355	0.177	-0.953	-0.152	-9.740286	27.5592798	-0.4010706	95.21989002	-3.7528749	-13.13219736
3.56	356	0.145	-0.962	-0.119	-6.9327918	19.5378678	-2.291832	95.13394632	-3.7528749	-12.93739164
3.57	357	0.121	-0.983	-0.088	-3.8388186	13.6936962	-4.2398892	95.0823801	-3.72995658	-12.79415214
3.58	358	0.1	-1.002	-0.067	-1.3750992	10.3705398	-6.1306506	95.05946178	-3.67839036	-12.6910197
3.59	359	0.084	-1.021	-0.048	0	8.8235532	-7.7922288	95.0537322	-3.6096354	-12.59361684
3.6	360	0.068	-1.04	-0.035	0.3437748	8.0787078	-8.9381448	94.98497724	-3.47785506	-12.50767314
3.61	361	0.048	-1.049	-0.029	-1.2605076	8.8235532	-9.2819196	94.96205892	-3.39764094	-12.41027028
3.62	362	0.034	-1.047	-0.032	-5.0420304	9.5111028	-8.1932994	94.90476312	-3.3231564	-12.31286742
3.63	363	0.018	-1.035	-0.033	-9.6829902	10.3705398	-6.589017	94.7959011	-3.27159018	-12.2040054
3.64	364	0.01	-1.027	-0.027	-11.9175264	11.5164558	-5.156622	94.66985034	-3.23148312	-12.0894138
3.65	365	0.014	-1.028	-0.013	-12.4904844	13.2926256	-4.583664	94.50369252	-3.18564648	-11.95190388
3.66	366	0.015	-1.036	-0.011	-12.0894138	15.469866	-4.3544808	94.3661826	-3.15699858	-11.8029348
3.67	367	0.023	-1.029	-0.013	-12.1467096	16.902261	-4.2398892	94.23440226	-3.13408026	-11.6310474
3.68	368	0.037	-1.003	-0.011	-11.5164558	17.0741484	-3.7815228	94.10262192	-3.11116194	-11.45916
3.69	369	0.06	-0.969	0.002	-10.026765	15.9282324	-3.3231564	93.9937599	-3.0939732	-11.30446134
3.7	370	0.078	-0.938	0.016	-8.307891	13.1207382	-2.8074942	93.87343872	-3.03094782	-11.172681
3.71	371	0.095	-0.917	0.024	-6.6463128	9.2246238	-2.0626488	93.79895418	-3.01948866	-11.08100772
3.72	372	0.112	-0.905	0.025	-5.3285094	4.2398892	-1.3178034	93.74165838	-3.01375908	-11.03517108
3.73	373	0.119	-0.899	0.02	-3.7815228	-1.432395	-0.3437748	93.7072809	-3.0080295	-11.05235982
3.74	374	0.118	-0.903	0.023	-1.3750992	-6.016059	0.9167328	93.69582174	-3.0080295	-11.1153852
3.75	375	0.108	-0.921	0.034	1.2032118	-9.8548776	2.1199446	93.69582174	-2.9507337	-11.21278806
3.76	376	0.084	-0.945	0.033	3.8388186	-13.3499214	2.7501984	93.74165838	-2.96792244	-11.3445684
3.77	377	0.039	-0.96	0.011	5.5576926	-17.18874	2.8074942	93.81041334	-2.9793816	-11.5164558
3.78	378	-0.03	-0.984	0.004	5.3858052	-20.5118964	1.7761698	93.8791683	-2.97365202	-11.7169911
3.79	379	-0.09	-1.036	0.002	4.0680018	-17.8762896	0.1145916	93.93073452	-2.96219286	-11.89460808
3.8	380	-0.121	-1.08	0.033	4.1252976	-11.8602306	-1.145916	93.965112	-2.96219286	-12.00919968
3.81	381	-0.121	-1.11	0.055	4.3544808	-7.8495246	-1.8334656	94.01094864	-2.93354496	-12.0894138
3.82	382	-0.103	-1.081	0.04	1.8334656	-6.7036086	-0.6302538	94.03386696	-2.9220858	-12.15243918
3.83	383	-0.06	-1.002	0.046	-0.6302538	-5.0420304	2.291832	94.03386696	-2.93927454	-12.2040054
3.84	384	-0.025	-0.934	0.032	-2.7501984	-4.9847346	6.1306506	94.00521906	-2.99657034	-12.25557162
3.85	385	-0.012	-0.917	0.017	-3.6096354	-8.6516658	8.880849	93.95365284	-3.05959572	-12.35297448
3.86	386	0	-0.959	0.017	-3.0366774	-12.2040054	9.2819196	93.93073452	-3.13980984	-12.47902524
3.87	387	0.018	-1.013	0.027	-2.6356068	-14.2093584	6.9327918	93.91354578	-3.19710564	-12.62226474
3.88	388	0.04	-1.045	0.01	-2.5210152	-14.7250206	3.3231564	93.89635704	-3.21429438	-12.77123382
3.89	389	0.048	-1.052	-0.011	-2.5210152	-15.6990492	-0.1718874	93.88489788	-3.19710564	-12.92593248
3.9	390	0.041	-1.048	-0.007	-2.0626488	-16.5584862	-3.0366774	93.83906124	-3.1226211	-13.0920903
3.91	391	0.031	-1.042	0.003	-0.6875496	-17.2460358	-4.9274388	93.83906124	-3.05386614	-13.25824812
3.92	392	0.023	-1.036	0.013	0.6875496	-17.9908812	-6.1306506	93.86197956	-2.9793816	-13.43013552
3.93	393	0.016	-1.023	0.024	1.718874	-18.621135	-6.5317212	93.89062746	-2.8934379	-13.6077525
3.94	394	0.005	-1.002	0.037	2.6929026	-18.621135	-6.4171296	93.92500494	-2.81322378	-13.78536948
3.95	395	-0.008	-0.983	0.043	2.4637194	-17.475219	-5.9014674	93.94792326	-2.72728008	-13.95725688
3.96	396	-0.02	-0.967	0.037	2.005353	-16.2147114	-5.2139178	93.97657116	-2.65852512	-14.11195554
3.97	397	-0.029	-0.959	0.035	2.0626488	-14.896908	-4.7555514	94.00521906	-2.59549974	-14.25519504
3.98	398	-0.036	-0.962	0.042	2.2345362	-13.5791046	-4.583664	94.03959654	-2.53820394	-14.38697538
3.99	399	-0.038	-0.98	0.044	1.8334656	-11.9748222	-4.5263682	94.06251486	-2.48090814	-14.50156698
4	400	-0.039	-1.001	0.038	0.4583664	-10.0840608	-4.297185	94.03386696	-2.42361234	-14.59896984
4.01	401	-0.034	-1.022	0.019	-0.8021412	-8.1932994	-4.1825934	94.02813738	-2.37204612	-14.67345438
4.02	402	-0.028	-1.032	0.007	-2.1772404	-6.9900876	-4.010706	94.01094864	-2.32620948	-14.74220934
4.03	403	-0.028	-1.03	0.001	-3.6669312	-5.9014674	-3.6669312	93.97657116	-2.28037284	-14.79950514
4.04	404	-0.037	-1.02	0	-5.0420304	-4.870143	-2.9220858	93.92500494	-2.25172494	-14.84534178
4.05	405	-0.045	-1.007	-0.002	-6.4744254	-3.8388186	-2.2345362	93.79895418	-2.22880662	-14.88544884
4.06	406	-0.048	-0.998	-0.006	-7.6203414	-2.7501984	-1.718874	93.71874006	-2.2058883	-14.90836716
4.07	407	-0.047	-0.992	-0.008	-8.0787078	-2.005353	-1.145916	93.63852594	-2.19442914	-14.93128548
4.08	408	-0.047	-0.992	-0.002	-7.7922288	-2.1199446	-0.6875496	93.55831182	-2.18869956	-14.9542038
4.09	409	-0.043	-0.995	0.001	-7.8495246	-2.1772404	-0.1145916	93.48382728	-2.18296998	-14.97712212
4.1	410	-0.037	-0.997	0.006	-7.3911582	-2.4637194	0.286479	93.35204694	-2.18296998	-15.00004044
4.11	411	-0.032	-1	0.013	-7.2765666	-2.8074942	0.4583664	93.2775624	-2.18296998	-15.03441792
4.12	412	-0.025	-1.001	0.017	-7.2192708	-2.8074942	0.4010706	93.20307786	-2.18869956	-15.06306582
4.13	413	-0.014	-1.002	0.015	-7.0473834	-3.0366774	0.286479	93.1343229	-2.18869956	-15.09171372
4.14	414	-0.005	-1	0.015	-6.9900876	-3.7815228	0.0572958	93.06556794	-2.18869956	-15.13182078
4.15	415	0.001	-0.997	0.015	-7.2192708	-4.6982556	-0.3437748	92.95670592	-2.15432208	-15.17765742
4.16	416	0.004	-0.999	0.018	-7.3338624	-5.6722842	-0.7448454	92.88222138	-2.14286292	-15.23495322
4.17	417	0.001	-1.006	0.021	-7.6776372	-6.4744254	-1.2032118	92.80773684	-2.12567418	-15.2979786
4.18	418	-0.008	-1.016	0.024	-8.59437	-6.875496	-1.6615782	92.72179314	-2.10275586	-15.36673356
4.19	419	-0.021	-1.026	0.019	-9.740286	-6.9327918	-2.2345362	92.63011986	-2.07410796	-15.43548852
4.2	420	-0.035	-1.034	0.018	-10.4278356	-6.3598338	-2.4637194	92.5040691	-2.04546006	-15.4985139
4.21	421	-0.051	-1.039	0.018	-10.7716104	-5.5003968	-2.4637194	92.39520708	-2.01681216	-15.5558097
4.22	422	-0.066	-1.038	0.016	-10.7143146	-4.583664	-2.2345362	92.29207464	-1.99389384	-15.60164634
4.23	423	-0.077	-1.034	0.015	-10.6570188	-3.6096354	-2.005353	92.18321262	-1.97097552	-15.63602382
4.24	424	-0.084	-1.025	0.016	-10.7716104	-2.291832	-1.718874	92.0743506	-1.95378678	-15.65894214
4.25	425	-0.082	-1.018	0.016	-10.5424272	-0.7448454	-1.432395	91.93684068	-1.97097552	-15.6704013
4.26	426	-0.071	-1.015	0.014	-10.5424272	1.0313244	-0.9740286	91.82797866	-1.95951636	-15.65894214
4.27	427	-0.051	-1.012	0.011	-10.8289062	2.4637194	-0.3437748	91.71911664	-1.95951636	-15.63602382
4.28	428	-0.033	-1.01	0.006	-11.2872726	2.9793816	0.0572958	91.60452504	-1.96524594	-15.60737592
4.29	429	-0.019	-1.007	0.005	-11.6883432	2.7501984	0.3437748	91.48420386	-1.97097552	-15.5844576
4.3	430	-0.011	-1.008	0.006	-12.032118	2.0626488	0.5156622	91.33523478	-1.95951636	-15.56726886
4.31	431	-0.009	-1.011	0.002	-12.6623718	1.2605076	0.286479	91.20345444	-1.96524594	-15.5558097
4.32	432	-0.011	-1.012	0.003	-12.9488508	0.2291832	0	91.0716741	-1.96524594	-15.55008012
4.33	433	-0.017	-1.013	0.003	-13.178034	-0.5156622	-0.572958	90.93989376	-1.95951636	-15.56153928
4.34	434	-0.021	-1.015	0.004	-13.4072172	-1.0886202	-1.145916	90.80238384	-1.9480572	-15.57299844
4.35	435	-0.024	-1.018	0.001	-13.9801752	-1.432395	-1.6042824	90.64768518	-1.93086846	-15.59018718
4.36	436	-0.026	-1.018	-0.004	-14.2666542	-1.6615782	-1.718874	90.50444568	-1.91367972	-15.60737592
4.37	437	-0.028	-1.015	-0.01	-14.0947668	-2.0626488	-1.3178034	90.36120618	-1.89649098	-15.63029424
4.38	438	-0.03	-1.012	-0.007	-13.6936962	-2.6356068	-0.8021412	90.22369626	-1.8907614	-15.65894214
4.39	439	-0.034	-1.012	-0.004	-13.4072172	-3.0366774	-0.1718874	90.08618634	-1.88503182	-15.68759004
4.4	440	-0.038	-1.012	-0.006	-13.3499214	-3.4950438	0.2291832	89.93721726	-1.8907614	-15.72196752
4.41	441	-0.044	-1.013	-0.004	-13.2926256	-3.9534102	0.5156622	89.80543692	-1.89649098	-15.76780416
4.42	442	-0.045	-1.015	-0.008	-13.3499214	-4.010706	0.6302538	89.67365658	-1.90222056	-15.80791122
4.43	443	-0.041	-1.014	-0.012	-13.5791046	-3.5523396	0.4583664	89.53614666	-1.90795014	-15.8422887
4.44	444	-0.038	-1.011	-0.011	-14.0947668	-3.2085648	0.1718874	89.39290716	-1.91367972	-15.87666618
4.45	445	-0.036	-1.008	-0.009	-14.7823164	-2.3491278	-0.3437748	89.23247892	-1.90795014	-15.90531408
4.46	446	-0.036	-1.007	-0.018	-15.5271618	-1.7761698	-0.6875496	89.07778026	-1.90222056	-15.92250282
4.47	447	-0.039	-1.007	-0.023	-16.615782	-0.9167328	-0.859437	88.90589286	-1.89649098	-15.93396198
4.48	448	-0.045	-1.013	-0.028	-17.4179232	0.286479	-0.8021412	88.72827588	-1.88503182	-15.93396198
4.49	449	-0.051	-1.019	-0.034	-17.9335854	1.2605076	-0.5156622	88.5506589	-1.88503182	-15.92250282
4.5	450	-0.049	-1.026	-0.034	-18.1054728	1.4896908	-0.0572958	88.3501236	-1.88503182	-15.91104366
4.51	451	-0.039	-1.025	-0.031	-18.907614	1.3750992	0.4583664	88.16104746	-1.8907614	-15.8995845
4.52	452	-0.03	-1.014	-0.029	-19.7097552	1.2032118	0.859437	87.96051216	-1.90222056	-15.88812534
4.53	453	-0.027	-1.005	-0.026	-20.626488	0.859437	0.6302538	87.7485177	-1.91367972	-15.88239576
4.54	454	-0.024	-1.001	-0.037	-21.6578124	0.8021412	0.1145916	87.53079366	-1.91367972	-15.87666618
4.55	455	-0.029	-1.001	-0.045	-21.772404	1.2605076	-0.5156622	87.29588088	-1.90795014	-15.86520702
4.56	456	-0.04	-1.005	-0.047	-21.3713334	1.9480572	-1.0886202	87.07815684	-1.90222056	-15.84801828
4.57	457	-0.05	-1.006	-0.049	-21.485925	2.9220858	-1.2605076	86.8604328	-1.8907614	-15.82509996
4.58	458	-0.048	-1.006	-0.044	-21.8869956	4.1252976	-0.9740286	86.63697918	-1.87930224	-15.7849929
4.59	459	-0.037	-1.006	-0.038	-22.5172494	4.7555514	-0.6875496	86.40779598	-1.87357266	-15.73915626
4.6	460	-0.023	-1.006	-0.036	-23.8350528	4.6982556	-0.1718874	86.16142404	-1.86784308	-15.6990492
4.61	461	-0.024	-1.005	-0.036	-25.496631	4.1252976	-0.3437748	85.90359294	-1.8621135	-15.65894214
4.62	462	-0.025	-1.004	-0.045	-27.9603504	4.297185	-0.9167328	85.61711394	-1.85638392	-15.61883508
4.63	463	-0.037	-1.006	-0.058	-30.3094782	5.2712136	-1.5469866	85.30771662	-1.83919518	-15.57299844
4.64	464	-0.05	-1.021	-0.07	-31.9710564	6.5317212	-1.7761698	84.98113056	-1.82200644	-15.50997306
4.65	465	-0.049	-1.039	-0.062	-33.2888598	7.734933	-1.6042824	84.64308534	-1.8048177	-15.4412181
4.66	466	-0.044	-1.054	-0.058	-34.8358464	8.7089616	-0.9167328	84.2821218	-1.79335854	-15.36100398
4.67	467	-0.038	-1.064	-0.076	-37.815228	8.4224826	-0.572958	83.89823994	-1.78189938	-15.28078986
4.68	468	-0.024	-1.056	-0.091	-40.680018	6.875496	-0.286479	83.4799806	-1.7761698	-15.21776448
4.69	469	-0.012	-1.049	-0.117	-42.3415962	4.6409598	-0.3437748	83.0502621	-1.7761698	-15.17765742
4.7	470	-0.011	-1.045	-0.143	-42.5707794	2.0626488	-0.859437	82.60908444	-1.76471064	-15.16046868
4.71	471	-0.012	-1.036	-0.163	-41.4248634	-0.2291832	-1.6615782	82.1908251	-1.7475219	-15.17192784
4.72	472	-0.028	-1.033	-0.181	-40.3362432	-2.9793816	-2.6929026	81.77829534	-1.73033316	-15.20630532
4.73	473	-0.023	-1.027	-0.205	-39.0184398	-5.156622	-3.5523396	81.3886839	-1.70741484	-15.2693307
4.74	474	0.003	-1.01	-0.223	-36.8984952	-7.161975	-3.5523396	81.0162612	-1.68449652	-15.34381524
4.75	475	0.027	-0.992	-0.206	-34.5493674	-10.7716104	-3.2085648	80.66102724	-1.65584862	-15.45840684
4.76	476	0.032	-0.973	-0.182	-33.5753388	-13.5791046	-2.578311	80.32298202	-1.65584862	-15.60164634
4.77	477	0.034	-0.992	-0.161	-34.37748	-15.9282324	-1.2032118	79.97920722	-1.66730778	-15.76207458
4.78	478	0.077	-1.017	-0.181	-37.0130868	-19.1367972	1.718874	79.6125141	-1.718874	-15.95115072
4.79	479	0.156	-1.025	-0.226	-38.4454818	-24.1215318	4.7555514	79.23436182	-1.8048177	-16.18033392
4.8	480	0.182	-1.017	-0.23	-35.236917	-31.1689152	6.5317212	78.88485744	-1.89649098	-16.47827208
4.81	481	0.145	-1.012	-0.212	-31.8564648	-39.6486936	8.6516658	78.5811897	-2.05118964	-16.85069478
4.82	482	0.107	-0.979	-0.219	-33.6326346	-48.70143	8.8235532	78.26033322	-2.22307704	-17.30906118
4.83	483	0.088	-0.937	-0.233	-33.6899304	-55.290447	8.307891	77.9509359	-2.4064236	-17.83618254
4.84	484	0.064	-0.922	-0.232	-32.1429438	-58.2125328	6.9900876	77.65299774	-2.58404058	-18.3919518
4.85	485	0.031	-0.907	-0.22	-32.658606	-59.3584488	4.4690724	77.35505958	-2.73873924	-18.9649098
4.86	486	0	-0.918	-0.227	-33.0023808	-59.9314068	1.8334656	77.05139184	-2.87051958	-19.54359738
4.87	487	-0.014	-0.958	-0.228	-32.1429438	-60.8481396	0.4010706	76.76491284	-3.00229992	-20.13374412
4.88	488	-0.006	-0.996	-0.23	-32.3148312	-61.3638018	0.1718874	76.47843384	-3.12835068	-20.73535002
4.89	489	0.022	-0.996	-0.236	-31.1116194	-62.2805346	0.1718874	76.203414	-3.2658606	-21.33695592
4.9	490	0.036	-0.974	-0.241	-28.0176462	-64.2285918	-0.572958	75.96277164	-3.38618178	-21.96720972
4.91	491	0.032	-0.937	-0.241	-26.1841806	-67.2079734	-2.291832	75.7450476	-3.51223254	-22.62038184
4.92	492	0.022	-0.916	-0.23	-25.210152	-70.1300592	-4.7555514	75.5445123	-3.62109456	-23.31366102
4.93	493	0.003	-0.892	-0.245	-24.8090814	-71.5624542	-7.0473834	75.343977	-3.71276784	-24.02412894
4.94	494	-0.002	-0.889	-0.256	-23.6058696	-71.1613836	-8.5370742	75.16063044	-3.79298196	-24.73459686
4.95	495	0.003	-0.902	-0.26	-24.6944898	-69.2133264	-8.4224826	74.96009514	-3.8674665	-25.42787604
4.96	496	0.016	-0.93	-0.27	-25.3820394	-68.468481	-7.5057498	74.75955984	-3.95913978	-26.10969606
4.97	497	0.042	-0.949	-0.289	-24.8090814	-71.3905668	-5.7868758	74.56475412	-4.07373138	-26.8144344
4.98	498	0.079	-0.96	-0.276	-24.9809688	-77.922288	-3.4950438	74.37567798	-4.22843004	-27.57073896
4.99	499	0.113	-0.958	-0.268	-25.8404058	-84.1675302	-1.4896908	74.18660184	-4.41750618	-28.3900689
5	500	0.116	-0.956	-0.249	-26.2414764	-89.1522648	-0.6875496	74.00325528	-4.61804148	-29.2495059
5.01	501	0.079	-0.959	-0.226	-27.788463	-92.1889422	-1.2605076	73.80844956	-4.83576552	-30.14332038
5.02	502	0.03	-0.971	-0.225	-29.0489706	-93.8505204	-3.4950438	73.60218468	-5.0420304	-31.0543236
5.03	503	-0.017	-0.983	-0.232	-29.6792244	-94.5953658	-6.589017	73.3959198	-5.21964738	-31.98251556
5.04	504	-0.067	-0.993	-0.248	-30.5386614	-94.0797036	-9.5111028	73.18392534	-5.37434604	-32.9164371
5.05	505	-0.115	-1.007	-0.243	-30.5386614	-93.1629708	-12.3758928	72.97766046	-5.50612638	-33.84462906
5.06	506	-0.129	-1.014	-0.25	-31.8564648	-91.5586884	-14.610429	72.75420684	-5.6149884	-34.76709144
5.07	507	-0.122	-1.005	-0.257	-31.7418732	-90.1262934	-16.4438946	72.5364828	-5.7009321	-35.67809466
5.08	508	-0.117	-0.976	-0.275	-32.3148312	-89.4960396	-17.6471064	72.3072996	-5.78114622	-36.58909788
5.09	509	-0.139	-0.971	-0.268	-32.1429438	-88.3501236	-18.5638392	72.08384598	-5.85563076	-37.49437152
5.1	510	-0.16	-0.942	-0.28	-33.1169724	-86.3447706	-18.8503182	71.8489332	-5.92438572	-38.37672684
5.11	511	-0.171	-0.915	-0.296	-32.5440144	-83.07891	-18.907614	71.61975	-5.9874111	-39.23043426
5.12	512	-0.157	-0.901	-0.309	-31.4553942	-78.8390208	-18.5065434	71.39629638	-6.0447069	-40.03830504
5.13	513	-0.142	-0.891	-0.327	-29.3354496	-74.7137232	-17.6471064	71.1900315	-6.09627312	-40.81179834
5.14	514	-0.123	-0.899	-0.336	-26.4706596	-71.3905668	-16.329303	71.00668494	-6.1592985	-41.539455
5.15	515	-0.101	-0.907	-0.335	-24.8663772	-69.4425096	-14.7823164	70.83479754	-6.22805346	-42.24992292
5.16	516	-0.08	-0.905	-0.335	-23.6631654	-69.2706222	-13.178034	70.68009888	-6.31399716	-42.95466126
5.17	517	-0.072	-0.892	-0.34	-22.9756158	-70.187355	-11.8602306	70.53685938	-6.4171296	-43.6593996
5.18	518	-0.072	-0.889	-0.345	-21.4286292	-71.7916374	-11.1153852	70.40507904	-6.5317212	-44.3755971
5.19	519	-0.078	-0.879	-0.356	-20.9702628	-72.8229618	-10.0840608	70.28475786	-6.66350154	-45.10325376
5.2	520	-0.09	-0.89	-0.352	-18.4492476	-72.5937786	-9.6829902	70.187355	-6.79528188	-45.81945126
5.21	521	-0.102	-0.892	-0.358	-17.5325148	-71.5051584	-9.5111028	70.10714088	-6.9327918	-46.52991918
5.22	522	-0.116	-0.892	-0.366	-16.1001198	-70.2446508	-9.9694692	70.03265634	-7.05884256	-47.22892794
5.23	523	-0.125	-0.877	-0.37	-14.32395	-69.327918	-11.1153852	69.9868197	-7.17343416	-47.9279367
5.24	524	-0.137	-0.861	-0.367	-11.45916	-68.0101146	-12.0894138	69.96390138	-7.27083702	-48.60975672
5.25	525	-0.145	-0.861	-0.35	-9.7975818	-66.0047616	-12.3758928	69.95244222	-7.36823988	-49.274388
5.26	526	-0.141	-0.871	-0.341	-8.3651868	-63.8275212	-12.0894138	69.9581718	-7.45418358	-49.92183054
5.27	527	-0.128	-0.877	-0.342	-6.6463128	-63.2545632	-11.45916	69.98109012	-7.54585686	-50.5635435
5.28	528	-0.105	-0.859	-0.355	-6.0733548	-63.3691548	-9.9694692	70.00973802	-7.6489893	-51.1937973
5.29	529	-0.069	-0.869	-0.35	-3.8388186	-65.2026204	-8.880849	70.06703382	-7.76931048	-51.84123984
5.3	530	-0.041	-0.859	-0.341	-2.2345362	-68.0674104	-8.3651868	70.14151836	-7.89536124	-52.51733028
5.31	531	-0.025	-0.843	-0.33	-1.432395	-70.6457214	-8.3651868	70.23319164	-8.03287116	-53.21633904
5.32	532	-0.026	-0.829	-0.314	-1.2032118	-72.479187	-8.1360036	70.3305945	-8.18184024	-53.92680696
5.33	533	-0.039	-0.844	-0.303	-1.6615782	-73.6823988	-7.5630456	70.42799736	-8.3365389	-54.65446362
5.34	534	-0.057	-0.865	-0.31	-2.7501984	-74.9429064	-6.7609044	70.51394106	-8.49696714	-55.38784986
5.35	535	-0.072	-0.878	-0.329	-3.8961144	-76.4325972	-5.72958	70.59415518	-8.66885454	-56.13842484
5.36	536	-0.084	-0.881	-0.347	-4.7555514	-77.9795838	-4.9274388	70.66863972	-8.85793068	-56.8947294
5.37	537	-0.083	-0.882	-0.354	-4.010706	-79.1254998	-4.6409598	70.760313	-9.0527364	-57.6682227
5.38	538	-0.089	-0.874	-0.344	-2.6929026	-80.3860074	-5.2712136	70.86917502	-9.24754212	-58.45317516
5.39	539	-0.094	-0.865	-0.323	-1.3750992	-80.787078	-6.016059	70.9894962	-9.43088868	-59.2438572
5.4	540	-0.088	-0.862	-0.302	-0.4583664	-80.8443738	-5.8441716	71.12700612	-9.60277608	-60.03453924
5.41	541	-0.079	-0.869	-0.302	-0.9167328	-81.0162612	-4.9274388	71.25878646	-9.79185222	-60.82522128
5.42	542	-0.069	-0.883	-0.316	-2.5210152	-81.5892192	-3.437748	71.38483722	-9.9981171	-61.6216329
5.43	543	-0.07	-0.892	-0.338	-3.724227	-82.6778394	-1.8334656	71.49369924	-10.22157072	-62.4237741
5.44	544	-0.071	-0.895	-0.358	-4.1825934	-84.1102344	-0.5156622	71.60829084	-10.4564835	-63.23164488
5.45	545	-0.071	-0.884	-0.384	-4.1252976	-85.1415588	0.2291832	71.71715286	-10.69139628	-64.05097482
5.46	546	-0.068	-0.869	-0.381	-2.6929026	-86.1728832	0.3437748	71.85466278	-10.93776822	-64.88176392
5.47	547	-0.065	-0.858	-0.361	-0.4583664	-86.7458412	-0.2291832	72.02655018	-11.17841058	-65.7182826
5.48	548	-0.069	-0.855	-0.329	1.145916	-88.1782362	-1.0886202	72.21562632	-11.41332336	-66.5777196
5.49	549	-0.076	-0.85	-0.3	0.6875496	-90.240885	-1.3750992	72.41043204	-11.64823614	-67.45434534
5.5	550	-0.079	-0.844	-0.284	-1.4896908	-91.5586884	-0.6875496	72.58804902	-11.87741934	-68.34243024
5.51	551	-0.077	-0.846	-0.274	-3.7815228	-92.819196	-0.1145916	72.74847726	-12.12379128	-69.24770388
5.52	552	-0.078	-0.841	-0.277	-6.0733548	-94.251591	0.5156622	72.89171676	-12.38162238	-70.16443668
5.53	553	-0.082	-0.829	-0.291	-7.6203414	-95.397507	0.9740286	73.02922668	-12.64518306	-71.09262864
5.54	554	-0.088	-0.815	-0.304	-8.1932994	-95.7412818	1.3750992	73.1667366	-12.90874374	-72.02655018
5.55	555	-0.088	-0.806	-0.302	-7.1046792	-95.9131692	1.2605076	73.3099761	-13.15511568	-72.96047172
5.56	556	-0.083	-0.798	-0.295	-5.5576926	-95.8558734	1.2605076	73.4818635	-13.41294678	-73.90012284
5.57	557	-0.075	-0.79	-0.286	-4.0680018	-96.1996482	1.432395	73.67093964	-13.67077788	-74.83977396
5.58	558	-0.065	-0.782	-0.278	-4.1825934	-97.0017894	1.8334656	73.87147494	-13.93433856	-75.79088424
5.59	559	-0.055	-0.773	-0.272	-5.2139178	-97.9185222	2.291832	74.06055108	-14.19789924	-76.75345368
5.6	560	-0.046	-0.773	-0.271	-6.302538	-99.0071424	2.578311	74.24389764	-14.45000076	-77.7217527
5.61	561	-0.039	-0.785	-0.276	-7.3911582	-99.7519878	2.4064236	74.43297378	-14.71356144	-78.70724046
5.62	562	-0.042	-0.802	-0.286	-7.5057498	-99.8092836	1.718874	74.62204992	-14.96566296	-79.69272822
5.63	563	-0.054	-0.815	-0.291	-7.0473834	-99.5801004	0.6875496	74.82258522	-15.20630532	-80.68394556
5.64	564	-0.067	-0.819	-0.292	-6.3598338	-99.408213	0.1718874	75.0288501	-15.4412181	-81.6751629
5.65	565	-0.076	-0.809	-0.299	-5.0420304	-99.8665794	0.1718874	75.24657414	-15.65321256	-82.66638024
5.66	566	-0.07	-0.789	-0.302	-2.7501984	-100.840608	0.4010706	75.51013482	-15.88239576	-83.67478632
5.67	567	-0.052	-0.762	-0.296	-0.8021412	-102.0438198	0.6875496	75.79661382	-16.11157896	-84.69465156
5.68	568	-0.031	-0.741	-0.297	0.1718874	-102.9605526	1.0313244	76.10028156	-16.34076216	-85.73170554
5.69	569	-0.002	-0.735	-0.28	0.4010706	-104.7940182	1.145916	76.41540846	-16.56994536	-86.78021868
5.7	570	0.007	-0.747	-0.278	-0.6302538	-106.856667	0.6875496	76.7190762	-16.77048066	-87.85737972
5.71	571	0.007	-0.753	-0.286	-1.0313244	-108.0598788	0.4010706	77.03993268	-16.9882047	-88.9517295
5.72	572	0.007	-0.756	-0.301	-0.6875496	-109.3203864	0.4010706	77.3779779	-17.20019916	-90.05753844
5.73	573	0.009	-0.751	-0.326	0.6875496	-110.580894	0.6875496	77.73321186	-17.4179232	-91.18053612
5.74	574	0.019	-0.746	-0.328	3.724227	-113.5602756	1.718874	78.13428246	-17.63564724	-92.3321817
5.75	575	0.043	-0.739	-0.29	6.8182002	-117.8001648	2.86479	78.56973054	-17.84191212	-93.52393434
5.76	576	0.069	-0.738	-0.248	6.5317212	-123.472449	3.6669312	79.0395561	-18.08255448	-94.78444194
5.77	577	0.066	-0.715	-0.216	4.0680018	-129.9468744	3.437748	79.51511124	-18.31746726	-96.1137045
5.78	578	0.037	-0.688	-0.162	6.6463128	-139.801752	2.6356068	80.05369176	-18.55238004	-97.5460995
5.79	579	0.018	-0.659	-0.14	11.6310474	-139.2860898	3.724227	80.64956808	-18.78156324	-98.9784945
5.8	580	0.003	-0.628	-0.185	12.4904844	-128.91555	7.8495246	81.21106692	-19.00501686	-100.2962979
5.81	581	-0.028	-0.578	-0.197	12.1467096	-122.326533	13.2926256	81.7611066	-19.2800367	-101.5453463
5.82	582	-0.051	-0.557	-0.127	15.2406828	-125.7069852	17.18874	82.3627125	-19.58370444	-102.8287723
5.83	583	-0.068	-0.586	-0.068	17.5898106	-129.6030996	18.7357266	83.00442546	-19.89883134	-104.1580348
5.84	584	-0.068	-0.612	-0.068	14.2093584	-129.1447332	18.5638392	83.6232201	-20.19103992	-105.4872974
5.85	585	-0.06	-0.607	-0.047	12.3758928	-129.3739164	17.3606274	84.23628516	-20.4546006	-106.8280191
5.86	586	-0.026	-0.597	-0.024	13.5218088	-133.0981434	16.2147114	84.87799812	-20.70097254	-108.2088479
5.87	587	0.034	-0.565	-0.03	11.4018642	-137.3380326	16.7303736	85.51971108	-20.9416149	-109.6469725
5.88	588	0.085	-0.516	-0.018	10.4278356	-141.9789924	18.7930224	86.18434236	-21.18798684	-111.1309337
5.89	589	0.09	-0.499	-0.012	12.032118	-142.4946546	22.1734746	86.86616238	-21.45154752	-112.6263541
5.9	590	0.054	-0.483	-0.002	13.8655836	-140.947668	25.3820394	87.5766303	-21.72083778	-114.1103153
5.91	591	-0.011	-0.459	0.034	17.18874	-139.9163436	28.6479	88.3214757	-22.01304636	-115.5885469
5.92	592	-0.076	-0.466	0.054	19.5951636	-139.9736394	32.8304934	89.094969	-22.33390284	-117.0782377
5.93	593	-0.084	-0.465	0.042	22.058883	-141.8644008	37.7579322	89.92002852	-22.67767764	-118.5908468
5.94	594	-0.054	-0.451	-0.012	24.8090814	-146.0469942	43.258329	90.80238384	-23.05582992	-120.1550222
5.95	595	-0.033	-0.411	-0.012	26.5279554	-148.396122	47.7846972	91.72484622	-23.45117094	-121.7593046
5.96	596	-0.039	-0.386	-0.028	32.2002396	-149.3701506	51.5089242	92.72179314	-23.85797112	-123.3865053
5.97	597	-0.064	-0.361	-0.067	37.4714532	-150.8598414	54.7747848	93.79895418	-24.27623046	-125.0423539
5.98	598	-0.09	-0.324	-0.085	42.0551172	-153.6100398	57.8114622	94.95632934	-24.68303064	-126.7497688
5.99	599	-0.091	-0.261	-0.046	45.263682	-157.849929	59.9314068	96.18245946	-25.07837166	-128.5144794
6	600	-0.086	-0.186	0.035	46.6387812	-162.8346636	61.879464	97.46588538	-25.45079436	-130.3536746
6.01	601	-0.094	-0.124	0.136	45.2063862	-165.871341	64.5150708	98.76650004	-25.80602832	-132.244436
6.02	602	-0.09	-0.054	0.176	36.7266078	-164.2097628	69.7289886	99.99263016	-26.17845102	-134.1351974
6.03	603	-0.071	0.002	0.18	39.8778768	-159.9698736	75.8596392	101.2531378	-26.57952162	-136.0144996
6.04	604	-0.064	0.077	0.182	49.0452048	-157.7353374	80.7297822	102.6225074	-26.99778096	-137.8938019
6.05	605	-0.047	0.179	0.186	62.9107884	-161.6887476	81.7038108	104.1866827	-27.38166282	-139.8418591
6.06	606	-0.023	0.252	0.166	78.7244292	-169.6528638	78.8963166	105.9513934	-27.65095308	-141.87586
6.07	607	-0.048	0.276	0.183	95.1683238	-176.2418808	76.8336678	107.9223689	-27.82284048	-143.9843454
6.08	608	-0.064	0.283	0.229	106.570188	-177.903459	75.8023434	110.0193952	-27.91451376	-146.1100196
6.09	609	0.049	0.304	0.076	111.4976268	-175.898106	76.776372	112.1679877	-27.94889124	-148.218505
6.1	610	0.061	0.258	0.152	125.8788726	-178.1326422	88.235532	114.5113859	-28.00618704	-150.4129342
6.11	611	0.186	0.213	0.229	120.7222506	-185.924871	99.981171	116.8547841	-28.05775326	-152.7334141
6.12	612	0.159	0.27	0.311	117.742869	-205.691922	107.3150334	119.2783964	-27.98326872	-155.2888067
6.13	613	-0.115	0.379	0.571	112.4143596	-213.7706298	112.9873176	121.6962792	-27.82857006	-157.9473319
6.14	614	-0.469	0.473	1.03	121.1233212	-221.8493376	114.4197126	124.223024	-27.53636148	-160.6688824
6.15	615	-0.712	0.536	1.691	144.671895	-242.934192	107.8306956	127.0305182	-26.95194432	-163.5050245
6.16	616	-0.708	0.489	2.346	188.1021114	-246.3146442	88.6366026	130.1645984	-26.069589	-166.1692792
6.17	617	-1.22	-0.876	2.392	269.4048516	-241.215318	16.5584862	133.785693	-24.56270946	-168.1574434
6.18	618	-2.143	-3.793	2.931	695.7428994	-397.5755562	-114.5343042	141.589381	-20.84421204	-169.9851794
6.19	619	-0.861	-0.156	3.999	647.729019	-369.5006142	87.4906866	149.1352378	-18.2773602	-172.7525666
6.2	620	-1.592	-0.923	2.994	143.0103168	-51.2224452	82.9070226	150.905678	-18.25444188	-173.7437839
6.21	621	-1.028	-1.252	3.712	220.4169426	-74.7137232	93.7359288	153.5240961	-18.03671784	-174.9240774
6.22	622	-2.002	-1.073	3.999	279.5462082	-52.8267276	90.7565472	156.6868243	-17.95650372	-175.966861
6.23	623	-1.225	-0.613	3.875	292.5523548	-43.4302164	56.5509546	159.8724707	-17.78461632	-176.6372218
6.24	624	-1.493	-0.88	3.271	249.8669838	-55.9207008	40.966497	162.5768325	-17.40646404	-177.1815319
6.25	625	-1.093	-1.525	2.324	233.480385	-63.7702254	49.274388	165.1436843	-16.94809764	-177.8117857
6.26	626	-0.828	-0.784	1.37	234.1106388	-162.2044098	102.2157072	167.9225306	-15.63029424	-179.1525074
6.27	627	1.972	2.839	1.545	168.736131	-182.4298272	50.0192334	169.8648583	-13.96871604	-179.9489191
6.28	628	0.785	1.012	1.542	97.975818	-134.8170174	2.578311	170.9248306	-12.6623718	179.840057
6.29	629	-1.238	-0.816	1.521	112.8154302	-125.6496894	1.9480572	172.1165832	-11.44197126	179.6796288
6.3	630	-0.694	-0.263	1.581	127.3685634	-94.53807	1.3750992	173.4401162	-10.53096804	179.5822259
6.31	631	-0.668	-0.556	1.6	123.7016322	-61.3638018	-5.7868758	174.7006238	-9.93509172	179.6051443
6.32	632	-0.208	-0.733	1.334	132.353298	-46.5814854	-3.437748	176.0470751	-9.4824549	179.6280626
6.33	633	-0.045	-0.06	1.229	123.472449	-45.3782736	3.4950438	177.3133123	-9.0527364	179.5879555
6.34	634	0.143	0.257	1.316	106.3983006	-35.3515086	3.4950438	178.4019325	-8.71469118	179.5593076
6.35	635	-0.146	0.13	1.343	102.845961	-25.6685184	2.291832	179.4619048	-8.46258966	179.5421189
6.36	636	-0.154	0.209	1.274	98.0331138	-35.4661002	5.6149884	-179.5306597	-8.12454444	179.5020118
6.37	637	-0.21	0.147	1.163	93.5067456	-46.696077	6.2452422	-178.5680903	-7.67190762	179.4676343
6.38	638	-0.129	0.14	1.105	100.1530584	-48.3003594	6.589017	-177.5424955	-7.20781164	179.4389864
6.39	639	0.049	0.229	0.996	89.6106312	-50.3057124	6.9327918	-176.6200331	-6.71506776	179.4160681
6.4	640	0.025	-0.137	0.953	68.9268474	-55.4050386	-18.5065434	-175.9554018	-6.18221682	179.6624401
6.41	641	0.18	-0.467	0.937	31.51269	-67.895523	-46.3523022	-175.680382	-5.55196302	-179.79995
6.42	642	0.054	-0.496	0.83	-8.6516658	-81.7038108	-48.6441342	-175.8121623	-4.7841993	-179.2327216
6.43	643	-0.201	0.572	0.642	-55.8061092	-94.251591	-33.9191136	-176.3965795	-3.87892566	-178.8144622
6.44	644	-0.203	0.589	0.718	-36.4974246	-70.760313	-45.263682	-176.7919205	-3.20283522	-178.3045296
6.45	645	-0.202	0.417	0.607	-44.404245	-57.0666168	-28.2468294	-177.1987207	-2.6642547	-177.9894027
6.46	646	-0.326	0.774	0.603	-32.6013102	-39.6486936	-9.167328	-177.5253067	-2.27464326	-177.8748111
6.47	647	-0.188	-0.005	0.636	-26.4133638	-33.4034514	3.3231564	-177.7888674	-1.93659804	-177.8862703
6.48	648	-0.081	0.087	0.766	-19.6524594	-25.496631	4.8128472	-177.9836731	-1.68449652	-177.9149182
6.49	649	-0.126	0.159	0.823	-25.9549974	-20.1681216	4.4690724	-178.2472338	-1.47823164	-177.9492956
6.5	650	-0.083	0.056	0.861	-21.0275586	-6.8182002	1.6615782	-178.4248508	-1.432395	-177.972214
6.51	651	-0.086	0.138	0.904	-29.507337	-1.4896908	2.8074942	-178.7227889	-1.41520626	-178.0008619
6.52	652	-0.103	0.199	0.967	-25.6112226	13.1207382	-0.4583664	-178.9863496	-1.54125702	-178.0008619
6.53	653	-0.071	0.163	1.005	-31.6272816	22.5745452	-2.6929026	-179.3129357	-1.76471064	-177.9894027
6.54	654	-0.032	0.159	1.058	-37.8725238	25.1528562	-5.72958	-179.7025471	-2.005353	-177.9435661
6.55	655	-0.046	0.12	1.066	-42.0551172	26.069589	-5.5003968	179.8744345	-2.2631841	-177.8977294
6.56	656	-0.061	0.074	1.12	-44.0031744	29.220858	-4.9847346	179.4217977	-2.5496631	-177.8576224
6.57	657	-0.087	0.008	1.195	-46.8106686	32.3148312	-4.297185	178.940513	-2.85906042	-177.8232449
6.58	658	-0.048	0	1.194	-48.5868384	34.8931422	-2.6356068	178.4420395	-3.20283522	-177.8060561
6.59	659	-0.046	-0.008	1.179	-46.982556	35.6952834	-2.0626488	177.9607548	-3.54661002	-177.7888674
6.6	660	-0.071	-0.026	1.174	-44.0604702	36.0390582	-2.86479	177.5023884	-3.90184398	-177.7544899
6.61	661	-0.103	-0.021	1.188	-39.6486936	36.669312	-3.4950438	177.0898586	-4.25707794	-177.7201124
6.62	662	-0.096	-0.038	1.223	-34.2055926	36.7839036	-4.010706	176.7346247	-4.61804148	-177.6685462
6.63	663	-0.104	-0.024	1.24	-28.9916748	32.8877892	-3.437748	176.4309569	-4.93316838	-177.6284392
6.64	664	-0.092	-0.039	1.184	-25.9549974	26.2414764	-1.8334656	176.1616667	-5.19099948	-177.5997913
6.65	665	-0.061	-0.025	1.085	-24.7517856	20.2827132	-1.6615782	175.9152947	-5.37434604	-177.5826025
6.66	666	-0.093	-0.015	1.035	-21.6578124	13.9228794	-2.578311	175.6918411	-5.50612638	-177.5539546
6.67	667	-0.145	-0.026	1.001	-17.5325148	9.5683986	-2.4637194	175.5084946	-5.59779966	-177.5253067
6.68	668	-0.162	-0.058	1.008	-12.6623718	5.8441716	-1.4896908	175.3824438	-5.64936588	-177.508118
6.69	669	-0.132	-0.047	1.033	-7.3911582	4.5263682	-0.5156622	175.3022297	-5.69520252	-177.5023884
6.7	670	-0.118	-0.053	1.048	-4.583664	3.6096354	-0.3437748	175.3022297	-5.75249832	-177.5023884
6.71	671	-0.122	-0.081	1.072	-3.5523396	3.0366774	0.1145916	175.2678522	-5.78114622	-177.5023884
6.72	672	-0.136	-0.051	1.083	-2.1772404	5.9587632	1.6042824	175.2449339	-5.8441716	-177.5138476
6.73	673	-0.17	-0.027	1.09	-0.9167328	9.3965112	3.437748	175.2334747	-5.94157446	-177.5424955
6.74	674	-0.148	-0.02	1.066	0.4010706	10.5424272	5.2139178	175.2449339	-6.05043648	-177.5883321
6.75	675	-0.14	-0.008	1.103	-2.4064236	10.5424272	4.1252976	175.3022297	-6.22805346	-177.6398983
6.76	676	-0.042	-0.001	0.979	-3.8388186	15.0114996	1.2032118	175.256393	-6.37702254	-177.6398983
6.77	677	-0.065	-0.194	0.929	-3.2658606	17.0168526	2.6929026	175.2277451	-6.54318036	-177.6628166
6.78	678	-0.213	0.054	0.955	-4.4117766	14.2666542	1.7761698	175.1761789	-6.68641986	-177.6685462
6.79	679	-0.2	-0.052	0.906	-5.6722842	12.5477802	0.1145916	175.1188831	-6.81247062	-177.6628166
6.8	680	-0.139	-0.051	0.924	-5.5576926	19.480572	-0.0572958	175.107424	-7.0187355	-177.6628166
6.81	681	-0.147	0.012	0.982	-2.4064236	27.2728008	-0.8021412	175.0730465	-7.28802576	-177.6398983
6.82	682	-0.142	-0.012	1.006	1.2605076	32.8877892	-0.9740286	175.0787761	-7.60888224	-177.6112504
6.83	683	-0.16	-0.051	1.015	4.8128472	34.7785506	-0.8021412	175.1188831	-7.95265704	-177.5826025
6.84	684	-0.181	-0.142	1.058	8.7089616	35.4088044	-0.2291832	175.1990972	-8.30216142	-177.5596842
6.85	685	-0.15	-0.139	1.044	15.4125702	35.809875	0.572958	175.3537959	-8.65739538	-177.5424955
6.86	686	-0.149	-0.027	1.008	19.3659804	31.3408026	0.2291832	175.542872	-8.9667927	-177.5253067
6.87	687	-0.132	-0.016	1.019	20.626488	23.9496444	-1.432395	175.7491369	-9.20743506	-177.4966588
6.88	688	-0.22	-0.024	1.027	18.9649098	21.9442914	-1.6615782	175.9324835	-9.4251591	-177.4680109
6.89	689	-0.183	-0.075	0.967	18.1627686	14.2666542	-2.9793816	176.1101005	-9.56266902	-177.4336334
6.9	690	-0.167	-0.037	0.917	14.0947668	2.8074942	-5.3858052	176.2647991	-9.5970465	-177.3820672
6.91	691	-0.174	-0.075	0.828	12.2613012	-0.2291832	-2.3491278	176.3851203	-9.59131692	-177.3534193
6.92	692	-0.177	-0.044	0.773	9.8548776	-8.021412	-0.3437748	176.4825232	-9.5111028	-177.3534193
6.93	693	-0.142	-0.009	0.784	7.9641162	-21.6005166	1.6615782	176.5741964	-9.29910834	-177.3763376
6.94	694	-0.175	-0.061	0.778	4.5263682	-29.793816	1.718874	176.6257627	-9.00689976	-177.4049855
6.95	695	-0.189	-0.03	0.77	4.297185	-33.1169724	2.3491278	176.6773289	-8.69750244	-177.439363
6.96	696	-0.173	-0.043	0.775	4.3544808	-34.950438	2.6356068	176.7346247	-8.35372764	-177.4737405
6.97	697	-0.176	-0.03	0.823	5.156622	-39.3049188	2.291832	176.7976501	-7.96984578	-177.508118
6.98	698	-0.16	-0.03	0.867	6.7036086	-40.8519054	1.718874	176.8778642	-7.56877518	-177.5367659
6.99	699	-0.145	-0.037	0.937	5.9014674	-38.3308902	1.2605076	176.9408896	-7.1906229	-177.5596842
7	700	-0.144	-0.012	1.04	8.021412	-29.5646328	0.6302538	177.044022	-6.89841432	-177.5711434
7.01	701	-0.144	-0.002	1.105	8.59437	-21.8296998	0.5156622	177.1356953	-6.68641986	-177.5826025
7.02	702	-0.148	-0.005	1.131	9.167328	-15.3552744	0.5156622	177.2330981	-6.53745078	-177.5883321
7.03	703	-0.142	0	1.129	9.740286	-10.599723	0.5156622	177.330501	-6.43431834	-177.5997913
7.04	704	-0.149	-0.008	1.132	9.3392154	-6.2452422	0.4583664	177.4279039	-6.37129296	-177.6055208
7.05	705	-0.137	-0.002	1.128	7.734933	-1.145916	0.1145916	177.5253067	-6.36556338	-177.6055208
7.06	706	-0.137	-0.005	1.107	4.5263682	4.6409598	0	177.5711434	-6.41140002	-177.6055208
7.07	707	-0.131	-0.005	1.076	1.7761698	7.734933	-0.0572958	177.5883321	-6.49161414	-177.6055208
7.08	708	-0.135	0	1.051	-0.859437	9.167328	-0.0572958	177.5768729	-6.57755784	-177.5997913
7.09	709	-0.138	0	1.026	-2.9220858	9.3965112	-0.1145916	177.548225	-6.6749607	-177.5997913
7.1	710	-0.137	-0.005	1.005	-3.7815228	8.3651868	0	177.5367659	-6.77236356	-177.5997913
7.11	711	-0.137	-0.005	0.991	-3.7815228	6.1879464	0.1718874	177.4966588	-6.82965936	-177.6055208
7.12	712	-0.142	-0.002	0.982	-3.7815228	3.3231564	0.1718874	177.4565518	-6.86403684	-177.6055208
7.13	713	-0.141	-0.006	0.974	-3.8388186	0.1145916	0.286479	177.4164447	-6.86403684	-177.6112504
7.14	714	-0.139	-0.007	0.971	-3.9534102	-3.6669312	0.4583664	177.3820672	-6.82965936	-177.61698
7.15	715	-0.137	-0.008	0.968	-3.724227	-6.1306506	0.572958	177.3706081	-6.7895523	-177.6284392
7.16	716	-0.138	-0.009	0.967	-3.3804522	-8.4224826	0.572958	177.3419602	-6.7036086	-177.6341687
7.17	717	-0.135	-0.012	0.967	-2.6929026	-10.2559482	0.6875496	177.3133123	-6.60047616	-177.6456279
7.18	718	-0.133	-0.011	0.977	-1.6615782	-11.8602306	0.859437	177.3018531	-6.48588456	-177.6570871
7.19	719	-0.132	-0.01	0.99	-0.4583664	-13.0061466	0.9740286	177.2961235	-6.35410422	-177.6685462
7.2	720	-0.13	-0.009	1.005	1.145916	-13.6364004	0.9740286	177.3362306	-6.23378304	-177.685735
7.21	721	-0.125	-0.006	1.023	2.86479	-13.0061466	1.0313244	177.3706081	-6.1020027	-177.6971941
7.22	722	-0.121	-0.007	1.032	4.2398892	-11.172681	0.9167328	177.4164447	-5.99314068	-177.7086533
7.23	723	-0.119	-0.005	1.034	4.6409598	-9.167328	0.9167328	177.4622813	-5.90719698	-177.7201124
7.24	724	-0.119	-0.004	1.035	4.8128472	-7.161975	0.859437	177.5138476	-5.83271244	-177.725842
7.25	725	-0.119	-0.005	1.032	4.6982556	-5.2139178	0.6875496	177.5940617	-5.79833496	-177.7373012
7.26	726	-0.116	-0.007	1.029	4.5263682	-3.437748	0.6302538	177.6456279	-5.76395748	-177.7487603
7.27	727	-0.116	-0.005	1.027	4.4690724	-2.1199446	0.5156622	177.6914645	-5.74103916	-177.7544899
7.28	728	-0.118	-0.004	1.024	4.2398892	-1.145916	0.4583664	177.7315716	-5.72958	-177.7544899
7.29	729	-0.118	-0.005	1.019	4.1252976	-0.286479	0.4583664	177.7774082	-5.72958	-177.7602195
7.3	730	-0.119	-0.004	1.013	3.9534102	0.4010706	0.4010706	177.8748111	-5.76968706	-177.7716787
7.31	731	-0.119	-0.005	1.008	3.4950438	0.7448454	0.3437748	177.9091886	-5.78114622	-177.7774082
7.32	732	-0.119	-0.005	1.004	3.3804522	0.859437	0.4010706	177.9435661	-5.7868758	-177.7831378
7.33	733	-0.12	-0.006	1.001	3.0939732	0.9740286	0.286479	177.9779435	-5.79833496	-177.7831378
7.34	734	-0.12	-0.007	0.999	2.9793816	1.0886202	0.286479	178.0065914	-5.80979412	-177.7888674
7.35	735	-0.12	-0.007	0.999	2.7501984	1.0886202	0.2291832	178.0868056	-5.8728195	-177.794597
7.36	736	-0.119	-0.006	0.999	2.7501984	0.859437	0.1718874	178.1154535	-5.87854908	-177.8003266
7.37	737	-0.12	-0.006	1.004	3.0366774	0.859437	0.1718874	178.1441014	-5.89000824	-177.8003266
7.38	738	-0.119	-0.005	1.004	3.2658606	1.2605076	0.0572958	178.1784788	-5.9014674	-177.8003266
7.39	739	-0.12	-0.004	1.008	3.151269	1.4896908	0.0572958	178.2128563	-5.91865614	-177.8003266
7.4	740	-0.121	-0.004	1.011	3.151269	1.5469866	0.0572958	178.2873409	-5.97022236	-177.8060561
7.41	741	-0.12	-0.002	1.012	3.0366774	1.6615782	0	178.3217183	-5.9874111	-177.8060561
7.42	742	-0.121	-0.003	1.011	2.6356068	1.6042824	0	178.3446367	-6.00459984	-177.8060561
7.43	743	-0.123	-0.002	1.011	2.2345362	1.6042824	0	178.367555	-6.02178858	-177.8060561
7.44	744	-0.122	0	1.009	1.6042824	1.5469866	0	178.3847437	-6.03897732	-177.8060561
7.45	745	-0.126	-0.002	1.007	1.145916	1.3178034	0	178.4993353	-6.14210976	-177.8232449
7.46	746	-0.125	0	1.008	0.7448454	0.7448454	0	178.5050649	-6.15356892	-177.8232449
7.47	747	-0.125	0	1.009	0.4010706	0.3437748	0	178.5107945	-6.1592985	-177.8232449
7.48	748	-0.127	0	1.008	0.1145916	0	0	178.5107945	-6.1592985	-177.8232449
7.49	749	-0.128	0	1.005	-0.3437748	-0.3437748	0	178.5050649	-6.15356892	-177.8232449
7.5	750	-0.129	0.001	1.005	-0.6875496	-0.7448454	0.0572958	178.6196565	-6.25670136	-177.8404336
7.51	751	-0.127	0	1.004	-0.9167328	-1.2605076	0.0572958	178.6081973	-6.2452422	-177.8461632
7.52	752	-0.127	0	1.003	-1.145916	-1.6042824	0.1145916	178.5967382	-6.22805346	-177.8461632
7.53	753	-0.126	0	1.004	-1.2032118	-1.8334656	0.1145916	178.585279	-6.21086472	-177.8461632
7.54	754	-0.126	0.001	1.004	-1.2605076	-1.9480572	0.1718874	178.5738199	-6.1879464	-177.8461632
7.55	755	-0.125	0.001	1.005	-1.0886202	-1.9480572	0.1718874	178.6196565	-6.21086472	-177.8576224
7.56	756	-0.125	0	1.007	-0.859437	-2.0626488	0.2291832	178.6081973	-6.19367598	-177.8633519
7.57	757	-0.123	0	1.007	-0.7448454	-2.005353	0.2291832	178.6024678	-6.17075766	-177.8633519
7.58	758	-0.122	0.001	1.009	-0.4010706	-2.005353	0.286479	178.5967382	-6.15356892	-177.8690815
7.59	759	-0.122	0	1.01	-0.1145916	-2.005353	0.286479	178.5967382	-6.1306506	-177.8690815
7.6	760	-0.121	0	1.01	0.1145916	-1.9480572	0.3437748	178.6654931	-6.1592985	-177.8862703
7.61	761	-0.122	0	1.01	0.4583664	-1.8907614	0.3437748	178.6712227	-6.13638018	-177.8862703
7.62	762	-0.12	0	1.009	0.572958	-1.8334656	0.286479	178.6826819	-6.11919144	-177.8919998
7.63	763	-0.119	0	1.008	0.859437	-1.8334656	0.286479	178.6884115	-6.1020027	-177.8919998
7.64	764	-0.12	0	1.008	0.9740286	-2.005353	0.286479	178.6998706	-6.07908438	-177.8977294
7.65	765	-0.118	0	1.01	1.0313244	-2.0626488	0.286479	178.7514368	-6.09627312	-177.903459
7.66	766	-0.118	-0.001	1.011	1.0886202	-2.1199446	0.2291832	178.7686256	-6.0733548	-177.9091886
7.67	767	-0.118	0	1.012	1.0313244	-2.1199446	0.2291832	178.7800847	-6.05043648	-177.9091886
7.68	768	-0.117	0	1.013	1.0886202	-2.1199446	0.286479	178.7915439	-6.03324774	-177.9149182
7.69	769	-0.116	0	1.013	1.145916	-1.8334656	0.286479	178.8030031	-6.01032942	-177.9149182
7.7	770	-0.117	0	1.011	1.2605076	-1.718874	0.2291832	178.8488397	-6.02751816	-177.9263773
7.71	771	-0.116	0	1.011	1.2605076	-1.5469866	0.2291832	178.8602989	-6.01032942	-177.9263773
7.72	772	-0.115	0	1.012	1.3178034	-1.3178034	0.1145916	178.8774876	-5.99887026	-177.9263773
7.73	773	-0.116	0	1.012	1.432395	-1.0886202	0.1718874	178.8889468	-5.9874111	-177.9321069
7.74	774	-0.115	0	1.01	1.3750992	-0.859437	0.1145916	178.9061355	-5.97595194	-177.9321069
7.75	775	-0.116	0	1.01	1.3178034	-0.6302538	0.1718874	178.9634313	-6.016059	-177.9378365
7.76	776	-0.116	-0.001	1.011	1.2605076	-0.3437748	0.1718874	178.98062	-6.016059	-177.9435661
7.77	777	-0.117	0	1.01	1.145916	-0.1718874	0.1718874	178.9920792	-6.01032942	-177.9435661
7.78	778	-0.117	0.001	1.009	1.0313244	-0.0572958	0.2291832	179.0035384	-6.01032942	-177.9492956
7.79	779	-0.116	0.001	1.009	1.0313244	-0.1145916	0.2291832	179.0149975	-6.01032942	-177.9492956
7.8	780	-0.117	0.001	1.01	0.9167328	-0.1145916	0.1145916	179.1238595	-6.1020027	-177.9664844
7.81	781	-0.117	0.002	1.011	0.8021412	-0.0572958	0.1718874	179.1295891	-6.1020027	-177.9664844
7.82	782	-0.118	0.001	1.01	0.6875496	-0.1718874	0.1145916	179.1353187	-6.1020027	-177.9664844
7.83	783	-0.117	0.001	1.009	0.8021412	-0.2291832	0.1718874	179.1467779	-6.09627312	-177.972214
7.84	784	-0.116	0.001	1.009	0.859437	-0.286479	0.1145916	179.158237	-6.09627312	-177.972214
7.85	785	-0.118	0.001	1.012	0.6875496	-0.4010706	0.1718874	179.2212624	-6.14783934	-177.9836731
7.86	786	-0.117	0.003	1.015	0.6302538	-0.5156622	0.1145916	179.226992	-6.14210976	-177.9836731
7.87	787	-0.118	0.002	1.014	0.7448454	-0.6875496	0.1718874	179.2327216	-6.13638018	-177.9836731
7.88	788	-0.117	0.001	1.014	0.859437	-0.7448454	0.1718874	179.2441807	-6.12492102	-177.9836731
7.89	789	-0.117	0.001	1.012	0.8021412	-0.6302538	0.1718874	179.2556399	-6.11919144	-177.9894027
7.9	790	-0.117	0.002	1.01	0.7448454	-0.4583664	0.1718874	179.2957469	-6.14783934	-177.9951323
7.91	791	-0.116	0.002	1.009	0.6302538	-0.3437748	0.0572958	179.3072061	-6.14783934	-177.9951323
7.92	792	-0.117	0.002	1.01	0.6875496	-0.3437748	0.1145916	179.3129357	-6.14210976	-177.9951323
7.93	793	-0.117	0.002	1.01	0.7448454	-0.4010706	0.1145916	179.3186653	-6.13638018	-178.0008619
7.94	794	-0.117	0.003	1.009	0.8021412	-0.3437748	0.1145916	179.3301244	-6.13638018	-178.0008619
7.95	795	-0.117	0.002	1.009	0.859437	-0.4010706	0.1145916	179.3702315	-6.16502808	-178.0065914
7.96	796	-0.118	0.003	1.008	1.0313244	-0.4583664	0.1145916	179.3816906	-6.16502808	-178.0065914
7.97	797	-0.117	0.003	1.007	1.0886202	-0.5156622	0.1145916	179.3931498	-6.1592985	-178.0065914
7.98	798	-0.117	0.003	1.007	1.2032118	-0.572958	0.1718874	179.404609	-6.15356892	-178.012321
7.99	799	-0.116	0.004	1.008	1.2032118	-0.6875496	0.1718874	179.4160681	-6.14783934	-178.012321
8	800	-0.116	0.003	1.009	1.2032118	-0.6875496	0.1718874	179.4561752	-6.1592985	-178.0180506
8.01	801	-0.116	0.004	1.01	1.2605076	-0.8021412	0.1718874	179.4676343	-6.15356892	-178.0180506
8.02	802	-0.117	0.004	1.011	1.2605076	-0.859437	0.1718874	179.4848231	-6.14210976	-178.0180506
8.03	803	-0.116	0.003	1.011	1.2032118	-0.859437	0.1718874	179.4962822	-6.13638018	-178.0237802
8.04	804	-0.116	0.003	1.013	1.0313244	-0.859437	0.1145916	179.5077414	-6.12492102	-178.0237802
8.05	805	-0.115	0.003	1.013	0.9740286	-0.7448454	0.2291832	179.5363893	-6.14210976	-178.0295098
8.06	806	-0.115	0.003	1.011	0.9740286	-0.7448454	0.1718874	179.5478485	-6.13638018	-178.0295098
8.07	807	-0.115	0.004	1.011	0.9740286	-0.7448454	0.1718874	179.5593076	-6.12492102	-178.0295098
8.08	808	-0.115	0.005	1.011	0.9740286	-0.6302538	0.1718874	179.5650372	-6.11919144	-178.0352393
8.09	809	-0.114	0.005	1.01	0.9740286	-0.4583664	0.1145916	179.5764964	-6.11346186	-178.0352393
8.1	810	-0.116	0.003	1.009	0.8021412	-0.4583664	0.1145916	179.6051443	-6.14210976	-178.0409689
8.11	811	-0.115	0.004	1.009	0	0	0	179.6108738	-6.14210976	-178.0409689
8.12	812	-0.114	0.005	1.011	-0.2291832	0	0	179.6051443	-6.14210976	-178.0409689
8.13	813	-0.115	0.004	1.013	-0.3437748	0.1145916	0	179.5994147	-6.14210976	-178.0409689
8.14	814	-0.114	0.004	1.012	-0.3437748	0.2291832	0	179.5994147	-6.14210976	-178.0409689
8.15	815	-0.114	0.004	1.012	-0.3437748	0.1718874	0	179.6337922	-6.1879464	-178.0466985
8.16	816	-0.114	0.004	1.011	-0.3437748	0.1718874	-0.0572958	179.6280626	-6.19367598	-178.0466985
8.17	817	-0.114	0.005	1.012	-0.4010706	0.1718874	-0.0572958	179.622333	-6.19367598	-178.0466985
8.18	818	-0.115	0.005	1.012	-0.3437748	0.1718874	-0.0572958	179.622333	-6.19367598	-178.0466985
8.19	819	-0.114	0.005	1.012	-0.4010706	0.2291832	0	179.6166034	-6.19940556	-178.0409689
8.2	820	-0.114	0.006	1.012	-0.4583664	0.1718874	-0.0572958	179.6509809	-6.22805346	-178.0466985
8.21	821	-0.115	0.004	1.012	-0.4583664	0.2291832	-0.0572958	179.6452513	-6.23378304	-178.0466985
8.22	822	-0.115	0.005	1.011	-0.4583664	0.1718874	0	179.6395217	-6.23378304	-178.0466985
8.23	823	-0.115	0.004	1.01	-0.4010706	0.1145916	-0.1145916	179.6337922	-6.23378304	-178.0466985
8.24	824	-0.114	0.005	1.01	-0.4583664	0.1718874	-0.1145916	179.6280626	-6.23951262	-178.0466985
8.25	825	-0.114	0.004	1.011	-0.3437748	0.1145916	-0.0572958	179.6567105	-6.26243094	-178.0524281
8.26	826	-0.114	0.006	1.011	-0.4583664	0.1718874	0	179.6509809	-6.26243094	-178.0466985
8.27	827	-0.115	0.005	1.013	-0.4583664	0.1145916	0	179.6509809	-6.26243094	-178.0466985
8.28	828	-0.115	0.005	1.011	-0.3437748	0.1145916	-0.0572958	179.6452513	-6.26816052	-178.0466985
8.29	829	-0.115	0.005	1.01	-0.3437748	0.2291832	-0.0572958	179.6395217	-6.26816052	-178.0466985
8.3	830	-0.114	0.004	1.01	-0.2291832	0.2291832	0	179.6567105	-6.29680842	-178.0524281
8.31	831	-0.115	0.005	1.01	-0.1145916	0.1718874	-0.0572958	179.6509809	-6.29680842	-178.0466985
8.32	832	-0.114	0.006	1.012	0	0.1718874	0	179.6509809	-6.302538	-178.0466985
8.33	833	-0.114	0.005	1.011	-0.0572958	0.1718874	0	179.6509809	-6.302538	-178.0466985
8.34	834	-0.114	0.006	1.012	-0.2291832	0.1145916	0	179.6509809	-6.302538	-178.0466985
8.35	835	-0.114	0.005	1.013	-0.3437748	0.1718874	0	179.6738992	-6.32545632	-178.0524281
8.36	836	-0.114	0.006	1.013	-0.4010706	0.1145916	0	179.6681696	-6.32545632	-178.0524281
8.37	837	-0.114	0.005	1.011	-0.4010706	0.0572958	0	179.6624401	-6.32545632	-178.0524281
8.38	838	-0.114	0.005	1.012	-0.3437748	0.1145916	0	179.6567105	-6.32545632	-178.0524281
8.39	839	-0.113	0.005	1.011	-0.4010706	0	0	179.6567105	-6.3311859	-178.0581577
8.4	840	-0.114	0.005	1.011	-0.4010706	0	0	179.6853584	-6.35410422	-178.0638872
8.41	841	-0.113	0.006	1.011	-0.4583664	0	0	179.6853584	-6.34837464	-178.0638872
8.42	842	-0.113	0.005	1.011	-0.286479	-0.2291832	0	179.6796288	-6.34837464	-178.0638872
8.43	843	-0.114	0.004	1.01	-0.286479	-0.2291832	0	179.6738992	-6.34837464	-178.0638872
8.44	844	-0.113	0.005	1.01	-0.2291832	-0.2291832	0	179.6738992	-6.34264506	-178.0638872
8.45	845	-0.114	0.005	1.011	-0.3437748	-0.1718874	0	179.691088	-6.35410422	-178.0638872
8.46	846	-0.113	0.005	1.011	-0.3437748	-0.0572958	0	179.691088	-6.35410422	-178.0638872
8.47	847	-0.114	0.005	1.01	-0.3437748	0	0	179.6853584	-6.35410422	-178.0638872
8.48	848	-0.113	0.005	1.009	-0.4010706	0	0.0572958	179.6796288	-6.35410422	-178.0696168
8.49	849	-0.114	0.005	1.008	-0.2291832	-0.0572958	0	179.6796288	-6.35410422	-178.0696168
8.5	850	-0.115	0.005	1.012	-0.3437748	0	0	179.6968175	-6.37129296	-178.0696168
8.51	851	-0.113	0.006	1.013	-0.4010706	0	0	179.6968175	-6.37129296	-178.0696168
8.52	852	-0.113	0.005	1.013	-0.286479	0	0	179.691088	-6.37129296	-178.0696168
8.53	853	-0.113	0.006	1.011	-0.1718874	0.0572958	0	179.691088	-6.37129296	-178.0696168
8.54	854	-0.113	0.004	1.012	-0.1718874	0.0572958	0	179.6853584	-6.37129296	-178.0696168
8.55	855	-0.113	0.004	1.015	-0.286479	0	0	179.7025471	-6.37129296	-178.0753464
8.56	856	-0.114	0.004	1.016	-0.4010706	-0.1145916	0	179.6968175	-6.37129296	-178.0753464
8.57	857	-0.114	0.005	1.016	-0.2291832	-0.286479	-0.0572958	179.6968175	-6.36556338	-178.0753464
8.58	858	-0.113	0.004	1.014	-0.2291832	-0.2291832	0	179.691088	-6.36556338	-178.0753464
8.59	859	-0.112	0.004	1.011	-0.286479	-0.1145916	0	179.691088	-6.3598338	-178.0753464
8.6	860	-0.113	0.004	1.01	-0.286479	0	0	179.6968175	-6.3598338	-178.0753464
8.61	861	-0.113	0.004	1.01	-0.3437748	0	0	179.691088	-6.3598338	-178.0753464
8.62	862	-0.113	0.005	1.01	-0.2291832	0.0572958	0	179.691088	-6.3598338	-178.0753464
8.63	863	-0.113	0.004	1.011	-0.1718874	0	0	179.691088	-6.3598338	-178.0753464
8.64	864	-0.113	0.005	1.01	-0.1718874	0.0572958	0	179.6853584	-6.3598338	-178.0753464
8.65	865	-0.112	0.004	1.01	-0.1145916	0	0	179.7254654	-6.33691548	-178.081076
8.66	866	-0.112	0.004	1.009	0	0.0572958	0	179.7254654	-6.33691548	-178.081076
8.67	867	-0.113	0.004	1.008	0.1145916	0.0572958	0	179.731195	-6.33691548	-178.081076
8.68	868	-0.112	0.004	1.008	0.286479	0.0572958	0	179.731195	-6.34264506	-178.081076
8.69	869	-0.113	0.004	1.01	0.286479	0.0572958	0	179.7369246	-6.34264506	-178.081076
8.7	870	-0.114	0.005	1.01	0.286479	0	0	179.7541133	-6.34837464	-178.081076
8.71	871	-0.113	0.004	1.01	0.286479	0	0	179.7598429	-6.34837464	-178.081076
8.72	872	-0.113	0.004	1.012	0.2291832	0.0572958	0	179.7598429	-6.34837464	-178.081076
8.73	873	-0.114	0.004	1.013	0.2291832	0	0.0572958	179.7655725	-6.34837464	-178.0868056
8.74	874	-0.112	0.004	1.013	0.2291832	0	0	179.7655725	-6.34837464	-178.0868056
8.75	875	-0.113	0.004	1.012	0.2291832	0	0	179.7827612	-6.3598338	-178.0868056
8.76	876	-0.112	0.004	1.011	0.1718874	0	-0.0572958	179.7827612	-6.3598338	-178.0868056
8.77	877	-0.112	0.004	1.01	0.2291832	0.0572958	0	179.7827612	-6.3598338	-178.0868056
8.78	878	-0.112	0.004	1.012	0.2291832	0.1145916	0.0572958	179.7884908	-6.3598338	-178.0868056
8.79	879	-0.112	0.004	1.011	0.286479	0.1145916	0	179.7884908	-6.3598338	-178.0868056
8.8	880	-0.111	0.004	1.009	0.1718874	0.1718874	0	179.79995	-6.3598338	-178.0868056
8.81	881	-0.112	0.004	1.01	0.2291832	0.1145916	0	179.8056796	-6.3598338	-178.0868056
8.82	882	-0.112	0.005	1.013	0.0572958	0.1145916	0	179.8056796	-6.3598338	-178.0868056
8.83	883	-0.112	0.004	1.013	0	0	0	179.8056796	-6.3598338	-178.0868056
8.84	884	-0.112	0.003	1.013	0	0	0	179.8056796	-6.3598338	-178.0868056
8.85	885	-0.112	0.003	1.01	0	0.0572958	0	179.8171387	-6.34837464	-178.0925351
8.86	886	-0.112	0.005	1.01	0.0572958	0.0572958	0	179.8171387	-6.34837464	-178.0925351
8.87	887	-0.112	0.004	1.01	0.0572958	0.0572958	0	179.8228683	-6.34837464	-178.0925351
8.88	888	-0.111	0.004	1.012	0.1145916	0	0	179.8228683	-6.34837464	-178.0925351
8.89	889	-0.112	0.004	1.012	0	0.0572958	0	179.8228683	-6.34837464	-178.0925351
8.9	890	-0.111	0.004	1.012	-0.0572958	0	0	179.8343275	-6.3311859	-178.0925351
8.91	891	-0.111	0.004	1.012	-0.1145916	0	0	179.8343275	-6.3311859	-178.0925351
8.92	892	-0.113	0.005	1.011	-0.0572958	0	0	179.8343275	-6.3311859	-178.0925351
8.93	893	-0.112	0.004	1.01	0	0	-0.0572958	179.8343275	-6.3311859	-178.0925351
8.94	894	-0.112	0.005	1.01	0	-0.0572958	0	179.8343275	-6.3311859	-178.0925351
8.95	895	-0.111	0.004	1.011	0	-0.0572958	0	179.8114091	-6.31399716	-178.0868056
8.96	896	-0.112	0.004	1.011	0	-0.0572958	-0.0572958	179.8114091	-6.31399716	-178.0868056
8.97	897	-0.112	0.004	1.011	0	0	-0.0572958	179.8114091	-6.31399716	-178.0868056
8.98	898	-0.112	0.004	1.01	0	0	-0.0572958	179.8114091	-6.31399716	-178.0868056
8.99	899	-0.111	0.005	1.011	0	0.0572958	-0.0572958	179.8114091	-6.31399716	-178.0868056
9	900	-0.112	0.004	1.01	0.1145916	0.0572958	0	179.8285979	-6.31972674	-178.0868056
9.01	901	-0.112	0.004	1.011	0.1145916	0.0572958	0	179.8285979	-6.31972674	-178.0868056
9.02	902	-0.111	0.003	1.012	0.1145916	0.1145916	0	179.8285979	-6.31972674	-178.0868056
9.03	903	-0.112	0.004	1.012	0.1718874	0.0572958	0	179.8343275	-6.31972674	-178.0868056
9.04	904	-0.112	0.004	1.011	0.1145916	0	-0.0572958	179.8343275	-6.31972674	-178.0868056
9.05	905	-0.111	0.005	1.012	0.0572958	0.0572958	0	179.840057	-6.31399716	-178.0868056
9.06	906	-0.112	0.004	1.011	0.1145916	0	0	179.840057	-6.31399716	-178.0868056
9.07	907	-0.111	0.004	1.012	0.1145916	0.0572958	0	179.8457866	-6.31399716	-178.0868056
9.08	908	-0.111	0.004	1.01	0.1718874	0.1145916	0	179.8457866	-6.31972674	-178.0868056
9.09	909	-0.111	0.004	1.011	0.1145916	0.0572958	0	179.8457866	-6.31972674	-178.0868056
9.1	910	-0.111	0.004	1.011	0.1718874	0	0	179.840057	-6.29680842	-178.0868056
9.11	911	-0.111	0.004	1.011	0.1718874	0	0	179.840057	-6.29680842	-178.0868056
9.12	912	-0.112	0.003	1.011	0.286479	0	0.0572958	179.8457866	-6.29680842	-178.0868056
9.13	913	-0.111	0.004	1.011	0.1718874	0	0	179.8457866	-6.29680842	-178.0868056
9.14	914	-0.111	0.004	1.012	0.1718874	0	0	179.8515162	-6.29680842	-178.0868056
9.15	915	-0.111	0.004	1.011	0.1145916	0	0.0572958	179.8629754	-6.29107884	-178.0868056
9.16	916	-0.112	0.004	1.011	0.0572958	0.0572958	0	179.8629754	-6.29107884	-178.0868056
9.17	917	-0.111	0.005	1.01	0.1145916	0.0572958	0.0572958	179.8687049	-6.29107884	-178.0868056
9.18	918	-0.111	0.005	1.012	0.0572958	0	0	179.8687049	-6.29107884	-178.0868056
9.19	919	-0.112	0.004	1.011	0.0572958	0	0	179.8687049	-6.29107884	-178.0868056
9.2	920	-0.11	0.005	1.012	0	0	0	179.8687049	-6.26816052	-178.0868056
9.21	921	-0.11	0.005	1.012	0	0	0	179.8687049	-6.26816052	-178.0868056
9.22	922	-0.111	0.005	1.012	0.0572958	-0.0572958	0	179.8687049	-6.26816052	-178.0868056
9.23	923	-0.111	0.005	1.011	0.0572958	0	0	179.8687049	-6.26816052	-178.0868056
9.24	924	-0.112	0.004	1.01	0.0572958	0	0	179.8687049	-6.26816052	-178.0868056
9.25	925	-0.112	0.005	1.011	0.0572958	0	0	179.8687049	-6.27961968	-178.0868056
9.26	926	-0.111	0.004	1.011	0.0572958	0.1145916	0	179.8687049	-6.28534926	-178.0868056
9.27	927	-0.111	0.004	1.011	0.0572958	0.0572958	0	179.8687049	-6.28534926	-178.0868056
9.28	928	-0.112	0.005	1.01	0.0572958	0.0572958	0	179.8687049	-6.28534926	-178.0868056
9.29	929	-0.112	0.005	1.01	0	0.1145916	0	179.8687049	-6.28534926	-178.0868056
9.3	930	-0.111	0.005	1.012	0	0.1145916	0	179.8744345	-6.28534926	-178.0868056
9.31	931	-0.111	0.005	1.011	0	0.1145916	0	179.8744345	-6.28534926	-178.0868056
9.32	932	-0.111	0.005	1.01	0	0.1145916	0	179.8744345	-6.29107884	-178.0868056
9.33	933	-0.11	0.005	1.009	0.1145916	0.0572958	0	179.8744345	-6.29107884	-178.0868056
9.34	934	-0.111	0.004	1.012	0	0.0572958	0	179.8744345	-6.29107884	-178.0868056
9.35	935	-0.111	0.003	1.014	-0.1145916	-0.0572958	0	179.8687049	-6.28534926	-178.0868056
9.36	936	-0.11	0.004	1.016	-0.286479	-0.0572958	-0.0572958	179.8629754	-6.28534926	-178.0868056
9.37	937	-0.112	0.004	1.015	-0.1145916	-0.1718874	0	179.8629754	-6.27961968	-178.0868056
9.38	938	-0.111	0.003	1.014	-0.0572958	-0.2291832	0	179.8629754	-6.27961968	-178.0868056
9.39	939	-0.111	0.003	1.012	-0.286479	-0.1145916	0	179.8629754	-6.27961968	-178.0868056
9.4	940	-0.111	0.005	1.01	-0.3437748	0	0	179.8572458	-6.27961968	-178.0868056
9.41	941	-0.111	0.004	1.012	-0.3437748	0	0	179.8572458	-6.27961968	-178.0868056
9.42	942	-0.111	0.005	1.011	-0.3437748	0	0	179.8515162	-6.27961968	-178.0868056
9.43	943	-0.111	0.004	1.012	-0.286479	0.0572958	0	179.8457866	-6.27961968	-178.0868056
9.44	944	-0.111	0.005	1.011	-0.1145916	0.0572958	0	179.8457866	-6.27961968	-178.0868056
9.45	945	-0.11	0.005	1.008	0.0572958	0.0572958	0	179.8457866	-6.2738901	-178.0868056
9.46	946	-0.11	0.006	1.009	0.1145916	0.0572958	0	179.8457866	-6.2738901	-178.0868056
9.47	947	-0.11	0.005	1.009	0.2291832	0	0.0572958	179.8457866	-6.2738901	-178.0868056
9.48	948	-0.11	0.006	1.009	0.2291832	0.0572958	0	179.8515162	-6.2738901	-178.0868056
9.49	949	-0.111	0.005	1.009	0.3437748	0	0	179.8572458	-6.2738901	-178.0868056
9.5	950	-0.111	0.005	1.01	0.4010706	0	0.0572958	179.8572458	-6.2738901	-178.0868056
