TimeStamp(s)	FrameCounter	AccX	AccY	AccZ	GyrX	GyrY	GyrZ	EulerX	EulerY	EulerZ
0.01	1	-0.084	-1.008	0.085	-2.9793816	-16.615782	1.6615782	93.57550056	-3.27731976	-25.73727336
0.02	2	-0.084	-1.004	0.082	-3.0939732	-17.18874	1.6615782	93.55258224	-3.27731976	-25.90916076
0.03	3	-0.084	-0.999	0.082	-3.151269	-17.7044022	1.4896908	93.5353935	-3.27731976	-26.08104816
0.04	4	-0.085	-0.996	0.08	-3.4950438	-18.4492476	1.0886202	93.51247518	-3.27159018	-26.26439472
0.05	5	-0.087	-0.994	0.079	-3.4950438	-19.194093	0.859437	93.48955686	-3.27731976	-26.44774128
0.06	6	-0.09	-0.995	0.078	-3.5523396	-19.7097552	0.7448454	93.46663854	-3.27159018	-26.64827658
0.07	7	-0.092	-0.995	0.077	-3.724227	-20.2827132	0.6875496	93.44372022	-3.26013102	-26.84881188
0.08	8	-0.095	-0.996	0.075	-3.6096354	-20.3973048	0.7448454	93.4208019	-3.24867186	-27.04934718
0.09	9	-0.096	-0.997	0.072	-3.2085648	-20.2827132	0.859437	93.40361316	-3.24294228	-27.24988248
0.1	10	-0.093	-0.994	0.073	-2.7501984	-20.1108258	0.6875496	93.38642442	-3.24867186	-27.43895862
0.11	11	-0.093	-0.994	0.075	-2.3491278	-19.8816426	0.4010706	93.37496526	-3.2372127	-27.63949392
0.12	12	-0.097	-0.996	0.078	-2.5210152	-19.5378678	-0.0572958	93.3635061	-3.21429438	-27.83429964
0.13	13	-0.102	-0.995	0.079	-3.0939732	-19.3086846	-0.3437748	93.34631736	-3.19710564	-28.02337578
0.14	14	-0.106	-0.993	0.082	-3.437748	-19.3086846	-0.572958	93.32339904	-3.17418732	-28.21245192
0.15	15	-0.108	-0.993	0.084	-3.4950438	-19.1367972	-0.9167328	93.30048072	-3.17418732	-28.3900689
0.16	16	-0.111	-0.994	0.085	-3.3231564	-18.7357266	-1.2605076	93.28329198	-3.14553942	-28.57341546
0.17	17	-0.111	-0.996	0.083	-3.0939732	-18.1627686	-1.4896908	93.26037366	-3.11689152	-28.75676202
0.18	18	-0.11	-0.996	0.086	-3.3804522	-17.2460358	-1.8907614	93.23745534	-3.08251404	-28.92291984
0.19	19	-0.107	-0.995	0.085	-3.5523396	-16.2147114	-2.291832	93.21453702	-3.04813656	-29.08334808
0.2	20	-0.103	-1	0.082	-3.3804522	-15.0114996	-2.6356068	93.1916187	-3.03094782	-29.21512842
0.21	21	-0.101	-1.002	0.08	-3.151269	-14.3812458	-2.6356068	93.16870038	-2.99657034	-29.35836792
0.22	22	-0.098	-1.002	0.077	-2.9220858	-13.8082878	-2.7501984	93.14578206	-2.95646328	-29.49587784
0.23	23	-0.096	-0.998	0.076	-2.4637194	-13.5218088	-2.9220858	93.12859332	-2.91635622	-29.62765818
0.24	24	-0.094	-0.993	0.079	-1.6615782	-13.5218088	-3.2658606	93.12286374	-2.87051958	-29.75943852
0.25	25	-0.095	-0.99	0.083	-0.9167328	-13.6364004	-3.6096354	93.12859332	-2.85333084	-29.8797597
0.26	26	-0.095	-0.989	0.089	-0.286479	-13.750992	-4.0680018	93.1343229	-2.80176462	-30.01154004
0.27	27	-0.095	-0.995	0.095	0.1145916	-13.6364004	-4.583664	93.14005248	-2.74446882	-30.14332038
0.28	28	-0.091	-1.004	0.093	0	-12.2613012	-5.2139178	93.15151164	-2.68144344	-30.25791198
0.29	29	-0.086	-1.008	0.094	-0.286479	-11.0007936	-5.72958	93.15151164	-2.61268848	-30.366774
0.3	30	-0.082	-1.013	0.087	-0.2291832	-10.026765	-5.9014674	93.15724122	-2.56685184	-30.4527177
0.31	31	-0.076	-1.013	0.084	-0.2291832	-9.453807	-5.9014674	93.1629708	-2.50382646	-30.5386614
0.32	32	-0.07	-1.009	0.083	-0.1145916	-8.880849	-5.7868758	93.1629708	-2.4350715	-30.6246051
0.33	33	-0.064	-1.002	0.084	-0.1145916	-8.6516658	-5.9014674	93.16870038	-2.37204612	-30.7105488
0.34	34	-0.059	-0.996	0.089	-0.2291832	-8.7089616	-6.1879464	93.16870038	-2.30329116	-30.79076292
0.35	35	-0.057	-0.997	0.096	-0.572958	-8.6516658	-6.7609044	93.17442996	-2.24026578	-30.86524746
0.36	36	-0.057	-1.002	0.107	-0.9167328	-8.1932994	-7.3911582	93.17442996	-2.16005166	-30.94546158
0.37	37	-0.062	-1.008	0.112	-1.432395	-7.2765666	-7.9641162	93.15724122	-2.07410796	-31.00848696
0.38	38	-0.069	-1.012	0.112	-2.005353	-6.016059	-8.4224826	93.14005248	-1.98243468	-31.06578276
0.39	39	-0.074	-1.012	0.111	-2.6356068	-4.4117766	-8.8235532	93.11713416	-1.89649098	-31.10588982
0.4	40	-0.074	-1.011	0.108	-3.0939732	-2.6356068	-9.1100322	93.09994542	-1.8334656	-31.1116194
0.41	41	-0.07	-1.011	0.102	-3.724227	-0.9167328	-9.2246238	93.06556794	-1.74179232	-31.11734898
0.42	42	-0.064	-1.008	0.094	-4.1825934	0.6875496	-9.2246238	93.0197313	-1.65011904	-31.10016024
0.43	43	-0.052	-1.009	0.087	-4.4690724	2.1199446	-9.0527364	92.97389466	-1.55844576	-31.07724192
0.44	44	-0.035	-1.008	0.079	-4.4117766	3.3231564	-8.7662574	92.92805802	-1.47823164	-31.04286444
0.45	45	-0.023	-1.004	0.072	-4.3544808	3.8388186	-8.3651868	92.88222138	-1.38655836	-31.00275738
0.46	46	-0.015	-0.999	0.072	-4.0680018	3.7815228	-7.8495246	92.83638474	-1.31207382	-30.96265032
0.47	47	-0.013	-0.995	0.073	-3.4950438	3.3804522	-7.6203414	92.79627768	-1.24331886	-30.92254326
0.48	48	-0.018	-0.993	0.076	-2.4637194	3.3804522	-7.448454	92.77335936	-1.16883432	-30.88816578
0.49	49	-0.021	-0.99	0.079	-1.3178034	3.6096354	-7.3911582	92.75617062	-1.10007936	-30.84805872
0.5	50	-0.019	-0.99	0.08	-0.6875496	4.1252976	-7.448454	92.75617062	-1.02559482	-30.80222208
0.51	51	-0.017	-0.986	0.081	-0.8021412	4.8128472	-7.448454	92.74471146	-0.95683986	-30.75065586
0.52	52	-0.014	-0.986	0.084	-1.0886202	5.72958	-7.448454	92.7332523	-0.8880849	-30.69336006
0.53	53	-0.014	-0.988	0.085	-1.6042824	6.4744254	-7.7922288	92.71033398	-0.81360036	-30.6246051
0.54	54	-0.011	-0.99	0.09	-1.8907614	7.5630456	-8.2505952	92.69314524	-0.73911582	-30.54439098
0.55	55	-0.004	-0.999	0.091	-2.1772404	8.4224826	-8.5370742	92.67022692	-0.65317212	-30.45844728
0.56	56	0.005	-1.009	0.092	-2.6929026	8.880849	-8.4797784	92.64157902	-0.572958	-30.366774
0.57	57	0.017	-1.019	0.093	-3.0366774	9.1100322	-8.1360036	92.60720154	-0.49847346	-30.27510072
0.58	58	0.029	-1.029	0.097	-3.2085648	8.7089616	-7.448454	92.57282406	-0.4297185	-30.18342744
0.59	59	0.04	-1.038	0.102	-3.3231564	7.8495246	-6.7609044	92.53844658	-0.36669312	-30.10321332
0.6	60	0.034	-1.041	0.109	-4.4117766	6.0733548	-6.3598338	92.5040691	-0.286479	-30.0516471
0.61	61	0.016	-1.038	0.117	-6.016059	4.9274388	-6.8182002	92.44104372	-0.22345362	-30.00008088
0.62	62	0	-1.041	0.112	-8.5370742	5.5576926	-7.9641162	92.35510002	-0.14896908	-29.94278508
0.63	63	-0.014	-1.039	0.097	-11.745639	7.9068204	-8.9954406	92.23477884	-0.06875496	-29.86257096
0.64	64	-0.015	-1.037	0.071	-14.8396122	10.6570188	-9.1100322	92.08008018	0.01145916	-29.75370894
0.65	65	0	-1.032	0.04	-16.902261	11.8029348	-8.1360036	91.9024632	0.0859437	-29.63911734
0.66	66	0.022	-1.027	0.019	-16.902261	11.3445684	-6.4744254	91.7305758	0.1432395	-29.53025532
0.67	67	0.05	-1.024	0.018	-15.1260912	10.5424272	-4.6982556	91.57587714	0.18334656	-29.42712288
0.68	68	0.069	-1.029	0.033	-12.6623718	10.7143146	-3.7815228	91.4440968	0.21772404	-29.31826086
0.69	69	0.074	-1.032	0.043	-11.5737516	11.0580894	-3.5523396	91.32377562	0.24637194	-29.20939884
0.7	70	0.068	-1.032	0.038	-11.745639	11.5737516	-3.7815228	91.20345444	0.30366774	-29.1062664
0.71	71	0.059	-1.029	0.028	-12.318597	12.4331886	-3.8961144	91.0716741	0.33231564	-28.98594522
0.72	72	0.048	-1.024	0.017	-12.7769634	12.9488508	-3.8961144	90.94562334	0.36669312	-28.85989446
0.73	73	0.041	-1.016	0.013	-12.6623718	12.6623718	-3.724227	90.813843	0.39534102	-28.7338437
0.74	74	0.038	-1.006	0.016	-12.2040054	12.0894138	-3.2658606	90.68779224	0.42398892	-28.61352252
0.75	75	0.04	-0.995	0.028	-11.4018642	11.0580894	-2.1772404	90.56747106	0.4583664	-28.51611966
0.76	76	0.044	-0.987	0.041	-10.6570188	8.7089616	-0.7448454	90.45860904	0.46409598	-28.43017596
0.77	77	0.05	-0.979	0.056	-9.5683986	6.5317212	0	90.36120618	0.4583664	-28.36715058
0.78	78	0.053	-0.978	0.069	-8.6516658	4.9847346	0.5156622	90.27526248	0.45263682	-28.31558436
0.79	79	0.056	-0.984	0.077	-8.1360036	3.6096354	0.5156622	90.18931878	0.44690724	-28.28120688
0.8	80	0.055	-0.991	0.081	-8.021412	2.1772404	0.1145916	90.14348214	0.49847346	-28.28693646
0.81	81	0.058	-0.998	0.081	-8.5370742	1.0313244	-0.2291832	90.05753844	0.49847346	-28.2754773
0.82	82	0.055	-1	0.083	-8.9954406	-0.5156622	-0.2291832	89.96586516	0.49847346	-28.28120688
0.83	83	0.054	-1.012	0.088	-9.6829902	-2.3491278	0.0572958	89.8684623	0.49847346	-28.30985478
0.84	84	0.056	-1.02	0.089	-11.0580894	-4.7555514	0.9167328	89.7538707	0.4870143	-28.35569142
0.85	85	0.06	-1.025	0.092	-12.2613012	-7.161975	1.8907614	89.65073826	0.49274388	-28.43590554
0.86	86	0.061	-1.026	0.094	-13.1207382	-9.5111028	2.7501984	89.51895792	0.46982556	-28.5333084
0.87	87	0.056	-1.028	0.096	-13.3499214	-11.745639	3.3804522	89.381448	0.43544808	-28.65362958
0.88	88	0.051	-1.026	0.095	-13.3499214	-13.5791046	3.7815228	89.24393808	0.4010706	-28.78540992
0.89	89	0.045	-1.023	0.093	-13.464513	-15.4125702	3.6669312	89.11215774	0.36096354	-28.94010858
0.9	90	0.031	-1.024	0.092	-13.5218088	-16.6730778	3.5523396	88.99183656	0.33804522	-29.1062664
0.91	91	0.026	-1.023	0.09	-13.6936962	-17.8762896	3.724227	88.85432664	0.29793816	-29.28961296
0.92	92	0.016	-1.016	0.091	-13.8082878	-19.8243468	4.5263682	88.71108714	0.25210152	-29.48441868
0.93	93	0.013	-1.01	0.097	-13.178034	-21.8296998	5.5003968	88.5793068	0.2005353	-29.70214272
0.94	94	0.013	-1.002	0.108	-12.0894138	-23.5485738	6.016059	88.45898562	0.13750992	-29.93132592
0.95	95	0.013	-0.998	0.111	-11.5164558	-24.4080108	6.3598338	88.36731234	0.07448454	-30.17196828
0.96	96	0.007	-0.995	0.116	-11.6883432	-25.1528562	6.5317212	88.25272074	0.01145916	-30.4240698
0.97	97	0	-0.988	0.122	-11.4018642	-26.2987722	6.589017	88.13812914	-0.05156622	-30.6819009
0.98	98	0	-0.979	0.128	-10.9434978	-27.6165756	6.4744254	88.02926712	-0.12032118	-30.95692074
0.99	99	0	-0.963	0.13	-11.172681	-28.2468294	6.3598338	87.9204051	-0.18907614	-31.23194058
1	100	0	-0.952	0.139	-10.9434978	-28.8197874	6.302538	87.84019098	-0.25210152	-31.51841958
1.01	101	0	-0.946	0.144	-11.2299768	-29.6792244	5.9587632	87.73132896	-0.3151269	-31.81062816
1.02	102	-0.001	-0.944	0.147	-11.1153852	-30.1375908	5.9014674	87.62246694	-0.38388186	-32.10283674
1.03	103	-0.002	-0.937	0.155	-10.5424272	-30.8824362	5.9587632	87.52506408	-0.44690724	-32.41223406
1.04	104	-0.005	-0.935	0.163	-9.5111028	-32.4294228	6.1879464	87.4333908	-0.5156622	-32.72736096
1.05	105	-0.009	-0.929	0.173	-8.4797784	-34.3201842	6.875496	87.38755416	-0.59014674	-33.0596766
1.06	106	-0.015	-0.924	0.183	-6.9327918	-36.5547204	7.448454	87.32452878	-0.67609044	-33.42064014
1.07	107	-0.016	-0.922	0.195	-5.2139178	-38.101707	8.021412	87.27869214	-0.76203414	-33.79306284
1.08	108	-0.015	-0.92	0.203	-3.2658606	-39.534102	8.2505952	87.25577382	-0.85370742	-34.18267428
1.09	109	-0.013	-0.914	0.202	-1.8907614	-39.9924684	8.3651868	87.25004424	-0.9453807	-34.57228572
1.1	110	-0.013	-0.91	0.196	-0.5156622	-39.1903272	8.5370742	87.2901513	-1.04278356	-34.950438
1.11	111	-0.018	-0.903	0.19	1.145916	-38.7319608	8.9381448	87.31306962	-1.13445684	-35.33431986
1.12	112	-0.02	-0.897	0.188	2.5210152	-38.7892566	9.740286	87.35317668	-1.24331886	-35.71247214
1.13	113	-0.023	-0.888	0.19	4.9847346	-39.0184398	10.9434978	87.41620206	-1.35791046	-36.09062442
1.14	114	-0.024	-0.885	0.202	8.1360036	-39.7632852	12.2040054	87.51360492	-1.48396122	-36.48023586
1.15	115	-0.026	-0.901	0.207	10.4851314	-40.1643558	13.6936962	87.662574	-1.62720072	-36.86411772
1.16	116	-0.03	-0.925	0.205	12.7769634	-40.5654264	14.2666542	87.81154308	-1.77044022	-37.25945874
1.17	117	-0.05	-0.982	0.211	13.750992	-41.0810886	13.2353298	87.97197132	-1.90795014	-37.66052934
1.18	118	-0.097	-1.082	0.198	13.464513	-40.2216516	9.453807	88.12666998	-2.005353	-38.05587036
1.19	119	-0.162	-1.235	0.149	10.886202	-35.1796212	2.9793816	88.25272074	-2.0340009	-38.39964516
1.2	120	-0.252	-1.353	0.106	5.6149884	-24.8090814	-4.010706	88.32720528	-2.01108258	-38.64028752
1.21	121	-0.324	-1.42	0.042	7.6776372	-11.1153852	-9.7975818	88.41314898	-1.90795014	-38.74914954
1.22	122	-0.311	-1.493	0.001	7.7922288	-1.7761698	-13.178034	88.4933631	-1.7761698	-38.77206786
1.23	123	-0.165	-1.404	-0.101	6.875496	-0.286479	-12.6623718	88.56211806	-1.65011904	-38.77779744
1.24	124	0.047	-1.236	-0.148	19.0795014	-8.9381448	-7.734933	88.75692378	-1.5756345	-38.86374114
1.25	125	0.198	-1.142	-0.116	33.2888598	-19.3086846	0.572958	89.08923942	-1.53552744	-39.07000602
1.26	126	0.276	-1.11	-0.055	38.7319608	-26.0122932	6.3598338	89.4960396	-1.59282324	-39.32210754
1.27	127	0.269	-1.1	-0.037	32.2002396	-32.7159018	8.7662574	89.83408482	-1.66730778	-39.64296402
1.28	128	0.217	-1.086	-0.06	23.0329116	-38.674665	9.0527364	90.08618634	-1.7475219	-40.0211163
1.29	129	0.154	-1.07	-0.13	15.9282324	-44.2896534	8.1360036	90.2695329	-1.81054728	-40.45656438
1.3	130	0.07	-1.031	-0.156	9.5111028	-49.7900502	5.9014674	90.36120618	-1.8334656	-40.96076742
1.31	131	-0.014	-0.98	-0.175	4.0680018	-52.9413192	3.2085648	90.42996114	-1.85065434	-41.48788878
1.32	132	-0.064	-0.943	-0.192	-0.572958	-53.858052	1.145916	90.44714988	-1.84492476	-42.02073972
1.33	133	-0.088	-0.918	-0.186	-2.2345362	-51.852699	-0.1718874	90.44714988	-1.82200644	-42.53067234
1.34	134	-0.097	-0.903	-0.173	-3.151269	-48.1857678	-1.0313244	90.43569072	-1.79335854	-43.00622748
1.35	135	-0.091	-0.895	-0.156	-3.437748	-42.7426668	-0.9740286	90.38985408	-1.7761698	-43.4302164
1.36	136	-0.087	-0.89	-0.137	-4.297185	-37.24227	-0.286479	90.36693576	-1.76471064	-43.8026391
1.37	137	-0.085	-0.892	-0.122	-4.6982556	-31.799169	1.2605076	90.33255828	-1.76471064	-44.117766
1.38	138	-0.087	-0.893	-0.115	-4.5263682	-27.2728008	3.2085648	90.2981808	-1.78762896	-44.38705626
1.39	139	-0.096	-0.9	-0.102	-3.724227	-23.491278	5.3858052	90.2695329	-1.8334656	-44.62196904
1.4	140	-0.118	-0.911	-0.098	-2.6929026	-19.8243468	7.3911582	90.22369626	-1.93086846	-44.81104518
1.41	141	-0.142	-0.918	-0.077	-1.3750992	-17.761698	8.2505952	90.21796668	-2.005353	-44.98866216
1.42	142	-0.164	-0.937	-0.053	-0.6302538	-13.3499214	8.307891	90.21796668	-2.08556712	-45.1204425
1.43	143	-0.179	-0.963	-0.054	-0.6875496	-8.4224826	8.0787078	90.21796668	-2.16005166	-45.2063862
1.44	144	-0.187	-0.987	-0.049	-0.9740286	-4.0680018	8.021412	90.20650752	-2.24026578	-45.24649326
1.45	145	-0.182	-1.016	-0.039	-1.3178034	-0.1145916	8.307891	90.17213004	-2.42934192	-45.2063862
1.46	146	-0.167	-1.033	-0.033	-1.8907614	3.5523396	8.9954406	90.1549413	-2.5210152	-45.17200872
1.47	147	-0.138	-1.036	-0.02	-1.4896908	6.1306506	10.0840608	90.13202298	-2.62414764	-45.11471292
1.48	148	-0.11	-1.027	-0.004	-0.4583664	8.4797784	11.1153852	90.1262934	-2.73300966	-45.02876922
1.49	149	-0.092	-1.013	0.008	0.572958	9.5111028	12.1467096	90.1262934	-2.85906042	-44.93709594
1.5	150	-0.073	-1.008	0.023	0.859437	9.453807	13.0634424	90.13202298	-2.99657034	-44.83969308
1.51	151	-0.057	-1.007	0.024	-0.2291832	8.4224826	13.6364004	90.12056382	-3.13408026	-44.75947896
1.52	152	-0.049	-1.017	0.024	-1.145916	6.9327918	14.1520626	90.10337508	-3.27731976	-44.690724
1.53	153	-0.052	-1.016	0.024	-2.4637194	5.5576926	14.4958374	90.07472718	-3.42055926	-44.6334282
1.54	154	-0.061	-1.01	0.022	-3.4950438	4.3544808	14.2093584	90.03462012	-3.56379876	-44.59332114
1.55	155	-0.073	-0.988	0.029	-4.7555514	3.437748	13.5218088	89.98878348	-3.71276784	-44.55321408
1.56	156	-0.097	-0.973	0.03	-4.9847346	2.005353	12.2613012	89.93721726	-3.83308902	-44.53602534
1.57	157	-0.111	-0.959	0.041	-4.6409598	1.432395	10.7143146	89.88565104	-3.94195104	-44.52456618
1.58	158	-0.118	-0.949	0.046	-4.870143	1.6615782	8.9954406	89.8398144	-4.03362432	-44.50737744
1.59	159	-0.125	-0.946	0.051	-5.5003968	2.291832	7.161975	89.7825186	-4.10237928	-44.48445912
1.6	160	-0.124	-0.949	0.054	-6.4171296	2.9793816	5.443101	89.73668196	-4.19978214	-44.43862248
1.61	161	-0.124	-0.956	0.057	-7.2192708	3.6669312	4.0680018	89.66219742	-4.2398892	-44.39851542
1.62	162	-0.127	-0.959	0.057	-8.4224826	4.4690724	3.0366774	89.57052414	-4.27426668	-44.35840836
1.63	163	-0.132	-0.951	0.059	-9.1100322	5.3858052	1.8334656	89.47312128	-4.29145542	-44.30111256
1.64	164	-0.137	-0.946	0.068	-8.6516658	6.4744254	0.8021412	89.381448	-4.30291458	-44.23808718
1.65	165	-0.135	-0.944	0.073	-7.448454	7.6203414	0	89.33561136	-4.3544808	-44.14068432
1.66	166	-0.131	-0.946	0.08	-6.0733548	8.6516658	-0.7448454	89.2668564	-4.34875122	-44.05474062
1.67	167	-0.12	-0.941	0.094	-4.297185	9.740286	-1.5469866	89.21529018	-4.33156248	-43.96306734
1.68	168	-0.112	-0.935	0.111	-1.8334656	11.1153852	-2.578311	89.18664228	-4.30864416	-43.84847574
1.69	169	-0.109	-0.933	0.132	0.572958	12.6623718	-3.6669312	89.1809127	-4.27426668	-43.72242498
1.7	170	-0.115	-0.931	0.144	1.7761698	14.610429	-4.870143	89.2382085	-4.25707794	-43.56199674
1.71	171	-0.125	-0.926	0.145	2.578311	16.5011904	-6.1879464	89.24966766	-4.19978214	-43.39583892
1.72	172	-0.132	-0.921	0.137	3.5523396	17.9908812	-7.6776372	89.27258598	-4.1252976	-43.21822194
1.73	173	-0.141	-0.923	0.129	4.0680018	19.194093	-9.0527364	89.2955043	-4.0393539	-43.0291458
1.74	174	-0.146	-0.928	0.135	4.9847346	19.5378678	-10.1413566	89.32988178	-3.94195104	-42.83434008
1.75	175	-0.139	-0.926	0.128	5.6149884	19.8816426	-11.0580894	89.40436632	-3.85600734	-42.6280752
1.76	176	-0.126	-0.927	0.13	7.2192708	20.4546006	-12.5477802	89.46166212	-3.73568616	-42.42181032
1.77	177	-0.114	-0.935	0.12	7.9641162	20.5118964	-13.6936962	89.5246875	-3.60390582	-42.22127502
1.78	178	-0.104	-0.945	0.102	8.7662574	19.7097552	-14.3812458	89.59917204	-3.46066632	-42.0264693
1.79	179	-0.097	-0.967	0.093	10.6570188	18.6784308	-14.2666542	89.69084532	-3.3231564	-41.83739316
1.8	180	-0.091	-0.991	0.096	12.1467096	17.0741484	-13.1207382	89.82262566	-3.2085648	-41.66550576
1.81	181	-0.073	-1.003	0.108	14.2666542	16.2720072	-11.6310474	89.954406	-3.0939732	-41.49934794
1.82	182	-0.059	-1.002	0.129	16.5011904	15.6417534	-10.0840608	90.10910466	-2.99657034	-41.34464928
1.83	183	-0.07	-0.988	0.162	17.8762896	14.5531332	-9.0527364	90.28099206	-2.91062664	-41.1956802
1.84	184	-0.096	-0.96	0.21	20.2254174	14.4958374	-8.8235532	90.48152736	-2.82468294	-41.04671112
1.85	185	-0.118	-0.936	0.271	24.5798982	16.7303736	-9.7975818	90.76227678	-2.75592798	-40.86336456
1.86	186	-0.134	-0.926	0.327	30.4240698	20.4546006	-11.5737516	91.05448536	-2.64706596	-40.65709968
1.87	187	-0.157	-0.927	0.377	37.0130868	24.2361234	-13.750992	91.4154489	-2.5210152	-40.41072774
1.88	188	-0.19	-0.936	0.412	41.8832298	27.9030546	-15.3552744	91.82797866	-2.3777757	-40.12424874
1.89	189	-0.228	-0.96	0.419	44.2323576	30.1375908	-15.8136408	92.25769716	-2.2345362	-39.81485142
1.9	190	-0.255	-1.037	0.395	43.7739912	32.8304934	-15.0114996	92.71033398	-2.13140376	-39.46534704
1.91	191	-0.23	-1.148	0.362	40.3362432	36.3255372	-12.5477802	93.09994542	-2.0340009	-39.09865392
1.92	192	-0.141	-1.283	0.32	37.1849742	38.2735944	-9.0527364	93.46090896	-1.97097552	-38.70904248
1.93	193	-0.019	-1.393	0.255	34.3201842	36.2682414	-4.3544808	93.78749502	-1.95951636	-38.34807894
1.94	194	0.071	-1.463	0.197	28.6479	30.8251404	1.5469866	94.06824444	-1.99962342	-38.03868162
1.95	195	0.184	-1.516	0.147	22.1734746	22.5745452	9.5683986	94.2802389	-2.10848544	-37.82668716
1.96	196	0.272	-1.593	0.047	11.5164558	9.453807	17.4179232	94.38910092	-2.28610242	-37.74647304
1.97	197	0.36	-1.617	-0.008	0.2291832	-1.718874	24.6944898	94.3948305	-2.53247436	-37.78085052
1.98	198	0.352	-1.5	-0.116	-9.5111028	-15.0114996	28.2468294	94.3088868	-2.79603504	-37.95273792
1.99	199	0.203	-1.188	-0.143	-8.9381448	-26.1841806	27.3873924	94.24013184	-3.04240698	-38.23348734
2	200	-0.032	-0.969	-0.123	-0.3437748	-30.8824362	21.7151082	94.2229431	-3.23148312	-38.55434382
2.01	201	-0.233	-0.867	-0.107	8.9381448	-27.788463	12.6623718	94.3375347	-3.32888598	-38.83509324
2.02	202	-0.386	-0.847	-0.113	13.9228794	-16.2147114	4.9847346	94.48650378	-3.36326346	-38.99552148
2.03	203	-0.479	-0.872	-0.158	10.6570188	3.6096354	-0.1718874	94.5953658	-3.36326346	-38.961144
2.04	204	-0.5	-0.861	-0.195	3.7815228	27.4446882	-3.5523396	94.61255454	-3.35753388	-38.68612416
2.05	205	-0.445	-0.851	-0.2	3.6096354	40.2216516	-3.7815228	94.58390664	-3.44347758	-38.25640566
2.06	206	-0.348	-0.854	-0.205	5.5003968	48.3003594	-2.4064236	94.60682496	-3.47212548	-37.78085052
2.07	207	-0.225	-0.86	-0.214	4.9274388	52.3110654	0.0572958	94.61828412	-3.52942128	-37.26518832
2.08	208	-0.097	-0.862	-0.212	3.2658606	52.4829528	3.4950438	94.61255454	-3.61536498	-36.74952612
2.09	209	0.013	-0.864	-0.193	2.005353	49.847346	7.5630456	94.5953658	-3.74714532	-36.26251182
2.1	210	0.103	-0.874	-0.175	-0.7448454	45.9512316	11.3445684	94.5094221	-3.86173692	-35.8385229
2.11	211	0.169	-0.897	-0.167	-4.4117766	40.8519054	14.1520626	94.43493756	-4.04508348	-35.44891146
2.12	212	0.216	-0.921	-0.162	-6.589017	33.518043	15.756345	94.3375347	-4.23415962	-35.13378456
2.13	213	0.227	-0.935	-0.143	-6.5317212	26.2987722	15.5271618	94.251591	-4.41750618	-34.88741262
2.14	214	0.207	-0.941	-0.108	-4.297185	19.3659804	13.8655836	94.18856562	-4.57220484	-34.70406606
2.15	215	0.158	-0.941	-0.071	-1.5469866	12.605076	11.4018642	94.09689234	-4.57793442	-34.64104068
2.16	216	0.09	-0.938	-0.029	1.6615782	5.5003968	8.3651868	94.11408108	-4.66387812	-34.58947446
2.17	217	0.018	-0.947	0.015	6.4171296	-0.1718874	4.9274388	94.17710646	-4.71544434	-34.59520404
2.18	218	-0.043	-0.984	0.069	9.453807	-2.7501984	1.432395	94.27450932	-4.72117392	-34.62385194
2.19	219	-0.073	-1.036	0.102	9.2246238	-3.0366774	-1.5469866	94.37191218	-4.70398518	-34.65249984
2.2	220	-0.086	-1.083	0.131	6.1306506	-2.4637194	-4.4690724	94.4521263	-4.65241896	-34.67541816
2.21	221	-0.081	-1.11	0.156	1.3750992	-1.8334656	-6.1306506	94.46358546	-4.58939358	-34.68687732
2.22	222	-0.068	-1.128	0.173	-3.8961144	-1.5469866	-7.0473834	94.42920798	-4.51490904	-34.69833648
2.23	223	-0.046	-1.13	0.182	-9.2819196	-0.2291832	-7.1046792	94.33180512	-4.44615408	-34.69833648
2.24	224	-0.026	-1.123	0.187	-14.6677248	1.8907614	-6.3598338	94.18283604	-4.38885828	-34.67541816
2.25	225	-0.015	-1.109	0.177	-18.5638392	3.437748	-5.3858052	93.99948948	-4.31437374	-34.64677026
2.26	226	-0.01	-1.077	0.162	-21.0275586	4.870143	-4.1252976	93.78176544	-4.27999626	-34.59520404
2.27	227	-0.011	-1.036	0.148	-21.0848544	5.2139178	-3.724227	93.5640414	-4.25134836	-34.54363782
2.28	228	-0.014	-1.015	0.146	-20.9702628	6.1306506	-4.1252976	93.34631736	-4.21697088	-34.48634202
2.29	229	-0.013	-0.995	0.13	-21.772404	7.6203414	-4.7555514	93.11713416	-4.17686382	-34.41185748
2.3	230	-0.019	-0.982	0.117	-21.5432208	8.0787078	-5.6149884	92.89941012	-4.10810886	-34.33737294
2.31	231	-0.017	-0.972	0.111	-22.0015872	7.5057498	-6.302538	92.67022692	-4.05654264	-34.2628884
2.32	232	-0.009	-0.957	0.106	-22.1161788	6.1879464	-6.5317212	92.44104372	-3.99351726	-34.19986302
2.33	233	-0.008	-0.945	0.108	-21.4286292	4.297185	-6.0733548	92.22331968	-3.94195104	-34.15402638
2.34	234	-0.005	-0.925	0.111	-20.6837838	2.005353	-5.7868758	92.01132522	-3.88465524	-34.13683764
2.35	235	0	-0.918	0.111	-18.6784308	-0.0572958	-5.6149884	91.83943782	-3.80444112	-34.1482968
2.36	236	0.01	-0.903	0.119	-17.2460358	-3.3804522	-4.9847346	91.66182084	-3.7528749	-34.18267428
2.37	237	0.009	-0.882	0.125	-14.7823164	-6.302538	-4.4117766	91.51858134	-3.70703826	-34.24569966
2.38	238	0.006	-0.868	0.128	-11.2872726	-9.2246238	-3.7815228	91.40971932	-3.66120162	-34.33737294
2.39	239	0.004	-0.861	0.139	-8.8235532	-11.6310474	-2.8074942	91.3295052	-3.63255372	-34.45196454
2.4	240	0	-0.852	0.152	-7.1046792	-12.9488508	-1.7761698	91.3008573	-3.58671708	-34.58947446
2.41	241	0.002	-0.856	0.166	-5.156622	-13.5791046	-0.4583664	91.25502066	-3.57525792	-34.7212548
2.42	242	0.003	-0.869	0.183	-5.3285094	-14.1520626	1.0313244	91.2149136	-3.5809875	-34.8644943
2.43	243	0.009	-0.884	0.192	-5.0993262	-14.2666542	3.6096354	91.17480654	-3.6096354	-35.0077338
2.44	244	0.027	-0.882	0.2	-4.1252976	-15.183387	5.8441716	91.14042906	-3.66120162	-35.15670288
2.45	245	0.047	-0.877	0.206	-2.9793816	-16.7876694	7.7922288	91.16907696	-3.68984952	-35.34004944
2.46	246	0.063	-0.873	0.207	-2.4064236	-18.6784308	8.880849	91.1576178	-3.77006364	-35.52912558
2.47	247	0.062	-0.873	0.192	-2.291832	-20.5118964	9.0527364	91.15188822	-3.85027776	-35.73539046
2.48	248	0.063	-0.873	0.191	-0.572958	-20.912967	9.1100322	91.16334738	-3.93049188	-35.94165534
2.49	249	0.046	-0.892	0.178	1.3750992	-22.0015872	9.5683986	91.19199528	-4.01643558	-36.16510896
2.5	250	0.017	-0.924	0.154	0.3437748	-25.8404058	10.7143146	91.2435615	-4.0966497	-36.42866964
2.51	251	-0.019	-0.933	0.158	0.859437	-29.7365202	13.2353298	91.27793898	-4.2112413	-36.7266078
2.52	252	-0.039	-0.942	0.172	4.3544808	-33.518043	14.610429	91.35242352	-4.33729206	-37.05892344
2.53	253	-0.053	-0.95	0.197	7.8495246	-34.37748	13.8655836	91.46128554	-4.45761324	-37.40269824
2.54	254	-0.075	-0.962	0.219	11.9175264	-33.0596766	11.0007936	91.6159842	-4.54928652	-37.73501388
2.55	255	-0.095	-0.987	0.239	15.0687954	-30.1375908	6.875496	91.82797866	-4.60658232	-38.02722246
2.56	256	-0.098	-1.009	0.274	18.2773602	-27.0436176	2.86479	92.03997312	-4.61804148	-38.29651272
2.57	257	-0.09	-1.014	0.318	22.4026578	-26.069589	0.4583664	92.29207464	-4.60658232	-38.54861424
2.58	258	-0.063	-1.014	0.37	26.642547	-25.6685184	0.0572958	92.58428322	-4.583664	-38.80071576
2.59	259	-0.015	-1.035	0.4	28.8770832	-22.4599536	0.9167328	92.89941012	-4.57793442	-39.0184398
2.6	260	0.014	-1.106	0.356	26.1268848	-16.902261	0.9167328	93.21453702	-4.5550161	-39.1903272
2.61	261	-0.005	-1.209	0.241	24.9809688	-12.4331886	-0.3437748	93.4780977	-4.53782736	-39.31064838
2.62	262	-0.048	-1.354	0.078	16.2720072	-13.8655836	-1.4896908	93.65571468	-4.50917946	-39.44242872
2.63	263	-0.078	-1.428	0.051	6.9327918	-11.4018642	-4.9274388	93.7359288	-4.44615408	-39.55129074
2.64	264	-0.142	-1.436	-0.084	10.886202	-20.912967	-12.7769634	93.86197956	-4.30291458	-39.75182604
2.65	265	-0.192	-1.441	0.002	24.9809688	-30.9970278	-20.6837838	94.1369994	-4.0680018	-40.03830504
2.66	266	-0.181	-1.448	-0.027	22.6891368	-25.1528562	-27.501984	94.38910092	-3.77006364	-40.26175866
2.67	267	-0.133	-1.378	-0.086	13.9801752	-19.9389384	-34.6066632	94.54379958	-3.40337052	-40.42791648
2.68	268	-0.122	-1.257	-0.106	14.2093584	-15.3552744	-36.4974246	94.69849824	-3.02521824	-40.54823766
2.69	269	-0.077	-1.16	-0.157	15.5271618	-18.1054728	-32.658606	94.86465606	-2.68144344	-40.69720674
2.7	270	-0.013	-1.088	-0.18	9.9121734	-24.1215318	-26.2414764	94.93341102	-2.3777757	-40.92066036
2.71	271	0.05	-1.046	-0.209	3.5523396	-29.220858	-19.5378678	94.98497724	-2.1485925	-41.18995062
2.72	272	0.091	-1.02	-0.21	-0.2291832	-34.1482968	-13.178034	94.9964364	-1.98243468	-41.5108071
2.73	273	0.139	-0.974	-0.203	-2.8074942	-38.3308902	-8.0787078	94.98497724	-1.85638392	-41.8832298
2.74	274	0.157	-0.927	-0.179	-3.8388186	-40.966497	-5.0993262	94.96205892	-1.75898106	-42.2843004
2.75	275	0.114	-0.893	-0.153	-4.6409598	-40.393539	-3.9534102	94.88757438	-1.63865988	-42.69110058
2.76	276	0.02	-0.89	-0.136	-6.589017	-36.8984952	-3.8388186	94.83600816	-1.56417534	-43.05206412
2.77	277	-0.084	-0.911	-0.121	-8.7089616	-31.4553942	-3.6669312	94.75579404	-1.4896908	-43.36146144
2.78	278	-0.178	-0.933	-0.11	-9.3965112	-23.4339822	-2.4637194	94.66985034	-1.44385416	-43.59064464
2.79	279	-0.256	-0.941	-0.104	-8.0787078	-15.5271618	0.1718874	94.5953658	-1.42666542	-43.7453433
2.8	280	-0.297	-0.94	-0.08	-7.2765666	-6.875496	3.3231564	94.44639672	-1.65584862	-43.75680246
2.81	281	-0.305	-0.93	-0.068	-7.1046792	2.1199446	6.0733548	94.37191218	-1.718874	-43.73961372
2.82	282	-0.278	-0.917	-0.066	-5.5576926	8.9954406	8.4224826	94.31461638	-1.81627686	-43.6593996
2.83	283	-0.231	-0.913	-0.055	-3.151269	12.9488508	10.1413566	94.27450932	-1.92513888	-43.53907842
2.84	284	-0.19	-0.929	-0.026	-1.0313244	15.2979786	11.0580894	94.25732058	-2.05118964	-43.39583892
2.85	285	-0.16	-0.953	0	-1.145916	16.6730778	11.9748222	94.21721352	-2.22880662	-43.2296811
2.86	286	-0.144	-0.969	0.023	-2.6356068	17.761698	12.605076	94.18283604	-2.37204612	-43.06352328
2.87	287	-0.13	-0.967	0.038	-4.8128472	19.5951636	12.605076	94.12554024	-2.51528562	-42.88017672
2.88	288	-0.123	-0.959	0.044	-6.016059	21.6578124	12.1467096	94.0510557	-2.65852512	-42.67964142
2.89	289	-0.113	-0.953	0.038	-7.0473834	24.2361234	11.45916	93.965112	-2.79603504	-42.44472864
2.9	290	-0.098	-0.955	0.029	-7.6776372	25.8977016	11.0007936	93.86197956	-2.93354496	-42.1983567
2.91	291	-0.067	-0.962	0.025	-8.3651868	25.6685184	10.886202	93.75884712	-3.07105488	-41.95198476
2.92	292	-0.026	-0.974	0.031	-8.5370742	23.0902074	11.2872726	93.65571468	-3.20283522	-41.73426072
2.93	293	-0.005	-0.986	0.042	-9.3392154	19.480572	11.745639	93.54685266	-3.34034514	-41.55091416
2.94	294	-0.008	-0.986	0.049	-9.3965112	15.8709366	12.1467096	93.44372022	-3.47212548	-41.40194508
2.95	295	-0.027	-0.99	0.064	-10.2559482	12.318597	12.4331886	93.32339904	-3.59817624	-41.29308306
2.96	296	-0.048	-0.976	0.062	-10.4851314	9.2819196	11.745639	93.20880744	-3.724227	-41.21286894
2.97	297	-0.072	-0.979	0.067	-9.6829902	6.6463128	10.6570188	93.105675	-3.83308902	-41.15557314
2.98	298	-0.092	-0.991	0.067	-9.5683986	5.2712136	8.7089616	93.00827214	-3.9247623	-41.10400692
2.99	299	-0.104	-0.988	0.069	-9.8548776	5.3858052	5.6722842	92.89941012	-3.98778768	-41.05817028
3	300	-0.112	-0.98	0.075	-9.3392154	7.2192708	2.9220858	92.80773684	-4.05081306	-40.97795616
3.01	301	-0.112	-0.976	0.086	-9.2246238	9.167328	0.859437	92.7046044	-4.06227222	-40.89201246
3.02	302	-0.112	-0.974	0.092	-8.4797784	10.9434978	0	92.61293112	-4.07373138	-40.78315044
3.03	303	-0.118	-0.974	0.102	-8.3651868	12.0894138	-0.1145916	92.51552826	-4.07946096	-40.66282926
3.04	304	-0.12	-0.981	0.112	-8.021412	13.0061466	0.572958	92.42385498	-4.0966497	-40.5367785
3.05	305	-0.119	-0.98	0.119	-7.6776372	13.8082878	1.5469866	92.3608296	-4.14821592	-40.38780942
3.06	306	-0.12	-0.975	0.12	-7.3338624	14.7823164	2.4064236	92.26915632	-4.1825934	-40.24456992
3.07	307	-0.12	-0.968	0.125	-6.302538	15.9282324	2.9220858	92.19467178	-4.22270046	-40.08987126
3.08	308	-0.128	-0.955	0.132	-5.156622	17.5898106	2.8074942	92.12591682	-4.26280752	-39.91798386
3.09	309	-0.132	-0.946	0.145	-3.6096354	19.0795014	2.291832	92.06862102	-4.297185	-39.72890772
3.1	310	-0.134	-0.94	0.161	-1.7761698	20.626488	1.2032118	92.08008018	-4.36021038	-39.51118368
3.11	311	-0.141	-0.938	0.18	-0.1718874	22.2880662	-0.1145916	92.06289144	-4.37166954	-39.28773006
3.12	312	-0.153	-0.945	0.198	0.8021412	24.350715	-1.6042824	92.0457027	-4.37166954	-39.0470877
3.13	313	-0.16	-0.951	0.216	0.9740286	27.0436176	-3.2085648	92.03424354	-4.3544808	-38.77779744
3.14	314	-0.161	-0.955	0.222	1.3178034	29.7365202	-4.6982556	92.02278438	-4.3258329	-38.47985928
3.15	315	-0.148	-0.95	0.222	0.859437	32.085648	-6.4171296	92.03997312	-4.30864416	-38.15327322
3.16	316	-0.137	-0.948	0.219	0.6302538	33.9764094	-7.6776372	92.0170548	-4.25707794	-37.80949842
3.17	317	-0.125	-0.938	0.216	0.6875496	35.0077338	-8.59437	91.99413648	-4.18832298	-37.45999404
3.18	318	-0.111	-0.925	0.217	0.7448454	35.9244666	-9.167328	91.97121816	-4.11956802	-37.10476008
3.19	319	-0.096	-0.913	0.211	1.6615782	36.7266078	-9.8548776	91.959759	-4.04508348	-36.73233738
3.2	320	-0.088	-0.907	0.197	2.6356068	36.955791	-10.4851314	91.98267732	-3.97059894	-36.35991468
3.21	321	-0.084	-0.902	0.178	3.0939732	36.669312	-10.9434978	91.98267732	-3.88465524	-35.99322156
3.22	322	-0.076	-0.898	0.16	4.4117766	35.523396	-11.1153852	91.99986606	-3.79871154	-35.6379876
3.23	323	-0.063	-0.897	0.149	6.7036086	33.804522	-11.0580894	92.03997312	-3.70703826	-35.29994238
3.24	324	-0.053	-0.895	0.146	8.9381448	31.9137606	-11.6883432	92.10872808	-3.6096354	-34.97335632
3.25	325	-0.061	-0.895	0.147	11.0580894	29.5646328	-12.2040054	92.21186052	-3.51223254	-34.67541816
3.26	326	-0.079	-0.898	0.157	12.4904844	25.8404058	-12.318597	92.32072254	-3.40337052	-34.41185748
3.27	327	-0.1	-0.877	0.186	12.7769634	23.3193906	-12.7196676	92.43531414	-3.2945085	-34.1769447
3.28	328	-0.118	-0.839	0.229	15.5271618	24.4653066	-14.7250206	92.57282406	-3.16272816	-33.92484318
3.29	329	-0.13	-0.8	0.263	23.0329116	28.074942	-18.2773602	92.78481852	-3.00229992	-33.63836418
3.3	330	-0.154	-0.774	0.292	32.658606	32.5440144	-22.91832	93.12286374	-2.81895336	-33.2888598
3.31	331	-0.188	-0.771	0.313	40.9092012	39.5913978	-28.3041252	93.51247518	-2.56685184	-32.87633004
3.32	332	-0.244	-0.807	0.332	44.4615408	50.133825	-32.945085	93.9364641	-2.28037284	-32.35493826
3.33	333	-0.287	-0.918	0.312	40.2789474	61.1919144	-34.4347758	94.3088868	-1.99962342	-31.72468446
3.34	334	-0.237	-1.12	0.317	32.6013102	75.1147938	-32.2575354	94.60682496	-1.75325148	-30.95692074
3.35	335	-0.068	-1.478	0.217	21.6005166	79.068204	-24.5798982	94.79017152	-1.59282324	-30.15477954
3.36	336	0.144	-1.871	0.022	-9.9694692	68.182002	-11.8029348	94.66412076	-1.55271618	-29.4786891
3.37	337	0.309	-2.212	-0.119	-43.9458786	55.4623344	11.745639	94.1942952	-1.73033316	-28.94583816
3.38	338	0.597	-2.281	-0.31	-51.279741	36.4401288	43.3729206	93.65571468	-2.20015872	-28.62498168
3.39	339	0.624	-1.811	-0.373	-31.4553942	30.8251404	63.1972674	93.32339904	-2.85333084	-28.361421
3.4	340	0.25	-1.351	-0.301	3.2658606	51.5089242	66.9787902	93.31193988	-3.5523396	-27.89732502
3.41	341	-0.03	-1.145	-0.251	18.3919518	61.3638018	58.155237	93.4494498	-4.17686382	-27.32436702
3.42	342	-0.274	-0.968	-0.349	38.6173692	65.030733	44.404245	93.78749502	-4.67533728	-26.70557238
3.43	343	-0.505	-0.891	-0.423	52.4829528	71.3905668	28.5333084	94.251591	-5.02484166	-26.01802278
3.44	344	-0.651	-0.868	-0.431	56.8947294	79.1827956	9.6829902	94.75006446	-5.19672906	-25.23307032
3.45	345	-0.669	-0.872	-0.375	55.4050386	86.6312496	-7.2765666	95.20270128	-5.25975444	-24.350715
3.46	346	-0.592	-0.905	-0.164	51.279741	84.6831924	-18.7930224	95.63241978	-5.17381074	-23.491278
3.47	347	-0.453	-0.948	-0.047	44.8626114	83.8810512	-24.2361234	95.9991129	-5.03630082	-22.63757058
3.48	348	-0.238	-1.001	-0.012	31.51269	92.1889422	-25.3820394	96.2282961	-4.90452048	-21.69791946
3.49	349	-0.041	-0.998	0.002	16.9595568	103.5908064	-21.0275586	96.29705106	-4.83576552	-20.6551359
3.5	350	0.114	-1.001	0.002	-6.1306506	108.9193158	-13.2353298	96.11943408	-4.82430636	-19.57797486
3.51	351	0.228	-0.958	-0.077	-25.6112226	107.8306956	-4.9274388	95.75274096	-4.92170922	-18.51227298
3.52	352	0.292	-0.908	-0.122	-34.37748	100.3822416	2.2345362	95.30583372	-5.0706783	-17.5325148
3.53	353	0.314	-0.88	-0.132	-37.0703826	90.813843	6.5317212	94.83600816	-5.2425657	-16.6444299
3.54	354	0.334	-0.885	-0.132	-36.6120162	81.7611066	7.6776372	94.37764176	-5.40872352	-15.84801828
3.55	355	0.349	-0.909	-0.142	-35.236917	69.5571012	6.7036086	93.93073452	-5.48893764	-15.18911658
3.56	356	0.34	-0.923	-0.125	-30.7105488	51.7381074	3.0366774	93.55831182	-5.56915176	-14.68491354
3.57	357	0.297	-0.954	-0.094	-23.777757	37.815228	-1.432395	93.2775624	-5.5863405	-14.31249084
3.58	358	0.225	-0.999	-0.059	-18.9649098	27.8457588	-5.5576926	93.05410878	-5.5576926	-14.037471
3.59	359	0.166	-1.032	-0.029	-16.902261	21.3140376	-9.1100322	92.85930306	-5.48320806	-13.81974696
3.6	360	0.112	-1.044	0.001	-17.0168526	16.5011904	-11.9748222	92.65876776	-5.3285094	-13.67077788
3.61	361	0.056	-1.056	0.012	-17.761698	11.9748222	-14.0947668	92.46396204	-5.19672906	-13.54472712
3.62	362	-0.004	-1.043	0.002	-19.8816426	7.8495246	-14.7250206	92.25196758	-5.05921914	-13.464513
3.63	363	-0.042	-1.022	0.003	-21.0275586	4.297185	-13.0061466	92.03424354	-4.93316838	-13.41867636
3.64	364	-0.057	-1.008	0.015	-20.5118964	1.432395	-9.7975818	91.82224908	-4.83576552	-13.40148762
3.65	365	-0.057	-1.002	0.027	-18.9649098	0.9740286	-6.302538	91.62171378	-4.76128098	-13.40148762
3.66	366	-0.042	-1.025	0.024	-19.5378678	2.0626488	-3.3804522	91.42117848	-4.7269035	-13.3785693
3.67	367	-0.023	-1.035	0	-22.2307704	4.6409598	-0.6875496	91.19199528	-4.7269035	-13.33846224
3.68	368	0	-1.038	-0.017	-22.2307704	6.7609044	1.3178034	90.9570825	-4.74409224	-13.26970728
3.69	369	0.027	-1.033	-0.012	-21.6578124	8.021412	2.6929026	90.7278993	-4.77274014	-13.19522274
3.7	370	0.057	-0.995	-0.007	-21.1421502	8.3651868	3.3231564	90.4987161	-4.7555514	-13.13219736
3.71	371	0.087	-0.957	0	-20.7983754	7.2192708	3.2658606	90.28099206	-4.78992888	-13.0634424
3.72	372	0.121	-0.917	0.016	-20.3973048	4.6982556	3.151269	90.0689976	-4.82430636	-13.01760576
3.73	373	0.149	-0.902	0.032	-20.7410796	0.8021412	2.86479	89.85700314	-4.85295426	-13.01760576
3.74	374	0.173	-0.891	0.019	-19.0795014	-5.0993262	3.151269	89.667927	-4.88733174	-13.06917198
3.75	375	0.184	-0.871	0.013	-16.615782	-12.4904844	3.9534102	89.51322834	-4.8414951	-13.22387064
3.76	376	0.176	-0.858	0.013	-12.3758928	-22.5745452	5.3858052	89.4100959	-4.89306132	-13.44732426
3.77	377	0.155	-0.857	0.007	-8.4797784	-31.9137606	6.2452422	89.35852968	-4.95035712	-13.76818074
3.78	378	0.104	-0.891	-0.002	-7.6776372	-37.7579322	5.5003968	89.31842262	-4.99619376	-14.14060344
3.79	379	0.026	-0.96	-0.031	-11.9175264	-37.9871154	2.9793816	89.23247892	-5.02484166	-14.51875572
3.8	380	-0.054	-1.078	-0.07	-17.18874	-30.939732	-0.4583664	89.07778026	-5.0133825	-14.82815304
3.81	381	-0.111	-1.16	-0.062	-18.3919518	-21.6005166	-2.5210152	88.91162244	-4.9847346	-15.04587708
3.82	382	-0.118	-1.159	-0.054	-14.6677248	-19.5378678	-1.0886202	88.78557168	-4.97327544	-15.2406828
3.83	383	-0.106	-1.08	-0.054	-10.0840608	-25.3247436	2.9793816	88.70535756	-5.00192334	-15.49278432
3.84	384	-0.096	-0.993	-0.06	-9.6256944	-29.4500412	7.5630456	88.6366026	-5.07640788	-15.7849929
3.85	385	-0.109	-0.939	-0.052	-10.7143146	-31.226211	11.1153852	88.5506589	-5.19672906	-16.09439022
3.86	386	-0.137	-0.974	-0.008	-9.6256944	-33.7472262	11.2299768	88.48763352	-5.31132066	-16.42670586
3.87	387	-0.128	-1.056	0.005	-9.453807	-33.3461556	7.9641162	88.43033772	-5.3858052	-16.7590215
3.88	388	-0.074	-1.109	-0.007	-12.032118	-28.2468294	3.7815228	88.33866444	-5.42591226	-17.03977092
3.89	389	-0.032	-1.11	-0.056	-13.5791046	-24.4080108	-0.1145916	88.22407284	-5.42591226	-17.28041328
3.9	390	-0.013	-1.081	-0.069	-13.464513	-21.7151082	-4.583664	88.09802208	-5.3571573	-17.50959648
3.91	391	-0.002	-1.053	-0.09	-12.0894138	-19.0222056	-7.9641162	87.99488964	-5.27694318	-17.7044022
3.92	392	0.006	-1.023	-0.093	-9.9694692	-17.7044022	-9.2819196	87.91467552	-5.1852699	-17.88201918
3.93	393	0.007	-0.989	-0.072	-8.8235532	-16.7303736	-8.59437	87.84019098	-5.10505578	-18.05390658
3.94	394	-0.007	-0.948	-0.049	-8.8235532	-16.1001198	-6.875496	87.77143602	-5.03630082	-18.21433482
3.95	395	-0.041	-0.921	-0.033	-9.8548776	-16.042824	-4.8128472	87.67976274	-4.9847346	-18.38049264
3.96	396	-0.083	-0.916	-0.023	-11.0580894	-15.9855282	-3.2658606	87.58235988	-4.9560867	-18.54092088
3.97	397	-0.108	-0.937	-0.025	-11.5737516	-16.042824	-2.4064236	87.48495702	-4.93316838	-18.7070787
3.98	398	-0.119	-0.964	-0.032	-11.45916	-15.756345	-2.4064236	87.38182458	-4.91597964	-18.86177736
3.99	399	-0.115	-0.99	-0.039	-10.9434978	-14.4958374	-3.2658606	87.28442172	-4.88733174	-19.01074644
4	400	-0.101	-1.014	-0.058	-10.9434978	-11.9748222	-4.870143	87.16983012	-4.8414951	-19.13106762
4.01	401	-0.087	-1.032	-0.082	-11.4018642	-8.7089616	-6.9327918	87.0609681	-4.77846972	-19.2227409
4.02	402	-0.079	-1.034	-0.103	-11.5164558	-4.870143	-9.5111028	86.95210608	-4.68679644	-19.27430712
4.03	403	-0.083	-1.024	-0.11	-11.0007936	-1.5469866	-11.45916	86.84324406	-4.57220484	-19.29722544
4.04	404	-0.093	-0.997	-0.109	-11.2299768	0.6875496	-11.6310474	86.72865246	-4.45761324	-19.29722544
4.05	405	-0.108	-0.966	-0.104	-11.745639	1.7761698	-10.0840608	86.57968338	-4.37739912	-19.2800367
4.06	406	-0.127	-0.935	-0.096	-12.0894138	2.1772404	-7.3911582	86.45363262	-4.30864416	-19.26284796
4.07	407	-0.146	-0.916	-0.097	-12.4904844	2.9220858	-4.4690724	86.32185228	-4.26280752	-19.23992964
4.08	408	-0.154	-0.916	-0.101	-12.4331886	4.1825934	-2.291832	86.19580152	-4.2398892	-19.19982258
4.09	409	-0.155	-0.936	-0.095	-12.1467096	5.8441716	-1.5469866	86.06402118	-4.22270046	-19.14252678
4.1	410	-0.144	-0.969	-0.095	-12.4904844	8.2505952	-1.6615782	85.90932252	-4.2398892	-19.0508535
4.11	411	-0.134	-0.99	-0.093	-12.6623718	11.1153852	-2.2345362	85.7718126	-4.2112413	-18.94199148
4.12	412	-0.124	-0.997	-0.101	-12.5477802	13.464513	-2.9220858	85.63430268	-4.17686382	-18.81021114
4.13	413	-0.119	-0.991	-0.1	-12.2613012	14.896908	-3.5523396	85.49679276	-4.13675676	-18.66697164
4.14	414	-0.117	-0.987	-0.086	-12.891555	16.2720072	-4.2398892	85.35355326	-4.08519054	-18.51227298
4.15	415	-0.121	-0.978	-0.08	-14.5531332	17.8189938	-4.9274388	85.18166586	-4.04508348	-18.334656
4.16	416	-0.135	-0.974	-0.098	-15.6417534	20.2827132	-5.3858052	85.00404888	-3.9820581	-18.13985028
4.17	417	-0.152	-0.978	-0.115	-16.1574156	23.2620948	-5.6149884	84.82070232	-3.91330314	-17.91639666
4.18	418	-0.162	-0.995	-0.122	-16.7303736	26.5852512	-5.3285094	84.63162618	-3.84454818	-17.65856556
4.19	419	-0.16	-1.01	-0.125	-17.0168526	29.507337	-4.3544808	84.43682046	-3.78725238	-17.37208656
4.2	420	-0.148	-1.015	-0.126	-17.2460358	31.1116194	-3.2085648	84.23055558	-3.7528749	-17.06268924
4.21	421	-0.13	-1.008	-0.127	-17.2460358	31.4553942	-2.3491278	84.03002028	-3.70703826	-16.75329192
4.22	422	-0.11	-1.001	-0.127	-17.0741484	31.3408026	-1.718874	83.82948498	-3.6669312	-16.44962418
4.23	423	-0.097	-0.996	-0.123	-17.475219	30.5959572	-1.5469866	83.62894968	-3.62682414	-16.15168602
4.24	424	-0.091	-0.992	-0.121	-18.3919518	30.0229992	-1.8334656	83.4226848	-3.58671708	-15.85947744
4.25	425	-0.089	-0.988	-0.127	-19.3086846	29.9657034	-2.4637194	83.1935016	-3.54088044	-15.56726886
4.26	426	-0.094	-0.986	-0.126	-19.8816426	29.507337	-3.437748	82.97004798	-3.48358464	-15.28078986
4.27	427	-0.101	-0.982	-0.125	-20.3973048	29.507337	-4.583664	82.74086478	-3.4091001	-14.99431086
4.28	428	-0.105	-0.97	-0.122	-20.626488	29.9084076	-5.8441716	82.51168158	-3.3231564	-14.70783186
4.29	429	-0.111	-0.965	-0.112	-20.2827132	30.3094782	-7.0473834	82.28822796	-3.22575354	-14.42135286
4.3	430	-0.111	-0.955	-0.104	-20.5691922	31.9710564	-7.8495246	82.05904476	-3.12835068	-14.11768512
4.31	431	-0.109	-0.967	-0.105	-20.3973048	33.2888598	-8.2505952	81.82986156	-3.01375908	-13.80255822
4.32	432	-0.115	-0.967	-0.119	-21.9442914	34.1482968	-8.1932994	81.58348962	-2.8934379	-13.48170174
4.33	433	-0.132	-0.98	-0.123	-22.631841	34.0337052	-7.734933	81.3313881	-2.7788463	-13.16084526
4.34	434	-0.153	-1.008	-0.144	-24.4080108	34.4347758	-6.9327918	81.06209784	-2.66998428	-12.8342592
4.35	435	-0.172	-1.031	-0.176	-26.356068	35.4661002	-5.6722842	80.76988926	-2.59549974	-12.4904844
4.36	436	-0.188	-1.052	-0.201	-27.5592798	37.1849742	-4.3544808	80.4719511	-2.50382646	-12.13525044
4.37	437	-0.175	-1.037	-0.235	-26.8717302	38.101707	-3.6096354	80.17401294	-2.41788276	-11.76855732
4.38	438	-0.137	-1.037	-0.256	-25.496631	38.3308902	-3.5523396	79.89326352	-2.33193906	-11.4018642
4.39	439	-0.077	-1.019	-0.269	-26.7571386	37.9298196	-3.4950438	79.60678452	-2.24599536	-11.04090066
4.4	440	-0.015	-0.998	-0.287	-28.934379	35.6952834	-3.151269	79.27446888	-2.1485925	-10.70285544
4.41	441	0.041	-0.986	-0.282	-28.4187168	32.8304934	-2.1199446	78.97080114	-2.07983754	-10.38772854
4.42	442	0.078	-0.987	-0.254	-26.6998428	30.3094782	-0.1145916	78.68432214	-2.0340009	-10.09551996
4.43	443	0.106	-1.003	-0.245	-26.6998428	25.1528562	1.718874	78.39784314	-2.01108258	-9.84914802
4.44	444	0.129	-1.013	-0.226	-29.3927454	20.912967	3.0939732	78.08844582	-2.005353	-9.64288314
4.45	445	0.136	-1.012	-0.209	-30.2521824	16.1574156	4.583664	77.77331892	-1.9767051	-9.48818448
4.46	446	0.129	-1.003	-0.218	-30.4240698	11.1153852	6.016059	77.45819202	-2.02254174	-9.37359288
4.47	447	0.112	-1.004	-0.225	-29.2781538	6.4744254	7.161975	77.16025386	-2.07983754	-9.29910834
4.48	448	0.087	-0.995	-0.238	-28.5333084	0.572958	8.7089616	76.86804528	-2.16578124	-9.27619002
4.49	449	0.059	-0.992	-0.243	-26.929026	-5.72958	10.6570188	76.59875502	-2.28610242	-9.3105675
4.5	450	0.034	-0.991	-0.256	-25.6112226	-11.2872726	12.605076	76.33519434	-2.41215318	-9.3965112
4.51	451	0.019	-0.98	-0.265	-24.5226024	-18.1054728	14.037471	76.09455198	-2.58977016	-9.5397507
4.52	452	0.025	-0.959	-0.263	-24.350715	-22.1734746	13.8655836	75.8596392	-2.77311672	-9.72309726
4.53	453	0.049	-0.941	-0.265	-23.7204612	-25.5539268	12.8342592	75.630456	-2.95646328	-9.9408213
4.54	454	0.08	-0.929	-0.273	-22.91832	-29.220858	11.9748222	75.41846154	-3.13980984	-10.1986524
4.55	455	0.096	-0.91	-0.265	-22.1161788	-32.945085	11.1153852	75.20646708	-3.28877892	-10.49659056
4.56	456	0.088	-0.905	-0.259	-22.345362	-37.4141574	10.2559482	75.00593178	-3.47785506	-10.83463578
4.57	457	0.072	-0.908	-0.269	-22.7464326	-41.5967508	9.167328	74.80539648	-3.66120162	-11.21278806
4.58	458	0.047	-0.926	-0.274	-22.631841	-45.4355694	8.1932994	74.61059076	-3.85027776	-11.6310474
4.59	459	0.016	-0.945	-0.278	-22.345362	-49.3316838	6.7036086	74.42151462	-4.03362432	-12.09514338
4.6	460	-0.017	-0.951	-0.278	-22.1734746	-50.6494872	4.870143	74.23243848	-4.19978214	-12.57069852
4.61	461	-0.034	-0.94	-0.282	-20.9702628	-50.0765292	2.8074942	74.06055108	-4.34875122	-13.04625366
4.62	462	-0.038	-0.928	-0.29	-19.3659804	-48.4722468	0.6875496	73.90585242	-4.47480198	-13.51034964
4.63	463	-0.033	-0.914	-0.301	-17.9908812	-46.696077	-1.145916	73.76261292	-4.583664	-13.96298646
4.64	464	-0.02	-0.908	-0.308	-16.1574156	-45.4355694	-2.4637194	73.64229174	-4.67533728	-14.4098937
4.65	465	-0.012	-0.911	-0.291	-14.0947668	-44.1750618	-3.3231564	73.53342972	-4.74409224	-14.85107136
4.66	466	-0.009	-0.927	-0.279	-13.2353298	-43.9458786	-3.7815228	73.44175644	-4.81857678	-15.28078986
4.67	467	-0.003	-0.935	-0.28	-12.5477802	-44.5188366	-4.010706	73.35581274	-4.89306132	-15.72196752
4.68	468	0	-0.944	-0.279	-11.6883432	-46.2377106	-4.1825934	73.28705778	-4.97327544	-16.18033392
4.69	469	0.003	-0.949	-0.274	-11.8602306	-47.9565846	-4.8128472	73.21257324	-5.05348956	-16.65015948
4.7	470	0.007	-0.955	-0.277	-11.5164558	-49.847346	-5.5576926	73.14381828	-5.11078536	-17.15436252
4.71	471	0.007	-0.964	-0.272	-10.7716104	-51.7954032	-6.4744254	73.08652248	-5.1852699	-17.67002472
4.72	472	0.004	-0.973	-0.27	-10.0840608	-53.6288688	-7.6203414	73.04068584	-5.25402486	-18.20287566
4.73	473	-0.001	-0.983	-0.266	-9.3965112	-55.0612638	-8.59437	73.00057878	-5.31705024	-18.75864492
4.74	474	-0.011	-0.996	-0.26	-9.1100322	-56.5509546	-9.2819196	72.97193088	-5.38007562	-19.32587334
4.75	475	-0.021	-1.004	-0.257	-9.2246238	-58.441716	-9.740286	72.94328298	-5.43164184	-19.92174966
4.76	476	-0.028	-0.999	-0.267	-9.453807	-59.5303362	-9.7975818	72.91463508	-5.49466722	-20.51762598
4.77	477	-0.029	-0.988	-0.266	-9.3392154	-60.733548	-9.7975818	72.88598718	-5.56342218	-21.13069104
4.78	478	-0.028	-0.98	-0.26	-9.3392154	-61.5356892	-9.8548776	72.85733928	-5.63217714	-21.74948568
4.79	479	-0.031	-0.972	-0.261	-10.0840608	-62.7961968	-9.5111028	72.8229618	-5.71239126	-22.37973948
4.8	480	-0.046	-0.966	-0.245	-10.9434978	-63.9421128	-9.0527364	72.78858432	-5.7868758	-23.02145244
4.81	481	-0.049	-0.973	-0.249	-11.6883432	-64.2285918	-8.7089616	72.74274768	-5.87854908	-23.6631654
4.82	482	-0.054	-0.979	-0.259	-12.5477802	-64.744254	-8.4797784	72.69118146	-5.97022236	-24.31060794
4.83	483	-0.057	-0.985	-0.26	-13.6936962	-65.9474658	-8.4797784	72.62815608	-6.06762522	-24.96378006
4.84	484	-0.054	-0.989	-0.257	-13.9228794	-66.8641986	-8.4797784	72.57086028	-6.17075766	-25.63414092
4.85	485	-0.06	-0.985	-0.255	-14.4385416	-67.895523	-8.4797784	72.5078349	-6.26816052	-26.31023136
4.86	486	-0.067	-0.975	-0.255	-15.1260912	-69.0987348	-8.59437	72.43907994	-6.37702254	-26.99778096
4.87	487	-0.08	-0.963	-0.253	-15.8709366	-69.614397	-8.7089616	72.3645954	-6.48588456	-27.69106014
4.88	488	-0.086	-0.949	-0.253	-16.5584862	-69.6716928	-8.6516658	72.28438128	-6.59474658	-28.38433932
4.89	489	-0.097	-0.935	-0.244	-16.7303736	-69.614397	-8.5370742	72.20416716	-6.7036086	-29.0776185
4.9	490	-0.097	-0.93	-0.26	-17.3606274	-69.041439	-8.0787078	72.11822346	-6.8182002	-29.7651681
4.91	491	-0.092	-0.93	-0.256	-17.8762896	-68.182002	-7.0473834	72.02655018	-6.94425096	-30.44125854
4.92	492	-0.085	-0.935	-0.262	-18.7930224	-67.7809314	-6.302538	71.92341774	-7.0760313	-31.1116194
4.93	493	-0.075	-0.939	-0.28	-19.0222056	-68.182002	-5.5576926	71.82601488	-7.2192708	-31.78198026
4.94	494	-0.072	-0.944	-0.28	-18.7357266	-68.9841432	-5.0420304	71.72861202	-7.36823988	-32.4580707
4.95	495	-0.076	-0.944	-0.279	-18.5638392	-69.327918	-5.2139178	71.63693874	-7.51147938	-33.13989072
4.96	496	-0.083	-0.941	-0.282	-18.1627686	-69.2133264	-5.72958	71.55099504	-7.65471888	-33.81598116
4.97	497	-0.085	-0.936	-0.285	-16.8449652	-68.5830726	-6.1879464	71.48224008	-7.79795838	-34.4920716
4.98	498	-0.086	-0.938	-0.283	-16.2147114	-67.609044	-5.9587632	71.41348512	-7.9354683	-35.16243246
4.99	499	-0.071	-0.932	-0.306	-15.2406828	-67.6663398	-4.3544808	71.3619189	-8.09016696	-35.82133416
5	500	-0.068	-0.929	-0.3	-14.7250206	-69.3852138	-2.9220858	71.31608226	-8.25632478	-36.4974246
5.01	501	-0.062	-0.924	-0.291	-15.2406828	-70.760313	-2.1199446	71.27024562	-8.44540092	-37.1849742
5.02	502	-0.061	-0.924	-0.291	-15.6417534	-72.6510744	-2.0626488	71.22440898	-8.63447706	-37.88398296
5.03	503	-0.069	-0.933	-0.278	-16.615782	-74.198061	-2.8074942	71.17284276	-8.82928278	-38.60591004
5.04	504	-0.081	-0.952	-0.28	-17.9908812	-75.5158644	-3.6669312	71.11554696	-9.01835892	-39.33929628
5.05	505	-0.084	-0.962	-0.313	-18.2773602	-76.8336678	-4.1252976	71.05825116	-9.1959759	-40.08987126
5.06	506	-0.078	-0.954	-0.32	-16.2720072	-78.5525418	-4.3544808	71.02387368	-9.39078162	-40.85763498
5.07	507	-0.058	-0.939	-0.317	-14.2666542	-80.5578948	-4.1252976	71.0181441	-9.59131692	-41.64258744
5.08	508	-0.04	-0.918	-0.306	-12.3758928	-82.2767688	-3.3804522	71.04106242	-9.80331138	-42.44472864
5.09	509	-0.026	-0.893	-0.289	-11.6883432	-84.1102344	-2.9220858	71.0754399	-10.02103542	-43.258329
5.1	510	-0.016	-0.875	-0.273	-11.1153852	-86.1728832	-3.0939732	71.12127654	-10.2273003	-44.10057726
5.11	511	-0.024	-0.873	-0.25	-11.2299768	-88.0063488	-3.3231564	71.16711318	-10.4564835	-44.96001426
5.12	512	-0.034	-0.885	-0.243	-11.8029348	-89.5533354	-3.2658606	71.22440898	-10.6856667	-45.83091042
5.13	513	-0.037	-0.901	-0.244	-12.4331886	-91.2722094	-2.6356068	71.2759752	-10.93203864	-46.71899532
5.14	514	-0.033	-0.915	-0.252	-12.891555	-93.2775624	-2.1199446	71.32754142	-11.18414016	-47.62426896
5.15	515	-0.014	-0.924	-0.249	-12.6623718	-96.6580146	-1.718874	71.39629638	-11.42478252	-48.56964966
5.16	516	0.001	-0.919	-0.246	-12.9488508	-99.5801004	-1.5469866	71.4765105	-11.69980236	-49.53794868
5.17	517	0.011	-0.903	-0.251	-13.2926256	-102.9605526	-1.718874	71.55672462	-11.98055178	-50.54062518
5.18	518	0.002	-0.892	-0.248	-12.891555	-106.570188	-1.8334656	71.65985706	-12.26703078	-51.57767916
5.19	519	-0.016	-0.893	-0.251	-12.3758928	-109.721457	-1.3750992	71.78017824	-12.57069852	-52.64911062
5.2	520	-0.042	-0.891	-0.251	-11.5737516	-112.299768	-0.3437748	71.91768816	-12.8629071	-53.7434604
5.21	521	-0.071	-0.88	-0.255	-10.6570188	-114.4770084	1.0313244	72.07238682	-13.19522274	-54.85499892
5.22	522	-0.08	-0.87	-0.253	-10.2559482	-116.1958824	2.5210152	72.24427422	-13.54472712	-55.98372618
5.23	523	-0.082	-0.857	-0.244	-12.2613012	-117.9147564	4.1825934	72.41043204	-13.90569066	-57.1239126
5.24	524	-0.078	-0.85	-0.245	-13.9801752	-118.7741934	5.0993262	72.55940112	-14.27811336	-58.27555818
5.25	525	-0.079	-0.852	-0.256	-14.7823164	-119.5763346	5.5003968	72.71409978	-14.6390769	-59.43866292
5.26	526	-0.076	-0.854	-0.27	-14.3812458	-120.32118	5.3858052	72.8802576	-15.0114996	-60.60749724
5.27	527	-0.063	-0.851	-0.279	-12.605076	-121.5243918	5.2139178	73.0807929	-15.3839223	-61.7935203
5.28	528	-0.043	-0.848	-0.289	-11.0007936	-123.3578574	5.443101	73.3099761	-15.756345	-63.00246168
5.29	529	-0.023	-0.835	-0.299	-8.7089616	-126.623718	6.1879464	73.57926636	-16.14022686	-64.24005096
5.3	530	-0.009	-0.802	-0.285	-6.5317212	-130.0041702	6.9327918	73.87720452	-16.50691998	-65.52347688
5.31	531	-0.008	-0.772	-0.235	-3.6096354	-132.2387064	7.2765666	74.23243848	-16.902261	-66.82409154
5.32	532	-0.026	-0.761	-0.187	-4.870143	-132.639777	7.161975	74.58767244	-17.29187244	-68.13616536
5.33	533	-0.06	-0.781	-0.182	-7.2765666	-132.8116644	6.4744254	74.93144724	-17.66429514	-69.45969834
5.34	534	-0.099	-0.821	-0.171	-11.2872726	-131.7230442	5.7868758	75.23511498	-18.0195291	-70.77177216
5.35	535	-0.129	-0.863	-0.181	-15.756345	-128.9728458	5.5003968	75.49867566	-18.34611516	-72.07238682
5.36	536	-0.149	-0.893	-0.205	-19.767051	-125.3632104	4.870143	75.7163997	-18.67270122	-73.33289442
5.37	537	-0.164	-0.92	-0.231	-22.5745452	-122.3838288	4.297185	75.89974626	-18.98209854	-74.57621328
5.38	538	-0.175	-0.932	-0.241	-24.1215318	-121.0660254	3.7815228	76.07736324	-19.27430712	-75.8023434
5.39	539	-0.172	-0.914	-0.243	-26.1841806	-121.0660254	3.6669312	76.23779148	-19.5665157	-77.03993268
5.4	540	-0.161	-0.894	-0.235	-27.7311672	-122.2692372	3.7815228	76.38676056	-19.84726512	-78.28898112
5.41	541	-0.146	-0.885	-0.225	-30.0229992	-123.7016322	3.437748	76.53000006	-20.1394737	-79.5552183
5.42	542	-0.138	-0.876	-0.25	-33.9191136	-124.7329566	2.3491278	76.65032124	-20.41449354	-80.83864422
5.43	543	-0.156	-0.86	-0.287	-37.0130868	-123.7016322	0.286479	76.73626494	-20.67232464	-82.12207014
5.44	544	-0.18	-0.85	-0.306	-37.815228	-119.9201094	-2.291832	76.81647906	-20.89004868	-83.37111858
5.45	545	-0.202	-0.847	-0.287	-38.388186	-113.5029798	-4.297185	76.85658612	-21.06766566	-84.56287122
5.46	546	-0.211	-0.841	-0.281	-40.9092012	-108.575541	-5.9587632	76.86804528	-21.2280939	-85.70878722
5.47	547	-0.215	-0.829	-0.305	-43.9458786	-103.705398	-7.3338624	76.8336678	-21.36560382	-86.80886658
5.48	548	-0.223	-0.817	-0.31	-45.7220484	-101.413566	-8.7662574	76.776372	-21.49165458	-87.8917572
5.49	549	-0.223	-0.811	-0.305	-47.3263308	-99.2936214	-9.5683986	76.70188746	-21.6005166	-88.9517295
5.5	550	-0.215	-0.792	-0.307	-48.128472	-96.3142398	-9.6829902	76.59302544	-21.69791946	-89.9830539
5.51	551	-0.202	-0.775	-0.318	-49.6754586	-92.9337876	-9.6829902	76.46697468	-21.79532232	-90.98000082
5.52	552	-0.182	-0.761	-0.341	-50.4775998	-89.381448	-10.1413566	76.32373518	-21.8869956	-91.94257026
5.53	553	-0.154	-0.752	-0.352	-48.4722468	-87.376095	-11.3445684	76.19768442	-21.96148014	-92.88795096
5.54	554	-0.133	-0.735	-0.363	-44.690724	-86.6885454	-12.4331886	76.10601114	-22.0302351	-93.82760208
5.55	555	-0.089	-0.694	-0.35	-40.680018	-87.089616	-13.464513	76.03725618	-22.07034216	-94.77298278
5.56	556	-0.066	-0.644	-0.336	-35.9817624	-88.0063488	-15.183387	76.04298576	-22.1161788	-95.72982264
5.57	557	-0.062	-0.604	-0.316	-27.1009134	-90.0117018	-17.475219	76.15184778	-22.13909712	-96.7153104
5.58	558	-0.041	-0.587	-0.297	-21.6578124	-91.0430262	-18.2200644	76.3180056	-22.15628586	-97.7179869
5.59	559	-0.023	-0.575	-0.307	-18.4492476	-92.819196	-17.7044022	76.52427048	-22.1734746	-98.73212256
5.6	560	0.009	-0.58	-0.297	-14.2093584	-97.1736768	-17.5898106	76.77064242	-22.17920418	-99.79209486
5.61	561	0.056	-0.599	-0.281	-12.1467096	-104.7367224	-18.334656	77.09722848	-22.20785208	-100.9322813
5.62	562	0.078	-0.631	-0.28	-11.2299768	-115.2218538	-20.2254174	77.46965118	-22.2307704	-102.1870593
5.63	563	0.101	-0.62	-0.261	-8.7662574	-130.5771282	-22.058883	77.93374716	-22.2594183	-103.6079951
5.64	564	0.147	-0.575	-0.169	-2.9220858	-136.936962	-22.1734746	78.48951642	-22.28233662	-105.0976859
5.65	565	0.212	-0.539	-0.003	3.3231564	-138.8850192	-20.8556712	79.1254998	-22.28233662	-106.6045655
5.66	566	0.223	-0.517	0.16	2.9793816	-144.5573034	-18.621135	79.76721276	-22.32244368	-108.1630112
5.67	567	0.163	-0.524	0.261	1.145916	-146.6199522	-17.8762896	80.39746656	-22.35682116	-109.7501049
5.68	568	0.104	-0.507	0.195	-3.724227	-141.1768512	-16.329303	80.9589654	-22.37973948	-111.2741732
5.69	569	0.089	-0.542	0.167	-0.6302538	-144.7291908	-13.0061466	81.56630088	-22.4313057	-112.8268894
5.7	570	0.064	-0.634	0.069	3.8961144	-150.2868834	-12.2040054	82.25385048	-22.4599536	-114.4426309
5.71	571	0.064	-0.59	0.046	12.1467096	-151.7765742	-11.172681	83.0216142	-22.50006066	-116.0755612
5.72	572	-0.004	-0.495	0.092	24.4653066	-152.4641238	-10.026765	83.91542868	-22.52870856	-117.7084915
5.73	573	-0.105	-0.411	0.098	29.3927454	-146.6199522	-11.4018642	84.83789106	-22.51151982	-119.284126
5.74	574	-0.249	-0.385	0.174	31.6272816	-135.6764544	-14.32395	85.73170554	-22.44276486	-120.7394393
5.75	575	-0.325	-0.391	0.179	33.3461556	-116.9980236	-14.8396122	86.57968338	-22.35109158	-121.9999469
5.76	576	-0.327	-0.411	0.123	40.5654264	-99.3509172	-14.32395	87.41047248	-22.22504082	-123.0599192
5.77	577	-0.354	-0.439	0.073	46.5241896	-86.2874748	-11.8602306	88.24126158	-22.1161788	-123.9823816
5.78	578	-0.347	-0.433	0.028	52.712136	-75.5158644	-5.9587632	89.08350984	-22.04742384	-124.7845228
5.79	579	-0.307	-0.42	-0.013	60.6762522	-65.7182826	6.1879464	89.97159474	-22.09326048	-125.477802
5.8	580	-0.296	-0.367	-0.048	67.036086	-61.6502808	17.4179232	90.89405712	-22.25368872	-126.1309741
5.81	581	-0.376	-0.297	-0.124	72.8229618	-59.0719698	28.1895336	91.88527446	-22.49433108	-126.7612279
5.82	582	-0.41	-0.249	-0.203	80.9016696	-56.9520252	38.9038482	92.95097634	-22.83810588	-127.374293
5.83	583	-0.191	-0.176	-0.243	94.4807742	-53.3996856	48.3576552	94.14845856	-23.2620948	-127.9701693
5.84	584	-0.137	-0.109	-0.217	111.6122184	-45.3782736	53.1132066	95.49490986	-23.73192036	-128.4915611
5.85	585	-0.192	-0.026	-0.17	123.9308154	-40.680018	52.7694318	96.93876402	-24.2074755	-128.9728458
5.86	586	-0.372	0.03	-0.152	134.3013552	-34.8358464	53.285094	98.48575062	-24.6658419	-129.4082939
5.87	587	-0.491	0.026	-0.093	141.1195554	-23.491278	55.6915176	100.0613851	-25.15858578	-129.7406095
5.88	588	-0.528	0.021	0.017	146.7918396	-12.4904844	57.9833496	101.6542084	-25.69143672	-129.9755223
5.89	589	-0.493	0.024	0.139	148.1669388	-2.4064236	60.9054354	103.2241133	-26.2701243	-130.1244914
5.9	590	-0.333	0.048	0.126	143.9270496	9.740286	67.1506776	104.7195337	-26.95194432	-130.1875168
5.91	591	-0.131	0.069	-0.061	141.1768512	10.0840608	77.4066258	106.1977653	-27.71970804	-130.2906492
5.92	592	-0.091	0.031	-0.151	138.3120612	-0.286479	100.3249458	107.7562111	-28.65935916	-130.6057761
5.93	593	-0.183	-0.021	0.081	139.801752	-24.5226024	136.7650746	109.54384	-29.85684138	-131.3506215
5.94	594	-0.397	-0.311	0.314	152.0630532	-57.9260538	166.6161864	111.7439987	-31.18037436	-132.6225883
5.95	595	-0.749	-0.672	0.557	164.8400166	-103.6481022	175.611627	114.4311718	-32.34920868	-134.5018905
5.96	596	-0.902	-0.985	1.01	187.1280828	-136.5931872	163.2357342	117.565252	-33.17999778	-136.7421563
5.97	597	-0.665	-0.969	1.396	209.5307406	-165.5275662	142.0362882	121.0774846	-33.56387964	-139.2173348
5.98	598	-0.469	-0.915	1.592	245.4552072	-195.8943402	125.9361684	125.0881906	-33.50658384	-141.9102374
5.99	599	-1.133	-1.378	2.034	294.500412	-208.0410498	90.2981808	129.4827784	-32.93362584	-144.4197935
6	600	-1.959	-2.515	2.312	270.149697	-122.326533	4.1252976	132.8002052	-32.14867338	-145.462577
6.01	601	-2.557	0.023	3.547	667.49607	-370.3027554	109.6068654	141.520626	-30.1662387	-149.1180491
6.02	602	-2.963	0.597	3.721	466.6169952	-391.043835	280.5202368	148.7570855	-28.5333084	-154.1199724
6.03	603	-2.651	0.192	3.097	370.5892344	-138.082878	280.9786032	154.1887274	-28.6765479	-157.5691796
6.04	604	-1.573	-0.089	3.149	325.726623	-37.9298196	157.2196752	158.3426729	-28.98021564	-159.3224311
6.05	605	-0.469	-0.963	2.501	267.7432734	-39.247623	102.6167778	161.6486405	-28.97448606	-160.5199133
6.06	606	-1.112	-1.753	2.756	223.3390284	-83.2507974	117.8574606	164.6509405	-28.5333084	-162.0153337
6.07	607	-1.608	0.222	2.419	200.7071874	-150.0004044	126.7383096	167.5157305	-27.40458114	-163.7284781
6.08	608	-0.329	1.553	2.258	196.4672982	-177.5023884	81.3027402	170.0711231	-25.84613538	-164.9202307
6.09	609	-0.457	0.428	1.942	158.422887	-165.871341	64.4004792	172.0879353	-24.33352626	-165.8312339
6.1	610	-0.756	0.261	1.715	118.2585312	-183.5757432	20.1108258	173.4744937	-22.56308604	-166.2323045
6.11	611	-0.6	-0.006	1.442	84.3967134	-156.3602382	-0.0572958	174.396956	-21.03328818	-166.3526257
6.12	612	-0.691	-0.425	1.599	103.0178484	-135.1034964	-0.2291832	175.4913058	-19.7097552	-166.4271103
6.13	613	-0.674	-0.579	1.928	146.5626564	-110.4663024	1.8334656	177.0096445	-18.63832374	-166.4786765
6.14	614	-0.519	0.051	1.752	184.3205886	-97.4601558	-0.7448454	178.8889468	-17.69294304	-166.4614877
6.15	615	-0.252	0.381	1.654	158.1937038	-89.4960396	-3.5523396	-179.5020118	-16.82204688	-166.3870032
6.16	616	-0.319	0.177	1.467	122.1546456	-84.8550798	-9.1100322	-178.2930704	-16.00271694	-166.2437637
6.17	617	-0.211	0.253	1.248	92.4754212	-72.9948492	0.1718874	-177.3591489	-15.29224902	-166.1864679
6.18	618	0.025	-0.528	1.157	85.5426294	-67.036086	12.1467096	-176.4653344	-14.63334732	-166.2494933
6.19	619	0.172	-0.579	1.262	50.5921914	-72.8229618	7.6203414	-175.9439426	-13.91714982	-166.2552229
6.2	620	-0.262	0.181	0.861	16.329303	-95.2829154	-1.8907614	-175.8178919	-12.9774987	-166.1349017
6.21	621	-0.017	-1.199	1.159	-12.8342592	-105.2523846	-31.2835068	-176.0241568	-11.96336304	-165.7166423
6.22	622	-0.111	-0.643	1.025	-38.2735944	-120.7222506	-74.8283148	-176.5684669	-10.82317662	-164.8457462
6.23	623	-0.148	-0.347	0.943	-19.5378678	-115.2791496	-108.1744704	-176.9695375	-9.74601558	-163.6597231
6.24	624	-0.203	0.088	0.73	-15.9282324	-94.3661826	-81.360036	-177.261746	-8.85793068	-162.7716382
6.25	625	-0.3	0.568	0.862	-33.1742682	-85.8291084	-63.0826758	-177.6570871	-8.04433032	-162.078359
6.26	626	-0.18	0.048	0.842	-30.3094782	-72.192708	-44.5761324	-178.0180506	-7.34532156	-161.5913447
6.27	627	-0.197	0.23	0.804	-50.5348956	-58.6708992	-41.7113424	-178.5795494	-6.77236356	-161.1387079
6.28	628	-0.388	0.966	0.467	-14.32395	-37.9298196	-34.6066632	-178.762896	-6.40567044	-160.7777444
6.29	629	-0.302	0.927	0.795	-3.0939732	-20.6837838	-32.7159018	-178.831651	-6.21086472	-160.4396992
6.3	630	-0.072	0.071	0.765	-11.8602306	-5.6722842	-18.7357266	-179.0035384	-6.14783934	-160.250623
6.31	631	-0.129	0.162	0.869	-16.2720072	1.718874	-8.1360036	-179.1754258	-6.16502808	-160.1761385
6.32	632	-0.161	0.348	0.952	-27.8457588	7.9641162	-8.9954406	-179.4733639	-6.23951262	-160.0901948
6.33	633	-0.066	0.092	0.959	-23.6631654	15.1260912	-5.8441716	-179.7197359	-6.3884817	-160.0386286
6.34	634	-0.125	0.272	1.009	-24.4653066	22.7464326	-7.448454	-179.977567	-6.61193532	-159.9698736
6.35	635	-0.13	0.227	1.044	-24.2934192	31.4553942	-6.589017	179.8056796	-6.92133264	-159.9125778
6.36	636	-0.141	0.227	1.053	-21.2567418	36.8984952	-6.6463128	179.5764964	-7.28229618	-159.855282
6.37	637	-0.124	0.264	1.074	-20.5691922	41.0810886	-6.016059	179.3530427	-7.68336678	-159.8037158
6.38	638	-0.158	0.34	1.091	-20.9702628	44.8053156	-4.7555514	179.1295891	-8.12454444	-159.7636087
6.39	639	-0.187	0.252	1.114	-19.3659804	45.83664	-3.6669312	178.9233242	-8.57718126	-159.7349608
6.4	640	-0.138	0.11	1.182	-18.4492476	48.2430636	-2.2345362	178.7342481	-9.0527364	-159.7177721
6.41	641	-0.103	-0.011	1.245	-19.194093	50.8786704	-1.5469866	178.5337128	-9.55120986	-159.7063129
6.42	642	-0.163	0.055	1.207	-21.199446	51.2224452	-3.151269	178.3045296	-10.0554129	-159.6719354
6.43	643	-0.205	-0.115	1.003	-31.5699858	43.258329	-4.4690724	177.9664844	-10.47940182	-159.6318284
6.44	644	-0.186	-0.019	0.941	-36.955791	21.8869956	-3.437748	177.5826025	-10.69139628	-159.5974509
6.45	645	-0.173	-0.08	0.934	-35.236917	13.750992	-0.9167328	177.221639	-10.81744704	-159.5859917
6.46	646	-0.14	-0.026	1.049	-24.350715	21.3713334	-2.578311	176.9638079	-11.0294415	-159.5573438
6.47	647	-0.251	0.059	1.175	-8.3651868	35.236917	-4.7555514	176.866405	-11.3732163	-159.500048
6.48	648	-0.25	-0.027	1.19	3.0366774	49.1597964	-4.5263682	176.8778642	-11.85450102	-159.4370227
6.49	649	-0.24	-0.081	1.211	12.891555	59.587632	-4.8128472	176.9867262	-12.44464776	-159.3739973
6.5	650	-0.225	-0.088	1.193	19.8816426	66.8641986	-5.0993262	177.1586136	-13.10354946	-159.3052423
6.51	651	-0.35	0.003	1.187	27.2728008	76.0888224	-8.7089616	177.399256	-13.85412444	-159.1963803
6.52	652	-0.265	-0.034	1.16	32.3148312	78.3806544	-10.0840608	177.6914645	-14.62761774	-159.0760591
6.53	653	-0.275	0.053	1.14	29.3927454	69.900876	-10.599723	177.9492956	-15.32089692	-158.9614675
6.54	654	-0.198	-0.134	0.949	27.9603504	62.0513514	-8.5370742	178.1956676	-15.93396198	-158.8640647
6.55	655	-0.277	-0.007	0.929	28.6479	45.263682	-5.3285094	178.4821466	-16.39232838	-158.8067689
6.56	656	-0.351	-0.023	0.939	25.6112226	45.4355694	-6.589017	178.7113298	-16.83923562	-158.7380139
6.57	657	-0.274	0.02	0.865	24.6944898	40.4508348	-7.161975	178.9347834	-17.24030622	-158.6692589
6.58	658	-0.314	0.016	0.914	8.3651868	25.0382646	-26.0122932	178.940513	-17.48667816	-158.3999687
6.59	659	-0.175	-0.024	0.819	-5.9587632	11.9175264	-24.0069402	178.8030031	-17.60126976	-158.1478672
6.6	660	-0.246	-0.047	0.831	-19.9962342	-7.3338624	-28.5333084	178.5165241	-17.52678522	-157.8556586
6.61	661	-0.252	0.02	0.808	-27.5592798	-21.1421502	-17.8762896	178.1842084	-17.30906118	-157.672312
6.62	662	-0.093	0.029	0.736	-36.096354	-41.6540466	-13.464513	177.7831378	-16.89080184	-157.5405317
6.63	663	-0.203	-0.066	0.661	-51.4516284	-60.2178858	-14.7823164	177.2273686	-16.28346636	-157.3972922
6.64	664	-0.273	0.013	0.735	-47.0398518	-69.7289886	-15.2979786	176.7231655	-15.57872802	-157.2655118
6.65	665	-0.163	-0.118	0.868	-39.1330314	-74.2553568	-14.32395	176.293447	-14.82242346	-157.1394611
6.66	666	-0.397	-0.119	0.928	-41.6540466	-67.7236356	-16.042824	175.8465398	-14.13487386	-157.0076807
6.67	667	-0.426	-0.059	0.885	-27.3300966	-37.8725238	-8.6516658	175.5543312	-13.750992	-156.9446554
6.68	668	-0.486	-0.047	0.794	-13.5218088	-24.064236	-3.8961144	175.4168213	-13.51034964	-156.9160075
6.69	669	-0.399	-0.061	0.74	-1.3750992	-10.6570188	-0.7448454	175.4053621	-13.4072172	-156.9160075
6.7	670	-0.286	-0.072	0.811	2.4637194	-8.3651868	0.1145916	175.4454692	-13.3499214	-156.9274666
6.71	671	-0.246	-0.076	0.885	2.86479	-1.8334656	0.1718874	175.4741171	-13.32700308	-156.9274666
6.72	672	-0.225	-0.066	0.922	3.151269	1.8907614	0.4583664	175.5084946	-13.3499214	-156.9331962
6.73	673	-0.237	-0.058	0.96	2.9793816	0.5156622	0.572958	175.5371425	-13.35565098	-156.9389258
6.74	674	-0.238	-0.058	0.986	2.5210152	-2.86479	0.6875496	175.5657904	-13.32700308	-156.9446554
6.75	675	-0.232	-0.089	0.998	1.145916	-6.302538	0.6875496	175.5371425	-13.27543686	-156.9561145
6.76	676	-0.235	-0.073	1.006	0.6875496	-8.0787078	0.9167328	175.5486016	-13.19522274	-156.9675737
6.77	677	-0.243	-0.058	1.014	0.3437748	-9.5111028	0.9167328	175.5600608	-13.10354946	-156.9847624
6.78	678	-0.247	-0.058	1.025	-1.2605076	-10.599723	0.6875496	175.5486016	-13.00041702	-156.9962216
6.79	679	-0.254	-0.055	1.031	-2.9793816	-11.8029348	0.4583664	175.5256833	-12.88009584	-157.0076807
6.8	680	-0.239	-0.057	1.023	-5.72958	-13.2926256	0.2291832	175.4798467	-12.75404508	-157.0191399
6.81	681	-0.238	-0.055	1.006	-8.9381448	-14.8396122	-0.1718874	175.393903	-12.605076	-157.0248695
6.82	682	-0.225	-0.06	0.986	-11.9175264	-16.042824	-0.4010706	175.2735818	-12.44464776	-157.0305991
6.83	683	-0.233	-0.06	0.987	-13.4072172	-17.8189938	-0.4010706	175.1418014	-12.26703078	-157.0363286
6.84	684	-0.225	-0.065	0.992	-13.2353298	-18.7357266	-0.286479	175.0100211	-12.07795464	-157.0477878
6.85	685	-0.218	-0.065	1.002	-11.9748222	-19.480572	-0.1145916	174.9011591	-11.8888785	-157.059247
6.86	686	-0.217	-0.068	1.011	-10.1413566	-19.0795014	-0.0572958	174.8037562	-11.69980236	-157.0707061
6.87	687	-0.216	-0.069	1.013	-8.021412	-18.5065434	0.0572958	174.7235421	-11.5164558	-157.0821653
6.88	688	-0.213	-0.07	1.014	-5.6722842	-18.1054728	0.286479	174.6719759	-11.33310924	-157.099354
6.89	689	-0.213	-0.065	1.025	-3.5523396	-18.048177	0.4583664	174.643328	-11.15549226	-157.1165428
6.9	690	-0.198	-0.063	1.032	-1.5469866	-16.5584862	0.5156622	174.6490576	-10.98933444	-157.1337315
6.91	691	-0.189	-0.06	1.001	-1.6615782	-13.0634424	0.4583664	174.6375984	-10.86328368	-157.1451907
6.92	692	-0.184	-0.06	0.972	-2.6929026	-10.599723	0.3437748	174.6146801	-10.75442166	-157.1566498
6.93	693	-0.177	-0.059	0.956	-3.2085648	-9.0527364	0.2291832	174.5860322	-10.66847796	-157.168109
6.94	694	-0.181	-0.061	0.956	-3.2085648	-7.8495246	0.1718874	174.5516547	-10.58826384	-157.1738386
6.95	695	-0.186	-0.068	0.965	-2.8074942	-6.7609044	0.286479	174.5516547	-10.53096804	-157.1852977
6.96	696	-0.188	-0.068	0.98	-1.6615782	-6.0733548	0.3437748	174.5401955	-10.46794266	-157.1910273
6.97	697	-0.187	-0.07	1.001	-0.286479	-5.3858052	0.5156622	174.5401955	-10.41637644	-157.2024865
6.98	698	-0.192	-0.068	1.013	0.8021412	-4.9847346	0.572958	174.5459251	-10.36481022	-157.208216
6.99	699	-0.192	-0.066	1.027	1.8334656	-5.156622	0.572958	174.5688434	-10.31897358	-157.2196752
7	700	-0.193	-0.069	1.031	2.291832	-5.3858052	0.4583664	174.6204097	-10.27313694	-157.2311344
7.01	701	-0.192	-0.07	1.031	2.8074942	-5.3285094	0.4583664	174.6490576	-10.21584114	-157.2368639
7.02	702	-0.191	-0.071	1.029	3.3804522	-4.8128472	0.3437748	174.6891646	-10.1700045	-157.2425935
7.03	703	-0.19	-0.071	1.026	3.7815228	-4.010706	0.286479	174.7292717	-10.12989744	-157.2483231
7.04	704	-0.188	-0.07	1.025	4.1825934	-3.151269	0.3437748	174.7693787	-10.10124954	-157.2540527
7.05	705	-0.186	-0.07	1.02	4.4117766	-2.2345362	0.2291832	174.8438633	-10.0840608	-157.2597823
7.06	706	-0.186	-0.069	1.017	4.583664	-1.3178034	0.286479	174.8896999	-10.07260164	-157.2655118
7.07	707	-0.187	-0.069	1.014	4.297185	-0.2291832	0.286479	174.9355366	-10.07260164	-157.2655118
7.08	708	-0.187	-0.068	1.013	3.8388186	0.4010706	0.1718874	174.969914	-10.07260164	-157.2655118
7.09	709	-0.186	-0.07	1.01	3.4950438	0.8021412	0.2291832	175.0100211	-10.0840608	-157.2712414
7.1	710	-0.186	-0.068	1.005	3.0366774	1.145916	0.1718874	175.0673169	-10.11843828	-157.2712414
7.11	711	-0.186	-0.067	0.996	2.5210152	1.718874	0.1718874	175.0902352	-10.13562702	-157.276971
7.12	712	-0.187	-0.069	0.987	1.8334656	2.1199446	0.1145916	175.107424	-10.15281576	-157.276971
7.13	713	-0.187	-0.067	0.98	1.3178034	2.4064236	0.0572958	175.1246127	-10.18146366	-157.2712414
7.14	714	-0.187	-0.067	0.975	0.9167328	2.5210152	0.0572958	175.1303423	-10.20438198	-157.2712414
7.15	715	-0.189	-0.067	0.975	0.6302538	2.5210152	0.0572958	175.1647198	-10.27886652	-157.2827006
7.16	716	-0.19	-0.066	0.976	0.286479	2.2345362	0	175.1647198	-10.30178484	-157.2827006
7.17	717	-0.191	-0.066	0.979	0.1718874	1.9480572	0	175.1704493	-10.31897358	-157.276971
7.18	718	-0.191	-0.066	0.982	-0.0572958	1.718874	0	175.1647198	-10.33616232	-157.276971
7.19	719	-0.192	-0.065	0.986	-0.2291832	1.432395	0	175.1647198	-10.35335106	-157.276971
7.2	720	-0.194	-0.065	0.99	-0.3437748	1.2032118	-0.0572958	175.2220156	-10.45075392	-157.2941597
7.21	721	-0.194	-0.065	0.993	-0.5156622	0.9740286	-0.0572958	175.216286	-10.46221308	-157.2884302
7.22	722	-0.195	-0.066	0.994	-0.572958	0.7448454	-0.0572958	175.2105564	-10.46794266	-157.2884302
7.23	723	-0.195	-0.065	0.997	-0.6875496	0.5156622	-0.1145916	175.2048268	-10.47367224	-157.2884302
7.24	724	-0.195	-0.065	0.999	-0.8021412	0.286479	-0.0572958	175.1933677	-10.47940182	-157.2884302
7.25	725	-0.194	-0.065	0.998	-0.9167328	0	-0.0572958	175.2621226	-10.54815678	-157.2998893
7.26	726	-0.195	-0.063	0.997	-0.9740286	-0.1718874	-0.0572958	175.2506635	-10.54815678	-157.2998893
7.27	727	-0.195	-0.064	0.996	-1.0313244	-0.572958	0	175.2392043	-10.5424272	-157.2998893
7.28	728	-0.194	-0.064	0.994	-1.0886202	-0.9740286	0	175.2277451	-10.53096804	-157.2998893
7.29	729	-0.194	-0.064	0.993	-1.145916	-1.145916	0	175.216286	-10.51950888	-157.2998893
7.3	730	-0.192	-0.065	0.992	-1.145916	-1.4896908	0.0572958	175.2392043	-10.52523846	-157.3113485
7.31	731	-0.192	-0.064	0.992	-0.859437	-2.005353	0	175.2277451	-10.50804972	-157.3113485
7.32	732	-0.192	-0.064	0.994	-0.7448454	-2.3491278	0.0572958	175.2220156	-10.4851314	-157.3113485
7.33	733	-0.191	-0.066	0.995	-0.6875496	-2.578311	0.0572958	175.216286	-10.4564835	-157.3170781
7.34	734	-0.189	-0.065	0.997	-0.572958	-2.7501984	0.0572958	175.2105564	-10.4278356	-157.3170781
7.35	735	-0.188	-0.067	0.997	-0.4010706	-2.86479	0.0572958	175.2334747	-10.41064686	-157.3228076
7.36	736	-0.186	-0.066	0.998	-0.286479	-2.86479	0.0572958	175.2277451	-10.38199896	-157.3228076
7.37	737	-0.186	-0.066	0.999	-0.0572958	-2.7501984	0.1145916	175.2334747	-10.35335106	-157.3285372
7.38	738	-0.186	-0.066	1	0	-2.5210152	0.1145916	175.2334747	-10.33043274	-157.3285372
7.39	739	-0.186	-0.069	1.003	0.2291832	-2.2345362	0.1718874	175.2334747	-10.30751442	-157.3342668
7.4	740	-0.185	-0.067	1.004	0.3437748	-2.005353	0	175.2678522	-10.29605526	-157.3342668
7.41	741	-0.184	-0.067	1.005	0.4010706	-1.7761698	0.1145916	175.2735818	-10.27886652	-157.3399964
7.42	742	-0.184	-0.065	1.003	0.4583664	-1.5469866	0.0572958	175.2793114	-10.26167778	-157.3399964
7.43	743	-0.184	-0.068	1.003	0.4583664	-1.145916	0	175.2850409	-10.25021862	-157.3399964
7.44	744	-0.184	-0.067	1.002	0.572958	-0.9167328	0.0572958	175.2907705	-10.23875946	-157.3399964
7.45	745	-0.182	-0.067	1.001	0.5156622	-0.7448454	0	175.3595255	-10.23302988	-157.345726
7.46	746	-0.183	-0.068	0.998	0.4583664	-0.4583664	0.0572958	175.3652551	-10.23302988	-157.345726
7.47	747	-0.184	-0.066	0.997	0.5156622	-0.2291832	0.0572958	175.3709846	-10.2273003	-157.345726
7.48	748	-0.184	-0.066	0.997	0.5156622	-0.0572958	0	175.3767142	-10.2273003	-157.345726
7.49	749	-0.184	-0.066	0.997	0.4583664	0.1718874	0	175.3767142	-10.2273003	-157.345726
7.5	750	-0.184	-0.065	0.995	0.572958	0.2291832	0	175.4282804	-10.26740736	-157.3514555
7.51	751	-0.184	-0.065	0.995	0.5156622	0.4583664	0	175.43401	-10.27313694	-157.3514555
7.52	752	-0.185	-0.065	0.997	0.4583664	0.6302538	0	175.4397396	-10.27886652	-157.3514555
7.53	753	-0.185	-0.065	0.997	0.4583664	0.6302538	0	175.4454692	-10.2845961	-157.3514555
7.54	754	-0.185	-0.065	0.998	0.4583664	0.7448454	0	175.4511988	-10.29605526	-157.3514555
7.55	755	-0.186	-0.065	0.998	0.4010706	0.8021412	0.0572958	175.4855762	-10.32470316	-157.3571851
7.56	756	-0.187	-0.065	0.997	0.4583664	0.8021412	0.0572958	175.4913058	-10.33043274	-157.3571851
7.57	757	-0.187	-0.065	0.998	0.3437748	0.6875496	0.0572958	175.4970354	-10.33616232	-157.3571851
7.58	758	-0.186	-0.065	0.999	0.286479	0.6875496	0.0572958	175.502765	-10.34762148	-157.3571851
7.59	759	-0.188	-0.064	0.998	0.3437748	0.5156622	0.0572958	175.502765	-10.35335106	-157.3571851
7.6	760	-0.189	-0.065	0.997	0.3437748	0.4010706	0.0572958	175.5543312	-10.4278356	-157.3743739
7.61	761	-0.188	-0.065	0.998	0.3437748	0.1718874	0.0572958	175.5543312	-10.4278356	-157.3743739
7.62	762	-0.189	-0.065	0.997	0.2291832	0	0.1145916	175.5600608	-10.43356518	-157.3743739
7.63	763	-0.188	-0.064	0.997	0.1718874	-0.1145916	0	175.5600608	-10.4278356	-157.3743739
7.64	764	-0.187	-0.066	0.995	0.286479	-0.286479	0.0572958	175.5657904	-10.4278356	-157.3743739
7.65	765	-0.188	-0.063	0.994	0.3437748	-0.4010706	0.0572958	175.6001678	-10.4564835	-157.385833
7.66	766	-0.187	-0.065	0.996	0.286479	-0.5156622	0.0572958	175.6058974	-10.45075392	-157.385833
7.67	767	-0.187	-0.065	0.996	0.2291832	-0.5156622	0.0572958	175.6058974	-10.44502434	-157.385833
7.68	768	-0.186	-0.064	0.998	0.1718874	-0.572958	0	175.6058974	-10.43929476	-157.385833
7.69	769	-0.186	-0.065	0.997	0	-0.6302538	0.0572958	175.6058974	-10.43356518	-157.385833
7.7	770	-0.187	-0.064	1	0	-0.6875496	0.0572958	175.6402749	-10.43929476	-157.3915626
7.71	771	-0.186	-0.066	1.002	0	-0.6875496	0.0572958	175.6402749	-10.43356518	-157.3915626
7.72	772	-0.185	-0.064	1.001	0.1145916	-0.8021412	0.0572958	175.6460045	-10.42210602	-157.3972922
7.73	773	-0.185	-0.065	0.999	0.1718874	-0.8021412	0.0572958	175.6460045	-10.41637644	-157.3972922
7.74	774	-0.184	-0.066	0.996	0	-0.7448454	0.0572958	175.6460045	-10.40491728	-157.3972922
7.75	775	-0.182	-0.067	0.986	-0.6875496	-0.9167328	0	175.6402749	-10.3991877	-157.3972922
7.76	776	-0.181	-0.068	0.97	-1.6042824	-0.572958	0	175.6230862	-10.39345812	-157.3972922
7.77	777	-0.182	-0.07	0.981	-1.2605076	-0.4583664	0	175.611627	-10.38772854	-157.3972922
7.78	778	-0.184	-0.069	0.996	0.1718874	-1.3178034	0.2291832	175.611627	-10.37626938	-157.4030218
7.79	779	-0.184	-0.066	0.998	0.7448454	-2.005353	0.286479	175.6230862	-10.35908064	-157.4087513
7.8	780	-0.181	-0.065	0.996	0.572958	-1.6615782	0.286479	175.6345453	-10.33616232	-157.4087513
7.81	781	-0.184	-0.064	1	0.8021412	-1.3750992	0.286479	175.6402749	-10.31897358	-157.4144809
7.82	782	-0.182	-0.061	0.998	0.859437	-1.5469866	0.286479	175.6517341	-10.30751442	-157.4144809
7.83	783	-0.183	-0.064	0.989	0.5156622	-1.9480572	0.2291832	175.6574636	-10.2845961	-157.4202105
7.84	784	-0.182	-0.063	0.975	-0.286479	-2.1772404	0.1718874	175.6574636	-10.26167778	-157.4259401
7.85	785	-0.18	-0.065	0.96	-1.0313244	-1.8334656	0.2291832	175.6460045	-10.25021862	-157.4259401
7.86	786	-0.177	-0.063	0.959	-0.7448454	-0.9740286	0.4010706	175.6402749	-10.23875946	-157.4316697
7.87	787	-0.178	-0.065	0.967	0.572958	0.0572958	0.572958	175.6460045	-10.24448904	-157.4373992
7.88	788	-0.18	-0.063	0.984	2.291832	0.4583664	0.859437	175.6746524	-10.25021862	-157.4488584
7.89	789	-0.183	-0.063	1.001	3.8388186	0.3437748	1.0886202	175.7147594	-10.25021862	-157.4603176
7.9	790	-0.182	-0.058	1.011	4.4117766	-0.0572958	1.0886202	175.7663257	-10.2559482	-157.4717767
7.91	791	-0.183	-0.059	1.006	4.0680018	-0.7448454	1.0313244	175.8121623	-10.25021862	-157.4775063
7.92	792	-0.182	-0.061	0.995	2.9793816	-1.2032118	0.859437	175.8465398	-10.23875946	-157.4889655
7.93	793	-0.179	-0.062	0.99	1.9480572	-1.2605076	0.859437	175.8637285	-10.22157072	-157.5004246
7.94	794	-0.178	-0.061	0.986	0.9740286	-1.145916	0.7448454	175.8751877	-10.21584114	-157.5061542
7.95	795	-0.18	-0.06	0.987	-0.0572958	-0.859437	0.6875496	175.8923764	-10.21011156	-157.5176134
7.96	796	-0.18	-0.062	0.996	-0.6875496	-0.3437748	0.6302538	175.8809173	-10.21011156	-157.5233429
7.97	797	-0.182	-0.061	0.996	-1.4896908	0.1145916	0.6875496	175.8694581	-10.21011156	-157.5290725
7.98	798	-0.18	-0.063	1	-1.9480572	0.6875496	0.572958	175.8522694	-10.21584114	-157.5348021
7.99	799	-0.18	-0.064	0.999	-1.6042824	1.0886202	0.572958	175.8350806	-10.2273003	-157.5405317
8	800	-0.183	-0.062	0.993	-0.7448454	1.0886202	0.572958	175.829351	-10.2559482	-157.5519908
8.01	801	-0.182	-0.063	0.99	0.2291832	0.9167328	0.7448454	175.8350806	-10.26740736	-157.5577204
8.02	802	-0.183	-0.063	0.995	1.718874	0.4583664	0.859437	175.8579989	-10.26740736	-157.56345
8.03	803	-0.183	-0.062	1.003	2.1772404	0	0.6875496	175.8809173	-10.27313694	-157.5749092
8.04	804	-0.182	-0.06	1.011	2.1199446	-0.1718874	0.6302538	175.9038356	-10.26740736	-157.5806387
8.05	805	-0.184	-0.059	1.019	1.8334656	-0.1145916	0.572958	175.9267539	-10.26740736	-157.5863683
8.06	806	-0.188	-0.063	1.025	1.5469866	0.1145916	0.4583664	175.9439426	-10.26740736	-157.5920979
8.07	807	-0.187	-0.059	1.029	1.4896908	0.0572958	0.2291832	175.9611314	-10.26740736	-157.5920979
8.08	808	-0.185	-0.06	1.032	1.3750992	0.0572958	0.1145916	175.9725905	-10.27313694	-157.5920979
8.09	809	-0.187	-0.058	1.036	1.2032118	-0.1718874	0.0572958	175.9840497	-10.26740736	-157.5920979
8.1	810	-0.187	-0.06	1.038	0.6302538	-0.6302538	0.0572958	176.0012384	-10.26167778	-157.5978275
8.11	811	-0.185	-0.06	1.034	-0.286479	-1.2032118	0	175.9955089	-10.25021862	-157.5978275
8.12	812	-0.184	-0.061	1.032	-0.859437	-1.6042824	-0.1145916	175.9897793	-10.23302988	-157.5978275
8.13	813	-0.183	-0.063	1.028	-0.9740286	-1.7761698	-0.0572958	175.9783201	-10.21584114	-157.5978275
8.14	814	-0.181	-0.064	1.022	-0.7448454	-1.9480572	0	175.966861	-10.19292282	-157.5978275
8.15	815	-0.181	-0.062	1.014	-0.286479	-2.005353	0	175.966861	-10.17573408	-157.5978275
8.16	816	-0.18	-0.063	1.005	0.1145916	-1.9480572	0.0572958	175.966861	-10.15281576	-157.5978275
8.17	817	-0.18	-0.063	0.998	1.0886202	-1.718874	0.0572958	175.9840497	-10.13562702	-157.5978275
8.18	818	-0.178	-0.061	0.996	2.4637194	-1.432395	0.1718874	176.006968	-10.12416786	-157.6035571
8.19	819	-0.178	-0.06	0.996	3.151269	-1.0886202	0.2291832	176.0413455	-10.1127087	-157.6035571
8.2	820	-0.177	-0.058	0.993	3.151269	-0.7448454	0.1718874	176.075723	-10.10124954	-157.6092866
8.21	821	-0.178	-0.058	0.995	2.7501984	-0.5156622	0.2291832	176.1043709	-10.10124954	-157.6092866
8.22	822	-0.177	-0.058	0.998	2.1772404	-0.3437748	0.1145916	176.1272892	-10.09551996	-157.6092866
8.23	823	-0.178	-0.057	1.002	1.5469866	-0.1718874	0.0572958	176.1444779	-10.09551996	-157.6092866
8.24	824	-0.18	-0.057	1.007	0.9740286	-0.0572958	0.0572958	176.1559371	-10.09551996	-157.6150162
8.25	825	-0.18	-0.057	1.011	0.4583664	-0.2291832	0	176.1731258	-10.08979038	-157.6150162
8.26	826	-0.181	-0.057	1.012	0.0572958	-0.3437748	-0.0572958	176.1731258	-10.0840608	-157.6092866
8.27	827	-0.179	-0.058	1.011	-0.2291832	-0.6302538	-0.0572958	176.1673963	-10.07833122	-157.6092866
8.28	828	-0.18	-0.057	1.01	-0.286479	-0.7448454	-0.0572958	176.1673963	-10.07260164	-157.6092866
8.29	829	-0.18	-0.058	1.008	0	-0.9740286	-0.1145916	176.1673963	-10.06114248	-157.6092866
8.3	830	-0.178	-0.057	1.003	0	-1.2605076	-0.0572958	176.1616667	-10.0554129	-157.6092866
8.31	831	-0.178	-0.058	1	-0.1145916	-1.2605076	-0.1145916	176.1616667	-10.03822416	-157.6092866
8.32	832	-0.18	-0.057	1	-0.0572958	-1.3750992	-0.0572958	176.1616667	-10.026765	-157.6092866
8.33	833	-0.178	-0.058	0.996	0	-1.3178034	-0.1145916	176.1616667	-10.00957626	-157.6092866
8.34	834	-0.177	-0.056	0.997	0.1718874	-1.2605076	-0.0572958	176.1616667	-9.9981171	-157.6092866
8.35	835	-0.176	-0.057	0.997	0.286479	-1.145916	0	176.1731258	-9.98665794	-157.6092866
8.36	836	-0.176	-0.057	0.996	0.4010706	-1.0313244	0	176.1788554	-9.97519878	-157.6092866
8.37	837	-0.177	-0.057	1	0.286479	-1.2032118	-0.0572958	176.1788554	-9.96373962	-157.6092866
8.38	838	-0.178	-0.056	0.999	0.0572958	-1.2032118	-0.0572958	176.1788554	-9.95228046	-157.6092866
8.39	839	-0.177	-0.056	0.995	0.1718874	-1.0313244	-0.0572958	176.184585	-9.9408213	-157.6092866
8.4	840	-0.176	-0.056	0.993	0.4583664	-0.8021412	-0.1145916	176.1903146	-9.9408213	-157.6092866
8.41	841	-0.174	-0.056	0.996	0.572958	-0.572958	-0.0572958	176.1960442	-9.93509172	-157.6092866
8.42	842	-0.175	-0.055	0.998	0.5156622	-0.6302538	0	176.2017737	-9.92936214	-157.6035571
8.43	843	-0.175	-0.056	0.997	0.4010706	-0.3437748	-0.0572958	176.2075033	-9.92363256	-157.6035571
8.44	844	-0.174	-0.056	0.992	0.6875496	-0.0572958	-0.0572958	176.2132329	-9.92363256	-157.6035571
8.45	845	-0.173	-0.058	0.986	1.145916	0.2291832	-0.1145916	176.2189625	-9.92936214	-157.6035571
8.46	846	-0.173	-0.057	0.984	1.4896908	0.6875496	-0.1145916	176.2361512	-9.93509172	-157.6035571
8.47	847	-0.172	-0.06	0.988	1.4896908	0.8021412	0	176.25334	-9.9408213	-157.6035571
8.48	848	-0.174	-0.058	0.993	1.0313244	0.9167328	0	176.2647991	-9.95228046	-157.6035571
8.49	849	-0.175	-0.057	0.995	0.6302538	0.8021412	0	176.2705287	-9.95801004	-157.5978275
8.5	850	-0.174	-0.058	0.995	0.2291832	0.6875496	0	176.2647991	-9.95228046	-157.5978275
8.51	851	-0.174	-0.055	0.993	0	0.7448454	0	176.2647991	-9.96373962	-157.5978275
8.52	852	-0.174	-0.053	0.992	0.0572958	1.145916	0	176.2705287	-9.97519878	-157.5978275
8.53	853	-0.175	-0.054	0.994	0.286479	1.3750992	0	176.2705287	-9.98665794	-157.5978275
8.54	854	-0.176	-0.053	0.998	0.4010706	1.3750992	0	176.2762583	-10.00384668	-157.5978275
8.55	855	-0.178	-0.053	1.006	0.4583664	1.2605076	0	176.293447	-10.01530584	-157.5978275
8.56	856	-0.179	-0.053	1.013	0.572958	1.0886202	0	176.2991766	-10.026765	-157.5978275
8.57	857	-0.18	-0.054	1.017	0.6875496	0.9167328	0.0572958	176.3049062	-10.03822416	-157.5978275
8.58	858	-0.18	-0.057	1.018	0.8021412	0.6302538	0.1145916	176.3106358	-10.04395374	-157.5978275
8.59	859	-0.18	-0.057	1.018	0.859437	0.286479	0	176.3220949	-10.04968332	-157.5978275
8.6	860	-0.18	-0.056	1.017	0.9167328	0	0.0572958	176.3335541	-10.04968332	-157.5978275
8.61	861	-0.179	-0.057	1.014	0.9740286	-0.286479	0.1145916	176.3450132	-10.04395374	-157.5978275
8.62	862	-0.178	-0.057	1.008	0.859437	-0.5156622	0.0572958	176.3564724	-10.04395374	-157.6035571
8.63	863	-0.178	-0.056	1.003	0.7448454	-0.6875496	0	176.362202	-10.03249458	-157.6035571
8.64	864	-0.177	-0.056	0.997	0.6875496	-0.6875496	0	176.3679316	-10.026765	-157.6035571
8.65	865	-0.177	-0.055	0.993	0.8021412	-0.6302538	0.0572958	176.3793907	-10.026765	-157.6035571
8.66	866	-0.176	-0.054	0.991	0.7448454	-0.4583664	0.0572958	176.3851203	-10.02103542	-157.6035571
8.67	867	-0.174	-0.055	0.989	0.6302538	-0.286479	0	176.3908499	-10.01530584	-157.6035571
8.68	868	-0.175	-0.055	0.989	0.3437748	-0.2291832	0	176.3965795	-10.01530584	-157.6035571
8.69	869	-0.175	-0.054	0.991	0.1718874	-0.1145916	0	176.3965795	-10.01530584	-157.6035571
8.7	870	-0.176	-0.054	0.993	0	0.0572958	0	176.3908499	-10.026765	-157.6035571
8.71	871	-0.175	-0.055	0.994	0	0.3437748	0.0572958	176.3908499	-10.026765	-157.6035571
8.72	872	-0.176	-0.054	0.996	0.0572958	0.4010706	0	176.3908499	-10.03249458	-157.6035571
8.73	873	-0.177	-0.055	1	0.0572958	0.4010706	0	176.3965795	-10.03822416	-157.6035571
8.74	874	-0.177	-0.054	1.002	0	0.4010706	0	176.3908499	-10.04395374	-157.6035571
8.75	875	-0.177	-0.055	1.004	-0.1145916	0.286479	0	176.3851203	-10.04395374	-157.6035571
8.76	876	-0.177	-0.054	1.004	-0.1145916	0.2291832	0	176.3851203	-10.04968332	-157.6035571
8.77	877	-0.177	-0.055	1.003	-0.1718874	0.1145916	0	176.3851203	-10.04968332	-157.6035571
8.78	878	-0.177	-0.054	1.002	-0.1718874	0.0572958	0	176.3793907	-10.04968332	-157.6035571
8.79	879	-0.178	-0.055	1	-0.0572958	0.0572958	0	176.3793907	-10.04968332	-157.6035571
8.8	880	-0.177	-0.055	1	-0.0572958	0	0	176.3679316	-10.04968332	-157.6035571
8.81	881	-0.177	-0.055	0.999	-0.0572958	0	0	176.3679316	-10.04968332	-157.6035571
8.82	882	-0.177	-0.054	1	-0.1718874	-0.0572958	0	176.3679316	-10.04395374	-157.6035571
8.83	883	-0.177	-0.054	0.999	-0.2291832	-0.1718874	0	176.362202	-10.04395374	-157.6035571
8.84	884	-0.177	-0.056	0.999	-0.1718874	-0.1718874	0	176.362202	-10.04395374	-157.6035571
8.85	885	-0.177	-0.054	0.999	-0.2291832	-0.2291832	0	176.3679316	-10.03822416	-157.6035571
8.86	886	-0.177	-0.053	0.998	-0.1718874	-0.286479	0	176.3679316	-10.03249458	-157.6035571
8.87	887	-0.176	-0.055	1	-0.1145916	-0.4010706	0.0572958	176.3679316	-10.03249458	-157.6035571
8.88	888	-0.176	-0.054	0.998	-0.1145916	-0.4583664	0	176.362202	-10.026765	-157.6035571
8.89	889	-0.176	-0.055	0.999	-0.0572958	-0.4010706	0.0572958	176.362202	-10.02103542	-157.6092866
8.9	890	-0.176	-0.055	0.999	0	-0.286479	0	176.3679316	-10.02103542	-157.6092866
8.91	891	-0.176	-0.055	0.998	0.1718874	-0.1718874	0	176.3679316	-10.02103542	-157.6092866
8.92	892	-0.176	-0.055	0.999	0.1718874	-0.1718874	0	176.3679316	-10.02103542	-157.6092866
8.93	893	-0.177	-0.054	0.999	0.2291832	-0.1718874	0.0572958	176.3736611	-10.01530584	-157.6092866
8.94	894	-0.176	-0.056	0.999	0.2291832	-0.2291832	0.0572958	176.3736611	-10.01530584	-157.6092866
8.95	895	-0.176	-0.054	1	0.1145916	-0.1718874	0.0572958	176.3908499	-10.00384668	-157.6092866
8.96	896	-0.176	-0.054	1.001	0.0572958	-0.2291832	0	176.3908499	-9.9981171	-157.6092866
8.97	897	-0.176	-0.055	1.001	0	-0.1145916	0	176.3908499	-9.9981171	-157.6092866
8.98	898	-0.176	-0.056	1.002	-0.1145916	-0.1145916	0	176.3908499	-9.9981171	-157.6092866
8.99	899	-0.176	-0.055	1	0	-0.1718874	0	176.3908499	-9.99238752	-157.6092866
9	900	-0.176	-0.055	1	0	-0.1145916	0	176.3851203	-9.98665794	-157.6092866
9.01	901	-0.175	-0.055	1	0	-0.1718874	0	176.3851203	-9.98092836	-157.6092866
9.02	902	-0.176	-0.055	1	0	-0.2291832	0	176.3851203	-9.98092836	-157.6092866
9.03	903	-0.176	-0.055	1.001	0	-0.2291832	0	176.3851203	-9.98092836	-157.6092866
9.04	904	-0.175	-0.055	1	-0.0572958	-0.1145916	0	176.3851203	-9.97519878	-157.6092866
9.05	905	-0.175	-0.056	0.999	0	-0.2291832	0	176.3793907	-9.98665794	-157.6092866
9.06	906	-0.176	-0.055	0.998	0	-0.1718874	0	176.3793907	-9.98665794	-157.6092866
9.07	907	-0.175	-0.055	0.997	0.0572958	-0.0572958	0	176.3793907	-9.98665794	-157.6092866
9.08	908	-0.175	-0.055	0.998	0	0	0	176.3793907	-9.98665794	-157.6092866
9.09	909	-0.176	-0.055	1	-0.0572958	0.0572958	0	176.3793907	-9.98665794	-157.6092866
9.1	910	-0.176	-0.054	1.001	-0.1145916	0.1145916	0	176.3851203	-9.98665794	-157.6092866
9.11	911	-0.176	-0.054	1	-0.1718874	0.2291832	0	176.3851203	-9.98665794	-157.6092866
9.12	912	-0.175	-0.055	1	-0.1145916	0.1145916	0	176.3793907	-9.99238752	-157.6092866
9.13	913	-0.175	-0.055	1.001	-0.0572958	0.0572958	0	176.3793907	-9.99238752	-157.6092866
9.14	914	-0.174	-0.055	1	0	0.2291832	0.0572958	176.3793907	-9.99238752	-157.6150162
9.15	915	-0.174	-0.055	0.998	0.1718874	0.286479	0	176.3793907	-9.99238752	-157.6092866
9.16	916	-0.174	-0.055	1	0.0572958	0.2291832	0	176.3793907	-9.99238752	-157.6092866
9.17	917	-0.176	-0.056	1.003	-0.0572958	0.1145916	0	176.3793907	-9.9981171	-157.6092866
9.18	918	-0.176	-0.055	1.006	-0.286479	-0.0572958	0	176.3793907	-9.99238752	-157.6150162
9.19	919	-0.177	-0.056	1.006	-0.3437748	-0.1718874	0	176.3736611	-9.99238752	-157.6150162
9.2	920	-0.176	-0.055	1.004	-0.3437748	-0.1718874	0	176.3679316	-9.98665794	-157.6150162
9.21	921	-0.175	-0.057	1.001	-0.4010706	-0.1718874	0	176.362202	-9.98665794	-157.6150162
9.22	922	-0.175	-0.057	0.999	-0.286479	0	0	176.362202	-9.98092836	-157.6150162
9.23	923	-0.176	-0.056	1	-0.2291832	0	0	176.3564724	-9.98665794	-157.6150162
9.24	924	-0.176	-0.056	0.999	-0.2291832	0.0572958	0	176.3564724	-9.98665794	-157.6150162
9.25	925	-0.175	-0.055	1	-0.1718874	0.0572958	0	176.3450132	-9.98665794	-157.6150162
9.26	926	-0.175	-0.055	1.001	0	0.0572958	0.0572958	176.3450132	-9.98665794	-157.6150162
9.27	927	-0.174	-0.055	0.998	0	0.0572958	0	176.3450132	-9.98665794	-157.6150162
9.28	928	-0.176	-0.055	0.999	0	0.1718874	0	176.3450132	-9.99238752	-157.6150162
9.29	929	-0.175	-0.055	0.997	0.1145916	0.1718874	0.0572958	176.3450132	-9.99238752	-157.6150162
9.3	930	-0.175	-0.056	0.999	0.1145916	0.1718874	0	176.3392837	-9.98665794	-157.6150162
9.31	931	-0.175	-0.055	0.998	0.286479	0.0572958	0	176.3450132	-9.98665794	-157.6150162
9.32	932	-0.174	-0.056	0.999	0.3437748	0.0572958	0	176.3450132	-9.98665794	-157.6150162
9.33	933	-0.175	-0.056	1.001	0.286479	0.0572958	0	176.3507428	-9.99238752	-157.6150162
9.34	934	-0.175	-0.056	1.002	0.286479	0	0	176.3507428	-9.99238752	-157.6150162
9.35	935	-0.175	-0.055	1.003	0.2291832	0	0	176.362202	-9.98092836	-157.6150162
9.36	936	-0.174	-0.056	1.002	0.286479	0	0	176.362202	-9.98092836	-157.6150162
