TimeStamp(s)	FrameCounter	AccX	AccY	AccZ	GyrX	GyrY	GyrZ	EulerX	EulerY	EulerZ
0.01	1	-0.01	-1.003	0.128	-4.1825934	2.9793816	0.286479	102.1068452	-0.286479	-54.09869436
0.02	2	-0.011	-1.023	0.058	-6.7036086	0.7448454	0.8021412	102.0380902	-0.29220858	-54.09296478
0.03	3	-0.012	-1.021	0.059	-7.0473834	0.5156622	0.9167328	101.9636057	-0.30366774	-54.09296478
0.04	4	-0.013	-1.017	0.064	-7.3338624	0.5156622	0.859437	101.8891211	-0.3151269	-54.09296478
0.05	5	-0.013	-1.02	0.061	-7.5630456	0.8021412	0.6302538	101.6943154	-0.30939732	-54.10442394
0.06	6	-0.014	-1.021	0.057	-7.9641162	1.2032118	0.4010706	101.6141013	-0.32085648	-54.09296478
0.07	7	-0.014	-1.024	0.055	-8.307891	1.4896908	0.2291832	101.5281576	-0.32658606	-54.08150562
0.08	8	-0.013	-1.024	0.05	-8.5370742	1.6042824	0.1718874	101.4422139	-0.33231564	-54.06431688
0.09	9	-0.012	-1.023	0.05	-8.7662574	1.432395	0.1718874	101.3505406	-0.33804522	-54.05285772
0.1	10	-0.012	-1.02	0.063	-9.2819196	1.0313244	0.2291832	101.1671941	-0.33231564	-54.0585873
0.11	11	-0.018	-1.02	0.087	-11.3445684	0.8021412	0.4010706	101.0526025	-0.3437748	-54.05285772
0.12	12	-0.02	-1.012	0.09	-13.464513	0.9740286	0.7448454	100.9150925	-0.34950438	-54.04712814
0.13	13	-0.009	-1.005	0.064	-13.750992	1.145916	0.9167328	100.7775826	-0.36669312	-54.04139856
0.14	14	-0.004	-1.008	0.046	-14.2666542	0.286479	1.0886202	100.6343431	-0.37815228	-54.04139856
0.15	15	-0.001	-1.019	0.044	-14.4385416	0.1145916	1.145916	100.4166191	-0.37815228	-54.05285772
0.16	16	0	-1.028	0.035	-14.5531332	0.0572958	1.0886202	100.26765	-0.38961144	-54.0585873
0.17	17	-0.003	-1.031	0.033	-14.4385416	0	0.7448454	100.1186809	-0.39534102	-54.0585873
0.18	18	-0.007	-1.029	0.03	-14.2666542	-0.1145916	0.4010706	99.97544142	-0.4010706	-54.06431688
0.19	19	-0.014	-1.025	0.027	-13.9228794	-0.2291832	0	99.83220192	-0.4010706	-54.07004646
0.2	20	-0.02	-1.023	0.026	-13.5791046	-0.4583664	-0.1718874	99.62020746	-0.39534102	-54.0872352
0.21	21	-0.026	-1.015	0.036	-13.6936962	-0.9167328	-0.2291832	99.48269754	-0.38961144	-54.09296478
0.22	22	-0.031	-0.999	0.083	-15.2406828	-2.6356068	-0.286479	99.32799888	-0.38388186	-54.12161268
0.23	23	-0.037	-0.98	0.076	-15.8136408	-2.86479	-0.4583664	99.16757064	-0.37815228	-54.15026058
0.24	24	-0.036	-0.976	0.025	-14.9542038	-1.8907614	-0.4583664	99.01860156	-0.36669312	-54.1731789
0.25	25	-0.03	-0.988	-0.001	-14.9542038	0.1145916	-0.5156622	98.78941836	-0.36096354	-54.18463806
0.26	26	-0.019	-1.008	-0.01	-14.7823164	1.6615782	-0.3437748	98.64044928	-0.36096354	-54.16744932
0.27	27	-0.01	-1.027	-0.013	-14.2093584	2.1772404	0.1145916	98.4914802	-0.36669312	-54.15026058
0.28	28	-0.006	-1.036	-0.013	-13.8655836	1.9480572	0.8021412	98.35397028	-0.37815228	-54.13307184
0.29	29	-0.007	-1.029	-0.016	-13.750992	1.718874	1.2605076	98.21073078	-0.39534102	-54.1158831
0.3	30	-0.011	-1.015	-0.016	-13.750992	1.4896908	1.3750992	97.99873632	-0.40680018	-54.1158831
0.31	31	-0.018	-1.001	-0.016	-13.4072172	1.8334656	1.2032118	97.8612264	-0.42398892	-54.10442394
0.32	32	-0.019	-0.993	-0.022	-13.5791046	2.291832	0.9740286	97.72371648	-0.43544808	-54.08150562
0.33	33	-0.021	-0.982	-0.011	-14.4385416	2.2345362	0.6875496	97.5747474	-0.44690724	-54.06431688
0.34	34	-0.022	-0.979	-0.003	-15.5271618	3.0366774	0.859437	97.41431916	-0.46409598	-54.03566898
0.35	35	-0.005	-0.977	-0.007	-15.9282324	4.3544808	1.2605076	97.2023247	-0.47555514	-54.00702108
0.36	36	0.008	-0.991	-0.018	-15.6990492	3.9534102	1.8907614	97.04189646	-0.49847346	-53.9726436
0.37	37	0.011	-1.024	-0.031	-15.8709366	2.7501984	2.4637194	96.88146822	-0.52712136	-53.94972528
0.38	38	0.01	-1.05	-0.04	-16.1574156	1.5469866	2.7501984	96.7153104	-0.56149884	-53.93826612
0.39	39	0.007	-1.07	-0.039	-16.329303	1.0313244	2.7501984	96.54915258	-0.59014674	-53.93253654
0.4	40	0.002	-1.073	-0.035	-16.5584862	0.9167328	2.291832	96.33142854	-0.60733548	-53.93826612
0.41	41	-0.007	-1.064	-0.037	-16.6730778	0.9740286	1.6615782	96.15954114	-0.62452422	-53.93253654
0.42	42	-0.016	-1.05	-0.041	-16.5011904	0.7448454	1.145916	95.99338332	-0.63598338	-53.92680696
0.43	43	-0.023	-1.036	-0.048	-15.9855282	0.4583664	1.0313244	95.8272255	-0.64744254	-53.92680696
0.44	44	-0.027	-1.019	-0.056	-15.5271618	0.3437748	1.0313244	95.67252684	-0.66463128	-53.92680696
0.45	45	-0.029	-0.993	-0.061	-15.4125702	0.5156622	1.3750992	95.44334364	-0.67609044	-53.93253654
0.46	46	-0.027	-0.965	-0.064	-15.6417534	1.0313244	1.5469866	95.28864498	-0.69327918	-53.92680696
0.47	47	-0.017	-0.943	-0.07	-15.6990492	1.5469866	1.6615782	95.12821674	-0.71046792	-53.9153478
0.48	48	-0.007	-0.932	-0.077	-15.2406828	0.9167328	1.8907614	94.97351808	-0.73338624	-53.90961822
0.49	49	-0.004	-0.94	-0.083	-14.6677248	-0.2291832	2.1772404	94.824549	-0.75630456	-53.9153478
0.5	50	0	-0.964	-0.075	-14.037471	-0.6302538	2.1772404	94.60682496	-0.76203414	-53.93253654
0.51	51	0.003	-0.992	-0.082	-13.6364004	-0.6875496	1.8907614	94.46931504	-0.78495246	-53.9439957
0.52	52	0	-0.999	-0.087	-13.6936962	-0.8021412	1.6615782	94.33180512	-0.8021412	-53.95545486
0.53	53	-0.003	-0.989	-0.091	-13.9228794	-0.9167328	1.432395	94.18856562	-0.81360036	-53.96691402
0.54	54	-0.007	-0.973	-0.093	-13.8082878	-1.7761698	1.3178034	94.0510557	-0.82505952	-53.98983234
0.55	55	-0.015	-0.956	-0.086	-13.5791046	-2.578311	1.0313244	93.84479082	-0.8307891	-54.02420982
0.56	56	-0.02	-0.952	-0.081	-13.5791046	-2.4064236	0.9740286	93.7072809	-0.83651868	-54.05285772
0.57	57	-0.021	-0.98	-0.079	-12.4904844	-2.4637194	0.859437	93.58123014	-0.84797784	-54.07577604
0.58	58	-0.023	-1.032	-0.077	-11.3445684	-2.4064236	0.7448454	93.46663854	-0.85370742	-54.10442394
0.59	59	-0.025	-1.077	-0.081	-11.3445684	-2.005353	0.5156622	93.35204694	-0.85370742	-54.12734226
0.6	60	-0.027	-1.098	-0.086	-12.032118	-1.7761698	0.6875496	93.17442996	-0.859437	-54.15026058
0.61	61	-0.03	-1.077	-0.092	-13.2926256	-1.6042824	1.0886202	93.03692004	-0.87089616	-54.1731789
0.62	62	-0.031	-1.03	-0.092	-14.32395	-0.9740286	1.432395	92.89368054	-0.88235532	-54.18463806
0.63	63	-0.031	-0.999	-0.094	-14.32395	-0.4010706	1.6042824	92.74471146	-0.89954406	-54.19036764
0.64	64	-0.031	-0.974	-0.09	-14.6677248	-0.4583664	1.8907614	92.59574238	-0.92246238	-54.19609722
0.65	65	-0.031	-0.963	-0.097	-14.4958374	-0.2291832	2.1199446	92.38374792	-0.93965112	-54.21328596
0.66	66	-0.028	-0.979	-0.107	-14.037471	0.4010706	2.3491278	92.24050842	-0.96256944	-54.21328596
0.67	67	-0.031	-1	-0.119	-13.2353298	1.2032118	2.4637194	92.10872808	-0.99121734	-54.2018268
0.68	68	-0.034	-1.012	-0.131	-13.1207382	1.8907614	2.4637194	91.97121816	-1.01986524	-54.18463806
0.69	69	-0.04	-0.999	-0.134	-13.464513	2.1772404	2.4064236	91.83370824	-1.04278356	-54.16744932
0.7	70	-0.045	-0.982	-0.127	-13.1207382	2.2345362	2.2345362	91.62744336	-1.07143146	-54.15599016
0.71	71	-0.046	-0.966	-0.13	-12.7769634	3.151269	1.6615782	91.5013926	-1.0886202	-54.12161268
0.72	72	-0.044	-0.957	-0.135	-12.4904844	4.3544808	1.0313244	91.36961226	-1.10580894	-54.08150562
0.73	73	-0.043	-0.968	-0.135	-11.8602306	5.156622	0.4583664	91.24929108	-1.11153852	-54.03566898
0.74	74	-0.044	-0.996	-0.138	-10.5424272	5.3858052	0.4010706	91.14042906	-1.12299768	-53.97837318
0.75	75	-0.044	-1.023	-0.141	-10.026765	5.5576926	0.6875496	90.96281208	-1.13445684	-53.93826612
0.76	76	-0.047	-1.041	-0.139	-10.0840608	6.0733548	1.0886202	90.85967964	-1.145916	-53.87524074
0.77	77	-0.039	-1.033	-0.136	-11.172681	7.3338624	1.3178034	90.73935846	-1.16310474	-53.80648578
0.78	78	-0.032	-1.017	-0.145	-11.4018642	8.2505952	1.2032118	90.62476686	-1.18029348	-53.72627166
0.79	79	-0.025	-0.996	-0.153	-12.605076	8.307891	0.8021412	90.49298652	-1.19748222	-53.64605754
0.8	80	-0.025	-0.987	-0.149	-11.3445684	8.021412	1.0313244	90.30963996	-1.2032118	-53.571573
0.81	81	-0.023	-0.998	-0.155	-10.9434978	7.9068204	1.2605076	90.19504836	-1.22040054	-53.49708846
0.82	82	-0.026	-1.019	-0.166	-11.1153852	7.8495246	1.7761698	90.08045676	-1.23758928	-53.42260392
0.83	83	-0.027	-1.038	-0.167	-10.7716104	7.7922288	2.1772404	89.96586516	-1.26623718	-53.3423898
0.84	84	-0.033	-1.052	-0.171	-10.4851314	7.5630456	2.1772404	89.85700314	-1.2891555	-53.26790526
0.85	85	-0.023	-1.044	-0.154	-11.2872726	8.1932994	2.2345362	89.69084532	-1.30634424	-53.1991503
0.86	86	-0.011	-0.998	-0.183	-12.3758928	7.734933	2.1772404	89.56479456	-1.32926256	-53.11893618
0.87	87	-0.007	-0.957	-0.185	-12.7196676	6.7609044	2.0626488	89.43301422	-1.35218088	-53.0559108
0.88	88	-0.001	-0.945	-0.163	-11.3445684	6.0733548	1.7761698	89.31269304	-1.3750992	-52.998615
0.89	89	-0.001	-0.936	-0.162	-12.605076	5.0420304	2.005353	89.18664228	-1.39801752	-52.94704878
0.9	90	-0.005	-0.943	-0.172	-13.6364004	3.151269	1.5469866	88.97464782	-1.39801752	-52.92413046
0.91	91	0.002	-0.943	-0.148	-15.5271618	2.8074942	1.0886202	88.81421958	-1.41520626	-52.90121214
0.92	92	0.011	-0.945	-0.134	-16.5011904	1.5469866	1.0886202	88.64806176	-1.42666542	-52.8840234
0.93	93	0.026	-0.931	-0.138	-16.5584862	-0.286479	1.145916	88.48190394	-1.43812458	-52.88975298
0.94	94	0.016	-0.961	-0.098	-15.6990492	-0.572958	2.578311	88.3214757	-1.46677248	-52.89548256
0.95	95	-0.003	-1.012	-0.09	-15.0687954	0	2.2345362	88.13812914	-1.47823164	-52.90121214
0.96	96	-0.04	-1.057	-0.086	-15.8136408	-0.2291832	1.2605076	87.9777009	-1.49542038	-52.90694172
0.97	97	-0.079	-1.085	-0.08	-16.5011904	0.4010706	-0.2291832	87.8058135	-1.4896908	-52.90694172
0.98	98	-0.112	-1.1	-0.088	-17.5898106	1.7761698	-2.1199446	87.62819652	-1.47250206	-52.88975298
0.99	99	-0.111	-1.094	-0.093	-18.8503182	4.010706	-3.724227	87.4333908	-1.432395	-52.8553755
1	100	-0.094	-1.067	-0.108	-19.9962342	5.2712136	-4.297185	87.20993718	-1.4037471	-52.80380928
1.01	101	-0.057	-1.012	-0.12	-21.5432208	6.1879464	-4.1825934	86.99221314	-1.36364004	-52.74651348
1.02	102	-0.007	-0.979	-0.118	-21.9442914	6.7609044	-4.010706	86.76302994	-1.32353298	-52.6834881
1.03	103	0.021	-0.975	-0.104	-22.2307704	6.1306506	-4.0680018	86.53384674	-1.28342592	-52.63192188
1.04	104	0.038	-0.963	-0.09	-24.2361234	5.6149884	-4.3544808	86.2874748	-1.23758928	-52.58035566
1.05	105	0.03	-0.968	-0.14	-24.8090814	2.6929026	-4.297185	86.00672538	-1.18602306	-52.56316692
1.06	106	-0.007	-0.999	-0.167	-26.5852512	-0.9167328	-4.4690724	85.73743512	-1.14018642	-52.57462608
1.07	107	-0.031	-1.07	-0.216	-28.0176462	-1.145916	-5.5576926	85.45095612	-1.0886202	-52.5975444
1.08	108	-0.061	-1.182	-0.217	-30.3094782	-2.2345362	-6.6463128	85.14728838	-1.02559482	-52.6261923
1.09	109	-0.075	-1.239	-0.146	-31.6845774	-3.0366774	-6.8182002	84.8264319	-0.96256944	-52.66629936
1.1	110	-0.065	-1.213	-0.16	-34.950438	-1.145916	-6.016059	84.45973878	-0.91100322	-52.68921768
1.11	111	-0.056	-1.166	-0.21	-38.388186	0.3437748	-5.5576926	84.07012734	-0.859437	-52.69494726
1.12	112	-0.032	-1.117	-0.226	-40.3362432	2.005353	-5.3858052	83.66332716	-0.80787078	-52.6834881
1.13	113	-0.009	-1.083	-0.217	-39.5913978	2.4064236	-5.2712136	83.25652698	-0.75630456	-52.66629936
1.14	114	-0.008	-1.076	-0.231	-39.9924684	2.2345362	-5.0993262	82.8497268	-0.71046792	-52.6548402
1.15	115	-0.025	-1.071	-0.256	-41.7113424	2.4064236	-4.6982556	82.40854914	-0.66463128	-52.64338104
1.16	116	-0.028	-1.068	-0.307	-42.97185	3.0939732	-4.583664	81.97310106	-0.61879464	-52.6261923
1.17	117	-0.019	-1.069	-0.342	-43.258329	2.6929026	-4.297185	81.5319234	-0.57868758	-52.60900356
1.18	118	0.013	-1.063	-0.33	-41.4248634	1.6042824	-3.8961144	81.10793448	-0.53858052	-52.60327398
1.19	119	0.021	-1.051	-0.31	-39.8778768	0.2291832	-3.437748	80.70686388	-0.50993262	-52.60900356
1.2	120	0.034	-1.054	-0.277	-38.5027776	-1.6615782	-2.7501984	80.3000637	-0.48128472	-52.63765146
1.21	121	0.031	-1.038	-0.253	-38.388186	-3.4950438	-2.005353	79.91045226	-0.46982556	-52.67775852
1.22	122	0.01	-1.021	-0.235	-39.0184398	-4.3544808	-1.8907614	79.51511124	-0.46409598	-52.72932474
1.23	123	-0.012	-1.005	-0.235	-40.2789474	-5.2139178	-2.4064236	79.10258148	-0.45263682	-52.78662054
1.24	124	-0.029	-0.994	-0.289	-41.1956802	-4.6982556	-3.2085648	78.69005172	-0.4297185	-52.84391634
1.25	125	-0.023	-0.982	-0.338	-41.4821592	-2.6929026	-3.8388186	78.24314448	-0.4010706	-52.8840234
1.26	126	0	-0.986	-0.363	-40.6227222	-1.3750992	-4.1825934	77.83061472	-0.36669312	-52.9126713
1.27	127	0.012	-0.997	-0.37	-39.4195104	-1.2605076	-3.6669312	77.42954412	-0.33804522	-52.93558962
1.28	128	-0.004	-0.994	-0.349	-39.0184398	-0.4010706	-2.9220858	77.0342031	-0.3151269	-52.95277836
1.29	129	-0.032	-0.981	-0.344	-39.7632852	1.718874	-2.1199446	76.62740292	-0.29220858	-52.9413192
1.3	130	-0.053	-0.967	-0.333	-40.2789474	3.4950438	-1.8334656	76.203414	-0.28074942	-52.91840088
1.31	131	-0.067	-0.959	-0.332	-40.5654264	3.724227	-2.291832	75.79088424	-0.25210152	-52.88975298
1.32	132	-0.065	-0.963	-0.347	-41.0237928	3.6096354	-2.9220858	75.3726249	-0.22345362	-52.86683466
1.33	133	-0.033	-0.983	-0.386	-40.3362432	3.151269	-3.2085648	74.96009514	-0.18907614	-52.84391634
1.34	134	-0.009	-1.021	-0.397	-40.393539	1.9480572	-3.0939732	74.54756538	-0.15469866	-52.83818676
1.35	135	0.001	-1.015	-0.401	-41.6540466	2.86479	-3.151269	74.10638772	-0.12032118	-52.8267276
1.36	136	0.003	-0.997	-0.399	-42.8572584	5.6149884	-3.437748	73.67093964	-0.08021412	-52.78662054
1.37	137	0	-0.977	-0.403	-44.117766	7.5057498	-3.7815228	73.2240324	-0.0286479	-52.72932474
1.38	138	0	-0.958	-0.44	-43.6593996	7.161975	-4.010706	72.77712516	0.01718874	-52.67775852
1.39	139	0	-0.95	-0.455	-42.112413	5.9587632	-3.6096354	72.34740666	0.06302538	-52.63192188
1.4	140	0.006	-0.941	-0.468	-41.4821592	4.7555514	-2.7501984	71.90049942	0.10313244	-52.60327398
1.41	141	0.019	-0.95	-0.447	-39.9924684	5.0420304	-1.3750992	71.49369924	0.12605076	-52.56316692
1.42	142	0.027	-0.953	-0.435	-39.3049188	5.72958	0.6875496	71.09262864	0.13178034	-52.5116007
1.43	143	0.014	-0.958	-0.443	-38.961144	5.5576926	2.2345362	70.69728762	0.12605076	-52.4543049
1.44	144	-0.001	-0.939	-0.443	-38.4454818	5.156622	3.151269	70.30767618	0.10313244	-52.3970091
1.45	145	-0.012	-0.935	-0.448	-36.2109456	5.443101	3.6669312	69.91806474	0.0859437	-52.3397133
1.46	146	-0.013	-0.93	-0.462	-34.2628884	6.7036086	4.010706	69.56856036	0.06302538	-52.26522876
1.47	147	-0.012	-0.931	-0.472	-33.0023808	7.5057498	4.3544808	69.23051514	0.04010706	-52.17928506
1.48	148	-0.012	-0.939	-0.475	-32.2002396	7.6203414	4.8128472	68.90392908	0.01718874	-52.09334136
1.49	149	-0.003	-0.937	-0.475	-32.085648	7.448454	5.6149884	68.57734302	-0.00572958	-52.00739766
1.5	150	0.008	-0.942	-0.471	-31.6272816	6.2452422	6.1306506	68.23356822	-0.04010706	-51.93291312
1.51	151	0.005	-0.934	-0.472	-31.799169	6.016059	6.1879464	67.91271174	-0.08021412	-51.852699
1.52	152	0	-0.923	-0.493	-31.1116194	6.875496	6.016059	67.59185526	-0.1145916	-51.77248488
1.53	153	0.002	-0.909	-0.512	-29.9084076	7.8495246	5.2139178	67.28818752	-0.1432395	-51.6808116
1.54	154	0.011	-0.91	-0.513	-27.1582092	8.1932994	4.870143	67.01316768	-0.16042824	-51.58913832
1.55	155	0.017	-0.915	-0.506	-26.4133638	7.7922288	4.8128472	66.71522952	-0.1718874	-51.50319462
1.56	156	0.026	-0.91	-0.493	-25.7258142	7.3911582	4.9274388	66.45739842	-0.19480572	-51.41725092
1.57	157	0.031	-0.901	-0.498	-24.9809688	6.875496	4.9847346	66.19956732	-0.21772404	-51.3370368
1.58	158	0.032	-0.892	-0.519	-23.8350528	6.9327918	4.7555514	65.95892496	-0.23491278	-51.25682268
1.59	159	0.028	-0.886	-0.527	-22.2880662	6.875496	4.4117766	65.72974176	-0.25210152	-51.17660856
1.6	160	0.023	-0.888	-0.529	-21.485925	6.4744254	4.4117766	65.47764024	-0.26356068	-51.10212402
1.61	161	0.015	-0.886	-0.514	-20.1681216	5.8441716	4.3544808	65.27137536	-0.28074942	-51.03336906
1.62	162	0.014	-0.883	-0.51	-19.9389384	4.870143	4.6409598	65.06511048	-0.30939732	-50.97034368
1.63	163	0.019	-0.886	-0.512	-19.8816426	3.8388186	4.7555514	64.86457518	-0.33804522	-50.91877746
1.64	164	0.025	-0.882	-0.509	-20.1108258	3.7815228	4.870143	64.6583103	-0.36669312	-50.86148166
1.65	165	0.033	-0.876	-0.515	-19.480572	4.4117766	4.4690724	64.4291271	-0.37815228	-50.80991544
1.66	166	0.029	-0.877	-0.518	-18.4492476	4.870143	4.3544808	64.24005096	-0.4010706	-50.74689006
1.67	167	0.023	-0.871	-0.524	-18.1627686	4.6982556	3.8388186	64.05097482	-0.41825934	-50.68959426
1.68	168	0.012	-0.868	-0.516	-17.1314442	3.3231564	4.010706	63.87908742	-0.44117766	-50.64375762
1.69	169	0	-0.862	-0.505	-17.3606274	2.3491278	4.7555514	63.70147044	-0.48128472	-50.60365056
1.7	170	0.002	-0.839	-0.508	-17.761698	2.1199446	5.2139178	63.4837464	-0.50993262	-50.5635435
1.71	171	0.013	-0.824	-0.51	-17.4179232	1.432395	5.3285094	63.30612942	-0.55576926	-50.52916602
1.72	172	0.023	-0.821	-0.508	-17.6471064	1.0886202	5.3858052	63.12851244	-0.6016059	-50.49478854
1.73	173	0.022	-0.812	-0.511	-18.048177	2.0626488	4.9847346	62.94516588	-0.63598338	-50.45468148
1.74	174	0.019	-0.806	-0.503	-17.9335854	3.2658606	4.297185	62.76181932	-0.66463128	-50.40884484
1.75	175	0.004	-0.806	-0.505	-17.3033316	3.3231564	3.151269	62.54982486	-0.67036086	-50.36873778
1.76	176	-0.011	-0.806	-0.503	-17.3033316	3.6669312	2.5210152	62.37220788	-0.68182002	-50.32863072
1.77	177	-0.022	-0.807	-0.514	-17.3033316	3.8388186	2.5210152	62.1945909	-0.6875496	-50.28279408
1.78	178	-0.024	-0.797	-0.51	-16.9595568	3.724227	3.0939732	62.0227035	-0.70473834	-50.23695744
1.79	179	-0.021	-0.789	-0.517	-16.329303	3.6096354	3.5523396	61.85654568	-0.72192708	-50.18539122
1.8	180	-0.007	-0.78	-0.524	-15.8709366	3.151269	4.0680018	61.6502808	-0.73338624	-50.14528416
1.81	181	0.006	-0.78	-0.518	-14.610429	2.4637194	3.6096354	61.50131172	-0.75630456	-50.1051771
1.82	182	0.015	-0.787	-0.525	-15.0687954	2.9793816	3.437748	61.34661306	-0.7734933	-50.06507004
1.83	183	0.013	-0.78	-0.529	-14.8396122	3.151269	3.2085648	61.19764398	-0.79068204	-50.02496298
1.84	184	0.007	-0.772	-0.532	-14.2093584	3.3231564	2.578311	61.05440448	-0.8021412	-49.98485592
1.85	185	-0.005	-0.767	-0.536	-14.2666542	4.1825934	2.005353	60.85959876	-0.79641162	-49.93901928
1.86	186	-0.017	-0.758	-0.542	-14.037471	4.297185	1.8334656	60.71635926	-0.79641162	-49.89318264
1.87	187	-0.026	-0.749	-0.545	-13.5791046	4.2398892	1.718874	60.57884934	-0.79068204	-49.847346
1.88	188	-0.029	-0.732	-0.544	-13.750992	4.297185	1.8907614	60.43560984	-0.79068204	-49.80150936
1.89	189	-0.022	-0.717	-0.539	-13.8082878	4.4117766	2.4637194	60.29237034	-0.79068204	-49.75567272
1.9	190	-0.011	-0.715	-0.523	-13.8082878	3.724227	2.9793816	60.11475336	-0.79641162	-49.70983608
1.91	191	0	-0.726	-0.52	-14.3812458	3.437748	3.4950438	59.96578428	-0.81360036	-49.66399944
1.92	192	0.011	-0.737	-0.517	-15.1260912	3.0939732	3.7815228	59.81108562	-0.83651868	-49.6181628
1.93	193	0.02	-0.75	-0.525	-15.8709366	2.9793816	3.6096354	59.65065738	-0.85370742	-49.57805574
1.94	194	0.013	-0.761	-0.528	-16.7303736	2.6929026	3.2085648	59.47876998	-0.87089616	-49.53794868
1.95	195	-0.011	-0.752	-0.527	-17.0741484	3.0939732	2.5210152	59.2725051	-0.87662574	-49.5035712
1.96	196	-0.038	-0.734	-0.534	-17.0741484	3.6096354	1.8334656	59.1006177	-0.88235532	-49.46346414
1.97	197	-0.051	-0.718	-0.552	-16.5584862	4.4117766	1.4896908	58.9287303	-0.87089616	-49.4176275
1.98	198	-0.042	-0.716	-0.575	-14.610429	4.5263682	2.2345362	58.77976122	-0.87089616	-49.36606128
1.99	199	-0.025	-0.725	-0.568	-12.7769634	4.1825934	3.3804522	58.64798088	-0.88235532	-49.31449506
2	200	-0.006	-0.736	-0.568	-11.5737516	3.2085648	4.6409598	58.47609348	-0.89954406	-49.26865842
2.01	201	0.003	-0.746	-0.559	-10.4851314	1.8334656	5.6149884	58.36723146	-0.93965112	-49.22282178
2.02	202	0.005	-0.753	-0.538	-10.1413566	1.6615782	6.016059	58.26409902	-0.97975818	-49.17698514
2.03	203	-0.001	-0.75	-0.533	-10.1986524	2.3491278	5.6149884	58.16096658	-1.01986524	-49.1311485
2.04	204	-0.014	-0.749	-0.519	-9.9121734	4.010706	4.6409598	58.05783414	-1.03705398	-49.0738527
2.05	205	-0.029	-0.75	-0.521	-10.2559482	6.5317212	3.0366774	57.93178338	-1.03705398	-48.99936816
2.06	206	-0.039	-0.752	-0.515	-10.5424272	9.167328	2.1772404	57.81719178	-1.01413566	-48.91342446
2.07	207	-0.038	-0.754	-0.518	-10.7716104	10.3705398	2.0626488	57.70832976	-0.97975818	-48.8160216
2.08	208	-0.031	-0.755	-0.517	-10.4278356	11.1153852	2.5210152	57.59946774	-0.9453807	-48.70715958
2.09	209	-0.033	-0.762	-0.532	-10.7143146	11.2872726	3.2658606	57.48487614	-0.9167328	-48.59256798
2.1	210	-0.045	-0.77	-0.52	-10.3705398	10.1986524	3.8961144	57.36455496	-0.91100322	-48.48370596
2.11	211	-0.047	-0.78	-0.518	-9.2819196	9.2819196	4.3544808	57.2671521	-0.89954406	-48.3863031
2.12	212	-0.052	-0.775	-0.497	-9.6256944	9.0527364	4.5263682	57.16401966	-0.89381448	-48.28317066
2.13	213	-0.056	-0.769	-0.498	-9.3965112	10.886202	4.1252976	57.0666168	-0.87089616	-48.16857906
2.14	214	-0.053	-0.765	-0.489	-8.7662574	12.9488508	3.2658606	56.97494352	-0.83651868	-48.0425283
2.15	215	-0.055	-0.761	-0.48	-8.5370742	15.183387	2.9220858	56.87754066	-0.79068204	-47.8992888
2.16	216	-0.048	-0.754	-0.486	-8.0787078	16.902261	2.86479	56.79159696	-0.72765666	-47.73886056
2.17	217	-0.043	-0.748	-0.474	-6.7609044	15.8136408	3.5523396	56.71711242	-0.67609044	-47.58989148
2.18	218	-0.032	-0.744	-0.47	-6.1879464	15.5271618	4.3544808	56.65408704	-0.63598338	-47.43519282
2.19	219	-0.023	-0.739	-0.468	-5.9587632	15.8136408	5.0420304	56.58533208	-0.59587632	-47.27476458
2.2	220	-0.016	-0.74	-0.471	-5.9014674	16.2147114	5.2712136	56.5223067	-0.55576926	-47.10860676
2.21	221	-0.017	-0.747	-0.482	-5.5576926	15.5844576	4.870143	56.45928132	-0.5156622	-46.9539081
2.22	222	-0.024	-0.752	-0.461	-5.6722842	15.183387	4.2398892	56.39625594	-0.47555514	-46.79920944
2.23	223	-0.025	-0.753	-0.464	-6.0733548	16.1574156	3.6096354	56.33323056	-0.41825934	-46.64451078
2.24	224	-0.017	-0.749	-0.46	-6.589017	17.0741484	3.3231564	56.2644756	-0.35523396	-46.48408254
2.25	225	-0.007	-0.747	-0.463	-6.7036086	17.1314442	3.5523396	56.18999106	-0.29793816	-46.3236543
2.26	226	-0.003	-0.751	-0.466	-6.7609044	16.4438946	4.1252976	56.1212361	-0.24637194	-46.16322606
2.27	227	0.001	-0.766	-0.465	-7.3338624	15.4125702	4.8128472	56.04102198	-0.20626488	-46.0085274
2.28	228	0.006	-0.782	-0.456	-8.021412	13.750992	5.443101	55.95507828	-0.17761698	-45.85955832
2.29	229	0.006	-0.787	-0.454	-9.2819196	12.4904844	5.6149884	55.863405	-0.16042824	-45.72777798
2.3	230	0.014	-0.791	-0.45	-10.8289062	13.3499214	4.9847346	55.76027256	-0.12605076	-45.59026806
2.31	231	0.025	-0.784	-0.459	-11.745639	14.4958374	4.1252976	55.63995138	-0.0859437	-45.44702856
2.32	232	0.026	-0.779	-0.455	-12.3758928	15.6417534	3.3231564	55.50817104	-0.0286479	-45.29805948
2.33	233	0.028	-0.771	-0.46	-12.9488508	17.0168526	2.6929026	55.3763907	0.0286479	-45.13763124
2.34	234	0.017	-0.772	-0.457	-12.9488508	17.3033316	2.5210152	55.24461036	0.10313244	-44.98293258
2.35	235	-0.002	-0.765	-0.46	-14.037471	17.3033316	2.3491278	55.10710044	0.1718874	-44.82823392
2.36	236	-0.016	-0.758	-0.472	-14.8396122	17.18874	2.1199446	54.95240178	0.24637194	-44.67353526
2.37	237	-0.017	-0.745	-0.46	-14.896908	16.8449652	1.5469866	54.79770312	0.32658606	-44.52456618
2.38	238	-0.002	-0.744	-0.46	-14.037471	16.8449652	0.3437748	54.65446362	0.41252976	-44.38705626
2.39	239	0.018	-0.751	-0.457	-14.0947668	16.5584862	-0.572958	54.51122412	0.50420304	-44.25527592
2.4	240	0.028	-0.762	-0.458	-13.6936962	16.042824	-0.859437	54.37944378	0.60733548	-44.12349558
2.41	241	0.041	-0.756	-0.461	-13.9228794	16.3865988	-0.8021412	54.24193386	0.69900876	-43.99744482
2.42	242	0.052	-0.756	-0.45	-12.9488508	15.9282324	-0.4583664	54.11015352	0.79068204	-43.87139406
2.43	243	0.052	-0.742	-0.432	-11.2872726	14.7250206	0.1718874	53.98983234	0.87089616	-43.75107288
2.44	244	0.053	-0.733	-0.401	-10.1986524	15.9282324	-0.4583664	53.8866999	0.96256944	-43.62502212
2.45	245	0.049	-0.723	-0.37	-10.8289062	16.7876694	-1.2605076	53.8007562	1.07143146	-43.49324178
2.46	246	0.031	-0.723	-0.372	-10.7143146	16.5584862	-1.718874	53.69189418	1.18029348	-43.36719102
2.47	247	0.026	-0.739	-0.408	-10.4278356	15.3552744	-1.4896908	53.58876174	1.27769634	-43.25259942
2.48	248	0.038	-0.738	-0.4	-7.7922288	13.1207382	-0.8021412	53.50854762	1.35791046	-43.14946698
2.49	249	0.057	-0.738	-0.383	-3.0366774	10.7716104	-0.0572958	53.47989972	1.41520626	-43.06352328
2.5	250	0.073	-0.757	-0.382	-1.718874	8.7662574	0.3437748	53.5142772	1.48396122	-42.98903874
2.51	251	0.089	-0.764	-0.33	-0.1145916	7.161975	0.4010706	53.5142772	1.52406828	-42.92601336
2.52	252	0.111	-0.77	-0.342	1.6042824	5.8441716	-0.286479	53.53146594	1.55844576	-42.88017672
2.53	253	0.113	-0.77	-0.313	1.4896908	4.870143	-1.0313244	53.54865468	1.59282324	-42.84579924
2.54	254	0.118	-0.765	-0.291	2.9220858	4.2398892	-1.6042824	53.57730258	1.6329303	-42.82288092
2.55	255	0.114	-0.77	-0.323	3.8961144	0.572958	-1.4896908	53.69189418	1.67876694	-42.82288092
2.56	256	0.103	-0.77	-0.276	5.6149884	-2.6356068	-1.2605076	53.74918998	1.67876694	-42.85152882
2.57	257	0.099	-0.782	-0.282	5.8441716	-4.870143	-0.7448454	53.80648578	1.65584862	-42.89163588
2.58	258	0.095	-0.78	-0.265	6.3598338	-7.5630456	0.3437748	53.86951116	1.61001198	-42.95466126
2.59	259	0.085	-0.791	-0.256	6.589017	-9.3392154	1.145916	53.93826612	1.55271618	-43.02341622
2.6	260	0.078	-0.808	-0.267	5.2712136	-10.7143146	2.291832	54.06431688	1.48396122	-43.09217118
2.61	261	0.067	-0.808	-0.245	5.7868758	-13.3499214	3.2658606	54.12161268	1.38655836	-43.17811488
2.62	262	0.052	-0.813	-0.222	5.0993262	-14.6677248	3.6669312	54.1731789	1.27769634	-43.28124732
2.63	263	0.04	-0.821	-0.199	1.0886202	-14.2093584	4.1825934	54.18463806	1.16310474	-43.3729206
2.64	264	0.043	-0.814	-0.182	-2.7501984	-13.8082878	4.3544808	54.15599016	1.04851314	-43.4588643
2.65	265	0.04	-0.805	-0.169	-6.4171296	-15.1260912	4.6982556	54.16171974	0.92819196	-43.55053758
2.66	266	0.035	-0.791	-0.145	-10.1986524	-17.3033316	5.72958	54.0585873	0.78495246	-43.6593996
2.67	267	0.032	-0.775	-0.124	-13.178034	-20.1681216	7.1046792	53.92107738	0.61306506	-43.78545036
2.68	268	0.041	-0.752	-0.106	-17.8189938	-21.8869956	7.161975	53.7434604	0.4297185	-43.92296028
2.69	269	0.058	-0.744	-0.138	-24.350715	-21.485925	6.7609044	53.49708846	0.25210152	-44.05474062
2.7	270	0.078	-0.735	-0.194	-28.8197874	-22.4599536	6.2452422	53.23925736	0.07448454	-44.2037097
2.71	271	0.074	-0.737	-0.272	-29.6219286	-31.7418732	5.7868758	52.9413192	-0.14896908	-44.42716332
2.72	272	0.066	-0.75	-0.395	-29.1062664	-50.0192334	5.9587632	52.6548402	-0.4870143	-44.79385644
2.73	273	0.029	-0.752	-0.468	-30.0229992	-63.02538	6.7036086	52.3683612	-0.91100322	-45.25795242
2.74	274	-0.023	-0.792	-0.544	-31.8564648	-67.2079734	8.6516658	52.05896388	-1.3750992	-45.74496672
2.75	275	-0.087	-0.896	-0.624	-37.1276784	-66.2339448	10.4278356	51.71518908	-1.85638392	-46.2090627
2.76	276	-0.078	-1.019	-0.438	-47.4982182	-48.0711762	9.3392154	51.2510931	-2.22307704	-46.52991918
2.77	277	-0.062	-1.115	-0.251	-65.2599162	-35.4088044	6.8182002	50.59792098	-2.49809688	-46.77056154
2.78	278	-0.025	-1.188	-0.017	-83.3080932	-34.2628884	3.2085648	49.77286146	-2.74446882	-47.01693348
2.79	279	-0.013	-1.201	0.15	-108.3463578	-39.3622146	2.8074942	48.68997084	-3.02521824	-47.30914206
2.8	280	-0.017	-1.074	0.245	-138.369357	-39.820581	6.875496	47.34351954	-3.3518043	-47.56697316
2.81	281	-0.099	-0.748	0.187	-157.276971	-33.0596766	12.9488508	45.76215546	-3.68411994	-47.7274014
2.82	282	-0.251	-0.414	0.01	-149.255559	-17.18874	15.9855282	44.24954634	-3.93622146	-47.74459014
2.83	283	-0.39	-0.246	0.16	-144.385416	2.1199446	15.2979786	42.77704428	-4.04508348	-47.61853938
2.84	284	-0.38	0.025	0.232	-152.0057574	21.6578124	14.0947668	41.21286894	-4.00497642	-47.37216744
2.85	285	-0.304	0.199	0.088	-142.4373588	41.252976	10.1986524	39.72890772	-3.79871154	-47.02266306
2.86	286	-0.211	0.207	-0.048	-136.364004	55.003968	2.9220858	38.31370146	-3.42628884	-46.64451078
2.87	287	-0.133	0.191	-0.304	-134.3013552	58.728195	-3.724227	36.92141352	-2.97365202	-46.31219514
2.88	288	0	0.263	-0.542	-134.7597216	53.858052	-5.6722842	35.53485516	-2.53820394	-46.02571614
2.89	289	0.346	0.482	-0.764	-138.5412444	43.831287	-4.3544808	34.11391932	-2.18296998	-45.8079921
2.9	290	0.728	0.673	-0.997	-147.250206	33.6326346	-0.4583664	32.58412146	-1.90795014	-45.62464554
2.91	291	0.935	0.777	-1.192	-157.849929	19.3659804	8.1932994	30.97410948	-1.81627686	-45.44702856
2.92	292	0.757	0.815	-1.486	-141.6352176	-3.4950438	19.8816426	29.53025532	-1.96524594	-45.2923299
2.93	293	0.318	0.824	-1.658	-105.9399342	-6.5317212	29.5646328	28.4473647	-2.1772404	-45.06887628
2.94	294	-0.171	0.85	-1.751	-83.9956428	9.2246238	29.4500412	27.58219812	-2.24599536	-44.75947896
2.95	295	-0.394	0.788	-1.679	-82.1048814	17.8189938	18.5638392	26.72276112	-2.19442914	-44.51310702
2.96	296	-0.397	0.591	-1.565	-81.2454444	26.1841806	13.0061466	25.88624244	-2.0340009	-44.27246466
2.97	297	-0.358	0.42	-1.412	-67.322565	18.907614	11.745639	25.19869284	-1.92513888	-44.07765894
2.98	298	-0.203	0.396	-1.215	-54.2018268	2.3491278	15.1260912	24.64292358	-1.9767051	-43.93441944
2.99	299	-0.039	0.474	-1.149	-44.977203	-12.7196676	16.5584862	24.18455718	-2.16578124	-43.83701658
3	300	0.092	0.512	-1.256	-25.5539268	-28.2468294	14.5531332	23.88661902	-2.46944898	-43.82555742
3.01	301	0.442	0.391	-1.659	6.3598338	-38.674665	12.3758928	23.95537398	-2.86479	-43.88285322
3.02	302	0.386	0.132	-2.303	12.032118	-36.955791	10.886202	24.08715432	-3.2372127	-43.94014902
3.03	303	0.366	-0.202	-2.834	-11.4018642	-18.1627686	6.1879464	23.9782923	-3.42628884	-43.96306734
3.04	304	-0.084	-0.512	-3.6	-69.2706222	6.016059	-4.1252976	23.27355396	-3.36326346	-43.96879692
3.05	305	-0.476	-0.653	-3.996	-149.1982632	33.6899304	-17.3033316	21.75521526	-3.01375908	-43.99171524
3.06	306	-0.006	-0.081	-3.996	-220.9326048	56.7801378	-29.1062664	19.50349032	-2.42361234	-44.03755188
3.07	307	-0.538	0.406	-3.996	-143.8697538	9.167328	-18.1627686	18.048177	-2.29756158	-44.1750618
3.08	308	-0.191	0.242	-1.963	-55.2331512	9.2246238	-19.767051	17.49240774	-2.16005166	-44.32403088
3.09	309	0.058	0.174	-0.238	-121.6389834	3.151269	3.437748	16.25481846	-2.15432208	-44.27819424
3.1	310	-0.078	0.464	-1.683	-103.1897358	1.7761698	3.0939732	15.20057574	-2.16005166	-44.23808718
3.11	311	0.055	0.657	-1.778	-120.1492926	-2.3491278	3.0366774	13.9801752	-2.2058883	-44.20943928
3.12	312	0.025	0.669	-1.064	-86.1728832	-12.9488508	7.2192708	13.10354946	-2.36058696	-44.16933222
3.13	313	-0.031	0.29	-0.927	-86.1155874	-18.2200644	6.589017	12.2326533	-2.56112226	-44.1464139
3.14	314	-0.083	0.166	-0.925	-80.0995284	-19.194093	-0.1718874	11.42478252	-2.75592798	-44.18652096
3.15	315	-0.154	-0.01	-0.776	-56.6082504	-12.0894138	-10.3705398	10.84609494	-2.87051958	-44.31257172
3.16	316	-0.181	-0.099	-0.706	-39.3049188	-5.8441716	-17.475219	10.4564835	-2.90489706	-44.4901887
3.17	317	-0.199	0.016	-0.616	-22.9756158	1.5469866	-16.2147114	10.23302988	-2.85906042	-44.64488736
3.18	318	-0.159	0.198	-0.568	-12.9488508	8.5370742	-9.8548776	10.10124954	-2.76165756	-44.72510148
3.19	319	-0.115	0.34	-0.612	-5.8441716	12.5477802	-4.6982556	10.03822416	-2.62987722	-44.7480198
3.2	320	-0.094	0.418	-0.662	0.3437748	14.2666542	-2.6929026	9.87206634	-2.4923673	-44.75374938
3.21	321	-0.065	0.403	-0.691	6.0733548	13.9228794	-2.6356068	9.92936214	-2.35485738	-44.75374938
3.22	322	-0.034	0.335	-0.715	11.2299768	13.464513	-2.6929026	10.04395374	-2.21734746	-44.75374938
3.23	323	-0.005	0.279	-0.742	16.5011904	11.2872726	-2.6929026	10.21011156	-2.09702628	-44.75947896
3.24	324	-0.004	0.253	-0.777	20.9702628	7.0473834	-3.3231564	10.42210602	-2.02254174	-44.78239728
3.25	325	-0.034	0.269	-0.805	25.6112226	-1.6042824	-5.6722842	10.57680468	-2.02254174	-44.84542266
3.26	326	-0.066	0.294	-0.846	25.6685184	-6.0733548	-8.7662574	10.84609494	-2.0626488	-44.9485551
3.27	327	-0.077	0.301	-0.899	20.1681216	-6.9900876	-10.6570188	11.05235982	-2.10848544	-45.06887628
3.28	328	-0.075	0.265	-0.96	10.4278356	-6.6463128	-11.8029348	11.16695142	-2.1485925	-45.20065662
3.29	329	-0.086	0.193	-1.032	0.7448454	-5.8441716	-12.4904844	11.17841058	-2.1772404	-45.33243696
3.3	330	-0.098	0.129	-1.119	-5.5003968	-2.005353	-12.5477802	11.04663024	-2.18296998	-45.4642173
3.31	331	-0.114	0.104	-1.193	-6.4744254	2.6356068	-11.4018642	10.98360486	-2.13713334	-45.56734974
3.32	332	-0.125	0.09	-1.217	-5.9014674	5.5003968	-9.1100322	10.92630906	-2.06837838	-45.64756386
3.33	333	-0.126	0.1	-1.209	-7.6203414	9.0527364	-5.156622	10.84609494	-1.97097552	-45.67621176
3.34	334	-0.093	0.117	-1.19	-7.448454	11.3445684	-1.432395	10.76588082	-1.85638392	-45.6647526
3.35	335	-0.06	0.135	-1.168	-3.6669312	12.032118	1.718874	10.63410048	-1.7475219	-45.63037512
3.36	336	-0.037	0.131	-1.131	1.7761698	11.2299768	4.010706	10.65128922	-1.64438946	-45.56734974
3.37	337	-0.007	0.114	-1.087	5.3285094	10.3705398	4.9847346	10.70285544	-1.55271618	-45.49859478
3.38	338	0.013	0.087	-1.032	6.0733548	10.599723	4.0680018	10.76015124	-1.45531332	-45.4355694
3.39	339	0.031	0.057	-0.973	6.1879464	11.4018642	2.578311	10.81744704	-1.35218088	-45.38400318
3.4	340	0.042	0.026	-0.922	5.72958	11.8029348	0.9740286	10.7716104	-1.2032118	-45.36108486
3.41	341	0.045	0.01	-0.887	6.302538	11.0007936	-0.3437748	10.83463578	-1.09434978	-45.33816654
3.42	342	0.04	-0.007	-0.87	8.3651868	10.1986524	-0.6875496	10.9148499	-0.99121734	-45.32670738
3.43	343	0.043	-0.026	-0.872	9.1100322	10.7716104	-0.4010706	11.00652318	-0.8880849	-45.30951864
3.44	344	0.043	-0.042	-0.881	9.6829902	11.6883432	0.7448454	11.10392604	-0.7734933	-45.27514116
3.45	345	0.034	-0.061	-0.891	10.1986524	11.8602306	2.1772404	11.16122184	-0.64744254	-45.2350341
3.46	346	0.039	-0.084	-0.908	10.3705398	11.3445684	3.4950438	11.26435428	-0.53858052	-45.17200872
3.47	347	0.036	-0.115	-0.928	9.9121734	9.9694692	4.9847346	11.36175714	-0.45263682	-45.10325376
3.48	348	0.022	-0.152	-0.956	9.1100322	8.9954406	6.589017	11.45343042	-0.37815228	-45.01731006
3.49	349	0.025	-0.183	-0.999	7.9641162	9.3965112	7.6203414	11.53364454	-0.30366774	-44.92563678
3.5	350	0.018	-0.199	-1.04	6.8182002	10.599723	7.3911582	11.58521076	-0.20626488	-44.82823392
3.51	351	0.027	-0.199	-1.073	5.2712136	10.9434978	6.1879464	11.63677698	-0.1145916	-44.7480198
3.52	352	0.032	-0.19	-1.091	3.8961144	10.4851314	5.156622	11.67688404	-0.02291832	-44.67353526
3.53	353	0.052	-0.182	-1.099	1.7761698	9.5111028	4.5263682	11.69407278	0.0572958	-44.6047803
3.54	354	0.049	-0.171	-1.09	-0.859437	8.1360036	4.2398892	11.6883432	0.12605076	-44.5474845
3.55	355	0.058	-0.159	-1.076	-3.5523396	6.7609044	3.724227	11.60812908	0.20626488	-44.50164786
3.56	356	0.047	-0.169	-1.02	-6.0733548	5.0993262	3.9534102	11.5451037	0.24637194	-44.45008164
3.57	357	0.054	-0.164	-0.973	-9.453807	3.437748	4.9847346	11.44770084	0.26929026	-44.39278584
3.58	358	0.039	-0.142	-0.925	-10.0840608	1.718874	5.6149884	11.3445684	0.27501984	-44.33549004
3.59	359	0.04	-0.117	-0.892	-8.6516658	0.1145916	6.0733548	11.2586247	0.26356068	-44.27246466
3.6	360	0.04	-0.09	-0.866	-6.1306506	-0.572958	5.7868758	11.13830352	0.26356068	-44.22089844
3.61	361	0.032	-0.07	-0.848	-3.3231564	0.1145916	4.6409598	11.10392604	0.2578311	-44.1750618
3.62	362	0.026	-0.062	-0.846	-0.1718874	1.718874	2.9220858	11.10392604	0.26929026	-44.1464139
3.63	363	0.02	-0.066	-0.857	2.5210152	2.7501984	0.9740286	11.12684436	0.29220858	-44.12922516
3.64	364	0.024	-0.085	-0.877	4.7555514	3.2658606	-1.0313244	11.17841058	0.32658606	-44.13495474
3.65	365	0.029	-0.1	-0.911	7.6776372	2.86479	-3.2085648	11.19559932	0.37815228	-44.16360264
3.66	366	0.034	-0.105	-0.915	10.6570188	3.7815228	-4.9274388	11.30446134	0.42398892	-44.2037097
3.67	367	0.067	-0.109	-0.95	13.4072172	10.599723	-7.1046792	11.43624168	0.5443101	-44.24954634
3.68	368	0.098	-0.117	-1.014	14.9542038	11.8029348	-8.3651868	11.58521076	0.67609044	-44.30684214
3.69	369	0.086	-0.14	-1.032	13.9228794	4.0680018	-7.6776372	11.72845026	0.73338624	-44.36986752
3.7	370	0.082	-0.16	-1.043	10.3705398	1.2605076	-6.1306506	11.79147564	0.79641162	-44.43862248
3.71	371	0.087	-0.18	-1.053	7.6203414	3.3231564	-4.297185	11.87168976	0.83651868	-44.47299996
3.72	372	0.063	-0.221	-1.078	6.1879464	0.4010706	-1.6042824	11.93471514	0.84224826	-44.48445912
3.73	373	0.026	-0.256	-1.075	4.010706	-4.8128472	1.2032118	11.9748222	0.79641162	-44.48445912
3.74	374	-0.001	-0.253	-1.067	2.005353	-5.5003968	2.291832	11.99774052	0.73911582	-44.47299996
3.75	375	-0.03	-0.237	-1.057	0.7448454	-4.870143	2.291832	11.99201094	0.63598338	-44.4615408
3.76	376	-0.061	-0.204	-1.041	0	-3.8961144	1.8907614	11.99201094	0.59587632	-44.45008164
3.77	377	-0.071	-0.156	-1.02	-0.4583664	-3.2658606	1.2605076	11.98628136	0.56149884	-44.45008164
3.78	378	-0.082	-0.101	-0.994	0.0572958	-2.2345362	0.286479	11.99201094	0.53858052	-44.45008164
3.79	379	-0.082	-0.051	-0.976	1.6042824	-0.286479	0	12.00919968	0.53285094	-44.45008164
3.8	380	-0.079	0.002	-0.958	3.0366774	1.145916	-0.572958	11.68261362	0.42398892	-44.47872954
3.81	381	-0.058	0.014	-0.951	4.1825934	2.4064236	-0.7448454	11.72845026	0.45263682	-44.48445912
3.82	382	-0.044	0.027	-0.941	4.9274388	4.1252976	-1.0886202	11.7742869	0.49274388	-44.48445912
3.83	383	-0.024	0.026	-0.945	5.2139178	5.0993262	-1.432395	11.82585312	0.5443101	-44.48445912
3.84	384	-0.009	0.019	-0.953	5.7868758	5.5576926	-1.5469866	11.8888785	0.6016059	-44.4901887
3.85	385	0.005	0.01	-0.965	6.2452422	5.6722842	-1.8907614	11.78574606	0.66463128	-44.50737744
3.86	386	0.021	-0.002	-0.976	6.3598338	5.3858052	-2.1199446	11.85450102	0.72192708	-44.5188366
3.87	387	0.029	-0.015	-0.981	6.016059	5.5003968	-2.4064236	11.91179682	0.78495246	-44.53029576
3.88	388	0.052	-0.033	-1	5.156622	6.302538	-2.86479	11.96336304	0.84797784	-44.54175492
3.89	389	0.06	-0.045	-1.013	3.9534102	6.0733548	-3.3804522	12.0034701	0.9167328	-44.56467324
3.9	390	0.068	-0.051	-1.024	3.3231564	5.156622	-3.7815228	11.89460808	1.01986524	-44.6047803
3.91	391	0.071	-0.056	-1.029	3.0366774	4.1825934	-4.0680018	11.92325598	1.06570188	-44.6334282
3.92	392	0.075	-0.058	-1.03	2.4064236	3.0939732	-4.1252976	11.9461743	1.10580894	-44.66780568
3.93	393	0.074	-0.059	-1.032	1.6042824	2.2345362	-3.9534102	11.96336304	1.13445684	-44.70218316
3.94	394	0.072	-0.059	-1.031	1.145916	1.4896908	-3.6669312	11.9748222	1.15737516	-44.73083106
3.95	395	0.068	-0.062	-1.024	0.6875496	0.9740286	-3.3231564	11.66542488	1.26623718	-44.79958602
3.96	396	0.065	-0.07	-1.013	0.3437748	0.8021412	-2.9220858	11.66542488	1.27769634	-44.82823392
3.97	397	0.062	-0.08	-1.001	-0.2291832	0.859437	-2.291832	11.66542488	1.2891555	-44.85115224
3.98	398	0.057	-0.089	-0.988	-0.6875496	0.9167328	-1.718874	11.6596953	1.30634424	-44.8626114
3.99	399	0.053	-0.095	-0.981	-0.9740286	0.9167328	-1.2032118	11.64823614	1.3178034	-44.87407056
4	400	0.05	-0.097	-0.977	-1.0313244	0.9740286	-0.6302538	11.2013289	1.41520626	-44.92563678
4.01	401	0.044	-0.099	-0.975	-0.9167328	1.0313244	-0.1718874	11.18986974	1.42666542	-44.92563678
4.02	402	0.041	-0.099	-0.975	-0.859437	1.0886202	0.1718874	11.17841058	1.43812458	-44.9199072
4.03	403	0.037	-0.1	-0.973	-0.8021412	1.145916	0.572958	11.172681	1.44958374	-44.91417762
4.04	404	0.034	-0.1	-0.975	-0.6875496	0.9740286	0.9740286	11.16695142	1.45531332	-44.90271846
4.05	405	0.035	-0.102	-0.978	-0.6875496	0.7448454	1.2032118	10.78879914	1.48396122	-44.92563678
4.06	406	0.026	-0.101	-0.977	-0.859437	0	1.2032118	10.78306956	1.48396122	-44.91417762
4.07	407	0.02	-0.101	-0.979	-0.859437	0	1.2032118	10.7716104	1.47823164	-44.90271846
4.08	408	0.014	-0.1	-0.982	-0.6875496	-0.4583664	1.0886202	10.76588082	1.47250206	-44.8912593
4.09	409	0.01	-0.102	-0.984	-0.6302538	-0.8021412	1.0313244	10.76015124	1.4610429	-44.88552972
4.1	410	0.006	-0.104	-0.985	-0.7448454	-1.4896908	0.9167328	10.4851314	1.38082878	-44.90271846
4.11	411	0	-0.105	-0.983	-0.8021412	-1.5469866	0.6302538	10.47367224	1.36364004	-44.89698888
4.12	412	-0.005	-0.107	-0.985	-0.7448454	-1.6042824	0.859437	10.46794266	1.3464513	-44.8912593
4.13	413	-0.005	-0.102	-0.986	-0.6302538	-1.2605076	0.7448454	10.46221308	1.32926256	-44.88552972
4.14	414	-0.005	-0.095	-0.986	-0.572958	-1.2605076	0.6875496	10.4564835	1.3178034	-44.88552972
4.15	415	-0.001	-0.087	-0.985	-0.5156622	-0.8021412	0.572958	9.84341844	1.18602306	-44.93136636
4.16	416	0.006	-0.077	-0.987	-0.4010706	-0.3437748	0.5156622	9.83768886	1.18029348	-44.93136636
4.17	417	0.012	-0.07	-0.987	-0.1145916	0	0.3437748	9.83768886	1.18029348	-44.92563678
4.18	418	0.018	-0.065	-0.987	0.0572958	0.2291832	0.0572958	9.83768886	1.18029348	-44.92563678
4.19	419	0.02	-0.062	-0.989	0.2291832	0.4583664	-0.1718874	9.83768886	1.18602306	-44.92563678
4.2	420	0.025	-0.067	-0.985	0	0.572958	-0.4010706	9.10430262	1.21467096	-45.00012132
4.21	421	0.028	-0.067	-0.981	-0.6302538	0.8021412	-0.4010706	9.09857304	1.22613012	-45.0058509
4.22	422	0.028	-0.068	-0.983	-0.9167328	1.0313244	-0.572958	9.09284346	1.23758928	-45.0058509
4.23	423	0.028	-0.065	-0.981	-0.8021412	0.859437	-0.6875496	9.0813843	1.24904844	-45.01158048
4.24	424	0.025	-0.064	-0.982	-0.5156622	1.0313244	-0.7448454	9.07565472	1.25477802	-45.01731006
4.25	425	0.032	-0.065	-0.994	-0.5156622	0.8021412	-0.8021412	8.61728832	1.27769634	-45.06887628
4.26	426	0.025	-0.07	-0.988	-0.286479	1.0313244	-0.5156622	8.61728832	1.2891555	-45.07460586
4.27	427	0.023	-0.069	-0.993	-0.4583664	1.4896908	-0.4010706	8.61155874	1.30061466	-45.07460586
4.28	428	0.021	-0.072	-0.993	-0.572958	1.7761698	-0.3437748	8.60582916	1.3178034	-45.07460586
4.29	429	0.025	-0.075	-0.995	-0.6875496	2.0626488	-0.286479	8.59437	1.34072172	-45.07460586
4.3	430	0.025	-0.078	-0.993	-0.6875496	2.3491278	-0.1718874	8.37091638	1.36364004	-45.0917946
4.31	431	0.026	-0.079	-0.991	-0.6302538	2.3491278	-0.0572958	8.35945722	1.38655836	-45.0917946
4.32	432	0.029	-0.079	-0.992	-0.572958	2.2345362	0	8.35372764	1.4037471	-45.08606502
4.33	433	0.029	-0.081	-0.991	-0.4010706	1.8334656	0.1718874	8.35372764	1.42666542	-45.08033544
4.34	434	0.033	-0.083	-0.993	-0.4010706	1.6615782	0.2291832	8.34799806	1.43812458	-45.07460586
4.35	435	0.032	-0.084	-0.986	-0.5156622	1.0886202	0.4010706	8.06724864	1.4610429	-45.09752418
4.36	436	0.031	-0.086	-0.987	-0.5156622	1.0886202	0.4010706	8.06151906	1.47250206	-45.0917946
4.37	437	0.028	-0.086	-0.985	-0.572958	0.7448454	0.4010706	8.05578948	1.47823164	-45.08606502
4.38	438	0.029	-0.086	-0.983	-0.572958	0.572958	0.4010706	8.0500599	1.48396122	-45.08033544
4.39	439	0.029	-0.084	-0.983	-0.572958	0.2291832	0.3437748	8.03860074	1.48396122	-45.07460586
4.4	440	0.027	-0.082	-0.982	-0.572958	0.2291832	0.3437748	7.5630456	1.46677248	-45.1204425
4.41	441	0.027	-0.081	-0.984	-0.4583664	0.2291832	0.4010706	7.55731602	1.46677248	-45.11471292
4.42	442	0.026	-0.08	-0.985	-0.3437748	0.1718874	0.4583664	7.55731602	1.46677248	-45.10898334
4.43	443	0.028	-0.079	-0.988	-0.4583664	0.2291832	0.4010706	7.55158644	1.47250206	-45.10325376
4.44	444	0.025	-0.079	-0.987	-0.5156622	0.572958	0.286479	7.54585686	1.47823164	-45.09752418
4.45	445	0.024	-0.079	-0.991	-0.4583664	0.6875496	0.1718874	7.18489332	1.45531332	-45.13190166
4.46	446	0.024	-0.078	-0.991	-0.4583664	0.9167328	0.1718874	7.17916374	1.46677248	-45.12617208
4.47	447	0.024	-0.078	-0.989	-0.5156622	1.0313244	0.2291832	7.17343416	1.47250206	-45.12617208
4.48	448	0.023	-0.078	-0.988	-0.572958	1.145916	0.2291832	7.16770458	1.48396122	-45.1204425
4.49	449	0.025	-0.077	-0.987	-0.6302538	1.2032118	0.1718874	7.161975	1.49542038	-45.11471292
4.5	450	0.027	-0.075	-0.988	-0.6875496	1.145916	0.0572958	6.91560306	1.50114996	-45.13763124
4.51	451	0.026	-0.074	-0.989	-0.6875496	1.0886202	0	6.90987348	1.51260912	-45.13190166
4.52	452	0.027	-0.074	-0.992	-0.572958	0.9740286	0.0572958	6.9041439	1.52406828	-45.13190166
4.53	453	0.026	-0.073	-0.993	-0.6302538	0.9740286	0	6.89268474	1.52979786	-45.13190166
4.54	454	0.026	-0.073	-0.994	-0.7448454	1.0886202	0.0572958	6.88695516	1.54125702	-45.12617208
4.55	455	0.025	-0.072	-0.996	-0.6302538	1.145916	0.1145916	6.62912406	1.52979786	-45.1490904
4.56	456	0.024	-0.071	-0.997	-0.572958	1.3750992	0	6.62339448	1.54125702	-45.1490904
4.57	457	0.025	-0.071	-0.998	-0.286479	1.3178034	0	6.6176649	1.55844576	-45.14336082
4.58	458	0.025	-0.071	-0.996	-0.1718874	1.2605076	0	6.6176649	1.56990492	-45.14336082
4.59	459	0.026	-0.074	-0.995	-0.0572958	1.2032118	0.0572958	6.6176649	1.58136408	-45.13763124
4.6	460	0.027	-0.075	-0.993	-0.1145916	1.145916	0.1718874	6.35410422	1.56990492	-45.16054956
4.61	461	0.028	-0.076	-0.992	-0.1718874	1.0886202	0.1145916	6.34837464	1.58136408	-45.16054956
4.62	462	0.029	-0.074	-0.989	-0.2291832	1.0313244	0.1718874	6.34837464	1.58709366	-45.15481998
4.63	463	0.027	-0.075	-0.988	-0.1718874	0.9167328	0.286479	6.34837464	1.59855282	-45.1490904
4.64	464	0.027	-0.074	-0.987	-0.1718874	0.9740286	0.286479	6.34264506	1.6042824	-45.14336082
4.65	465	0.026	-0.073	-0.988	-0.0572958	0.9167328	0.286479	6.08481396	1.58709366	-45.16627914
4.66	466	0.027	-0.073	-0.988	-0.0572958	1.0313244	0.2291832	6.08481396	1.59855282	-45.16054956
4.67	467	0.027	-0.073	-0.989	0	1.0886202	0.2291832	6.08481396	1.61001198	-45.16054956
4.68	468	0.027	-0.073	-0.989	0.0572958	1.0886202	0.1718874	6.08481396	1.62147114	-45.15481998
4.69	469	0.027	-0.074	-0.987	0.0572958	1.0313244	0.1145916	6.08481396	1.6329303	-45.1490904
4.7	470	0.027	-0.076	-0.988	0	1.0313244	0.1145916	5.8441716	1.59855282	-45.17200872
4.71	471	0.026	-0.077	-0.988	0	0.9740286	0.1145916	5.8441716	1.61001198	-45.16627914
4.72	472	0.025	-0.077	-0.99	0	1.0313244	0.1718874	5.8441716	1.62147114	-45.16627914
4.73	473	0.028	-0.076	-0.99	0	1.0886202	0.2291832	5.8441716	1.6329303	-45.16054956
4.74	474	0.028	-0.076	-0.99	0.1718874	0.2291832	0.0572958	5.84990118	1.6329303	-45.16054956
4.75	475	0.029	-0.076	-0.988	0.2291832	0	0	5.19099948	1.56417534	-45.22357494
4.76	476	0.029	-0.076	-0.986	0.1718874	-0.0572958	0.0572958	5.19672906	1.56417534	-45.22357494
4.77	477	0.029	-0.077	-0.985	0.1145916	-0.1718874	0	5.19672906	1.55844576	-45.22357494
4.78	478	0.029	-0.075	-0.985	0	-0.1145916	0	5.19672906	1.55844576	-45.22357494
4.79	479	0.027	-0.075	-0.985	-0.0572958	-0.1718874	0.0572958	5.19672906	1.55844576	-45.22357494
4.8	480	0.028	-0.074	-0.985	-0.1718874	-0.1145916	0.0572958	4.91597964	1.5183387	-45.24649326
4.81	481	0.028	-0.074	-0.985	-0.1145916	-0.1145916	0.0572958	4.91025006	1.5183387	-45.24649326
4.82	482	0.029	-0.073	-0.986	-0.1145916	-0.1145916	0.1145916	4.91025006	1.51260912	-45.24649326
4.83	483	0.027	-0.072	-0.987	0	-0.2291832	0.0572958	4.91025006	1.51260912	-45.24649326
4.84	484	0.027	-0.074	-0.987	0	-0.286479	0	4.91025006	1.50687954	-45.24649326
4.85	485	0.027	-0.073	-0.988	-0.0572958	-0.3437748	0	4.4117766	1.40947668	-45.2923299
4.86	486	0.028	-0.073	-0.987	-0.1145916	-0.1145916	0	4.4117766	1.40947668	-45.2923299
4.87	487	0.026	-0.072	-0.987	-0.0572958	-0.0572958	-0.1145916	4.4117766	1.40947668	-45.2923299
4.88	488	0.026	-0.072	-0.987	0	-0.0572958	-0.0572958	4.4117766	1.40947668	-45.2923299
4.89	489	0.028	-0.072	-0.987	0	-0.2291832	-0.0572958	4.4117766	1.4037471	-45.2923299
4.9	490	0.03	-0.073	-0.987	-0.1718874	-0.2291832	0	4.2398892	1.39801752	-45.30951864
4.91	491	0.03	-0.072	-0.99	-0.1718874	-0.2291832	0.0572958	4.23415962	1.39228794	-45.30951864
4.92	492	0.031	-0.07	-0.989	-0.1718874	-0.4583664	0.1145916	4.23415962	1.38655836	-45.30951864
4.93	493	0.03	-0.071	-0.986	0.0572958	-0.572958	0.0572958	4.23415962	1.38082878	-45.30951864
4.94	494	0.029	-0.072	-0.984	0.0572958	-0.572958	0	4.23415962	1.3750992	-45.30951864
4.95	495	0.028	-0.077	-0.98	-0.3437748	-0.4010706	0	4.17686382	1.36364004	-45.31524822
4.96	496	0.028	-0.078	-0.98	-0.572958	-0.286479	0	4.17113424	1.36364004	-45.31524822
4.97	497	0.031	-0.076	-0.984	-0.7448454	-0.7448454	0.0572958	4.15967508	1.35218088	-45.31524822
4.98	498	0.029	-0.076	-0.984	-0.4583664	-0.8021412	0.2291832	4.15967508	1.3464513	-45.31524822
4.99	499	0.028	-0.068	-0.984	-0.5156622	-0.859437	0	4.1539455	1.33499214	-45.31524822
5	500	0.029	-0.073	-0.987	-0.4583664	-0.7448454	0.0572958	4.08519054	1.32926256	-45.3209778
5.01	501	0.027	-0.071	-0.991	-0.3437748	-0.6875496	0.0572958	4.07946096	1.32353298	-45.3209778
5.02	502	0.027	-0.07	-0.993	-0.2291832	-0.572958	0.0572958	4.07946096	1.3178034	-45.31524822
5.03	503	0.026	-0.07	-0.993	-0.1145916	-0.286479	0	4.07946096	1.31207382	-45.31524822
5.04	504	0.027	-0.07	-0.992	0	-0.286479	0	4.07946096	1.30634424	-45.31524822
5.05	505	0.027	-0.071	-0.989	0.2291832	0	-0.0572958	3.91903272	1.2891555	-45.33243696
5.06	506	0.026	-0.071	-0.988	0.286479	0	-0.0572958	3.91903272	1.2891555	-45.33243696
5.07	507	0.027	-0.069	-0.989	0.3437748	0	-0.1718874	3.9247623	1.2891555	-45.33243696
5.08	508	0.027	-0.068	-0.99	0.4010706	0	-0.1145916	3.93049188	1.2891555	-45.33816654
5.09	509	0.029	-0.068	-0.99	0.4010706	0	-0.1718874	3.93622146	1.2891555	-45.33816654
5.1	510	0.028	-0.069	-0.989	0.4583664	-0.0572958	-0.2291832	3.85027776	1.2891555	-45.3496257
5.11	511	0.027	-0.07	-0.99	0.4583664	0	-0.2291832	3.85600734	1.2891555	-45.3496257
5.12	512	0.027	-0.07	-0.991	0.5156622	0	-0.2291832	3.86173692	1.2891555	-45.35535528
5.13	513	0.028	-0.07	-0.988	0.572958	0.0572958	-0.2291832	3.8674665	1.2891555	-45.35535528
5.14	514	0.027	-0.069	-0.99	0.572958	0.0572958	-0.1718874	3.87319608	1.2891555	-45.35535528
5.15	515	0.028	-0.069	-0.99	0.5156622	0.1145916	-0.1718874	3.79871154	1.2891555	-45.36681444
5.16	516	0.029	-0.07	-0.99	0.4010706	0.1145916	-0.1145916	3.80444112	1.2891555	-45.36681444
5.17	517	0.03	-0.071	-0.988	0.5156622	0.1145916	-0.0572958	3.8101707	1.29488508	-45.36681444
5.18	518	0.03	-0.071	-0.99	0.572958	0.1145916	0	3.81590028	1.29488508	-45.36681444
5.19	519	0.029	-0.073	-0.992	0.572958	0.1145916	0	3.82162986	1.29488508	-45.36681444
5.2	520	0.027	-0.074	-0.991	0.5156622	0.0572958	0	3.75860448	1.27769634	-45.37254402
5.21	521	0.027	-0.073	-0.99	0.4010706	0.1718874	0	3.75860448	1.28342592	-45.37254402
5.22	522	0.027	-0.073	-0.989	0.286479	0.1718874	0	3.76433406	1.28342592	-45.37254402
5.23	523	0.028	-0.075	-0.987	0.3437748	0.1718874	0	3.77006364	1.28342592	-45.37254402
5.24	524	0.029	-0.073	-0.986	0.3437748	0.1718874	0	3.77006364	1.2891555	-45.37254402
5.25	525	0.03	-0.074	-0.987	0.2291832	0.0572958	-0.0572958	3.68411994	1.2891555	-45.38400318
5.26	526	0.031	-0.072	-0.989	0.2291832	0.0572958	0	3.68411994	1.2891555	-45.38400318
5.27	527	0.03	-0.07	-0.99	0.286479	-0.0572958	0	3.68984952	1.2891555	-45.38400318
5.28	528	0.03	-0.071	-0.99	0.4010706	-0.1145916	0.1145916	3.68984952	1.2891555	-45.3782736
5.29	529	0.028	-0.07	-0.992	0.4010706	0	0.0572958	3.6955791	1.2891555	-45.3782736
5.3	530	0.027	-0.07	-0.991	0.5156622	-0.0572958	0.0572958	3.6382833	1.27196676	-45.38400318
5.31	531	0.026	-0.071	-0.991	0.572958	0.0572958	0	3.64401288	1.27769634	-45.38400318
5.32	532	0.025	-0.071	-0.99	0.572958	0.1145916	0	3.64974246	1.27769634	-45.38400318
5.33	533	0.026	-0.072	-0.99	0.5156622	0.1718874	-0.0572958	3.65547204	1.27769634	-45.38400318
5.34	534	0.027	-0.071	-0.988	0.5156622	0.1718874	-0.1145916	3.66120162	1.28342592	-45.38400318
5.35	535	0.028	-0.071	-0.988	0.3437748	0.1718874	-0.1145916	3.52942128	1.27196676	-45.39546234
5.36	536	0.028	-0.07	-0.986	0.1145916	0	-0.0572958	3.52942128	1.27196676	-45.40119192
5.37	537	0.027	-0.069	-0.987	0.0572958	0	0	3.52942128	1.27769634	-45.40119192
5.38	538	0.028	-0.069	-0.988	0	0.0572958	0	3.52942128	1.27769634	-45.40119192
5.39	539	0.028	-0.069	-0.988	0.0572958	0.0572958	0	3.52942128	1.27769634	-45.40119192
5.4	540	0.028	-0.07	-0.988	0.2291832	0.0572958	0	3.42628884	1.26623718	-45.4069215
5.41	541	0.028	-0.071	-0.99	0.2291832	0.1145916	0	3.43201842	1.26623718	-45.4069215
5.42	542	0.028	-0.072	-0.991	0.1145916	0.2291832	0	3.43201842	1.27196676	-45.4069215
5.43	543	0.029	-0.073	-0.989	0.1145916	0.1718874	0	3.43201842	1.27196676	-45.4069215
5.44	544	0.028	-0.072	-0.989	0.1145916	0.2291832	0	3.437748	1.27769634	-45.4069215
5.45	545	0.029	-0.073	-0.988	0.0572958	0.1718874	0	3.38618178	1.26623718	-45.41265108
5.46	546	0.028	-0.073	-0.989	0.1145916	0.0572958	0.0572958	3.38618178	1.26623718	-45.41265108
5.47	547	0.029	-0.073	-0.987	0.0572958	0.0572958	0.0572958	3.38618178	1.27196676	-45.4069215
5.48	548	0.029	-0.073	-0.986	0	0	0.0572958	3.38618178	1.27196676	-45.4069215
5.49	549	0.03	-0.073	-0.986	0	0.1145916	0.0572958	3.38618178	1.27196676	-45.4069215
5.5	550	0.028	-0.072	-0.986	0.0572958	0.0572958	0.1145916	3.34607472	1.25477802	-45.41265108
5.51	551	0.029	-0.074	-0.987	0	0	0.1145916	3.34607472	1.25477802	-45.4069215
5.52	552	0.029	-0.073	-0.985	-0.0572958	-0.0572958	0.1145916	3.34607472	1.25477802	-45.4069215
5.53	553	0.029	-0.073	-0.986	-0.0572958	-0.1145916	0.0572958	3.34034514	1.25477802	-45.4069215
5.54	554	0.029	-0.072	-0.987	-0.2291832	0	0.0572958	3.34034514	1.25477802	-45.4069215
5.55	555	0.028	-0.072	-0.986	-0.286479	0	0	3.2945085	1.25477802	-45.4069215
5.56	556	0.028	-0.072	-0.988	-0.286479	0	0	3.2945085	1.25477802	-45.4069215
5.57	557	0.029	-0.071	-0.987	-0.286479	0	0	3.28877892	1.25477802	-45.4069215
5.58	558	0.029	-0.071	-0.988	-0.3437748	-0.0572958	0	3.28877892	1.25477802	-45.4069215
5.59	559	0.029	-0.071	-0.988	-0.3437748	-0.0572958	0	3.28304934	1.25477802	-45.4069215
5.6	560	0.028	-0.072	-0.989	-0.286479	-0.1145916	0	3.25440144	1.24904844	-45.4069215
5.61	561	0.029	-0.072	-0.989	-0.2291832	-0.0572958	0	3.24867186	1.24904844	-45.4069215
5.62	562	0.029	-0.073	-0.989	-0.286479	-0.0572958	0	3.24867186	1.24904844	-45.4069215
5.63	563	0.027	-0.072	-0.989	-0.3437748	0	-0.0572958	3.24294228	1.24904844	-45.41265108
5.64	564	0.026	-0.071	-0.988	-0.2291832	0.0572958	-0.0572958	3.24294228	1.24904844	-45.41265108
5.65	565	0.026	-0.071	-0.988	-0.1145916	0	-0.0572958	3.21429438	1.24331886	-45.41265108
5.66	566	0.029	-0.07	-0.987	-0.1145916	0	-0.0572958	3.21429438	1.24331886	-45.41265108
5.67	567	0.03	-0.07	-0.987	-0.2291832	0	-0.0572958	3.2085648	1.24331886	-45.41265108
5.68	568	0.03	-0.069	-0.988	-0.3437748	-0.0572958	-0.0572958	3.2085648	1.24331886	-45.41838066
5.69	569	0.03	-0.069	-0.989	-0.1718874	-0.1145916	0	3.20283522	1.24331886	-45.41838066
5.7	570	0.03	-0.069	-0.989	-0.0572958	-0.2291832	0	3.16845774	1.24904844	-45.41838066
5.71	571	0.028	-0.073	-0.985	-0.0572958	-0.2291832	-0.0572958	3.16845774	1.24904844	-45.41838066
5.72	572	0.028	-0.076	-0.982	-0.286479	-0.3437748	0	3.16272816	1.24331886	-45.41838066
5.73	573	0.029	-0.076	-0.982	-0.6875496	-0.2291832	0	3.15699858	1.24331886	-45.41838066
5.74	574	0.028	-0.076	-0.983	-0.6875496	-0.286479	0.0572958	3.151269	1.23758928	-45.41838066
5.75	575	0.029	-0.073	-0.983	-0.4583664	-0.4583664	0.0572958	3.13408026	1.23758928	-45.41838066
5.76	576	0.029	-0.072	-0.985	-0.4583664	-0.4583664	0	3.13408026	1.2318597	-45.41838066
5.77	577	0.028	-0.07	-0.989	-0.286479	-0.4010706	0.1145916	3.12835068	1.2318597	-45.41838066
5.78	578	0.026	-0.069	-0.991	-0.0572958	-0.3437748	0.0572958	3.12835068	1.22613012	-45.41838066
5.79	579	0.027	-0.07	-0.993	0	-0.286479	0.0572958	3.12835068	1.22040054	-45.41838066
5.8	580	0.026	-0.07	-0.991	0.0572958	-0.286479	0.0572958	3.09970278	1.2032118	-45.41838066
5.81	581	0.026	-0.071	-0.988	0.1718874	-0.1145916	0	3.10543236	1.19748222	-45.41838066
5.82	582	0.026	-0.071	-0.988	0.1145916	0	-0.0572958	3.10543236	1.19748222	-45.41838066
5.83	583	0.027	-0.069	-0.988	0.286479	0	-0.0572958	3.11116194	1.19748222	-45.41838066
5.84	584	0.028	-0.068	-0.989	0.286479	0	-0.1145916	3.11116194	1.19748222	-45.41838066
5.85	585	0.031	-0.068	-0.99	0.286479	0	-0.1145916	3.08824362	1.20894138	-45.42411024
5.86	586	0.03	-0.068	-0.99	0.286479	0	-0.0572958	3.08824362	1.20894138	-45.42411024
5.87	587	0.03	-0.07	-0.99	0.286479	0	0	3.0939732	1.20894138	-45.42411024
5.88	588	0.03	-0.07	-0.991	0.3437748	0	0	3.09970278	1.20894138	-45.42411024
5.89	589	0.029	-0.07	-0.99	0.286479	0	0	3.09970278	1.20894138	-45.42411024
5.9	590	0.029	-0.07	-0.989	0.286479	0	0	3.08824362	1.21467096	-45.42411024
5.91	591	0.028	-0.07	-0.988	0.3437748	0	0	3.0939732	1.21467096	-45.42411024
5.92	592	0.028	-0.07	-0.988	0.3437748	0	0	3.09970278	1.21467096	-45.42411024
5.93	593	0.029	-0.071	-0.988	0.286479	0	0	3.09970278	1.21467096	-45.42411024
5.94	594	0.03	-0.072	-0.988	0.286479	0	0	3.10543236	1.21467096	-45.42411024
5.95	595	0.03	-0.074	-0.989	0.286479	0	0	3.11116194	1.22613012	-45.42411024
5.96	596	0.027	-0.075	-0.989	0.2291832	0.0572958	0	3.11116194	1.22613012	-45.42411024
5.97	597	0.027	-0.074	-0.989	0.0572958	0.2291832	0	3.11116194	1.22613012	-45.42411024
5.98	598	0.027	-0.075	-0.986	0.0572958	0.2291832	0	3.11689152	1.2318597	-45.42411024
5.99	599	0.028	-0.074	-0.985	0	0.3437748	0	3.11689152	1.2318597	-45.42411024
6	600	0.029	-0.075	-0.985	0.0572958	0.3437748	0	3.11689152	1.23758928	-45.42411024
6.01	601	0.031	-0.073	-0.987	-0.0572958	0.1718874	0	3.11689152	1.23758928	-45.42411024
6.02	602	0.031	-0.073	-0.987	-0.1145916	0	-0.0572958	3.11689152	1.24331886	-45.42411024
6.03	603	0.03	-0.072	-0.988	0	-0.0572958	-0.0572958	3.11689152	1.23758928	-45.42411024
6.04	604	0.029	-0.071	-0.988	0	-0.1145916	0	3.11689152	1.23758928	-45.42411024
6.05	605	0.028	-0.07	-0.989	0.0572958	-0.1145916	0	3.10543236	1.2318597	-45.42411024
6.06	606	0.026	-0.071	-0.989	0.1145916	-0.1145916	0.0572958	3.10543236	1.2318597	-45.42411024
6.07	607	0.025	-0.071	-0.99	0.1718874	-0.0572958	0.0572958	3.10543236	1.2318597	-45.42411024
