TimeStamp(s)	FrameCounter	AccX	AccY	AccZ	GyrX	GyrY	GyrZ	EulerX	EulerY	EulerZ
0.01	1	-0.037	-1	0.163	-1.9480572	-0.4583664	0	98.85244374	-1.90795014	-21.13642062
0.02	2	-0.036	-1.006	0.153	-3.8388186	-0.6875496	0.286479	98.81233668	-1.90795014	-21.14787978
0.03	3	-0.038	-1.008	0.15	-4.0680018	-0.4583664	0.3437748	98.77222962	-1.91367972	-21.15360936
0.04	4	-0.038	-1.011	0.148	-4.4117766	-0.4583664	0.5156622	98.72639298	-1.9194093	-21.15933894
0.05	5	-0.038	-1.013	0.145	-5.2139178	-0.572958	0.4583664	98.6633676	-1.9194093	-21.16506852
0.06	6	-0.036	-1.01	0.143	-5.6722842	-0.572958	0.4010706	98.6060718	-1.92513888	-21.1707981
0.07	7	-0.035	-1.011	0.144	-5.8441716	-0.9167328	0.3437748	98.548776	-1.92513888	-21.18225726
0.08	8	-0.034	-1.013	0.143	-6.4171296	-0.9740286	0.286479	98.48002104	-1.93086846	-21.19371642
0.09	9	-0.034	-1.016	0.137	-7.0473834	-1.0313244	0.286479	98.41126608	-1.93086846	-21.20517558
0.1	10	-0.034	-1.017	0.135	-7.734933	-1.0886202	0.1718874	98.32532238	-1.93086846	-21.21663474
0.11	11	-0.034	-1.017	0.13	-8.1932994	-0.9167328	0.0572958	98.23937868	-1.93086846	-21.2280939
0.12	12	-0.035	-1.018	0.127	-8.6516658	-0.859437	0.0572958	98.15343498	-1.93086846	-21.23955306
0.13	13	-0.035	-1.019	0.123	-9.0527364	-1.3178034	0	98.0617617	-1.92513888	-21.25101222
0.14	14	-0.035	-1.023	0.118	-9.453807	-1.5469866	-0.0572958	97.96435884	-1.92513888	-21.26820096
0.15	15	-0.036	-1.021	0.114	-10.5424272	-1.8334656	-0.0572958	97.84976724	-1.9194093	-21.29111928
0.16	16	-0.034	-1.02	0.112	-11.0580894	-1.718874	-0.2291832	97.73517564	-1.91367972	-21.30830802
0.17	17	-0.034	-1.025	0.11	-11.6310474	-1.3750992	-0.3437748	97.62058404	-1.90795014	-21.31976718
0.18	18	-0.038	-1.024	0.109	-12.7769634	-0.9740286	-0.6302538	97.4888037	-1.90222056	-21.33122634
0.19	19	-0.042	-1.024	0.112	-14.037471	-0.286479	-0.9740286	97.3455642	-1.8907614	-21.33695592
0.2	20	-0.046	-1.027	0.117	-14.8396122	0.286479	-1.3178034	97.19086554	-1.88503182	-21.33122634
0.21	21	-0.047	-1.024	0.117	-15.8136408	0.859437	-1.6042824	97.0304373	-1.86784308	-21.32549676
0.22	22	-0.048	-1.024	0.108	-16.329303	1.145916	-1.6042824	96.86427948	-1.85638392	-21.3140376
0.23	23	-0.044	-1.028	0.111	-17.6471064	2.1772404	-1.6615782	96.6866625	-1.84492476	-21.29111928
0.24	24	-0.043	-1.03	0.11	-19.1367972	3.151269	-1.432395	96.4861272	-1.8334656	-21.26247138
0.25	25	-0.039	-1.032	0.112	-20.1681216	3.6096354	-1.145916	96.27986232	-1.82773602	-21.22236432
0.26	26	-0.038	-1.031	0.109	-20.9702628	3.7815228	-0.7448454	96.06213828	-1.82773602	-21.18798684
0.27	27	-0.037	-1.03	0.11	-21.2567418	3.6669312	-0.0572958	95.84441424	-1.8334656	-21.15360936
0.28	28	-0.035	-1.033	0.118	-21.6005166	3.7815228	0.4010706	95.6266902	-1.84492476	-21.11923188
0.29	29	-0.033	-1.034	0.128	-22.8037284	4.4690724	0.8021412	95.39177742	-1.8621135	-21.07912482
0.3	30	-0.032	-1.036	0.117	-24.2361234	4.9847346	1.3750992	95.14540548	-1.87930224	-21.03901776
0.31	31	-0.032	-1.036	0.099	-25.9549974	4.870143	1.718874	94.87611522	-1.90795014	-20.99318112
0.32	32	-0.03	-1.038	0.093	-27.6738714	4.3544808	1.9480572	94.5953658	-1.93086846	-20.95307406
0.33	33	-0.029	-1.038	0.083	-30.0229992	3.8961144	1.8907614	94.28596848	-1.95951636	-20.92442616
0.34	34	-0.027	-1.033	0.072	-31.3980984	3.3804522	1.8334656	93.97084158	-1.98243468	-20.89577826
0.35	35	-0.026	-1.033	0.063	-32.0283522	2.9793816	1.718874	93.63852594	-2.005353	-20.86713036
0.36	36	-0.028	-1.029	0.055	-33.0023808	2.7501984	1.432395	93.30048072	-2.02254174	-20.84421204
0.37	37	-0.031	-1.023	0.055	-33.7472262	2.86479	0.8021412	92.95670592	-2.0340009	-20.82129372
0.38	38	-0.037	-1.013	0.053	-34.7785506	3.6669312	-0.0572958	92.60147196	-2.03973048	-20.79264582
0.39	39	-0.044	-1.007	0.053	-36.0390582	4.870143	-0.9167328	92.23477884	-2.0340009	-20.74680918
0.4	40	-0.046	-1.004	0.048	-37.3568616	5.5003968	-1.3750992	91.85089698	-2.02827132	-20.69524296
0.41	41	-0.04	-1.007	0.033	-38.8465524	5.9014674	-1.5469866	91.45555596	-2.02254174	-20.63794716
0.42	42	-0.034	-1.012	0.023	-40.2216516	6.5317212	-1.6615782	91.0430262	-2.01108258	-20.58065136
0.43	43	-0.026	-1.013	0.009	-41.539455	6.7036086	-1.718874	90.61903728	-1.99962342	-20.51762598
0.44	44	-0.021	-1.018	-0.003	-42.4561878	6.9900876	-1.718874	90.1835892	-1.98816426	-20.4546006
0.45	45	-0.018	-1.02	-0.011	-43.1437374	6.9327918	-1.4896908	89.74241154	-1.9767051	-20.39157522
0.46	46	-0.016	-1.018	-0.01	-44.404245	6.589017	-1.0313244	89.28977472	-1.97097552	-20.32854984
0.47	47	-0.012	-1.01	-0.01	-45.6647526	6.875496	-0.6302538	88.81994916	-1.97097552	-20.26552446
0.48	48	-0.008	-1.004	-0.013	-46.7533728	6.9900876	-0.3437748	88.34439402	-1.97097552	-20.20249908
0.49	49	-0.008	-1.002	-0.033	-48.0711762	7.3911582	-0.2291832	87.85165014	-1.97097552	-20.13374412
0.5	50	-0.011	-1	-0.053	-48.8160216	7.0473834	-0.5156622	87.35317668	-1.96524594	-20.07071874
0.51	51	-0.013	-1.006	-0.054	-49.9619376	6.6463128	-0.9740286	86.84324406	-1.95951636	-20.01342294
0.52	52	-0.016	-1.01	-0.061	-51.5089242	6.2452422	-1.3750992	86.3161227	-1.9480572	-19.95612714
0.53	53	-0.013	-1.016	-0.077	-52.712136	5.0420304	-1.3750992	85.77754218	-1.93659804	-19.9102905
0.54	54	-0.001	-1.019	-0.098	-53.1132066	4.4117766	-1.2605076	85.23896166	-1.92513888	-19.87591302
0.55	55	0.008	-1.003	-0.11	-53.3423898	2.86479	-0.8021412	84.69465156	-1.9194093	-19.8529947
0.56	56	0.012	-0.993	-0.111	-54.8320806	2.291832	-0.9167328	84.13315272	-1.91367972	-19.83580596
0.57	57	0.017	-0.987	-0.106	-55.1185596	1.2032118	-1.145916	83.57738346	-1.90222056	-19.83007638
0.58	58	0.019	-0.979	-0.094	-57.2958	0.8021412	-1.3178034	82.9929663	-1.89649098	-19.83007638
0.59	59	0.017	-0.963	-0.087	-57.6968706	1.6615782	-1.5469866	82.40854914	-1.88503182	-19.8243468
0.6	60	0.007	-0.96	-0.095	-58.9000824	2.0626488	-1.7761698	81.81267282	-1.86784308	-19.81288764
0.61	61	-0.003	-0.948	-0.107	-61.0773228	2.1772404	-2.005353	81.1881486	-1.85065434	-19.7956989
0.62	62	-0.013	-0.959	-0.117	-61.4210976	1.2605076	-2.1199446	80.56362438	-1.8334656	-19.7956989
0.63	63	-0.009	-0.972	-0.147	-62.2805346	-1.2605076	-1.5469866	79.93337058	-1.82773602	-19.81861722
0.64	64	-0.003	-0.982	-0.178	-63.02538	-4.870143	-0.3437748	79.2973872	-1.83919518	-19.87018344
0.65	65	0.01	-0.983	-0.188	-64.457775	-8.2505952	0.6875496	78.64421508	-1.8621135	-19.95612714
0.66	66	0.018	-0.982	-0.184	-63.884817	-11.4018642	1.5469866	78.00250212	-1.90222056	-20.07071874
0.67	67	0.021	-0.977	-0.191	-65.89017	-13.0634424	1.3750992	77.33787084	-1.9480572	-20.20249908
0.68	68	0.022	-0.954	-0.17	-68.1247062	-11.6883432	0.9167328	76.65605082	-1.98816426	-20.32282026
0.69	69	0.024	-0.931	-0.181	-68.3538894	-10.4851314	-0.2291832	75.96277164	-2.01108258	-20.43168228
0.7	70	0.026	-0.898	-0.166	-67.6663398	-10.313244	-1.6615782	75.2866812	-2.02254174	-20.5405443
0.71	71	0.023	-0.9	-0.177	-67.5517482	-10.3705398	-3.3231564	74.60486118	-2.02254174	-20.6551359
0.72	72	0.016	-0.903	-0.202	-69.9581718	-12.1467096	-3.4950438	73.90012284	-2.02827132	-20.78691624
0.73	73	0.013	-0.919	-0.228	-70.5311298	-15.8709366	-2.4064236	73.1953845	-2.05118964	-20.95307406
0.74	74	0.007	-0.944	-0.269	-72.3072996	-20.5118964	0.0572958	72.46772784	-2.11421502	-21.15360936
0.75	75	-0.002	-0.948	-0.292	-72.5937786	-25.2674478	3.0366774	71.74580076	-2.22307704	-21.38852214
0.76	76	-0.02	-0.936	-0.309	-73.7969904	-30.8251404	4.870143	71.01241452	-2.36631654	-21.67500114
0.77	77	-0.043	-0.909	-0.277	-75.8023434	-33.518043	4.583664	70.26183954	-2.5210152	-21.97866888
0.78	78	-0.045	-0.869	-0.267	-77.5785132	-32.8304934	2.4064236	69.48834624	-2.65279554	-22.2880662
0.79	79	-0.032	-0.856	-0.148	-80.2714158	-24.6944898	-0.4010706	68.69193462	-2.73873924	-22.52297898
0.8	80	-0.003	-0.802	-0.148	-77.6931048	-18.7930224	-2.0626488	67.91844132	-2.79030546	-22.7177847
0.81	81	0.008	-0.813	-0.23	-76.6044846	-23.7204612	-1.8334656	67.1506776	-2.86479	-22.9469679
0.82	82	-0.012	-0.798	-0.252	-79.8703452	-27.3873924	-1.9480572	66.35999556	-2.95646328	-23.21625816
0.83	83	-0.063	-0.797	-0.301	-80.4433032	-28.934379	-2.4064236	65.56358394	-3.05386614	-23.49700758
0.84	84	-0.111	-0.812	-0.338	-80.4433032	-27.3300966	-2.6356068	64.76144274	-3.14553942	-23.76056826
0.85	85	-0.155	-0.833	-0.369	-80.3287116	-22.1734746	-3.3231564	63.96503112	-3.22002396	-23.9782923
0.86	86	-0.2	-0.848	-0.386	-80.9589654	-13.6936962	-5.0993262	63.15143076	-3.24294228	-24.13299096
0.87	87	-0.221	-0.849	-0.384	-81.3027402	-4.1825934	-6.4171296	62.33210082	-3.21429438	-24.20174592
0.88	88	-0.24	-0.815	-0.347	-78.5525418	-0.5156622	-7.2192708	61.5356892	-3.16272816	-24.24758256
0.89	89	-0.265	-0.8	-0.332	-73.9688778	1.9480572	-6.7036086	60.78511422	-3.10543236	-24.2647713
0.9	90	-0.26	-0.781	-0.237	-75.057498	5.156622	-5.5576926	60.02880966	-3.04813656	-24.25331214
0.91	91	-0.237	-0.74	-0.296	-72.479187	-0.5156622	-4.0680018	59.29542342	-3.02521824	-24.28196004
0.92	92	-0.202	-0.749	-0.352	-70.9894962	-5.3285094	-2.4637194	58.57922592	-3.04240698	-24.34498542
0.93	93	-0.173	-0.77	-0.382	-68.468481	-7.161975	-1.5469866	57.88594674	-3.07105488	-24.41374038
0.94	94	-0.163	-0.807	-0.423	-67.1506776	-7.734933	-1.432395	57.2098563	-3.10543236	-24.4939545
0.95	95	-0.171	-0.846	-0.436	-67.7809314	-2.4064236	-3.4950438	56.52803628	-3.10543236	-24.53406156
0.96	96	-0.17	-0.877	-0.459	-70.0727634	5.2139178	-6.5317212	55.81756836	-3.03094782	-24.53406156
0.97	97	-0.163	-0.886	-0.411	-71.9635248	10.8289062	-9.167328	55.08418212	-2.91062664	-24.49968408
0.98	98	-0.179	-0.829	-0.408	-76.2607098	10.599723	-9.8548776	54.30495924	-2.7788463	-24.47103618
0.99	99	-0.232	-0.729	-0.367	-81.7038108	8.9381448	-7.3911582	53.47417014	-2.68144344	-24.44238828
1	100	-0.223	-0.593	-0.316	-83.938347	8.880849	-3.437748	52.62046272	-2.61841806	-24.39655164
1.01	101	-0.146	-0.449	-0.211	-82.2767688	8.3651868	0.7448454	51.78394404	-2.58977016	-24.32779668
1.02	102	-0.07	-0.269	-0.04	-80.4433032	4.9847346	3.3804522	50.95888452	-2.59549974	-24.27050088
1.03	103	-0.051	-0.111	0.06	-78.1514712	0.0572958	5.9587632	50.16820248	-2.65279554	-24.23039382
1.04	104	-0.016	0.014	0.024	-74.3699484	-0.286479	7.6203414	49.41189792	-2.7215505	-24.19028676
1.05	105	0.06	0.078	-0.064	-69.900876	8.5370742	6.1306506	48.68997084	-2.7215505	-24.08715432
1.06	106	0.028	0.172	-0.091	-48.4722468	9.3392154	5.3858052	48.19149738	-2.71009134	-23.98402188
1.07	107	-0.087	0.112	-0.242	-26.356068	8.2505952	5.5003968	47.91647754	-2.69863218	-23.88088944
1.08	108	-0.136	0.058	-0.054	-12.032118	28.1895336	2.9220858	47.77896762	-2.54393352	-23.65170624
1.09	109	-0.094	-0.123	-0.392	8.7089616	31.2835068	-0.1718874	47.85345216	-2.33766864	-23.41679346
1.1	110	-0.049	-0.475	-0.798	10.8289062	13.2353298	-3.3231564	47.9279367	-2.22307704	-23.33657934
1.11	111	0.05	-0.852	-1.165	-2.0626488	-13.2926256	-4.583664	47.91074796	-2.27464326	-23.46835968
1.12	112	0.106	-1.107	-0.889	-6.0733548	-15.9282324	-8.5370742	47.85918174	-2.31475032	-23.64597666
1.13	113	0.303	-1.292	-0.78	-0.0572958	0.1145916	-15.3552744	47.85918174	-2.20015872	-23.7491091
1.14	114	0.096	-1.142	-0.441	6.875496	-5.3858052	-22.8610242	47.93939586	-2.0626488	-23.93818524
1.15	115	-0.017	-0.977	-0.577	8.4224826	7.6776372	-31.9137606	48.03679872	-1.7761698	-24.0928839
1.16	116	0.05	-1.242	-0.725	19.0222056	0.4583664	-30.7678446	48.23733402	-1.54125702	-24.2934192
1.17	117	0.098	-1.438	-0.805	12.1467096	-4.297185	-17.8189938	48.36338478	-1.43812458	-24.44238828
1.18	118	0.099	-1.386	-0.885	6.016059	-11.5164558	-5.5576926	48.43213974	-1.46677248	-24.56843904
1.19	119	0.039	-1.249	-0.833	0.1145916	-18.7357266	-1.6042824	48.43786932	-1.5756345	-24.7231377
1.2	120	-0.049	-1.074	-0.807	-3.3804522	-15.8136408	-4.8128472	48.414951	-1.63865988	-24.87210678
1.21	121	-0.104	-1.045	-0.825	-4.9847346	-12.032118	-9.9694692	48.36911436	-1.64438946	-25.03253502
1.22	122	-0.12	-1.192	-0.792	-4.870143	-7.5057498	-12.8342592	48.32327772	-1.59855282	-25.17004494
1.23	123	-0.07	-1.3	-0.856	-7.734933	-4.2398892	-12.2040054	48.24879318	-1.53552744	-25.28463654
1.24	124	0.019	-1.382	-0.866	-9.7975818	-5.2712136	-9.6829902	48.15139032	-1.49542038	-25.38776898
1.25	125	0.055	-1.369	-0.783	-14.3812458	-11.2872726	-7.3911582	48.0138804	-1.51260912	-25.5252789
1.26	126	0.042	-1.302	-0.732	-18.6784308	-15.3552744	-6.4171296	47.83053384	-1.56990492	-25.68570714
1.27	127	-0.007	-1.239	-0.65	-22.0015872	-17.8762896	-6.5317212	47.6128098	-1.63865988	-25.86332412
1.28	128	-0.074	-1.178	-0.639	-23.9496444	-18.1054728	-8.021412	47.37789702	-1.70168526	-26.05240026
1.29	129	-0.117	-1.137	-0.655	-24.6944898	-16.7303736	-10.313244	47.13725466	-1.73606274	-26.24720598
1.3	130	-0.115	-1.141	-0.702	-25.78311	-14.0947668	-13.0061466	46.88515314	-1.74179232	-26.4420117
1.31	131	-0.076	-1.173	-0.748	-26.4706596	-12.3758928	-14.610429	46.62159246	-1.718874	-26.63108784
1.32	132	-0.029	-1.194	-0.747	-28.0176462	-11.2299768	-14.3812458	46.34657262	-1.6902261	-26.8144344
1.33	133	-0.002	-1.196	-0.75	-29.3354496	-10.4278356	-12.8342592	46.05436404	-1.67303736	-26.98059222
1.34	134	-0.006	-1.173	-0.718	-30.2521824	-9.8548776	-10.0840608	45.7506963	-1.67303736	-27.12383172
1.35	135	-0.03	-1.128	-0.696	-30.7105488	-9.1100322	-7.5057498	45.45275814	-1.68449652	-27.23842332
1.36	136	-0.061	-1.08	-0.67	-30.8251404	-8.6516658	-5.72958	45.14336082	-1.70741484	-27.34728534
1.37	137	-0.073	-1.028	-0.672	-30.8824362	-7.448454	-4.8128472	44.8339635	-1.72460358	-27.43322904
1.38	138	-0.084	-0.988	-0.683	-30.5386614	-6.589017	-4.1825934	44.52456618	-1.7475219	-27.51344316
1.39	139	-0.082	-0.956	-0.688	-30.080295	-5.0993262	-4.297185	44.22662802	-1.75325148	-27.57646854
1.4	140	-0.072	-0.946	-0.682	-29.220858	-2.6356068	-4.7555514	43.94014902	-1.7475219	-27.63376434
1.41	141	-0.062	-0.961	-0.676	-28.3041252	-0.6302538	-5.156622	43.65367002	-1.718874	-27.6738714
1.42	142	-0.058	-0.972	-0.658	-28.361421	0.6302538	-5.156622	43.36719102	-1.68449652	-27.70824888
1.43	143	-0.051	-0.96	-0.632	-29.0489706	2.0626488	-4.9274388	43.07498244	-1.63865988	-27.7311672
1.44	144	-0.045	-0.93	-0.635	-30.1948866	3.2085648	-4.4690724	42.76558512	-1.59282324	-27.74262636
1.45	145	-0.042	-0.894	-0.625	-31.7418732	4.297185	-3.7815228	42.46191738	-1.54125702	-27.73689678
1.46	146	-0.037	-0.866	-0.617	-32.8877892	5.5003968	-3.0939732	42.12960174	-1.48396122	-27.72543762
1.47	147	-0.038	-0.849	-0.624	-34.3201842	6.4744254	-2.8074942	41.77436778	-1.42093584	-27.7025193
1.48	148	-0.043	-0.839	-0.623	-36.382833	6.875496	-2.6356068	41.40767466	-1.35791046	-27.6738714
1.49	149	-0.041	-0.827	-0.615	-38.5027776	7.6776372	-2.6356068	41.01233364	-1.29488508	-27.6452235
1.5	150	-0.033	-0.815	-0.613	-40.5081306	7.6776372	-2.3491278	40.61699262	-1.22613012	-27.61084602
1.51	151	-0.023	-0.796	-0.601	-42.7426668	6.3598338	-2.005353	40.18154454	-1.1745639	-27.5879277
1.52	152	-0.01	-0.775	-0.587	-44.6334282	5.9014674	-1.6615782	39.72890772	-1.12299768	-27.5592798
1.53	153	-0.002	-0.756	-0.581	-46.123119	5.5576926	-1.432395	39.25908216	-1.07716104	-27.53636148
1.54	154	0.001	-0.735	-0.577	-47.2117392	5.72958	-1.0886202	38.77779744	-1.03705398	-27.50771358
1.55	155	-0.007	-0.719	-0.599	-48.5868384	5.443101	-0.6875496	38.29651272	-0.99694692	-27.47906568
1.56	156	-0.025	-0.696	-0.594	-49.847346	5.8441716	-0.4583664	37.7865801	-0.95683986	-27.4446882
1.57	157	-0.045	-0.672	-0.604	-49.7327544	7.2192708	-0.6302538	37.28237706	-0.90527364	-27.40458114
1.58	158	-0.056	-0.658	-0.593	-49.274388	8.2505952	-0.859437	36.77817402	-0.84224826	-27.3587445
1.59	159	-0.057	-0.641	-0.537	-46.7533728	8.2505952	-1.3178034	36.30261888	-0.7734933	-27.32436702
1.6	160	-0.056	-0.636	-0.526	-45.6074568	7.5057498	-1.145916	35.84998206	-0.72192708	-27.28425996
1.61	161	-0.053	-0.618	-0.522	-46.4668938	7.448454	-0.7448454	35.3801565	-0.66463128	-27.2441529
1.62	162	-0.045	-0.589	-0.541	-46.5814854	8.9381448	-0.286479	34.90460136	-0.59587632	-27.19831626
1.63	163	-0.038	-0.562	-0.561	-45.8939358	9.6256944	0	34.4347758	-0.52712136	-27.14102046
1.64	164	-0.038	-0.54	-0.549	-43.6021038	9.9121734	-0.1145916	33.98786856	-0.45263682	-27.08372466
1.65	165	-0.039	-0.543	-0.564	-38.7892566	12.4331886	-0.859437	33.6039867	-0.35523396	-27.02069928
1.66	166	-0.031	-0.574	-0.59	-34.4347758	14.037471	-1.8907614	33.24875274	-0.23491278	-26.9576739
1.67	167	-0.018	-0.61	-0.567	-30.366774	13.9228794	-2.4064236	32.93935542	-0.1145916	-26.89464852
1.68	168	-0.012	-0.637	-0.549	-27.3300966	13.0061466	-2.0626488	32.66433558	0	-26.8430823
1.69	169	-0.003	-0.642	-0.522	-25.0955604	11.745639	-1.145916	32.40650448	0.09167328	-26.7857865
1.7	170	0	-0.625	-0.51	-23.0902074	11.2872726	-0.6302538	32.19451002	0.18907614	-26.7284907
1.71	171	0	-0.6	-0.509	-20.912967	11.5164558	-0.859437	31.97678598	0.28074942	-26.6711949
1.72	172	-0.002	-0.583	-0.495	-18.334656	12.032118	-1.5469866	31.78770984	0.38961144	-26.61962868
1.73	173	-0.017	-0.564	-0.428	-14.610429	13.8655836	-2.86479	31.63874076	0.5156622	-26.56806246
1.74	174	-0.015	-0.588	-0.48	-8.1932994	16.329303	-3.9534102	31.55279706	0.67036086	-26.51649624
1.75	175	-0.009	-0.632	-0.458	-3.8961144	16.5011904	-4.010706	31.54706748	0.82505952	-26.45920044
1.76	176	-0.01	-0.676	-0.428	0.9167328	16.1001198	-3.2658606	31.55852664	0.9740286	-26.39617506
1.77	177	-0.001	-0.728	-0.425	3.0366774	15.756345	-1.9480572	31.58717454	1.1172681	-26.3274201
1.78	178	0.014	-0.775	-0.417	4.6409598	14.3812458	-0.1145916	31.63301118	1.23758928	-26.25293556
1.79	179	0.027	-0.808	-0.41	5.0993262	13.0061466	1.8334656	31.6845774	1.33499214	-26.16699186
1.8	180	0.034	-0.825	-0.383	5.3858052	11.8029348	3.3804522	31.83927606	1.42093584	-26.069589
1.81	181	0.038	-0.811	-0.371	5.2139178	11.2299768	4.297185	31.89084228	1.4896908	-25.97218614
1.82	182	0.033	-0.792	-0.363	5.3858052	11.2299768	4.1825934	31.94813808	1.56417534	-25.87478328
1.83	183	0.035	-0.772	-0.336	6.016059	10.4851314	3.7815228	32.01116346	1.6329303	-25.78311
1.84	184	0.042	-0.756	-0.321	6.875496	7.2765666	4.1825934	32.07991842	1.66730778	-25.70862546
1.85	185	0.053	-0.727	-0.263	7.5630456	1.0886202	5.0993262	32.21169876	1.65584862	-25.65705924
1.86	186	0.059	-0.681	-0.165	12.318597	-2.7501984	5.5003968	32.33774952	1.6042824	-25.62841134
1.87	187	0.115	-0.687	-0.254	10.6570188	-0.6302538	5.3285094	32.45234112	1.5756345	-25.58830428
1.88	188	0.128	-0.682	-0.14	12.5477802	-9.2819196	7.6203414	32.57839188	1.4610429	-25.57684512
1.89	189	0.13	-0.745	-0.475	12.2040054	-13.8082878	9.2819196	32.70444264	1.29488508	-25.57684512
1.9	190	0.151	-0.777	-0.554	6.7609044	-15.5844576	10.2559482	32.8304934	1.13445684	-25.57684512
1.91	191	0.168	-0.875	-0.44	9.6256944	-21.772404	10.7143146	32.92789626	0.89954406	-25.6112226
1.92	192	0.185	-0.972	-0.44	0	-25.1528562	10.2559482	32.93362584	0.64171296	-25.6685184
1.93	193	0.147	-1.041	-0.402	-9.453807	-30.8824362	9.2819196	32.83622298	0.33804522	-25.76019168
1.94	194	0.077	-1.077	-0.407	-20.8556712	-32.0283522	7.161975	32.6299581	0.03437748	-25.88051286
1.95	195	0.013	-1.083	-0.359	-34.950438	-24.8090814	5.6722842	32.32056078	-0.2005353	-25.97218614
1.96	196	-0.066	-1.112	-0.481	-45.9512316	-18.6784308	6.5317212	31.8564648	-0.39534102	-26.01802278
1.97	197	-0.177	-1.113	-0.509	-63.9421128	-16.1574156	9.9121734	31.20902226	-0.59014674	-26.01802278
1.98	198	-0.309	-1.08	-0.411	-79.4692746	-13.8082878	14.7823164	30.40115148	-0.79068204	-25.96645656
1.99	199	-0.443	-1.023	-0.337	-92.9337876	-12.0894138	18.1627686	29.46150036	-0.99694692	-25.8690537
2	200	-0.528	-0.889	-0.283	-100.4395374	-10.9434978	19.6524594	28.46455344	-1.22040054	-25.7544621
2.01	201	-0.541	-0.664	-0.248	-105.4815678	-2.8074942	21.0848544	27.3873924	-1.35791046	-25.57684512
2.02	202	-0.547	-0.434	-0.238	-101.4708618	9.9121734	22.0015872	26.35033842	-1.38655836	-25.33620276
2.03	203	-0.555	-0.179	-0.151	-95.2829154	28.3041252	20.8556712	25.37630982	-1.23758928	-25.01534628
2.04	204	-0.527	0.124	-0.068	-93.392154	57.582279	16.7876694	24.41374038	-0.81360036	-24.6085461
2.05	205	-0.296	0.4	-0.098	-91.2722094	87.089616	4.583664	23.45117094	-0.07448454	-24.19601634
2.06	206	0.158	0.613	-0.165	-84.9696714	98.6060718	-11.172681	22.58027478	0.84224826	-23.8923486
2.07	207	0.664	0.664	-0.266	-82.4486562	91.4440968	-19.194093	21.73229694	1.73033316	-23.69754288
2.08	208	0.944	0.579	-0.272	-92.9910834	76.5471888	-16.615782	20.78691624	2.47517856	-23.55430338
2.09	209	0.842	0.383	-0.122	-116.2531782	63.884817	-12.5477802	19.60089318	3.08824362	-23.4339822
2.1	210	0.551	0.265	-0.107	-142.380063	56.5509546	-14.1520626	18.14557986	3.64974246	-23.36522724
2.11	211	0.298	0.177	-0.287	-138.8277234	55.6915176	-17.3606274	16.7303736	4.20551172	-23.3480385
2.12	212	0.19	0.061	-0.485	-114.9926706	54.144531	-16.329303	15.5558097	4.74409224	-23.33657934
2.13	213	0.116	0.026	-0.452	-97.3455642	43.4875122	-10.886202	14.56459236	5.17381074	-23.31366102
2.14	214	0.053	0.141	-0.372	-98.7206634	29.507337	-6.4171296	13.56191586	5.46028974	-23.2907427
2.15	215	0.063	0.377	-0.37	-112.7581344	8.307891	-5.3285094	12.38735196	5.53477428	-23.31366102
2.16	216	0.157	0.684	-0.485	-125.477802	-19.8243468	-5.5003968	11.10965562	5.33996856	-23.4053343
2.17	217	0.307	0.855	-0.568	-122.0973498	-37.24227	1.432395	9.87206634	4.96181628	-23.4626301
2.18	218	0.518	1.038	-0.741	-104.278356	-44.117766	11.0007936	8.81782362	4.50344988	-23.4339822
2.19	219	0.651	1.49	-1.247	-62.9680842	-80.3287116	30.4240698	8.20475856	3.6669312	-23.26782438
2.2	220	0.38	2.133	-2.133	24.8090814	-112.6435428	45.7793442	8.48550798	2.50955604	-23.00999328
2.21	221	0.087	2.142	-2.872	92.532717	-115.7948118	40.393539	9.44807742	1.32926256	-22.82664672
2.22	222	0.037	1.757	-3.321	68.9268474	-92.1889422	-1.3750992	10.15281576	0.44690724	-23.02718202
2.23	223	0.525	0.435	-3.971	47.0971476	-67.2079734	-35.7525792	10.63983006	-0.12605076	-23.51419632
2.24	224	1.116	-0.714	-3.996	35.4088044	-62.1086472	-25.210152	11.01225276	-0.67036086	-23.89807818
2.25	225	0.603	-0.621	-3.996	-20.2254174	-88.9230816	28.934379	10.81744704	-1.58709366	-23.80067532
2.26	226	-0.096	-0.015	-3.996	-49.3889796	-107.429625	25.1528562	10.33043274	-2.68144344	-23.777757
2.27	227	-0.061	-0.436	-3.877	-6.2452422	-71.61975	9.5111028	10.27886652	-3.39191136	-23.82932322
2.28	228	0.138	-0.894	-1.229	-103.9345812	-19.5378678	45.2063862	9.20170548	-3.67266078	-23.41679346
2.29	229	0.205	0.406	-0.514	-109.0912032	-22.1734746	54.6601932	8.06151906	-3.9820581	-22.91259042
2.3	230	0.31	0.548	-1.468	-77.062851	-90.3554766	46.409598	7.26510744	-4.93316838	-22.59173394
2.31	231	0.28	0.679	-0.958	-81.8756982	-61.6502808	38.5600734	6.41140002	-5.59207008	-22.29379578
2.32	232	0.176	0.774	-0.833	-89.4387438	-22.2880662	28.361421	5.48320806	-5.85563076	-22.03596468
2.33	233	0.204	0.872	-0.611	-76.4325972	-20.5691922	19.4232762	4.69252602	-6.08481396	-21.86407728
2.34	234	0.047	0.762	-0.601	-57.0666168	-16.615782	15.469866	4.10237928	-6.26243094	-21.72083778
2.35	235	-0.162	0.597	-0.523	-45.550161	3.8388186	17.2460358	3.57525792	-6.25670136	-21.53749122
2.36	236	-0.379	0.45	-0.416	-27.0436176	14.0947668	19.7097552	3.27731976	-6.13638018	-21.32549676
2.37	237	-0.655	0.223	-0.409	-10.886202	17.6471064	17.0168526	3.14553942	-5.97022236	-21.13642062
2.38	238	-0.777	0.104	-0.321	-11.0580894	20.6837838	10.4851314	3.01948866	-5.77541664	-21.01609944
2.39	239	-0.71	0.045	-0.163	-25.3820394	20.05353	5.72958	2.7501984	-5.58061092	-20.9416149
2.4	240	-0.559	0.086	-0.213	-34.5493674	17.5898106	2.4637194	2.38923486	-5.443101	-20.89577826
2.41	241	-0.424	0.136	-0.415	-35.7525792	12.8342592	0.4583664	2.02254174	-5.32277982	-20.8843191
2.42	242	-0.43	0.201	-0.582	-38.4454818	6.5317212	0.1145916	1.62720072	-5.25975444	-20.87285994
2.43	243	-0.41	0.291	-0.735	-40.2789474	-1.4896908	-0.7448454	1.22040054	-5.28267276	-20.87858952
2.44	244	-0.393	0.341	-0.906	-38.2162986	-9.3392154	-3.0939732	0.83651868	-5.38007562	-20.912967
2.45	245	-0.349	0.309	-1.09	-34.091001	-11.0007936	-5.72958	0.48128472	-5.5003968	-20.96453322
2.46	246	-0.363	0.27	-1.234	-28.0176462	-7.7922288	-8.880849	0.20626488	-5.58061092	-21.0562065
2.47	247	-0.469	0.215	-1.282	-20.5691922	-2.6929026	-11.5737516	0.00572958	-5.60925882	-21.1707981
2.48	248	-0.507	0.145	-1.308	-12.032118	6.3598338	-11.172681	-0.09740286	-5.55196302	-21.27966012
2.49	249	-0.449	0.137	-1.293	-6.5317212	13.0061466	-8.2505952	-0.16042824	-5.42018268	-21.35987424
2.5	250	-0.39	0.14	-1.311	-1.8334656	13.5791046	-4.3544808	-0.18334656	-5.2998615	-21.39425172
2.51	251	-0.305	0.114	-1.295	3.8961144	11.0007936	-0.1145916	-0.1432395	-5.19099948	-21.39425172
2.52	252	-0.21	0.067	-1.282	6.302538	9.7975818	3.2085648	-0.0859437	-5.09359662	-21.35987424
2.53	253	-0.129	0.009	-1.22	8.0787078	9.3392154	6.4744254	-0.01145916	-4.99619376	-21.29684886
2.54	254	-0.079	-0.048	-1.115	10.2559482	11.745639	7.6776372	0.08021412	-4.88160216	-21.21663474
2.55	255	-0.071	-0.069	-1.006	9.6256944	15.6417534	6.4744254	0.18334656	-4.7269035	-21.14787978
2.56	256	-0.071	-0.062	-0.922	9.5111028	20.1681216	4.8128472	0.26929026	-4.5263682	-21.09631356
2.57	257	-0.081	-0.04	-0.876	10.9434978	23.0902074	3.3231564	0.37815228	-4.297185	-21.0562065
2.58	258	-0.098	-0.01	-0.807	10.6570188	25.496631	2.578311	0.48128472	-4.04508348	-21.02182902
2.59	259	-0.069	0.046	-0.766	9.6829902	30.1948866	2.6356068	0.572958	-3.74714532	-20.98172196
2.6	260	-0.028	0.105	-0.744	9.6256944	36.8411994	4.1825934	0.64744254	-3.3804522	-20.93015574
2.61	261	0.031	0.187	-0.739	11.2299768	41.7686382	4.0680018	0.75630456	-2.96792244	-20.87285994
2.62	262	0.111	0.298	-0.756	10.6570188	44.1750618	-0.9167328	0.85370742	-2.52674478	-20.86140078
2.63	263	0.153	0.325	-0.77	13.464513	45.263682	-7.734933	0.99121734	-2.07983754	-20.91869658
2.64	264	0.171	0.254	-0.806	18.9649098	45.4928652	-13.0061466	1.18029348	-1.62147114	-21.03328818
2.65	265	0.173	0.134	-0.864	23.3766864	44.1750618	-16.615782	1.4037471	-1.16883432	-21.17652768
2.66	266	0.161	0.003	-0.951	25.9549974	37.8725238	-17.7044022	1.66730778	-0.78495246	-21.33695592
2.67	267	0.141	-0.105	-1.009	28.8197874	30.5959572	-16.615782	1.95378678	-0.46982556	-21.485925
2.68	268	0.136	-0.187	-1.066	31.1689152	26.069589	-14.610429	2.26891368	-0.20626488	-21.61770534
2.69	269	0.127	-0.233	-1.093	32.8304934	23.6058696	-13.464513	2.60122932	0.03437748	-21.73802652
2.7	270	0.159	-0.273	-1.122	34.37748	25.2674478	-13.464513	2.95646328	0.29793816	-21.85261812
2.71	271	0.184	-0.308	-1.155	30.2521824	19.9389384	-12.032118	3.26013102	0.50993262	-21.96148014
2.72	272	0.185	-0.332	-1.156	24.8663772	10.9434978	-8.880849	3.50650296	0.62452422	-22.04169426
2.73	273	0.183	-0.34	-1.124	19.0795014	3.8388186	-5.2712136	3.70130868	0.67036086	-22.09326048
2.74	274	0.172	-0.311	-1.087	13.178034	-0.2291832	-3.0366774	3.83308902	0.67036086	-22.12190838
2.75	275	0.167	-0.267	-1.044	7.5057498	-1.6615782	-2.7501984	3.97632852	0.7161975	-22.15628586
2.76	276	0.161	-0.224	-1.001	3.0366774	-1.6615782	-3.0366774	4.00497642	0.70473834	-22.19066334
2.77	277	0.154	-0.193	-0.951	0.1145916	-1.0886202	-3.151269	4.010706	0.69327918	-22.22504082
2.78	278	0.158	-0.176	-0.919	-2.4637194	-0.1145916	-2.2345362	3.9820581	0.69327918	-22.24795914
2.79	279	0.157	-0.152	-0.906	-4.010706	-0.0572958	-0.9740286	3.94195104	0.69327918	-22.25368872
2.8	280	0.149	-0.116	-0.9	-4.297185	-0.3437748	0	3.91330314	0.78495246	-22.26514788
2.81	281	0.136	-0.076	-0.91	-3.724227	-0.9167328	0.4583664	3.87319608	0.7734933	-22.26514788
2.82	282	0.117	-0.035	-0.929	-2.4064236	-1.5469866	0.4010706	3.85027776	0.76203414	-22.2594183
2.83	283	0.093	-0.015	-0.944	-1.145916	-3.6669312	0.1718874	3.8388186	0.72192708	-22.2594183
2.84	284	0.052	-0.015	-0.968	-0.1718874	-7.2765666	0.2291832	3.8388186	0.65317212	-22.26514788
2.85	285	0.029	-0.017	-0.957	0.4583664	-5.156622	-0.2291832	3.77579322	0.60733548	-22.27660704
2.86	286	0.015	-0.025	-0.98	4.1252976	-3.437748	-0.4010706	3.81590028	0.57868758	-22.28233662
2.87	287	-0.009	-0.047	-0.985	7.1046792	-6.0733548	0	3.89038482	0.5156622	-22.2880662
2.88	288	-0.013	-0.06	-0.977	6.4171296	-7.0473834	0.5156622	3.95913978	0.44690724	-22.2880662
2.89	289	-0.01	-0.059	-0.984	5.0993262	-6.8182002	0.9167328	4.010706	0.37815228	-22.2880662
2.9	290	-0.015	-0.054	-0.996	4.5263682	-7.7922288	1.0886202	4.0393539	0.29220858	-22.28233662
2.91	291	-0.024	-0.043	-1.022	4.4690724	-9.1100322	1.0313244	4.08519054	0.2005353	-22.28233662
2.92	292	-0.038	-0.032	-1.038	5.0993262	-10.1986524	0.6302538	4.14248634	0.09740286	-22.2880662
2.93	293	-0.053	-0.03	-1.033	5.7868758	-10.7143146	0.0572958	4.19978214	0	-22.29952536
2.94	294	-0.058	-0.04	-1.018	6.4171296	-9.3965112	-0.6875496	4.2685371	-0.09167328	-22.31098452
2.95	295	-0.057	-0.054	-1.008	6.6463128	-7.6203414	-1.0313244	4.32010332	-0.18907614	-22.32817326
2.96	296	-0.055	-0.066	-0.996	6.5317212	-6.302538	-1.2032118	4.38885828	-0.24637194	-22.35109158
2.97	297	-0.047	-0.074	-0.982	6.2452422	-5.72958	-0.9740286	4.45188366	-0.30366774	-22.36255074
2.98	298	-0.04	-0.072	-0.977	5.3858052	-5.72958	-0.4583664	4.50917946	-0.36096354	-22.3740099
2.99	299	-0.041	-0.064	-0.976	4.5263682	-5.443101	0.1718874	4.5550161	-0.41252976	-22.37973948
3	300	-0.043	-0.052	-0.985	3.7815228	-5.2139178	0.4583664	4.56074568	-0.49274388	-22.37973948
3.01	301	-0.049	-0.041	-0.994	3.437748	-4.870143	0.3437748	4.59512316	-0.5443101	-22.37973948
3.02	302	-0.06	-0.043	-0.994	3.7815228	-3.8961144	-0.1145916	4.63523022	-0.57868758	-22.38546906
3.03	303	-0.065	-0.053	-0.99	3.6669312	-2.4064236	-0.859437	4.67533728	-0.6016059	-22.39692822
3.04	304	-0.066	-0.065	-0.991	3.3231564	-0.5156622	-1.4896908	4.70971476	-0.60733548	-22.41411696
3.05	305	-0.06	-0.077	-0.988	2.9793816	1.2032118	-1.8907614	4.72117392	-0.64171296	-22.42557612
3.06	306	-0.048	-0.084	-0.988	2.5210152	2.578311	-1.9480572	4.74409224	-0.61879464	-22.44276486
3.07	307	-0.033	-0.086	-0.987	2.005353	3.5523396	-1.7761698	4.76701056	-0.57868758	-22.45422402
3.08	308	-0.017	-0.087	-0.986	1.5469866	3.9534102	-1.4896908	4.77846972	-0.53858052	-22.46568318
3.09	309	-0.002	-0.088	-0.991	1.432395	3.7815228	-1.2032118	4.79565846	-0.49847346	-22.47714234
3.1	310	0.005	-0.091	-0.987	1.3178034	3.151269	-0.9167328	4.79565846	-0.4583664	-22.48287192
3.11	311	0.01	-0.095	-0.989	1.3750992	2.8074942	-0.7448454	4.80711762	-0.4297185	-22.4886015
3.12	312	0.013	-0.1	-0.99	1.4896908	2.4637194	-0.5156622	4.82430636	-0.40680018	-22.4886015
3.13	313	0.015	-0.109	-0.988	1.2605076	2.3491278	-0.4583664	4.83576552	-0.37815228	-22.49433108
3.14	314	0.017	-0.112	-0.987	0.859437	2.3491278	-0.286479	4.84722468	-0.35523396	-22.49433108
3.15	315	0.02	-0.112	-0.989	0.572958	2.3491278	-0.2291832	4.85868384	-0.29220858	-22.50006066
3.16	316	0.025	-0.109	-0.99	0.4010706	2.2345362	-0.1718874	4.86441342	-0.26929026	-22.49433108
3.17	317	0.03	-0.102	-0.991	0.3437748	2.1772404	-0.1145916	4.870143	-0.24637194	-22.49433108
3.18	318	0.033	-0.097	-0.991	0.3437748	1.718874	0	4.870143	-0.2291832	-22.49433108
3.19	319	0.034	-0.092	-0.987	0.4010706	1.2032118	0.2291832	4.87587258	-0.21772404	-22.4886015
3.2	320	0.033	-0.09	-0.984	0.286479	0.9740286	0.1718874	4.8128472	-0.08021412	-22.50006066
3.21	321	0.032	-0.088	-0.981	0	1.0313244	0.1718874	4.8128472	-0.06875496	-22.50006066
3.22	322	0.031	-0.084	-0.981	-0.2291832	1.2032118	0.2291832	4.80711762	-0.0572958	-22.49433108
3.23	323	0.029	-0.08	-0.983	-0.2291832	1.6042824	0.1718874	4.80711762	-0.04583664	-22.4886015
3.24	324	0.028	-0.078	-0.989	-0.0572958	1.4896908	0.0572958	4.80711762	-0.0286479	-22.4886015
3.25	325	0.027	-0.078	-0.992	0.3437748	1.3750992	0	4.7269035	0.04010706	-22.49433108
3.26	326	0.026	-0.081	-0.989	0.7448454	0.859437	0	4.73263308	0.05156622	-22.4886015
3.27	327	0.026	-0.083	-0.986	0.4583664	0.572958	0.0572958	4.73836266	0.0572958	-22.4886015
3.28	328	0.025	-0.083	-0.987	0.0572958	0.6302538	0.1718874	4.73836266	0.06302538	-22.4886015
3.29	329	0.024	-0.081	-0.988	-0.1718874	0.572958	0.1145916	4.73836266	0.06875496	-22.48287192
3.3	330	0.024	-0.082	-0.987	-0.4010706	0.286479	0.1145916	4.63523022	0.14896908	-22.49433108
3.31	331	0.023	-0.081	-0.985	-0.9167328	-0.0572958	0.0572958	4.62377106	0.14896908	-22.4886015
3.32	332	0.02	-0.079	-0.983	-1.0313244	-0.3437748	0.0572958	4.6123119	0.1432395	-22.4886015
3.33	333	0.017	-0.077	-0.986	-0.8021412	-0.9167328	0	4.60658232	0.13750992	-22.49433108
3.34	334	0.011	-0.079	-0.986	-0.3437748	-1.7761698	0.1145916	4.60085274	0.12032118	-22.49433108
3.35	335	0.007	-0.079	-0.986	-0.1145916	-1.8334656	0.0572958	4.54355694	0.0859437	-22.49433108
3.36	336	0.003	-0.081	-0.988	0.0572958	-1.9480572	-0.1718874	4.54355694	0.06875496	-22.49433108
3.37	337	0	-0.085	-0.99	0.2291832	-1.8907614	-0.2291832	4.54355694	0.05156622	-22.50006066
3.38	338	-0.001	-0.087	-0.99	0.4010706	-1.9480572	-0.3437748	4.54928652	0.03437748	-22.50579024
3.39	339	0	-0.089	-0.989	0.4583664	-1.718874	-0.4010706	4.5550161	0.01718874	-22.51151982
3.4	340	0	-0.088	-0.988	0.4010706	-1.4896908	-0.4010706	4.53782736	-0.00572958	-22.5172494
3.41	341	-0.001	-0.086	-0.987	0.3437748	-1.2032118	-0.4010706	4.53782736	-0.01718874	-22.52297898
3.42	342	0.004	-0.086	-0.991	0.572958	-1.5469866	-0.4010706	4.54355694	-0.03437748	-22.52870856
3.43	343	0.004	-0.088	-0.987	0.7448454	-1.4896908	-0.286479	4.5550161	-0.04583664	-22.53443814
3.44	344	0.005	-0.089	-0.987	0.6875496	-1.5469866	-0.2291832	4.56074568	-0.06302538	-22.54016772
3.45	345	0.002	-0.09	-0.987	0.4583664	-1.6042824	-0.2291832	4.54355694	-0.0859437	-22.54016772
3.46	346	0.001	-0.089	-0.988	0.286479	-1.6042824	-0.2291832	4.54928652	-0.10313244	-22.5458973
3.47	347	0	-0.086	-0.989	0.286479	-1.5469866	-0.1718874	4.54928652	-0.12032118	-22.55162688
3.48	348	0	-0.085	-0.989	0.5156622	-1.4896908	-0.2291832	4.5550161	-0.13178034	-22.55162688
3.49	349	-0.002	-0.083	-0.989	0.6302538	-1.2032118	-0.286479	4.56647526	-0.1432395	-22.55735646
3.5	350	0	-0.086	-0.992	0.9167328	-0.572958	-0.286479	4.53209778	-0.16042824	-22.56308604
3.51	351	0.002	-0.086	-0.995	1.0313244	-0.286479	-0.2291832	4.54355694	-0.16042824	-22.56308604
3.52	352	0.006	-0.088	-0.994	1.145916	-0.2291832	-0.1718874	4.5550161	-0.16615782	-22.56881562
3.53	353	0.01	-0.092	-0.993	0.9167328	0	0	4.56074568	-0.16615782	-22.56881562
3.54	354	0.012	-0.091	-0.993	0.4010706	0.0572958	0	4.56647526	-0.16615782	-22.56881562
3.55	355	0.013	-0.089	-0.993	0.1145916	0	0.0572958	4.39458786	-0.04583664	-22.5745452
3.56	356	0.01	-0.086	-0.991	-0.1145916	0	0.0572958	4.39458786	-0.04583664	-22.5745452
3.57	357	0.009	-0.084	-0.986	-0.1718874	0	0	4.38885828	-0.04583664	-22.5745452
3.58	358	0.007	-0.083	-0.988	-0.1718874	0	-0.0572958	4.38885828	-0.04583664	-22.5745452
3.59	359	0.007	-0.083	-0.986	0	-0.0572958	-0.1145916	4.38885828	-0.04583664	-22.58027478
3.6	360	0.005	-0.085	-0.985	0	0	-0.2291832	4.297185	-0.05156622	-22.58027478
3.61	361	0.004	-0.088	-0.984	0	0.1145916	-0.286479	4.297185	-0.05156622	-22.58600436
3.62	362	0.006	-0.087	-0.984	0	0.286479	-0.2291832	4.297185	-0.04583664	-22.58600436
3.63	363	0.008	-0.085	-0.987	0	0.4583664	-0.286479	4.297185	-0.04583664	-22.58600436
3.64	364	0.01	-0.084	-0.991	0.286479	0.4010706	-0.2291832	4.297185	-0.04010706	-22.59173394
3.65	365	0.01	-0.081	-0.995	0.6302538	0.286479	-0.1145916	4.25134836	-0.02291832	-22.59173394
3.66	366	0.011	-0.083	-0.996	0.6875496	0.1718874	-0.1718874	4.25707794	-0.01718874	-22.59746352
3.67	367	0.011	-0.086	-0.993	0.6875496	0.0572958	-0.1145916	4.2685371	-0.01718874	-22.59746352
3.68	368	0.009	-0.087	-0.988	0.5156622	0.1145916	-0.1718874	4.27426668	-0.01718874	-22.59746352
3.69	369	0.008	-0.091	-0.983	0.286479	0.0572958	-0.1718874	4.27426668	-0.01145916	-22.6031931
3.7	370	0.008	-0.09	-0.98	-0.0572958	0.1145916	-0.1145916	4.22270046	-0.01145916	-22.6031931
3.71	371	0.005	-0.087	-0.98	-0.1718874	0	-0.1145916	4.21697088	-0.01145916	-22.6031931
3.72	372	0.008	-0.084	-0.986	-0.1145916	-0.0572958	-0.1718874	4.21697088	-0.01145916	-22.60892268
3.73	373	0.003	-0.085	-0.982	-0.0572958	-0.9740286	-0.1718874	4.21697088	-0.01718874	-22.60892268
3.74	374	0.003	-0.085	-0.986	0.3437748	-0.8021412	-0.2291832	4.22270046	-0.0286479	-22.61465226
3.75	375	0.003	-0.087	-0.987	0.572958	-0.7448454	-0.2291832	4.21697088	-0.04583664	-22.61465226
3.76	376	0.003	-0.09	-0.989	0.7448454	-0.5156622	-0.2291832	4.22270046	-0.04583664	-22.62038184
3.77	377	0.007	-0.092	-0.989	0.6875496	-0.2291832	-0.2291832	4.22843004	-0.05156622	-22.62038184
3.78	378	0.009	-0.092	-0.991	0.5156622	-0.1718874	-0.0572958	4.23415962	-0.05156622	-22.62038184
3.79	379	0.011	-0.092	-0.991	0.2291832	-0.1145916	-0.1145916	4.2398892	-0.05156622	-22.62611142
3.8	380	0.013	-0.09	-0.991	-0.0572958	-0.1718874	-0.1145916	4.19405256	0	-22.631841
3.81	381	0.014	-0.088	-0.989	-0.1145916	-0.1145916	-0.0572958	4.18832298	0	-22.631841
3.82	382	0.013	-0.085	-0.991	-0.1718874	-0.2291832	0	4.18832298	0	-22.631841
3.83	383	0.011	-0.085	-0.989	-0.1145916	-0.3437748	-0.0572958	4.18832298	0	-22.631841
3.84	384	0.007	-0.086	-0.986	-0.1145916	-0.5156622	-0.1718874	4.18832298	-0.00572958	-22.63757058
3.85	385	0.005	-0.088	-0.982	-0.1145916	-0.4010706	-0.2291832	4.16540466	-0.02291832	-22.63757058
3.86	386	0.004	-0.088	-0.98	-0.2291832	-0.286479	-0.2291832	4.15967508	-0.02291832	-22.64330016
3.87	387	0.005	-0.088	-0.981	-0.1718874	-0.1718874	-0.1718874	4.15967508	-0.0286479	-22.64330016
3.88	388	0.007	-0.086	-0.984	-0.2291832	-0.1145916	-0.1718874	4.15967508	-0.0286479	-22.64902974
3.89	389	0.007	-0.086	-0.986	0	-0.286479	-0.0572958	4.1539455	-0.0286479	-22.64902974
3.9	390	0.006	-0.085	-0.987	-0.1145916	-0.1718874	0	4.08519054	-0.01718874	-22.64902974
3.91	391	0.006	-0.086	-0.987	-0.4010706	0.0572958	0	4.07946096	-0.01718874	-22.64902974
3.92	392	0.008	-0.087	-0.985	-0.6302538	0.286479	0	4.07373138	-0.01145916	-22.64902974
3.93	393	0.008	-0.089	-0.986	-0.9167328	0.4010706	0	4.0680018	-0.00572958	-22.64902974
3.94	394	0.009	-0.09	-0.985	-1.2032118	0.4010706	0	4.05081306	-0.00572958	-22.64902974
3.95	395	0.008	-0.089	-0.987	-1.2032118	0.4010706	-0.0572958	4.03362432	0	-22.64902974
3.96	396	0.008	-0.087	-0.987	-1.145916	0.1145916	-0.1718874	4.02216516	0	-22.64902974
3.97	397	0.008	-0.085	-0.987	-1.0313244	0	-0.1145916	4.010706	0	-22.65475932
3.98	398	0.008	-0.084	-0.989	-0.6875496	-0.1145916	0	4.00497642	0	-22.65475932
3.99	399	0.007	-0.083	-0.991	-0.3437748	-0.1145916	0	3.99924684	0	-22.65475932
4	400	0.009	-0.084	-0.991	-0.0572958	-0.1145916	0	3.91330314	0.04010706	-22.65475932
4.01	401	0.01	-0.084	-0.992	0.1145916	-0.2291832	0	3.91330314	0.04010706	-22.65475932
4.02	402	0.01	-0.084	-0.99	0.1718874	-0.1718874	0.0572958	3.91903272	0.03437748	-22.65475932
4.03	403	0.011	-0.084	-0.992	0.1145916	-0.286479	0.1718874	3.91903272	0.03437748	-22.65475932
4.04	404	0.01	-0.085	-0.992	0	-0.4010706	0.1145916	3.91903272	0.0286479	-22.65475932
4.05	405	0.009	-0.084	-0.993	0.0572958	-0.3437748	0.1718874	3.90184398	0.03437748	-22.65475932
4.06	406	0.007	-0.084	-0.994	0.2291832	-0.3437748	0.0572958	3.90184398	0.0286479	-22.65475932
4.07	407	0.004	-0.084	-0.992	0.4010706	-0.1718874	-0.0572958	3.90757356	0.0286479	-22.65475932
4.08	408	0.006	-0.087	-0.99	0.4010706	-0.0572958	-0.1145916	3.91330314	0.0286479	-22.65475932
4.09	409	0.009	-0.087	-0.989	0.286479	-0.0572958	-0.0572958	3.91330314	0.0286479	-22.65475932
4.1	410	0.011	-0.086	-0.987	0.1145916	-0.0572958	0	3.87892566	0.09740286	-22.6604889
4.11	411	0.012	-0.084	-0.988	0.1145916	0	0	3.87892566	0.09740286	-22.6604889
4.12	412	0.012	-0.084	-0.989	0.1718874	0.0572958	0	3.87892566	0.09740286	-22.6604889
4.13	413	0.012	-0.086	-0.988	0.1718874	0.1145916	0	3.88465524	0.09740286	-22.6604889
4.14	414	0.012	-0.087	-0.982	-0.0572958	0	0	3.88465524	0.09740286	-22.6604889
4.15	415	0.01	-0.087	-0.979	-0.4010706	-0.1718874	0	3.87319608	0.10313244	-22.6604889
4.16	416	0.008	-0.086	-0.979	-0.3437748	-0.286479	0	3.8674665	0.10313244	-22.6604889
4.17	417	0.007	-0.085	-0.98	-0.2291832	-0.286479	0.0572958	3.86173692	0.09740286	-22.6604889
4.18	418	0.008	-0.085	-0.98	-0.2291832	-0.3437748	0.1145916	3.86173692	0.09167328	-22.6604889
4.19	419	0.008	-0.086	-0.984	-0.2291832	-0.3437748	0.1718874	3.85600734	0.09167328	-22.6604889
4.2	420	0.007	-0.086	-0.989	-0.2291832	-0.4010706	0.1718874	3.8388186	0.08021412	-22.65475932
4.21	421	0.004	-0.086	-0.989	0	-0.4010706	0.1145916	3.84454818	0.07448454	-22.65475932
4.22	422	0.003	-0.087	-0.988	0.1718874	-0.3437748	0	3.84454818	0.06875496	-22.65475932
4.23	423	0.004	-0.086	-0.989	0.1718874	-0.3437748	0	3.84454818	0.06875496	-22.65475932
4.24	424	0.006	-0.086	-0.986	0.1718874	-0.286479	0	3.85027776	0.06302538	-22.65475932
4.25	425	0.009	-0.085	-0.985	0.1145916	-0.2291832	0	3.8388186	0.06875496	-22.65475932
4.26	426	0.009	-0.086	-0.986	0.2291832	-0.1718874	0.0572958	3.84454818	0.06875496	-22.65475932
4.27	427	0.01	-0.086	-0.986	0.0572958	-0.1718874	0.0572958	3.84454818	0.06875496	-22.65475932
4.28	428	0.011	-0.086	-0.987	0	-0.2291832	0.0572958	3.84454818	0.06302538	-22.65475932
4.29	429	0.01	-0.083	-0.988	-0.0572958	-0.1718874	0.0572958	3.84454818	0.06302538	-22.65475932
4.3	430	0.01	-0.083	-0.989	-0.1718874	-0.1145916	0.1145916	3.81590028	0.07448454	-22.65475932
4.31	431	0.009	-0.084	-0.987	-0.1145916	-0.1718874	0.0572958	3.81590028	0.07448454	-22.65475932
4.32	432	0.009	-0.083	-0.984	-0.1145916	-0.2291832	0.0572958	3.81590028	0.07448454	-22.65475932
4.33	433	0.009	-0.085	-0.984	0	-0.4583664	0.0572958	3.81590028	0.06875496	-22.65475932
4.34	434	0.008	-0.086	-0.982	0.1145916	-0.4583664	0.0572958	3.81590028	0.06302538	-22.65475932
4.35	435	0.009	-0.088	-0.982	0.1145916	-0.4010706	0.0572958	3.82162986	0.0572958	-22.64902974
4.36	436	0.009	-0.09	-0.985	0	-0.1718874	0.1145916	3.82162986	0.0572958	-22.64902974
4.37	437	0.009	-0.086	-0.99	-0.1145916	0	0	3.82162986	0.0572958	-22.64902974
4.38	438	0.009	-0.087	-0.99	-0.1145916	0.0572958	0	3.82162986	0.0572958	-22.64902974
4.39	439	0.007	-0.086	-0.99	-0.1718874	0.3437748	0	3.82162986	0.0572958	-22.64902974
4.4	440	0.009	-0.087	-0.989	-0.3437748	0.4010706	0	3.81590028	0.06875496	-22.64902974
4.41	441	0.01	-0.089	-0.987	-0.3437748	0.4010706	0	3.81590028	0.07448454	-22.64902974
4.42	442	0.009	-0.088	-0.984	-0.572958	0.3437748	0	3.8101707	0.07448454	-22.64902974
4.43	443	0.008	-0.086	-0.984	-0.5156622	0.0572958	-0.1145916	3.80444112	0.08021412	-22.64902974
4.44	444	0.008	-0.086	-0.985	-0.4010706	-0.1718874	-0.1145916	3.79871154	0.07448454	-22.65475932
4.45	445	0.006	-0.085	-0.988	-0.1718874	-0.1145916	-0.1718874	3.78725238	0.06875496	-22.65475932
4.46	446	0.006	-0.085	-0.99	0.0572958	-0.0572958	-0.1145916	3.78725238	0.06302538	-22.65475932
4.47	447	0.008	-0.086	-0.992	0.4583664	0	-0.1145916	3.79298196	0.06302538	-22.6604889
4.48	448	0.01	-0.085	-0.993	0.5156622	0.1718874	-0.0572958	3.79871154	0.06875496	-22.6604889
4.49	449	0.01	-0.086	-0.993	0.6302538	0.286479	0	3.80444112	0.06875496	-22.6604889
4.5	450	0.01	-0.085	-0.993	0.5156622	0.2291832	0.0572958	3.80444112	0.08021412	-22.65475932
4.51	451	0.01	-0.087	-0.993	0.3437748	0.3437748	0	3.8101707	0.0859437	-22.65475932
4.52	452	0.009	-0.087	-0.991	0.1145916	0.3437748	0	3.8101707	0.0859437	-22.65475932
4.53	453	0.007	-0.087	-0.988	0	0.4583664	0	3.8101707	0.09167328	-22.65475932
4.54	454	0.007	-0.087	-0.983	-0.2291832	0.4583664	0	3.8101707	0.09740286	-22.65475932
4.55	455	0.007	-0.085	-0.983	-0.3437748	0.4010706	-0.0572958	3.79871154	0.10313244	-22.65475932
4.56	456	0.006	-0.084	-0.981	-0.3437748	0.4010706	-0.0572958	3.79871154	0.10313244	-22.65475932
4.57	457	0.007	-0.082	-0.982	-0.2291832	0.1145916	-0.0572958	3.79298196	0.10886202	-22.65475932
4.58	458	0.009	-0.083	-0.984	-0.1145916	0.0572958	0	3.79298196	0.10886202	-22.65475932
4.59	459	0.01	-0.083	-0.986	0.0572958	0	0	3.79298196	0.10886202	-22.65475932
4.6	460	0.011	-0.084	-0.987	0.2291832	0	0.0572958	3.7815228	0.12032118	-22.65475932
4.61	461	0.012	-0.086	-0.988	0.286479	0	0.0572958	3.7815228	0.12032118	-22.65475932
4.62	462	0.011	-0.086	-0.99	0.286479	-0.1718874	0.1718874	3.78725238	0.12032118	-22.65475932
4.63	463	0.012	-0.085	-0.991	0.2291832	-0.286479	0.1145916	3.79298196	0.1145916	-22.65475932
4.64	464	0.012	-0.085	-0.991	0.1718874	-0.286479	0.0572958	3.79298196	0.1145916	-22.65475932
4.65	465	0.013	-0.085	-0.991	0.0572958	-0.1718874	0.1145916	3.78725238	0.12605076	-22.65475932
4.66	466	0.013	-0.086	-0.996	0.0572958	-0.286479	0.0572958	3.78725238	0.12032118	-22.64902974
4.67	467	0.013	-0.088	-1.003	0.286479	-0.6302538	0.0572958	3.78725238	0.1145916	-22.64902974
4.68	468	0.015	-0.09	-1.006	0.7448454	-0.5156622	0.1145916	3.79871154	0.10886202	-22.64902974
4.69	469	0.016	-0.095	-1.017	0.9740286	-0.6875496	0.2291832	3.80444112	0.10313244	-22.64902974
4.7	470	0.02	-0.099	-1.018	-0.0572958	-1.718874	0.1718874	3.81590028	0.09740286	-22.64902974
4.71	471	0.025	-0.11	-1.027	-0.9167328	-2.1772404	0.1718874	3.80444112	0.07448454	-22.64902974
4.72	472	0.047	-0.119	-1.045	-2.8074942	-2.8074942	0.3437748	3.77579322	0.04583664	-22.64902974
4.73	473	0.053	-0.119	-1.039	-4.583664	-4.5263682	0.8021412	3.72995658	0	-22.64330016
4.74	474	0.029	-0.119	-1.023	-5.0993262	-6.3598338	1.2032118	3.67839036	-0.0572958	-22.63757058
4.75	475	-0.002	-0.116	-0.991	-6.7609044	-6.4744254	1.145916	3.61536498	-0.12605076	-22.631841
4.76	476	-0.031	-0.092	-0.943	-8.880849	-3.7815228	0.8021412	3.52942128	-0.16615782	-22.62611142
4.77	477	-0.045	-0.054	-0.902	-7.8495246	-1.718874	0.9167328	3.44920716	-0.18334656	-22.61465226
4.78	478	-0.05	-0.027	-0.882	-2.291832	-1.2032118	0.7448454	3.42628884	-0.2005353	-22.60892268
4.79	479	-0.038	-0.022	-0.888	2.578311	-2.1772404	0	3.44920716	-0.21772404	-22.60892268
4.8	480	-0.014	-0.022	-0.923	4.3544808	-2.9220858	-0.9167328	3.48358464	-0.25210152	-22.62611142
4.81	481	0.011	-0.027	-0.985	6.3598338	-4.1252976	-1.7761698	3.54661002	-0.29220858	-22.64330016
4.82	482	0.029	-0.045	-1.027	9.9121734	-4.6409598	-2.291832	3.64974246	-0.33231564	-22.67194806
4.83	483	0.037	-0.067	-1.07	12.0894138	-4.2398892	-2.1199446	3.77006364	-0.3724227	-22.70059596
4.84	484	0.007	-0.075	-1.091	13.2926256	-3.3231564	-1.6615782	3.90757356	-0.4010706	-22.7177847
4.85	485	-0.038	-0.085	-1.107	15.9282324	-2.1199446	-0.9167328	4.0680018	-0.42398892	-22.73497344
4.86	486	-0.06	-0.13	-1.079	18.1627686	-0.5156622	-0.859437	4.25707794	-0.4297185	-22.74070302
4.87	487	-0.054	-0.181	-1.039	15.2406828	0.1718874	-0.9167328	4.4117766	-0.42398892	-22.75216218
4.88	488	-0.037	-0.214	-0.993	8.9381448	0.572958	-0.9167328	4.4977203	-0.41252976	-22.76362134
4.89	489	-0.021	-0.214	-0.956	1.8334656	0.5156622	-1.2032118	4.52063862	-0.40680018	-22.7750805
4.9	490	0.005	-0.182	-0.926	-2.8074942	-0.2291832	-1.2605076	4.51490904	-0.40680018	-22.78653966
4.91	491	0.023	-0.129	-0.913	-4.9847346	-0.572958	-0.6875496	4.46334282	-0.41252976	-22.79226924
4.92	492	0.023	-0.063	-0.897	-6.1879464	-0.5156622	0	4.40031744	-0.41825934	-22.79226924
4.93	493	0.005	-0.016	-0.892	-5.8441716	0.8021412	0.1718874	4.34302164	-0.41252976	-22.79226924
4.94	494	-0.002	0	-0.896	-4.7555514	2.8074942	-0.4010706	4.29145542	-0.38388186	-22.79226924
4.95	495	0.007	-0.012	-0.943	-3.9534102	3.5523396	-0.9740286	4.22843004	-0.3437748	-22.79799882
4.96	496	0.016	-0.039	-0.996	-2.578311	2.9220858	-1.2032118	4.19978214	-0.3151269	-22.80945798
4.97	497	0.028	-0.069	-1.022	-1.9480572	2.005353	-1.3178034	4.1825934	-0.29220858	-22.82091714
4.98	498	0.034	-0.09	-1.022	-2.578311	1.2605076	-1.145916	4.1539455	-0.28074942	-22.82664672
4.99	499	0.035	-0.108	-1	-4.870143	1.8907614	-0.6875496	4.10237928	-0.26356068	-22.8323763
5	500	0.027	-0.12	-0.982	-8.3651868	3.151269	-0.1145916	4.02789474	-0.2291832	-22.8323763
5.01	501	0.007	-0.115	-0.96	-12.032118	3.2085648	0.4010706	3.90184398	-0.2005353	-22.82091714
5.02	502	-0.003	-0.093	-0.936	-14.8396122	1.432395	0.5156622	3.7528749	-0.18907614	-22.81518756
5.03	503	0	-0.073	-0.93	-15.9282324	0.4010706	0.286479	3.59244666	-0.18334656	-22.80945798
5.04	504	0.008	-0.052	-0.956	-15.8136408	0.9740286	0.1718874	3.43201842	-0.17761698	-22.80945798
5.05	505	0.019	-0.052	-0.966	-15.5271618	2.005353	0.2291832	3.2658606	-0.15469866	-22.8037284
5.06	506	0.024	-0.063	-0.963	-18.4492476	2.9220858	0.9740286	3.08251404	-0.13178034	-22.78653966
5.07	507	0.02	-0.07	-0.965	-21.6578124	2.8074942	2.005353	2.85906042	-0.10313244	-22.76362134
5.08	508	0.011	-0.091	-0.954	-24.5226024	1.8334656	2.9793816	2.61268848	-0.09167328	-22.72924386
5.09	509	0.003	-0.102	-0.959	-28.5906042	0.286479	3.8388186	2.3204799	-0.09167328	-22.6891368
5.1	510	-0.001	-0.084	-0.992	-29.793816	-2.1199446	4.4117766	2.02254174	-0.12032118	-22.64330016
5.11	511	0.003	-0.049	-1.012	-26.2414764	-3.6096354	4.297185	1.75325148	-0.16042824	-22.6031931
5.12	512	0.017	-0.021	-1.011	-19.5951636	-4.5263682	3.724227	1.55271618	-0.20626488	-22.56881562
5.13	513	0.025	-0.009	-1.009	-14.2093584	-4.9274388	2.9793816	1.40947668	-0.2578311	-22.54016772
5.14	514	0.029	-0.003	-1.011	-11.45916	-4.6982556	2.578311	1.29488508	-0.30939732	-22.51151982
5.15	515	0.031	-0.004	-1.016	-9.167328	-4.0680018	2.6356068	1.19748222	-0.3437748	-22.4886015
5.16	516	0.024	-0.013	-1.019	-6.589017	-3.5523396	2.86479	1.12872726	-0.38388186	-22.4599536
5.17	517	0.005	-0.034	-1.016	-4.1825934	-4.010706	3.437748	1.0886202	-0.42398892	-22.4313057
5.18	518	-0.012	-0.054	-1.014	-2.86479	-4.4117766	3.6669312	1.0599723	-0.46982556	-22.39692822
5.19	519	-0.027	-0.065	-1.01	-3.151269	-4.1825934	3.3231564	1.02559482	-0.50993262	-22.36255074
5.2	520	-0.031	-0.069	-1.005	-4.010706	-3.3231564	2.86479	0.99121734	-0.55576926	-22.33390284
5.21	521	-0.028	-0.066	-1.002	-4.870143	-2.1199446	2.291832	0.9453807	-0.57868758	-22.31098452
5.22	522	-0.021	-0.059	-0.996	-4.8128472	-1.3178034	1.9480572	0.89381448	-0.59014674	-22.29379578
5.23	523	-0.013	-0.051	-0.993	-4.3544808	-0.572958	1.718874	0.84797784	-0.59587632	-22.27660704
5.24	524	-0.004	-0.043	-0.997	-3.5523396	-0.1145916	1.7761698	0.81360036	-0.6016059	-22.2594183
5.25	525	0.002	-0.038	-1.003	-2.8074942	-0.1718874	1.718874	0.78495246	-0.6016059	-22.24222956
5.26	526	0	-0.033	-1.006	-2.005353	-0.4010706	1.5469866	0.76203414	-0.60733548	-22.22504082
5.27	527	-0.002	-0.034	-1.008	-1.432395	-0.8021412	1.3750992	0.75057498	-0.61306506	-22.21358166
5.28	528	-0.007	-0.037	-1	-1.6615782	-1.2032118	1.0886202	0.73338624	-0.62452422	-22.2021225
5.29	529	-0.009	-0.043	-0.992	-2.5210152	-1.0313244	0.9167328	0.70473834	-0.63598338	-22.19066334
5.3	530	-0.008	-0.046	-0.982	-3.724227	-0.859437	0.9740286	0.67609044	-0.64744254	-22.17920418
5.31	531	-0.007	-0.042	-0.974	-4.8128472	-0.572958	0.8021412	0.6302538	-0.6589017	-22.1734746
5.32	532	-0.004	-0.029	-0.975	-5.3285094	0	0.6875496	0.572958	-0.6589017	-22.16774502
5.33	533	-0.004	-0.016	-0.989	-4.9274388	-0.1145916	0.3437748	0.52139178	-0.6589017	-22.16201544
5.34	534	-0.007	-0.011	-0.993	-4.4117766	-0.859437	0.0572958	0.47555514	-0.67036086	-22.16201544
