TimeStamp(s)	FrameCounter	AccX	AccY	AccZ	GyrX	GyrY	GyrZ	EulerX	EulerY	EulerZ
0.01	1	-0.027	-1.005	0.095	0.9167328	-0.3437748	-0.1718874	93.1916187	-0.6875496	-29.7365202
0.02	2	-0.03	-1.004	0.102	1.2032118	-0.4010706	-0.2291832	93.20307786	-0.6875496	-29.74224978
0.03	3	-0.03	-1.004	0.1	1.2605076	-0.1718874	-0.286479	93.21453702	-0.68182002	-29.74224978
0.04	4	-0.032	-1.003	0.1	1.0886202	-0.1718874	-0.4010706	93.22599618	-0.68182002	-29.74224978
0.05	5	-0.032	-1.004	0.099	1.145916	0	-0.4583664	93.26037366	-0.69327918	-29.74797936
0.06	6	-0.034	-1.005	0.101	1.0886202	0.2291832	-0.5156622	93.27183282	-0.6875496	-29.74224978
0.07	7	-0.036	-1.006	0.1	1.0313244	0.4583664	-0.572958	93.28329198	-0.68182002	-29.7365202
0.08	8	-0.035	-1.008	0.099	0.9167328	0.6302538	-0.572958	93.29475114	-0.67609044	-29.73079062
0.09	9	-0.033	-1.01	0.1	0.859437	0.6302538	-0.4583664	93.30048072	-0.67036086	-29.72506104
0.1	10	-0.031	-1.011	0.097	0.572958	0.4583664	-0.4010706	93.3348582	-0.69327918	-29.72506104
0.11	11	-0.029	-1.012	0.096	0.4010706	0.3437748	-0.3437748	93.34058778	-0.6875496	-29.71933146
0.12	12	-0.029	-1.012	0.095	0.2291832	0.1718874	-0.2291832	93.34631736	-0.6875496	-29.71933146
0.13	13	-0.031	-1.009	0.095	0.1145916	0.1145916	-0.286479	93.34631736	-0.68182002	-29.71360188
0.14	14	-0.032	-1.008	0.094	0.1145916	0.1718874	-0.286479	93.34631736	-0.68182002	-29.71360188
0.15	15	-0.034	-1.007	0.093	0	0.4583664	-0.3437748	93.36923568	-0.71046792	-29.71360188
0.16	16	-0.033	-1.006	0.094	0	0.4583664	-0.4010706	93.36923568	-0.71046792	-29.7078723
0.17	17	-0.034	-1.003	0.093	-0.1145916	0.6302538	-0.4010706	93.36923568	-0.70473834	-29.70214272
0.18	18	-0.034	-1.003	0.091	-0.1145916	0.5156622	-0.286479	93.36923568	-0.69900876	-29.69641314
0.19	19	-0.033	-1.001	0.092	-0.1718874	0.4583664	-0.3437748	93.3635061	-0.69900876	-29.69068356
0.2	20	-0.032	-1.001	0.091	-0.0572958	0.4583664	-0.286479	93.392154	-0.72765666	-29.69068356
0.21	21	-0.031	-0.998	0.09	0	0.572958	-0.4010706	93.392154	-0.72765666	-29.68495398
0.22	22	-0.032	-0.996	0.089	0.2291832	0.6302538	-0.5156622	93.392154	-0.72192708	-29.6792244
0.23	23	-0.032	-0.995	0.091	0.5156622	0.7448454	-0.572958	93.39788358	-0.7161975	-29.66776524
0.24	24	-0.033	-0.997	0.09	0.6875496	0.859437	-0.6302538	93.40361316	-0.71046792	-29.66203566
0.25	25	-0.033	-0.993	0.087	0.859437	0.7448454	-0.6875496	93.4208019	-0.72192708	-29.65630608
0.26	26	-0.032	-0.994	0.089	0.9740286	0.8021412	-0.6875496	93.43226106	-0.71046792	-29.64484692
0.27	27	-0.03	-0.994	0.091	1.3750992	0.9740286	-0.6875496	93.44372022	-0.70473834	-29.63911734
0.28	28	-0.028	-0.994	0.092	1.6615782	1.0313244	-0.7448454	93.46090896	-0.69900876	-29.62765818
0.29	29	-0.025	-0.997	0.09	1.8907614	1.0313244	-0.7448454	93.4780977	-0.69327918	-29.61619902
0.3	30	-0.022	-1	0.092	2.1199446	1.0313244	-0.8021412	93.5067456	-0.6875496	-29.60473986
0.31	31	-0.022	-1.003	0.091	2.291832	0.7448454	-0.8021412	93.52966392	-0.68182002	-29.5932807
0.32	32	-0.025	-1.002	0.093	2.4637194	0.5156622	-0.8021412	93.55258224	-0.67036086	-29.58755112
0.33	33	-0.026	-1.002	0.095	2.8074942	0.4010706	-0.7448454	93.58695972	-0.66463128	-29.58182154
0.34	34	-0.028	-1.002	0.095	2.86479	0.3437748	-0.859437	93.61560762	-0.6589017	-29.57609196
0.35	35	-0.028	-1.002	0.094	2.9793816	0.4010706	-0.7448454	93.6499851	-0.65317212	-29.57609196
0.36	36	-0.028	-1.003	0.095	3.151269	0.4010706	-0.7448454	93.678633	-0.64744254	-29.57036238
0.37	37	-0.027	-1.002	0.096	3.437748	0.4010706	-0.6302538	93.71874006	-0.64171296	-29.5646328
0.38	38	-0.024	-1.001	0.096	3.437748	0.4583664	-0.572958	93.75311754	-0.63598338	-29.55890322
0.39	39	-0.024	-0.998	0.097	3.6669312	0.4010706	-0.5156622	93.78749502	-0.6302538	-29.55317364
0.4	40	-0.025	-0.999	0.096	3.8388186	0.4010706	-0.4010706	93.83333166	-0.6302538	-29.54744406
0.41	41	-0.026	-0.998	0.098	3.9534102	0.2291832	-0.5156622	93.87343872	-0.62452422	-29.54744406
0.42	42	-0.027	-0.999	0.098	4.1252976	0.3437748	-0.5156622	93.91354578	-0.61879464	-29.54171448
0.43	43	-0.027	-1	0.098	4.1825934	0.3437748	-0.5156622	93.95365284	-0.61306506	-29.5359849
0.44	44	-0.028	-0.999	0.099	4.1825934	0.3437748	-0.5156622	93.99948948	-0.61306506	-29.53025532
0.45	45	-0.028	-0.998	0.101	4.4117766	0.3437748	-0.5156622	94.0510557	-0.61306506	-29.53025532
0.46	46	-0.027	-0.998	0.101	4.583664	0.4010706	-0.5156622	94.09689234	-0.60733548	-29.52452574
0.47	47	-0.028	-0.999	0.102	4.6982556	0.4010706	-0.6302538	94.14272898	-0.6016059	-29.51879616
0.48	48	-0.026	-1	0.103	4.870143	0.4583664	-0.7448454	94.1942952	-0.59014674	-29.51306658
0.49	49	-0.026	-1.002	0.106	4.8128472	0.4583664	-0.8021412	94.24013184	-0.58441716	-29.507337
0.5	50	-0.026	-1.002	0.104	4.870143	0.4010706	-0.8021412	94.29742764	-0.57868758	-29.50160742
0.51	51	-0.025	-1	0.105	4.8128472	0.1145916	-0.7448454	94.34326428	-0.572958	-29.49587784
0.52	52	-0.027	-0.999	0.107	4.9274388	0.2291832	-0.8021412	94.3948305	-0.56722842	-29.49587784
0.53	53	-0.029	-1	0.105	5.0420304	0.4583664	-0.8021412	94.44639672	-0.55576926	-29.49014826
0.54	54	-0.031	-0.998	0.105	5.2139178	0.4583664	-0.8021412	94.49796294	-0.55003968	-29.48441868
0.55	55	-0.03	-0.999	0.108	5.5003968	0.6302538	-0.6875496	94.55525874	-0.55003968	-29.4786891
0.56	56	-0.029	-1.001	0.109	5.5576926	0.6875496	-0.6302538	94.61255454	-0.5443101	-29.46722994
0.57	57	-0.03	-1.001	0.109	5.6149884	0.6875496	-0.572958	94.66985034	-0.53858052	-29.46150036
0.58	58	-0.031	-0.999	0.112	5.6722842	0.572958	-0.572958	94.72714614	-0.53285094	-29.4500412
0.59	59	-0.031	-1	0.112	5.8441716	0.6302538	-0.572958	94.79017152	-0.52712136	-29.44431162
0.6	60	-0.031	-0.999	0.112	5.9587632	0.9167328	-0.7448454	94.84746732	-0.52712136	-29.43285246
0.61	61	-0.032	-0.999	0.115	6.0733548	0.9167328	-0.6875496	94.9104927	-0.52139178	-29.4213933
0.62	62	-0.032	-0.997	0.116	6.2452422	1.0886202	-0.6875496	94.97351808	-0.50993262	-29.40993414
0.63	63	-0.03	-0.995	0.117	6.5317212	1.2605076	-0.6302538	95.04227304	-0.50993262	-29.39847498
0.64	64	-0.029	-0.995	0.118	6.7036086	1.2605076	-0.572958	95.111028	-0.50420304	-29.38128624
0.65	65	-0.027	-0.995	0.12	6.9900876	1.145916	-0.4583664	95.17978296	-0.50420304	-29.36982708
0.66	66	-0.026	-0.995	0.119	7.161975	1.0313244	-0.3437748	95.2542675	-0.49847346	-29.35836792
0.67	67	-0.027	-0.993	0.121	7.2765666	0.8021412	-0.4010706	95.32875204	-0.49274388	-29.34690876
0.68	68	-0.028	-0.992	0.124	7.6203414	1.0313244	-0.4583664	95.40323658	-0.49274388	-29.3354496
0.69	69	-0.029	-0.992	0.123	7.7922288	1.2032118	-0.572958	95.4834507	-0.4870143	-29.32399044
0.7	70	-0.029	-0.991	0.123	8.021412	1.2605076	-0.5156622	95.56366482	-0.4870143	-29.31253128
0.71	71	-0.029	-0.991	0.124	8.3651868	1.3750992	-0.5156622	95.64960852	-0.48128472	-29.29534254
0.72	72	-0.03	-0.992	0.126	8.59437	1.4896908	-0.5156622	95.73555222	-0.48128472	-29.2781538
0.73	73	-0.028	-0.992	0.127	8.8235532	1.5469866	-0.572958	95.8272255	-0.47555514	-29.26096506
0.74	74	-0.027	-0.993	0.129	9.1100322	1.4896908	-0.5156622	95.91889878	-0.46982556	-29.24377632
0.75	75	-0.024	-0.994	0.128	9.2819196	1.6042824	-0.5156622	96.01630164	-0.46982556	-29.22658758
0.76	76	-0.025	-0.993	0.131	9.453807	1.4896908	-0.4583664	96.1137045	-0.46409598	-29.20939884
0.77	77	-0.025	-0.994	0.131	9.5111028	1.2605076	-0.4010706	96.20537778	-0.46409598	-29.19793968
0.78	78	-0.025	-0.991	0.131	9.6829902	1.0886202	-0.5156622	96.30851022	-0.4583664	-29.18075094
0.79	79	-0.03	-0.993	0.122	9.740286	0.4010706	-0.572958	96.40591308	-0.45263682	-29.17502136
0.8	80	-0.033	-0.994	0.116	9.3965112	-1.0886202	-0.6302538	96.49758636	-0.44690724	-29.18648052
0.81	81	-0.033	-0.984	0.131	10.313244	-2.5210152	-0.9740286	96.6007188	-0.43544808	-29.20939884
0.82	82	-0.027	-0.988	0.154	12.2613012	-2.0626488	-1.6042824	96.72676956	-0.41252976	-29.22658758
0.83	83	-0.027	-0.994	0.164	13.4072172	-1.3750992	-2.005353	96.86427948	-0.38961144	-29.23804674
0.84	84	-0.022	-0.998	0.171	14.2093584	-0.572958	-2.291832	97.00751898	-0.36669312	-29.23804674
0.85	85	-0.016	-1.002	0.167	14.3812458	0.3437748	-2.5210152	97.15648806	-0.3437748	-29.22658758
0.86	86	-0.012	-1.008	0.168	14.1520626	0.6302538	-2.6929026	97.29972756	-0.3151269	-29.21512842
0.87	87	-0.008	-1.01	0.169	13.9228794	0.6302538	-2.8074942	97.44296706	-0.286479	-29.20366926
0.88	88	-0.012	-1.014	0.174	13.464513	0.7448454	-3.151269	97.58047698	-0.2578311	-29.1922101
0.89	89	-0.022	-1.018	0.174	12.7196676	0.6302538	-3.3231564	97.70652774	-0.22345362	-29.18075094
0.9	90	-0.031	-1.022	0.173	11.9175264	0.6302538	-3.3804522	97.8325785	-0.19480572	-29.16929178
0.91	91	-0.033	-1.022	0.18	11.1153852	0.6302538	-3.6096354	97.94144052	-0.16042824	-29.15210304
0.92	92	-0.025	-1.017	0.192	11.0007936	1.0886202	-3.8961144	98.05603212	-0.12032118	-29.1349143
0.93	93	-0.015	-1.022	0.187	10.4851314	1.4896908	-3.9534102	98.15916456	-0.0859437	-29.11199598
0.94	94	-0.009	-1.023	0.189	9.2819196	1.0313244	-3.2658606	98.25656742	-0.05156622	-29.09480724
0.95	95	-0.011	-1.016	0.192	7.9641162	-0.4583664	-2.1772404	98.34251112	-0.03437748	-29.10053682
0.96	96	-0.014	-1.009	0.21	7.448454	-2.7501984	-0.9167328	98.41699566	-0.01718874	-29.12345514
0.97	97	-0.032	-0.998	0.246	6.9900876	-5.9587632	0.0572958	98.4914802	-0.01145916	-29.18075094
0.98	98	-0.055	-0.987	0.256	6.3598338	-7.2192708	0.4583664	98.56023516	0	-29.2495059
0.99	99	-0.059	-0.997	0.24	5.9587632	-3.437748	-0.0572958	98.61753096	0	-29.28388338
1	100	-0.046	-1.009	0.208	5.2712136	2.9220858	-0.9740286	98.68055634	0	-29.25523548
1.01	101	-0.049	-1.012	0.175	4.297185	6.4744254	-1.4896908	98.7206634	0	-29.18648052
1.02	102	-0.069	-1.006	0.169	3.4950438	6.6463128	-1.4896908	98.75504088	0	-29.11772556
1.03	103	-0.072	-0.992	0.206	4.1825934	7.3338624	-2.005353	98.79514794	0.01145916	-29.04324102
1.04	104	-0.062	-1	0.238	5.6149884	8.4224826	-2.9220858	98.85244374	0.02291832	-28.95729732
1.05	105	-0.033	-1.014	0.233	4.9847346	9.167328	-2.7501984	98.90973954	0.03437748	-28.85989446
1.06	106	0.009	-1.013	0.22	2.0626488	9.0527364	-2.6356068	98.93265786	0.04010706	-28.76822118
1.07	107	0.048	-1.01	0.205	-0.7448454	6.7036086	-2.1772404	98.9211987	0.05156622	-28.69946622
1.08	108	0.066	-1.016	0.209	-0.572958	3.6096354	-2.005353	98.91546912	0.06302538	-28.66508874
1.09	109	0.045	-1.017	0.203	-0.6875496	0.6875496	-1.6042824	98.90973954	0.08021412	-28.65362958
1.1	110	0	-0.995	0.21	-0.4010706	-1.2605076	-1.3178034	98.9498466	0.0859437	-28.66508874
1.11	111	-0.031	-0.974	0.216	0.4010706	-1.0313244	-1.2032118	98.95557618	0.09740286	-28.67081832
1.12	112	-0.044	-0.956	0.218	1.145916	1.4896908	-1.6042824	98.96703534	0.10886202	-28.65362958
1.13	113	-0.046	-0.933	0.222	2.2345362	3.9534102	-1.3750992	98.98995366	0.12032118	-28.61352252
1.14	114	-0.039	-0.919	0.219	3.3231564	4.6982556	-0.4583664	99.02433114	0.1145916	-28.56768588
1.15	115	-0.026	-0.919	0.223	4.5263682	4.9847346	0.5156622	99.08162694	0.09740286	-28.51611966
1.16	116	-0.016	-0.937	0.213	5.2712136	5.5003968	1.2032118	99.13319316	0.07448454	-28.46455344
1.17	117	-0.013	-0.966	0.21	5.2139178	6.0733548	1.3750992	99.19048896	0.04583664	-28.40725764
1.18	118	-0.017	-0.991	0.207	5.0993262	5.8441716	1.145916	99.2363256	0.0286479	-28.34996184
1.19	119	-0.019	-1.008	0.201	4.6982556	5.6149884	0.4583664	99.28789182	0.01145916	-28.29839562
1.2	120	-0.021	-1.02	0.199	4.0680018	5.3285094	-0.286479	99.32799888	0	-28.2468294
1.21	121	-0.023	-1.023	0.196	3.151269	5.156622	-0.7448454	99.36237636	0	-28.1895336
1.22	122	-0.023	-1.024	0.195	2.6356068	5.2712136	-0.859437	99.38529468	0	-28.13796738
1.23	123	-0.025	-1.028	0.194	1.7761698	5.2139178	-0.5156622	99.40248342	0	-28.08640116
1.24	124	-0.028	-1.029	0.189	0.6302538	4.6409598	-0.0572958	99.408213	-0.01145916	-28.04056452
1.25	125	-0.031	-1.031	0.185	-0.4010706	3.7815228	0.5156622	99.40248342	-0.04010706	-28.00618704
1.26	126	-0.032	-1.028	0.183	-1.3750992	3.151269	1.0886202	99.38529468	-0.0572958	-27.97753914
1.27	127	-0.034	-1.023	0.183	-2.2345362	2.5210152	1.3178034	99.36237636	-0.07448454	-27.95462082
1.28	128	-0.033	-1.017	0.187	-2.9220858	2.0626488	1.4896908	99.33372846	-0.09167328	-27.93743208
1.29	129	-0.029	-1.012	0.187	-3.4950438	1.8907614	1.432395	99.2936214	-0.10886202	-27.92597292
1.3	130	-0.026	-1.004	0.186	-3.7815228	1.9480572	1.3750992	99.25924392	-0.13750992	-27.90878418
1.31	131	-0.025	-0.994	0.184	-4.1252976	2.1199446	1.3178034	99.21340728	-0.15469866	-27.89159544
1.32	132	-0.029	-0.984	0.183	-4.0680018	1.9480572	1.2605076	99.17330022	-0.1718874	-27.8744067
1.33	133	-0.029	-0.978	0.183	-3.8961144	2.1199446	1.3178034	99.13319316	-0.18907614	-27.85721796
1.34	134	-0.03	-0.974	0.188	-3.437748	1.8334656	1.6042824	99.09881568	-0.20626488	-27.84002922
1.35	135	-0.031	-0.973	0.196	-2.8074942	1.718874	2.005353	99.08162694	-0.24064236	-27.82857006
1.36	136	-0.028	-0.978	0.196	-2.578311	2.1772404	2.0626488	99.05297904	-0.26929026	-27.81138132
1.37	137	-0.023	-0.984	0.193	-2.86479	3.0939732	2.0626488	99.02433114	-0.29220858	-27.78273342
1.38	138	-0.019	-0.986	0.193	-2.8074942	3.8388186	1.8334656	98.99568324	-0.32085648	-27.74835594
1.39	139	-0.017	-0.984	0.197	-2.4064236	4.583664	1.3750992	98.96703534	-0.3437748	-27.70824888
1.4	140	-0.019	-0.983	0.194	-1.8334656	5.156622	0.859437	98.95557618	-0.36669312	-27.65668266
1.41	141	-0.024	-0.984	0.193	-1.3750992	5.72958	0.3437748	98.93838744	-0.37815228	-27.60511644
1.42	142	-0.023	-0.984	0.195	-0.9167328	6.302538	-0.0572958	98.92692828	-0.38961144	-27.54209106
1.43	143	-0.018	-0.981	0.194	-0.572958	6.5317212	-0.286479	98.9211987	-0.4010706	-27.47906568
1.44	144	-0.013	-0.982	0.197	-0.2291832	6.2452422	-0.3437748	98.9211987	-0.40680018	-27.4160403
1.45	145	-0.009	-0.988	0.195	-0.2291832	6.0733548	-0.572958	98.9211987	-0.40680018	-27.35301492
1.46	146	-0.005	-0.993	0.19	-0.5156622	6.1306506	-0.7448454	98.91546912	-0.41252976	-27.29571912
1.47	147	-0.004	-0.995	0.185	-0.6302538	5.7868758	-0.9167328	98.90973954	-0.41252976	-27.23842332
1.48	148	-0.008	-0.998	0.183	-0.4010706	5.0420304	-0.9740286	98.90400996	-0.41252976	-27.1868571
1.49	149	-0.012	-0.998	0.184	-0.1145916	4.4690724	-1.145916	98.89828038	-0.40680018	-27.14102046
1.5	150	-0.015	-0.995	0.185	0.2291832	4.0680018	-1.2605076	98.90973954	-0.40680018	-27.1009134
1.51	151	-0.018	-0.992	0.185	0.1718874	3.4950438	-1.3750992	98.90973954	-0.4010706	-27.06080634
1.52	152	-0.019	-0.99	0.187	0.286479	2.9220858	-1.0886202	98.90973954	-0.39534102	-27.03215844
1.53	153	-0.021	-0.99	0.186	0.2291832	1.9480572	-0.6875496	98.91546912	-0.38961144	-27.00924012
1.54	154	-0.02	-0.99	0.19	0.2291832	1.0313244	-0.3437748	98.91546912	-0.38961144	-26.99778096
1.55	155	-0.02	-0.992	0.183	0.1718874	0.1718874	-0.1718874	98.95557618	-0.4583664	-27.00351054
1.56	156	-0.02	-0.994	0.184	0.1145916	-0.4583664	-0.0572958	98.95557618	-0.45263682	-27.00924012
1.57	157	-0.022	-0.994	0.187	0.0572958	-0.8021412	-0.0572958	98.95557618	-0.45263682	-27.0149697
1.58	158	-0.023	-0.994	0.187	0.0572958	-0.9167328	-0.1718874	98.95557618	-0.44690724	-27.02642886
1.59	159	-0.027	-0.993	0.184	0.1145916	-1.0886202	-0.1718874	98.96130576	-0.44690724	-27.03788802
1.6	160	-0.028	-0.992	0.183	0.1145916	-1.2032118	-0.1145916	98.97276492	-0.47555514	-27.04934718
1.61	161	-0.027	-0.99	0.181	0.2291832	-1.6042824	0	98.9784945	-0.46982556	-27.06653592
1.62	162	-0.029	-0.989	0.185	0.1718874	-2.5210152	0.2291832	98.9784945	-0.46982556	-27.08945424
1.63	163	-0.03	-0.987	0.191	0.4010706	-3.151269	0.4010706	98.98422408	-0.46982556	-27.12383172
1.64	164	-0.03	-0.985	0.194	0.4010706	-3.0939732	0.286479	98.98995366	-0.46409598	-27.15247962
1.65	165	-0.031	-0.982	0.199	0.6875496	-2.86479	0.1718874	99.01860156	-0.48128472	-27.1868571
1.66	166	-0.03	-0.988	0.199	0.9167328	-2.4064236	-0.0572958	99.03006072	-0.47555514	-27.20977542
1.67	167	-0.03	-0.996	0.196	0.5156622	-1.8907614	-0.286479	99.0357903	-0.46409598	-27.22696416
1.68	168	-0.03	-0.999	0.193	0.1718874	-1.3750992	-0.3437748	99.04151988	-0.4583664	-27.23842332
1.69	169	-0.03	-1.002	0.191	0.2291832	-0.9740286	-0.5156622	99.04151988	-0.45263682	-27.24988248
1.7	170	-0.031	-1	0.19	0.286479	-0.8021412	-0.5156622	99.0644382	-0.4870143	-27.25561206
1.71	171	-0.031	-0.997	0.188	0.2291832	-0.859437	-0.3437748	99.07016778	-0.48128472	-27.26707122
1.72	172	-0.03	-0.993	0.189	0.1718874	-0.9740286	-0.2291832	99.07016778	-0.47555514	-27.2728008
1.73	173	-0.031	-0.987	0.19	0.1145916	-1.0886202	-0.1145916	99.07016778	-0.47555514	-27.28425996
1.74	174	-0.032	-0.985	0.19	0.3437748	-1.145916	-0.0572958	99.07589736	-0.46982556	-27.29571912
1.75	175	-0.035	-0.988	0.189	0.2291832	-1.0886202	-0.1718874	99.09881568	-0.5156622	-27.31290786
1.76	176	-0.036	-0.99	0.187	0.1718874	-0.859437	-0.1145916	99.10454526	-0.5156622	-27.31863744
1.77	177	-0.035	-0.993	0.184	0.1145916	-0.4583664	-0.286479	99.10454526	-0.50993262	-27.32436702
1.78	178	-0.037	-0.993	0.182	-0.0572958	-0.2291832	-0.3437748	99.10454526	-0.50420304	-27.32436702
1.79	179	-0.041	-0.993	0.178	-0.0572958	-0.1718874	-0.4010706	99.10454526	-0.49847346	-27.3300966
1.8	180	-0.043	-0.99	0.179	0	0	-0.4010706	99.10454526	-0.65317212	-27.34155576
1.81	181	-0.044	-0.989	0.176	0.0572958	0.4010706	-0.286479	99.10454526	-0.65317212	-27.33582618
1.82	182	-0.044	-0.988	0.175	0.1718874	0.572958	-0.1718874	99.10454526	-0.65317212	-27.3300966
1.83	183	-0.041	-0.988	0.176	0.286479	0.8021412	0.0572958	99.11027484	-0.65317212	-27.32436702
1.84	184	-0.037	-0.989	0.172	0.1145916	0.9740286	0.4010706	99.11027484	-0.6589017	-27.31290786
1.85	185	-0.033	-0.987	0.174	0.0572958	0.9740286	0.6875496	99.10454526	-0.69327918	-27.30717828
1.86	186	-0.03	-0.988	0.173	0.3437748	1.0886202	0.7448454	99.10454526	-0.70473834	-27.29571912
1.87	187	-0.027	-0.987	0.168	0.4583664	1.2605076	0.6875496	99.11027484	-0.71046792	-27.28425996
1.88	188	-0.028	-0.987	0.169	0.572958	1.432395	0.5156622	99.11600442	-0.72192708	-27.2728008
1.89	189	-0.03	-0.985	0.167	1.145916	1.4896908	0.572958	99.12746358	-0.72765666	-27.26134164
1.9	190	-0.03	-0.985	0.169	1.4896908	1.6042824	0.572958	99.13319316	-0.75057498	-27.2441529
1.91	191	-0.03	-0.981	0.172	1.8907614	1.6042824	0.6302538	99.15611148	-0.75630456	-27.22696416
1.92	192	-0.029	-0.98	0.177	2.4637194	1.4896908	0.572958	99.1790298	-0.76776372	-27.215505
1.93	193	-0.026	-0.981	0.186	2.8074942	1.2032118	0.6302538	99.2076777	-0.7734933	-27.20404584
1.94	194	-0.025	-0.981	0.187	2.9793816	0.859437	0.4583664	99.2363256	-0.77922288	-27.19831626
1.95	195	-0.025	-0.982	0.188	3.151269	0.9167328	0.2291832	99.27643266	-0.79068204	-27.1868571
1.96	196	-0.027	-0.981	0.187	3.3231564	1.6042824	-0.286479	99.31081014	-0.79068204	-27.16966836
1.97	197	-0.028	-0.981	0.186	3.8388186	2.1772404	-0.5156622	99.3509172	-0.79068204	-27.14675004
1.98	198	-0.031	-0.983	0.185	4.4117766	2.4637194	-0.6875496	99.39102426	-0.78495246	-27.12383172
1.99	199	-0.032	-0.984	0.184	4.6982556	2.5210152	-0.859437	99.44259048	-0.78495246	-27.09518382
2	200	-0.032	-0.984	0.186	5.3285094	2.291832	-0.7448454	99.4941567	-0.78495246	-27.0722655
2.01	201	-0.032	-0.983	0.188	5.7868758	2.291832	-0.6875496	99.5514525	-0.77922288	-27.04934718
2.02	202	-0.032	-0.98	0.191	6.2452422	2.4064236	-0.6875496	99.61447788	-0.77922288	-27.02069928
2.03	203	-0.029	-0.98	0.194	6.589017	2.6929026	-0.6302538	99.68323284	-0.77922288	-26.99205138
2.04	204	-0.03	-0.983	0.195	6.9900876	2.9793816	-0.7448454	99.7519878	-0.7734933	-26.96340348
2.05	205	-0.032	-0.986	0.195	6.9900876	3.0939732	-0.9167328	99.82647234	-0.7734933	-26.929026
2.06	206	-0.033	-0.987	0.194	6.9900876	3.2658606	-0.9740286	99.8952273	-0.7734933	-26.89464852
2.07	207	-0.035	-0.986	0.193	7.161975	3.2658606	-0.7448454	99.96398226	-0.76776372	-26.86027104
2.08	208	-0.036	-0.983	0.194	7.3911582	3.2658606	-0.572958	100.0384668	-0.76776372	-26.82589356
2.09	209	-0.035	-0.981	0.195	7.9068204	3.151269	-0.4010706	100.1186809	-0.7734933	-26.79151608
2.1	210	-0.034	-0.979	0.196	8.2505952	2.9220858	-0.0572958	100.2046246	-0.77922288	-26.76286818
2.11	211	-0.035	-0.978	0.199	8.6516658	2.6929026	0.0572958	100.2905683	-0.78495246	-26.73422028
2.12	212	-0.034	-0.979	0.199	9.1100322	2.8074942	0.286479	100.3822416	-0.79641162	-26.71130196
2.13	213	-0.031	-0.977	0.201	9.2246238	2.86479	0.286479	100.4739149	-0.8021412	-26.68265406
2.14	214	-0.029	-0.978	0.201	9.5111028	2.9793816	0.2291832	100.5713177	-0.81360036	-26.64827658
2.15	215	-0.03	-0.977	0.2	9.740286	2.86479	0.2291832	100.6687206	-0.82505952	-26.61962868
2.16	216	-0.03	-0.978	0.201	10.1986524	2.7501984	0.2291832	100.771853	-0.8307891	-26.59671036
2.17	217	-0.029	-0.978	0.202	10.4851314	2.4064236	0.2291832	100.8807151	-0.83651868	-26.56806246
2.18	218	-0.027	-0.982	0.205	10.7716104	2.1772404	0.286479	100.9895771	-0.84797784	-26.54514414
2.19	219	-0.026	-0.983	0.207	10.7716104	1.8907614	0.3437748	101.0984391	-0.85370742	-26.5279554
2.2	220	-0.028	-0.982	0.21	10.7716104	1.7761698	0.3437748	101.2073011	-0.859437	-26.51076666
2.21	221	-0.027	-0.981	0.214	10.7143146	1.8334656	0.286479	101.3161631	-0.87089616	-26.49357792
2.22	222	-0.027	-0.981	0.214	10.7716104	1.9480572	0.2291832	101.4250252	-0.87662574	-26.4706596
2.23	223	-0.025	-0.98	0.215	10.9434978	2.005353	0.2291832	101.5338872	-0.88235532	-26.45347086
2.24	224	-0.025	-0.979	0.216	11.3445684	1.3178034	0.4010706	101.6484788	-0.8880849	-26.43628212
2.25	225	-0.026	-0.977	0.221	11.6310474	1.0313244	0.6302538	101.7688	-0.89954406	-26.43055254
2.26	226	-0.028	-0.975	0.224	11.8602306	0.859437	0.6875496	101.8891211	-0.90527364	-26.41909338
2.27	227	-0.028	-0.974	0.225	11.9748222	1.0313244	0.7448454	102.0094423	-0.9167328	-26.40763422
2.28	228	-0.029	-0.974	0.222	12.2613012	1.145916	0.9167328	102.1297635	-0.92819196	-26.39617506
2.29	229	-0.03	-0.975	0.222	12.4331886	0.9167328	1.0886202	102.2558143	-0.93965112	-26.39044548
2.3	230	-0.032	-0.978	0.224	12.5477802	0.7448454	1.2032118	102.381865	-0.95683986	-26.3847159
2.31	231	-0.031	-0.974	0.228	12.7769634	0.6302538	1.3750992	102.5136454	-0.96829902	-26.37898632
2.32	232	-0.032	-0.971	0.23	13.178034	0.3437748	1.432395	102.6454257	-0.98548776	-26.37898632
2.33	233	-0.03	-0.968	0.236	13.2353298	0.286479	1.4896908	102.7829356	-0.99694692	-26.37325674
2.34	234	-0.028	-0.968	0.238	13.464513	0.286479	1.6042824	102.9204455	-1.01413566	-26.37325674
2.35	235	-0.028	-0.968	0.236	13.6936962	0.0572958	1.9480572	103.0579555	-1.03705398	-26.37898632
2.36	236	-0.025	-0.969	0.238	13.9228794	-0.0572958	2.3491278	103.1954654	-1.05424272	-26.37898632
2.37	237	-0.026	-0.972	0.234	14.1520626	-0.572958	2.6929026	103.3444345	-1.08289062	-26.39044548
2.38	238	-0.029	-0.971	0.236	14.037471	-1.3178034	2.9793816	103.487674	-1.10580894	-26.40763422
2.39	239	-0.032	-0.972	0.24	14.32395	-1.6042824	3.0939732	103.6309135	-1.12872726	-26.43055254
2.4	240	-0.036	-0.968	0.241	14.5531332	-1.718874	2.9793816	103.7798825	-1.15737516	-26.45347086
2.41	241	-0.036	-0.964	0.241	14.9542038	-1.4896908	2.9793816	103.9288516	-1.18029348	-26.4706596
2.42	242	-0.035	-0.964	0.237	15.2406828	-1.6615782	3.2085648	104.0835503	-1.20894138	-26.49357792
2.43	243	-0.036	-0.96	0.241	15.6417534	-2.578311	3.6096354	104.2439785	-1.2318597	-26.5279554
2.44	244	-0.038	-0.96	0.244	16.3865988	-3.437748	3.8961144	104.4158659	-1.2605076	-26.56806246
2.45	245	-0.04	-0.955	0.248	16.8449652	-3.7815228	4.0680018	104.5820237	-1.2891555	-26.60816952
2.46	246	-0.043	-0.95	0.248	17.18874	-4.010706	4.0680018	104.7596407	-1.3178034	-26.65400616
2.47	247	-0.048	-0.945	0.252	17.7044022	-4.010706	4.010706	104.9429873	-1.3464513	-26.70557238
2.48	248	-0.049	-0.952	0.247	18.4492476	-3.2658606	3.8961144	105.1320634	-1.3750992	-26.73994986
2.49	249	-0.048	-0.948	0.244	18.4492476	-3.0939732	4.1252976	105.3211396	-1.4037471	-26.78005692
2.5	250	-0.045	-0.948	0.247	19.5378678	-3.2658606	4.6982556	105.5159453	-1.43812458	-26.82016398
2.51	251	-0.045	-0.95	0.251	20.7983754	-3.3804522	5.443101	105.7279397	-1.48396122	-26.86600062
2.52	252	-0.048	-0.954	0.244	21.3140376	-4.010706	6.1306506	105.9456638	-1.52979786	-26.91756684
2.53	253	-0.055	-0.952	0.246	21.3140376	-4.9274388	6.589017	106.1633878	-1.5756345	-26.98059222
2.54	254	-0.058	-0.948	0.254	22.0015872	-5.156622	6.8182002	106.392571	-1.62147114	-27.0436176
2.55	255	-0.061	-0.946	0.252	22.4599536	-4.9847346	6.5317212	106.6160246	-1.67303736	-27.10664298
2.56	256	-0.062	-0.948	0.247	23.3766864	-4.8128472	6.1306506	106.856667	-1.71314442	-27.16966836
2.57	257	-0.058	-0.95	0.248	23.8923486	-5.156622	5.9014674	107.1030389	-1.75325148	-27.23269374
2.58	258	-0.048	-0.949	0.249	24.6944898	-5.3285094	5.9014674	107.3551405	-1.79335854	-27.29571912
2.59	259	-0.038	-0.953	0.249	25.6112226	-6.0733548	6.0733548	107.6187011	-1.82773602	-27.36447408
2.6	260	-0.038	-0.957	0.242	26.0122932	-7.734933	6.5317212	107.8765322	-1.8621135	-27.45614736
2.61	261	-0.042	-0.959	0.242	26.5852512	-9.167328	6.9327918	108.1515521	-1.89649098	-27.5592798
2.62	262	-0.041	-0.966	0.244	27.2728008	-9.5111028	6.7609044	108.4380311	-1.93086846	-27.66814182
2.63	263	-0.046	-0.977	0.214	26.5852512	-10.4278356	6.5317212	108.7130509	-1.95378678	-27.78273342
2.64	264	-0.057	-0.978	0.187	23.777757	-12.7769634	6.302538	108.9594229	-1.96524594	-27.91451376
2.65	265	-0.062	-0.966	0.198	23.204799	-13.750992	5.5576926	109.1828765	-1.9767051	-28.05775326
2.66	266	-0.052	-0.943	0.2	23.6058696	-13.2926256	4.2398892	109.4292484	-1.96524594	-28.19526318
2.67	267	-0.035	-0.921	0.228	25.210152	-12.2613012	2.9220858	109.6928091	-1.9480572	-28.31558436
2.68	268	-0.028	-0.901	0.235	26.5279554	-11.172681	1.6615782	109.9678289	-1.92513888	-28.4187168
2.69	269	-0.031	-0.877	0.232	27.3300966	-11.2299768	1.0886202	110.2485784	-1.8907614	-28.52184924
2.7	270	-0.034	-0.868	0.213	28.2468294	-11.9748222	1.0313244	110.5293278	-1.85638392	-28.63071126
2.71	271	-0.037	-0.848	0.223	28.2468294	-13.464513	0.9740286	110.8215364	-1.81627686	-28.75676202
2.72	272	-0.041	-0.822	0.226	30.0229992	-13.750992	0.1145916	111.1309337	-1.76471064	-28.8770832
2.73	273	-0.045	-0.796	0.209	30.8251404	-13.4072172	-0.859437	111.4517902	-1.70168526	-28.9916748
2.74	274	-0.053	-0.777	0.199	32.085648	-14.4385416	-2.005353	111.7841058	-1.62720072	-29.11199598
2.75	275	-0.05	-0.747	0.22	34.1482968	-14.4958374	-3.3804522	112.1278806	-1.53552744	-29.22658758
2.76	276	-0.033	-0.722	0.199	36.4401288	-12.4904844	-4.7555514	112.5060329	-1.44385416	-29.31826086
2.77	277	-0.018	-0.718	0.21	38.961144	-13.0634424	-5.2712136	112.9013739	-1.34072172	-29.40993414
2.78	278	-0.02	-0.718	0.255	43.9458786	-13.5791046	-4.583664	113.3540107	-1.23758928	-29.507337
2.79	279	-0.056	-0.724	0.279	47.0971476	-13.2353298	-2.0626488	113.8352954	-1.16310474	-29.61046944
2.8	280	-0.111	-0.733	0.271	50.6494872	-12.5477802	2.0626488	114.3509576	-1.13445684	-29.72506104
2.81	281	-0.142	-0.726	0.288	52.998615	-12.1467096	4.4690724	114.8952677	-1.1172681	-29.84538222
2.82	282	-0.155	-0.728	0.304	54.8320806	-11.2872726	5.0420304	115.451037	-1.11153852	-29.95997382
2.83	283	-0.156	-0.725	0.302	55.6342218	-9.8548776	4.0680018	116.0182654	-1.10580894	-30.05737668
2.84	284	-0.142	-0.721	0.288	56.3790672	-6.9900876	1.5469866	116.596953	-1.08289062	-30.11467248
2.85	285	-0.115	-0.731	0.27	57.2385042	-3.2085648	-2.005353	117.169911	-1.05424272	-30.12613164
2.86	286	-0.089	-0.743	0.256	57.7541664	-0.7448454	-5.3285094	117.7543282	-1.0026765	-30.10321332
2.87	287	-0.072	-0.749	0.25	58.2125328	0.0572958	-7.1046792	118.3444749	-0.93965112	-30.05737668
2.88	288	-0.067	-0.747	0.245	59.014674	0.2291832	-7.3911582	118.9460808	-0.87662574	-30.01154004
2.89	289	-0.071	-0.743	0.232	59.301153	1.7761698	-6.9900876	119.5419571	-0.82505952	-29.95424424
2.9	290	-0.07	-0.736	0.215	59.1865614	3.151269	-6.4744254	120.1321039	-0.78495246	-29.88548928
2.91	291	-0.07	-0.725	0.217	59.4730404	3.6096354	-6.1306506	120.7337098	-0.75057498	-29.81673432
2.92	292	-0.068	-0.72	0.226	60.2178858	3.6669312	-5.7868758	121.3467748	-0.72192708	-29.74797936
2.93	293	-0.069	-0.725	0.228	60.8481396	3.4950438	-5.2139178	121.9598399	-0.69900876	-29.68495398
2.94	294	-0.07	-0.729	0.242	61.0773228	4.0680018	-4.7555514	122.5786345	-0.68182002	-29.61619902
2.95	295	-0.061	-0.718	0.271	61.4783934	5.5576926	-5.0993262	123.1916996	-0.67036086	-29.5359849
2.96	296	-0.063	-0.699	0.262	61.592985	7.448454	-5.8441716	123.8162238	-0.66463128	-29.43285246
2.97	297	-0.071	-0.685	0.235	61.9940556	8.3651868	-6.1879464	124.440748	-0.6589017	-29.31826086
2.98	298	-0.071	-0.687	0.193	62.5097178	9.7975818	-5.8441716	125.0710018	-0.67036086	-29.19793968
2.99	299	-0.067	-0.698	0.155	63.6556338	10.4278356	-4.5263682	125.7184444	-0.69327918	-29.08334808
3	300	-0.063	-0.71	0.172	65.1453246	8.3651868	-2.1772404	126.3601573	-0.73338624	-28.99740438
3.01	301	-0.065	-0.707	0.223	67.322565	4.1825934	0.1145916	127.0419773	-0.75630456	-28.95156774
3.02	302	-0.073	-0.698	0.257	70.760313	1.9480572	1.718874	127.7581748	-0.78495246	-28.94010858
3.03	303	-0.069	-0.672	0.269	71.6770458	0.9740286	1.8907614	128.4858315	-0.80787078	-28.934379
3.04	304	-0.048	-0.64	0.282	75.343977	0.4583664	0.572958	129.2535952	-0.81360036	-28.92291984
3.05	305	-0.024	-0.611	0.283	79.9849368	0.4010706	-1.0886202	130.0557364	-0.80787078	-28.90000152
3.06	306	-0.002	-0.58	0.295	84.6258966	1.3178034	-3.2658606	130.9151734	-0.79641162	-28.85989446
3.07	307	0.01	-0.553	0.312	88.522011	3.3231564	-5.6149884	131.8089879	-0.77922288	-28.78540992
3.08	308	0.027	-0.534	0.301	91.2722094	6.0733548	-8.2505952	132.7314503	-0.76203414	-28.67081832
3.09	309	0.039	-0.524	0.292	93.5640414	8.0787078	-10.0840608	133.6825606	-0.7448454	-28.5333084
3.1	310	0.051	-0.518	0.288	96.0277608	10.0840608	-10.7716104	134.64513	-0.73911582	-28.37860974
3.11	311	0.057	-0.505	0.29	98.1477054	11.8029348	-10.7143146	135.6363473	-0.75630456	-28.20672234
3.12	312	0.031	-0.493	0.294	100.26765	14.2093584	-9.9121734	136.650483	-0.79068204	-28.02910536
3.13	313	-0.014	-0.469	0.28	101.1843828	16.6730778	-9.3392154	137.6703482	-0.85370742	-27.83429964
3.14	314	-0.047	-0.435	0.27	103.0751442	19.1367972	-9.740286	138.7131318	-0.93965112	-27.62803476
3.15	315	-0.081	-0.386	0.252	102.559482	21.5432208	-11.2872726	139.7387266	-1.03705398	-27.39312198
3.16	316	-0.106	-0.331	0.185	101.8719324	25.0382646	-13.750992	140.7643214	-1.15164558	-27.11810214
3.17	317	-0.098	-0.282	0.096	102.9605526	30.4813656	-16.8449652	141.8013754	-1.2891555	-26.79151608
3.18	318	-0.009	-0.229	-0.084	109.7787528	36.3255372	-19.3659804	142.9014548	-1.46677248	-26.4133638
3.19	319	0.165	-0.099	-0.052	124.5610692	33.0023808	-21.485925	144.1505032	-1.61574156	-26.0409411
3.2	320	0.335	0.277	0.492	146.390769	10.8289062	-14.7250206	145.6516532	-1.61574156	-25.8404058
3.21	321	0.345	2.769	0.262	51.2224452	1.6042824	6.8182002	146.173045	-1.67303736	-25.88051286
3.22	322	-0.485	-0.315	2.57	921.5456472	-96.7726062	-28.934379	155.5294491	-0.71046792	-25.92061992
3.23	323	0.487	0.692	1.498	254.2787604	9.0527364	-20.7410796	158.1077601	-0.75057498	-25.69143672
3.24	324	-0.089	0.051	-0.038	-10.9434978	41.8832298	2.6356068	157.9874389	-1.145916	-25.57111554
3.25	325	-0.45	0.385	2.377	164.8973124	32.8877892	2.4637194	159.6547467	-1.47250206	-25.4679831
3.26	326	-0.16	-0.178	3.327	237.4337952	19.8243468	0.9740286	162.0611703	-1.68449652	-25.38776898
3.27	327	-0.22	0.044	3.353	240.8142474	10.9434978	9.167328	164.5019714	-1.8334656	-25.42214646
3.28	328	-0.212	0.112	3.455	261.9563976	11.3445684	12.318597	167.1662261	-1.99962342	-25.49090142
3.29	329	-0.237	-0.093	3.574	267.9151608	0.8021412	12.5477802	169.8877766	-2.05691922	-25.5825747
3.3	330	-0.158	-0.105	3.422	256.7424798	-6.875496	9.9694692	172.4947355	-2.0340009	-25.66278882
3.31	331	-0.104	0.049	3.118	238.5224154	-12.7196676	4.5263682	174.9183478	-1.93659804	-25.6971663
3.32	332	-0.1	-0.065	2.826	216.8073072	-18.6784308	3.3231564	177.1242361	-1.7761698	-25.72008462
3.33	333	-0.294	-0.124	2.415	190.1647602	-16.3865988	-2.0626488	179.0551046	-1.6329303	-25.67997756
3.34	334	-0.392	0.08	2.096	167.9339898	-1.6042824	-4.583664	-179.2384511	-1.63865988	-25.62268176
3.35	335	-0.158	0.095	1.924	146.5626564	10.5424272	5.2712136	-177.7487603	-1.75898106	-25.6685184
3.36	336	-0.023	0.053	1.809	139.1142024	13.0634424	17.1314442	-176.3335541	-1.89649098	-25.8404058
3.37	337	-0.061	0.647	1.674	127.2539718	-2.6356068	12.8342592	-175.038669	-1.87357266	-25.9549974
3.38	338	0.298	0.504	1.403	102.9605526	-18.907614	7.161975	-173.9901559	-1.69595568	-25.99510446
3.39	339	0.077	-0.152	1.291	98.7779592	-36.4974246	-0.286479	-172.9817498	-1.3464513	-25.93780866
3.4	340	-0.233	0.276	1.588	141.3487386	-41.3102718	6.1306506	-171.5436252	-0.95683986	-25.92061992
3.41	341	-0.157	0.192	1.466	81.2454444	-0.0572958	-0.0572958	-170.7185657	-0.96829902	-25.91489034
3.42	342	-0.01	0.05	0.995	27.8457588	19.4232762	4.0680018	-170.4378163	-1.15164558	-25.98937488
3.43	343	-0.014	-0.274	0.71	7.1046792	6.6463128	7.2192708	-170.3633317	-1.20894138	-26.07531858
3.44	344	-0.158	-0.991	1.01	-2.86479	18.1627686	10.4278356	-170.3919796	-1.36364004	-26.2128285
3.45	345	-0.086	-0.727	0.881	-78.8963166	35.2942128	50.0192334	-171.1769321	-1.62147114	-26.77432734
3.46	346	0.055	0.624	0.668	-56.6655462	29.9084076	30.5386614	-171.7441605	-1.8621135	-27.1295613
3.47	347	-0.005	0.517	0.573	-57.9833496	25.0955604	34.8358464	-172.3228481	-2.05118964	-27.51344316
3.48	348	0.045	0.847	0.459	-52.0245864	20.8556712	7.9641162	-172.8499694	-2.2345362	-27.62803476
3.49	349	0.036	-0.233	0.401	-38.674665	20.912967	-4.2398892	-173.2453105	-2.44080108	-27.62230518
3.5	350	0.004	-0.279	0.548	-40.9092012	25.210152	0.4583664	-173.6005444	-2.68144344	-27.66814182
3.51	351	-0.061	-0.125	0.593	-36.096354	30.0229992	-4.583664	-173.9729671	-2.9793816	-27.66241224
3.52	352	-0.088	0.072	0.599	-36.1536498	33.7472262	-7.161975	-174.3453898	-3.31169724	-27.63949392
3.53	353	-0.096	0.198	0.691	-43.1437374	30.5959572	-7.734933	-174.7922971	-3.61536498	-27.59938686
3.54	354	-0.051	0.296	0.689	-40.7946096	27.3873924	-6.9327918	-175.2105564	-3.88465524	-27.56500938
3.55	355	-0.032	0.352	0.73	-30.5386614	22.9756158	-6.7609044	-175.4970354	-4.11383844	-27.5306319
3.56	356	-0.079	0.368	0.802	-20.2827132	20.7983754	-7.5057498	-175.7090299	-4.3258329	-27.47906568
3.57	357	-0.067	0.39	0.893	-18.3919518	21.1421502	-7.7922288	-175.9038356	-4.53782736	-27.42176988
3.58	358	-0.046	0.421	0.914	-24.350715	18.907614	-7.448454	-176.1559371	-4.72117392	-27.37020366
3.59	359	-0.125	0.367	0.963	-22.8610242	12.3758928	-7.1046792	-176.3965795	-4.84722468	-27.30717828
3.6	360	-0.105	0.298	1.007	-21.6005166	9.453807	-4.9274388	-176.5913852	-4.94462754	-27.2728008
3.61	361	-0.049	0.233	1.062	-23.5485738	10.599723	-3.7815228	-176.8377571	-5.04775998	-27.2441529
3.62	362	-0.102	0.227	1.077	-23.4339822	12.7196676	-3.6096354	-177.0783995	-5.17381074	-27.22123458
3.63	363	-0.172	0.21	1.049	-29.8511118	15.0687954	-5.3285094	-177.3877968	-5.32277982	-27.18112752
3.64	364	-0.229	0.189	1.127	-32.6013102	19.0222056	-5.72958	-177.725842	-5.50612638	-27.14102046
3.65	365	-0.125	0.173	1.208	-31.7418732	25.2674478	-3.7815228	-178.0466985	-5.75249832	-27.11810214
3.66	366	-0.116	0.098	1.215	-28.5333084	25.9549974	-1.2605076	-178.3389071	-6.01032942	-27.12383172
3.67	367	-0.157	0.081	1.181	-22.4026578	22.4026578	-0.0572958	-178.5680903	-6.22805346	-27.14102046
3.68	368	-0.157	0.041	1.143	-15.2979786	16.4438946	-0.1718874	-178.7285185	-6.3884817	-27.14675004
3.69	369	-0.167	0.054	1.09	-9.3392154	11.0580894	0	-178.8201918	-6.49734372	-27.15247962
3.7	370	-0.198	-0.078	1.125	-5.2712136	7.9641162	-0.6875496	-178.9004059	-6.589017	-27.14675004
3.71	371	-0.207	0.053	1.091	-1.7761698	6.4171296	-1.7761698	-178.9233242	-6.65204238	-27.1295613
3.72	372	-0.161	-0.029	1.087	-1.6042824	6.302538	-1.718874	-178.940513	-6.71506776	-27.11810214
3.73	373	-0.039	-0.026	1.002	-1.8334656	1.5469866	-1.6042824	-178.9634313	-6.7322565	-27.1009134
3.74	374	-0.063	0.133	0.892	6.9327918	-4.8128472	-1.145916	-178.8946763	-6.68641986	-27.08945424
3.75	375	-0.146	-0.121	0.975	5.6722842	-8.3651868	-1.0313244	-178.8660284	-6.6176649	-27.0722655
3.76	376	-0.143	-0.082	0.962	3.3804522	-14.2666542	-0.859437	-178.831651	-6.4744254	-27.05507676
3.77	377	-0.146	-0.036	0.957	5.9587632	-14.7250206	-0.6875496	-178.7686256	-6.3311859	-27.03788802
3.78	378	-0.121	0.059	0.921	8.7662574	-13.0634424	0	-178.6769523	-6.19940556	-27.03215844
3.79	379	-0.123	0.044	0.933	8.307891	-8.9381448	0	-178.5910086	-6.11346186	-27.02642886
3.8	380	-0.124	0.039	0.947	6.016059	-5.443101	-0.4010706	-178.5279832	-6.0733548	-27.02069928
3.81	381	-0.124	0.025	0.952	3.4950438	-2.9793816	-0.6302538	-178.4936057	-6.0447069	-27.00924012
3.82	382	-0.121	0.026	0.948	1.8334656	-1.4896908	-0.6302538	-178.476417	-6.03324774	-27.00351054
3.83	383	-0.116	0.029	0.943	0.6875496	-0.7448454	-0.572958	-178.4706874	-6.02178858	-26.99778096
3.84	384	-0.124	0.021	0.936	-0.2291832	0.2291832	-0.5156622	-178.4706874	-6.02751816	-26.99205138
3.85	385	-0.119	0.018	0.934	-0.9740286	0.1718874	-0.4010706	-178.4936057	-6.05616606	-26.9863218
3.86	386	-0.123	0.028	0.951	-1.6615782	-0.572958	-0.3437748	-178.5165241	-6.05043648	-26.98059222
3.87	387	-0.125	0.032	0.969	-2.1199446	-0.9740286	-0.2291832	-178.5337128	-6.0447069	-26.98059222
3.88	388	-0.128	0.03	0.989	-2.5210152	-1.2032118	-0.1718874	-178.5623607	-6.02751816	-26.98059222
3.89	389	-0.127	0.031	1	-2.9793816	-1.3750992	-0.1145916	-178.5910086	-6.016059	-26.97486264
3.9	390	-0.128	0.03	1.006	-3.8388186	-1.432395	-0.1718874	-178.6311157	-6.02178858	-26.97486264
3.91	391	-0.126	0.03	1.008	-5.0993262	-1.432395	-0.1718874	-178.6826819	-6.00459984	-26.97486264
3.92	392	-0.125	0.028	1.006	-6.3598338	-1.9480572	-0.1145916	-178.7514368	-5.9874111	-26.96913306
3.93	393	-0.126	0.029	1.005	-7.3338624	-2.6929026	-0.0572958	-178.8259214	-5.9587632	-26.96913306
3.94	394	-0.124	0.029	1.005	-8.0787078	-3.3804522	0	-178.9061355	-5.92438572	-26.96913306
3.95	395	-0.125	0.031	1.007	-8.8235532	-4.010706	0.0572958	-178.9920792	-5.89000824	-26.96913306
3.96	396	-0.123	0.03	1.003	-9.5683986	-4.4690724	0.1145916	-179.0894821	-5.8441716	-26.96913306
3.97	397	-0.123	0.026	0.996	-10.599723	-5.0993262	0.2291832	-179.1983441	-5.79260538	-26.96913306
3.98	398	-0.121	0.023	0.989	-11.745639	-5.9014674	0.3437748	-179.3129357	-5.73530958	-26.96913306
3.99	399	-0.119	0.022	0.985	-12.4331886	-6.6463128	0.4583664	-179.4389864	-5.66655462	-26.97486264
4	400	-0.118	0.02	0.986	-12.4904844	-6.875496	0.4583664	-179.5650372	-5.60352924	-26.98059222
4.01	401	-0.115	0.017	0.992	-12.0894138	-6.875496	0.4010706	-179.6853584	-5.53477428	-26.98059222
4.02	402	-0.113	0.015	0.997	-11.45916	-6.6463128	0.4583664	-179.79995	-5.46601932	-26.9863218
4.03	403	-0.112	0.013	1	-10.7716104	-6.2452422	0.286479	-179.908812	-5.40299394	-26.9863218
4.04	404	-0.109	0.009	1.002	-10.1413566	-5.72958	0.1145916	179.9832965	-5.34569814	-26.9863218
4.05	405	-0.11	0.007	1.002	-9.5683986	-4.6409598	-0.0572958	179.8858937	-5.30559108	-26.9863218
4.06	406	-0.108	0.004	1	-9.167328	-3.3804522	-0.286479	179.7942204	-5.2712136	-26.9863218
4.07	407	-0.109	0.003	1	-8.9381448	-2.1199446	-0.572958	179.7025471	-5.24829528	-26.98059222
4.08	408	-0.11	0.007	0.997	-8.307891	-1.2032118	-0.6302538	179.6166034	-5.23683612	-26.96913306
4.09	409	-0.11	0.009	1	-7.6776372	-0.9740286	-0.8021412	179.5363893	-5.22537696	-26.96340348
4.1	410	-0.11	0.014	1.007	-6.9327918	-1.0886202	-0.6875496	179.4790935	-5.21964738	-26.9576739
4.11	411	-0.109	0.019	1.015	-5.7868758	-1.432395	-0.572958	179.4217977	-5.20818822	-26.95194432
4.12	412	-0.11	0.023	1.027	-4.6982556	-1.9480572	-0.4010706	179.3702315	-5.1852699	-26.94621474
4.13	413	-0.111	0.023	1.036	-3.4950438	-2.6356068	-0.1718874	179.335854	-5.16235158	-26.94621474
4.14	414	-0.11	0.022	1.044	-2.4637194	-3.4950438	-0.0572958	179.3129357	-5.1279741	-26.94621474
4.15	415	-0.109	0.024	1.048	-1.6042824	-4.3544808	0.1718874	179.3186653	-5.09359662	-26.94621474
4.16	416	-0.108	0.021	1.05	-0.8021412	-5.0993262	0.286479	179.3129357	-5.0420304	-26.95194432
4.17	417	-0.108	0.02	1.048	-0.2291832	-5.6722842	0.4010706	179.3072061	-4.9847346	-26.95194432
4.18	418	-0.105	0.017	1.046	0.1145916	-6.016059	0.4583664	179.3129357	-4.9274388	-26.9576739
4.19	419	-0.105	0.015	1.04	0.5156622	-6.016059	0.572958	179.3186653	-4.870143	-26.96340348
4.2	420	-0.103	0.013	1.036	0.6875496	-5.9587632	0.5156622	179.3415836	-4.81857678	-26.96913306
4.21	421	-0.1	0.01	1.032	0.6875496	-5.72958	0.572958	179.3473132	-4.76701056	-26.97486264
4.22	422	-0.099	0.008	1.027	0.9740286	-5.3858052	0.5156622	179.3587723	-4.70971476	-26.98059222
4.23	423	-0.097	0.005	1.027	1.0886202	-4.583664	0.4583664	179.3702315	-4.66387812	-26.98059222
4.24	424	-0.097	0.005	1.027	1.6042824	-3.2085648	0.286479	179.3874202	-4.63523022	-26.9863218
4.25	425	-0.097	0.003	1.023	1.8334656	-1.8334656	0.0572958	179.4217977	-4.64668938	-26.9863218
4.26	426	-0.098	0.003	1.016	1.718874	-0.5156622	-0.0572958	179.4389864	-4.6409598	-26.9863218
4.27	427	-0.098	0.002	1.008	1.6615782	0.2291832	-0.0572958	179.4561752	-4.6409598	-26.9863218
4.28	428	-0.098	0.002	1.002	1.4896908	0.6302538	-0.1145916	179.4676343	-4.64668938	-26.9863218
4.29	429	-0.099	0.002	1.001	1.432395	0.8021412	-0.2291832	179.4848231	-4.65814854	-26.98059222
4.3	430	-0.098	0.002	1	1.4896908	0.7448454	-0.2291832	179.5020118	-4.6982556	-26.98059222
4.31	431	-0.098	0.003	1.001	1.4896908	0.859437	-0.2291832	179.5192006	-4.70971476	-26.98059222
4.32	432	-0.098	0.003	1.001	1.4896908	0.859437	-0.286479	179.5363893	-4.72117392	-26.97486264
4.33	433	-0.099	0.002	1	1.3750992	1.0313244	-0.3437748	179.5478485	-4.7269035	-26.97486264
4.34	434	-0.099	0.002	0.999	1.145916	1.0313244	-0.3437748	179.5593076	-4.73836266	-26.96913306
4.35	435	-0.098	0.002	0.997	0.9167328	0.9740286	-0.3437748	179.5822259	-4.78992888	-26.96913306
4.36	436	-0.099	0.002	0.998	0.6875496	0.6302538	-0.3437748	179.5879555	-4.79565846	-26.96340348
4.37	437	-0.099	0.003	0.999	0.3437748	0.572958	-0.3437748	179.5879555	-4.80138804	-26.96340348
4.38	438	-0.1	0.003	1.001	0	0.4010706	-0.3437748	179.5879555	-4.80711762	-26.9576739
4.39	439	-0.1	0.003	1.003	-0.4583664	0.3437748	-0.4010706	179.5879555	-4.8128472	-26.95194432
4.4	440	-0.1	0.003	1.005	-0.859437	0.4010706	-0.4010706	179.5879555	-4.86441342	-26.95194432
4.41	441	-0.1	0.003	1.004	-1.0886202	0.4010706	-0.3437748	179.5707668	-4.870143	-26.94621474
4.42	442	-0.1	0.003	1.006	-1.2605076	0.4583664	-0.3437748	179.5593076	-4.87587258	-26.94621474
4.43	443	-0.101	0.003	1.007	-1.5469866	0.6875496	-0.4583664	179.5421189	-4.88160216	-26.94048516
4.44	444	-0.101	0.003	1.009	-1.8334656	0.8021412	-0.4583664	179.5249301	-4.88733174	-26.93475558
4.45	445	-0.101	0.004	1.01	-2.0626488	0.859437	-0.572958	179.5077414	-4.91597964	-26.929026
4.46	446	-0.101	0.003	1.011	-2.1199446	1.0313244	-0.572958	179.4848231	-4.9274388	-26.92329642
4.47	447	-0.1	0.004	1.01	-2.2345362	1.145916	-0.6302538	179.4619048	-4.93889796	-26.91756684
4.48	448	-0.102	0.005	1.01	-2.2345362	1.4896908	-0.6302538	179.4389864	-4.9560867	-26.91183726
4.49	449	-0.102	0.005	1.012	-1.9480572	1.6615782	-0.572958	179.4217977	-4.97327544	-26.90610768
4.5	450	-0.102	0.006	1.014	-1.718874	1.8334656	-0.6875496	179.4160681	-5.00765292	-26.9003781
4.51	451	-0.103	0.007	1.016	-1.3178034	2.0626488	-0.6875496	179.3988794	-5.02484166	-26.89464852
4.52	452	-0.102	0.008	1.015	-1.0313244	2.3491278	-0.6302538	179.3874202	-5.04775998	-26.88891894
4.53	453	-0.103	0.009	1.014	-0.7448454	2.5210152	-0.6875496	179.3816906	-5.07640788	-26.88318936
4.54	454	-0.103	0.008	1.016	-0.4010706	2.4637194	-0.6302538	179.3759611	-5.0993262	-26.87745978
4.55	455	-0.103	0.008	1.016	-0.0572958	2.1772404	-0.6302538	179.3988794	-5.14516284	-26.87745978
4.56	456	-0.104	0.009	1.017	0.1145916	1.8907614	-0.5156622	179.3988794	-5.16235158	-26.8717302
4.57	457	-0.104	0.008	1.02	0.286479	1.4896908	-0.5156622	179.404609	-5.17954032	-26.86600062
4.58	458	-0.104	0.008	1.02	0.5156622	1.2032118	-0.5156622	179.4103385	-5.19099948	-26.86027104
4.59	459	-0.104	0.008	1.021	0.6875496	1.0313244	-0.3437748	179.4160681	-5.20245864	-26.85454146
4.6	460	-0.105	0.008	1.02	0.8021412	0.859437	-0.4010706	179.4504456	-5.2425657	-26.85454146
4.61	461	-0.104	0.007	1.019	0.8021412	0.859437	-0.4010706	179.4619048	-5.24829528	-26.85454146
4.62	462	-0.104	0.005	1.018	0.9167328	0.9167328	-0.4010706	179.4676343	-5.25975444	-26.84881188
4.63	463	-0.105	0.004	1.017	1.0313244	0.859437	-0.4583664	179.4790935	-5.26548402	-26.8430823
4.64	464	-0.105	0.006	1.014	0.9740286	0.9167328	-0.3437748	179.4905527	-5.27694318	-26.83735272
4.65	465	-0.105	0.004	1.013	0.9740286	0.9167328	-0.3437748	179.513471	-5.31132066	-26.83735272
4.66	466	-0.106	0.005	1.013	0.9740286	0.6875496	-0.286479	179.5249301	-5.32277982	-26.83735272
4.67	467	-0.105	0.003	1.011	1.0313244	0.7448454	-0.286479	179.5363893	-5.3285094	-26.83162314
4.68	468	-0.105	0.005	1.01	1.0313244	0.8021412	-0.286479	179.5478485	-5.33423898	-26.83162314
4.69	469	-0.106	0.004	1.009	0.9740286	0.6302538	-0.2291832	179.5593076	-5.33996856	-26.82589356
4.7	470	-0.106	0.004	1.009	0.9167328	0.6302538	-0.2291832	179.5764964	-5.38007562	-26.82589356
4.71	471	-0.106	0.004	1.009	0.8021412	0.6302538	-0.2291832	179.5879555	-5.39153478	-26.82589356
4.72	472	-0.106	0.003	1.01	0.6875496	0.6302538	-0.286479	179.5936851	-5.39726436	-26.82016398
4.73	473	-0.106	0.004	1.01	0.4010706	0.6875496	-0.3437748	179.5994147	-5.40299394	-26.82016398
4.74	474	-0.106	0.003	1.008	0.2291832	0.6875496	-0.3437748	179.5994147	-5.40872352	-26.8144344
4.75	475	-0.106	0.003	1.009	0.1145916	0.8021412	-0.4010706	179.6108738	-5.46028974	-26.8144344
4.76	476	-0.107	0.004	1.009	0	0.8021412	-0.3437748	179.6108738	-5.46601932	-26.80870482
4.77	477	-0.107	0.003	1.009	-0.2291832	0.8021412	-0.4010706	179.6108738	-5.4717489	-26.80297524
4.78	478	-0.107	0.004	1.01	-0.4010706	0.7448454	-0.4010706	179.6051443	-5.48320806	-26.80297524
4.79	479	-0.108	0.005	1.01	-0.4583664	0.7448454	-0.3437748	179.5994147	-5.48893764	-26.79724566
4.8	480	-0.107	0.004	1.01	-0.6302538	0.5156622	-0.4010706	179.6051443	-5.52331512	-26.79724566
4.81	481	-0.107	0.006	1.008	-0.7448454	0.4010706	-0.4010706	179.5994147	-5.5290447	-26.79151608
4.82	482	-0.108	0.006	1.01	-0.7448454	0.2291832	-0.4010706	179.5879555	-5.5290447	-26.7857865
4.83	483	-0.107	0.005	1.01	-0.7448454	0.1718874	-0.3437748	179.5822259	-5.53477428	-26.7857865
4.84	484	-0.107	0.006	1.012	-0.6302538	0.1145916	-0.3437748	179.5707668	-5.53477428	-26.78005692
4.85	485	-0.106	0.006	1.012	-0.6302538	0	-0.3437748	179.5936851	-5.5863405	-26.78005692
4.86	486	-0.106	0.006	1.012	-0.6302538	0.1145916	-0.3437748	179.5879555	-5.5863405	-26.78005692
4.87	487	-0.106	0.006	1.012	-0.572958	0	-0.3437748	179.5822259	-5.5863405	-26.77432734
4.88	488	-0.107	0.006	1.012	-0.5156622	0	-0.4010706	179.5764964	-5.5863405	-26.76859776
4.89	489	-0.107	0.006	1.012	-0.4583664	-0.0572958	-0.3437748	179.5707668	-5.5863405	-26.76859776
4.9	490	-0.107	0.006	1.013	-0.4010706	-0.1718874	-0.3437748	179.5936851	-5.60925882	-26.76859776
4.91	491	-0.106	0.005	1.013	-0.3437748	-0.286479	-0.286479	179.5879555	-5.60925882	-26.76286818
4.92	492	-0.106	0.006	1.015	-0.286479	-0.4010706	-0.286479	179.5879555	-5.60352924	-26.76286818
4.93	493	-0.106	0.006	1.014	-0.286479	-0.4010706	-0.2291832	179.5822259	-5.59779966	-26.7571386
4.94	494	-0.106	0.005	1.014	-0.2291832	-0.286479	-0.2291832	179.5822259	-5.59779966	-26.7571386
4.95	495	-0.107	0.005	1.013	-0.2291832	-0.4583664	-0.2291832	179.6051443	-5.63217714	-26.7571386
4.96	496	-0.106	0.004	1.013	-0.2291832	-0.3437748	-0.2291832	179.6051443	-5.62644756	-26.75140902
4.97	497	-0.105	0.004	1.012	-0.286479	-0.4010706	-0.2291832	179.5994147	-5.62644756	-26.75140902
4.98	498	-0.106	0.004	1.012	-0.286479	-0.4583664	-0.2291832	179.5994147	-5.62071798	-26.74567944
4.99	499	-0.106	0.004	1.012	-0.2291832	-0.4583664	-0.2291832	179.5936851	-5.6149884	-26.74567944
5	500	-0.106	0.004	1.013	-0.2291832	-0.5156622	-0.1718874	179.6108738	-5.63790672	-26.74567944
5.01	501	-0.105	0.002	1.012	-0.286479	-0.4010706	-0.286479	179.6108738	-5.63217714	-26.74567944
5.02	502	-0.106	0.003	1.011	-0.4010706	-0.286479	-0.3437748	179.6051443	-5.62644756	-26.73994986
5.03	503	-0.105	0.003	1.01	-0.4010706	-0.1718874	-0.2291832	179.5994147	-5.62644756	-26.73994986
5.04	504	-0.104	0.003	1.01	-0.4010706	-0.1145916	-0.2291832	179.5936851	-5.62644756	-26.73422028
5.05	505	-0.105	0.003	1.012	-0.4583664	-0.0572958	-0.3437748	179.5994147	-5.6436363	-26.73422028
5.06	506	-0.105	0.003	1.012	-0.4583664	0	-0.3437748	179.5936851	-5.6436363	-26.7284907
5.07	507	-0.105	0.004	1.011	-0.5156622	0.1718874	-0.3437748	179.5879555	-5.6436363	-26.72276112
5.08	508	-0.106	0.003	1.009	-0.5156622	0.2291832	-0.286479	179.5822259	-5.64936588	-26.72276112
5.09	509	-0.105	0.003	1.009	-0.5156622	0.1718874	-0.3437748	179.5764964	-5.64936588	-26.71703154
5.1	510	-0.105	0.003	1.012	-0.5156622	0.2291832	-0.3437748	179.5879555	-5.6722842	-26.71703154
5.11	511	-0.106	0.003	1.012	-0.5156622	0.286479	-0.286479	179.5822259	-5.6722842	-26.71703154
5.12	512	-0.106	0.003	1.01	-0.5156622	0.3437748	-0.3437748	179.5764964	-5.67801378	-26.71130196
5.13	513	-0.105	0.004	1.012	-0.572958	0.3437748	-0.3437748	179.5650372	-5.68374336	-26.70557238
5.14	514	-0.105	0.005	1.011	-0.5156622	0.286479	-0.3437748	179.5593076	-5.68374336	-26.70557238
5.15	515	-0.105	0.004	1.013	-0.5156622	0.286479	-0.4010706	179.5650372	-5.7009321	-26.6998428
5.16	516	-0.106	0.003	1.014	-0.572958	0.4583664	-0.4010706	179.5593076	-5.7009321	-26.69411322
5.17	517	-0.105	0.003	1.013	-0.1145916	0.4583664	-0.0572958	179.5593076	-5.70666168	-26.69411322
5.18	518	-0.105	0.003	1.012	-0.0572958	0.4583664	-0.0572958	179.553578	-5.71239126	-26.69411322
5.19	519	-0.106	0.002	1.012	0	0.3437748	0	179.553578	-5.71812084	-26.69411322
5.2	520	-0.105	0.003	1.013	0	0.1145916	-0.1145916	179.5936851	-5.74103916	-26.6998428
5.21	521	-0.106	0.001	1.017	0	0.1718874	0	179.5936851	-5.74676874	-26.6998428
5.22	522	-0.105	0.002	1.016	0	0.1145916	0	179.5936851	-5.74676874	-26.6998428
5.23	523	-0.106	0.002	1.015	-0.0572958	0.286479	-0.0572958	179.5936851	-5.74676874	-26.6998428
5.24	524	-0.105	0.001	1.013	-0.0572958	0.3437748	0	179.5936851	-5.75249832	-26.6998428
5.25	525	-0.105	0.003	1.011	-0.1145916	0.4010706	0	179.6108738	-5.78114622	-26.6998428
5.26	526	-0.106	0.004	1.011	0	0.4010706	0	179.6108738	-5.78114622	-26.6998428
5.27	527	-0.105	0.003	1.012	0.0572958	0.2291832	0	179.6108738	-5.7868758	-26.6998428
5.28	528	-0.106	0.003	1.012	0.1145916	0.1145916	0	179.6108738	-5.7868758	-26.6998428
5.29	529	-0.106	0.002	1.012	0.1145916	0.1145916	0	179.6166034	-5.7868758	-26.6998428
5.3	530	-0.106	0.003	1.013	0.0572958	0.1145916	0	179.6395217	-5.83271244	-26.70557238
5.31	531	-0.105	0.002	1.012	0.1145916	0.1718874	0	179.6452513	-5.83271244	-26.70557238
5.32	532	-0.105	0.002	1.012	0.1718874	0.0572958	0	179.6452513	-5.83271244	-26.70557238
5.33	533	-0.106	0.001	1.012	0.2291832	0.0572958	0	179.6509809	-5.83844202	-26.70557238
5.34	534	-0.106	0.002	1.011	0.3437748	0.0572958	0	179.6509809	-5.83844202	-26.70557238
5.35	535	-0.106	0.002	1.011	0.3437748	0	0	179.6567105	-5.85563076	-26.70557238
5.36	536	-0.105	0.002	1.011	0.3437748	0	0	179.6624401	-5.85563076	-26.70557238
5.37	537	-0.106	0.001	1.012	0.286479	-0.0572958	0	179.6624401	-5.85563076	-26.70557238
5.38	538	-0.106	0.001	1.012	0.286479	-0.2291832	0	179.6681696	-5.85563076	-26.70557238
5.39	539	-0.105	0	1.011	0.286479	-0.1718874	0	179.6738992	-5.85563076	-26.70557238
5.4	540	-0.106	0.002	1.013	0.3437748	-0.1718874	0	179.6853584	-5.85563076	-26.70557238
5.41	541	-0.105	0.002	1.012	0.286479	-0.1145916	0	179.6853584	-5.85563076	-26.70557238
5.42	542	-0.105	0.001	1.012	0.286479	-0.0572958	0	179.691088	-5.85563076	-26.70557238
5.43	543	-0.106	0.001	1.011	0.286479	-0.0572958	0	179.691088	-5.85563076	-26.70557238
5.44	544	-0.105	0.001	1.011	0.3437748	0	0	179.6968175	-5.85563076	-26.70557238
5.45	545	-0.105	0.001	1.01	0.4010706	0.0572958	0	179.7025471	-5.86708992	-26.70557238
5.46	546	-0.105	0	1.009	0.4583664	0	0	179.7082767	-5.86708992	-26.70557238
5.47	547	-0.106	0.001	1.011	0.4010706	0	0	179.7140063	-5.86708992	-26.70557238
5.48	548	-0.105	0	1.012	0.286479	0.0572958	0	179.7140063	-5.86708992	-26.70557238
5.49	549	-0.106	0.001	1.012	0.2291832	0.1145916	0	179.7197359	-5.86708992	-26.70557238
5.5	550	-0.106	0.001	1.012	0.1145916	0.1718874	0	179.7197359	-5.88427866	-26.70557238
5.51	551	-0.106	0.001	1.012	0.1145916	0.2291832	-0.0572958	179.7197359	-5.89000824	-26.70557238
5.52	552	-0.105	0.001	1.012	0.1145916	0.1145916	0	179.7254654	-5.89000824	-26.70557238
5.53	553	-0.106	0.001	1.012	0.1145916	0.1145916	0	179.7254654	-5.89000824	-26.70557238
5.54	554	-0.106	0.001	1.012	0.1718874	0.0572958	0	179.7254654	-5.89000824	-26.70557238
5.55	555	-0.107	0.001	1.013	0.1718874	0.0572958	0	179.7254654	-5.9014674	-26.70557238
5.56	556	-0.106	0.001	1.014	0.1718874	0	0	179.7254654	-5.9014674	-26.70557238
5.57	557	-0.106	0.001	1.013	0.2291832	0	0	179.731195	-5.9014674	-26.70557238
5.58	558	-0.106	0.001	1.011	0.1718874	0	0.0572958	179.731195	-5.9014674	-26.70557238
5.59	559	-0.106	0.002	1.013	0.2291832	0	0.0572958	179.731195	-5.9014674	-26.70557238
5.6	560	-0.106	0.003	1.01	0.2291832	0	0	179.7483838	-5.90719698	-26.71130196
5.61	561	-0.105	0	1.011	0.286479	-0.0572958	0.0572958	179.7541133	-5.90719698	-26.71130196
5.62	562	-0.107	0.002	1.01	0.3437748	0	0.0572958	179.7598429	-5.90719698	-26.71130196
5.63	563	-0.107	0.002	1.01	0.3437748	0	0	179.7598429	-5.90719698	-26.71130196
5.64	564	-0.106	0.001	1.01	0.3437748	0	0.0572958	179.7655725	-5.90719698	-26.71130196
5.65	565	-0.105	0.001	1.012	0.286479	-0.0572958	0	179.7541133	-5.91292656	-26.71130196
5.66	566	-0.106	0.001	1.011	0.3437748	-0.1145916	0	179.7541133	-5.91292656	-26.71130196
5.67	567	-0.107	0.002	1.012	0.286479	-0.1145916	0	179.7598429	-5.90719698	-26.71130196
5.68	568	-0.106	0.001	1.012	0.1718874	-0.0572958	0.0572958	179.7598429	-5.90719698	-26.71130196
5.69	569	-0.106	0.002	1.013	0.1718874	-0.1718874	0	179.7655725	-5.90719698	-26.71130196
5.7	570	-0.105	0.001	1.013	0.1145916	-0.1718874	0	179.7655725	-5.91292656	-26.71130196
5.71	571	-0.105	0.001	1.013	0.0572958	-0.1718874	0	179.7655725	-5.91292656	-26.71130196
5.72	572	-0.107	0.001	1.013	0.1718874	-0.2291832	0.0572958	179.7655725	-5.91292656	-26.71130196
5.73	573	-0.106	0	1.014	0.1145916	-0.1718874	0	179.7655725	-5.90719698	-26.71130196
5.74	574	-0.105	0.003	1.013	0.1718874	-0.1718874	0.0572958	179.7713021	-5.90719698	-26.71703154
5.75	575	-0.106	0	1.013	0.1718874	-0.3437748	0	179.7598429	-5.90719698	-26.71130196
5.76	576	-0.105	0.001	1.012	0.1145916	-0.286479	0	179.7598429	-5.90719698	-26.71130196
5.77	577	-0.106	0.002	1.01	0.0572958	-0.1718874	0	179.7598429	-5.90719698	-26.71130196
5.78	578	-0.105	0.002	1.011	0.0572958	-0.2291832	0	179.7598429	-5.9014674	-26.71130196
5.79	579	-0.105	0.002	1.01	0	-0.1145916	0	179.7598429	-5.9014674	-26.71130196
5.8	580	-0.106	0.002	1.012	0.0572958	-0.1145916	0	179.7598429	-5.90719698	-26.71130196
5.81	581	-0.105	0.002	1.012	0.0572958	-0.1145916	0	179.7598429	-5.90719698	-26.71130196
5.82	582	-0.104	0.003	1.013	0.0572958	-0.0572958	0	179.7598429	-5.90719698	-26.71130196
5.83	583	-0.106	0.003	1.013	0.0572958	0	0	179.7598429	-5.90719698	-26.71130196
5.84	584	-0.106	0.002	1.012	0.0572958	0	0	179.7598429	-5.90719698	-26.71130196
5.85	585	-0.105	0.001	1.013	0	0	0	179.7426542	-5.91292656	-26.71130196
5.86	586	-0.106	0.002	1.012	0	0	0	179.7426542	-5.91292656	-26.71130196
5.87	587	-0.106	0.002	1.012	0.0572958	0	0	179.7483838	-5.91292656	-26.71130196
5.88	588	-0.106	0.003	1.013	0.0572958	0	0	179.7483838	-5.91292656	-26.71130196
5.89	589	-0.106	0.002	1.012	0.0572958	0.1145916	0	179.7483838	-5.91292656	-26.71130196
5.9	590	-0.106	0.002	1.011	0	0.1718874	0	179.7426542	-5.91292656	-26.71130196
5.91	591	-0.105	0.001	1.012	0.1145916	0.1145916	0	179.7426542	-5.91292656	-26.71130196
5.92	592	-0.106	0.002	1.012	0	0.1145916	0	179.7426542	-5.91865614	-26.71130196
5.93	593	-0.106	0.002	1.011	0	0.2291832	0	179.7426542	-5.91865614	-26.71130196
5.94	594	-0.106	0.004	1.01	-0.0572958	0.1718874	0	179.7426542	-5.91865614	-26.71130196
5.95	595	-0.106	0.004	1.011	-0.1145916	0.1718874	0	179.7369246	-5.9301153	-26.71130196
5.96	596	-0.106	0.003	1.013	-0.0572958	0.1145916	0	179.7369246	-5.9301153	-26.71130196
5.97	597	-0.106	0.003	1.015	0	0.0572958	0.0572958	179.7369246	-5.93584488	-26.71130196
5.98	598	-0.106	0.001	1.012	0.0572958	0	0	179.7426542	-5.93584488	-26.71130196
5.99	599	-0.106	0.002	1.012	0.0572958	0.1718874	0	179.7426542	-5.93584488	-26.71130196
6	600	-0.106	0.001	1.013	0.0572958	0	0	179.7254654	-5.94157446	-26.70557238
6.01	601	-0.105	0	1.014	-0.1145916	0	0	179.7254654	-5.94157446	-26.70557238
6.02	602	-0.105	0.002	1.015	-0.1145916	0	0	179.7197359	-5.94157446	-26.70557238
6.03	603	-0.106	0.002	1.013	-0.2291832	0	-0.0572958	179.7197359	-5.94157446	-26.70557238
6.04	604	-0.105	0.002	1.012	-0.4010706	0.0572958	-0.0572958	179.7140063	-5.94157446	-26.70557238
6.05	605	-0.105	0.002	1.01	-0.4010706	0.2291832	-0.1145916	179.7140063	-5.94730404	-26.70557238
6.06	606	-0.105	0.002	1.011	-0.286479	0.286479	0	179.7082767	-5.94730404	-26.70557238
6.07	607	-0.106	0.003	1.01	-0.1718874	0.1718874	-0.0572958	179.7082767	-5.94730404	-26.70557238
6.08	608	-0.106	0.003	1.011	-0.2291832	0.1145916	0	179.7025471	-5.95303362	-26.70557238
6.09	609	-0.107	0.003	1.012	-0.0572958	0	-0.0572958	179.7025471	-5.95303362	-26.70557238
6.1	610	-0.107	0.003	1.014	0	-0.0572958	0	179.7197359	-5.96449278	-26.70557238
6.11	611	-0.106	0.003	1.011	0	0	0	179.7197359	-5.96449278	-26.70557238
6.12	612	-0.106	0.003	1.012	0.1145916	-0.1145916	0.0572958	179.7197359	-5.9587632	-26.70557238
6.13	613	-0.106	0.004	1.012	0.2291832	-0.1718874	0	179.7197359	-5.9587632	-26.70557238
6.14	614	-0.106	0.003	1.012	0.3437748	-0.2291832	0	179.7254654	-5.9587632	-26.70557238
6.15	615	-0.106	0.003	1.012	0.286479	-0.1145916	0.0572958	179.731195	-5.95303362	-26.70557238
6.16	616	-0.105	0.004	1.012	0.3437748	-0.2291832	0.0572958	179.7369246	-5.95303362	-26.70557238
6.17	617	-0.106	0.003	1.012	0.286479	-0.1718874	0.0572958	179.7369246	-5.95303362	-26.70557238
6.18	618	-0.106	0.003	1.012	0.1718874	-0.2291832	0.0572958	179.7426542	-5.94730404	-26.71130196
6.19	619	-0.107	0.003	1.012	0.2291832	-0.1718874	0	179.7426542	-5.94730404	-26.71130196
6.2	620	-0.106	0.003	1.012	0.2291832	-0.1718874	0.0572958	179.7483838	-5.94157446	-26.71130196
6.21	621	-0.106	0.001	1.012	0.1718874	-0.0572958	0	179.7483838	-5.94157446	-26.71130196
6.22	622	-0.105	0.003	1.011	0.1145916	0	0.0572958	179.7541133	-5.94157446	-26.71130196
6.23	623	-0.105	0.003	1.013	0.1145916	-0.0572958	0	179.7541133	-5.94157446	-26.71130196
6.24	624	-0.105	0.002	1.012	0	0	0	179.7541133	-5.94157446	-26.71130196
6.25	625	-0.105	0.002	1.011	0.0572958	0.0572958	0.0572958	179.7598429	-5.95303362	-26.71130196
6.26	626	-0.105	0.003	1.01	0	0	0	179.7598429	-5.94730404	-26.71130196
6.27	627	-0.105	0.004	1.01	0	0	0	179.7598429	-5.94730404	-26.71130196
6.28	628	-0.106	0.003	1.012	0	0	0	179.7598429	-5.95303362	-26.71130196
6.29	629	-0.105	0.003	1.014	0	0	0	179.7598429	-5.94730404	-26.71130196
6.3	630	-0.107	0.003	1.014	0	0.0572958	-0.0572958	179.7598429	-5.9587632	-26.71130196
6.31	631	-0.105	0.002	1.012	-0.1145916	0.1145916	-0.0572958	179.7598429	-5.9587632	-26.71130196
6.32	632	-0.106	0.002	1.012	-0.0572958	0.1145916	-0.0572958	179.7541133	-5.96449278	-26.71130196
6.33	633	-0.105	0.002	1.013	-0.1145916	0.0572958	-0.0572958	179.7541133	-5.96449278	-26.71130196
6.34	634	-0.106	0.003	1.014	-0.1718874	0.1718874	-0.0572958	179.7541133	-5.96449278	-26.71130196
6.35	635	-0.105	0.002	1.011	-0.2291832	0.286479	-0.0572958	179.7541133	-5.97022236	-26.71130196
6.36	636	-0.106	0.003	1.012	-0.1718874	0.2291832	0	179.7483838	-5.97022236	-26.71130196
6.37	637	-0.106	0.004	1.012	-0.2291832	0.2291832	0	179.7483838	-5.97022236	-26.71130196
6.38	638	-0.106	0.004	1.012	-0.1718874	0.3437748	0	179.7426542	-5.97595194	-26.71130196
6.39	639	-0.106	0.003	1.013	-0.0572958	0.1718874	0	179.7426542	-5.97595194	-26.71130196
6.4	640	-0.106	0.003	1.013	-0.1145916	0.0572958	-0.0572958	179.7426542	-5.97595194	-26.71130196
6.41	641	-0.105	0.003	1.013	-0.1145916	0.1145916	0	179.7426542	-5.97595194	-26.71130196
6.42	642	-0.106	0.005	1.013	-0.1718874	0.0572958	0	179.7426542	-5.98168152	-26.71130196
6.43	643	-0.105	0.004	1.012	-0.1718874	0.0572958	0	179.7369246	-5.98168152	-26.71130196
6.44	644	-0.106	0.004	1.012	-0.1145916	0.0572958	0	179.7369246	-5.98168152	-26.70557238
6.45	645	-0.106	0.004	1.012	-0.1145916	0	0	179.7483838	-5.98168152	-26.71130196
6.46	646	-0.105	0.003	1.011	-0.1718874	0	0	179.7483838	-5.98168152	-26.71130196
6.47	647	-0.105	0.003	1.011	-0.1145916	0.0572958	0.0572958	179.7483838	-5.98168152	-26.71130196
6.48	648	-0.106	0.003	1.012	-0.1145916	0	0	179.7483838	-5.98168152	-26.71130196
6.49	649	-0.106	0.003	1.013	-0.1718874	0	0	179.7426542	-5.98168152	-26.71130196
6.5	650	-0.106	0.002	1.012	-0.1145916	0	0	179.731195	-5.98168152	-26.71130196
6.51	651	-0.106	0.003	1.012	-0.1145916	-0.0572958	0	179.731195	-5.98168152	-26.71130196
6.52	652	-0.106	0.003	1.012	-0.2291832	0	-0.0572958	179.731195	-5.98168152	-26.71130196
6.53	653	-0.106	0.003	1.012	-0.2291832	0	0	179.7254654	-5.98168152	-26.71130196
6.54	654	-0.107	0.002	1.012	-0.286479	-0.1145916	0	179.7254654	-5.98168152	-26.71130196
6.55	655	-0.106	0.002	1.012	-0.286479	0	0	179.7140063	-5.98168152	-26.71130196
6.56	656	-0.106	0.002	1.012	-0.286479	0	0	179.7140063	-5.98168152	-26.70557238
6.57	657	-0.106	0.002	1.012	-0.4010706	0	0	179.7082767	-5.98168152	-26.70557238
6.58	658	-0.105	0.002	1.012	-0.3437748	0	0	179.7025471	-5.98168152	-26.70557238
6.59	659	-0.106	0.003	1.012	-0.4010706	0	-0.0572958	179.7025471	-5.97595194	-26.70557238
6.6	660	-0.106	0.003	1.012	-0.3437748	0	-0.0572958	179.7025471	-5.97595194	-26.70557238
6.61	661	-0.106	0.003	1.012	-0.3437748	0	-0.0572958	179.6968175	-5.97595194	-26.70557238
