TimeStamp(s)	FrameCounter	AccX	AccY	AccZ	GyrX	GyrY	GyrZ	EulerX	EulerY	EulerZ
0.01	1	-0.02	-0.999	0.131	0.9740286	0.1718874	-0.2291832	95.8845213	-0.79068204	-22.84956504
0.02	2	-0.026	-1.001	0.131	1.718874	0	0	95.90171004	-0.79068204	-22.84956504
0.03	3	-0.028	-1.003	0.132	1.5469866	-0.2291832	0.1718874	95.91889878	-0.79068204	-22.84956504
0.04	4	-0.029	-1.006	0.132	1.3178034	0	0.4010706	95.93608752	-0.79641162	-22.84956504
0.05	5	-0.029	-1.005	0.131	1.3178034	0.286479	0.572958	95.95327626	-0.81932994	-22.85529462
0.06	6	-0.027	-1.007	0.13	1.3178034	0.8021412	0.8021412	95.96473542	-0.82505952	-22.84956504
0.07	7	-0.024	-1.002	0.133	1.3750992	1.145916	0.9740286	95.98192416	-0.83651868	-22.83810588
0.08	8	-0.024	-0.998	0.133	1.718874	1.3750992	1.2605076	95.9991129	-0.85370742	-22.82091714
0.09	9	-0.021	-0.996	0.132	1.7761698	1.3750992	1.3750992	96.01630164	-0.86516658	-22.80945798
0.1	10	-0.022	-0.993	0.133	1.7761698	1.3750992	1.432395	96.03921996	-0.8880849	-22.79799882
0.11	11	-0.025	-0.995	0.134	1.7761698	1.3178034	1.432395	96.0564087	-0.89954406	-22.78653966
0.12	12	-0.027	-0.998	0.135	1.6615782	1.2032118	1.2605076	96.07359744	-0.9167328	-22.78081008
0.13	13	-0.028	-0.997	0.133	1.432395	1.145916	1.2032118	96.0850566	-0.92819196	-22.76935092
0.14	14	-0.03	-0.998	0.131	1.432395	0.7448454	1.0886202	96.10224534	-0.93965112	-22.76362134
0.15	15	-0.03	-0.997	0.129	1.5469866	0.3437748	0.859437	96.1137045	-0.96256944	-22.76362134
0.16	16	-0.03	-0.994	0.127	1.7761698	0	0.6302538	96.13662282	-0.96829902	-22.76362134
0.17	17	-0.027	-0.995	0.131	2.291832	-0.3437748	0.5156622	96.15954114	-0.9740286	-22.76935092
0.18	18	-0.024	-0.996	0.133	2.4637194	-0.4583664	0.4010706	96.18245946	-0.9740286	-22.7750805
0.19	19	-0.023	-0.998	0.135	2.3491278	-0.4583664	0.3437748	96.20537778	-0.97975818	-22.7750805
0.2	20	-0.022	-0.999	0.138	2.291832	-0.4583664	0.286479	96.23975526	-0.97975818	-22.78081008
0.21	21	-0.023	-1.001	0.14	2.291832	-0.3437748	0.286479	96.26267358	-0.98548776	-22.78653966
0.22	22	-0.026	-1.002	0.141	2.1199446	-0.4010706	0.286479	96.2855919	-0.98548776	-22.79226924
0.23	23	-0.028	-1.003	0.139	1.8907614	-0.5156622	0.1718874	96.30278064	-0.98548776	-22.79799882
0.24	24	-0.029	-1.002	0.136	1.718874	-0.4010706	0	96.31996938	-0.98548776	-22.79799882
0.25	25	-0.029	-1	0.136	1.5469866	-0.4583664	0	96.3428877	-0.99694692	-22.80945798
0.26	26	-0.03	-0.999	0.135	1.432395	-0.572958	0	96.35434686	-0.99694692	-22.81518756
0.27	27	-0.029	-0.999	0.135	1.2605076	-0.572958	-0.1718874	96.3715356	-0.99694692	-22.82091714
0.28	28	-0.029	-1	0.134	1.0886202	-0.4583664	-0.1718874	96.38299476	-0.99121734	-22.82664672
0.29	29	-0.029	-1.002	0.132	0.859437	-0.1145916	-0.2291832	96.38872434	-0.99121734	-22.82664672
0.3	30	-0.028	-1.003	0.131	0.6875496	0.1145916	-0.2291832	96.38872434	-1.00840608	-22.8323763
0.31	31	-0.027	-1.002	0.131	0.7448454	0.1718874	-0.286479	96.39445392	-1.0026765	-22.8323763
0.32	32	-0.026	-0.998	0.132	0.9167328	0	-0.2291832	96.40591308	-1.0026765	-22.82664672
0.33	33	-0.024	-0.998	0.135	0.9167328	-0.2291832	-0.2291832	96.41737224	-0.99694692	-22.8323763
0.34	34	-0.024	-0.998	0.136	0.6875496	-0.4583664	-0.286479	96.42310182	-0.99121734	-22.83810588
0.35	35	-0.025	-1.001	0.138	0.4583664	-0.6302538	-0.286479	96.43456098	-0.99694692	-22.84383546
0.36	36	-0.028	-1.003	0.14	0.4010706	-0.572958	-0.3437748	96.44029056	-0.99121734	-22.84956504
0.37	37	-0.028	-1.003	0.14	0.4583664	-0.572958	-0.286479	96.44602014	-0.99121734	-22.85529462
0.38	38	-0.029	-1.004	0.14	0.4010706	-0.3437748	-0.3437748	96.45174972	-0.98548776	-22.8610242
0.39	39	-0.029	-1.003	0.139	0.2291832	-0.0572958	-0.4010706	96.45174972	-0.97975818	-22.8610242
0.4	40	-0.028	-1.001	0.14	-0.1718874	0.286479	-0.3437748	96.46320888	-0.99694692	-22.8610242
0.41	41	-0.028	-1.001	0.134	-0.5156622	0.5156622	-0.2291832	96.4574793	-0.99121734	-22.85529462
0.42	42	-0.026	-1	0.132	-0.7448454	0.5156622	-0.1145916	96.45174972	-0.99121734	-22.84956504
0.43	43	-0.028	-1	0.133	-0.859437	0.4583664	-0.0572958	96.44029056	-0.99121734	-22.84956504
0.44	44	-0.027	-1	0.136	-0.9740286	0.5156622	0	96.43456098	-0.99121734	-22.84383546
0.45	45	-0.028	-1.002	0.135	-0.9167328	0.859437	-0.0572958	96.42310182	-1.0026765	-22.83810588
0.46	46	-0.028	-1.001	0.136	-0.8021412	1.145916	-0.0572958	96.41737224	-1.00840608	-22.82664672
0.47	47	-0.027	-1.001	0.136	-0.859437	1.2605076	-0.1718874	96.40591308	-1.00840608	-22.81518756
0.48	48	-0.025	-1.002	0.134	-0.859437	1.432395	-0.0572958	96.39445392	-1.00840608	-22.79799882
0.49	49	-0.024	-0.998	0.133	-0.9167328	1.4896908	-0.1718874	96.38872434	-1.00840608	-22.78081008
0.5	50	-0.023	-0.998	0.131	-0.9167328	1.3750992	-0.2291832	96.37726518	-1.00840608	-22.76935092
0.51	51	-0.023	-0.996	0.132	-0.9167328	1.145916	-0.1718874	96.36580602	-1.00840608	-22.75789176
0.52	52	-0.024	-0.997	0.134	-0.8021412	0.859437	-0.1718874	96.35434686	-1.00840608	-22.75216218
0.53	53	-0.026	-0.997	0.134	-0.6875496	0.6875496	-0.1145916	96.34861728	-1.00840608	-22.74070302
0.54	54	-0.028	-1	0.135	-0.6302538	0.5156622	-0.0572958	96.3428877	-1.00840608	-22.74070302
0.55	55	-0.027	-0.999	0.136	-0.7448454	0.5156622	-0.1145916	96.33715812	-1.01413566	-22.73497344
0.56	56	-0.025	-1	0.135	-0.8021412	0.6302538	-0.1145916	96.33142854	-1.01413566	-22.72924386
0.57	57	-0.024	-0.999	0.134	-0.7448454	0.8021412	-0.1145916	96.31996938	-1.01413566	-22.7177847
0.58	58	-0.023	-0.998	0.134	-0.7448454	0.8021412	-0.1145916	96.3142398	-1.01413566	-22.71205512
0.59	59	-0.023	-0.998	0.134	-0.7448454	0.6302538	-0.1718874	96.30851022	-1.00840608	-22.70632554
0.6	60	-0.023	-0.997	0.135	-0.859437	0.5156622	-0.1718874	96.30851022	-1.00840608	-22.70059596
0.61	61	-0.023	-1	0.136	-0.9167328	0.3437748	-0.1718874	96.29705106	-1.00840608	-22.69486638
0.62	62	-0.022	-1.001	0.134	-0.9740286	0.1718874	-0.1145916	96.2855919	-1.00840608	-22.69486638
0.63	63	-0.022	-1.001	0.133	-1.0886202	0	-0.1718874	96.27413274	-1.0026765	-22.69486638
0.64	64	-0.023	-1.001	0.134	-1.0313244	-0.0572958	-0.1718874	96.26267358	-1.0026765	-22.69486638
0.65	65	-0.025	-1.002	0.132	-0.9167328	-0.4583664	-0.2291832	96.256944	-1.00840608	-22.70059596
0.66	66	-0.025	-1.001	0.132	-0.859437	-0.4583664	-0.1718874	96.24548484	-1.0026765	-22.70632554
0.67	67	-0.026	-1	0.132	-0.9740286	-0.4583664	-0.2291832	96.23975526	-0.99694692	-22.71205512
0.68	68	-0.026	-1	0.131	-0.859437	-0.3437748	-0.1718874	96.2282961	-0.99694692	-22.7177847
0.69	69	-0.025	-1	0.13	-0.8021412	-0.286479	-0.2291832	96.21683694	-0.99694692	-22.7177847
0.7	70	-0.024	-0.999	0.131	-0.9167328	-0.286479	-0.1145916	96.21110736	-0.99694692	-22.72351428
0.71	71	-0.023	-1	0.13	-1.0886202	-0.3437748	-0.1145916	96.1996482	-0.99694692	-22.72924386
0.72	72	-0.024	-0.999	0.13	-1.0886202	-0.4583664	-0.1145916	96.18818904	-0.99121734	-22.72924386
0.73	73	-0.025	-1	0.13	-0.9740286	-0.6302538	-0.0572958	96.17672988	-0.99121734	-22.74070302
0.74	74	-0.025	-1	0.131	-0.9740286	-0.6875496	-0.1718874	96.1710003	-0.99121734	-22.7464326
0.75	75	-0.024	-1.001	0.131	-1.0313244	-0.6875496	-0.1718874	96.15954114	-0.99121734	-22.75216218
0.76	76	-0.024	-1	0.13	-1.0886202	-0.859437	-0.1718874	96.14808198	-0.98548776	-22.76362134
0.77	77	-0.024	-1	0.129	-1.145916	-0.8021412	-0.2291832	96.13662282	-0.97975818	-22.76935092
0.78	78	-0.023	-0.999	0.128	-0.9740286	-0.9167328	-0.1718874	96.12516366	-0.97975818	-22.78081008
0.79	79	-0.023	-0.999	0.128	-0.7448454	-1.0886202	-0.2291832	96.11943408	-0.9740286	-22.78653966
0.8	80	-0.024	-0.999	0.129	-0.6302538	-1.0886202	-0.1145916	96.1137045	-0.9740286	-22.8037284
0.81	81	-0.025	-1.001	0.129	-0.8021412	-0.9167328	-0.0572958	96.10224534	-0.9740286	-22.80945798
0.82	82	-0.027	-1.002	0.13	-0.7448454	-0.6875496	-0.1718874	96.09651576	-0.96829902	-22.81518756
0.83	83	-0.028	-1.002	0.132	-0.6302538	-0.4583664	-0.1145916	96.09078618	-0.96829902	-22.82091714
0.84	84	-0.027	-1.002	0.132	-0.7448454	-0.2291832	-0.1145916	96.07932702	-0.96829902	-22.82664672
0.85	85	-0.024	-1	0.131	-0.9167328	-0.0572958	-0.1145916	96.0850566	-0.96829902	-22.82664672
0.86	86	-0.023	-0.999	0.131	-0.9740286	-0.286479	-0.0572958	96.07359744	-0.96829902	-22.8323763
0.87	87	-0.023	-1	0.13	-1.2605076	-0.4583664	-0.0572958	96.06213828	-0.96829902	-22.8323763
0.88	88	-0.023	-1.004	0.13	-1.4896908	-0.5156622	0	96.04494954	-0.96829902	-22.83810588
0.89	89	-0.024	-1.005	0.127	-1.7761698	-0.4010706	-0.0572958	96.0277608	-0.96256944	-22.84383546
0.9	90	-0.026	-1.005	0.125	-1.9480572	-0.4583664	-0.1145916	96.00484248	-0.96829902	-22.84956504
0.91	91	-0.025	-1.005	0.126	-1.9480572	-0.7448454	0	95.98765374	-0.96829902	-22.8610242
0.92	92	-0.026	-1.004	0.127	-1.8907614	-1.3750992	0.0572958	95.96473542	-0.96256944	-22.87248336
0.93	93	-0.025	-1.002	0.129	-1.8334656	-2.5210152	0	95.94754668	-0.96256944	-22.89540168
0.94	94	-0.023	-1.001	0.132	-2.005353	-3.8388186	-0.1145916	95.93035794	-0.95683986	-22.93550874
0.95	95	-0.024	-1.002	0.132	-2.291832	-4.870143	-0.286479	95.90743962	-0.95111028	-22.98707496
0.96	96	-0.027	-1.008	0.127	-2.578311	-5.2139178	-0.4583664	95.8845213	-0.93965112	-23.03864118
0.97	97	-0.027	-1.005	0.123	-3.0939732	-4.6982556	-0.6302538	95.8558734	-0.92819196	-23.08447782
0.98	98	-0.03	-1.002	0.12	-3.0939732	-3.8388186	-0.4583664	95.82149592	-0.9167328	-23.1188553
0.99	99	-0.034	-1.001	0.118	-2.86479	-2.86479	-0.286479	95.79284802	-0.91100322	-23.1475032
1	100	-0.034	-0.998	0.122	-2.4637194	-2.1199446	-0.0572958	95.7699297	-0.9167328	-23.1761511
1.01	101	-0.035	-0.996	0.127	-2.2345362	-1.3178034	0.1718874	95.74701138	-0.9167328	-23.18761026
1.02	102	-0.035	-0.992	0.128	-2.005353	-0.6875496	0.2291832	95.72982264	-0.92246238	-23.19333984
1.03	103	-0.035	-0.991	0.126	-1.4896908	-0.1145916	0.2291832	95.7126339	-0.92246238	-23.19906942
1.04	104	-0.034	-0.99	0.118	-0.9167328	0.2291832	0.1718874	95.70117474	-0.92246238	-23.19333984
1.05	105	-0.034	-0.991	0.115	-0.572958	0.1145916	0	95.67252684	-0.98548776	-23.21625816
1.06	106	-0.032	-0.993	0.116	0	0.5156622	-0.0572958	95.67252684	-0.98548776	-23.21052858
1.07	107	-0.032	-0.998	0.118	0.572958	0.9740286	-0.1145916	95.67825642	-0.98548776	-23.19906942
1.08	108	-0.033	-0.999	0.124	0.9167328	1.718874	-0.2291832	95.68971558	-0.98548776	-23.18188068
1.09	109	-0.034	-1.003	0.13	0.9167328	3.151269	-0.2291832	95.70117474	-0.98548776	-23.1475032
1.1	110	-0.035	-1.005	0.134	0.3437748	4.6982556	-0.1145916	95.70690432	-1.0026765	-23.10739614
1.11	111	-0.037	-1.009	0.138	-0.6875496	6.3598338	0.0572958	95.70117474	-1.00840608	-23.04437076
1.12	112	-0.036	-1.012	0.136	-2.005353	8.021412	0.572958	95.67825642	-1.02559482	-22.96415664
1.13	113	-0.033	-1.012	0.127	-3.2085648	9.6256944	0.9740286	95.63814936	-1.04851314	-22.87248336
1.14	114	-0.031	-1.007	0.119	-3.8388186	10.3705398	1.3750992	95.5980423	-1.07716104	-22.7750805
1.15	115	-0.028	-1	0.112	-3.4950438	10.3705398	1.6615782	95.55793524	-1.10580894	-22.67194806
1.16	116	-0.026	-0.994	0.109	-2.4064236	9.740286	1.6615782	95.52928734	-1.13445684	-22.58027478
1.17	117	-0.027	-0.993	0.113	-1.2032118	9.0527364	1.5469866	95.5120986	-1.16310474	-22.49433108
1.18	118	-0.027	-0.996	0.117	-0.4583664	8.6516658	1.3750992	95.50636902	-1.18602306	-22.40838738
1.19	119	-0.027	-0.997	0.119	-0.3437748	8.4797784	1.0886202	95.50063944	-1.20894138	-22.32817326
1.2	120	-0.028	-1.002	0.12	-0.572958	8.6516658	1.0313244	95.48918028	-1.22613012	-22.24222956
1.21	121	-0.028	-1.007	0.123	-1.2032118	9.167328	0.9167328	95.47772112	-1.24904844	-22.15055628
1.22	122	-0.028	-1.01	0.119	-1.7761698	9.740286	1.0313244	95.4548028	-1.27196676	-22.058883
1.23	123	-0.027	-1.013	0.114	-2.578311	10.1413566	1.3178034	95.4261549	-1.30061466	-21.96148014
1.24	124	-0.023	-1.01	0.108	-3.151269	9.9694692	1.718874	95.38604784	-1.32926256	-21.86407728
1.25	125	-0.018	-1.005	0.104	-3.2658606	9.167328	1.9480572	95.34594078	-1.35791046	-21.77813358
1.26	126	-0.014	-1.004	0.102	-3.0366774	8.4797784	1.9480572	95.3115633	-1.38655836	-21.69218988
1.27	127	-0.014	-1.005	0.101	-2.7501984	7.9068204	2.005353	95.2829154	-1.41520626	-21.61770534
1.28	128	-0.014	-1.006	0.1	-2.86479	7.5630456	1.9480572	95.24853792	-1.44385416	-21.54895038
1.29	129	-0.019	-1.005	0.099	-3.151269	7.2765666	1.7761698	95.21416044	-1.47250206	-21.47446584
1.3	130	-0.022	-1.004	0.095	-3.2658606	6.8182002	1.718874	95.17405338	-1.49542038	-21.41144046
1.31	131	-0.026	-1.002	0.092	-3.4950438	6.3598338	1.432395	95.13394632	-1.5183387	-21.34841508
1.32	132	-0.026	-1.005	0.091	-3.6096354	5.9014674	1.3750992	95.09956884	-1.53552744	-21.29111928
1.33	133	-0.026	-1.006	0.09	-3.8388186	5.3285094	1.3178034	95.0537322	-1.55844576	-21.23955306
1.34	134	-0.025	-1.005	0.091	-3.7815228	4.4690724	1.2605076	95.01362514	-1.5756345	-21.199446
1.35	135	-0.023	-1.006	0.096	-3.4950438	3.6669312	1.0313244	94.97351808	-1.58709366	-21.16506852
1.36	136	-0.021	-1.005	0.095	-3.4950438	2.6356068	0.859437	94.93341102	-1.59855282	-21.13642062
1.37	137	-0.019	-1.002	0.102	-3.0939732	1.718874	0.5156622	94.90476312	-1.6042824	-21.11923188
1.38	138	-0.016	-1.002	0.109	-2.4637194	1.2605076	0.4010706	94.87611522	-1.61001198	-21.10777272
1.39	139	-0.018	-1.006	0.109	-2.4637194	0.7448454	0.4583664	94.8531969	-1.61574156	-21.10204314
1.4	140	-0.023	-1.008	0.105	-2.6929026	0.1145916	0.5156622	94.81881942	-1.61001198	-21.10204314
1.41	141	-0.025	-1.008	0.1	-3.0939732	-0.1718874	0.6302538	94.78444194	-1.61574156	-21.10204314
1.42	142	-0.028	-1.009	0.095	-3.437748	-0.4010706	0.6875496	94.75006446	-1.62720072	-21.10777272
1.43	143	-0.033	-1.009	0.093	-3.6669312	-0.6875496	0.8021412	94.71568698	-1.6329303	-21.1135023
1.44	144	-0.036	-1.01	0.095	-4.010706	-0.572958	0.859437	94.67557992	-1.63865988	-21.12496146
1.45	145	-0.036	-1.011	0.098	-4.5263682	-0.2291832	0.8021412	94.6240137	-1.65011904	-21.12496146
1.46	146	-0.037	-1.013	0.099	-4.9847346	-0.1145916	0.9740286	94.57244748	-1.6615782	-21.13069104
1.47	147	-0.036	-1.016	0.096	-5.0993262	-0.286479	1.145916	94.52088126	-1.67303736	-21.13642062
1.48	148	-0.036	-1.018	0.095	-5.2139178	-0.859437	1.432395	94.46931504	-1.68449652	-21.14787978
1.49	149	-0.036	-1.015	0.092	-5.3285094	-1.3750992	1.6042824	94.41774882	-1.70168526	-21.15933894
1.5	150	-0.037	-1.009	0.09	-4.870143	-1.9480572	1.8334656	94.36045302	-1.718874	-21.18225726
1.51	151	-0.038	-1.007	0.086	-4.0680018	-2.578311	2.0626488	94.32034596	-1.73606274	-21.21090516
1.52	152	-0.04	-1.004	0.089	-4.010706	-2.9220858	1.9480572	94.2802389	-1.75325148	-21.23955306
1.53	153	-0.042	-1.004	0.087	-4.010706	-2.9793816	2.005353	94.24013184	-1.77044022	-21.27393054
1.54	154	-0.045	-1.003	0.084	-3.437748	-3.2658606	2.005353	94.21148394	-1.78762896	-21.30830802
1.55	155	-0.046	-1.006	0.088	-3.6096354	-2.9793816	2.1199446	94.17137688	-1.81627686	-21.3426855
1.56	156	-0.049	-1.007	0.09	-3.5523396	-2.6929026	2.291832	94.1369994	-1.8334656	-21.3713334
1.57	157	-0.052	-1.008	0.089	-3.9534102	-2.2345362	2.3491278	94.09689234	-1.85638392	-21.39425172
1.58	158	-0.055	-1.017	0.08	-4.4690724	-1.4896908	2.291832	94.0510557	-1.87930224	-21.41144046
1.59	159	-0.052	-1.031	0.08	-6.2452422	-0.0572958	1.8907614	93.98803032	-1.89649098	-21.41717004
1.6	160	-0.043	-1.048	0.095	-9.3392154	0.1718874	1.4896908	93.89635704	-1.91367972	-21.41717004
1.61	161	-0.028	-1.062	0.185	-13.5791046	-4.1825934	0.7448454	93.7645767	-1.9194093	-21.4572771
1.62	162	-0.03	-1.053	0.206	-13.9228794	-12.605076	0.7448454	93.62706678	-1.91367972	-21.58332786
1.63	163	-0.047	-1.058	0.173	-13.5791046	-15.2979786	0.5156622	93.49528644	-1.90795014	-21.73802652
1.64	164	-0.048	-1.053	0.156	-16.2720072	-11.6310474	0.1718874	93.3348582	-1.90222056	-21.85261812
1.65	165	-0.033	-1.008	0.165	-19.194093	-10.313244	0.8021412	93.15724122	-1.89649098	-21.95575056
1.66	166	-0.022	-0.988	0.155	-20.4546006	-9.9694692	1.8334656	92.95670592	-1.90795014	-22.058883
1.67	167	-0.027	-0.988	0.134	-20.626488	-7.734933	2.8074942	92.75044104	-1.93659804	-22.13909712
1.68	168	-0.052	-0.983	0.117	-19.6524594	-4.5263682	3.8961144	92.54990574	-1.97097552	-22.19066334
1.69	169	-0.091	-0.977	0.109	-18.5638392	-2.005353	4.583664	92.36655918	-2.01681216	-22.21358166
1.7	170	-0.132	-0.969	0.104	-18.1054728	-0.1718874	5.3858052	92.1889422	-2.0912967	-22.22504082
1.71	171	-0.141	-0.967	0.094	-17.2460358	1.718874	6.3598338	92.01132522	-2.15432208	-22.21358166
1.72	172	-0.131	-0.975	0.077	-16.042824	2.3491278	6.875496	91.85089698	-2.22880662	-22.19639292
1.73	173	-0.108	-0.986	0.081	-17.1314442	1.3178034	7.2765666	91.67328	-2.30329116	-22.18493376
1.74	174	-0.076	-1.008	0.049	-18.048177	-0.5156622	8.2505952	91.48993344	-2.38350528	-22.19639292
1.75	175	-0.05	-1.044	0.024	-19.9389384	-2.7501984	9.167328	91.28939814	-2.47517856	-22.22504082
1.76	176	-0.017	-1.05	0.013	-22.345362	-3.437748	10.313244	91.06021494	-2.578311	-22.26514788
1.77	177	0.02	-1.048	-0.007	-23.0329116	-2.578311	10.7716104	90.83103174	-2.68717302	-22.29952536
1.78	178	0.032	-1.064	-0.036	-23.7204612	-3.151269	10.7143146	90.59038938	-2.79030546	-22.33390284
1.79	179	0.021	-1.064	-0.04	-23.3766864	-5.156622	10.2559482	90.3554766	-2.8934379	-22.38546906
1.8	180	-0.006	-1.066	-0.017	-22.631841	-5.6722842	9.7975818	90.1262934	-2.99084076	-22.44849444
1.81	181	-0.038	-1.059	0	-24.1215318	-3.3231564	9.1100322	89.88565104	-3.08251404	-22.48287192
1.82	182	-0.059	-1.027	0.007	-24.7517856	-0.286479	7.9068204	89.63354952	-3.16272816	-22.4886015
1.83	183	-0.091	-1.009	0.007	-24.5798982	2.4064236	5.8441716	89.381448	-3.22002396	-22.46568318
1.84	184	-0.123	-1.041	-0.022	-27.3300966	5.9587632	4.0680018	89.10069858	-3.2658606	-22.40838738
1.85	185	-0.136	-1.079	-0.074	-31.51269	5.9587632	3.8388186	88.76838294	-3.31169724	-22.35682116
1.86	186	-0.119	-1.076	-0.089	-33.4607472	3.3231564	4.8128472	88.43033772	-3.36326346	-22.32244368
1.87	187	-0.084	-1.034	-0.076	-34.4920716	1.6615782	5.0420304	88.07510376	-3.41482968	-22.31098452
1.88	188	-0.042	-0.972	-0.07	-36.4401288	3.151269	3.437748	87.70268106	-3.45493674	-22.28233662
1.89	189	-0.008	-0.917	-0.083	-38.2162986	5.6149884	0.8021412	87.31306962	-3.4663959	-22.2307704
1.9	190	0.003	-0.89	-0.079	-37.9871154	7.734933	-1.2605076	86.9177286	-3.44920716	-22.15628586
1.91	191	0.006	-0.903	-0.066	-37.2995658	9.453807	-1.5469866	86.53384674	-3.43201842	-22.07034216
1.92	192	0.003	-0.937	-0.075	-38.5600734	9.7975818	-0.2291832	86.13277614	-3.43201842	-21.9729393
1.93	193	-0.009	-0.968	-0.101	-40.2216516	8.1360036	1.3750992	85.72024638	-3.44347758	-21.89845476
1.94	194	-0.022	-0.99	-0.112	-41.1383844	5.8441716	2.578311	85.29625746	-3.47212548	-21.84115896
1.95	195	-0.031	-1.005	-0.109	-41.6540466	3.7815228	3.3231564	84.86653896	-3.50077338	-21.80678148
1.96	196	-0.034	-1.012	-0.111	-41.539455	1.6042824	3.3804522	84.44827962	-3.54088044	-21.78959274
1.97	197	-0.039	-1.01	-0.118	-41.4821592	-1.3178034	2.6356068	84.0242907	-3.56952834	-21.80678148
1.98	198	-0.045	-0.999	-0.123	-40.966497	-3.8388186	1.0313244	83.61176094	-3.58671708	-21.84688854
1.99	199	-0.051	-0.981	-0.113	-40.1643558	-5.2712136	-0.859437	83.21069034	-3.58671708	-21.90418434
2	200	-0.065	-0.971	-0.119	-40.8519054	-6.3598338	-3.5523396	82.79816058	-3.56379876	-21.97866888
2.01	201	-0.083	-0.96	-0.113	-42.9145542	-6.7036086	-6.2452422	82.36844208	-3.51223254	-22.05315342
2.02	202	-0.096	-0.954	-0.102	-45.2063862	-4.2398892	-8.5370742	81.91580526	-3.437748	-22.11044922
2.03	203	-0.105	-0.954	-0.108	-48.3003594	-0.6875496	-10.0840608	81.42306138	-3.34034514	-22.13909712
2.04	204	-0.112	-0.956	-0.11	-50.3057124	3.0366774	-10.6570188	80.91312876	-3.2372127	-22.12763796
2.05	205	-0.116	-0.949	-0.133	-52.3683612	6.9327918	-10.5424272	80.38027782	-3.13408026	-22.08180132
2.06	206	-0.111	-0.945	-0.15	-54.2018268	10.886202	-9.2246238	79.81877898	-3.03094782	-22.0015872
2.07	207	-0.093	-0.94	-0.159	-55.4050386	13.8655836	-6.6463128	79.25155056	-2.9507337	-21.88126602
2.08	208	-0.058	-0.938	-0.165	-55.4050386	16.9595568	-1.7761698	78.67859256	-2.91062664	-21.72083778
2.09	209	-0.027	-0.925	-0.166	-56.436363	16.4438946	2.1199446	78.0941754	-2.91062664	-21.56613912
2.1	210	0.003	-0.922	-0.161	-56.9520252	15.5844576	4.583664	77.50975824	-2.92781538	-21.40571088
2.11	211	0.021	-0.932	-0.135	-58.0979412	13.1207382	5.9587632	76.90815234	-2.96792244	-21.27393054
2.12	212	0.028	-0.937	-0.116	-62.165943	10.026765	6.1306506	76.27216896	-3.01375908	-21.16506852
2.13	213	0.032	-0.939	-0.142	-65.0880288	6.7609044	5.156622	75.60753768	-3.05386614	-21.09631356
2.14	214	0.022	-0.947	-0.172	-64.744254	2.8074942	3.9534102	74.94863598	-3.0939732	-21.06193608
2.15	215	0.001	-0.963	-0.191	-63.4264506	-0.6875496	2.7501984	74.30692302	-3.12835068	-21.06766566
2.16	216	-0.019	-0.973	-0.213	-64.2858876	-3.437748	1.0886202	73.65948048	-3.151269	-21.10204314
2.17	217	-0.029	-0.972	-0.24	-64.4004792	-5.0420304	0.3437748	73.00630836	-3.17418732	-21.15933894
2.18	218	-0.026	-0.958	-0.26	-62.8534926	-8.3651868	0	72.37605456	-3.20283522	-21.23955306
2.19	219	-0.026	-0.936	-0.222	-60.5043648	-11.5164558	-0.0572958	71.76871908	-3.24294228	-21.35414466
2.2	220	-0.032	-0.915	-0.237	-58.9000824	-13.178034	-0.3437748	71.18430192	-3.28304934	-21.485925
2.21	221	-0.044	-0.907	-0.23	-57.8114622	-12.5477802	-0.6302538	70.60561434	-3.3231564	-21.61197576
2.22	222	-0.06	-0.913	-0.227	-57.3530958	-9.7975818	-1.3750992	70.02692676	-3.34607472	-21.7151082
2.23	223	-0.082	-0.933	-0.262	-59.301153	-6.0733548	-2.005353	69.43105044	-3.3518043	-21.78386316
2.24	224	-0.101	-0.96	-0.281	-60.5616606	0.1145916	-3.0366774	68.81798538	-3.32888598	-21.79532232
2.25	225	-0.106	-0.961	-0.324	-61.1919144	5.3858052	-4.297185	68.19346116	-3.28304934	-21.76667442
2.26	226	-0.116	-0.959	-0.344	-57.0666168	9.5111028	-2.86479	67.609044	-3.23148312	-21.69791946
2.27	227	-0.103	-0.926	-0.354	-54.2591226	13.2926256	-1.0313244	67.05327474	-3.1799169	-21.57759828
2.28	228	-0.078	-0.878	-0.32	-50.0192334	14.8396122	0.9740286	66.53188296	-3.13980984	-21.44581794
2.29	229	-0.061	-0.835	-0.293	-49.274388	14.2093584	2.2345362	66.02767992	-3.11116194	-21.30830802
2.3	230	-0.065	-0.833	-0.279	-48.5295426	12.7769634	3.0939732	65.52920646	-3.09970278	-21.18225726
2.31	231	-0.083	-0.846	-0.279	-50.8213746	13.0061466	3.4950438	65.0020851	-3.08824362	-21.05047692
2.32	232	-0.084	-0.87	-0.324	-51.9672906	10.9434978	2.005353	64.46923416	-3.07105488	-20.94734448
2.33	233	-0.076	-0.916	-0.337	-51.9672906	11.2299768	-1.0886202	63.93638322	-3.01948866	-20.8556712
2.34	234	-0.046	-0.938	-0.39	-52.9413192	11.9748222	-4.583664	63.39207312	-2.93354496	-20.7697275
2.35	235	-0.015	-0.937	-0.411	-50.5348956	12.032118	-6.9327918	62.87641092	-2.82468294	-20.69524296
2.36	236	0.01	-0.909	-0.465	-48.8160216	11.4018642	-7.448454	62.37220788	-2.71582092	-20.63221758
2.37	237	0.03	-0.91	-0.484	-45.6647526	9.9694692	-7.1046792	61.9081119	-2.61841806	-20.58065136
2.38	238	0.039	-0.885	-0.397	-44.7480198	8.9381448	-6.1306506	61.4497455	-2.52674478	-20.52908514
2.39	239	0.008	-0.852	-0.321	-43.544808	5.7868758	-4.870143	61.00283826	-2.4637194	-20.50616682
2.4	240	-0.062	-0.843	-0.305	-42.6280752	-1.0886202	-4.583664	60.58457892	-2.44080108	-20.5405443
2.41	241	-0.105	-0.851	-0.385	-47.3263308	-4.7555514	-5.7868758	60.10902378	-2.41788276	-20.61502884
2.42	242	-0.102	-0.878	-0.412	-50.3057124	-7.3911582	-7.9641162	59.60482074	-2.38923486	-20.72389086
2.43	243	-0.075	-0.902	-0.443	-50.8786704	-8.8235532	-10.026765	59.09488812	-2.35485738	-20.84994162
2.44	244	-0.042	-0.915	-0.484	-50.0765292	-8.8235532	-11.0580894	58.59068508	-2.30902074	-20.98745154
2.45	245	-0.009	-0.897	-0.519	-50.5348956	-7.9068204	-12.0894138	58.08648204	-2.24599536	-21.11923188
2.46	246	0.027	-0.874	-0.529	-49.0452048	-7.6776372	-13.2926256	57.59373816	-2.1772404	-21.2567418
2.47	247	0.061	-0.842	-0.498	-46.2377106	-8.5370742	-14.3812458	57.12964218	-2.10848544	-21.41144046
2.48	248	0.075	-0.818	-0.432	-43.258329	-6.016059	-13.2926256	56.6941941	-2.0340009	-21.53749122
2.49	249	0.079	-0.795	-0.466	-43.4302164	-6.0733548	-11.745639	56.25874602	-1.9767051	-21.65208282
2.5	250	0.046	-0.795	-0.49	-44.6334282	-9.167328	-10.3705398	55.81183878	-1.93659804	-21.78959274
2.51	251	0.003	-0.796	-0.534	-45.263682	-10.6570188	-8.59437	55.35920196	-1.93086846	-21.92710266
2.52	252	-0.035	-0.814	-0.574	-44.7480198	-11.1153852	-7.3338624	54.91229472	-1.93659804	-22.06461258
2.53	253	-0.073	-0.852	-0.59	-44.4615408	-12.2613012	-7.2765666	54.46538748	-1.9480572	-22.20785208
2.54	254	-0.1	-0.858	-0.62	-46.8679644	-12.032118	-7.2765666	53.99556192	-1.96524594	-22.35109158
2.55	255	-0.117	-0.833	-0.621	-47.555514	-12.1467096	-8.2505952	53.52000678	-1.98243468	-22.50579024
2.56	256	-0.093	-0.774	-0.513	-42.3415962	-9.3392154	-10.313244	53.09601786	-1.95378678	-22.64330016
2.57	257	-0.056	-0.755	-0.481	-40.7946096	-5.72958	-11.2299768	52.6834881	-1.90795014	-22.75789176
2.58	258	-0.025	-0.732	-0.41	-43.3729206	-8.3651868	-10.2559482	52.24804002	-1.87930224	-22.8896721
2.59	259	-0.025	-0.723	-0.547	-44.117766	-10.886202	-8.4224826	51.80686236	-1.88503182	-23.02718202
2.6	260	-0.042	-0.735	-0.597	-45.8939358	-11.0007936	-5.8441716	51.34276638	-1.90795014	-23.15323278
2.61	261	-0.059	-0.754	-0.615	-44.8053156	-11.0007936	-3.8961144	50.89585914	-1.95378678	-23.26782438
2.62	262	-0.072	-0.802	-0.652	-44.3469492	-9.167328	-3.4950438	50.4489519	-1.98816426	-23.35949766
2.63	263	-0.091	-0.81	-0.691	-46.8679644	-7.9068204	-4.2398892	49.97912634	-2.005353	-23.45117094
2.64	264	-0.09	-0.795	-0.718	-49.4462754	-8.8235532	-6.2452422	49.48065288	-2.02254174	-23.56003296
2.65	265	-0.064	-0.738	-0.652	-45.2063862	-9.7975818	-8.3651868	49.02228648	-2.02827132	-23.6918133
2.66	266	-0.038	-0.702	-0.593	-39.9924684	-5.443101	-9.2819196	48.62121588	-1.99962342	-23.79494574
2.67	267	-0.002	-0.696	-0.547	-37.528749	1.8907614	-8.6516658	48.2430636	-1.92513888	-23.84078238
2.68	268	0.028	-0.669	-0.621	-33.8618178	3.8961144	-6.8182002	47.8992888	-1.85638392	-23.85797112
2.69	269	0.026	-0.692	-0.667	-33.3461556	2.6929026	-4.0680018	47.56124358	-1.81054728	-23.8637007
2.7	270	0	-0.699	-0.701	-32.372127	3.8961144	-2.7501984	47.21746878	-1.76471064	-23.85797112
2.71	271	-0.047	-0.692	-0.761	-29.5646328	6.302538	-2.0626488	46.91380104	-1.71314442	-23.82359364
2.72	272	-0.084	-0.733	-0.762	-25.78311	6.9900876	-2.6929026	46.65024036	-1.65011904	-23.78921616
2.73	273	-0.112	-0.698	-0.776	-26.8144344	3.151269	-3.5523396	46.37522052	-1.61001198	-23.79494574
2.74	274	-0.113	-0.69	-0.724	-26.642547	-4.010706	-3.6096354	46.10593026	-1.61574156	-23.84651196
2.75	275	-0.067	-0.641	-0.717	-26.1841806	-9.6829902	-2.5210152	45.83091042	-1.66730778	-23.93818524
2.76	276	-0.023	-0.638	-0.686	-24.2361234	-13.178034	-1.3178034	45.59026806	-1.7475219	-24.04131768
2.77	277	-0.001	-0.617	-0.638	-19.8816426	-12.1467096	-0.1145916	45.38973276	-1.8334656	-24.13299096
2.78	278	0	-0.636	-0.721	-14.7250206	-8.59437	0.4010706	45.24649326	-1.89649098	-24.19028676
2.79	279	-0.025	-0.658	-0.734	-13.0061466	-6.875496	0.1145916	45.11471292	-1.9480572	-24.24185298
2.8	280	-0.074	-0.671	-0.728	-11.5164558	-5.9014674	-1.3178034	44.977203	-1.99389384	-24.29914878
2.81	281	-0.097	-0.646	-0.721	-11.8602306	-7.1046792	-3.2658606	44.8626114	-2.01681216	-24.37363332
2.82	282	-0.107	-0.647	-0.711	-11.6310474	-10.6570188	-3.4950438	44.7480198	-2.06837838	-24.47103618
2.83	283	-0.109	-0.622	-0.694	-12.318597	-14.2666542	-3.4950438	44.62769862	-2.14286292	-24.59708694
2.84	284	-0.082	-0.618	-0.687	-11.745639	-16.2147114	-3.6096354	44.5188366	-2.22880662	-24.74032644
2.85	285	-0.051	-0.582	-0.693	-12.318597	-16.6730778	-2.3491278	44.38705626	-2.33193906	-24.87783636
2.86	286	-0.042	-0.582	-0.705	-10.313244	-15.9282324	-2.3491278	44.2896534	-2.42934192	-25.0096167
2.87	287	-0.04	-0.593	-0.702	-7.8495246	-13.5791046	-3.3231564	44.21516886	-2.49809688	-25.12993788
2.88	288	-0.056	-0.592	-0.691	-4.9847346	-8.8235532	-4.297185	44.16933222	-2.53247436	-25.22161116
2.89	289	-0.073	-0.595	-0.705	-2.8074942	-6.2452422	-4.870143	44.1464139	-2.53820394	-25.30182528
2.9	290	-0.085	-0.596	-0.707	-0.8021412	-5.0420304	-5.72958	44.10630684	-2.56112226	-25.3820394
2.91	291	-0.097	-0.605	-0.706	1.6615782	-5.156622	-5.6149884	44.12349558	-2.55539268	-25.45652394
2.92	292	-0.1	-0.589	-0.717	2.6929026	-5.8441716	-5.0420304	44.15787306	-2.56112226	-25.53673806
2.93	293	-0.091	-0.556	-0.722	3.8961144	-6.6463128	-4.2398892	44.2037097	-2.57258142	-25.6112226
2.94	294	-0.066	-0.548	-0.716	7.7922288	-6.7036086	-4.7555514	44.28392382	-2.58977016	-25.6971663
2.95	295	-0.052	-0.534	-0.705	9.3965112	-5.6722842	-4.8128472	44.35267878	-2.59549974	-25.77165084
2.96	296	-0.052	-0.515	-0.703	12.7769634	-1.6042824	-5.3858052	44.48445912	-2.56685184	-25.81748748
2.97	297	-0.067	-0.533	-0.718	16.5011904	2.0626488	-5.8441716	44.65634652	-2.50955604	-25.84613538
2.98	298	-0.09	-0.533	-0.724	18.907614	5.9014674	-6.016059	44.84542266	-2.42361234	-25.84613538
2.99	299	-0.107	-0.544	-0.747	21.8296998	8.8235532	-5.5003968	45.06887628	-2.3204799	-25.81748748
3	300	-0.12	-0.537	-0.755	24.8663772	8.7089616	-4.6982556	45.28660032	-2.24026578	-25.78883958
3.01	301	-0.105	-0.543	-0.748	28.7051958	7.3911582	-4.3544808	45.5788089	-2.15432208	-25.76592126
3.02	302	-0.066	-0.548	-0.73	31.3980984	6.0733548	-2.8074942	45.8939358	-2.0912967	-25.74300294
3.03	303	-0.025	-0.539	-0.711	33.6899304	5.6149884	-1.0886202	46.2377106	-2.03973048	-25.70862546
3.04	304	-0.01	-0.518	-0.703	35.4661002	6.2452422	0.4583664	46.59294456	-1.99389384	-25.65705924
3.05	305	-0.023	-0.497	-0.703	37.7579322	8.6516658	1.5469866	46.9539081	-1.9480572	-25.5825747
3.06	306	-0.042	-0.489	-0.708	40.5081306	11.8602306	2.86479	47.3549787	-1.88503182	-25.4679831
3.07	307	-0.051	-0.48	-0.716	43.0291458	13.2926256	4.0680018	47.79042678	-1.82200644	-25.34193234
3.08	308	-0.049	-0.483	-0.737	45.8939358	13.8082878	5.6149884	48.24879318	-1.77044022	-25.19869284
3.09	309	-0.047	-0.491	-0.733	49.560867	12.1467096	7.3911582	48.74726664	-1.74179232	-25.05545334
3.1	310	-0.044	-0.491	-0.695	53.3996856	9.2246238	9.167328	49.26292884	-1.7475219	-24.923673
3.11	311	-0.03	-0.476	-0.661	57.1239126	7.734933	10.8289062	49.84161642	-1.77044022	-24.79189266
3.12	312	-0.022	-0.455	-0.66	62.0513514	8.0787078	11.8602306	50.46614064	-1.8048177	-24.65438274
3.13	313	-0.018	-0.438	-0.647	66.8641986	8.59437	11.9748222	51.1365015	-1.83919518	-24.50541366
3.14	314	-0.008	-0.435	-0.643	71.5051584	8.880849	11.45916	51.85842858	-1.8621135	-24.36217416
3.15	315	0.003	-0.443	-0.627	76.0315266	9.2246238	10.599723	52.60900356	-1.87930224	-24.21893466
3.16	316	-0.005	-0.456	-0.598	80.6724864	10.599723	9.7975818	53.42260392	-1.8907614	-24.07569516
3.17	317	-0.034	-0.464	-0.576	84.7404882	12.2613012	8.880849	54.27631134	-1.87930224	-23.91526692
3.18	318	-0.075	-0.47	-0.557	89.2095606	13.8655836	7.8495246	55.1758554	-1.85638392	-23.75483868
3.19	319	-0.104	-0.48	-0.56	94.0797036	14.610429	6.5317212	56.1212361	-1.81627686	-23.58868086
3.2	320	-0.1	-0.492	-0.546	99.8092836	13.9228794	5.156622	57.11818302	-1.78189938	-23.43971178
3.21	321	-0.062	-0.511	-0.525	104.4502434	11.5164558	4.010706	58.17815532	-1.74179232	-23.31366102
3.22	322	-0.04	-0.524	-0.511	108.1171746	11.1153852	3.4950438	59.26677552	-1.70168526	-23.19333984
3.23	323	-0.039	-0.528	-0.482	111.3257394	13.8655836	2.8074942	60.3897732	-1.65011904	-23.05582992
3.24	324	-0.049	-0.534	-0.473	114.018642	16.4438946	1.0313244	61.54141878	-1.56417534	-22.89540168
3.25	325	-0.064	-0.533	-0.436	117.9720522	18.334656	-1.2032118	62.72744184	-1.4610429	-22.73497344
3.26	326	-0.067	-0.541	-0.428	121.2952086	19.7097552	-3.724227	63.94784238	-1.33499214	-22.56308604
3.27	327	-0.039	-0.548	-0.427	124.1027028	17.5898106	-5.6722842	65.2026204	-1.19748222	-22.41984654
3.28	328	0.001	-0.561	-0.378	127.8842256	12.032118	-6.5317212	66.49750548	-1.07716104	-22.32817326
3.29	329	0.034	-0.565	-0.334	130.2906492	8.307891	-6.4744254	67.82103846	-0.96829902	-22.26514788
3.3	330	0.06	-0.553	-0.294	131.5511568	6.1879464	-6.1879464	69.15030102	-0.87089616	-22.21931124
3.31	331	0.055	-0.534	-0.287	133.1554392	7.161975	-6.7036086	70.49675232	-0.7734933	-22.16774502
3.32	332	0.038	-0.514	-0.284	135.4472712	8.3651868	-7.6776372	71.87185152	-0.6589017	-22.09899006
3.33	333	0.017	-0.496	-0.272	138.2547654	10.886202	-9.0527364	73.26986904	-0.52712136	-22.01304636
3.34	334	0.022	-0.495	-0.25	141.9216966	12.8342592	-10.313244	74.70799362	-0.38388186	-21.90418434
3.35	335	0.029	-0.511	-0.216	144.5573034	13.8082878	-11.8602306	76.16903652	-0.21772404	-21.78386316
3.36	336	0.052	-0.515	-0.217	147.6512766	16.1001198	-12.2040054	77.6644569	-0.0572958	-21.64062366
3.37	337	0.1	-0.519	-0.185	151.4327994	10.9434978	-11.0580894	79.19998434	0.08021412	-21.5432208
3.38	338	0.127	-0.506	-0.142	158.9385492	0.9740286	-8.9954406	80.8157259	0.18907614	-21.53176164
3.39	339	0.134	-0.473	-0.094	162.5481846	-2.6356068	-6.7036086	82.46584494	0.26356068	-21.55467996
3.4	340	0.148	-0.436	-0.099	163.4076216	-1.145916	-3.9534102	84.12169356	0.32658606	-21.54895038
3.41	341	0.19	-0.418	-0.076	165.9286368	-4.3544808	-0.8021412	85.80619008	0.34950438	-21.57759828
3.42	342	0.236	-0.435	-0.057	169.9393428	-8.3651868	2.9793816	87.53079366	0.33231564	-21.64062366
3.43	343	0.268	-0.435	-0.033	175.1532606	-11.9175264	7.5057498	89.30696346	0.26929026	-21.73802652
3.44	344	0.281	-0.437	0.021	185.924871	-16.7876694	13.178034	91.19772486	0.16042824	-21.88126602
3.45	345	0.266	-0.427	0.046	191.5971552	-22.1161788	19.194093	93.14578206	0.00572958	-22.08180132
3.46	346	0.251	-0.402	0.106	196.238115	-27.3300966	25.2674478	95.1396759	-0.19480572	-22.345362
3.47	347	0.211	-0.39	0.173	199.9050462	-33.804522	31.1689152	97.17940638	-0.44690724	-22.6891368
3.48	348	0.147	-0.385	0.242	203.5719774	-35.9244666	35.4661002	99.25351434	-0.72192708	-23.06728908
3.49	349	0.09	-0.373	0.297	207.0097254	-36.2109456	37.7006364	101.3677294	-1.0026765	-23.45690052
3.5	350	0.041	-0.383	0.359	209.2442616	-35.6379876	38.2735944	103.5105923	-1.27769634	-23.85224154
3.51	351	-0.015	-0.41	0.346	212.1663474	-33.3461556	38.674665	105.6763735	-1.5469866	-24.24185298
3.52	352	-0.095	-0.42	0.237	220.9899006	-31.1116194	38.6173692	107.933828	-1.8048177	-24.61427568
3.53	353	-0.158	-0.434	0.135	234.91278	-29.6792244	36.5547204	110.3345221	-2.0340009	-24.9809688
3.54	354	-0.139	-0.501	0.125	246.7730106	-33.9191136	34.1482968	112.8612668	-2.21161788	-25.3820394
3.55	355	-0.161	-0.418	-0.005	247.5751518	-31.3408026	26.2414764	115.3880116	-2.31475032	-25.73154378
3.56	356	-0.171	0.106	0.232	250.7264208	-9.8548776	-0.9740286	117.9376747	-2.25745452	-25.77738042
3.57	357	-0.476	-0.122	0.526	269.1183726	10.886202	-12.7196676	120.6592252	-2.19442914	-25.58830428
3.58	358	-0.598	-0.885	0.894	286.6508874	29.2781538	7.3338624	123.5526631	-2.41788276	-25.34766192
3.59	359	-0.519	-0.746	1.134	273.300966	12.6623718	9.167328	126.3200503	-2.56685184	-25.25598864
3.6	360	-0.286	-0.546	1.629	276.8533056	18.907614	1.7761698	129.1275445	-2.70436176	-25.08983082
3.61	361	-0.059	-0.82	1.938	288.5416488	30.2521824	10.599723	132.0381711	-2.98511118	-24.8950251
3.62	362	-0.01	-2.48	2.121	227.177847	32.2002396	-6.7609044	134.3242735	-3.16845774	-24.58562778
3.63	363	0.184	0.224	2.915	985.9461264	-84.9123756	-2.86479	144.3567681	-2.50382646	-24.94086174
3.64	364	0.161	0.008	2.827	404.9094186	43.6593996	14.037471	148.4476882	-2.96792244	-24.7804335
3.65	365	-0.364	-1.272	2.572	105.4815678	34.663959	15.6417534	149.5133901	-3.3518043	-24.73459686
3.66	366	0.459	-1.266	3.808	172.5749496	8.3651868	6.6463128	151.260912	-3.4663959	-24.72886728
3.67	367	-0.253	-0.451	3.524	219.8439846	6.7609044	47.7846972	153.5183665	-3.76433406	-25.0955604
3.68	368	-0.352	-0.651	3.167	257.0862546	57.582279	47.0971476	156.131055	-4.4977203	-25.26171822
3.69	369	-0.153	0.011	2.214	238.0067532	37.3568616	16.1574156	158.5432082	-4.92170922	-25.24452948
3.7	370	-0.827	-0.314	2.877	244.3092912	-22.2880662	0.8021412	161.0298459	-4.73836266	-25.2960957
3.71	371	-0.259	-0.206	2.678	206.837838	-20.9702628	-4.1252976	163.1268722	-4.54355694	-25.2960957
3.72	372	-0.335	-0.264	2.208	167.6475108	-9.3965112	-2.8074942	164.8285574	-4.46334282	-25.27317738
3.73	373	-0.139	-0.379	1.835	156.704013	-5.5576926	1.5469866	166.4213807	-4.42323576	-25.27890696
3.74	374	-0.206	-0.263	1.602	161.860635	-5.6722842	2.8074942	168.0657701	-4.38885828	-25.30182528
3.75	375	-0.095	-0.279	1.359	170.1112302	1.6615782	1.7761698	169.7903737	-4.42323576	-25.30182528
3.76	376	-0.028	-0.397	1.275	176.6429514	11.0007936	0.859437	171.5780027	-4.5550161	-25.27890696
3.77	377	-0.092	-0.29	1.399	190.2793518	21.8296998	-0.3437748	173.5031416	-4.7841993	-25.23307032
3.78	378	-0.039	-0.218	1.509	200.1342294	31.3980984	-2.5210152	175.5256833	-5.11651494	-25.17004494
3.79	379	-0.048	-0.164	1.402	192.3992964	26.356068	-2.4064236	177.4680109	-5.39726436	-25.11847872
3.8	380	-0.153	-0.18	1.389	181.4557986	20.7410796	-5.443101	179.3014765	-5.62071798	-25.04972376
3.81	381	-0.106	-0.059	1.354	169.2517932	13.5791046	-4.1252976	-178.9863496	-5.77541664	-24.99815754
3.82	382	-0.018	0	1.193	161.860635	8.59437	5.0420304	-177.3362306	-5.87854908	-25.0382646
3.83	383	-0.089	0.114	1.014	154.4694768	1.145916	9.3965112	-175.7605961	-5.9014674	-25.1242083
3.84	384	-0.082	0.196	0.952	153.3235608	-23.9496444	5.7868758	-174.2021503	-5.67801378	-25.14139704
3.85	385	-0.117	0.139	0.874	145.1875572	-37.0703826	-4.010706	-172.7296483	-5.33996856	-25.04399418
3.86	386	-0.007	0.01	0.837	141.3487386	-50.3057124	-30.5959572	-171.3259012	-4.91025006	-24.64865316
3.87	387	0.27	-0.664	0.891	117.8574606	-64.457775	-69.1560306	-170.1857147	-4.4117766	-23.84078238
3.88	388	0.18	-0.502	0.961	79.8703452	-62.3378304	-40.4508348	-169.4064919	-3.89038482	-23.31366102
3.89	389	0.038	0.115	0.737	55.290447	-61.6502808	-28.4187168	-168.8621818	-3.35753388	-22.90113126
3.9	390	0.037	0.293	0.707	72.6510744	-50.8213746	-38.5600734	-168.1116068	-2.9507337	-22.40838738
3.91	391	0.131	-0.068	0.665	43.544808	-37.3568616	-36.0390582	-167.6876179	-2.67571386	-21.96720972
3.92	392	-0.036	0.386	0.544	0.286479	-31.5699858	-23.7204612	-167.6933474	-2.42361234	-21.66354198
3.93	393	-0.074	0.475	0.538	5.3858052	-20.3973048	-24.4080108	-167.6475108	-2.28037284	-21.37706298
3.94	394	-0.178	0.632	0.458	-17.7044022	-21.7151082	-17.18874	-167.8365869	-2.10848544	-21.15933894
3.95	395	-0.287	0.656	0.444	-41.9405256	-19.8816426	-7.448454	-168.2376575	-1.93659804	-21.04474734
3.96	396	-0.253	0.532	0.456	-67.5517482	-20.1108258	-2.8074942	-168.9194776	-1.74179232	-20.97599238
3.97	397	-0.341	0.711	0.457	-72.7083702	-8.880849	4.1825934	-169.6585934	-1.63865988	-20.9989107
3.98	398	-0.102	0.197	0.491	-85.7718126	1.6615782	5.7868758	-170.5294895	-1.6329303	-21.06766566
3.99	399	-0.032	0.192	0.534	-90.3554766	12.0894138	2.4064236	-171.4462223	-1.73606274	-21.11923188
4	400	-0.088	0.154	0.587	-91.4440968	25.9549974	-4.297185	-172.3629551	-1.98816426	-21.12496146
4.01	401	-0.047	0.144	0.626	-83.7091638	38.674665	-7.5057498	-173.2166626	-2.36631654	-21.1135023
4.02	402	-0.102	0.415	0.694	-89.3241522	47.2117392	-8.307891	-174.1276658	-2.83041252	-21.10204314
4.03	403	-0.049	0.209	0.819	-81.4173318	52.4829528	-11.2872726	-174.9641845	-3.34607472	-21.06193608
4.04	404	-0.063	0.22	0.893	-88.3501236	48.8160216	-12.4904844	-175.8751877	-3.82162986	-20.99318112
4.05	405	-0.091	0.194	1.082	-87.7198698	44.0604702	-11.172681	-176.7690022	-4.25707794	-20.93015574
4.06	406	-0.142	-0.015	1.081	-81.1881486	39.1903272	-9.9121734	-177.6055208	-4.6409598	-20.86713036
4.07	407	-0.163	0.134	1.184	-74.5991316	34.091001	-7.9068204	-178.3732846	-4.96754586	-20.81556414
4.08	408	-0.085	0.134	1.308	-61.5356892	30.939732	-6.016059	-179.0035384	-5.2712136	-20.77545708
4.09	409	-0.097	0.185	1.38	-49.7327544	25.8977016	-5.2712136	-179.513471	-5.52331512	-20.73535002
4.1	410	-0.135	0.094	1.389	-45.3782736	20.1108258	-5.5576926	-179.9832965	-5.71812084	-20.68951338
4.11	411	-0.158	0.066	1.435	-38.7892566	18.334656	-4.7555514	179.6108738	-5.89573782	-20.64940632
4.12	412	-0.127	0.071	1.454	-35.4661002	19.767051	-4.3544808	179.2441807	-6.08481396	-20.61502884
4.13	413	-0.119	0.016	1.431	-34.37748	20.05353	-3.6096354	178.8889468	-6.27961968	-20.58065136
4.14	414	-0.151	0.009	1.365	-29.2781538	19.3086846	-3.3231564	178.585279	-6.46869582	-20.55200346
4.15	415	-0.146	-0.024	1.336	-20.3973048	17.8189938	-2.86479	178.3732846	-6.64058322	-20.52335556
4.16	416	-0.166	-0.069	1.233	-7.6203414	13.9801752	-1.6042824	178.2930704	-6.77809314	-20.5118964
4.17	417	-0.139	0.008	1.149	2.1772404	9.2246238	-1.8907614	178.3102592	-6.86976642	-20.48897808
4.18	418	-0.134	-0.059	1.089	7.734933	5.156622	-1.6615782	178.3847437	-6.92133264	-20.47178934
4.19	419	-0.118	0.043	1.001	13.750992	5.443101	-1.8907614	178.5222536	-6.97289886	-20.4546006
4.2	420	-0.112	0.014	0.953	14.1520626	5.8441716	-2.5210152	178.6425748	-7.03592424	-20.4259527
4.21	421	-0.137	0.001	0.909	11.8602306	3.5523396	-1.7761698	178.762896	-7.07030172	-20.40303438
4.22	422	-0.111	0.052	0.892	14.0947668	4.5263682	-1.9480572	178.9004059	-7.12186794	-20.38584564
4.23	423	-0.113	-0.066	0.889	13.5791046	5.0420304	-1.145916	179.0379158	-7.17343416	-20.37438648
4.24	424	-0.117	-0.01	0.888	16.1574156	3.6669312	-0.4010706	179.1983441	-7.20781164	-20.3686569
4.25	425	-0.121	0.032	0.911	18.2200644	3.2658606	-0.4010706	179.3931498	-7.24218912	-20.36292732
4.26	426	-0.149	0.046	0.928	16.9595568	2.005353	-0.1145916	179.5650372	-7.25937786	-20.35719774
4.27	427	-0.14	-0.008	0.928	13.0634424	-0.9167328	0.5156622	179.6968175	-7.25364828	-20.36292732
4.28	428	-0.138	-0.016	0.925	10.026765	-4.6982556	0.8021412	179.79995	-7.20781164	-20.3686569
4.29	429	-0.136	0	0.926	8.59437	-7.3911582	0.9740286	179.8916233	-7.1333271	-20.38011606
4.3	430	-0.134	0.023	0.943	6.0733548	-9.8548776	1.0313244	179.9603782	-7.04165382	-20.38584564
4.31	431	-0.126	0.014	0.96	2.9220858	-11.5737516	1.0313244	179.9947557	-6.92706222	-20.39157522
4.32	432	-0.128	0.032	0.969	-0.1718874	-13.5791046	0.9740286	179.9947557	-6.79528188	-20.40303438
4.33	433	-0.129	0.029	0.967	-3.0366774	-14.8396122	0.859437	179.9661078	-6.6463128	-20.40303438
4.34	434	-0.122	0.036	0.967	-5.5003968	-15.6417534	0.859437	179.9145416	-6.49161414	-20.40876396
4.35	435	-0.122	0.032	0.966	-7.2765666	-15.4125702	0.6302538	179.8515162	-6.34264506	-20.41449354
4.36	436	-0.117	0.031	0.972	-8.3651868	-14.0947668	0.5156622	179.7655725	-6.19940556	-20.42022312
4.37	437	-0.114	0.028	0.979	-8.880849	-12.0894138	0.4010706	179.6796288	-6.07908438	-20.42022312
4.38	438	-0.112	0.031	0.989	-8.7662574	-10.2559482	0.4010706	179.5936851	-5.97595194	-20.42022312
4.39	439	-0.111	0.026	0.998	-8.4797784	-9.1100322	0.572958	179.5077414	-5.88427866	-20.4259527
4.4	440	-0.11	0.024	1.004	-7.6203414	-8.880849	0.6875496	179.4389864	-5.79833496	-20.43741186
4.41	441	-0.11	0.023	1.013	-6.4744254	-9.5683986	0.8021412	179.3759611	-5.70666168	-20.44314144
4.42	442	-0.11	0.03	1.014	-5.3858052	-10.5424272	1.0313244	179.3243948	-5.59779966	-20.4546006
4.43	443	-0.107	0.019	1.019	-3.8961144	-11.6310474	1.0886202	179.2900174	-5.48320806	-20.46033018
4.44	444	-0.106	0.02	1.018	-2.4637194	-12.5477802	1.2605076	179.267099	-5.3571573	-20.47178934
4.45	445	-0.1	0.026	1.022	-1.145916	-13.6364004	1.5469866	179.2728286	-5.22537696	-20.48897808
4.46	446	-0.103	0.03	1.025	-0.1718874	-14.4385416	1.6615782	179.2728286	-5.08213746	-20.50043724
4.47	447	-0.097	0.031	1.026	0.4583664	-14.896908	1.718874	179.2842878	-4.93316838	-20.51762598
4.48	448	-0.096	0.029	1.027	0.6302538	-14.9542038	1.718874	179.2900174	-4.7841993	-20.53481472
4.49	449	-0.092	0.036	1.027	0.3437748	-14.610429	1.6615782	179.3014765	-4.6409598	-20.54627388
4.5	450	-0.09	0.037	1.026	-0.2291832	-14.0947668	1.6615782	179.3186653	-4.50917946	-20.56346262
4.51	451	-0.085	0.032	1.027	-0.7448454	-13.5791046	1.432395	179.3129357	-4.37739912	-20.57492178
4.52	452	-0.081	0.032	1.028	-1.0886202	-12.8342592	1.3750992	179.3072061	-4.24561878	-20.59211052
4.53	453	-0.078	0.031	1.029	-0.9740286	-12.2613012	1.145916	179.3014765	-4.1252976	-20.5978401
4.54	454	-0.073	0.032	1.028	-0.7448454	-11.5737516	1.0313244	179.2957469	-4.010706	-20.60929926
4.55	455	-0.071	0.029	1.026	-0.3437748	-10.6570188	0.9740286	179.3129357	-3.90757356	-20.62075842
4.56	456	-0.07	0.03	1.024	0.2291832	-9.5683986	0.8021412	179.3186653	-3.8101707	-20.626488
4.57	457	-0.066	0.029	1.019	0.6875496	-8.4224826	0.6875496	179.3301244	-3.72995658	-20.63221758
4.58	458	-0.065	0.026	1.016	1.145916	-7.2192708	0.5156622	179.3415836	-3.65547204	-20.63221758
4.59	459	-0.064	0.027	1.014	1.6042824	-6.0733548	0.4583664	179.3587723	-3.59817624	-20.63794716
4.6	460	-0.06	0.029	1.012	1.718874	-4.870143	0.3437748	179.4160681	-3.54088044	-20.64367674
4.61	461	-0.063	0.029	1.012	1.718874	-3.724227	0.286479	179.4389864	-3.50650296	-20.64367674
4.62	462	-0.062	0.028	1.011	1.5469866	-2.4637194	0.1718874	179.4504456	-3.47785506	-20.64367674
4.63	463	-0.063	0.03	1.01	1.3750992	-1.3178034	0	179.4676343	-3.4663959	-20.64367674
4.64	464	-0.063	0.029	1.011	1.3750992	-0.2291832	0	179.4790935	-3.4663959	-20.64367674
4.65	465	-0.063	0.032	1.012	1.432395	0.3437748	0	179.6051443	-3.46066632	-20.64940632
4.66	466	-0.063	0.029	1.013	1.3750992	0.9167328	0	179.622333	-3.47212548	-20.64940632
4.67	467	-0.066	0.031	1.015	1.4896908	1.3178034	-0.1145916	179.6337922	-3.48358464	-20.64940632
4.68	468	-0.066	0.029	1.017	1.718874	1.6042824	-0.1145916	179.6509809	-3.50077338	-20.64367674
4.69	469	-0.067	0.03	1.017	2.005353	1.8334656	-0.1718874	179.6738992	-3.51796212	-20.64367674
4.7	470	-0.067	0.03	1.02	2.1772404	1.9480572	-0.1718874	179.7426542	-3.54661002	-20.64367674
4.71	471	-0.068	0.031	1.023	2.1772404	2.1199446	-0.1145916	179.7655725	-3.56379876	-20.64367674
4.72	472	-0.069	0.031	1.023	2.005353	2.1772404	-0.1718874	179.7827612	-3.58671708	-20.64367674
4.73	473	-0.069	0.032	1.023	1.7761698	2.2345362	-0.2291832	179.8056796	-3.6096354	-20.64367674
4.74	474	-0.07	0.033	1.022	1.4896908	2.291832	-0.1145916	179.8171387	-3.63255372	-20.63794716
4.75	475	-0.071	0.031	1.023	1.145916	2.4064236	-0.2291832	179.8744345	-3.6669312	-20.64367674
4.76	476	-0.069	0.033	1.022	0.6302538	2.86479	-0.2291832	179.8801641	-3.6955791	-20.63794716
4.77	477	-0.071	0.032	1.016	0.286479	2.8074942	-0.1718874	179.8858937	-3.724227	-20.63794716
4.78	478	-0.072	0.032	1.016	0.0572958	2.5210152	-0.2291832	179.8858937	-3.7528749	-20.63794716
4.79	479	-0.073	0.031	1.016	-0.286479	2.291832	-0.1718874	179.8801641	-3.77579322	-20.63221758
4.8	480	-0.072	0.033	1.013	-0.6302538	2.2345362	-0.1718874	179.9374599	-3.8101707	-20.63794716
4.81	481	-0.073	0.031	1.01	-1.0313244	2.1199446	-0.1718874	179.9260007	-3.83308902	-20.63794716
4.82	482	-0.073	0.03	1.009	-1.3178034	1.8334656	-0.1718874	179.908812	-3.85027776	-20.63794716
4.83	483	-0.074	0.03	1.009	-1.6042824	1.6042824	-0.1145916	179.8916233	-3.8674665	-20.63794716
4.84	484	-0.075	0.031	1.009	-1.7761698	1.3750992	-0.1145916	179.8744345	-3.87892566	-20.63221758
4.85	485	-0.074	0.031	1.011	-1.9480572	1.145916	-0.0572958	179.9145416	-3.90184398	-20.63794716
4.86	486	-0.074	0.031	1.011	-2.1199446	1.0313244	-0.0572958	179.8973528	-3.91330314	-20.63794716
4.87	487	-0.075	0.031	1.011	-2.2345362	0.859437	-0.0572958	179.8744345	-3.91903272	-20.63794716
4.88	488	-0.074	0.032	1.012	-2.2345362	0.9167328	-0.0572958	179.8515162	-3.93049188	-20.63794716
4.89	489	-0.075	0.032	1.011	-2.1199446	0.6302538	-0.1145916	179.8285979	-3.93622146	-20.63794716
4.9	490	-0.076	0.032	1.013	-2.1199446	0.572958	-0.1145916	179.8687049	-3.9534102	-20.63794716
4.91	491	-0.075	0.032	1.014	-2.1199446	0.572958	-0.0572958	179.8457866	-3.95913978	-20.63794716
4.92	492	-0.075	0.032	1.014	-2.0626488	0.4583664	-0.1145916	179.8228683	-3.96486936	-20.63794716
4.93	493	-0.074	0.032	1.013	-1.9480572	0.4010706	-0.0572958	179.8056796	-3.96486936	-20.63794716
4.94	494	-0.075	0.032	1.011	-1.6042824	0.286479	-0.0572958	179.7884908	-3.97059894	-20.63794716
4.95	495	-0.074	0.032	1.01	-1.2605076	0.1145916	0	179.9145416	-3.98778768	-20.64940632
4.96	496	-0.075	0.031	1.013	-1.145916	-0.0572958	0	179.9030824	-3.98778768	-20.64940632
4.97	497	-0.075	0.033	1.016	-1.0313244	-0.286479	0	179.8916233	-3.98778768	-20.64940632
4.98	498	-0.075	0.033	1.019	-0.9167328	-0.572958	0	179.8801641	-3.9820581	-20.64940632
4.99	499	-0.075	0.031	1.019	-0.6302538	-0.7448454	0.0572958	179.8744345	-3.97059894	-20.64940632
5	500	-0.073	0.032	1.02	-0.4583664	-0.859437	0.1145916	179.9718374	-3.96486936	-20.6551359
5.01	501	-0.073	0.031	1.016	-0.3437748	-1.0886202	0.0572958	179.9718374	-3.95913978	-20.6551359
5.02	502	-0.074	0.031	1.013	-0.1718874	-1.0313244	0.0572958	179.9661078	-3.94768062	-20.66086548
5.03	503	-0.073	0.031	1.012	0	-0.9740286	0.1718874	179.9661078	-3.93622146	-20.66086548
5.04	504	-0.073	0.031	1.013	0.0572958	-1.0886202	0.1145916	179.9661078	-3.9247623	-20.66086548
5.05	505	-0.073	0.031	1.013	0.1718874	-1.145916	0.0572958	-179.9317303	-3.9247623	-20.66659506
5.06	506	-0.072	0.031	1.012	0.2291832	-1.2032118	0.0572958	-179.9317303	-3.91330314	-20.66659506
5.07	507	-0.073	0.03	1.01	0.286479	-1.2605076	0.1145916	-179.9260007	-3.90184398	-20.67232464
5.08	508	-0.072	0.03	1.011	0.3437748	-1.2605076	0.1145916	-179.9202712	-3.89038482	-20.67232464
5.09	509	-0.071	0.03	1.012	0.3437748	-1.0886202	0.1718874	-179.9202712	-3.87892566	-20.67232464
5.1	510	-0.071	0.031	1.014	0.286479	-1.0313244	0.1145916	-179.8285979	-3.8674665	-20.67805422
5.11	511	-0.07	0.031	1.014	0.4010706	-0.9740286	0.1145916	-179.8228683	-3.86173692	-20.67805422
5.12	512	-0.07	0.03	1.014	0.3437748	-0.859437	0	-179.8171387	-3.85027776	-20.67805422
5.13	513	-0.071	0.03	1.016	0.286479	-0.859437	0.0572958	-179.8171387	-3.8388186	-20.6837838
5.14	514	-0.071	0.031	1.017	0.1718874	-0.8021412	0.0572958	-179.8114091	-3.83308902	-20.6837838
5.15	515	-0.071	0.03	1.018	0.1145916	-0.7448454	0	-179.7025471	-3.8388186	-20.68951338
5.16	516	-0.071	0.03	1.017	0.0572958	-0.6875496	0.0572958	-179.6968175	-3.82735944	-20.68951338
5.17	517	-0.07	0.03	1.017	0	-0.6302538	0	-179.6968175	-3.82162986	-20.68951338
5.18	518	-0.07	0.031	1.016	0	-0.5156622	0	-179.6968175	-3.81590028	-20.68951338
5.19	519	-0.07	0.031	1.016	-0.0572958	-0.4583664	0	-179.7025471	-3.8101707	-20.68951338
5.2	520	-0.071	0.031	1.015	-0.0572958	-0.4010706	0	-179.513471	-3.8388186	-20.70670212
5.21	521	-0.07	0.031	1.013	0	-0.3437748	0	-179.513471	-3.83308902	-20.70670212
5.22	522	-0.069	0.033	1.012	-0.1145916	-0.1718874	0	-179.513471	-3.83308902	-20.70670212
5.23	523	-0.069	0.032	1.013	-0.1718874	-0.1718874	0	-179.5192006	-3.82735944	-20.70670212
5.24	524	-0.071	0.033	1.014	-0.1145916	-0.2291832	0.0572958	-179.5192006	-3.82735944	-20.70670212
5.25	525	-0.07	0.032	1.016	-0.2291832	-0.1718874	0	-179.3473132	-3.85027776	-20.71816128
5.26	526	-0.07	0.032	1.014	-0.3437748	-0.1145916	0.0572958	-179.3473132	-3.85027776	-20.71816128
5.27	527	-0.07	0.033	1.015	-0.4010706	0	0	-179.3530427	-3.85027776	-20.71816128
5.28	528	-0.07	0.032	1.016	-0.4583664	0	0	-179.3587723	-3.85027776	-20.71816128
5.29	529	-0.069	0.032	1.016	-0.4583664	0	0	-179.3645019	-3.85027776	-20.71816128
5.3	530	-0.07	0.033	1.016	-0.3437748	0	0	-179.2155328	-3.87319608	-20.72962044
5.31	531	-0.069	0.033	1.016	-0.3437748	0	0	-179.2212624	-3.87319608	-20.72962044
5.32	532	-0.07	0.033	1.017	-0.3437748	0.0572958	0	-179.2212624	-3.87319608	-20.72962044
5.33	533	-0.069	0.032	1.018	-0.3437748	0.1145916	0	-179.226992	-3.87892566	-20.73535002
5.34	534	-0.069	0.032	1.016	-0.2291832	0.1718874	0	-179.226992	-3.87892566	-20.72962044
5.35	535	-0.07	0.032	1.014	-0.1718874	0.2291832	-0.0572958	-179.0894821	-3.8961144	-20.7410796
5.36	536	-0.068	0.031	1.015	-0.1145916	0.286479	0	-179.0952116	-3.8961144	-20.7410796
5.37	537	-0.069	0.032	1.014	-0.1145916	0.2291832	0	-179.0952116	-3.90184398	-20.7410796
5.38	538	-0.069	0.032	1.015	-0.1145916	0.1145916	0	-179.0952116	-3.90184398	-20.7410796
5.39	539	-0.07	0.033	1.016	0	0.1145916	0	-179.0952116	-3.90184398	-20.7410796
5.4	540	-0.07	0.033	1.016	0	0.1145916	0	-178.9748905	-3.90757356	-20.75253876
5.41	541	-0.069	0.033	1.016	0	0.1718874	0	-178.9748905	-3.91330314	-20.75253876
5.42	542	-0.069	0.033	1.015	0.0572958	0.1718874	0	-178.9748905	-3.91330314	-20.75253876
5.43	543	-0.07	0.033	1.015	0.0572958	0.286479	0	-178.9691609	-3.91903272	-20.74680918
5.44	544	-0.069	0.033	1.015	0.0572958	0.3437748	-0.0572958	-178.9691609	-3.91903272	-20.74680918
5.45	545	-0.069	0.033	1.016	0.0572958	0.3437748	0	-178.9233242	-3.93049188	-20.75253876
5.46	546	-0.07	0.033	1.015	0	0.286479	0	-178.9290538	-3.93622146	-20.75253876
5.47	547	-0.07	0.033	1.015	0	0.2291832	0	-178.9290538	-3.93622146	-20.75253876
5.48	548	-0.07	0.033	1.015	-0.0572958	0.286479	0	-178.9290538	-3.94195104	-20.75253876
5.49	549	-0.07	0.033	1.015	-0.1145916	0.286479	0	-178.9290538	-3.94195104	-20.75253876
5.5	550	-0.07	0.033	1.015	-0.1145916	0.1718874	0	-178.8774876	-3.94768062	-20.75826834
5.51	551	-0.07	0.032	1.016	0	0.1145916	0	-178.8774876	-3.94768062	-20.75253876
5.52	552	-0.07	0.033	1.017	0	0.1145916	0	-178.8774876	-3.94768062	-20.75253876
5.53	553	-0.07	0.033	1.016	0	0.0572958	0	-178.8774876	-3.94768062	-20.75253876
5.54	554	-0.069	0.033	1.017	0	0	0	-178.8774876	-3.94768062	-20.75253876
5.55	555	-0.07	0.034	1.016	-0.0572958	0.0572958	0	-178.8030031	-3.94195104	-20.75826834
5.56	556	-0.069	0.034	1.017	-0.1145916	0	0	-178.8030031	-3.94195104	-20.75826834
5.57	557	-0.07	0.032	1.016	-0.0572958	0	0	-178.8030031	-3.94195104	-20.75826834
5.58	558	-0.07	0.034	1.015	-0.1718874	0	0	-178.8030031	-3.94195104	-20.75826834
5.59	559	-0.07	0.033	1.015	-0.1145916	-0.0572958	0	-178.8087326	-3.94195104	-20.75826834
5.6	560	-0.07	0.033	1.015	-0.1145916	-0.1145916	0	-178.762896	-3.93622146	-20.75826834
5.61	561	-0.07	0.033	1.015	-0.1145916	-0.2291832	0	-178.762896	-3.93622146	-20.76399792
5.62	562	-0.07	0.033	1.014	-0.2291832	-0.1145916	0	-178.762896	-3.93622146	-20.76399792
5.63	563	-0.069	0.035	1.014	-0.2291832	-0.0572958	0	-178.7686256	-3.93049188	-20.76399792
5.64	564	-0.07	0.034	1.015	-0.286479	-0.2291832	0	-178.7686256	-3.93049188	-20.76399792
5.65	565	-0.07	0.034	1.016	-0.3437748	-0.286479	0	-178.7514368	-3.9247623	-20.76399792
5.66	566	-0.07	0.035	1.017	-0.3437748	-0.3437748	0	-178.7571664	-3.9247623	-20.76399792
5.67	567	-0.069	0.034	1.017	-0.4010706	-0.2291832	0	-178.7571664	-3.91903272	-20.76399792
5.68	568	-0.068	0.032	1.014	-0.2291832	-0.1718874	0	-178.762896	-3.91903272	-20.76399792
5.69	569	-0.068	0.033	1.013	-0.0572958	-0.1718874	0.0572958	-178.762896	-3.91330314	-20.76399792
5.7	570	-0.069	0.032	1.015	-0.0572958	-0.286479	0	-178.7457073	-3.90184398	-20.76399792
5.71	571	-0.07	0.033	1.018	-0.286479	-0.2291832	0	-178.7514368	-3.90184398	-20.76399792
5.72	572	-0.069	0.034	1.021	-0.4010706	-0.286479	0	-178.7571664	-3.8961144	-20.76399792
5.73	573	-0.069	0.034	1.021	-0.5156622	-0.286479	0	-178.762896	-3.8961144	-20.76399792
5.74	574	-0.069	0.034	1.019	-0.5156622	-0.2291832	0	-178.7686256	-3.89038482	-20.76399792
5.75	575	-0.069	0.033	1.016	-0.4010706	-0.0572958	0	-178.7514368	-3.89038482	-20.76399792
5.76	576	-0.069	0.033	1.014	-0.3437748	-0.0572958	0	-178.7571664	-3.89038482	-20.76399792
5.77	577	-0.069	0.033	1.013	-0.4010706	0	0	-178.762896	-3.89038482	-20.76399792
5.78	578	-0.069	0.033	1.015	-0.286479	-0.0572958	0	-178.762896	-3.89038482	-20.76399792
5.79	579	-0.07	0.034	1.014	-0.4010706	0	-0.0572958	-178.7686256	-3.89038482	-20.76399792
5.8	580	-0.069	0.033	1.016	-0.4010706	0	0	-178.7457073	-3.8961144	-20.76399792
5.81	581	-0.068	0.034	1.015	-0.286479	0	0	-178.7457073	-3.8961144	-20.76399792
5.82	582	-0.069	0.034	1.015	-0.1718874	0.1145916	-0.0572958	-178.7514368	-3.90184398	-20.76399792
5.83	583	-0.069	0.032	1.015	-0.0572958	0.1145916	0	-178.7514368	-3.90184398	-20.76399792
5.84	584	-0.07	0.034	1.016	-0.0572958	0.1718874	0	-178.7514368	-3.90184398	-20.76399792
5.85	585	-0.07	0.034	1.015	0	0.1718874	-0.0572958	-178.7113298	-3.91330314	-20.7697275
5.86	586	-0.069	0.033	1.016	0	0.1718874	0	-178.7113298	-3.91330314	-20.7697275
5.87	587	-0.07	0.033	1.016	0.0572958	0.1145916	0	-178.7113298	-3.91903272	-20.7697275
5.88	588	-0.069	0.033	1.016	0	0.1718874	-0.0572958	-178.7113298	-3.91903272	-20.7697275
5.89	589	-0.069	0.034	1.016	0.0572958	0.1718874	0	-178.7113298	-3.91903272	-20.7697275
5.9	590	-0.07	0.033	1.016	0	0.1145916	-0.0572958	-178.6826819	-3.91903272	-20.7697275
5.91	591	-0.07	0.033	1.017	0	0.1718874	-0.0572958	-178.6826819	-3.91903272	-20.7697275
5.92	592	-0.069	0.033	1.016	0	0.1718874	0	-178.6826819	-3.9247623	-20.7697275
5.93	593	-0.069	0.032	1.016	-0.0572958	0.1145916	0	-178.6826819	-3.9247623	-20.7697275
5.94	594	-0.069	0.034	1.016	-0.0572958	0.1718874	0	-178.6884115	-3.9247623	-20.7697275
5.95	595	-0.069	0.034	1.015	0	0.0572958	0	-178.6425748	-3.93049188	-20.7697275
5.96	596	-0.069	0.034	1.014	0	0.1145916	0	-178.6425748	-3.93622146	-20.7697275
5.97	597	-0.07	0.032	1.014	0	0.1145916	0	-178.6425748	-3.93622146	-20.7697275
5.98	598	-0.069	0.034	1.015	0	0.0572958	0	-178.6425748	-3.93622146	-20.7697275
5.99	599	-0.07	0.033	1.015	-0.2291832	0	0.0572958	-178.6483044	-3.93622146	-20.7697275
6	600	-0.07	0.032	1.017	-0.2291832	0	0.0572958	-178.6368452	-3.94195104	-20.77545708
6.01	601	-0.069	0.032	1.017	-0.286479	0	0	-178.6425748	-3.94195104	-20.77545708
6.02	602	-0.069	0.033	1.015	-0.286479	0	0	-178.6483044	-3.94195104	-20.77545708
6.03	603	-0.069	0.033	1.016	-0.2291832	-0.1145916	0	-178.6483044	-3.94195104	-20.77545708
6.04	604	-0.07	0.033	1.016	-0.286479	-0.0572958	0	-178.654034	-3.93622146	-20.77545708
6.05	605	-0.07	0.032	1.015	-0.2291832	-0.1145916	0	-178.6425748	-3.93622146	-20.77545708
6.06	606	-0.069	0.032	1.016	-0.286479	-0.2291832	0	-178.6425748	-3.93622146	-20.77545708
6.07	607	-0.069	0.033	1.014	-0.3437748	0	0.0572958	-178.6483044	-3.93622146	-20.77545708
6.08	608	-0.069	0.033	1.015	-0.3437748	-0.1145916	0	-178.654034	-3.93049188	-20.77545708
6.09	609	-0.069	0.032	1.014	-0.286479	-0.1145916	0	-178.654034	-3.93049188	-20.77545708
6.1	610	-0.069	0.032	1.015	-0.286479	-0.1145916	-0.0572958	-178.6425748	-3.93049188	-20.77545708
6.11	611	-0.069	0.033	1.014	-0.2291832	-0.0572958	-0.0572958	-178.6483044	-3.93049188	-20.77545708
6.12	612	-0.069	0.033	1.014	-0.0572958	-0.1145916	0	-178.6483044	-3.93049188	-20.77545708
6.13	613	-0.069	0.032	1.015	-0.1145916	-0.1145916	0	-178.6483044	-3.9247623	-20.77545708
6.14	614	-0.068	0.032	1.015	-0.1718874	-0.0572958	-0.0572958	-178.6483044	-3.9247623	-20.77545708
6.15	615	-0.069	0.032	1.014	-0.2291832	0	0	-178.6425748	-3.9247623	-20.77545708
6.16	616	-0.068	0.031	1.016	-0.286479	0.0572958	0	-178.6483044	-3.9247623	-20.77545708
6.17	617	-0.069	0.031	1.016	-0.3437748	0.1145916	-0.0572958	-178.6483044	-3.9247623	-20.77545708
6.18	618	-0.068	0.031	1.015	-0.286479	0.1145916	0	-178.654034	-3.93049188	-20.77545708
6.19	619	-0.069	0.032	1.015	-0.1718874	0.0572958	0	-178.654034	-3.93049188	-20.77545708
6.2	620	-0.069	0.032	1.014	-0.0572958	0.0572958	0	-178.6425748	-3.91330314	-20.77545708
6.21	621	-0.069	0.032	1.015	0	0.1145916	0	-178.6425748	-3.91330314	-20.77545708
6.22	622	-0.069	0.031	1.016	0.0572958	0.1145916	0	-178.6425748	-3.91330314	-20.77545708
6.23	623	-0.068	0.032	1.016	0.1145916	0.1718874	0	-178.6425748	-3.91330314	-20.77545708
6.24	624	-0.068	0.031	1.016	0.2291832	0.1718874	0	-178.6368452	-3.91903272	-20.77545708
6.25	625	-0.069	0.031	1.018	0.1145916	0.1718874	0	-178.6368452	-3.91330314	-20.77545708
6.26	626	-0.069	0.031	1.018	0	0.2291832	0	-178.6368452	-3.91330314	-20.77545708
6.27	627	-0.069	0.031	1.017	0	0.1718874	0	-178.6368452	-3.91903272	-20.77545708
6.28	628	-0.069	0.031	1.017	0	0.1718874	0	-178.6368452	-3.91903272	-20.77545708
6.29	629	-0.069	0.03	1.017	0	0.1718874	0	-178.6368452	-3.91903272	-20.77545708
6.3	630	-0.069	0.03	1.017	0	0.1145916	0	-178.6425748	-3.90757356	-20.7697275
6.31	631	-0.069	0.031	1.017	0.0572958	0	0	-178.6425748	-3.90757356	-20.7697275
6.32	632	-0.069	0.031	1.017	0	0	0	-178.6425748	-3.90757356	-20.7697275
6.33	633	-0.069	0.031	1.015	0	0	0	-178.6425748	-3.90757356	-20.7697275
6.34	634	-0.07	0.031	1.014	0.0572958	0	0	-178.6368452	-3.90757356	-20.7697275
6.35	635	-0.07	0.03	1.014	0	-0.0572958	0	-178.6311157	-3.91330314	-20.77545708
6.36	636	-0.068	0.03	1.015	0	0	0	-178.6311157	-3.91330314	-20.77545708
6.37	637	-0.07	0.03	1.015	0.0572958	0	0	-178.6311157	-3.91330314	-20.77545708
6.38	638	-0.07	0.031	1.014	0	0.0572958	0	-178.6311157	-3.91330314	-20.77545708
6.39	639	-0.068	0.031	1.013	0	-0.0572958	0	-178.6311157	-3.91330314	-20.77545708
6.4	640	-0.07	0.031	1.017	0	-0.0572958	0	-178.6368452	-3.91330314	-20.77545708
6.41	641	-0.069	0.03	1.018	0	-0.0572958	0	-178.6368452	-3.91330314	-20.77545708
6.42	642	-0.069	0.03	1.017	0	-0.1145916	0	-178.6368452	-3.90757356	-20.77545708
6.43	643	-0.068	0.03	1.015	0.1145916	-0.1145916	0	-178.6311157	-3.90757356	-20.77545708
6.44	644	-0.068	0.029	1.014	0.286479	-0.1145916	0	-178.6311157	-3.90757356	-20.77545708
6.45	645	-0.069	0.029	1.014	0.3437748	-0.2291832	0	-178.6311157	-3.90184398	-20.77545708
6.46	646	-0.069	0.029	1.017	0.2291832	-0.3437748	0	-178.6311157	-3.90184398	-20.77545708
6.47	647	-0.069	0.029	1.02	0.1145916	-0.3437748	0	-178.6311157	-3.8961144	-20.77545708
6.48	648	-0.068	0.029	1.019	0	-0.286479	0	-178.6311157	-3.89038482	-20.7697275
6.49	649	-0.069	0.029	1.019	0	-0.2291832	0	-178.6311157	-3.89038482	-20.7697275
6.5	650	-0.068	0.029	1.016	0	-0.0572958	0	-178.6425748	-3.87892566	-20.7697275
6.51	651	-0.069	0.03	1.015	0	-0.0572958	0	-178.6425748	-3.87892566	-20.7697275
6.52	652	-0.068	0.03	1.016	0	0	0	-178.6425748	-3.87319608	-20.7697275
6.53	653	-0.069	0.03	1.014	0.0572958	0	0	-178.6425748	-3.87319608	-20.7697275
6.54	654	-0.068	0.03	1.015	0	0	0	-178.6425748	-3.87319608	-20.7697275
6.55	655	-0.069	0.03	1.016	0.0572958	0	0	-178.6483044	-3.87319608	-20.7697275
6.56	656	-0.067	0.03	1.015	0.1718874	0	0	-178.6483044	-3.87319608	-20.7697275
6.57	657	-0.068	0.03	1.014	0.1718874	0	0	-178.6425748	-3.87319608	-20.7697275
6.58	658	-0.068	0.029	1.014	0.286479	0	0	-178.6425748	-3.87319608	-20.7697275
6.59	659	-0.068	0.029	1.015	0.3437748	0	0	-178.6368452	-3.87319608	-20.7697275
6.6	660	-0.068	0.031	1.015	0.3437748	0	0	-178.6368452	-3.87319608	-20.7697275
6.61	661	-0.069	0.029	1.015	0.4010706	0	0	-178.6311157	-3.87319608	-20.7697275
6.62	662	-0.069	0.03	1.016	0.4010706	0	0	-178.6253861	-3.87319608	-20.7697275
6.63	663	-0.068	0.03	1.016	0.4010706	0.0572958	0	-178.6196565	-3.87319608	-20.7697275
6.64	664	-0.069	0.031	1.018	0.4010706	0	0	-178.6196565	-3.87319608	-20.7697275
6.65	665	-0.069	0.03	1.018	0.3437748	0	0	-178.6196565	-3.87319608	-20.7697275
6.66	666	-0.068	0.03	1.017	0.286479	0	0.0572958	-178.6139269	-3.87319608	-20.7697275
6.67	667	-0.069	0.03	1.017	0.286479	0	0.0572958	-178.6139269	-3.87319608	-20.7697275
6.68	668	-0.068	0.03	1.016	0.286479	0	0	-178.6081973	-3.87319608	-20.7697275
6.69	669	-0.069	0.03	1.017	0.286479	0	0.0572958	-178.6024678	-3.87319608	-20.77545708
6.7	670	-0.068	0.03	1.016	0.286479	-0.0572958	0	-178.6081973	-3.8674665	-20.7697275
6.71	671	-0.069	0.029	1.014	0.286479	0.0572958	0	-178.6024678	-3.8674665	-20.7697275
6.72	672	-0.068	0.031	1.013	0.3437748	0.0572958	0	-178.6024678	-3.87319608	-20.7697275
6.73	673	-0.068	0.03	1.014	0.2291832	0	0	-178.5967382	-3.87319608	-20.7697275
6.74	674	-0.068	0.031	1.014	0.0572958	0.0572958	-0.0572958	-178.5967382	-3.87319608	-20.7697275
6.75	675	-0.068	0.03	1.016	0	0	0	-178.6081973	-3.87319608	-20.7697275
6.76	676	-0.068	0.028	1.016	0	0.1145916	0	-178.6081973	-3.87319608	-20.7697275
6.77	677	-0.068	0.029	1.016	0	0.0572958	0	-178.6081973	-3.87892566	-20.7697275
6.78	678	-0.068	0.029	1.017	0	0.0572958	0	-178.6081973	-3.87892566	-20.7697275
6.79	679	-0.068	0.03	1.016	0	0	0	-178.6081973	-3.87892566	-20.7697275
6.8	680	-0.069	0.03	1.016	0.0572958	0	0	-178.6139269	-3.87892566	-20.7697275
6.81	681	-0.068	0.03	1.017	0	0	0	-178.6139269	-3.87892566	-20.7697275
6.82	682	-0.067	0.03	1.016	0	0.0572958	0	-178.6139269	-3.88465524	-20.7697275
6.83	683	-0.068	0.031	1.016	0	0.0572958	0	-178.6139269	-3.88465524	-20.7697275
6.84	684	-0.068	0.03	1.017	-0.0572958	0	0	-178.6139269	-3.88465524	-20.7697275
6.85	685	-0.068	0.029	1.016	0	0	0	-178.6196565	-3.87319608	-20.7697275
6.86	686	-0.068	0.03	1.015	0	0	0	-178.6196565	-3.87319608	-20.7697275
6.87	687	-0.069	0.031	1.015	0	0	0	-178.6139269	-3.87319608	-20.7697275
6.88	688	-0.068	0.03	1.016	0.1145916	0	0.0572958	-178.6139269	-3.87319608	-20.7697275
6.89	689	-0.069	0.031	1.015	0.0572958	0	0	-178.6139269	-3.87319608	-20.77545708
6.9	690	-0.068	0.031	1.016	0.1145916	0.0572958	0	-178.6139269	-3.8674665	-20.77545708
6.91	691	-0.069	0.031	1.015	0.286479	0	0	-178.6139269	-3.8674665	-20.77545708
6.92	692	-0.068	0.03	1.014	0.2291832	0.1145916	0	-178.6081973	-3.8674665	-20.77545708
6.93	693	-0.069	0.031	1.015	0.3437748	0.1718874	0	-178.6024678	-3.8674665	-20.77545708
6.94	694	-0.068	0.031	1.015	0.3437748	0.0572958	0	-178.6024678	-3.87319608	-20.77545708
6.95	695	-0.068	0.03	1.015	0.286479	0.1145916	0.0572958	-178.6024678	-3.8674665	-20.77545708
6.96	696	-0.068	0.03	1.015	0.2291832	0	0	-178.5967382	-3.8674665	-20.77545708
6.97	697	-0.068	0.031	1.016	0.2291832	0.0572958	0	-178.5967382	-3.87319608	-20.77545708
6.98	698	-0.068	0.031	1.016	0.2291832	0.0572958	0	-178.5967382	-3.87319608	-20.77545708
6.99	699	-0.067	0.031	1.016	0.1718874	0.1145916	0	-178.5910086	-3.87319608	-20.77545708
7	700	-0.068	0.03	1.017	0.1718874	0	0	-178.5967382	-3.87319608	-20.77545708
7.01	701	-0.068	0.031	1.017	0.1718874	0	0	-178.5967382	-3.87319608	-20.77545708
7.02	702	-0.068	0.03	1.015	0.1718874	0.1145916	0	-178.5910086	-3.87319608	-20.77545708
7.03	703	-0.068	0.031	1.016	0.1718874	0	0	-178.5910086	-3.87319608	-20.77545708
7.04	704	-0.068	0.03	1.016	0.0572958	0	-0.0572958	-178.5910086	-3.87319608	-20.77545708
7.05	705	-0.068	0.031	1.015	0	0	0	-178.585279	-3.8674665	-20.77545708
7.06	706	-0.067	0.031	1.016	0	-0.0572958	0	-178.585279	-3.8674665	-20.77545708
7.07	707	-0.068	0.031	1.015	0	0	0	-178.585279	-3.8674665	-20.77545708
7.08	708	-0.069	0.032	1.017	-0.1145916	0	-0.0572958	-178.5910086	-3.86173692	-20.7697275
7.09	709	-0.068	0.03	1.016	-0.1145916	0	0	-178.5910086	-3.86173692	-20.7697275
7.1	710	-0.069	0.032	1.016	-0.0572958	0	0	-178.585279	-3.8674665	-20.7697275
7.11	711	-0.068	0.031	1.016	-0.1145916	0	0	-178.585279	-3.8674665	-20.7697275
7.12	712	-0.068	0.032	1.016	-0.1718874	0	0	-178.5910086	-3.8674665	-20.7697275
7.13	713	-0.068	0.031	1.017	-0.1145916	0	0	-178.5910086	-3.8674665	-20.7697275
7.14	714	-0.068	0.031	1.017	-0.1145916	-0.0572958	0	-178.5910086	-3.8674665	-20.7697275
7.15	715	-0.069	0.032	1.017	0	0	0	-178.5795494	-3.8674665	-20.77545708
7.16	716	-0.068	0.032	1.016	0	0	0	-178.5795494	-3.8674665	-20.77545708
7.17	717	-0.068	0.031	1.015	0	0	0	-178.5795494	-3.8674665	-20.77545708
7.18	718	-0.068	0.031	1.015	0	0.0572958	0	-178.5795494	-3.87319608	-20.77545708
7.19	719	-0.067	0.032	1.015	0	0	0	-178.5795494	-3.87319608	-20.77545708
7.2	720	-0.068	0.032	1.017	0	0.1145916	0	-178.5738199	-3.8674665	-20.77545708
7.21	721	-0.068	0.032	1.015	0	0.1145916	0	-178.5738199	-3.8674665	-20.77545708
7.22	722	-0.068	0.032	1.015	-0.0572958	0.1145916	0	-178.5738199	-3.8674665	-20.77545708
