TimeStamp(s)	FrameCounter	AccX	AccY	AccZ	GyrX	GyrY	GyrZ	EulerX	EulerY	EulerZ
0.01	1	-0.093	-0.97	0.28	-0.7448454	-1.7761698	0.9740286	104.7997478	-3.78725238	-33.85035864
0.02	2	-0.1	-0.967	0.28	-1.0313244	-2.291832	1.7761698	104.7882886	-3.79871154	-33.87327696
0.03	3	-0.098	-0.968	0.283	-1.145916	-1.8334656	1.7761698	104.7768295	-3.8101707	-33.89619528
0.04	4	-0.093	-0.97	0.283	-1.432395	-1.3750992	1.7761698	104.7653703	-3.82735944	-33.91338402
0.05	5	-0.091	-0.973	0.281	-1.6042824	-1.0313244	1.8334656	104.7539111	-3.85600734	-33.93057276
0.06	6	-0.089	-0.975	0.28	-1.9480572	-1.0886202	2.005353	104.7367224	-3.87319608	-33.9477615
0.07	7	-0.094	-0.975	0.284	-2.2345362	-1.0886202	2.1772404	104.7138041	-3.89038482	-33.96495024
0.08	8	-0.099	-0.972	0.287	-2.005353	-0.572958	2.0626488	104.6966153	-3.90757356	-33.9764094
0.09	9	-0.102	-0.972	0.289	-1.8334656	0.1145916	2.005353	104.6794266	-3.93049188	-33.9764094
0.1	10	-0.103	-0.973	0.289	-2.4064236	0.6875496	2.1199446	104.6622379	-3.97059894	-33.9764094
0.11	11	-0.103	-0.973	0.286	-2.9793816	1.2032118	2.291832	104.6278604	-3.99351726	-33.97067982
0.12	12	-0.101	-0.973	0.281	-3.5523396	1.8907614	2.4637194	104.5934829	-4.02216516	-33.95922066
0.13	13	-0.099	-0.973	0.279	-4.0680018	2.1772404	2.6356068	104.5476463	-4.05654264	-33.9477615
0.14	14	-0.096	-0.973	0.283	-4.8128472	2.1199446	2.6356068	104.5018096	-4.08519054	-33.93630234
0.15	15	-0.094	-0.974	0.284	-5.7868758	1.4896908	2.6929026	104.4445138	-4.1252976	-33.92484318
0.16	16	-0.096	-0.973	0.288	-6.302538	0.8021412	2.9220858	104.3814884	-4.1539455	-33.93057276
0.17	17	-0.098	-0.975	0.293	-7.1046792	0.7448454	3.2658606	104.3070039	-4.18832298	-33.93057276
0.18	18	-0.103	-0.977	0.292	-8.1360036	1.0313244	3.7815228	104.2267898	-4.22843004	-33.93057276
0.19	19	-0.107	-0.977	0.292	-8.9381448	1.2032118	4.4690724	104.1351165	-4.27426668	-33.93057276
0.2	20	-0.112	-0.976	0.288	-9.2819196	1.145916	5.2139178	104.0491728	-4.33729206	-33.93057276
0.21	21	-0.115	-0.974	0.272	-9.9694692	1.145916	5.6722842	103.9460404	-4.39458786	-33.93630234
0.22	22	-0.119	-0.972	0.264	-10.4851314	0.6302538	5.9587632	103.8371783	-4.45761324	-33.9477615
0.23	23	-0.123	-0.974	0.265	-10.7716104	0.4010706	6.1306506	103.7340459	-4.51490904	-33.95922066
0.24	24	-0.132	-0.978	0.272	-11.9175264	0.2291832	6.7036086	103.6137247	-4.583664	-33.97067982
0.25	25	-0.136	-0.981	0.273	-13.6936962	-0.286479	7.6776372	103.4762148	-4.66387812	-33.99359814
0.26	26	-0.137	-0.982	0.27	-15.183387	-1.432395	8.5370742	103.3272457	-4.74409224	-34.0337052
0.27	27	-0.139	-0.986	0.266	-16.615782	-2.6929026	9.5111028	103.1610879	-4.83003594	-34.08527142
0.28	28	-0.14	-0.991	0.258	-17.7044022	-3.9534102	10.4851314	102.9892005	-4.92170922	-34.1482968
0.29	29	-0.14	-0.99	0.244	-18.621135	-5.2712136	11.3445684	102.8058539	-5.01911208	-34.22851092
0.3	30	-0.146	-0.987	0.234	-18.7930224	-6.9327918	11.8602306	102.6225074	-5.1279741	-34.3201842
0.31	31	-0.158	-0.986	0.231	-19.0795014	-8.307891	12.4331886	102.4391608	-5.23110654	-34.4347758
0.32	32	-0.17	-0.984	0.225	-19.4232762	-9.2246238	13.1207382	102.2558143	-5.33423898	-34.55509698
0.33	33	-0.18	-0.981	0.225	-19.767051	-10.1986524	13.8082878	102.0667381	-5.44883058	-34.68114774
0.34	34	-0.189	-0.976	0.231	-20.7983754	-10.4851314	14.2093584	101.8719324	-5.56342218	-34.81865766
0.35	35	-0.183	-0.969	0.235	-21.4286292	-10.599723	14.6677248	101.6713971	-5.68947294	-34.950438
0.36	36	-0.177	-0.963	0.238	-21.8296998	-11.8029348	14.9542038	101.4651322	-5.80979412	-35.09940708
0.37	37	-0.178	-0.962	0.259	-21.6578124	-13.6936962	15.2406828	101.2645969	-5.9301153	-35.2655649
0.38	38	-0.175	-0.972	0.275	-21.2567418	-15.0114996	15.9282324	101.0697912	-6.05043648	-35.44891146
0.39	39	-0.169	-0.992	0.268	-20.7983754	-15.756345	17.2460358	100.8807151	-6.1879464	-35.6379876
0.4	40	-0.175	-0.999	0.264	-20.1108258	-15.0114996	18.048177	100.7030981	-6.33691548	-35.82133416
0.41	41	-0.19	-1.003	0.265	-19.1367972	-13.4072172	18.2200644	100.5312107	-6.48588456	-35.98749198
0.42	42	-0.203	-1.005	0.267	-18.8503182	-12.5477802	18.621135	100.3593233	-6.6463128	-36.14792022
0.43	43	-0.205	-0.991	0.252	-18.9649098	-13.1207382	18.9649098	100.1874359	-6.80674104	-36.30834846
0.44	44	-0.198	-0.972	0.245	-20.1681216	-14.32395	18.6784308	100.0040893	-6.9614397	-36.48596544
0.45	45	-0.191	-0.971	0.242	-21.3713334	-14.896908	18.334656	99.82074276	-7.11613836	-36.669312
0.46	46	-0.186	-0.979	0.226	-23.204799	-15.6990492	18.7357266	99.6087483	-7.27083702	-36.85838814
0.47	47	-0.174	-0.969	0.204	-25.2674478	-18.2200644	18.334656	99.3795651	-7.4198061	-37.0703826
0.48	48	-0.17	-0.957	0.198	-25.6112226	-19.5951636	17.6471064	99.15611148	-7.55731602	-37.29383622
0.49	49	-0.17	-0.961	0.188	-24.9809688	-19.9962342	17.3606274	98.93265786	-7.68909636	-37.51728984
0.5	50	-0.17	-0.97	0.179	-24.5798982	-21.2567418	17.1314442	98.7206634	-7.82660628	-37.7579322
0.51	51	-0.174	-0.967	0.179	-24.5226024	-22.5745452	16.5584862	98.50866894	-7.94692746	-38.01003372
0.52	52	-0.181	-0.958	0.189	-24.0069402	-23.3193906	15.756345	98.30240406	-8.06724864	-38.26786482
0.53	53	-0.184	-0.938	0.203	-23.0902074	-23.777757	14.4385416	98.10759834	-8.17038108	-38.52569592
0.54	54	-0.196	-0.923	0.22	-22.2880662	-24.1788276	12.7196676	97.92425178	-8.25632478	-38.78352702
0.55	55	-0.214	-0.919	0.235	-21.3713334	-23.5485738	11.6883432	97.75236438	-8.34226848	-39.03562854
0.56	56	-0.219	-0.918	0.247	-20.6837838	-22.1734746	10.8289062	97.58047698	-8.41102344	-39.27054132
0.57	57	-0.221	-0.913	0.248	-20.1108258	-20.5118964	10.0840608	97.41431916	-8.4797784	-39.48826536
0.58	58	-0.224	-0.908	0.25	-18.7930224	-18.5065434	9.2246238	97.25389092	-8.54280378	-39.68880066
0.59	59	-0.224	-0.906	0.257	-17.5898106	-16.902261	8.2505952	97.10492184	-8.60009958	-39.86641764
0.6	60	-0.224	-0.907	0.253	-16.3865988	-16.1574156	7.6203414	96.97887108	-8.66312496	-40.03830504
0.61	61	-0.224	-0.913	0.247	-15.4125702	-16.042824	7.1046792	96.85282032	-8.7089616	-40.21019244
0.62	62	-0.227	-0.919	0.249	-13.9801752	-16.2720072	6.6463128	96.73822872	-8.75479824	-40.38207984
0.63	63	-0.226	-0.924	0.248	-13.1207382	-16.2147114	5.9014674	96.63509628	-8.78917572	-40.54823766
0.64	64	-0.215	-0.92	0.245	-12.4904844	-16.3865988	4.870143	96.53769342	-8.81782362	-40.72012506
0.65	65	-0.207	-0.907	0.246	-11.0580894	-16.329303	3.437748	96.47466804	-8.83501236	-40.88628288
0.66	66	-0.201	-0.898	0.249	-9.6256944	-15.8136408	2.2345362	96.4001835	-8.84074194	-41.04671112
0.67	67	-0.194	-0.895	0.248	-8.3651868	-15.4125702	0.9167328	96.3428877	-8.82928278	-41.20140978
0.68	68	-0.19	-0.886	0.254	-7.0473834	-15.469866	-0.5156622	96.29705106	-8.80063488	-41.35610844
0.69	69	-0.198	-0.874	0.262	-5.6722842	-15.8136408	-1.9480572	96.26267358	-8.76052782	-41.5108071
0.7	70	-0.2	-0.87	0.264	-4.1252976	-15.6990492	-2.9793816	96.27986232	-8.72042076	-41.66550576
0.71	71	-0.202	-0.866	0.261	-3.2658606	-15.3552744	-3.724227	96.27413274	-8.66312496	-41.81447484
0.72	72	-0.216	-0.86	0.263	-3.151269	-15.0114996	-4.6409598	96.26267358	-8.59437	-41.95771434
0.73	73	-0.229	-0.85	0.267	-2.6356068	-14.5531332	-5.7868758	96.256944	-8.51988546	-42.09522426
0.74	74	-0.239	-0.849	0.266	-2.0626488	-13.1207382	-6.589017	96.256944	-8.43394176	-42.22127502
0.75	75	-0.251	-0.855	0.262	-1.432395	-11.5737516	-6.9327918	96.29705106	-8.37664596	-42.33013704
0.76	76	-0.27	-0.858	0.275	-0.286479	-9.9694692	-7.3338624	96.30851022	-8.29070226	-42.42181032
0.77	77	-0.288	-0.859	0.287	1.3178034	-7.734933	-7.9068204	96.33142854	-8.20475856	-42.49056528
0.78	78	-0.303	-0.867	0.295	3.0366774	-5.6722842	-8.7089616	96.3715356	-8.1073557	-42.53640192
0.79	79	-0.307	-0.87	0.312	4.7555514	-3.3804522	-9.1100322	96.42310182	-8.01568242	-42.55932024
0.8	80	-0.309	-0.874	0.335	7.161975	-1.8334656	-9.6256944	96.55488216	-7.95838662	-42.56504982
0.81	81	-0.318	-0.89	0.349	9.740286	-1.2032118	-10.0840608	96.6580146	-7.85525418	-42.56504982
0.82	82	-0.333	-0.921	0.372	12.0894138	-0.859437	-10.3705398	96.77833578	-7.75212174	-42.55932024
0.83	83	-0.351	-0.954	0.398	13.5791046	-0.3437748	-10.8289062	96.9158457	-7.64325972	-42.54786108
0.84	84	-0.376	-0.979	0.417	14.4958374	-0.1718874	-11.6310474	97.0590852	-7.52866812	-42.53640192
0.85	85	-0.407	-1.017	0.423	15.1260912	0.572958	-12.5477802	97.23670218	-7.42553568	-42.5134836
0.86	86	-0.425	-1.05	0.442	15.8709366	2.9220858	-14.1520626	97.39140084	-7.29375534	-42.46191738
0.87	87	-0.413	-1.071	0.441	16.615782	7.3338624	-15.9282324	97.5460995	-7.14478626	-42.3702441
0.88	88	-0.391	-1.076	0.424	16.7876694	10.2559482	-17.5898106	97.70079816	-6.98435802	-42.24419334
0.89	89	-0.379	-1.071	0.424	16.7303736	12.4904844	-19.194093	97.84976724	-6.8182002	-42.08949468
0.9	90	-0.373	-1.072	0.402	16.1574156	15.0114996	-20.5118964	98.0044659	-6.65204238	-41.9118777
0.91	91	-0.361	-1.059	0.362	15.469866	17.3606274	-21.485925	98.13624624	-6.46869582	-41.7113424
0.92	92	-0.338	-1.037	0.324	15.3552744	18.9649098	-23.1475032	98.262297	-6.2738901	-41.48788878
0.93	93	-0.316	-1	0.311	15.9855282	20.1681216	-25.496631	98.39407734	-6.05616606	-41.252976
0.94	94	-0.298	-0.961	0.316	18.1054728	21.0275586	-28.9916748	98.548776	-5.80406454	-41.00087448
0.95	95	-0.288	-0.929	0.332	20.912967	22.4599536	-32.8877892	98.74358172	-5.53477428	-40.72585464
0.96	96	-0.277	-0.919	0.364	23.8350528	24.4653066	-35.5806918	98.95557618	-5.22537696	-40.42791648
0.97	97	-0.233	-0.975	0.359	23.8923486	29.3354496	-36.3255372	99.16184106	-4.92170922	-40.08414168
0.98	98	-0.121	-1.17	0.269	15.0687954	36.1536498	-32.7159018	99.27643266	-4.66387812	-39.67161192
0.99	99	0.09	-1.513	0.108	0.7448454	42.7999626	-23.4339822	99.24205518	-4.51490904	-39.2189751
1	100	0.21	-1.868	-0.008	-3.151269	41.1956802	-13.0061466	99.16757064	-4.46334282	-38.79498618
1.01	101	0.134	-1.862	0.049	4.7555514	20.340009	-7.1046792	99.19621854	-4.42896534	-38.58299172
1.02	102	-0.064	-1.452	0.169	19.5378678	2.8074942	-7.2192708	99.39102426	-4.36021038	-38.54288466
1.03	103	-0.279	-0.986	0.167	23.9496444	7.8495246	-11.2872726	99.62593704	-4.2685371	-38.4454818
1.04	104	-0.306	-0.754	0.144	15.9282324	13.5218088	-15.3552744	99.77490612	-4.14248634	-38.28505356
1.05	105	-0.275	-0.65	0.105	5.156622	15.9855282	-17.8189938	99.8092836	-4.01643558	-38.101707
1.06	106	-0.216	-0.631	0.048	-3.2658606	22.1161788	-20.9702628	99.7519878	-3.85600734	-37.84960548
1.07	107	-0.129	-0.653	0.049	-8.9381448	24.9809688	-23.2620948	99.64312578	-3.67266078	-37.56885606
1.08	108	-0.066	-0.709	0.071	-13.0061466	24.0069402	-23.2620948	99.48842712	-3.4950438	-37.2995658
1.09	109	-0.006	-0.812	0.06	-15.0687954	26.642547	-20.7983754	99.31081014	-3.34034514	-37.00735722
1.1	110	0.041	-0.889	0.037	-15.8136408	30.7105488	-16.3865988	99.11600442	-3.22575354	-36.68077116
1.11	111	0.077	-0.945	0.011	-16.042824	32.5440144	-11.8602306	98.92692828	-3.17418732	-36.34845552
1.12	112	0.079	-0.955	0.01	-13.9228794	29.1062664	-10.1413566	98.76650004	-3.1226211	-36.05051736
1.13	113	0.076	-0.928	0.04	-8.5370742	22.0015872	-10.0840608	98.6633676	-3.0653253	-35.82133416
1.14	114	0.078	-0.906	0.082	-2.2345362	14.4385416	-11.0007936	98.62899012	-2.98511118	-35.6666355
1.15	115	0.068	-0.898	0.118	2.4637194	7.9068204	-11.8602306	98.64617886	-2.85333084	-35.56923264
1.16	116	0.049	-0.911	0.153	5.72958	1.7761698	-12.0894138	98.70347466	-2.73873924	-35.52912558
1.17	117	0.022	-0.952	0.173	7.5057498	-2.578311	-11.6310474	98.7779592	-2.61841806	-35.54058474
1.18	118	0.005	-1.011	0.171	7.1046792	-4.4690724	-10.1413566	98.85244374	-2.50955604	-35.56350306
1.19	119	-0.005	-1.073	0.16	2.9793816	-6.016059	-8.3651868	98.88682122	-2.41788276	-35.6093397
1.2	120	0.01	-1.092	0.131	-1.8334656	-6.7036086	-7.1046792	98.85244374	-2.3204799	-35.6666355
1.21	121	0.042	-1.076	0.101	-5.0420304	-8.021412	-6.5317212	98.80087752	-2.24026578	-35.73539046
1.22	122	0.067	-1.029	0.085	-6.9327918	-11.2299768	-6.7609044	98.73785214	-2.15432208	-35.83279332
1.23	123	0.067	-0.976	0.093	-7.161975	-15.8136408	-7.3338624	98.66909718	-2.05691922	-35.97603282
1.24	124	0.044	-0.938	0.117	-5.156622	-20.1681216	-8.307891	98.62899012	-1.94232762	-36.16510896
1.25	125	0.006	-0.922	0.163	-2.86479	-22.91832	-9.8548776	98.61180138	-1.79908812	-36.37137384
1.26	126	-0.021	-0.919	0.195	-1.8907614	-24.1788276	-11.6883432	98.60034222	-1.64438946	-36.58909788
1.27	127	-0.036	-0.915	0.227	-2.4064236	-25.0382646	-12.7769634	98.58888306	-1.47250206	-36.8125515
1.28	128	-0.039	-0.906	0.245	-3.4950438	-25.210152	-12.5477802	98.56023516	-1.30634424	-37.0417347
1.29	129	-0.03	-0.895	0.247	-3.0366774	-23.8350528	-11.745639	98.53731684	-1.145916	-37.25372916
1.3	130	-0.006	-0.893	0.242	-1.9480572	-22.1161788	-11.0580894	98.53731684	-0.99694692	-37.45426446
1.31	131	0.011	-0.896	0.241	-1.8907614	-22.2880662	-10.4278356	98.52585768	-0.85370742	-37.65479976
1.32	132	0.031	-0.899	0.242	-2.2345362	-23.1475032	-9.740286	98.50866894	-0.72192708	-37.86679422
1.33	133	0.051	-0.905	0.248	-2.86479	-25.0955604	-8.1360036	98.48575062	-0.59587632	-38.101707
1.34	134	0.064	-0.902	0.255	-4.0680018	-28.5906042	-6.0733548	98.45137314	-0.4870143	-38.37099726
1.35	135	0.063	-0.9	0.271	-4.8128472	-32.8877892	-3.3804522	98.42845482	-0.38961144	-38.68039458
1.36	136	0.049	-0.901	0.286	-4.6982556	-35.809875	-0.8021412	98.38261818	-0.3151269	-39.02989896
1.37	137	0.037	-0.892	0.295	-4.6409598	-37.3568616	1.718874	98.34251112	-0.26929026	-39.39659208
1.38	138	0.029	-0.888	0.303	-4.5263682	-38.1590028	3.7815228	98.30240406	-0.24637194	-39.77474436
1.39	139	0.014	-0.883	0.317	-4.5263682	-38.8465524	5.6722842	98.26802658	-0.23491278	-40.1643558
1.4	140	0.005	-0.88	0.324	-4.583664	-39.534102	7.6776372	98.25083784	-0.24064236	-40.55969682
1.41	141	0.009	-0.878	0.309	-5.443101	-39.534102	10.313244	98.19927162	-0.27501984	-40.96076742
1.42	142	0.018	-0.88	0.284	-7.0473834	-39.534102	13.2353298	98.13624624	-0.33804522	-41.36183802
1.43	143	0.024	-0.872	0.277	-6.9900876	-41.1383844	15.8709366	98.07322086	-0.4297185	-41.78582694
1.44	144	0.031	-0.872	0.27	-3.9534102	-40.8519054	18.048177	98.04457296	-0.53858052	-42.20981586
1.45	145	0.041	-0.896	0.245	-1.2032118	-39.534102	19.4232762	98.05030254	-0.6589017	-42.62234562
1.46	146	0.049	-0.928	0.233	0.9167328	-38.8465524	20.05353	98.07322086	-0.79068204	-43.0291458
1.47	147	0.05	-0.945	0.258	4.4690724	-39.7059894	20.7410796	98.13051666	-0.92819196	-43.44740514
1.48	148	0.036	-0.945	0.317	9.6829902	-43.2010332	22.345362	98.23937868	-1.07716104	-43.90004196
1.49	149	0.026	-0.944	0.404	15.469866	-49.4462754	24.5798982	98.41699566	-1.2318597	-44.41570416
1.5	150	0.018	-0.973	0.458	22.4026578	-58.0406454	25.210152	98.68055634	-1.3750992	-45.01158048
1.51	151	0.002	-1.053	0.453	26.356068	-60.0459984	22.2307704	98.97276492	-1.48396122	-45.63037512
1.52	152	-0.049	-1.121	0.427	27.215505	-54.4883058	17.4179232	99.27070308	-1.55271618	-46.18614438
1.53	153	-0.131	-1.158	0.449	26.2414764	-49.1025006	14.896908	99.55718208	-1.6042824	-46.68461784
1.54	154	-0.165	-1.171	0.462	22.058883	-41.4248634	14.32395	99.79782444	-1.6615782	-47.10287718
1.55	155	-0.243	-1.235	0.351	13.4072172	-35.8671708	12.318597	99.9525231	-1.72460358	-47.47529988
1.56	156	-0.309	-1.39	0.229	5.6149884	-28.5333084	6.1879464	100.0212781	-1.72460358	-47.76177888
1.57	157	-0.274	-1.592	0.113	-0.5156622	-17.5898106	-0.4583664	100.0270076	-1.68449652	-47.9279367
1.58	158	-0.244	-1.548	0.032	6.7609044	-22.4599536	-1.3178034	100.1014922	-1.62720072	-48.14566074
1.59	159	-0.219	-1.52	0.125	25.1528562	-33.7472262	-4.9274388	100.3707824	-1.50687954	-48.46078764
1.6	160	-0.108	-1.485	0.136	20.3973048	-27.6738714	-12.2613012	100.5827769	-1.32926256	-48.70143
1.61	161	0.086	-1.357	0.09	19.9389384	-15.1260912	-12.8342592	100.7890418	-1.1745639	-48.82175118
1.62	162	0.208	-1.2	0.116	17.0741484	-18.2200644	-8.1360036	100.9666588	-1.05424272	-48.98217942
1.63	163	0.237	-1.032	0.066	8.59437	-29.793816	-2.578311	101.0640616	-0.96256944	-49.26292884
1.64	164	0.223	-0.818	0.051	0.6875496	-41.9978214	1.0313244	101.0869799	-0.88235532	-49.66972902
1.65	165	0.18	-0.645	0.086	-3.2085648	-49.274388	2.578311	101.0640616	-0.79068204	-50.15101374
1.66	166	0.117	-0.598	0.085	-6.6463128	-52.425657	0.286479	101.0124954	-0.68182002	-50.65521678
1.67	167	0.03	-0.651	0.071	-10.1986524	-50.993262	-4.9274388	100.9150925	-0.52139178	-51.14223108
1.68	168	-0.089	-0.791	0.071	-12.032118	-42.2843004	-9.2819196	100.8062305	-0.3437748	-51.53184252
1.69	169	-0.223	-0.944	0.066	-12.318597	-25.6112226	-11.0580894	100.6801798	-0.17761698	-51.76102572
1.7	170	-0.314	-1.047	0.045	-10.8289062	-4.1252976	-10.599723	100.5312107	-0.13178034	-51.7954032
1.71	171	-0.355	-1.073	0.051	-7.734933	15.0687954	-9.2246238	100.4509966	-0.07448454	-51.63497496
1.72	172	-0.338	-1.04	0.07	-2.9793816	30.366774	-7.3338624	100.4166191	-0.06302538	-51.32557764
1.73	173	-0.233	-0.977	0.077	2.291832	39.9924684	-3.4950438	100.4338078	-0.1145916	-50.93023662
1.74	174	-0.116	-0.954	0.076	7.5057498	43.3156248	2.1772404	100.5025628	-0.22345362	-50.51770686
1.75	175	-0.015	-0.949	0.104	11.9175264	41.0237928	6.7036086	100.6056952	-0.3724227	-50.133825
1.76	176	0.055	-0.958	0.139	14.4385416	34.5493674	8.8235532	100.7489347	-0.53285094	-49.81296852
1.77	177	0.097	-0.966	0.175	16.6730778	25.3247436	10.7716104	100.909363	-0.6875496	-49.58378532
1.78	178	0.099	-0.928	0.211	17.475219	14.8396122	11.745639	101.0869799	-0.83651868	-49.46346414
1.79	179	0.037	-0.902	0.231	17.18874	5.9587632	12.4904844	101.2588673	-0.96829902	-49.42908666
1.8	180	-0.043	-0.885	0.249	16.329303	0.9167328	12.8342592	101.4364843	-1.10580894	-49.44054582
1.81	181	-0.121	-0.883	0.256	14.7250206	0.0572958	11.9175264	101.5854534	-1.22040054	-49.46346414
1.82	182	-0.146	-0.894	0.259	12.9488508	2.9793816	9.9121734	101.7172337	-1.32353298	-49.45200498
1.83	183	-0.146	-0.901	0.247	11.0580894	6.875496	8.4224826	101.8318253	-1.42093584	-49.40043876
1.84	184	-0.143	-0.906	0.23	9.8548776	10.4278356	7.5630456	101.9234986	-1.5183387	-49.31449506
1.85	185	-0.133	-0.915	0.222	8.9954406	13.1207382	6.9327918	102.0151719	-1.63865988	-49.20563304
1.86	186	-0.127	-0.92	0.217	7.6776372	14.7250206	6.6463128	102.0839269	-1.73606274	-49.0738527
1.87	187	-0.133	-0.918	0.221	6.2452422	15.469866	6.3598338	102.1412227	-1.8334656	-48.94207236
1.88	188	-0.142	-0.918	0.245	4.6982556	16.2147114	5.9587632	102.1813297	-1.93086846	-48.79310328
1.89	189	-0.145	-0.918	0.262	2.5210152	17.0168526	5.443101	102.204248	-2.02254174	-48.6441342
1.9	190	-0.142	-0.911	0.273	0.4583664	16.902261	4.0680018	102.2157072	-2.13140376	-48.48943554
1.91	191	-0.137	-0.905	0.297	-1.2605076	16.4438946	1.8907614	102.1985185	-2.18869956	-48.33473688
1.92	192	-0.135	-0.91	0.324	-2.4637194	17.3606274	0	102.164141	-2.22880662	-48.16857906
1.93	193	-0.133	-0.912	0.347	-3.437748	19.3086846	-1.2032118	102.1183043	-2.2631841	-47.97950292
1.94	194	-0.129	-0.907	0.353	-4.5263682	20.5118964	-2.1772404	102.0610085	-2.291832	-47.77896762
1.95	195	-0.129	-0.9	0.352	-4.6982556	20.5118964	-3.5523396	102.0323606	-2.3204799	-47.57270274
1.96	196	-0.136	-0.888	0.363	-4.9847346	20.626488	-4.870143	101.9750648	-2.32620948	-47.36643786
1.97	197	-0.153	-0.891	0.38	-4.4117766	20.8556712	-6.7609044	101.917769	-2.30329116	-47.14871382
1.98	198	-0.166	-0.906	0.381	-4.010706	21.8869956	-9.2819196	101.8604732	-2.26891368	-46.91953062
1.99	199	-0.174	-0.921	0.36	-4.2398892	23.0902074	-11.6310474	101.808907	-2.2058883	-46.67315868
2	200	-0.167	-0.919	0.339	-4.0680018	24.9809688	-13.9801752	101.7688	-2.14286292	-46.40386842
2.01	201	-0.141	-0.906	0.33	-3.6669312	28.1895336	-16.5584862	101.7172337	-2.04546006	-46.10020068
2.02	202	-0.115	-0.882	0.333	-1.6615782	31.799169	-18.3919518	101.6828563	-1.94232762	-45.75642588
2.03	203	-0.095	-0.88	0.326	2.1772404	34.3201842	-19.2513888	101.6885858	-1.8334656	-45.38973276
2.04	204	-0.097	-0.908	0.286	5.3858052	34.1482968	-18.048177	101.7286929	-1.73606274	-45.02303964
2.05	205	-0.136	-0.906	0.292	8.9954406	32.2002396	-15.3552744	101.8146366	-1.67303736	-44.67926484
2.06	206	-0.177	-0.866	0.342	15.9855282	30.4240698	-13.4072172	101.9636057	-1.61001198	-44.35267878
2.07	207	-0.207	-0.864	0.386	22.2880662	30.7678446	-12.4904844	102.1756001	-1.55844576	-44.0318223
2.08	208	-0.211	-0.918	0.355	21.1421502	32.085648	-10.1986524	102.381865	-1.53552744	-43.69950666
2.09	209	-0.19	-0.982	0.324	17.0741484	31.6845774	-6.8182002	102.5422933	-1.5469866	-43.37865018
2.1	210	-0.14	-1.03	0.31	13.178034	28.3041252	-4.010706	102.668344	-1.58709366	-43.09217118
2.11	211	-0.07	-1.061	0.326	9.9694692	23.6058696	-2.1772404	102.7600173	-1.62147114	-42.86298798
2.12	212	0.053	-1.128	0.324	9.0527364	20.1108258	-2.4064236	102.845961	-1.64438946	-42.66245268
2.13	213	0.187	-1.349	0.209	9.1100322	12.318597	-2.291832	102.9319047	-1.65584862	-42.53640192
2.14	214	0.24	-1.667	0.065	0	3.724227	3.8961144	102.9319047	-1.70168526	-42.50775402
2.15	215	0.256	-1.906	0.124	-10.2559482	-3.8961144	15.9282324	102.8287723	-1.84492476	-42.58223856
2.16	216	0.222	-1.908	0.158	-1.2032118	-1.145916	21.2567418	102.8173131	-2.04546006	-42.64526394
2.17	217	0.022	-1.636	0.073	17.18874	17.3033316	17.3033316	102.9834709	-2.25745452	-42.5134836
2.18	218	-0.255	-1.238	0.021	22.4026578	27.1582092	12.4904844	103.201195	-2.44653066	-42.27857082
2.19	219	-0.391	-0.918	0.079	20.8556712	27.0436176	3.6096354	103.3960007	-2.5496631	-42.0264693
2.2	220	-0.47	-0.728	0.134	16.2147114	34.1482968	-6.1879464	103.5335106	-2.62414764	-41.68842408
2.21	221	-0.461	-0.636	0.201	8.880849	48.3576552	-11.745639	103.596536	-2.6356068	-41.1956802
2.22	222	-0.35	-0.637	0.248	0.8021412	59.7022236	-13.6936962	103.5678881	-2.65852512	-40.5940743
2.23	223	-0.194	-0.709	0.231	-9.0527364	65.317212	-12.891555	103.4361077	-2.70436176	-39.94090218
2.24	224	-0.033	-0.834	0.141	-18.621135	65.603691	-9.167328	103.2069245	-2.7788463	-39.29345964
2.25	225	0.133	-0.985	0.012	-25.8404058	59.587632	-3.437748	102.8860681	-2.88197874	-38.72050164
2.26	226	0.245	-1.052	-0.08	-32.0283522	47.4409224	1.2032118	102.5308341	-3.01375908	-38.2735944
2.27	227	0.286	-1.05	-0.108	-33.4607472	29.3927454	3.2658606	102.1756001	-3.11689152	-37.99857456
2.28	228	0.27	-1.002	-0.107	-29.6219286	8.3651868	4.3544808	101.8662028	-3.1799169	-37.93554918
2.29	229	0.21	-0.94	-0.046	-18.7930224	-11.5737516	3.4950438	101.6828563	-3.18564648	-38.05587036
2.3	230	0.104	-0.924	0.035	-8.5370742	-31.0543236	0.3437748	101.5969126	-3.10543236	-38.3595381
2.31	231	-0.009	-0.919	0.135	-1.5469866	-42.0551172	-3.8961144	101.6083717	-2.97365202	-38.75487912
2.32	232	-0.093	-0.92	0.231	4.3544808	-42.97185	-8.8235532	101.6771267	-2.79030546	-39.15022014
2.33	233	-0.136	-0.921	0.3	7.9641162	-39.1330314	-13.2353298	101.7802591	-2.57258142	-39.49972452
2.34	234	-0.139	-0.934	0.318	9.6829902	-30.2521824	-15.8136408	101.8948507	-2.3491278	-39.75755562
2.35	235	-0.125	-0.936	0.306	8.8235532	-20.3973048	-15.6417534	102.0094423	-2.16005166	-39.91798386
2.36	236	-0.106	-0.929	0.3	7.161975	-13.5791046	-13.5218088	102.0839269	-1.99389384	-40.0211163
2.37	237	-0.06	-0.919	0.3	6.1879464	-7.9641162	-11.1153852	102.1526818	-1.86784308	-40.07268252
2.38	238	-0.014	-0.905	0.293	4.5263682	-2.8074942	-9.5111028	102.1985185	-1.77044022	-40.0784121
2.39	239	0.023	-0.885	0.278	1.6615782	-0.2291832	-8.7662574	102.2157072	-1.68449652	-40.06122336
2.4	240	0.048	-0.874	0.264	-0.9740286	-0.0572958	-8.6516658	102.2328959	-1.55844576	-40.04403462
2.41	241	0.064	-0.872	0.259	-2.578311	-0.9740286	-8.59437	102.204248	-1.47250206	-40.03257546
2.42	242	0.071	-0.885	0.263	-3.437748	-2.2345362	-8.4224826	102.1698706	-1.38655836	-40.03830504
2.43	243	0.063	-0.894	0.269	-4.7555514	-3.437748	-7.7922288	102.1240339	-1.30061466	-40.05549378
2.44	244	0.049	-0.891	0.277	-5.2712136	-4.8128472	-6.7036086	102.0667381	-1.22613012	-40.08987126
2.45	245	0.031	-0.888	0.297	-5.6149884	-5.443101	-5.72958	102.0495494	-1.13445684	-40.12424874
2.46	246	0.019	-0.882	0.311	-7.1046792	-4.9274388	-4.6982556	101.9807944	-1.07716104	-40.1643558
2.47	247	0.008	-0.882	0.325	-8.4224826	-4.010706	-3.724227	101.8948507	-1.03705398	-40.1930037
2.48	248	0.008	-0.873	0.332	-9.3965112	-3.2658606	-2.5210152	101.7974479	-1.0026765	-40.2216516
2.49	249	0.006	-0.873	0.338	-9.6256944	-3.0939732	-0.9167328	101.7057746	-0.98548776	-40.2502995
2.5	250	0.01	-0.877	0.344	-9.7975818	-3.7815228	0.8021412	101.6713971	-0.96829902	-40.28467698
2.51	251	0.021	-0.886	0.356	-9.9694692	-4.583664	2.3491278	101.5682647	-0.98548776	-40.3362432
2.52	252	0.041	-0.899	0.354	-10.9434978	-4.6409598	3.8388186	101.4594026	-1.01413566	-40.38780942
2.53	253	0.052	-0.895	0.335	-12.6623718	-5.6722842	5.72958	101.3333519	-1.05424272	-40.45656438
2.54	254	0.041	-0.875	0.308	-15.0687954	-9.5111028	8.4224826	101.1843828	-1.1172681	-40.57115598
2.55	255	0.031	-0.844	0.284	-12.7769634	-11.9175264	10.026765	101.0755208	-1.18029348	-40.70293632
2.56	256	0.048	-0.821	0.29	-6.7036086	-11.8602306	10.6570188	101.0124954	-1.2605076	-40.84044624
2.57	257	0.068	-0.783	0.338	-2.9220858	-14.6677248	9.740286	100.9895771	-1.32353298	-41.00087448
2.58	258	0.069	-0.744	0.396	2.6356068	-21.0848544	7.7922288	101.0239546	-1.35218088	-41.21859852
2.59	259	0.052	-0.741	0.441	10.6570188	-25.4393352	6.3598338	101.1442757	-1.35791046	-41.47642962
2.6	260	0.017	-0.801	0.443	16.2720072	-26.8144344	6.4744254	101.3562702	-1.35791046	-41.7399903
2.61	261	-0.066	-0.924	0.422	18.1054728	-27.8457588	7.448454	101.5510759	-1.36936962	-42.0264693
2.62	262	-0.148	-1.033	0.434	19.5951636	-23.8923486	7.7922288	101.7573408	-1.38655836	-42.26711166
2.63	263	-0.176	-1.131	0.416	24.1788276	-8.4797784	5.5576926	102.0094423	-1.42093584	-42.35878494
2.64	264	-0.206	-1.206	0.369	20.9702628	2.86479	3.3804522	102.2214368	-1.4610429	-42.33586662
2.65	265	-0.205	-1.248	0.304	6.3598338	3.8961144	4.1252976	102.2787326	-1.52979786	-42.30721872
2.66	266	-0.27	-1.244	0.088	-6.5317212	-5.6149884	9.1100322	102.2157072	-1.6042824	-42.38170326
2.67	267	-0.306	-1.314	-0.092	3.0939732	-13.5218088	10.2559482	102.2558143	-1.66730778	-42.53067234
2.68	268	-0.25	-1.397	-0.172	9.3392154	-16.5011904	5.0993262	102.3532171	-1.67876694	-42.70255974
2.69	269	-0.277	-1.341	0.095	28.8197874	-34.7785506	-0.5156622	102.6626144	-1.58709366	-43.0291458
2.7	270	-0.211	-1.276	0.15	25.9549974	-42.685371	-10.313244	102.9319047	-1.39228794	-43.41302766
2.71	271	-0.052	-1.189	0.169	22.631841	-31.799169	-15.9282324	103.1725471	-1.15737516	-43.67658834
2.72	272	0.175	-1.195	0.119	17.5325148	-12.2040054	-21.6005166	103.350164	-0.9167328	-43.7453433
2.73	273	0.283	-1.291	0.057	12.3758928	-10.886202	-19.3086846	103.4762148	-0.69900876	-43.8026391
2.74	274	0.343	-1.341	0.075	4.3544808	-23.0329116	-12.4904844	103.527781	-0.52139178	-43.99171524
2.75	275	0.368	-1.26	0.142	0.9167328	-33.4034514	-8.8235532	103.5335106	-0.32085648	-44.2896534
2.76	276	0.3	-1.115	0.214	2.291832	-43.0864416	-6.5317212	103.5678881	-0.14896908	-44.68499442
2.77	277	0.165	-0.95	0.273	3.437748	-45.8939358	-3.8961144	103.6079951	0.00572958	-45.11471292
2.78	278	-0.005	-0.855	0.262	3.7815228	-40.2789474	-1.0313244	103.6481022	0.12032118	-45.4928652
2.79	279	-0.193	-0.844	0.243	2.3491278	-28.361421	-2.6929026	103.6767501	0.21772404	-45.76215546
2.8	280	-0.337	-0.881	0.2	0.1718874	-6.5317212	-7.2765666	103.6309135	0.0859437	-45.82518084
2.81	281	-0.422	-0.926	0.144	-1.8907614	21.0275586	-11.3445684	103.6079951	0.13750992	-45.59599764
2.82	282	-0.429	-0.951	0.095	-3.0939732	47.6128098	-14.2666542	103.5736177	0.15469866	-45.10898334
2.83	283	-0.368	-0.963	0.102	-2.005353	68.8695516	-16.3865988	103.5449698	0.13178034	-44.41570416
2.84	284	-0.246	-0.981	0.122	0.8021412	83.5945722	-16.8449652	103.5392402	0.08021412	-43.57918548
2.85	285	-0.1	-0.991	0.128	3.4950438	88.80849	-14.32395	103.5564289	-0.01145916	-42.69683016
2.86	286	0.01	-0.996	0.155	5.9587632	84.9123756	-9.167328	103.6022656	-0.1432395	-41.86604106
2.87	287	0.093	-0.99	0.179	6.7036086	76.5471888	-5.443101	103.6595614	-0.286479	-41.12119566
2.88	288	0.122	-0.955	0.201	6.8182002	65.0880288	-3.4950438	103.7168572	-0.42398892	-40.49094186
2.89	289	0.09	-0.924	0.231	7.3338624	53.571573	-2.8074942	103.7798825	-0.53285094	-39.96955008
2.9	290	0.032	-0.911	0.249	7.6203414	45.1490904	-2.9220858	103.8486375	-0.61879464	-39.534102
2.91	291	-0.013	-0.896	0.235	7.1046792	40.680018	-3.724227	103.9059333	-0.69327918	-39.1330314
2.92	292	-0.059	-0.888	0.239	6.875496	38.2735944	-5.2139178	103.9689587	-0.73911582	-38.75487912
2.93	293	-0.087	-0.873	0.253	6.6463128	38.0444112	-7.9068204	104.0262545	-0.76776372	-38.37672684
2.94	294	-0.102	-0.887	0.26	6.4171296	39.7632852	-11.2299768	104.0778207	-0.76203414	-37.96419708
2.95	295	-0.113	-0.917	0.254	6.0733548	40.7373138	-12.6623718	104.1293869	-0.76203414	-37.54593774
2.96	296	-0.122	-0.944	0.263	6.0733548	40.5081306	-13.2926256	104.1809531	-0.7448454	-37.1276784
2.97	297	-0.116	-0.949	0.288	6.4744254	40.5654264	-13.5218088	104.2382489	-0.72192708	-36.70941906
2.98	298	-0.099	-0.945	0.308	6.302538	40.7946096	-14.0947668	104.2898152	-0.69327918	-36.28543014
2.99	299	-0.073	-0.935	0.321	6.1306506	39.8778768	-15.1260912	104.3413814	-0.6589017	-35.8671708
3	300	-0.048	-0.92	0.344	5.5003968	37.8725238	-16.042824	104.4044068	-0.60733548	-35.4661002
3.01	301	-0.03	-0.892	0.348	4.8128472	35.9817624	-17.3033316	104.4445138	-0.53858052	-35.07648876
3.02	302	-0.029	-0.852	0.357	3.8388186	32.8877892	-19.2513888	104.4731617	-0.44690724	-34.71552522
3.03	303	-0.032	-0.826	0.356	3.151269	31.1689152	-21.3713334	104.49608	-0.32658606	-34.36602084
3.04	304	-0.04	-0.814	0.346	1.5469866	30.5386614	-23.6058696	104.5075392	-0.18334656	-34.01651646
3.05	305	-0.047	-0.809	0.329	0.1718874	31.1116194	-25.5539268	104.5189984	-0.0286479	-33.65555292
3.06	306	-0.054	-0.804	0.317	-0.2291832	32.7731976	-27.5592798	104.5132688	0.1432395	-33.27167106
3.07	307	-0.06	-0.794	0.307	-0.2291832	34.8931422	-29.6219286	104.5018096	0.33231564	-32.87060046
3.08	308	-0.066	-0.772	0.3	0	37.9871154	-32.1429438	104.5018096	0.53858052	-32.42369322
3.09	309	-0.08	-0.735	0.321	0.9740286	41.4821592	-35.1223254	104.5132688	0.76203414	-31.9424085
3.1	310	-0.073	-0.715	0.349	4.297185	47.7274014	-38.101707	104.5705646	0.99121734	-31.39236882
3.11	311	-0.06	-0.739	0.336	6.7609044	51.9099948	-38.5600734	104.6450491	1.22040054	-30.80222208
3.12	312	-0.071	-0.8	0.329	9.7975818	51.7954032	-37.1849742	104.7481816	1.432395	-30.21207534
3.13	313	-0.079	-0.89	0.28	10.1413566	48.2430636	-33.9764094	104.8570436	1.62147114	-29.66776524
3.14	314	-0.081	-1.011	0.182	5.443101	42.5134836	-27.2728008	104.920069	1.76471064	-29.1922101
3.15	315	-0.028	-1.068	0.223	4.3544808	39.7059894	-20.5691922	104.9716352	1.85065434	-28.7624916
3.16	316	0.11	-1.092	0.325	8.3651868	38.8465524	-19.8243468	105.0633085	1.93086846	-28.33850268
3.17	317	0.368	-1.443	0.361	8.1932994	35.0650296	-17.18874	105.1549817	1.99962342	-27.9603504
3.18	318	0.721	-2.413	0.056	-33.5753388	15.2979786	8.59437	104.8169365	1.86784308	-27.8457588
3.19	319	0.953	-2.836	-0.439	-72.765666	29.6219286	25.3820394	104.0778207	1.54125702	-27.63376434
3.2	320	0.552	-2.091	-0.326	-15.0687954	25.0955604	26.1268848	103.923122	1.22613012	-27.46187694
3.21	321	-0.139	-1.242	0.263	11.745639	-21.6005166	17.9908812	104.0377136	1.11153852	-27.70824888
3.22	322	-0.498	-0.835	0.327	15.1260912	-26.2987722	1.9480572	104.1924123	1.16310474	-27.96607998
3.23	323	-0.683	-0.64	0.354	6.2452422	-2.9793816	-15.1260912	104.2554377	1.3178034	-27.95462082
3.24	324	-0.661	-0.622	0.293	-5.6149884	33.0596766	-27.9030546	104.2038715	1.49542038	-27.57073896
3.25	325	-0.548	-0.721	0.186	-16.4438946	59.2438572	-33.7472262	104.0434432	1.62147114	-26.929026
3.26	326	-0.335	-0.87	0.072	-37.0130868	83.7664596	-31.4553942	103.6767501	1.70168526	-26.05812984
3.27	327	-0.115	-0.961	0.01	-46.696077	89.7825186	-25.4393352	103.2183837	1.71314442	-25.14712662
3.28	328	0.068	-1.038	-0.094	-49.9046418	89.094969	-20.8556712	102.7256398	1.6902261	-24.25331214
3.29	329	0.244	-1.11	-0.156	-52.139178	77.1201468	-17.761698	102.2099776	1.67876694	-23.47981884
3.3	330	0.378	-1.113	-0.19	-50.0192334	55.1185596	-17.3606274	101.6828563	1.73606274	-22.92404958
3.31	331	0.434	-1.071	-0.198	-43.4302164	29.9084076	-19.5378678	101.2474082	1.85638392	-22.6031931
3.32	332	0.496	-0.975	-0.162	-38.3308902	0.6302538	-23.8923486	100.8635263	2.08556712	-22.55735646
3.33	333	0.581	-0.935	-0.134	-28.7624916	-27.3300966	-25.9549974	100.5655882	2.39496444	-22.7750805
3.34	334	0.595	-0.967	-0.09	-18.048177	-57.0666168	-20.2254174	100.3650529	2.71009134	-23.29647228
3.35	335	0.541	-0.983	-0.044	-13.5791046	-72.3645954	-12.891555	100.1817063	3.01375908	-23.9782923
3.36	336	0.473	-1.016	-0.019	-7.8495246	-83.651868	-8.2505952	100.0728443	3.26013102	-24.77470392
3.37	337	0.401	-0.979	0.048	-5.0420304	-94.7672532	-3.6096354	99.981171	3.48358464	-25.68570714
3.38	338	0.325	-0.927	0.088	-6.1306506	-99.6373962	-1.6615782	99.8665794	3.6955791	-26.65400616
3.39	339	0.225	-0.894	0.11	-6.6463128	-99.5228046	-0.4583664	99.7519878	3.8961144	-27.62230518
3.4	340	0.143	-0.868	0.093	-5.72958	-97.1736768	0	99.63166662	4.09092012	-28.56768588
3.41	341	0.131	-0.864	0.083	-4.9847346	-93.9078162	1.0886202	99.52853418	4.25707794	-29.48441868
3.42	342	0.172	-0.9	0.053	-7.3911582	-90.4127724	5.8441716	99.39675384	4.37166954	-30.37250358
3.43	343	0.232	-0.943	0.02	-9.0527364	-88.1782362	11.0580894	99.24778476	4.42896534	-31.24912932
3.44	344	0.278	-0.998	0.018	-10.2559482	-88.1782362	15.756345	99.08735652	4.43469492	-32.13721422
3.45	345	0.27	-1.014	0.024	-12.605076	-88.2928278	19.0222056	98.8925508	4.41750618	-33.0310287
3.46	346	0.223	-0.996	0.058	-14.3812458	-86.803137	19.9962342	98.6920155	4.37739912	-33.90765444
3.47	347	0.119	-0.951	0.082	-15.0687954	-84.0529386	17.4179232	98.48575062	4.34875122	-34.76136186
3.48	348	0.063	-0.937	0.085	-17.0741484	-80.0422326	11.6883432	98.262297	4.37166954	-35.56350306
3.49	349	0.073	-0.937	0.044	-18.5638392	-76.3180056	7.6776372	98.02165464	4.42323576	-36.31980762
3.5	350	0.116	-0.953	0.033	-18.7930224	-74.6564274	6.9900876	97.7752827	4.48053156	-37.06465302
3.51	351	0.139	-0.941	0.033	-19.5951636	-74.9429064	6.3598338	97.52891076	4.53209778	-37.80949842
3.52	352	0.16	-0.946	0.028	-18.9649098	-74.3699484	3.437748	97.2882684	4.6123119	-38.54288466
3.53	353	0.192	-0.984	0.024	-17.9335854	-74.0834694	0.5156622	97.05335562	4.72117392	-39.27054132
3.54	354	0.247	-1.03	0.012	-17.761698	-74.2553568	-0.4583664	96.82417242	4.83003594	-40.00392756
3.55	355	0.264	-1.059	-0.007	-19.194093	-79.5265704	1.145916	96.56061174	4.94462754	-40.78888002
3.56	356	0.257	-1.043	-0.003	-20.2254174	-85.4853336	3.151269	96.29132148	5.03057124	-41.63685786
3.57	357	0.239	-1.03	0.019	-20.5118964	-89.8398144	4.5263682	96.01630164	5.10505578	-42.52494276
3.58	358	0.185	-0.999	0	-23.1475032	-96.6580146	5.5576926	95.70690432	5.16808116	-43.4875122
3.59	359	0.146	-0.977	0.018	-23.7204612	-99.8092836	6.016059	95.39177742	5.23110654	-44.47872954
3.6	360	0.12	-0.955	0.039	-23.7204612	-101.127087	6.4171296	95.07092094	5.28840234	-45.48713562
3.61	361	0.094	-0.95	0.054	-23.3766864	-100.4395374	7.2765666	94.75006446	5.32277982	-46.48408254
3.62	362	0.088	-0.952	0.052	-23.7204612	-97.9185222	8.1360036	94.43493756	5.34569814	-47.46384072
3.63	363	0.099	-0.959	0.037	-24.5226024	-95.0537322	8.8235532	94.1083515	5.35142772	-48.40922142
3.64	364	0.113	-0.96	0.026	-25.3820394	-93.6213372	8.8235532	93.77603586	5.35142772	-49.34887254
3.65	365	0.12	-0.97	0.028	-25.6685184	-92.7046044	8.59437	93.43799064	5.35142772	-50.27133492
3.66	366	0.136	-0.978	0.023	-25.3247436	-92.532717	9.1100322	93.105675	5.33423898	-51.1937973
3.67	367	0.142	-0.973	0.027	-24.1788276	-93.7932246	9.6256944	92.78481852	5.31132066	-52.13344842
3.68	368	0.137	-0.983	0.029	-22.7464326	-94.7672532	9.9694692	92.48115078	5.28267276	-53.07882912
3.69	369	0.128	-0.993	0.034	-21.1421502	-95.397507	10.1413566	92.19467178	5.2425657	-54.0299394
3.7	370	0.134	-1.001	0.041	-19.7097552	-95.7985776	10.1413566	91.91965194	5.20245864	-54.98677926
3.71	371	0.146	-1.002	0.058	-19.3086846	-97.1736768	11.0007936	91.6446321	5.15089242	-55.95507828
3.72	372	0.156	-0.993	0.054	-17.8189938	-100.26765	12.7196676	91.39253058	5.07640788	-56.9520252
3.73	373	0.151	-0.976	0.05	-17.6471064	-101.986524	14.5531332	91.13469948	4.97900502	-57.97189044
3.74	374	0.133	-0.98	0.07	-17.2460358	-102.559482	16.902261	90.88832754	4.85868384	-58.99175568
3.75	375	0.124	-0.994	0.074	-16.6730778	-102.7313694	19.4232762	90.64768518	4.70398518	-60.0173505
3.76	376	0.125	-0.993	0.062	-15.469866	-103.705398	22.91832	90.42423156	4.51490904	-61.0486749
3.77	377	0.15	-1.017	0.015	-15.3552744	-103.418919	26.4706596	90.20077794	4.28572584	-62.0799993
3.78	378	0.178	-1.043	-0.008	-15.0114996	-106.5128922	30.366774	89.98878348	4.01643558	-63.13424202
3.79	379	0.182	-1.054	-0.001	-13.6364004	-113.8467546	33.231564	89.78824818	3.71276784	-64.26296928
3.8	380	0.163	-1.048	0.006	-12.4904844	-120.2638842	35.8671708	89.60490162	3.38618178	-65.45472192
3.81	381	0.142	-1.041	0.022	-14.4385416	-126.05076	37.6433406	89.40436632	3.0366774	-66.70377036
3.82	382	0.134	-0.997	0.061	-13.6364004	-134.358651	38.5600734	89.22101976	2.66998428	-68.03303292
3.83	383	0.127	-0.98	0.081	-11.745639	-135.791046	38.2162986	89.06059152	2.30902074	-69.37375464
3.84	384	0.132	-0.982	0.092	-11.0580894	-133.0981434	37.1276784	88.91735202	1.9480572	-70.68582846
3.85	385	0.141	-0.978	0.106	-10.8289062	-130.4625366	35.6379876	88.79130126	1.61574156	-71.96925438
3.86	386	0.176	-0.951	0.129	-10.8289062	-129.2593248	33.4034514	88.6652505	1.2891555	-73.24122114
3.87	387	0.218	-0.904	0.132	-11.3445684	-130.4625366	31.51269	88.54492932	0.97975818	-74.52464706
3.88	388	0.231	-0.846	0.164	-11.4018642	-133.6138056	30.4240698	88.43033772	0.67609044	-75.84245046
3.89	389	0.223	-0.839	0.149	-11.745639	-136.7650746	29.7365202	88.31574612	0.37815228	-77.18890176
3.9	390	0.15	-0.93	0.062	-12.7196676	-144.958374	29.8511118	88.20115452	0.08021412	-78.61556718
3.91	391	0.015	-1.138	-0.027	-16.6730778	-153.3808566	29.9657034	88.05218544	-0.21772404	-80.12244672
3.92	392	-0.16	-1.356	-0.035	-22.9756158	-160.3709442	30.5386614	87.85165014	-0.53285094	-81.69808122
3.93	393	-0.28	-1.517	-0.043	-29.1062664	-157.5061542	30.5386614	87.59954862	-0.859437	-83.2507974
3.94	394	-0.318	-1.552	-0.07	-30.3094782	-147.5939808	29.9084076	87.33598794	-1.18602306	-84.70038114
3.95	395	-0.266	-1.385	-0.062	-29.0489706	-137.6245116	29.3354496	87.089616	-1.51260912	-86.05256202
3.96	396	-0.174	-1.096	-0.023	-25.0382646	-132.4678896	29.3354496	86.89481028	-1.83919518	-87.3474471
3.97	397	-0.091	-0.859	0.024	-21.0848544	-130.7490156	27.7311672	86.74011162	-2.1485925	-88.63087302
3.98	398	-0.079	-0.755	0.036	-19.8816426	-130.634424	24.5798982	86.60833128	-2.4350715	-89.90856936
3.99	399	-0.11	-0.734	0.053	-19.6524594	-130.1187618	22.5745452	86.48228052	-2.70436176	-91.1862657
4	400	-0.179	-0.755	0.066	-18.621135	-128.8009584	21.8296998	86.37914808	-2.97365202	-92.45250288
4.01	401	-0.234	-0.776	0.065	-17.2460358	-125.764281	20.3973048	86.2874748	-3.22575354	-93.68436258
4.02	402	-0.268	-0.779	0.057	-14.610429	-122.6703078	18.048177	86.230179	-3.44920716	-94.88757438
4.03	403	-0.277	-0.792	0.08	-9.8548776	-119.1179682	15.469866	86.21871984	-3.64974246	-96.06213828
4.04	404	-0.265	-0.813	0.069	-5.6722842	-111.6695142	13.2926256	86.24736774	-3.82162986	-97.15648806
4.05	405	-0.248	-0.845	0.054	-2.4637194	-104.564835	12.5477802	86.31039312	-4.00497642	-98.18781246
4.06	406	-0.231	-0.88	0.052	2.0626488	-96.3715356	12.7196676	86.41352556	-4.16540466	-99.13319316
4.07	407	-0.218	-0.931	0.028	4.1825934	-89.1522648	11.5164558	86.53384674	-4.30864416	-100.0098189
4.08	408	-0.233	-1.005	-0.017	5.8441716	-82.9643184	9.3392154	86.66562708	-4.42323576	-100.8291488
4.09	409	-0.244	-1.108	-0.057	6.4171296	-74.771019	6.4171296	86.79740742	-4.50917946	-101.5625351
4.1	410	-0.256	-1.199	-0.063	6.1879464	-64.8588456	3.0366774	86.9177286	-4.57220484	-102.204248
4.11	411	-0.241	-1.216	-0.064	5.8441716	-53.9726436	-0.0572958	87.0323202	-4.583664	-102.737099
4.12	412	-0.236	-1.152	-0.05	5.8441716	-46.1804148	-1.7761698	87.13545264	-4.57220484	-103.201195
4.13	413	-0.21	-1.029	-0.019	6.9900876	-40.393539	-2.5210152	87.23858508	-4.5550161	-103.6022656
4.14	414	-0.188	-0.956	-0.02	8.8235532	-37.4714532	-1.2032118	87.36463584	-4.54928652	-103.9689587
4.15	415	-0.163	-0.917	0.019	10.7716104	-40.10706	1.7761698	87.5193345	-4.58939358	-104.3700293
4.16	416	-0.132	-0.918	0.042	12.2613012	-42.8572584	4.9274388	87.68549232	-4.6409598	-104.7940182
4.17	417	-0.133	-0.941	0.039	14.037471	-46.7533728	8.1932994	87.87456846	-4.7269035	-105.2523846
4.18	418	-0.156	-0.955	0.052	16.1001198	-51.0505578	11.1153852	88.08656292	-4.8414951	-105.7508581
4.19	419	-0.179	-0.945	0.069	17.9908812	-54.0299394	13.2353298	88.3214757	-4.97327544	-106.283709
4.2	420	-0.192	-0.925	0.078	19.8243468	-55.9779966	14.5531332	88.58503638	-5.1279741	-106.8337487
4.21	421	-0.211	-0.913	0.097	21.199446	-57.7541664	15.469866	88.86005622	-5.27694318	-107.4009771
4.22	422	-0.219	-0.911	0.097	22.2307704	-58.155237	16.7303736	89.14653522	-5.43737142	-107.9739351
4.23	423	-0.223	-0.904	0.087	22.6891368	-58.2698286	17.7044022	89.44447338	-5.59779966	-108.5526227
4.24	424	-0.221	-0.902	0.09	22.8037284	-58.728195	17.761698	89.74241154	-5.76395748	-109.1313103
4.25	425	-0.223	-0.907	0.092	22.4599536	-58.9000824	17.0168526	90.04607928	-5.9301153	-109.7157274
4.26	426	-0.234	-0.926	0.102	21.9442914	-58.6708992	15.4125702	90.33255828	-6.06189564	-110.294415
4.27	427	-0.251	-0.954	0.098	20.9702628	-57.1812084	13.6364004	90.61903728	-6.17648724	-110.8616434
4.28	428	-0.262	-0.984	0.085	19.8816426	-54.4883058	12.2040054	90.88259796	-6.2738901	-111.4059535
4.29	429	-0.279	-1.025	0.066	19.1367972	-51.3370368	11.0007936	91.14042906	-6.3598338	-111.9158861
4.3	430	-0.289	-1.052	0.069	17.9335854	-47.841993	9.2819196	91.386801	-6.4457775	-112.3914413
4.31	431	-0.285	-1.063	0.068	16.1574156	-43.6593996	6.9900876	91.60452504	-6.49161414	-112.8268894
4.32	432	-0.267	-1.057	0.061	14.2093584	-39.534102	4.6982556	91.79933076	-6.51453246	-113.2222304
4.33	433	-0.242	-1.044	0.065	12.4904844	-36.955791	2.86479	91.97694774	-6.52026204	-113.5889235
4.34	434	-0.224	-1.034	0.064	10.7143146	-35.236917	1.6615782	92.12591682	-6.51453246	-113.9384279
4.35	435	-0.212	-1.026	0.071	9.3392154	-34.4920716	1.0886202	92.26915632	-6.52026204	-114.2822027
4.36	436	-0.205	-1.014	0.083	8.1360036	-34.37748	0.5156622	92.39520708	-6.5030733	-114.6202479
4.37	437	-0.196	-0.995	0.09	6.875496	-35.0077338	-0.1145916	92.50979868	-6.4744254	-114.9697523
4.38	438	-0.193	-0.985	0.089	5.5576926	-36.382833	-0.7448454	92.61293112	-6.44004792	-115.3307158
4.39	439	-0.202	-0.987	0.094	4.7555514	-37.1849742	-1.0313244	92.7046044	-6.40567044	-115.6974089
4.4	440	-0.212	-0.989	0.097	3.8388186	-37.7006364	-0.8021412	92.79627768	-6.3884817	-116.0698316
4.41	441	-0.218	-0.979	0.101	3.5523396	-37.815228	-0.6875496	92.88222138	-6.35410422	-116.4479839
4.42	442	-0.221	-0.975	0.109	3.6669312	-37.4141574	-0.6875496	92.9624355	-6.31399716	-116.814677
4.43	443	-0.219	-0.973	0.121	4.0680018	-36.8984952	-0.6302538	93.0483792	-6.27961968	-117.1813702
4.44	444	-0.214	-0.978	0.115	4.010706	-35.8671708	-0.572958	93.1343229	-6.2452422	-117.5366041
4.45	445	-0.207	-0.978	0.093	4.1252976	-35.1223254	-0.1718874	93.22599618	-6.23951262	-117.8861085
4.46	446	-0.193	-0.968	0.093	4.7555514	-35.9817624	0.4010706	93.31766946	-6.21086472	-118.247072
4.47	447	-0.171	-0.956	0.091	5.2139178	-37.0703826	0.572958	93.41507232	-6.18221682	-118.6137652
4.48	448	-0.154	-0.962	0.096	5.156622	-40.0497642	0.7448454	93.51247518	-6.1592985	-119.0091062
4.49	449	-0.14	-0.975	0.108	4.7555514	-42.97185	0.9167328	93.61560762	-6.1306506	-119.4330951
4.5	450	-0.134	-0.975	0.135	4.1252976	-45.0917946	1.0886202	93.71874006	-6.1020027	-119.8857319
4.51	451	-0.152	-0.98	0.147	3.4950438	-45.3209778	1.6042824	93.81041334	-6.07908438	-120.3326392
4.52	452	-0.178	-0.988	0.135	3.5523396	-44.117766	2.2345362	93.89635704	-6.06189564	-120.7680872
4.53	453	-0.197	-0.988	0.123	4.3544808	-43.3156248	2.1199446	93.9937599	-6.03897732	-121.1978057
4.54	454	-0.19	-0.986	0.112	5.3285094	-42.97185	1.3178034	94.09689234	-6.01032942	-121.6275242
4.55	455	-0.16	-0.986	0.092	6.4171296	-42.9145542	1.5469866	94.21148394	-5.99314068	-122.0515132
4.56	456	-0.136	-0.979	0.076	8.4224826	-43.8885828	2.7501984	94.34899386	-5.97595194	-122.4869612
4.57	457	-0.107	-0.955	0.067	10.2559482	-46.409598	3.6096354	94.5094221	-5.9587632	-122.9453276
4.58	458	-0.08	-0.93	0.069	11.6310474	-49.9619376	3.6096354	94.68703908	-5.94157446	-123.4438011
4.59	459	-0.078	-0.913	0.095	12.7196676	-54.3737142	2.6929026	94.87611522	-5.90719698	-123.9823816
4.6	460	-0.097	-0.914	0.112	13.9801752	-57.0666168	1.3178034	95.08810968	-5.85563076	-124.5438805
4.61	461	-0.124	-0.943	0.121	15.5271618	-57.2958	0	95.3115633	-5.7868758	-125.1053793
4.62	462	-0.138	-0.959	0.117	17.8189938	-54.9466722	-1.5469866	95.55220566	-5.70666168	-125.6439598
4.63	463	-0.13	-0.963	0.121	19.767051	-52.4829528	-3.3804522	95.81003676	-5.60352924	-126.159622
4.64	464	-0.105	-0.973	0.124	21.3713334	-51.1651494	-5.3858052	96.0850566	-5.48320806	-126.6523659
4.65	465	-0.093	-1.008	0.11	22.8037284	-49.7900502	-6.7609044	96.36007644	-5.34569814	-127.1336506
4.66	466	-0.09	-1.051	0.106	23.8350528	-48.70143	-6.5317212	96.65228502	-5.2139178	-127.5977466
4.67	467	-0.087	-1.088	0.102	24.5226024	-48.1857678	-6.0733548	96.95022318	-5.08213746	-128.0618426
4.68	468	-0.101	-1.088	0.106	24.8663772	-47.3263308	-5.72958	97.24816134	-4.95035712	-128.520209
4.69	469	-0.132	-1.058	0.126	25.496631	-46.1804148	-6.1306506	97.55182908	-4.81857678	-128.9613866
4.7	470	-0.154	-1.016	0.144	25.5539268	-44.9199072	-6.9900876	97.84976724	-4.68679644	-129.3853756
4.71	471	-0.181	-0.974	0.161	25.2674478	-42.5707794	-7.161975	98.1477054	-4.54355694	-129.7921757
4.72	472	-0.212	-0.942	0.183	25.210152	-39.1330314	-6.9900876	98.4341844	-4.40604702	-130.1588689
4.73	473	-0.228	-0.926	0.2	24.6944898	-34.663959	-7.734933	98.71493382	-4.2685371	-130.4797253
4.74	474	-0.204	-0.917	0.199	23.6058696	-29.3927454	-8.7089616	98.9784945	-4.1252976	-130.7547452
4.75	475	-0.166	-0.933	0.197	22.8037284	-25.3247436	-9.9694692	99.2363256	-3.99351726	-130.9839284
4.76	476	-0.139	-0.949	0.221	22.5745452	-22.5745452	-11.2299768	99.48269754	-3.84454818	-131.1787341
4.77	477	-0.145	-0.966	0.247	23.2620948	-19.7097552	-12.032118	99.73479906	-3.68411994	-131.3506215
4.78	478	-0.136	-0.973	0.249	23.6058696	-14.2093584	-11.1153852	99.981171	-3.54661002	-131.4652131
4.79	479	-0.111	-0.983	0.244	24.2361234	-10.0840608	-9.3965112	100.2332725	-3.43201842	-131.5454272
4.8	480	-0.077	-0.995	0.241	24.7517856	-7.1046792	-8.1932994	100.4968332	-3.33461556	-131.5969934
4.81	481	-0.056	-0.994	0.259	26.642547	-6.5317212	-7.5057498	100.771853	-3.24867186	-131.6428301
4.82	482	-0.03	-0.996	0.268	28.1895336	-7.2192708	-6.3598338	101.0640616	-3.16845774	-131.6943963
4.83	483	0.004	-0.991	0.269	30.2521824	-8.5370742	-4.010706	101.3734589	-3.11116194	-131.7688808
4.84	484	0.031	-0.988	0.265	32.7159018	-11.6310474	-1.3178034	101.7172337	-3.07105488	-131.8720133
4.85	485	0.062	-0.976	0.279	34.091001	-16.2720072	1.6615782	102.0839269	-3.01948866	-132.0267119
4.86	486	0.08	-0.969	0.295	35.236917	-22.7464326	4.3544808	102.4563496	-3.0080295	-132.2501656
4.87	487	0.089	-0.973	0.285	35.2942128	-27.215505	6.9900876	102.8287723	-3.0080295	-132.5251854
4.88	488	0.096	-0.979	0.282	35.1223254	-32.4867186	10.3705398	103.2069245	-3.02521824	-132.8517715
4.89	489	0.112	-0.968	0.289	33.9191136	-39.0184398	13.750992	103.5793472	-3.05959572	-133.2585716
4.9	490	0.137	-0.96	0.294	31.3408026	-45.9512316	16.2720072	103.9345812	-3.07105488	-133.7283972
4.91	491	0.159	-0.961	0.277	28.5906042	-52.5975444	18.1054728	104.2611673	-3.10543236	-134.2727073
4.92	492	0.167	-0.97	0.275	25.0382646	-59.7022236	20.1681216	104.5591054	-3.13408026	-134.8857724
4.93	493	0.159	-0.961	0.294	22.9756158	-67.2652692	22.8037284	104.8398548	-3.16272816	-135.5790515
4.94	494	0.121	-0.957	0.301	23.6058696	-75.343977	25.3820394	105.1320634	-3.19137606	-136.3582744
4.95	495	0.068	-0.953	0.302	23.6058696	-79.7557536	27.9603504	105.4300016	-3.22575354	-137.1833339
4.96	496	0.025	-0.928	0.302	24.1788276	-83.9956428	30.366774	105.7393989	-3.2658606	-138.0599597
4.97	497	-0.006	-0.915	0.329	26.356068	-86.4593622	32.0283522	106.065985	-3.31742682	-138.9595037
4.98	498	-0.049	-0.906	0.334	26.9863218	-86.4593622	33.1169724	106.4097598	-3.36899304	-139.8647774
4.99	499	-0.098	-0.906	0.338	27.9603504	-84.2821218	33.8618178	106.7535346	-3.42628884	-140.7528623
5	500	-0.142	-0.921	0.351	29.2781538	-79.1254998	34.8358464	107.1202277	-3.51796212	-141.5951105
5.01	501	-0.185	-0.925	0.338	28.4760126	-73.1094408	35.6952834	107.4697321	-3.62109456	-142.380063
5.02	502	-0.213	-0.938	0.326	31.0543236	-64.5150708	34.7785506	107.8364252	-3.73568616	-143.0848013
5.03	503	-0.219	-0.951	0.333	32.8304934	-57.0666168	33.1169724	108.220307	-3.86173692	-143.7150551
5.04	504	-0.21	-0.961	0.343	34.8358464	-49.7327544	31.226211	108.6213776	-3.9820581	-144.276554
5.05	505	-0.191	-0.961	0.333	35.9244666	-43.2010332	29.507337	109.0224482	-4.11956802	-144.7692979
5.06	506	-0.165	-0.95	0.326	37.528749	-37.1276784	27.6165756	109.4407076	-4.24561878	-145.1990164
5.07	507	-0.134	-0.934	0.325	38.3308902	-31.5699858	25.210152	109.8646965	-4.36593996	-145.5714391
5.08	508	-0.108	-0.924	0.323	38.6173692	-27.3300966	22.6891368	110.2829558	-4.48053156	-145.8922955
5.09	509	-0.087	-0.919	0.323	38.5027776	-24.637194	20.1681216	110.7012152	-4.57220484	-146.1845041
5.1	510	-0.076	-0.911	0.331	38.7892566	-23.0902074	18.2773602	111.1194745	-4.65241896	-146.459524
5.11	511	-0.074	-0.908	0.33	39.1903272	-22.2880662	16.7303736	111.5377339	-4.72117392	-146.7173551
5.12	512	-0.076	-0.906	0.327	39.534102	-22.1734746	15.756345	111.9674524	-4.77846972	-146.9751862
5.13	513	-0.09	-0.9	0.337	39.7059894	-23.1475032	15.0687954	112.3971709	-4.82430636	-147.2330173
5.14	514	-0.106	-0.885	0.359	39.9351726	-24.1788276	14.5531332	112.8268894	-4.85868384	-147.5023075
5.15	515	-0.118	-0.878	0.371	40.2216516	-23.5485738	14.0947668	113.2566079	-4.89306132	-147.7658682
5.16	516	-0.125	-0.886	0.367	40.680018	-22.8610242	13.8655836	113.6977855	-4.92170922	-148.0236993
5.17	517	-0.136	-0.899	0.371	41.825934	-22.91832	14.2093584	114.1446928	-4.95035712	-148.2815304
5.18	518	-0.143	-0.898	0.385	42.9145542	-23.204799	14.6677248	114.6087887	-4.9847346	-148.5450911
5.19	519	-0.138	-0.89	0.398	44.0604702	-23.2620948	14.9542038	115.0786143	-5.0133825	-148.8086518
5.2	520	-0.129	-0.885	0.405	45.1490904	-23.204799	14.896908	115.559899	-5.04775998	-149.0664829
5.21	521	-0.118	-0.885	0.404	45.7793442	-23.1475032	14.4958374	116.0526429	-5.0706783	-149.3300435
5.22	522	-0.115	-0.886	0.412	46.409598	-23.3193906	14.32395	116.5511164	-5.08786704	-149.5936042
5.23	523	-0.117	-0.88	0.427	46.4668938	-23.4339822	14.0947668	117.0495898	-5.10505578	-149.8571649
5.24	524	-0.124	-0.865	0.444	46.409598	-23.204799	13.6936962	117.5480633	-5.11078536	-150.114996
5.25	525	-0.138	-0.854	0.458	46.5814854	-22.8610242	13.1207382	118.0465367	-5.12224452	-150.3670975
5.26	526	-0.152	-0.851	0.466	46.5814854	-21.3713334	12.3758928	118.5450102	-5.12224452	-150.6020103
5.27	527	-0.163	-0.859	0.458	46.1804148	-18.6784308	11.8029348	119.0320245	-5.13370368	-150.8140048
5.28	528	-0.167	-0.858	0.45	45.6647526	-15.9855282	11.4018642	119.5190388	-5.15089242	-150.9973513
5.29	529	-0.165	-0.843	0.444	44.8053156	-13.6364004	11.172681	119.9888644	-5.17381074	-151.1635091
5.3	530	-0.154	-0.819	0.435	44.3469492	-11.8029348	11.0007936	120.4472308	-5.21964738	-151.3124782
5.31	531	-0.138	-0.809	0.428	44.690724	-11.0007936	10.9434978	120.9113267	-5.25402486	-151.4557177
5.32	532	-0.124	-0.807	0.429	44.8626114	-10.7716104	11.0580894	121.3868819	-5.28840234	-151.5989572
5.33	533	-0.109	-0.809	0.429	45.3209778	-10.7716104	11.172681	121.8567074	-5.32277982	-151.7421967
5.34	534	-0.107	-0.805	0.436	46.1804148	-10.8289062	11.1153852	122.3437217	-5.3571573	-151.8797066
5.35	535	-0.119	-0.806	0.453	47.2117392	-10.4851314	10.313244	122.8250065	-5.39153478	-152.0172166
5.36	536	-0.137	-0.815	0.467	48.128472	-9.453807	9.453807	123.3292095	-5.4144531	-152.1375377
5.37	537	-0.152	-0.825	0.469	48.70143	-7.448454	8.880849	123.8334125	-5.44883058	-152.2406702
5.38	538	-0.153	-0.83	0.461	49.2170922	-4.583664	9.1100322	124.3433452	-5.49466722	-152.3266139
5.39	539	-0.146	-0.825	0.442	49.4462754	-1.5469866	9.9121734	124.8475482	-5.56915176	-152.3839097
5.4	540	-0.138	-0.808	0.426	49.5035712	0.0572958	10.886202	125.3345625	-5.66082504	-152.4412055
5.41	541	-0.13	-0.785	0.43	49.1025006	0.4010706	11.2872726	125.8387655	-5.7582279	-152.4927717
5.42	542	-0.124	-0.77	0.439	48.8733174	0.9740286	10.2559482	126.3429686	-5.8441716	-152.5386083
5.43	543	-0.126	-0.771	0.433	48.5868384	2.291832	9.2246238	126.8357125	-5.93584488	-152.5672562
5.44	544	-0.13	-0.776	0.422	48.1857678	3.8961144	8.3651868	127.3284563	-6.02178858	-152.584445
5.45	545	-0.137	-0.777	0.417	47.6701056	5.5576926	7.6776372	127.7810932	-6.12492102	-152.5787154
5.46	546	-0.139	-0.775	0.414	47.555514	8.021412	7.161975	128.2623779	-6.23378304	-152.5557971
5.47	547	-0.133	-0.775	0.41	47.6701056	11.0580894	6.2452422	128.737933	-6.35410422	-152.5042309
5.48	548	-0.125	-0.769	0.399	47.4982182	14.2666542	5.3285094	129.2134882	-6.48588456	-152.4182872
5.49	549	-0.122	-0.75	0.406	47.8992888	16.9595568	5.0993262	129.6833137	-6.63485364	-152.3208843
5.5	550	-0.118	-0.728	0.422	49.1025006	18.5638392	4.6409598	130.1474097	-6.79528188	-152.2005631
5.51	551	-0.119	-0.715	0.424	48.9306132	19.5951636	4.5263682	130.6229648	-6.9614397	-152.0745124
5.52	552	-0.129	-0.703	0.414	47.9565846	21.5432208	4.297185	131.0927904	-7.13905668	-151.942732
5.53	553	-0.142	-0.684	0.402	46.3523022	24.2934192	4.010706	131.5396976	-7.3338624	-151.7823038
5.54	554	-0.15	-0.663	0.385	44.9199072	27.7311672	3.724227	131.9694161	-7.54585686	-151.5989572
5.55	555	-0.154	-0.661	0.371	43.4302164	30.8251404	3.6669312	132.353298	-7.7922288	-151.3926923
5.56	556	-0.151	-0.672	0.362	41.7113424	32.945085	4.0680018	132.7429094	-8.0500599	-151.1806979
5.57	557	-0.145	-0.675	0.357	40.4508348	34.2628884	4.2398892	133.1210617	-8.31935016	-150.9572443
5.58	558	-0.147	-0.691	0.359	39.820581	36.3255372	3.0366774	133.4820253	-8.59437	-150.7166019
5.59	559	-0.161	-0.706	0.362	39.8778768	38.6173692	2.3491278	133.8429888	-8.88657858	-150.4587708
5.6	560	-0.171	-0.719	0.346	39.0757356	43.2010332	2.8074942	134.1523861	-9.21889422	-150.1608326
5.61	561	-0.183	-0.715	0.321	35.6379876	49.2170922	4.297185	134.4560539	-9.5970465	-149.8457057
5.62	562	-0.195	-0.67	0.354	31.51269	54.8320806	5.9014674	134.713885	-10.03249458	-149.5019309
5.63	563	-0.188	-0.607	0.387	30.3094782	60.5043648	6.589017	134.9430682	-10.5137793	-149.1237787
5.64	564	-0.176	-0.588	0.299	27.501984	62.2805346	7.5630456	135.1436035	-11.01225276	-148.7456264
5.65	565	-0.157	-0.592	0.22	22.9756158	61.0773228	8.880849	135.2696542	-11.52218538	-148.3789333
5.66	566	-0.133	-0.599	0.208	16.4438946	62.452422	9.5111028	135.3555979	-12.03784758	-148.0122401
5.67	567	-0.12	-0.564	0.232	13.0061466	64.457775	8.5370742	135.395705	-12.56496894	-147.6283583
5.68	568	-0.102	-0.54	0.232	11.0007936	64.6869582	7.0473834	135.4128937	-13.08063114	-147.2330173
5.69	569	-0.092	-0.529	0.249	8.307891	62.9680842	6.6463128	135.4014346	-13.58483418	-146.8434058
5.7	570	-0.105	-0.515	0.265	4.9847346	62.5097178	6.7609044	135.32695	-14.07757806	-146.4480648
5.71	571	-0.122	-0.49	0.214	-1.6042824	64.8015498	7.1046792	135.2066288	-14.59896984	-146.0527238
5.72	572	-0.117	-0.429	0.143	-9.9694692	68.6976642	6.8182002	134.9831752	-15.13755036	-145.6172757
5.73	573	-0.103	-0.369	0.11	-15.0114996	74.0834694	4.5263682	134.6909666	-15.6990492	-145.1302614
5.74	574	-0.101	-0.36	0.095	-19.7097552	80.6151906	0.4010706	134.3242735	-16.27773678	-144.563033
5.75	575	-0.105	-0.386	0.066	-24.9809688	84.797784	-1.0313244	133.8601775	-16.8736131	-143.9385088
5.76	576	-0.099	-0.404	0.053	-29.9084076	88.4647152	0	133.3559745	-17.49240774	-143.3025254
5.77	577	-0.076	-0.393	0.079	-31.9710564	93.0483792	0.859437	132.8116644	-18.14557986	-142.6264349
5.78	578	-0.053	-0.375	0.091	-34.1482968	98.3195928	-0.2291832	132.2215177	-18.81594072	-141.8930487
5.79	579	-0.035	-0.35	0.14	-35.2942128	100.6114248	-1.8907614	131.5969934	-19.48630158	-141.1195554
5.8	580	-0.036	-0.326	0.204	-37.2995658	101.413566	-2.3491278	130.9266326	-20.14520328	-140.3231438
5.81	581	-0.035	-0.277	0.183	-40.2789474	103.705398	-1.3178034	130.2218942	-20.82129372	-139.5095434
5.82	582	-0.033	-0.218	0.191	-44.404245	104.6221308	-0.1145916	129.4598601	-21.50311374	-138.6844839
5.83	583	-0.048	-0.162	0.177	-52.4829528	104.9086098	0.572958	128.6004231	-22.18493376	-137.8479652
5.84	584	-0.079	-0.089	0.153	-60.733548	103.13244	0.6875496	127.6493128	-22.84383546	-137.0114465
5.85	585	-0.007	-0.004	0.057	-71.5051584	102.0438198	-1.8907614	126.5778814	-23.45690052	-136.1577391
5.86	586	0.114	0.076	-0.16	-81.073557	103.4762148	-5.0993262	125.3746696	-24.0355881	-135.2524655
5.87	587	0.198	0.076	-0.318	-92.8764918	100.2103542	-6.3598338	124.045407	-24.57416862	-134.3529214
5.88	588	0.217	0.101	-0.25	-104.6794266	89.954406	-4.5263682	122.6302007	-25.04399418	-133.5393211
5.89	589	0.213	0.129	-0.203	-104.0491728	85.7718126	0.859437	121.2379128	-25.51954932	-132.7772869
5.9	590	0.226	0.164	-0.203	-104.6794266	84.1102344	8.1360036	119.8513544	-26.02948194	-132.0610894
5.91	591	0.243	0.239	-0.156	-99.7519878	75.630456	11.6310474	118.5450102	-26.51649624	-131.4193765
5.92	592	0.127	0.276	-0.383	-92.0170548	53.8007562	12.4331886	117.4048238	-26.88891894	-130.9839284
5.93	593	-0.241	0.254	-0.067	-75.5158644	6.9900876	17.6471064	116.6542488	-27.08372466	-131.0183059
5.94	594	-0.473	0.134	0.644	-24.9809688	-31.0543236	28.7051958	116.6141417	-27.19258668	-131.4709427
5.95	595	-0.882	-0.706	1.011	59.2438572	-80.0995284	35.9817624	117.6683845	-27.1295613	-132.4277825
5.96	596	-1.507	-2.925	3.037	162.2617056	-179.335854	36.8984952	120.1893997	-26.54514414	-134.3128144
5.97	597	-2.202	-3.988	3.999	221.6774502	-245.2833198	89.2095606	123.6844435	-25.94926782	-137.0572832
5.98	598	-3.621	-2.484	3.999	177.8461632	-227.9799882	178.9347834	126.8930083	-26.04667068	-140.1856339
5.99	599	-3.779	-2.09	3.999	274.1031072	-158.7666618	209.989107	130.920903	-26.65973574	-142.9415618
6	600	-3.896	-1.886	3.999	312.1475184	-111.5549226	203.8584564	135.1894401	-27.36447408	-145.3307967
6.01	601	-1.618	-0.536	3.703	357.0101298	-47.555514	225.745452	139.8418591	-28.5333084	-147.5023075
6.02	602	-1.508	-0.716	2.73	269.1756684	14.7823164	160.714719	143.1993929	-29.6505765	-148.791463
6.03	603	-1.286	-0.638	2.063	208.1556414	15.1260912	133.212735	145.8751068	-30.54439098	-149.9087311
6.04	604	-0.814	-0.871	1.396	178.9347834	53.7434604	128.342592	148.1497501	-31.70176614	-150.8140048
6.05	605	-0.002	-0.838	0.363	146.1615858	82.0475856	155.2143222	150.183751	-33.19145694	-151.8797066
6.06	606	0.385	-0.583	-0.336	189.9928728	55.4050386	170.5123008	152.9224902	-34.4920716	-153.3464791
6.07	607	0.253	-0.395	-0.467	206.2075842	27.9603504	170.455005	155.9878155	-35.48328894	-155.0424348
6.08	608	-0.367	0.046	0.093	226.604889	6.1879464	179.1066708	159.4484818	-36.22813434	-157.0134103
6.09	609	-0.54	0.26	0.573	279.9472788	-1.3750992	187.7010408	163.579509	-36.82401066	-159.1791916
6.1	610	-0.552	0.21	0.889	254.96631	-4.9847346	170.0539344	167.4068684	-37.21935168	-161.218922
6.11	611	-0.668	0.027	0.97	213.426855	-8.880849	146.5626564	170.6612699	-37.42561656	-163.006551
6.12	612	-0.675	0.026	1.014	202.540653	-2.4064236	137.6818074	173.7437839	-37.60323354	-164.6910475
6.13	613	-0.889	0.042	1.022	187.1280828	-2.4064236	127.8269298	176.6143035	-37.7006364	-166.2724116
6.14	614	-0.827	0.164	1.054	166.6734822	-15.8709366	123.6443364	179.2441807	-37.60323354	-167.8022095
6.15	615	-0.635	0.263	1.003	161.287677	-26.8717302	123.3005616	-178.1842084	-37.3282137	-169.3205482
6.16	616	-0.773	0.137	0.941	155.7299844	-41.7686382	136.936962	-175.6001678	-36.85838814	-170.9649376
6.17	617	-0.634	0.18	0.942	142.2081756	-57.2958	151.7765742	-173.0963414	-36.15937938	-172.7296483
6.18	618	-0.561	0.092	0.856	141.6925134	-58.2698286	155.4435054	-170.6268924	-35.38588608	-174.4828997
6.19	619	-0.225	0.259	0.904	116.310474	-79.5838662	165.584862	-168.4267337	-34.33164336	-176.2418808
6.2	620	-0.693	0.806	1.026	95.6266902	-100.8979038	152.0630532	-166.6104568	-33.04248786	-177.7143829
6.21	621	-0.513	0.222	1.142	66.9787902	-97.7466348	111.9559932	-165.4015154	-31.85073522	-178.6826819
6.22	622	-0.372	0.145	1.12	26.5852512	-110.3517108	86.803137	-164.79418	-30.58449804	-179.2900174
6.23	623	-0.43	-0.335	1.08	-2.0626488	-110.8100772	68.4111852	-164.6108334	-29.35263834	-179.6796288
6.24	624	-0.101	0.003	0.919	6.875496	-103.9345812	59.1865614	-164.3759206	-28.21245192	-179.977567
6.25	625	-0.284	0.507	0.749	-21.8869956	-119.9774052	27.9603504	-164.5764559	-27.00351054	-179.9145416
6.26	626	-0.436	0.413	0.64	-4.010706	-129.3166206	-9.167328	-164.8285574	-25.80602832	-179.3988794
6.27	627	-0.536	0.664	0.595	-38.1590028	-153.7819272	-32.0283522	-165.5390254	-24.42519954	-178.5910086
6.28	628	-0.524	0.497	0.786	-9.5111028	-149.4274464	-35.4088044	-165.9458255	-23.0902074	-177.7774082
6.29	629	-0.596	0.346	0.809	-15.2979786	-128.8009584	-17.4179232	-166.2953299	-21.90418434	-177.2273686
6.3	630	-0.579	0.491	0.788	-24.0069402	-92.3608296	-0.6875496	-166.5588906	-21.03328818	-176.9924558
6.31	631	-0.453	0.391	0.771	-10.5424272	-73.1667366	5.9587632	-166.7078597	-20.31709068	-176.8549459
6.32	632	-0.381	0.524	0.697	-46.5814854	-66.5777196	4.583664	-167.2120627	-19.66391856	-176.7288951
6.33	633	-0.253	0.508	0.829	-34.2628884	-57.5249832	6.302538	-167.5844854	-19.09669014	-176.648681
6.34	634	-0.176	0.447	0.894	-42.7999626	-48.6441342	4.6982556	-168.0313927	-18.60967584	-176.579926
6.35	635	-0.189	0.434	1.012	-40.5081306	-43.7166954	4.8128472	-168.4324633	-18.1627686	-176.5340894
6.36	636	-0.23	0.347	1.012	-36.8411994	-38.7319608	2.9220858	-168.8220747	-17.77888674	-176.4767936
6.37	637	-0.246	0.28	0.958	-38.5600734	-35.523396	0.859437	-169.2288749	-17.42938236	-176.4080386
6.38	638	-0.282	0.238	0.967	-42.3415962	-35.6379876	-1.5469866	-169.6815117	-17.07987798	-176.3163653
6.39	639	-0.284	0.218	0.98	-47.6701056	-35.2942128	-2.7501984	-170.1914443	-16.74183276	-176.2132329
6.4	640	-0.287	0.209	1.017	-51.1078536	-34.0337052	-3.4950438	-170.7300248	-16.40378754	-176.11583
6.41	641	-0.265	0.202	1.043	-52.6548402	-30.939732	-4.2398892	-171.2857941	-16.10584938	-176.0184272
6.42	642	-0.265	0.183	1.069	-50.4775998	-26.5279554	-5.156622	-171.8243746	-15.84801828	-175.9210243
6.43	643	-0.259	0.207	1.059	-45.2063862	-22.6891368	-6.302538	-172.3056593	-15.63029424	-175.8178919
6.44	644	-0.264	0.166	1.082	-42.1697088	-20.2827132	-9.6829902	-172.7640257	-15.4412181	-175.6918411
6.45	645	-0.24	0.176	1.077	-35.2942128	-18.1054728	-12.2613012	-173.1536372	-15.26360112	-175.542872
6.46	646	-0.249	0.175	1.053	-30.939732	-16.8449652	-13.6936962	-173.5088711	-15.10890246	-175.3824438
6.47	647	-0.231	0.183	1.041	-26.1841806	-16.5011904	-17.9335854	-173.823998	-14.96566296	-175.1761789
6.48	648	-0.224	0.213	1.035	-22.5172494	-15.469866	-25.3247436	-174.1219362	-14.83388262	-174.8954295
6.49	649	-0.243	0.217	1.028	-20.05353	-16.1574156	-40.2216516	-174.4370631	-14.71356144	-174.465711
6.5	650	-0.177	0.229	1.017	-15.5844576	-15.6417534	-55.003968	-174.7235421	-14.59896984	-173.892753
6.51	651	-0.173	0.24	1.002	-9.6256944	-15.9282324	-67.7236356	-174.9985619	-14.50156698	-173.1822851
6.52	652	-0.202	0.171	0.944	-8.021412	-14.1520626	-80.787078	-175.2907705	-14.43281202	-172.3400368
6.53	653	-0.198	0.152	0.896	-13.0634424	-14.4385416	-80.6151906	-175.6345453	-14.3525979	-171.4977886
6.54	654	-0.191	0.126	0.924	-18.4492476	-21.0275586	-71.61975	-176.0012384	-14.19789924	-170.7472136
6.55	655	-0.251	0.231	1.11	-6.875496	-17.5898106	-69.2706222	-176.2246921	-14.07184848	-170.0310161
6.56	656	-0.293	-0.165	0.905	-11.45916	7.3911582	-73.911582	-176.5283598	-14.19216966	-169.2804411
6.57	657	-0.356	-0.044	0.704	-18.334656	22.5745452	-62.6816052	-176.8721346	-14.45000076	-168.6616465
6.58	658	-0.195	-0.027	0.646	-24.8090814	4.6982556	-26.2987722	-177.1872615	-14.50729656	-168.3980858
6.59	659	-0.314	-0.32	0.667	-30.9970278	-10.026765	-9.453807	-177.5253067	-14.4098937	-168.2949533
6.6	660	-0.275	0.02	0.767	-22.5172494	-33.1742682	0.1145916	-177.8232449	-14.0947668	-168.2605759
6.61	661	-0.273	-0.084	0.949	-20.2827132	-43.4875122	-1.6042824	-178.0352393	-13.6650483	-168.2147392
6.62	662	-0.287	0.157	1.2	-6.589017	-42.5134836	-2.005353	-178.1039943	-13.24105938	-168.1689026
6.63	663	-0.162	0.14	1.227	-2.86479	-28.1895336	-1.2032118	-178.1383718	-12.96603954	-168.1402547
6.64	664	-0.223	0.013	1.309	-1.4896908	-13.6364004	-2.1199446	-178.1555605	-12.82852962	-168.1116068
6.65	665	-0.292	0.082	1.279	2.578311	8.9381448	-2.9220858	-178.1269126	-12.9202029	-168.0886885
6.66	666	-0.215	0.12	1.172	5.0993262	24.2934192	-3.724227	-178.0868056	-13.16084526	-168.0657701
6.67	667	-0.289	0.097	1.129	4.010706	34.091001	-8.7089616	-178.0638872	-13.50462006	-167.9970152
6.68	668	-0.193	0.092	1.012	5.5576926	41.3102718	-12.2613012	-178.0352393	-13.91714982	-167.8938827
6.69	669	-0.221	0.03	0.949	10.2559482	41.252976	-17.475219	-177.9779435	-14.32967958	-167.7391841
6.7	670	-0.238	0.062	0.911	13.9801752	39.3049188	-14.6677248	-177.8690815	-14.7250206	-167.6188629
6.71	671	-0.175	0.097	0.865	17.8762896	30.7105488	-9.6829902	-177.7143829	-15.03441792	-167.5386488
6.72	672	-0.333	-0.046	0.893	13.5791046	25.5539268	-4.297185	-177.5826025	-15.29224902	-167.5100009
6.73	673	-0.271	0.041	0.844	10.7716104	20.5118964	3.3231564	-177.4622813	-15.49278432	-167.5558375
6.74	674	-0.26	0.064	0.835	8.8235532	11.0007936	6.7609044	-177.3534193	-15.60164634	-167.6360516
6.75	675	-0.264	0.058	0.823	5.5576926	0.9740286	6.589017	-177.2674756	-15.63029424	-167.7048066
6.76	676	-0.282	0.067	0.83	2.6929026	-10.2559482	6.4171296	-177.221639	-15.5271618	-167.767832
6.77	677	-0.279	0.073	0.88	-0.859437	-21.3140376	6.3598338	-177.2159094	-15.30943776	-167.8136686
6.78	678	-0.281	0.071	0.967	-0.859437	-30.1375908	6.6463128	-177.2101798	-15.0114996	-167.8595053
6.79	679	-0.276	0.075	1.01	0.859437	-33.5753388	6.589017	-177.1872615	-14.67918396	-167.8996123
6.8	680	-0.263	0.1	1.034	0.4583664	-35.523396	6.8182002	-177.152884	-14.32395	-167.9511785
6.81	681	-0.245	0.107	1.025	-0.6302538	-34.5493674	6.1879464	-177.1414249	-13.9801752	-167.985556
6.82	682	-0.251	0.092	1.013	-1.5469866	-33.4034514	6.4171296	-177.1471544	-13.64785956	-168.0256631
6.83	683	-0.239	0.095	1.027	-1.2032118	-31.7418732	6.875496	-177.1414249	-13.32700308	-168.0714997
6.84	684	-0.236	0.093	1.047	-0.1718874	-28.7051958	6.9327918	-177.1299657	-13.04052408	-168.1173364
6.85	685	-0.22	0.097	1.054	0.572958	-23.5485738	6.0733548	-177.0955882	-12.79988172	-168.163173
6.86	686	-0.217	0.094	1.05	2.005353	-16.1001198	4.9274388	-177.0669403	-12.63945348	-168.2032801
6.87	687	-0.211	0.093	1.036	3.6096354	-9.6256944	4.2398892	-177.0211037	-12.54205062	-168.2376575
6.88	688	-0.21	0.095	1.023	4.8128472	-3.8961144	3.6669312	-176.9638079	-12.50194356	-168.272035
6.89	689	-0.208	0.095	1.005	4.9274388	0.4010706	3.0366774	-176.9065121	-12.50194356	-168.3006829
6.9	690	-0.209	0.1	0.992	4.297185	2.86479	2.3491278	-176.8091092	-12.5191323	-168.34079
6.91	691	-0.205	0.107	0.984	3.3804522	3.724227	1.432395	-176.7690022	-12.55923936	-168.3579787
6.92	692	-0.204	0.101	0.979	2.0626488	3.0366774	0.4583664	-176.7460838	-12.58788726	-168.3694379
6.93	693	-0.208	0.098	0.971	0.2291832	1.4896908	-0.4583664	-176.7460838	-12.605076	-168.3637083
6.94	694	-0.211	0.096	0.967	-1.6042824	-0.572958	-1.0886202	-176.7632726	-12.59934642	-168.3522491
6.95	695	-0.21	0.091	0.974	-3.0366774	-2.291832	-1.3750992	-176.7518134	-12.57069852	-168.3465196
6.96	696	-0.211	0.089	0.987	-3.8388186	-3.3804522	-1.4896908	-176.7976501	-12.53632104	-168.3293308
6.97	697	-0.211	0.089	0.998	-3.9534102	-3.2085648	-1.6615782	-176.8434867	-12.50194356	-168.3121421
6.98	698	-0.21	0.088	1.005	-3.8388186	-2.291832	-1.718874	-176.8835938	-12.47902524	-168.2892238
6.99	699	-0.211	0.085	1.009	-3.3231564	-0.9167328	-1.8907614	-176.9237008	-12.47329566	-168.272035
7	700	-0.212	0.083	1.009	-2.578311	0.6875496	-1.9480572	-176.9122417	-12.4618365	-168.2605759
7.01	701	-0.213	0.083	1.006	-1.718874	2.2345362	-1.8907614	-176.9294304	-12.48475482	-168.2433871
7.02	702	-0.213	0.081	1.004	-0.9740286	3.9534102	-1.9480572	-176.9466191	-12.52486188	-168.2261984
7.03	703	-0.216	0.082	1.004	-0.3437748	5.5003968	-1.9480572	-176.9523487	-12.58215768	-168.2147392
7.04	704	-0.215	0.082	1.003	0.0572958	6.875496	-2.1772404	-176.9580783	-12.65091264	-168.1975505
7.05	705	-0.22	0.081	1.001	0.4010706	8.4797784	-2.5210152	-176.9408896	-12.73112676	-168.1803617
7.06	706	-0.222	0.084	1.002	0.7448454	10.026765	-2.8074942	-176.93516	-12.8342592	-168.163173
7.07	707	-0.224	0.08	0.998	0.9740286	11.6310474	-3.0366774	-176.93516	-12.9488508	-168.1402547
7.08	708	-0.227	0.08	0.996	1.3178034	13.178034	-2.9793816	-176.9237008	-13.08063114	-168.1230659
7.09	709	-0.232	0.082	0.993	1.6615782	14.7250206	-2.9220858	-176.9179712	-13.22960022	-168.1001476
7.1	710	-0.233	0.082	0.984	2.1772404	15.6417534	-2.7501984	-176.8835938	-13.38429888	-168.0886885
7.11	711	-0.237	0.082	0.978	2.3491278	15.5844576	-2.4637194	-176.866405	-13.53899754	-168.0772293
7.12	712	-0.241	0.08	0.976	2.578311	14.896908	-2.1199446	-176.8434867	-13.68796662	-168.0714997
7.13	713	-0.245	0.08	0.972	2.1772404	13.9801752	-1.3178034	-176.826298	-13.83120612	-168.0657701
7.14	714	-0.249	0.08	0.969	1.8907614	12.4331886	-0.6875496	-176.8033796	-13.9515273	-168.0714997
7.15	715	-0.252	0.081	0.964	1.6615782	10.313244	-0.2291832	-176.7632726	-14.0661189	-168.0829589
7.16	716	-0.254	0.082	0.96	1.5469866	7.7922288	0.2291832	-176.7460838	-14.14633302	-168.094418
7.17	717	-0.255	0.084	0.958	1.4896908	4.6982556	0.7448454	-176.7288951	-14.19216966	-168.1058772
7.18	718	-0.254	0.085	0.961	1.3178034	1.5469866	1.145916	-176.7117064	-14.2093584	-168.1173364
7.19	719	-0.252	0.086	0.962	1.0313244	-0.9167328	1.3178034	-176.7002472	-14.19789924	-168.1287955
7.2	720	-0.251	0.089	0.963	0.8021412	-3.2085648	1.4896908	-176.6314922	-14.1807105	-168.1574434
7.21	721	-0.249	0.089	0.965	0.3437748	-5.3858052	1.3750992	-176.6257627	-14.1234147	-168.1689026
7.22	722	-0.248	0.088	0.969	0	-7.2765666	1.3750992	-176.6257627	-14.05465974	-168.1803617
7.23	723	-0.245	0.089	0.974	-0.2291832	-8.7089616	1.3750992	-176.6257627	-13.96871604	-168.1860913
7.24	724	-0.242	0.09	0.981	-0.4583664	-9.6256944	1.2605076	-176.6257627	-13.87131318	-168.1860913
7.25	725	-0.241	0.089	0.986	-0.6875496	-9.9694692	1.2032118	-176.6085739	-13.76818074	-168.1975505
7.26	726	-0.237	0.09	0.991	-0.859437	-9.740286	0.9740286	-176.6143035	-13.67077788	-168.2032801
7.27	727	-0.234	0.089	0.993	-0.7448454	-9.167328	0.8021412	-176.6200331	-13.58483418	-168.2032801
7.28	728	-0.233	0.089	0.996	-0.7448454	-8.3651868	0.6302538	-176.6257627	-13.49889048	-168.2032801
7.29	729	-0.231	0.088	0.996	-0.572958	-7.3338624	0.5156622	-176.6314922	-13.42440594	-168.2032801
7.3	730	-0.23	0.088	0.996	-0.5156622	-6.3598338	0.4010706	-176.5971148	-13.35565098	-168.2090096
7.31	731	-0.228	0.089	0.996	-0.4010706	-5.3858052	0.286479	-176.6028443	-13.29835518	-168.2090096
7.32	732	-0.226	0.088	0.996	-0.3437748	-4.3544808	0.2291832	-176.6028443	-13.25824812	-168.2090096
7.33	733	-0.225	0.087	0.992	-0.4010706	-3.3231564	0.0572958	-176.6085739	-13.22387064	-168.2032801
7.34	734	-0.225	0.087	0.991	-0.5156622	-2.1772404	-0.0572958	-176.6143035	-13.20095232	-168.2032801
7.35	735	-0.225	0.087	0.989	-0.5156622	-1.718874	-0.1718874	-176.5226302	-13.16657484	-168.2261984
7.36	736	-0.226	0.086	0.989	-0.6302538	-1.3750992	-0.286479	-176.5283598	-13.1493861	-168.2204688
7.37	737	-0.226	0.087	0.99	-0.572958	-1.0313244	-0.286479	-176.5340894	-13.14365652	-168.2204688
7.38	738	-0.227	0.086	0.992	-0.6302538	-0.6302538	-0.286479	-176.5455485	-13.13219736	-168.2147392
7.39	739	-0.228	0.085	0.994	-0.4583664	-0.1145916	-0.3437748	-176.5512781	-13.13219736	-168.2090096
7.4	740	-0.228	0.086	0.994	-0.4010706	0.572958	-0.4010706	-176.4366865	-13.12646778	-168.2376575
7.41	741	-0.229	0.085	0.995	-0.2291832	1.3750992	-0.3437748	-176.4366865	-13.13792694	-168.2376575
7.42	742	-0.229	0.086	0.996	-0.1145916	2.291832	-0.4010706	-176.4424161	-13.16084526	-168.231928
7.43	743	-0.23	0.086	0.992	0.0572958	2.9220858	-0.3437748	-176.4424161	-13.18949316	-168.231928
7.44	744	-0.231	0.084	0.991	0.2291832	3.3804522	-0.4010706	-176.4366865	-13.22387064	-168.231928
7.45	745	-0.233	0.085	0.989	0.286479	3.7815228	-0.3437748	-176.3908499	-13.2639777	-168.2433871
7.46	746	-0.233	0.085	0.987	0.4583664	4.010706	-0.3437748	-176.3908499	-13.30408476	-168.2433871
7.47	747	-0.235	0.085	0.986	0.5156622	4.010706	-0.286479	-176.3851203	-13.34419182	-168.2433871
7.48	748	-0.235	0.087	0.984	0.5156622	3.8388186	-0.2291832	-176.3793907	-13.38429888	-168.2433871
7.49	749	-0.236	0.087	0.982	0.5156622	3.3231564	-0.1718874	-176.3736611	-13.41867636	-168.2433871
7.5	750	-0.236	0.086	0.981	0.3437748	2.6356068	-0.2291832	-176.3106358	-13.45305384	-168.2605759
7.51	751	-0.237	0.087	0.98	0.2291832	1.8907614	-0.0572958	-176.3106358	-13.47024258	-168.2663054
7.52	752	-0.237	0.086	0.981	0.1718874	1.2032118	-0.1145916	-176.3049062	-13.48743132	-168.2663054
7.53	753	-0.238	0.087	0.982	0.0572958	0.6302538	-0.0572958	-176.3049062	-13.4931609	-168.2605759
7.54	754	-0.237	0.087	0.982	0	0.0572958	-0.0572958	-176.3049062	-13.4931609	-168.2605759
7.55	755	-0.238	0.087	0.982	-0.1145916	-0.4010706	0	-176.1444779	-13.51607922	-168.3121421
7.56	756	-0.237	0.087	0.982	0	-1.0886202	0	-176.1444779	-13.50462006	-168.3064125
7.57	757	-0.236	0.087	0.983	-0.0572958	-1.4896908	0	-176.1444779	-13.48743132	-168.3064125
7.58	758	-0.236	0.086	0.983	0	-1.7761698	0.0572958	-176.1444779	-13.47024258	-168.3064125
7.59	759	-0.236	0.087	0.984	0	-1.8334656	0.0572958	-176.1444779	-13.45305384	-168.3064125
7.6	760	-0.236	0.086	0.986	0	-2.0626488	0.1145916	-176.0929117	-13.43013552	-168.3178717
7.61	761	-0.235	0.087	0.989	-0.0572958	-2.291832	0	-176.0929117	-13.4072172	-168.3178717
7.62	762	-0.232	0.086	0.988	-0.1718874	-2.2345362	0.1145916	-176.0929117	-13.38429888	-168.3178717
7.63	763	-0.233	0.087	0.988	-0.2291832	-2.291832	0.0572958	-176.0986413	-13.36138056	-168.3178717
7.64	764	-0.232	0.086	0.987	-0.3437748	-2.005353	0	-176.0986413	-13.33846224	-168.3121421
7.65	765	-0.231	0.086	0.985	-0.286479	-1.7761698	0	-176.0470751	-13.3212735	-168.3293308
7.66	766	-0.231	0.085	0.985	-0.1145916	-1.8334656	0.1145916	-176.0470751	-13.30408476	-168.3293308
7.67	767	-0.23	0.085	0.99	-0.1718874	-1.718874	0	-176.0528047	-13.28689602	-168.3293308
7.68	768	-0.231	0.086	0.994	-0.3437748	-1.4896908	0.0572958	-176.0528047	-13.26970728	-168.3236012
7.69	769	-0.232	0.086	0.994	-0.4583664	-0.9740286	0.0572958	-176.0585342	-13.25824812	-168.3236012
7.7	770	-0.231	0.087	0.992	-0.3437748	-0.6302538	0.0572958	-175.9554018	-13.2353298	-168.3579787
7.71	771	-0.232	0.085	0.991	-0.1718874	-0.2291832	0.1145916	-175.9554018	-13.2353298	-168.3579787
7.72	772	-0.232	0.085	0.988	-0.0572958	0.0572958	0.0572958	-175.9554018	-13.2353298	-168.3579787
7.73	773	-0.231	0.086	0.985	-0.0572958	0.2291832	0	-175.9554018	-13.2353298	-168.3579787
7.74	774	-0.231	0.086	0.985	-0.0572958	0.4010706	0.0572958	-175.9611314	-13.24105938	-168.3579787
7.75	775	-0.231	0.087	0.983	0	0.3437748	0	-175.8064327	-13.2639777	-168.4038154
7.76	776	-0.232	0.087	0.985	-0.0572958	0.1718874	0	-175.8064327	-13.2639777	-168.4038154
7.77	777	-0.233	0.086	0.985	-0.0572958	0.0572958	0	-175.8121623	-13.2639777	-168.4038154
7.78	778	-0.233	0.087	0.986	-0.1145916	-0.0572958	-0.0572958	-175.8121623	-13.2639777	-168.4038154
7.79	779	-0.232	0.087	0.986	-0.2291832	-0.1145916	-0.0572958	-175.8121623	-13.2639777	-168.3980858
7.8	780	-0.232	0.087	0.988	-0.286479	-0.1718874	-0.0572958	-175.7491369	-13.2639777	-168.4210041
7.81	781	-0.233	0.087	0.99	-0.286479	-0.1145916	-0.1145916	-175.7491369	-13.2639777	-168.4152745
7.82	782	-0.233	0.086	0.989	-0.1718874	0.0572958	-0.1145916	-175.7548665	-13.2639777	-168.4152745
7.83	783	-0.232	0.085	0.989	-0.1718874	0.2291832	-0.0572958	-175.7548665	-13.26970728	-168.4152745
7.84	784	-0.232	0.086	0.987	-0.0572958	0.3437748	-0.0572958	-175.7548665	-13.26970728	-168.4152745
7.85	785	-0.233	0.085	0.986	-0.1145916	0.4583664	-0.1145916	-175.7262186	-13.26970728	-168.4210041
7.86	786	-0.233	0.085	0.985	-0.1145916	0.4583664	-0.0572958	-175.7262186	-13.26970728	-168.4210041
7.87	787	-0.233	0.085	0.984	-0.1145916	0.286479	-0.0572958	-175.7319482	-13.27543686	-168.4210041
7.88	788	-0.233	0.085	0.985	-0.1145916	0	-0.0572958	-175.7319482	-13.27543686	-168.4210041
7.89	789	-0.232	0.085	0.985	-0.1718874	-0.1718874	-0.0572958	-175.7319482	-13.27543686	-168.4210041
7.9	790	-0.233	0.085	0.986	-0.1145916	-0.2291832	0	-175.6918411	-13.29835518	-168.4324633
7.91	791	-0.234	0.085	0.986	-0.1718874	-0.1718874	0	-175.6975707	-13.29835518	-168.4324633
7.92	792	-0.234	0.084	0.985	-0.1145916	-0.3437748	-0.0572958	-175.6975707	-13.2926256	-168.4324633
7.93	793	-0.233	0.085	0.985	-0.1718874	-0.6302538	0	-175.6975707	-13.28689602	-168.4267337
7.94	794	-0.233	0.085	0.986	-0.1718874	-0.9167328	0	-175.7033003	-13.27543686	-168.4267337
7.95	795	-0.232	0.085	0.989	-0.1718874	-0.859437	0	-175.680382	-13.27543686	-168.4324633
7.96	796	-0.232	0.085	0.989	-0.2291832	-0.7448454	0	-175.680382	-13.26970728	-168.4324633
7.97	797	-0.232	0.085	0.988	-0.2291832	-0.5156622	0	-175.6861115	-13.2639777	-168.4324633
7.98	798	-0.232	0.085	0.988	-0.1718874	-0.4583664	0	-175.6861115	-13.25824812	-168.4324633
7.99	799	-0.233	0.086	0.987	-0.1718874	-0.4583664	0	-175.6918411	-13.25251854	-168.4324633
8	800	-0.233	0.085	0.986	-0.1718874	-0.5156622	0.0572958	-175.6631932	-13.25251854	-168.4439224
8.01	801	-0.232	0.086	0.986	-0.2291832	-0.4583664	0	-175.6631932	-13.24678896	-168.4439224
8.02	802	-0.232	0.086	0.988	-0.2291832	-0.4583664	0	-175.6689228	-13.24105938	-168.4381928
8.03	803	-0.233	0.084	0.988	-0.1718874	-0.3437748	0.0572958	-175.6689228	-13.2353298	-168.4439224
8.04	804	-0.232	0.084	0.988	-0.1145916	-0.1718874	0	-175.6746524	-13.2353298	-168.4439224
8.05	805	-0.232	0.085	0.988	-0.1718874	0	0.0572958	-175.6058974	-13.22960022	-168.4611112
8.06	806	-0.232	0.085	0.988	-0.0572958	0.0572958	0.0572958	-175.6058974	-13.22960022	-168.4611112
8.07	807	-0.232	0.084	0.987	0	0	0	-175.6058974	-13.22960022	-168.4611112
8.08	808	-0.231	0.084	0.987	-0.0572958	0.0572958	0	-175.6058974	-13.22960022	-168.4611112
8.09	809	-0.232	0.085	0.987	-0.0572958	0.0572958	0	-175.6058974	-13.22960022	-168.4611112
8.1	810	-0.232	0.084	0.988	0	0.0572958	0	-175.5944383	-13.22960022	-168.4668407
8.11	811	-0.232	0.085	0.989	-0.0572958	0.3437748	0	-175.5944383	-13.22960022	-168.4668407
8.12	812	-0.231	0.085	0.988	0	0.3437748	0	-175.5944383	-13.2353298	-168.4668407
8.13	813	-0.232	0.085	0.989	0	0.572958	0	-175.5944383	-13.24105938	-168.4668407
8.14	814	-0.232	0.084	0.988	0.0572958	0.7448454	0.0572958	-175.5944383	-13.24678896	-168.4668407
8.15	815	-0.232	0.083	0.988	0.1145916	0.6875496	0.0572958	-175.5887087	-13.25824812	-168.4725703
8.16	816	-0.232	0.084	0.986	0.0572958	0.7448454	0	-175.5887087	-13.2639777	-168.4725703
8.17	817	-0.234	0.084	0.985	0.2291832	0.5156622	0.0572958	-175.5887087	-13.26970728	-168.4725703
8.18	818	-0.234	0.085	0.986	0.1145916	0.4583664	0.1145916	-175.5829791	-13.27543686	-168.4782999
8.19	819	-0.234	0.083	0.985	0.1145916	0.3437748	0.1145916	-175.5829791	-13.28116644	-168.4782999
8.2	820	-0.234	0.084	0.986	0.1145916	0.1145916	0.1145916	-175.5829791	-13.2926256	-168.4782999
8.21	821	-0.232	0.085	0.986	0.1145916	0	0.0572958	-175.5829791	-13.2926256	-168.4782999
8.22	822	-0.233	0.085	0.985	0.1145916	-0.0572958	0.0572958	-175.5829791	-13.2926256	-168.4782999
8.23	823	-0.232	0.085	0.986	0	0.0572958	0.0572958	-175.5829791	-13.2926256	-168.4840295
8.24	824	-0.233	0.085	0.985	0	0.1718874	0.0572958	-175.5829791	-13.2926256	-168.4840295
8.25	825	-0.232	0.084	0.983	0.0572958	0.1718874	0	-175.5772495	-13.29835518	-168.4840295
8.26	826	-0.233	0.084	0.986	0	0.0572958	0	-175.5772495	-13.29835518	-168.4840295
8.27	827	-0.233	0.084	0.989	-0.0572958	-0.0572958	0.1145916	-175.5829791	-13.29835518	-168.4840295
8.28	828	-0.234	0.084	0.991	-0.1145916	-0.2291832	0.0572958	-175.5829791	-13.2926256	-168.4840295
8.29	829	-0.233	0.085	0.993	-0.0572958	-0.1718874	0.1145916	-175.5829791	-13.2926256	-168.4840295
8.3	830	-0.233	0.084	0.992	0	0	0.1718874	-175.5887087	-13.2926256	-168.4840295
8.31	831	-0.233	0.084	0.991	0.0572958	0.3437748	0.0572958	-175.5887087	-13.2926256	-168.4897591
8.32	832	-0.232	0.084	0.987	0.1718874	0.7448454	0.1145916	-175.5829791	-13.30408476	-168.4897591
8.33	833	-0.233	0.084	0.985	0.2291832	0.9167328	0.1718874	-175.5829791	-13.30981434	-168.4954886
8.34	834	-0.233	0.084	0.984	0.1718874	0.859437	0.1718874	-175.5772495	-13.3212735	-168.4954886
8.35	835	-0.233	0.084	0.983	0.1718874	0.6875496	0.1145916	-175.5715199	-13.33846224	-168.5012182
8.36	836	-0.234	0.085	0.983	0.1718874	0.4583664	0.1145916	-175.5715199	-13.33846224	-168.5012182
8.37	837	-0.233	0.085	0.984	0.1145916	0.0572958	0.1718874	-175.5657904	-13.33846224	-168.5012182
8.38	838	-0.234	0.085	0.986	0	-0.1718874	0.1145916	-175.5657904	-13.33846224	-168.5069478
8.39	839	-0.234	0.085	0.987	0	-0.3437748	0.0572958	-175.5657904	-13.33273266	-168.5069478
8.4	840	-0.233	0.084	0.989	0	-0.2291832	0	-175.5715199	-13.34419182	-168.5069478
8.41	841	-0.234	0.085	0.99	0	-0.1718874	0	-175.5715199	-13.33846224	-168.5012182
8.42	842	-0.234	0.085	0.988	0	-0.0572958	0	-175.5715199	-13.33846224	-168.5012182
8.43	843	-0.234	0.085	0.987	0	0	0	-175.5715199	-13.33846224	-168.5012182
8.44	844	-0.235	0.084	0.986	0	0.0572958	-0.0572958	-175.5715199	-13.33846224	-168.5012182
8.45	845	-0.235	0.084	0.985	0	-0.0572958	-0.0572958	-175.5772495	-13.3785693	-168.5012182
8.46	846	-0.234	0.083	0.985	-0.0572958	-0.1718874	0	-175.5772495	-13.3785693	-168.5012182
8.47	847	-0.234	0.084	0.986	0	-0.286479	0	-175.5772495	-13.37283972	-168.5012182
8.48	848	-0.235	0.083	0.986	0	-0.3437748	-0.1145916	-175.5772495	-13.37283972	-168.4954886
8.49	849	-0.235	0.084	0.988	0.0572958	-0.3437748	-0.0572958	-175.5772495	-13.36711014	-168.4954886
8.5	850	-0.235	0.084	0.986	0	-0.286479	-0.1145916	-175.5715199	-13.37283972	-168.4954886
8.51	851	-0.235	0.084	0.986	0.0572958	-0.1718874	-0.0572958	-175.5715199	-13.37283972	-168.4954886
8.52	852	-0.234	0.084	0.985	0	-0.1718874	-0.0572958	-175.5715199	-13.37283972	-168.4897591
8.53	853	-0.234	0.085	0.985	0	-0.572958	0	-175.5715199	-13.36711014	-168.4897591
8.54	854	-0.234	0.083	0.987	0	-0.6875496	-0.1145916	-175.5715199	-13.35565098	-168.4897591
8.55	855	-0.235	0.084	0.987	0	-0.7448454	-0.0572958	-175.5715199	-13.35565098	-168.4897591
8.56	856	-0.234	0.084	0.987	0	-0.859437	-0.1145916	-175.5715199	-13.34419182	-168.4840295
8.57	857	-0.233	0.084	0.987	0.0572958	-0.8021412	0	-175.5715199	-13.33846224	-168.4840295
8.58	858	-0.233	0.085	0.988	-0.0572958	-0.6302538	-0.1145916	-175.5715199	-13.33273266	-168.4840295
8.59	859	-0.233	0.083	0.987	0	-0.572958	-0.0572958	-175.5715199	-13.32700308	-168.4840295
8.6	860	-0.233	0.083	0.987	0	-0.4010706	-0.1145916	-175.5715199	-13.3212735	-168.4782999
8.61	861	-0.233	0.084	0.988	0.1145916	-0.5156622	-0.0572958	-175.5715199	-13.31554392	-168.4782999
8.62	862	-0.233	0.083	0.986	0.0572958	-0.4010706	-0.0572958	-175.5715199	-13.30981434	-168.4782999
8.63	863	-0.232	0.084	0.986	0.1718874	-0.4010706	-0.1145916	-175.5715199	-13.30408476	-168.4725703
8.64	864	-0.233	0.084	0.985	0.2291832	-0.3437748	-0.1145916	-175.5657904	-13.29835518	-168.4725703
8.65	865	-0.233	0.083	0.986	0.286479	-0.4583664	-0.0572958	-175.5657904	-13.29835518	-168.4725703
8.66	866	-0.232	0.085	0.986	0.3437748	-0.4583664	-0.0572958	-175.5600608	-13.2926256	-168.4668407
8.67	867	-0.233	0.084	0.987	0.3437748	-0.3437748	-0.1145916	-175.5600608	-13.28689602	-168.4668407
8.68	868	-0.233	0.085	0.987	0.4010706	-0.4010706	-0.1145916	-175.5543312	-13.28689602	-168.4668407
8.69	869	-0.233	0.085	0.987	0.4583664	-0.4583664	-0.0572958	-175.5486016	-13.28116644	-168.4611112
8.7	870	-0.233	0.085	0.988	0.286479	-0.4010706	-0.1145916	-175.542872	-13.27543686	-168.4611112
8.71	871	-0.232	0.085	0.988	0.4010706	-0.4010706	-0.1145916	-175.5371425	-13.26970728	-168.4611112
8.72	872	-0.233	0.084	0.987	0.3437748	-0.3437748	-0.1718874	-175.5371425	-13.2639777	-168.4553816
8.73	873	-0.233	0.084	0.986	0.286479	-0.3437748	-0.1718874	-175.5314129	-13.2639777	-168.4553816
8.74	874	-0.233	0.084	0.984	0.286479	-0.286479	-0.1718874	-175.5314129	-13.25824812	-168.4553816
8.75	875	-0.233	0.084	0.986	0.1718874	-0.1145916	-0.1145916	-175.5199537	-13.26970728	-168.4553816
8.76	876	-0.233	0.084	0.986	0.2291832	-0.2291832	-0.1145916	-175.5142241	-13.26970728	-168.4553816
8.77	877	-0.233	0.084	0.988	0.2291832	-0.286479	0	-175.5142241	-13.2639777	-168.4553816
8.78	878	-0.233	0.084	0.987	0.1145916	-0.2291832	-0.0572958	-175.5084946	-13.2639777	-168.449652
8.79	879	-0.233	0.085	0.988	0.2291832	-0.2291832	-0.0572958	-175.5084946	-13.25824812	-168.449652
8.8	880	-0.232	0.085	0.988	0.1718874	-0.2291832	-0.0572958	-175.5084946	-13.25824812	-168.449652
8.81	881	-0.234	0.085	0.989	0.1145916	-0.0572958	0	-175.5084946	-13.25824812	-168.449652
8.82	882	-0.232	0.085	0.988	0.1718874	-0.0572958	-0.0572958	-175.502765	-13.25824812	-168.449652
8.83	883	-0.233	0.084	0.987	0.2291832	-0.0572958	-0.0572958	-175.502765	-13.25251854	-168.449652
8.84	884	-0.233	0.085	0.986	0.2291832	-0.0572958	0	-175.4970354	-13.25251854	-168.449652
8.85	885	-0.232	0.085	0.985	0.1145916	0	0	-175.502765	-13.25824812	-168.4439224
8.86	886	-0.232	0.085	0.985	0.1718874	-0.0572958	0	-175.502765	-13.25824812	-168.4439224
8.87	887	-0.232	0.085	0.985	0.1145916	-0.0572958	0	-175.4970354	-13.25824812	-168.4439224
8.88	888	-0.234	0.084	0.986	0.0572958	-0.2291832	0	-175.4970354	-13.25824812	-168.4439224
8.89	889	-0.233	0.086	0.987	0.0572958	-0.5156622	0	-175.4970354	-13.25251854	-168.4439224
8.9	890	-0.232	0.086	0.99	0	-0.4583664	0	-175.4913058	-13.24678896	-168.4439224
8.91	891	-0.232	0.086	0.987	0	-0.3437748	0	-175.4913058	-13.24105938	-168.4439224
8.92	892	-0.232	0.085	0.986	-0.0572958	-0.3437748	0	-175.4913058	-13.24105938	-168.4439224
8.93	893	-0.231	0.085	0.986	-0.0572958	-0.1145916	-0.0572958	-175.4913058	-13.2353298	-168.4439224
8.94	894	-0.23	0.085	0.986	-0.0572958	-0.1145916	-0.0572958	-175.4970354	-13.2353298	-168.4439224
8.95	895	-0.231	0.084	0.989	-0.1718874	-0.3437748	-0.1145916	-175.502765	-13.2353298	-168.4381928
8.96	896	-0.233	0.084	0.991	-0.4010706	-0.4583664	0	-175.502765	-13.22960022	-168.4381928
8.97	897	-0.232	0.085	0.994	-0.3437748	-0.4010706	0	-175.5084946	-13.22387064	-168.4381928
8.98	898	-0.23	0.085	0.995	-0.1718874	-0.1145916	0.0572958	-175.5142241	-13.22387064	-168.4381928
8.99	899	-0.231	0.084	0.992	-0.0572958	0.3437748	0.0572958	-175.5142241	-13.22960022	-168.4381928
9	900	-0.23	0.085	0.988	0.0572958	0.8021412	0	-175.5084946	-13.22960022	-168.4439224
9.01	901	-0.231	0.086	0.985	0.0572958	1.145916	0	-175.5084946	-13.24105938	-168.4439224
9.02	902	-0.231	0.085	0.984	0	1.0886202	0	-175.5084946	-13.25251854	-168.4439224
9.03	903	-0.231	0.086	0.984	0	0.859437	-0.0572958	-175.5084946	-13.2639777	-168.4439224
9.04	904	-0.231	0.086	0.982	0	0.5156622	0	-175.5084946	-13.26970728	-168.4439224
9.05	905	-0.232	0.086	0.983	0	0.1718874	0	-175.4454692	-13.28116644	-168.4611112
9.06	906	-0.232	0.086	0.985	-0.0572958	-0.0572958	0	-175.4511988	-13.28116644	-168.4611112
9.07	907	-0.232	0.087	0.987	-0.0572958	-0.286479	0	-175.4511988	-13.27543686	-168.4611112
9.08	908	-0.232	0.086	0.99	-0.0572958	-0.3437748	-0.0572958	-175.4511988	-13.27543686	-168.4611112
9.09	909	-0.232	0.085	0.99	-0.1145916	-0.0572958	-0.0572958	-175.4511988	-13.27543686	-168.4553816
9.1	910	-0.231	0.086	0.988	-0.1718874	0	0	-175.4454692	-13.26970728	-168.4611112
9.11	911	-0.231	0.086	0.989	-0.1145916	0.1718874	-0.1145916	-175.4511988	-13.27543686	-168.4553816
9.12	912	-0.231	0.085	0.988	-0.2291832	0.4010706	-0.1145916	-175.4511988	-13.27543686	-168.4553816
9.13	913	-0.231	0.085	0.987	-0.1718874	0.3437748	-0.1145916	-175.4569283	-13.28116644	-168.4553816
9.14	914	-0.231	0.085	0.987	-0.1145916	0.286479	-0.0572958	-175.4569283	-13.28689602	-168.4553816
9.15	915	-0.231	0.086	0.987	-0.1145916	0.1718874	0	-175.4626579	-13.28116644	-168.4553816
9.16	916	-0.231	0.087	0.985	-0.1145916	0.1718874	0	-175.4626579	-13.28116644	-168.4553816
9.17	917	-0.231	0.086	0.987	-0.1718874	0	0	-175.4683875	-13.28116644	-168.4553816
9.18	918	-0.23	0.086	0.987	-0.1718874	-0.0572958	0	-175.4683875	-13.28116644	-168.4553816
9.19	919	-0.231	0.085	0.988	-0.2291832	0	0	-175.4741171	-13.28116644	-168.4553816
9.2	920	-0.231	0.087	0.988	-0.1718874	0.0572958	0	-175.4626579	-13.28116644	-168.4553816
9.21	921	-0.23	0.086	0.986	-0.286479	0.2291832	0	-175.4683875	-13.28116644	-168.4553816
9.22	922	-0.232	0.085	0.987	-0.286479	0.0572958	0	-175.4741171	-13.28116644	-168.4553816
9.23	923	-0.231	0.086	0.988	-0.1718874	0	0	-175.4741171	-13.28116644	-168.4553816
9.24	924	-0.231	0.085	0.99	-0.286479	0	0	-175.4741171	-13.28116644	-168.4553816
9.25	925	-0.23	0.085	0.989	-0.286479	0.1718874	0	-175.4798467	-13.28116644	-168.4553816
9.26	926	-0.23	0.085	0.988	-0.1718874	0.286479	0	-175.4798467	-13.28689602	-168.4553816
9.27	927	-0.23	0.084	0.988	-0.0572958	0.4583664	0	-175.4798467	-13.28689602	-168.4553816
9.28	928	-0.229	0.085	0.988	-0.0572958	0.5156622	0	-175.4855762	-13.2926256	-168.4553816
9.29	929	-0.231	0.086	0.988	-0.0572958	0.572958	0	-175.4855762	-13.29835518	-168.4553816
9.3	930	-0.231	0.086	0.987	-0.0572958	0.5156622	0	-175.4855762	-13.30408476	-168.4611112
9.31	931	-0.231	0.086	0.988	0	0.5156622	0	-175.4855762	-13.30981434	-168.4611112
9.32	932	-0.229	0.086	0.986	0.1145916	0.286479	0	-175.4798467	-13.30981434	-168.4611112
9.33	933	-0.231	0.086	0.988	0.0572958	0.3437748	0	-175.4798467	-13.31554392	-168.4611112
9.34	934	-0.23	0.086	0.986	0.0572958	0.286479	0	-175.4798467	-13.31554392	-168.4611112
9.35	935	-0.232	0.086	0.987	0	0.3437748	0	-175.4741171	-13.3212735	-168.4668407
9.36	936	-0.232	0.086	0.986	0	0.2291832	0	-175.4741171	-13.3212735	-168.4668407
9.37	937	-0.231	0.086	0.988	0	0.2291832	0	-175.4741171	-13.32700308	-168.4668407
9.38	938	-0.231	0.086	0.989	0	0.2291832	0	-175.4741171	-13.32700308	-168.4668407
9.39	939	-0.231	0.086	0.989	-0.0572958	0.4010706	0	-175.4741171	-13.33273266	-168.4668407
9.4	940	-0.23	0.087	0.988	-0.1145916	0.5156622	0	-175.4683875	-13.33273266	-168.4668407
9.41	941	-0.232	0.085	0.988	-0.1718874	0.5156622	0	-175.4683875	-13.33273266	-168.4668407
9.42	942	-0.231	0.086	0.988	-0.0572958	0.3437748	0	-175.4741171	-13.33846224	-168.4725703
9.43	943	-0.232	0.085	0.987	0	0.1718874	0	-175.4741171	-13.33846224	-168.4725703
9.44	944	-0.232	0.085	0.986	-0.0572958	0.1145916	0	-175.4741171	-13.34419182	-168.4725703
9.45	945	-0.232	0.085	0.986	0	0	0.0572958	-175.4741171	-13.32700308	-168.4725703
9.46	946	-0.232	0.085	0.985	0	-0.1145916	0.0572958	-175.4741171	-13.32700308	-168.4725703
9.47	947	-0.232	0.086	0.987	-0.0572958	-0.1145916	0.0572958	-175.4741171	-13.32700308	-168.4725703
9.48	948	-0.231	0.086	0.986	-0.1145916	-0.1145916	0.0572958	-175.4741171	-13.3212735	-168.4725703
9.49	949	-0.232	0.085	0.987	-0.0572958	-0.1718874	0	-175.4741171	-13.3212735	-168.4725703
9.5	950	-0.231	0.084	0.986	0	-0.1718874	0.0572958	-175.4798467	-13.31554392	-168.4725703
9.51	951	-0.232	0.084	0.987	0	-0.2291832	0.0572958	-175.4798467	-13.30981434	-168.4725703
9.52	952	-0.231	0.085	0.987	0	-0.286479	0	-175.4798467	-13.30981434	-168.4725703
9.53	953	-0.231	0.087	0.988	0	-0.286479	0	-175.4798467	-13.30408476	-168.4725703
9.54	954	-0.231	0.085	0.987	0	-0.286479	0.0572958	-175.4798467	-13.30408476	-168.4725703
9.55	955	-0.231	0.085	0.989	0	-0.1718874	0.0572958	-175.4798467	-13.28689602	-168.4725703
