TimeStamp(s)	FrameCounter	AccX	AccY	AccZ	GyrX	GyrY	GyrZ	EulerX	EulerY	EulerZ
0.01	1	-0.055	-0.902	0.324	-12.7769634	6.589017	0.2291832	99.37383552	-3.71849742	74.84550354
0.02	2	0.017	-0.957	0.347	-19.6524594	10.2559482	-5.5576926	99.16757064	-3.68411994	74.94863598
0.03	3	0.02	-1.004	0.355	-17.9908812	7.1046792	-4.4690724	98.9784945	-3.65547204	75.02312052
0.04	4	0.015	-1.041	0.367	-15.5844576	2.7501984	-3.4950438	98.81806626	-3.62682414	75.057498
0.05	5	0.014	-1.056	0.378	-11.2872726	-1.145916	-2.578311	98.8066071	-3.58671708	74.98874304
0.06	6	0.014	-1.065	0.389	-6.7609044	-5.443101	-1.5469866	98.74358172	-3.55806918	74.93717682
0.07	7	0.009	-1.069	0.396	-4.010706	-8.6516658	-0.9167328	98.70920424	-3.53515086	74.85123312
0.08	8	-0.001	-1.071	0.399	-2.1199446	-10.5424272	-0.9740286	98.6920155	-3.50650296	74.74810068
0.09	9	-0.01	-1.059	0.402	-1.7761698	-10.7716104	-1.4896908	98.68055634	-3.47212548	74.64496824
0.1	10	-0.014	-1.038	0.395	-2.4637194	-10.5424272	-2.005353	98.78941836	-3.43201842	74.47308084
0.11	11	-0.011	-1.017	0.381	-3.8388186	-10.8289062	-2.578311	98.76077046	-3.38618178	74.37567798
0.12	12	-0.002	-0.986	0.376	-6.0733548	-12.3758928	-3.4950438	98.70347466	-3.32888598	74.2553568
0.13	13	0.004	-0.956	0.373	-8.6516658	-15.2979786	-4.7555514	98.62899012	-3.25440144	74.1121173
0.14	14	0.01	-0.927	0.362	-11.0007936	-17.761698	-6.1879464	98.52585768	-3.16272816	73.94595948
0.15	15	0.013	-0.912	0.351	-12.4331886	-18.5638392	-7.161975	98.47429146	-3.05959572	73.7396946
0.16	16	0.012	-0.907	0.349	-14.2666542	-18.2200644	-7.734933	98.34251112	-2.9507337	73.57353678
0.17	17	0.01	-0.904	0.344	-16.1574156	-16.8449652	-7.9068204	98.18781246	-2.84760126	73.41883812
0.18	18	0.011	-0.901	0.329	-17.2460358	-15.1260912	-7.8495246	98.02165464	-2.74446882	73.27559862
0.19	19	0.01	-0.899	0.311	-17.9335854	-12.7196676	-7.448454	97.84403766	-2.64706596	73.16100702
0.2	20	0.01	-0.899	0.292	-18.334656	-9.9121734	-6.7609044	97.7179869	-2.56112226	73.04068584
0.21	21	0.005	-0.897	0.29	-18.907614	-7.3338624	-5.9587632	97.52891076	-2.4923673	72.97766046
0.22	22	-0.004	-0.89	0.291	-19.0222056	-4.9274388	-5.0993262	97.33983462	-2.4350715	72.93182382
0.23	23	-0.01	-0.888	0.285	-18.2773602	-2.3491278	-4.4690724	97.15648806	-2.38923486	72.91463508
0.24	24	-0.015	-0.893	0.286	-17.5898106	0.5156622	-3.7815228	96.9731415	-2.35485738	72.92036466
0.25	25	-0.019	-0.901	0.297	-16.8449652	2.9220858	-3.2085648	96.89865696	-2.32620948	72.89744634
0.26	26	-0.02	-0.91	0.31	-15.2406828	4.7555514	-2.8074942	96.7439583	-2.30902074	72.94328298
0.27	27	-0.018	-0.92	0.324	-13.2926256	6.4171296	-2.578311	96.6007188	-2.291832	73.01203794
0.28	28	-0.013	-0.932	0.333	-11.5164558	7.5057498	-2.0626488	96.48039762	-2.28037284	73.08652248
0.29	29	-0.002	-0.942	0.337	-10.313244	8.1360036	-1.0886202	96.3715356	-2.28610242	73.1667366
0.3	30	0.011	-0.947	0.344	-9.2819196	7.3911582	0.1718874	96.44602014	-2.28610242	73.14381828
0.31	31	0.021	-0.948	0.343	-8.59437	6.4171296	1.0886202	96.35434686	-2.30902074	73.20111408
0.32	32	0.024	-0.956	0.332	-8.59437	5.2712136	1.7761698	96.26267358	-2.33193906	73.2526803
0.33	33	0.034	-0.97	0.32	-9.3965112	5.0993262	2.3491278	96.16527072	-2.36631654	73.29851694
0.34	34	0.047	-0.976	0.314	-11.1153852	3.8388186	3.2085648	96.05067912	-2.40069402	73.33289442
0.35	35	0.053	-0.977	0.306	-12.4904844	0.4583664	4.1252976	96.04494954	-2.41788276	73.26413946
0.36	36	0.054	-0.977	0.299	-13.2926256	-2.9220858	4.4117766	95.90743962	-2.45798982	73.22976198
0.37	37	0.052	-0.976	0.296	-12.7769634	-5.5003968	4.2398892	95.78138886	-2.49809688	73.17246618
0.38	38	0.051	-0.974	0.3	-11.745639	-8.4797784	3.9534102	95.66679726	-2.52674478	73.0807929
0.39	39	0.05	-0.968	0.318	-10.7716104	-11.8602306	4.010706	95.5693944	-2.5496631	72.96047172
0.4	40	0.056	-0.959	0.335	-9.7975818	-14.8396122	4.010706	95.57512398	-2.55539268	72.75420684
0.41	41	0.059	-0.951	0.343	-8.59437	-17.0168526	3.9534102	95.50063944	-2.57258142	72.58231944
0.42	42	0.056	-0.946	0.357	-7.5630456	-18.907614	3.8961144	95.43188448	-2.58977016	72.3932433
0.43	43	0.052	-0.944	0.371	-7.1046792	-20.2827132	3.8961144	95.37458868	-2.6069589	72.18697842
0.44	44	0.046	-0.942	0.39	-6.7609044	-22.0015872	4.010706	95.31729288	-2.61841806	71.9635248
0.45	45	0.04	-0.947	0.402	-6.4171296	-22.91832	4.010706	95.38031826	-2.62414764	71.67131622
0.46	46	0.036	-0.959	0.404	-7.3338624	-23.6631654	3.9534102	95.31729288	-2.6356068	71.43640344
0.47	47	0.029	-0.973	0.404	-9.2819196	-24.350715	3.6669312	95.24280834	-2.64133638	71.1900315
0.48	48	0.023	-0.981	0.401	-11.2299768	-24.8663772	3.6096354	95.1396759	-2.64706596	70.94365956
0.49	49	0.018	-0.988	0.381	-13.0634424	-25.0382646	3.724227	95.0250843	-2.65852512	70.69155804
0.5	50	0.013	-0.992	0.346	-14.9542038	-22.8037284	3.6669312	94.95632934	-2.6642547	70.42226778
0.51	51	0.006	-0.995	0.319	-16.4438946	-19.6524594	4.0680018	94.80163068	-2.68144344	70.22173248
0.52	52	0.004	-1.001	0.304	-17.9335854	-15.9855282	4.9274388	94.62974328	-2.71582092	70.06130424
0.53	53	0.013	-1.004	0.296	-19.1367972	-9.3965112	6.6463128	94.44066714	-2.77311672	69.9581718
0.54	54	0.017	-1.004	0.295	-16.5584862	-3.151269	8.8235532	94.27450932	-2.85906042	69.91806474
0.55	55	0.001	-1.023	0.303	-10.8289062	-1.3178034	10.3705398	94.26877974	-2.95646328	69.83785062
0.56	56	-0.04	-1.082	0.298	-8.2505952	-4.297185	10.2559482	94.18856562	-3.05386614	69.7862844
0.57	57	-0.119	-1.214	0.26	-11.6883432	-6.9900876	7.0473834	94.07397402	-3.11689152	69.71179986
0.58	58	-0.222	-1.427	0.148	-28.8770832	-5.7868758	1.0313244	93.78749502	-3.1226211	69.64877448
0.59	59	-0.31	-1.604	0.138	-43.9458786	1.3178034	-5.6149884	93.34058778	-3.07105488	69.66023364
0.6	60	-0.204	-1.669	0.143	-36.382833	14.4385416	-8.2505952	92.9624355	-3.00229992	69.80347314
0.61	61	-0.016	-1.449	0.223	-30.3094782	9.6256944	-0.7448454	92.6473086	-3.0080295	69.89514642
0.62	62	0.185	-1.161	0.178	-21.485925	-2.578311	9.167328	92.42958456	-3.09970278	69.86076894
0.63	63	0.289	-1.065	0.118	-10.6570188	-16.1001198	13.6364004	92.33791128	-3.22575354	69.69461112
0.64	64	0.313	-0.998	0.181	-13.0061466	-22.1161788	13.2353298	92.2175901	-3.34034514	69.4711575
0.65	65	0.302	-0.893	0.113	-18.907614	-26.5279554	10.1986524	92.05143228	-3.38618178	69.20186724
0.66	66	0.235	-0.825	0.059	-20.6837838	-33.8618178	8.021412	91.86808572	-3.44920716	68.85809244
0.67	67	0.126	-0.796	0.04	-21.199446	-40.2216516	6.9327918	91.67900958	-3.4950438	68.45702184
0.68	68	-0.041	-0.769	0.045	-21.8869956	-43.3729206	6.302538	91.48993344	-3.53515086	68.02157376
0.69	69	-0.153	-0.775	0.06	-20.340009	-41.0237928	5.6149884	91.31231646	-3.56952834	67.61477358
0.7	70	-0.2	-0.822	0.074	-19.2513888	-33.1742682	4.8128472	91.1576178	-3.62109456	67.27672836
0.71	71	-0.19	-0.896	0.078	-17.7044022	-22.631841	3.3231564	90.99145998	-3.64401288	67.04754516
0.72	72	-0.134	-0.954	0.078	-14.7823164	-11.6883432	1.0886202	90.85395006	-3.65547204	66.92722398
0.73	73	-0.06	-0.97	0.077	-11.4018642	-2.6929026	-0.3437748	90.73935846	-3.64974246	66.90430566
0.74	74	-0.011	-0.968	0.091	-7.0473834	2.5210152	-0.1718874	90.66487392	-3.64974246	66.92722398
0.75	75	0.016	-0.966	0.108	-2.86479	5.3858052	1.6615782	90.7278993	-3.61536498	66.92722398
0.76	76	0.027	-0.943	0.116	-0.0572958	6.5317212	4.2398892	90.72216972	-3.66120162	66.99024936
0.77	77	0.024	-0.923	0.123	2.6356068	6.0733548	6.875496	90.74508804	-3.72995658	67.04754516
0.78	78	0.016	-0.903	0.117	4.2398892	4.4117766	8.1360036	90.7851951	-3.8101707	67.0933818
0.79	79	0.014	-0.903	0.106	4.5263682	1.8907614	8.4224826	90.83103174	-3.8961144	67.11057054
0.8	80	0.002	-0.925	0.11	5.0420304	-0.4010706	8.4224826	90.94562334	-3.9534102	67.07046348
0.81	81	-0.011	-0.951	0.109	5.6149884	-1.7761698	8.5370742	91.00291914	-4.0393539	67.05327474
0.82	82	-0.017	-0.956	0.106	5.8441716	-3.2658606	8.4224826	91.06594452	-4.11956802	67.01889726
0.83	83	-0.017	-0.947	0.103	6.589017	-5.2139178	8.3651868	91.14042906	-4.19978214	66.96733104
0.84	84	-0.019	-0.93	0.107	7.161975	-7.2192708	8.3651868	91.22064318	-4.27999626	66.8928465
0.85	85	-0.027	-0.912	0.111	7.3338624	-8.1932994	7.9641162	91.34096436	-4.34302164	66.78971406
0.86	86	-0.042	-0.907	0.107	7.0473834	-7.5057498	7.6203414	91.4154489	-4.4117766	66.71522952
0.87	87	-0.054	-0.909	0.103	6.8182002	-6.302538	7.5630456	91.49566302	-4.48626114	66.65220414
0.88	88	-0.062	-0.908	0.11	7.2765666	-5.0420304	7.5630456	91.57014756	-4.56074568	66.60063792
0.89	89	-0.056	-0.91	0.112	7.161975	-5.2139178	7.6776372	91.65036168	-4.62950064	66.54334212
0.9	90	-0.05	-0.91	0.117	7.1046792	-6.7036086	7.9641162	91.77068286	-4.6982556	66.45739842
0.91	91	-0.044	-0.921	0.127	7.2765666	-8.5370742	8.4224826	91.85089698	-4.77846972	66.36572514
0.92	92	-0.04	-0.933	0.135	7.3911582	-10.5424272	8.8235532	91.93684068	-4.85868384	66.2625927
0.93	93	-0.045	-0.937	0.141	7.2765666	-13.1207382	8.7662574	92.02278438	-4.93316838	66.13081236
0.94	94	-0.052	-0.933	0.158	7.9641162	-15.183387	8.2505952	92.12018724	-5.00765292	65.9761137
0.95	95	-0.065	-0.93	0.176	8.4797784	-16.1001198	7.5630456	92.2748859	-5.0706783	65.78703756
0.96	96	-0.084	-0.923	0.19	8.4797784	-16.2720072	7.161975	92.37801834	-5.1279741	65.62087974
0.97	97	-0.094	-0.922	0.209	8.7089616	-15.4125702	7.0473834	92.48115078	-5.1852699	65.46618108
0.98	98	-0.099	-0.917	0.223	9.1100322	-14.1520626	7.2765666	92.5900128	-5.24829528	65.32294158
0.99	99	-0.099	-0.913	0.234	9.1100322	-13.5791046	7.1046792	92.69887482	-5.31132066	65.18543166
1	100	-0.102	-0.908	0.257	8.7089616	-12.4331886	6.1306506	92.89941012	-5.36288688	65.0020851
1.01	101	-0.103	-0.91	0.259	7.9641162	-11.172681	4.9847346	92.99681298	-5.40299394	64.8874935
1.02	102	-0.11	-0.918	0.26	7.734933	-10.4851314	3.8388186	93.08275668	-5.43164184	64.78436106
1.03	103	-0.119	-0.924	0.269	7.9641162	-9.3965112	2.4064236	93.17442996	-5.44883058	64.69268778
1.04	104	-0.133	-0.936	0.284	8.2505952	-7.2192708	0.8021412	93.26610324	-5.44883058	64.61820324
1.05	105	-0.147	-0.948	0.31	8.880849	-3.7815228	-0.8021412	93.61560762	-5.46601932	64.44058626
1.06	106	-0.157	-0.955	0.342	9.0527364	1.3750992	-2.6929026	93.7072809	-5.43737142	64.45204542
1.07	107	-0.166	-0.955	0.361	9.3392154	8.021412	-4.583664	93.7932246	-5.40299394	64.53798912
1.08	108	-0.169	-0.956	0.335	8.7089616	13.9228794	-6.7609044	93.86770914	-5.34569814	64.68122862
1.09	109	-0.161	-0.965	0.292	6.875496	19.8816426	-8.7089616	93.91354578	-5.27694318	64.8874935
1.1	110	-0.151	-0.984	0.256	4.1252976	24.4653066	-10.1986524	93.98230074	-5.20818822	65.10521754
1.11	111	-0.121	-0.979	0.235	1.3750992	27.6738714	-10.313244	93.97084158	-5.13370368	65.38596696
1.12	112	-0.089	-0.953	0.236	3.0939732	28.8770832	-11.0580894	93.97084158	-5.04775998	65.67817554
1.13	113	-0.074	-0.927	0.247	8.59437	26.929026	-11.745639	94.02813738	-4.9560867	65.95892496
1.14	114	-0.072	-0.917	0.273	14.037471	24.4080108	-12.1467096	94.14845856	-4.85868384	66.21102648
1.15	115	-0.07	-0.932	0.3	18.6784308	23.6631654	-11.9748222	94.3661826	-4.76128098	66.42302094
1.16	116	-0.075	-0.97	0.318	23.1475032	23.7204612	-11.1153852	94.57817706	-4.67533728	66.66939288
1.17	117	-0.09	-1.008	0.354	28.9916748	23.8350528	-10.026765	94.84746732	-4.60085274	66.91576482
1.18	118	-0.111	-1.029	0.409	32.658606	26.4706596	-8.880849	95.15686464	-4.53782736	67.19078466
1.19	119	-0.113	-1.037	0.442	31.7418732	33.0596766	-7.2192708	95.44907322	-4.50344988	67.5231003
1.2	120	-0.07	-1.069	0.394	29.220858	45.0917946	-4.9847346	95.72982264	-4.50344988	67.96427796
1.21	121	0.051	-1.255	0.247	26.1268848	54.8893764	-0.9740286	95.9418171	-4.56647526	68.50858806
1.22	122	0.223	-1.586	0.084	17.761698	50.706783	8.021412	96.07932702	-4.70971476	69.00133194
1.23	123	0.281	-1.881	-0.108	11.0580894	30.9970278	22.2880662	96.16527072	-4.96754586	69.28208136
1.24	124	0.179	-1.861	-0.038	17.1314442	10.599723	31.9710564	96.33142854	-5.2998615	69.35083632
1.25	125	0.082	-1.593	0.025	26.5279554	-2.9220858	28.934379	96.59498922	-5.56915176	69.2992701
1.26	126	-0.107	-1.271	0.033	31.2835068	-5.0993262	19.4232762	96.92157528	-5.75249832	69.23051514
1.27	127	-0.237	-1.069	0.033	22.8037284	6.0733548	9.0527364	97.1450289	-5.84990118	69.28208136
1.28	128	-0.293	-0.937	0.037	8.8235532	19.5951636	1.3178034	97.21378386	-5.89000824	69.4711575
1.29	129	-0.319	-0.868	0.016	-1.0313244	34.2628884	-2.86479	97.16221764	-5.91865614	69.8149323
1.3	130	-0.301	-0.831	0.025	-5.3858052	47.3836266	-6.1879464	97.03616688	-5.94730404	70.29621702
1.31	131	-0.233	-0.838	0.059	-6.1879464	52.712136	-8.9381448	96.9158457	-5.93584488	70.82333838
1.32	132	-0.105	-0.836	0.083	-5.72958	52.9413192	-10.313244	96.78979494	-5.91292656	71.35618932
1.33	133	0.036	-0.878	0.086	-3.5523396	49.274388	-10.6570188	96.69812166	-5.87854908	71.85466278
1.34	134	0.142	-0.896	0.082	-2.291832	43.0291458	-9.453807	96.62363712	-5.84990118	72.29011086
1.35	135	0.188	-0.893	0.097	-0.9740286	34.3201842	-6.6463128	96.56061174	-5.76968706	72.64534482
1.36	136	0.188	-0.869	0.099	-0.1145916	23.777757	-4.4117766	96.53196384	-5.7582279	72.88598718
1.37	137	0.16	-0.835	0.094	1.0313244	14.5531332	-2.291832	96.52623426	-5.7582279	73.02922668
1.38	138	0.112	-0.829	0.092	3.0939732	6.302538	-0.9167328	96.54915258	-5.7582279	73.09225206
1.39	139	0.066	-0.84	0.104	5.0420304	-0.1718874	-0.6875496	96.6007188	-5.74676874	73.09225206
1.4	140	0.024	-0.866	0.113	5.6722842	-5.0993262	-1.3178034	96.65228502	-5.68947294	73.052145
1.41	141	0.015	-0.893	0.115	5.156622	-8.1932994	-2.4064236	96.7153104	-5.65509546	72.97766046
1.42	142	0.042	-0.948	0.118	4.4690724	-9.6829902	-3.151269	96.7726062	-5.60925882	72.88598718
1.43	143	0.065	-0.995	0.113	2.7501984	-11.3445684	-3.8388186	96.81271326	-5.5576926	72.77712516
1.44	144	0.077	-1.019	0.11	1.145916	-13.5218088	-3.6096354	96.83563158	-5.5003968	72.6510744
1.45	145	0.075	-1.019	0.101	0.0572958	-14.6677248	-3.3804522	96.81271326	-5.37434604	72.5364828
1.46	146	0.061	-1.004	0.097	-0.5156622	-15.6417534	-3.0939732	96.82417242	-5.31705024	72.38178414
1.47	147	0.045	-0.985	0.097	-1.432395	-16.6730778	-2.9220858	96.829902	-5.26548402	72.2213559
1.48	148	0.037	-0.967	0.128	-2.1772404	-18.1054728	-3.437748	96.82417242	-5.20245864	72.0494685
1.49	149	0.031	-0.959	0.149	-3.2658606	-20.5691922	-4.583664	96.81271326	-5.1279741	71.85466278
1.5	150	0.02	-0.941	0.154	-4.010706	-21.5432208	-5.5576926	96.79552452	-5.01911208	71.64266832
1.51	151	0.009	-0.949	0.167	-3.151269	-20.2254174	-6.5317212	96.78406536	-4.9274388	71.45359218
1.52	152	0.004	-0.954	0.195	-2.578311	-19.2513888	-7.6203414	96.77833578	-4.82430636	71.27024562
1.53	153	0.007	-0.949	0.215	-2.0626488	-18.2200644	-7.6776372	96.7726062	-4.72117392	71.1040878
1.54	154	0.023	-0.948	0.228	-1.2032118	-16.8449652	-7.3338624	96.7726062	-4.62377106	70.94365956
1.55	155	0.035	-0.948	0.239	-0.7448454	-16.2720072	-6.7036086	96.84136116	-4.4977203	70.76604258
1.56	156	0.052	-0.942	0.25	-0.572958	-16.5011904	-5.6149884	96.84709074	-4.41750618	70.60561434
1.57	157	0.066	-0.93	0.253	-1.432395	-16.7303736	-4.0680018	96.84709074	-4.34875122	70.45091568
1.58	158	0.069	-0.928	0.253	-1.432395	-17.4179232	-2.2345362	96.84709074	-4.30291458	70.27902828
1.59	159	0.07	-0.921	0.262	-1.2032118	-19.3086846	-0.572958	96.85282032	-4.2685371	70.08995214
1.6	160	0.066	-0.913	0.275	-0.3437748	-22.1734746	1.3750992	96.9444936	-4.2112413	69.83212104
1.61	161	0.058	-0.903	0.286	0.286479	-25.7258142	3.2658606	96.96741192	-4.20551172	69.57428994
1.62	162	0.051	-0.894	0.299	0.9740286	-28.361421	5.0993262	97.0017894	-4.21697088	69.29354052
1.63	163	0.046	-0.89	0.319	1.6042824	-30.8251404	6.7609044	97.04762604	-4.23415962	68.97841362
1.64	164	0.041	-0.884	0.342	2.1199446	-32.8304934	8.2505952	97.09919226	-4.2685371	68.65182756
1.65	165	0.038	-0.879	0.353	2.4064236	-34.0337052	9.9694692	97.21951344	-4.297185	68.2679457
1.66	166	0.034	-0.883	0.342	2.0626488	-33.1742682	11.172681	97.27107966	-4.3544808	67.92990048
1.67	167	0.03	-0.878	0.319	0.9167328	-31.3408026	12.5477802	97.31118672	-4.43469492	67.60331442
1.68	168	0.028	-0.864	0.306	0.6875496	-28.8770832	13.464513	97.3455642	-4.52063862	67.30537626
1.69	169	0.023	-0.854	0.3	2.291832	-25.9549974	13.750992	97.39713042	-4.61804148	67.03035642
1.7	170	0.02	-0.845	0.308	5.3285094	-24.0069402	13.0634424	97.52891076	-4.69252602	66.749607
1.71	171	0.018	-0.85	0.322	9.167328	-22.1161788	11.3445684	97.64350236	-4.76701056	66.5204238
1.72	172	0.033	-0.869	0.334	13.1207382	-18.8503182	9.3965112	97.79820102	-4.83003594	66.32561808
1.73	173	0.045	-0.869	0.373	17.0741484	-20.8556712	7.448454	97.99300674	-4.870143	66.11362362
1.74	174	0.05	-0.862	0.423	21.0848544	-26.356068	6.5317212	98.2336491	-4.88733174	65.84433336
1.75	175	0.027	-0.882	0.458	25.9549974	-29.3927454	5.443101	98.59461264	-4.87587258	65.5177473
1.76	176	-0.004	-0.939	0.477	30.366774	-30.653253	3.5523396	98.93265786	-4.85295426	65.21407956
1.77	177	-0.029	-1.007	0.488	33.0596766	-29.507337	1.2605076	99.2936214	-4.8128472	64.93333014
1.78	178	-0.041	-1.074	0.509	35.8671708	-26.4706596	-1.0886202	99.68323284	-4.74982182	64.68122862
1.79	179	-0.077	-1.196	0.423	29.2781538	-26.929026	-2.8074942	100.0040893	-4.66387812	64.42339752
1.8	180	-0.168	-1.368	0.27	14.0947668	-32.945085	-4.297185	100.1759767	-4.56074568	64.1140002
1.81	181	-0.241	-1.543	0.115	2.9220858	-32.7731976	-7.2192708	100.2332725	-4.42323576	63.81033246
1.82	182	-0.299	-1.623	0.031	0.1145916	-31.1689152	-11.1153852	100.2619204	-4.25134836	63.52958304
1.83	183	-0.282	-1.672	0.049	11.9175264	-26.0122932	-18.2200644	100.3994303	-4.01643558	63.311859
1.84	184	-0.108	-1.609	-0.011	13.0634424	-18.5638392	-22.5172494	100.5483994	-3.75860448	63.17434908
1.85	185	0.147	-1.336	-0.003	18.1627686	-30.8824362	-17.6471064	100.731746	-3.50650296	62.91651798
1.86	186	0.329	-1.188	0.045	21.0848544	-50.3630082	-10.026765	100.9781179	-3.2945085	62.452422
1.87	187	0.414	-1.006	0.038	13.2926256	-65.7182826	-3.6669312	101.1557349	-3.11689152	61.82789778
1.88	188	0.416	-0.821	0.065	6.0733548	-76.6044846	0.1718874	101.2703265	-2.9507337	61.08878196
1.89	189	0.351	-0.72	0.114	0	-84.1675302	1.2605076	101.3218927	-2.7788463	60.2751816
1.9	190	0.209	-0.713	0.132	-3.437748	-84.6258966	-0.7448454	101.3333519	-2.56685184	59.46158124
1.91	191	0.046	-0.744	0.148	-4.0680018	-79.2400914	-2.6929026	101.3333519	-2.36631654	58.6995471
1.92	192	-0.124	-0.802	0.183	-3.8961144	-67.036086	-2.005353	101.3276223	-2.20015872	58.05783414
1.93	193	-0.269	-0.909	0.167	-3.5523396	-45.7793442	-1.6042824	101.3161631	-2.08556712	57.61665648
1.94	194	-0.354	-0.975	0.143	-2.6356068	-21.772404	-0.4583664	101.2989744	-2.02827132	57.4103916
1.95	195	-0.383	-1.022	0.166	0.8021412	1.432395	-0.0572958	101.2531378	-2.18296998	57.45622824
1.96	196	-0.321	-1.018	0.161	3.3231564	20.340009	-0.2291832	101.2760561	-2.22307704	57.65676354
1.97	197	-0.196	-0.984	0.16	7.2192708	34.7212548	0.286479	101.3333519	-2.30329116	57.98907918
1.98	198	-0.054	-0.945	0.17	11.0580894	38.5600734	0.4583664	101.4250252	-2.39496444	58.36150188
1.99	199	0.035	-0.954	0.194	14.0947668	37.6433406	0.7448454	101.5510759	-2.48663772	58.72246542
2	200	0.088	-0.953	0.213	15.3552744	34.0337052	3.0939732	101.6885858	-2.56685184	59.04905148
2.01	201	0.113	-0.955	0.225	16.5584862	28.7051958	5.443101	101.8375549	-2.68717302	59.31261216
2.02	202	0.103	-0.962	0.235	17.6471064	22.4599536	7.7922288	102.0037127	-2.81322378	59.51887704
2.03	203	0.075	-0.956	0.233	18.334656	15.9282324	8.880849	102.1813297	-2.93354496	59.65638696
2.04	204	0.022	-0.948	0.25	17.761698	10.886202	8.6516658	102.3589467	-3.04240698	59.74233066
2.05	205	-0.026	-0.948	0.27	16.3865988	6.7609044	7.0473834	102.5422933	-3.1226211	59.78243772
2.06	206	-0.068	-0.944	0.276	14.037471	5.5003968	5.7868758	102.6855328	-3.19137606	59.82827436
2.07	207	-0.096	-0.948	0.272	12.0894138	5.9014674	4.6982556	102.8058539	-3.25440144	59.874111
2.08	208	-0.115	-0.959	0.275	10.313244	7.734933	4.1252976	102.9032568	-3.31169724	59.94286596
2.09	209	-0.125	-0.962	0.289	8.5370742	10.313244	4.010706	102.9834709	-3.37472262	60.02880966
2.1	210	-0.123	-0.96	0.302	6.6463128	12.2613012	4.010706	103.0808738	-3.46066632	60.12621252
2.11	211	-0.12	-0.964	0.311	5.0993262	12.7196676	4.010706	103.1209808	-3.53515086	60.23507454
2.12	212	-0.118	-0.972	0.33	4.2398892	13.0634424	3.0939732	103.1553583	-3.59817624	60.35539572
2.13	213	-0.101	-0.977	0.337	2.7501984	14.8396122	1.3178034	103.1725471	-3.64974246	60.49863522
2.14	214	-0.085	-0.968	0.348	1.7761698	16.042824	-0.5156622	103.1782766	-3.68411994	60.65333388
2.15	215	-0.08	-0.955	0.371	0.6875496	17.5325148	-2.4064236	103.2642203	-3.70703826	60.77938464
2.16	216	-0.091	-0.941	0.378	0.4583664	19.7097552	-4.2398892	103.2527612	-3.71849742	60.97991994
2.17	217	-0.073	-0.933	0.372	-1.8907614	23.7204612	-6.1879464	103.2183837	-3.71849742	61.2205623
2.18	218	-0.082	-0.905	0.396	-1.2605076	25.3820394	-7.2192708	103.1840062	-3.71276784	61.4783934
2.19	219	-0.084	-0.888	0.406	-1.432395	25.8404058	-8.5370742	103.1496287	-3.6955791	61.74768366
2.2	220	-0.092	-0.859	0.404	-2.2345362	26.929026	-10.7143146	103.1668175	-3.6669312	61.99978518
2.21	221	-0.098	-0.843	0.401	-3.3804522	31.9137606	-12.7196676	103.1037921	-3.62109456	62.33210082
2.22	222	-0.095	-0.829	0.391	-3.9534102	36.2109456	-14.1520626	103.0350371	-3.57525792	62.7102531
2.23	223	-0.083	-0.811	0.4	-4.1825934	39.247623	-15.2406828	102.9605526	-3.5236917	63.12278286
2.24	224	-0.057	-0.801	0.41	-2.578311	41.3102718	-16.042824	102.9032568	-3.47212548	63.55250136
2.25	225	-0.027	-0.798	0.379	-1.4896908	41.5967508	-16.3865988	102.8917976	-3.4091001	63.9707607
2.26	226	-0.004	-0.792	0.339	-0.572958	40.680018	-16.6730778	102.8574202	-3.3518043	64.4004792
2.27	227	0.006	-0.796	0.321	1.432395	39.1903272	-16.5584862	102.8402314	-3.28877892	64.81300896
2.28	228	0.011	-0.793	0.334	3.724227	37.5860448	-16.4438946	102.8516906	-3.22002396	65.20834998
2.29	229	-0.001	-0.786	0.345	7.5057498	35.0650296	-16.4438946	102.9032568	-3.14553942	65.58650226
2.3	230	-0.034	-0.796	0.373	11.0580894	34.7785506	-16.1001198	103.0293076	-3.07678446	65.93600664
2.31	231	-0.065	-0.825	0.402	15.0687954	35.6379876	-14.32395	103.1610879	-3.02521824	66.31415892
2.32	232	-0.081	-0.87	0.411	18.5638392	35.8671708	-11.172681	103.3215161	-3.0080295	66.68658162
2.33	233	-0.081	-0.916	0.407	21.4286292	35.0650296	-7.6203414	103.5163219	-3.02521824	67.04181558
2.34	234	-0.057	-0.949	0.411	23.8350528	34.5493674	-4.9847346	103.7340459	-3.0653253	67.38559038
2.35	235	-0.011	-0.981	0.44	27.3873924	28.8197874	-2.578311	104.0319841	-3.10543236	67.65488064
2.36	236	0.035	-1.09	0.414	29.220858	17.5898106	0.4583664	104.3184631	-3.151269	67.82103846
2.37	237	0.09	-1.297	0.296	15.5844576	13.3499214	1.432395	104.4674321	-3.20283522	67.94708922
2.38	238	0.171	-1.487	0.191	-9.7975818	21.3140376	2.1199446	104.3528405	-3.28304934	68.14762452
2.39	239	0.271	-1.608	0.05	-26.9863218	37.3568616	6.9327918	104.0549024	-3.44920716	68.47994016
2.4	240	0.342	-1.636	-0.065	-11.1153852	57.2958	12.4904844	103.8887446	-3.71849742	69.00133194
2.41	241	0.243	-1.667	-0.052	16.042824	65.0880288	13.9228794	104.0033362	-4.02216516	69.59147868
2.42	242	0.011	-1.563	-0.015	22.9756158	62.6243094	13.5791046	104.1866827	-4.32010332	70.1587071
2.43	243	-0.194	-1.319	0.049	23.2620948	61.8221682	11.6883432	104.3700293	-4.60085274	70.72593552
2.44	244	-0.375	-1.108	0.169	25.78311	64.6869582	5.0993262	104.5762942	-4.82430636	71.32754142
2.45	245	-0.427	-1	0.201	15.469866	68.2965936	-3.2085648	104.6565083	-5.0133825	71.99790228
2.46	246	-0.318	-0.957	0.174	-0.6875496	72.3645954	-8.8235532	104.5762942	-5.1279741	72.7083702
2.47	247	-0.129	-0.961	0.114	-14.4958374	76.6617804	-12.891555	104.3528405	-5.2139178	73.47040434
2.48	248	0.035	-0.992	0.055	-23.204799	73.9688778	-14.9542038	104.0377136	-5.26548402	74.20952016
2.49	249	0.156	-0.996	0.03	-28.8197874	65.5463952	-14.1520626	103.6767501	-5.30559108	74.86842186
2.5	250	0.228	-0.987	0.025	-32.2002396	52.8267276	-10.886202	103.2527612	-5.2998615	75.41846154
2.51	251	0.253	-0.961	0.032	-32.1429438	39.6486936	-7.3911582	102.8860681	-5.33423898	75.81380256
2.52	252	0.25	-0.932	0.056	-28.5906042	27.215505	-4.8128472	102.5652116	-5.35142772	76.08309282
2.53	253	0.231	-0.905	0.049	-23.3193906	9.5683986	-2.578311	102.3188396	-5.35142772	76.1747661
2.54	254	0.194	-0.894	0.04	-19.8816426	-5.5576926	-1.6615782	102.1240339	-5.32277982	76.12319988
2.55	255	0.164	-0.907	0.038	-16.5584862	-18.7357266	-1.718874	101.9063099	-5.20818822	75.97996038
2.56	256	0.139	-0.939	0.053	-12.9488508	-29.7365202	-1.5469866	101.8031774	-5.12224452	75.69348138
2.57	257	0.121	-0.957	0.068	-12.6623718	-38.2162986	-0.5156622	101.7172337	-5.03057124	75.32678826
2.58	258	0.108	-0.969	0.077	-11.745639	-43.4875122	0.9740286	101.6370196	-4.94462754	74.90279934
2.59	259	0.093	-0.982	0.08	-10.313244	-46.5814854	2.6929026	101.5797238	-4.86441342	74.44443294
2.6	260	0.071	-0.987	0.097	-6.016059	-48.414951	4.5263682	101.5338872	-4.77274014	73.98606654
2.61	261	0.031	-0.984	0.13	-1.145916	-46.7533728	4.6409598	101.5625351	-4.71544434	73.52197056
2.62	262	-0.014	-0.971	0.177	3.437748	-43.2010332	4.583664	101.6427492	-4.66387812	73.09798164
2.63	263	-0.044	-0.96	0.235	7.3911582	-40.2216516	4.8128472	101.7516112	-4.61804148	72.69691104
2.64	264	-0.063	-0.946	0.279	9.3965112	-37.9298196	4.2398892	101.8833916	-4.57220484	72.32448834
2.65	265	-0.056	-0.937	0.3	9.3965112	-32.1429438	3.5523396	102.0380902	-4.5263682	71.99790228
2.66	266	-0.043	-0.937	0.307	7.9068204	-26.5852512	3.2658606	102.1412227	-4.49199072	71.7343416
2.67	267	-0.027	-0.943	0.326	6.7036086	-22.2307704	3.3804522	102.2328959	-4.47480198	71.51088798
2.68	268	-0.013	-0.944	0.327	4.6982556	-17.18874	4.1825934	102.2959213	-4.47480198	71.33900058
2.69	269	-0.008	-0.948	0.327	1.432395	-10.886202	5.5576926	102.3188396	-4.50344988	71.2186794
2.7	270	-0.002	-0.944	0.332	-0.286479	-8.0787078	6.6463128	102.4219721	-4.4977203	71.08116948
2.71	271	0.005	-0.937	0.335	-0.9740286	-7.161975	7.6776372	102.4219721	-4.5550161	70.99522578
2.72	272	0.005	-0.938	0.334	-1.3750992	-7.9641162	8.5370742	102.4162425	-4.62377106	70.9035525
2.73	273	0.008	-0.942	0.33	-2.291832	-10.1413566	9.3392154	102.4047833	-4.68679644	70.78323132
2.74	274	0.012	-0.947	0.32	-3.2658606	-13.0634424	10.0840608	102.381865	-4.7555514	70.63426224
2.75	275	0.009	-0.95	0.314	-3.8961144	-15.756345	11.0007936	102.3990538	-4.80138804	70.4451861
2.76	276	0.001	-0.958	0.32	-4.4117766	-18.334656	12.2040054	102.3704059	-4.87587258	70.23892122
2.77	277	-0.006	-0.963	0.318	-4.5263682	-21.485925	13.5791046	102.3474875	-4.9560867	70.00400844
2.78	278	-0.018	-0.966	0.308	-4.2398892	-23.6631654	14.4385416	102.3302988	-5.03630082	69.74044776
2.79	279	-0.03	-0.965	0.298	-4.010706	-25.7258142	15.1260912	102.3188396	-5.1279741	69.45969834
2.8	280	-0.031	-0.965	0.3	-3.6096354	-27.788463	15.8136408	102.3360284	-5.20245864	69.14457144
2.81	281	-0.021	-0.965	0.304	-3.3804522	-29.3927454	16.3865988	102.3360284	-5.28840234	68.82944454
2.82	282	-0.008	-0.963	0.306	-3.8388186	-30.939732	16.9595568	102.3302988	-5.38007562	68.49139932
2.83	283	0	-0.963	0.306	-4.297185	-33.1742682	17.3606274	102.3245692	-5.4717489	68.13616536
2.84	284	-0.002	-0.962	0.301	-4.8128472	-35.1223254	17.475219	102.3188396	-5.5576926	67.75801308
2.85	285	-0.02	-0.952	0.298	-3.9534102	-35.809875	17.2460358	102.3360284	-5.62644756	67.36840164
2.86	286	-0.033	-0.947	0.297	-2.9220858	-34.37748	17.0741484	102.3474875	-5.71239126	66.99597894
2.87	287	-0.04	-0.939	0.293	-2.291832	-32.1429438	16.8449652	102.3646763	-5.79833496	66.64647456
2.88	288	-0.037	-0.924	0.294	-1.8907614	-30.653253	16.7303736	102.381865	-5.89000824	66.31415892
2.89	289	-0.033	-0.906	0.31	-1.2032118	-29.4500412	16.7876694	102.4105129	-5.98168152	65.99330244
2.9	290	-0.028	-0.889	0.339	-0.4583664	-27.3873924	16.9595568	102.4792679	-6.06189564	65.67244596
2.91	291	-0.016	-0.863	0.339	0	-24.923673	17.2460358	102.5136454	-6.17075766	65.39169654
2.92	292	0.004	-0.832	0.337	0.286479	-24.064236	17.6471064	102.5537524	-6.28534926	65.12240628
2.93	293	0.024	-0.795	0.346	1.0886202	-24.637194	17.6471064	102.5938595	-6.39421128	64.84738644
2.94	294	0.035	-0.77	0.365	2.1199446	-25.496631	17.8189938	102.6568849	-6.5030733	64.56090744
2.95	295	0.046	-0.752	0.379	2.6929026	-26.069589	18.334656	102.7714765	-6.59474658	64.24005096
2.96	296	0.058	-0.74	0.374	3.0366774	-27.0436176	19.194093	102.8402314	-6.71506776	63.9421128
2.97	297	0.067	-0.723	0.365	4.297185	-29.3927454	20.8556712	102.9261751	-6.84111852	63.60979716
2.98	298	0.058	-0.706	0.361	6.1306506	-35.2942128	22.4599536	103.0407667	-6.97289886	63.22018572
2.99	299	0.05	-0.689	0.353	9.8548776	-38.5600734	22.8610242	103.201195	-7.09322004	62.7961968
3	300	0.022	-0.699	0.337	12.032118	-41.4248634	23.5485738	103.4074598	-7.20208206	62.33210082
3.01	301	0	-0.707	0.326	12.2613012	-44.0031744	25.78311	103.6022656	-7.33959198	61.84508652
3.02	302	-0.041	-0.705	0.394	12.891555	-49.2170922	28.1895336	103.8085304	-7.48283148	61.306506
3.03	303	-0.09	-0.764	0.466	12.7196676	-49.7900502	28.074942	104.0205249	-7.6203414	60.7621959
3.04	304	-0.138	-0.897	0.379	5.6722842	-41.7686382	25.3820394	104.1465757	-7.75212174	60.29809992
3.05	305	-0.299	-1.135	0.27	-14.896908	-42.2270046	21.772404	104.0549024	-7.86098376	59.83973352
3.06	306	-0.559	-1.468	0.189	-42.0551172	-51.3370368	15.5271618	103.705398	-7.8781725	59.301153
3.07	307	-0.759	-1.922	-0.078	-68.4111852	-43.3156248	1.9480572	103.0808738	-7.78649922	58.8714345
3.08	308	-0.653	-2.247	-0.557	-64.2858876	-3.3231564	-15.0687954	102.4277017	-7.63753014	58.86570492
3.09	309	-0.198	-1.881	-0.308	-11.5164558	2.6356068	-9.8548776	102.3016509	-7.54585686	58.91154156
3.1	310	0.248	-1.574	0.099	2.005353	-18.6784308	7.161975	102.3474875	-7.55731602	58.71673584
3.11	311	0.5	-1.329	0.119	-4.7555514	-42.112413	20.4546006	102.3646763	-7.65471888	58.26409902
3.12	312	0.543	-1.167	0.076	-10.886202	-69.6716928	28.4187168	102.3589467	-7.7635809	57.5249832
3.13	313	0.488	-1.038	0.097	-13.5791046	-88.9803774	33.1742682	102.3646763	-7.87244292	56.59106166
3.14	314	0.337	-0.931	0.107	-18.3919518	-101.0124954	32.0283522	102.3360284	-7.94692746	55.54254852
3.15	315	0.14	-0.883	0.145	-23.7204612	-111.3830352	28.8770832	102.2672734	-7.95265704	54.39663252
3.16	316	-0.08	-0.919	0.188	-27.9030546	-115.8521076	27.6165756	102.164141	-7.94692746	53.21060946
3.17	317	-0.227	-0.945	0.204	-27.8457588	-112.7008386	28.4760126	102.055279	-7.9641162	52.0532343
3.18	318	-0.294	-0.953	0.202	-26.2414764	-103.2470316	29.4500412	101.9521465	-8.00995284	50.98180284
3.19	319	-0.286	-0.917	0.181	-24.4080108	-91.2149136	29.9657034	101.8490141	-8.09016696	50.03069256
3.2	320	-0.256	-0.883	0.176	-22.8610242	-79.068204	29.6219286	101.7401521	-8.21048814	49.20563304
3.21	321	-0.221	-0.87	0.153	-21.8296998	-69.5571012	29.1062664	101.63129	-8.3365389	48.46651722
3.22	322	-0.187	-0.889	0.129	-21.7151082	-63.598338	28.4760126	101.522428	-8.46831924	47.7846972
3.23	323	-0.165	-0.912	0.104	-21.3713334	-60.6189564	27.8457588	101.4078364	-8.60582916	47.13725466
3.24	324	-0.173	-0.931	0.074	-21.7151082	-59.014674	27.6165756	101.2932448	-8.74906866	46.50127128
3.25	325	-0.192	-0.931	0.062	-22.058883	-57.009321	27.5592798	101.1500053	-8.89803774	45.89966538
3.26	326	-0.208	-0.927	0.052	-21.9442914	-55.8061092	26.7571386	101.0296841	-9.04127724	45.29805948
3.27	327	-0.205	-0.922	0.086	-22.058883	-55.9779966	25.1528562	100.9036334	-9.167328	44.70218316
3.28	328	-0.185	-0.914	0.108	-22.1161788	-57.582279	23.8923486	100.7890418	-9.27619002	44.0891181
3.29	329	-0.167	-0.919	0.122	-21.3713334	-59.587632	22.1161788	100.6801798	-9.3678633	43.4588643
3.3	330	-0.154	-0.939	0.132	-20.6837838	-58.2698286	20.1681216	100.5713177	-9.44807742	42.85152882
3.31	331	-0.144	-0.96	0.141	-19.3086846	-55.2331512	18.5638392	100.4739149	-9.5111028	42.27284124
3.32	332	-0.141	-0.972	0.148	-18.048177	-52.998615	17.18874	100.3937008	-9.57412818	41.71707198
3.33	333	-0.145	-0.981	0.143	-16.5584862	-51.5089242	15.2979786	100.3192162	-9.61996482	41.18422104
3.34	334	-0.145	-0.984	0.141	-14.9542038	-49.7327544	13.6936962	100.2619204	-9.6543423	40.66855884
3.35	335	-0.147	-0.979	0.141	-13.2353298	-47.8992888	12.318597	100.2046246	-9.67153104	40.18154454
3.36	336	-0.143	-0.977	0.133	-12.2040054	-46.409598	11.1153852	100.1702471	-9.68871978	39.70025982
3.37	337	-0.136	-0.981	0.123	-11.45916	-45.1490904	10.4851314	100.1358697	-9.70017894	39.23616384
3.38	338	-0.131	-0.978	0.12	-10.7716104	-44.7480198	10.313244	100.1129513	-9.7116381	38.77779744
3.39	339	-0.132	-0.971	0.149	-9.9121734	-46.1804148	10.1986524	100.0957626	-9.72309726	38.3022423
3.4	340	-0.142	-0.97	0.126	-9.7975818	-48.3003594	10.2559482	100.0728443	-9.72309726	37.815228
3.41	341	-0.15	-0.976	0.112	-9.7975818	-51.2224452	10.7716104	100.0671147	-9.72882684	37.29383622
3.42	342	-0.162	-0.976	0.112	-9.0527364	-54.4883058	11.5164558	100.0785739	-9.73455642	36.73806696
3.43	343	-0.168	-0.946	0.137	-8.5370742	-56.3217714	11.1153852	100.0957626	-9.72882684	36.15937938
3.44	344	-0.165	-0.935	0.136	-8.1360036	-56.0925882	10.4278356	100.1186809	-9.72309726	35.59215096
3.45	345	-0.167	-0.954	0.127	-7.734933	-56.7801378	10.2559482	100.1301401	-9.7116381	35.01919296
3.46	346	-0.181	-0.977	0.145	-6.9327918	-57.582279	10.886202	100.1645176	-9.70017894	34.4347758
3.47	347	-0.19	-0.98	0.149	-6.5317212	-56.9520252	11.6883432	100.2046246	-9.70017894	33.85035864
3.48	348	-0.188	-0.981	0.126	-5.9587632	-56.4936588	12.2613012	100.2504613	-9.70590852	33.27740064
3.49	349	-0.188	-0.981	0.125	-5.443101	-56.2071798	12.4331886	100.3020275	-9.7116381	32.69871306
3.5	350	-0.192	-0.966	0.15	-5.5003968	-54.6028974	12.032118	100.336405	-9.72309726	32.14867338
3.51	351	-0.199	-0.952	0.155	-5.5576926	-54.717489	11.3445684	100.3822416	-9.72309726	31.58717454
3.52	352	-0.197	-0.953	0.149	-5.3858052	-55.4623344	10.4278356	100.4280782	-9.7116381	31.0256757
3.53	353	-0.195	-0.972	0.151	-5.2712136	-54.2018268	9.453807	100.4739149	-9.69444936	30.46990644
3.54	354	-0.188	-0.98	0.166	-5.0993262	-51.5089242	8.5370742	100.5197515	-9.67153104	29.94851466
3.55	355	-0.174	-0.971	0.153	-5.3858052	-49.847346	7.6203414	100.5426698	-9.64288314	29.45577078
3.56	356	-0.156	-0.967	0.142	-4.9847346	-49.7900502	7.2192708	100.5827769	-9.61423524	28.95156774
3.57	357	-0.151	-0.97	0.148	-4.1252976	-49.1597964	7.5630456	100.6286135	-9.58558734	28.45309428
3.58	358	-0.151	-0.97	0.149	-3.437748	-48.6441342	8.0787078	100.6859093	-9.56266902	27.9603504
3.59	359	-0.145	-0.977	0.144	-2.6929026	-47.8992888	8.6516658	100.7432051	-9.54548028	27.4733361
3.6	360	-0.141	-0.976	0.147	-2.1199446	-48.0711762	9.0527364	100.7947714	-9.52829154	26.99205138
3.61	361	-0.143	-0.979	0.165	-1.3178034	-48.4722468	9.3392154	100.8749855	-9.51683238	26.4993075
3.62	362	-0.155	-0.98	0.181	-0.5156622	-48.6441342	10.1413566	100.9551996	-9.5111028	26.00083404
3.63	363	-0.175	-0.96	0.194	0.1718874	-48.70143	11.172681	101.0468729	-9.51683238	25.50236058
3.64	364	-0.187	-0.935	0.197	0.9740286	-48.128472	12.0894138	101.1442757	-9.52829154	25.0096167
3.65	365	-0.19	-0.912	0.199	1.0313244	-47.4982182	12.2040054	101.2416786	-9.55120986	24.5226024
3.66	366	-0.188	-0.907	0.214	0.5156622	-46.7533728	11.745639	101.3333519	-9.56266902	24.04131768
3.67	367	-0.175	-0.931	0.226	-0.8021412	-45.3209778	11.5164558	101.4078364	-9.57412818	23.5772217
3.68	368	-0.168	-0.95	0.233	-2.5210152	-44.5188366	11.8029348	101.4651322	-9.59131692	23.1188553
3.69	369	-0.17	-0.969	0.235	-3.7815228	-45.1490904	11.745639	101.5109689	-9.60277608	22.64902974
3.7	370	-0.166	-0.976	0.222	-4.4690724	-46.123119	11.5737516	101.5510759	-9.61423524	22.1734746
3.71	371	-0.171	-0.953	0.188	-4.7555514	-47.1544434	10.886202	101.591183	-9.61423524	21.69218988
3.72	372	-0.187	-0.927	0.15	-4.583664	-48.128472	9.2819196	101.63129	-9.59131692	21.20517558
3.73	373	-0.199	-0.913	0.116	-3.0366774	-47.9565846	7.2765666	101.6885858	-9.55693944	20.71816128
3.74	374	-0.208	-0.905	0.1	-1.0886202	-46.8106686	6.2452422	101.7573408	-9.5111028	20.24833572
3.75	375	-0.194	-0.894	0.1	0.1718874	-44.2323576	6.016059	101.8146366	-9.4824549	19.81861722
3.76	376	-0.172	-0.905	0.115	1.145916	-41.5967508	6.7036086	101.9005803	-9.453807	19.40035788
3.77	377	-0.15	-0.938	0.132	1.718874	-38.5600734	7.3911582	101.986524	-9.43088868	19.01074644
3.78	378	-0.123	-0.989	0.148	1.8334656	-36.1536498	7.448454	102.0724677	-9.41942952	18.64405332
3.79	379	-0.1	-1.032	0.183	2.0626488	-34.3201842	7.0473834	102.1584114	-9.40797036	18.29454894
3.8	380	-0.108	-1.048	0.205	2.2345362	-34.1482968	7.161975	102.2328959	-9.38505204	17.94504456
3.81	381	-0.137	-1.067	0.185	1.9480572	-35.4088044	8.59437	102.3131101	-9.38505204	17.58408102
3.82	382	-0.154	-1.061	0.171	1.2605076	-35.7525792	10.313244	102.3933242	-9.3965112	17.21165832
3.83	383	-0.128	-1.045	0.213	1.5469866	-36.096354	10.7143146	102.4735383	-9.41942952	16.83923562
3.84	384	-0.084	-1.054	0.243	1.7761698	-36.0390582	8.9381448	102.559482	-9.41369994	16.46681292
3.85	385	-0.064	-1.08	0.244	2.6356068	-35.4088044	6.1306506	102.6511553	-9.36213372	16.1001198
3.86	386	-0.071	-1.091	0.247	4.6409598	-32.7731976	4.5263682	102.7542877	-9.32775624	15.77353374
3.87	387	-0.084	-1.057	0.24	6.1306506	-28.5906042	4.4690724	102.8688793	-9.29910834	15.48705474
3.88	388	-0.099	-1.01	0.236	7.8495246	-24.2934192	5.2139178	102.9892005	-9.28764918	15.2406828
3.89	389	-0.114	-0.987	0.244	10.3705398	-17.5898106	5.443101	103.1267104	-9.29910834	15.05733624
3.9	390	-0.125	-0.987	0.247	11.9748222	-12.2040054	4.9274388	103.2756795	-9.29337876	14.91982632
3.91	391	-0.141	-0.98	0.255	13.2926256	-8.2505952	4.8128472	103.4246486	-9.32202666	14.83388262
3.92	392	-0.159	-0.96	0.261	14.037471	-4.297185	4.8128472	103.5793472	-9.35640414	14.7823164
3.93	393	-0.173	-0.941	0.261	14.4385416	0	4.6409598	103.7283163	-9.3965112	14.77085724
3.94	394	-0.17	-0.928	0.259	14.4958374	3.4950438	4.1825934	103.8715558	-9.44807742	14.79950514
3.95	395	-0.153	-0.927	0.258	14.2666542	5.72958	3.724227	104.0090657	-9.48818448	14.8396122
3.96	396	-0.127	-0.922	0.247	13.5218088	7.1046792	3.3804522	104.1351165	-9.5397507	14.90263758
3.97	397	-0.11	-0.917	0.251	13.0061466	7.7922288	3.2085648	104.2554377	-9.59131692	14.97139254
3.98	398	-0.103	-0.921	0.26	12.891555	7.8495246	3.0366774	104.3757589	-9.64288314	15.04587708
3.99	399	-0.103	-0.933	0.256	12.4904844	8.307891	3.2658606	104.4846209	-9.69444936	15.11463204
4	400	-0.106	-0.945	0.246	12.4331886	9.1100322	3.7815228	104.5934829	-9.72882684	15.18911658
4.01	401	-0.113	-0.954	0.247	13.464513	9.740286	4.4690724	104.7138041	-9.7975818	15.27506028
4.02	402	-0.119	-0.961	0.252	14.2666542	10.4851314	4.7555514	104.8398548	-9.87206634	15.36673356
4.03	403	-0.118	-0.97	0.252	14.7250206	11.0580894	4.6409598	104.9716352	-9.94655088	15.46413642
4.04	404	-0.106	-0.979	0.252	15.0114996	11.6310474	4.2398892	105.1091451	-10.02103542	15.56726886
4.05	405	-0.096	-0.98	0.253	15.469866	12.0894138	3.8961144	105.2409254	-10.0554129	15.66467172
4.06	406	-0.09	-0.976	0.261	15.6417534	11.9175264	3.6096354	105.3784354	-10.12416786	15.77353374
4.07	407	-0.078	-0.975	0.264	15.183387	11.6310474	3.5523396	105.5102157	-10.19292282	15.87666618
4.08	408	-0.064	-0.971	0.253	14.7250206	10.7143146	3.6096354	105.641996	-10.26167778	15.97406904
4.09	409	-0.058	-0.971	0.246	14.4385416	8.7662574	3.6096354	105.7737764	-10.31897358	16.04855358
4.1	410	-0.059	-0.97	0.244	13.9801752	6.7609044	3.7815228	105.8940976	-10.313244	16.09439022
4.11	411	-0.076	-0.981	0.239	13.464513	5.156622	3.8961144	106.0201483	-10.36481022	16.13449728
4.12	412	-0.103	-0.995	0.245	13.464513	4.010706	4.4690724	106.1519287	-10.42210602	16.16314518
4.13	413	-0.115	-0.999	0.252	13.8655836	4.6409598	4.9847346	106.283709	-10.4851314	16.19752266
4.14	414	-0.123	-0.999	0.267	14.2093584	6.1306506	5.2712136	106.4212189	-10.55388636	16.2433593
4.15	415	-0.135	-0.995	0.283	14.7823164	8.3651868	5.5003968	106.5529993	-10.60545258	16.30638468
4.16	416	-0.146	-0.991	0.298	15.2406828	11.6883432	5.6722842	106.6905092	-10.69712586	16.40378754
4.17	417	-0.145	-0.985	0.303	15.2979786	14.610429	5.9014674	106.8165599	-10.8002583	16.52410872
4.18	418	-0.14	-0.977	0.304	15.0687954	16.9595568	6.016059	106.9426107	-10.90912032	16.6730778
4.19	419	-0.136	-0.972	0.308	14.4385416	19.0222056	6.016059	107.0572023	-11.02371192	16.83923562
4.2	420	-0.13	-0.964	0.305	13.8082878	20.4546006	5.9587632	107.1603347	-11.12111478	17.01112302
4.21	421	-0.121	-0.959	0.303	12.7196676	21.0275586	6.016059	107.252008	-11.24716554	17.19446958
4.22	422	-0.117	-0.958	0.29	12.1467096	20.2254174	6.1879464	107.3379517	-11.3732163	17.37208656
4.23	423	-0.114	-0.956	0.283	12.032118	18.2200644	6.3598338	107.4238954	-11.4878079	17.52678522
4.24	424	-0.107	-0.951	0.286	11.8602306	16.5011904	6.4171296	107.5155687	-11.6023995	17.67002472
4.25	425	-0.103	-0.946	0.28	11.8602306	14.896908	6.7609044	107.6015124	-11.67688404	17.78461632
4.26	426	-0.099	-0.938	0.284	11.745639	12.7769634	7.2765666	107.6989153	-11.78574606	17.88774876
4.27	427	-0.096	-0.936	0.294	11.9175264	11.0007936	7.8495246	107.8020477	-11.89460808	17.96796288
4.28	428	-0.099	-0.94	0.293	11.6883432	9.5683986	8.3651868	107.9051801	-12.00919968	18.03098826
4.29	429	-0.101	-0.94	0.291	11.2872726	7.6776372	8.6516658	108.0140422	-12.11233212	18.08255448
4.3	430	-0.107	-0.944	0.292	11.172681	6.589017	8.7662574	108.111445	-12.16962792	18.1054728
4.31	431	-0.121	-0.95	0.299	11.45916	5.9014674	8.9954406	108.220307	-12.27276036	18.13985028
4.32	432	-0.131	-0.956	0.302	11.5737516	5.5003968	9.167328	108.3291691	-12.38162238	18.1627686
4.33	433	-0.135	-0.955	0.305	11.745639	5.3858052	9.1100322	108.4437607	-12.48475482	18.18568692
4.34	434	-0.137	-0.95	0.309	11.9748222	5.6722842	9.0527364	108.5583523	-12.58788726	18.21433482
4.35	435	-0.138	-0.951	0.315	12.4331886	6.4171296	8.9954406	108.6729439	-12.65664222	18.23725314
4.36	436	-0.136	-0.959	0.304	12.7196676	7.0473834	9.0527364	108.793265	-12.76550424	18.2773602
4.37	437	-0.133	-0.96	0.303	12.8342592	7.2765666	9.5111028	108.9135862	-12.88009584	18.31746726
4.38	438	-0.134	-0.956	0.307	12.4904844	7.8495246	9.6256944	109.0281778	-12.99468744	18.35757432
4.39	439	-0.135	-0.949	0.302	12.032118	8.4797784	9.6256944	109.1427694	-13.11500862	18.40914054
4.4	440	-0.134	-0.946	0.296	11.745639	8.8235532	9.6829902	109.2344427	-13.20095232	18.46070676
4.41	441	-0.133	-0.947	0.293	11.2299768	8.9381448	9.7975818	109.3318456	-13.3212735	18.51227298
4.42	442	-0.14	-0.947	0.293	10.599723	9.0527364	9.740286	109.4292484	-13.44732426	18.56956878
4.43	443	-0.144	-0.946	0.292	10.1986524	9.5111028	9.5111028	109.5151921	-13.56764544	18.62686458
4.44	444	-0.144	-0.952	0.288	10.2559482	10.026765	9.2246238	109.6068654	-13.6936962	18.68988996
4.45	445	-0.143	-0.955	0.297	10.026765	10.9434978	9.167328	109.6698908	-13.7796399	18.7643745
4.46	446	-0.145	-0.96	0.303	10.0840608	12.032118	9.1100322	109.7501049	-13.90569066	18.84458862
4.47	447	-0.147	-0.961	0.305	10.599723	13.0061466	9.1100322	109.8360486	-14.037471	18.94199148
4.48	448	-0.15	-0.957	0.309	11.1153852	14.4385416	9.167328	109.9219923	-14.17498092	19.04512392
4.49	449	-0.153	-0.954	0.311	11.8029348	16.1574156	9.2246238	110.007936	-14.31822042	19.17117468
4.5	450	-0.157	-0.954	0.31	12.4331886	17.8189938	9.2246238	110.0881501	-14.44427118	19.3086846
4.51	451	-0.156	-0.952	0.311	12.9488508	19.3659804	9.2819196	110.1740938	-14.59896984	19.45765368
4.52	452	-0.149	-0.946	0.311	12.8342592	20.5691922	9.167328	110.2600375	-14.75939808	19.6238115
4.53	453	-0.148	-0.939	0.308	12.3758928	21.3713334	8.7662574	110.3402516	-14.91982632	19.7956989
4.54	454	-0.151	-0.939	0.31	12.032118	22.2880662	8.3651868	110.4147362	-15.08025456	19.97904546
4.55	455	-0.158	-0.939	0.312	11.3445684	24.0069402	7.8495246	110.4605728	-15.2120349	20.17958076
4.56	456	-0.163	-0.941	0.311	10.313244	25.78311	7.5057498	110.5064095	-15.37819272	20.3973048
4.57	457	-0.165	-0.94	0.306	9.5111028	27.5592798	7.3338624	110.5350574	-15.55008012	20.63794716
4.58	458	-0.161	-0.939	0.3	9.0527364	28.6479	7.161975	110.5579757	-15.72196752	20.8843191
4.59	459	-0.157	-0.938	0.292	8.7662574	29.2781538	6.9900876	110.5751644	-15.89385492	21.13642062
4.6	460	-0.148	-0.935	0.293	9.167328	29.4500412	6.7036086	110.580894	-16.03136484	21.39425172
4.61	461	-0.14	-0.935	0.301	9.5111028	29.7365202	6.4744254	110.5980827	-16.20325224	21.65208282
4.62	462	-0.134	-0.94	0.302	9.453807	30.1948866	6.3598338	110.6152715	-16.37513964	21.92137308
4.63	463	-0.131	-0.947	0.298	9.167328	30.7678446	6.5317212	110.6267306	-16.55275662	22.19066334
4.64	464	-0.132	-0.949	0.3	8.9381448	31.51269	6.875496	110.6381898	-16.73610318	22.47141276
4.65	465	-0.135	-0.948	0.301	8.4224826	32.1429438	7.2192708	110.6210011	-16.88507226	22.75216218
4.66	466	-0.141	-0.942	0.305	7.7922288	33.2888598	7.3338624	110.6152715	-17.0741484	23.04437076
4.67	467	-0.14	-0.934	0.305	6.9900876	34.950438	7.1046792	110.5866236	-17.26895412	23.35376808
4.68	468	-0.13	-0.931	0.301	6.6463128	36.2109456	6.8182002	110.5522461	-17.46948942	23.67462456
4.69	469	-0.125	-0.937	0.301	6.0733548	37.1276784	7.161975	110.512139	-17.6757543	24.0069402
4.7	470	-0.122	-0.942	0.298	5.6149884	37.7579322	7.5630456	110.4491137	-17.84191212	24.33925584
4.71	471	-0.121	-0.942	0.292	4.870143	38.0444112	8.0787078	110.3918179	-18.05963616	24.67730106
4.72	472	-0.122	-0.938	0.288	3.9534102	38.388186	8.4797784	110.3230629	-18.2773602	25.01534628
4.73	473	-0.116	-0.927	0.287	3.2085648	38.7319608	8.7089616	110.2428488	-18.50081382	25.35912108
4.74	474	-0.106	-0.923	0.281	2.5210152	38.7892566	8.9954406	110.1511755	-18.72999702	25.70289588
4.75	475	-0.105	-0.927	0.273	1.432395	38.674665	9.5111028	110.0365839	-18.907614	26.0409411
4.76	476	-0.101	-0.934	0.257	0	38.961144	10.4851314	109.9219923	-19.14825636	26.3847159
4.77	477	-0.093	-0.934	0.232	-1.5469866	38.961144	11.3445684	109.790212	-19.3946283	26.72276112
4.78	478	-0.087	-0.933	0.207	-2.7501984	37.7579322	12.2613012	109.6469725	-19.64672982	27.04934718
4.79	479	-0.085	-0.927	0.193	-4.010706	36.2109456	13.464513	109.4980034	-19.89883134	27.35301492
4.8	480	-0.084	-0.915	0.199	-4.7555514	35.3515086	14.3812458	109.3203864	-20.1108258	27.65095308
4.81	481	-0.075	-0.91	0.198	-5.0420304	35.3515086	15.1260912	109.1599582	-20.37438648	27.94889124
4.82	482	-0.063	-0.905	0.192	-5.3285094	34.4920716	16.1574156	109.0052595	-20.64940632	28.22964066
4.83	483	-0.043	-0.889	0.202	-4.9847346	33.2888598	17.5898106	108.8562904	-20.93015574	28.49893092
4.84	484	-0.018	-0.865	0.221	-3.0366774	32.658606	18.9649098	108.7245101	-21.22236432	28.75676202
4.85	485	0.01	-0.833	0.221	-1.5469866	30.653253	20.912967	108.6156481	-21.45154752	28.98021564
4.86	486	0.016	-0.815	0.218	-1.3750992	27.9603504	22.4599536	108.5239748	-21.76094484	29.18075094
4.87	487	0.007	-0.804	0.222	-1.5469866	25.8404058	23.7204612	108.4380311	-22.07034216	29.35836792
4.88	488	-0.003	-0.793	0.203	-3.0366774	25.1528562	24.8090814	108.3406282	-22.39119864	29.52452574
4.89	489	-0.026	-0.777	0.184	-6.3598338	23.0902074	26.069589	108.220307	-22.71205512	29.66776524
4.9	490	-0.041	-0.759	0.182	-8.7662574	21.0275586	27.1582092	108.071338	-22.99853412	29.78235684
4.91	491	-0.026	-0.743	0.173	-10.599723	19.9962342	27.9603504	107.9223689	-23.32512018	29.89121886
4.92	492	0.012	-0.731	0.158	-11.1153852	15.9282324	29.507337	107.7791294	-23.65743582	29.95424424
4.93	493	0.062	-0.721	0.217	-8.8235532	7.8495246	31.9137606	107.6989153	-23.98975146	29.92559634
4.94	494	0.115	-0.701	0.268	-6.9327918	1.2032118	32.658606	107.6702674	-24.29914878	29.82819348
4.95	495	0.154	-0.686	0.238	-6.9327918	-8.5370742	32.6013102	107.6931857	-24.49968408	29.60473986
4.96	496	0.171	-0.72	0.202	-7.6203414	-18.048177	33.1742682	107.7447519	-24.75751518	29.3068017
4.97	497	0.167	-0.772	0.176	-10.026765	-24.5226024	34.663959	107.8020477	-25.00388712	28.94010858
4.98	498	0.143	-0.804	0.148	-14.5531332	-29.0489706	36.382833	107.8421548	-25.25025906	28.51611966
4.99	499	0.106	-0.811	0.105	-19.9389384	-32.8877892	36.669312	107.8421548	-25.49090142	28.0462941
5	500	0.105	-0.812	0.049	-25.3820394	-35.0077338	36.096354	107.7733998	-25.66278882	27.56500938
5.01	501	0.13	-0.78	0.007	-33.0596766	-36.4974246	36.4974246	107.6645378	-25.89197202	27.06080634
5.02	502	0.169	-0.73	0.031	-34.1482968	-37.528749	37.528749	107.5556758	-26.1268848	26.53368498
5.03	503	0.194	-0.69	0.044	-35.3515086	-38.5027776	38.8465524	107.4353546	-26.37325674	26.00083404
5.04	504	0.171	-0.643	0.052	-36.1536498	-42.97185	41.252976	107.3436813	-26.62535826	25.40495772
5.05	505	0.136	-0.623	0.084	-36.669312	-49.2170922	43.2010332	107.2691968	-26.8430823	24.73459686
5.06	506	0.097	-0.601	0.118	-37.528749	-55.576926	45.1490904	107.2348193	-27.09518382	23.99548104
5.07	507	0.054	-0.588	0.106	-38.3308902	-62.0513514	46.6387812	107.2233601	-27.34155576	23.18188068
5.08	508	0.033	-0.587	0.061	-44.0604702	-63.4837464	47.7274014	107.1717939	-27.59365728	22.345362
5.09	509	0.031	-0.576	0.036	-51.3943326	-60.733548	50.993262	107.0400136	-27.88586586	21.52603206
5.1	510	0.018	-0.592	0.006	-55.9779966	-57.9260538	55.0612638	106.8452078	-28.20672234	20.72389086
5.11	511	-0.013	-0.616	-0.014	-59.874111	-56.9520252	59.6449278	106.6332134	-28.60206336	19.91602008
5.12	512	-0.039	-0.626	-0.017	-59.7022236	-56.7801378	63.884817	106.4326781	-29.03751144	19.08523098
5.13	513	-0.065	-0.622	-0.012	-58.4990118	-55.8061092	66.749607	106.2550611	-29.507337	18.26017146
5.14	514	-0.087	-0.591	-0.001	-57.868758	-55.2331512	68.2392978	106.0831737	-29.9943513	17.43511194
5.15	515	-0.068	-0.513	0.032	-56.8947294	-58.4990118	68.6403684	105.9513934	-30.45844728	16.56421578
5.16	516	-0.032	-0.421	0.106	-55.003968	-63.2545632	68.0674104	105.8711792	-30.92254326	15.64748298
5.17	517	0.004	-0.336	0.15	-56.8374336	-63.7129296	66.9214944	105.779506	-31.37518008	14.71929102
5.18	518	0.022	-0.289	0.086	-60.8481396	-60.7908438	67.4944524	105.641996	-31.84500564	13.81974696
5.19	519	0.04	-0.304	-0.075	-69.4425096	-57.0666168	72.8802576	105.4128128	-32.37785658	12.94312122
5.2	520	0.063	-0.296	-0.132	-74.4272442	-59.1865614	80.5578948	105.1549817	-32.96800332	12.02065884
5.21	521	0.075	-0.238	-0.074	-74.3126526	-65.030733	87.376095	104.9716352	-33.62690502	11.0007936
5.22	522	0.06	-0.131	0.016	-73.1094408	-68.5257768	88.0636446	104.8341253	-34.28007714	9.92936214
5.23	523	-0.008	-0.022	0.107	-71.61975	-71.9635248	83.8810512	104.7481816	-34.8931422	8.82928278
5.24	524	-0.072	0.08	0.265	-62.3951262	-74.5418358	81.073557	104.7768295	-35.4661002	7.70055552
5.25	525	-0.14	0.14	0.342	-52.712136	-74.2553568	82.505952	104.9487169	-36.06197652	6.54318036
5.26	526	-0.16	0.193	0.29	-50.8786704	-68.4111852	86.803137	105.0919564	-36.70368948	5.44883058
5.27	527	-0.134	0.242	0.222	-48.70143	-61.5356892	92.246238	105.2351959	-37.4141574	4.40604702
5.28	528	-0.085	0.297	0.174	-49.274388	-59.1865614	97.5747474	105.3841649	-38.18192112	3.36326346
5.29	529	-0.073	0.351	0.084	-48.4722468	-60.3897732	102.6740736	105.5789707	-38.9897919	2.27464326
5.3	530	-0.037	0.382	0.08	-44.8626114	-63.0826758	110.4090066	105.888368	-39.8778768	1.10007936
5.31	531	-0.072	0.431	0.114	-37.4141574	-72.9948492	119.5190388	106.392571	-40.80033918	-0.23491278
5.32	532	-0.356	0.399	0.224	-22.345362	-101.6427492	135.6764544	107.3723292	-41.77436778	-2.0340009
5.33	533	-0.893	0.04	0.275	-3.6669312	-137.7391032	163.1211426	108.9823412	-42.85152882	-4.45761324
5.34	534	-1.565	-0.359	0.694	16.8449652	-178.2472338	196.811073	111.371576	-44.0318223	-7.64325972
5.35	535	-2.531	-1.332	1.001	55.3477428	-217.437561	214.1144046	114.7119212	-45.08606502	-11.55083328
5.36	536	-3.346	-2.043	1.334	88.1209404	-236.2878792	219.3283224	118.7283568	-45.9225837	-15.8709366
5.37	537	-3.323	-2.216	1.568	108.289062	-244.080108	214.9165458	123.117215	-46.44970506	-20.38011606
5.38	538	-3.682	-1.797	2.069	123.4151532	-240.1266978	219.0418434	127.7352565	-46.79347986	-24.95805048
5.39	539	-3.999	-1.645	2.411	138.5412444	-204.259527	196.1808192	132.1011965	-46.94817852	-28.97448606
5.4	540	-3.641	-0.814	2.776	160.7720148	-139.5725688	223.9692822	136.4614069	-47.555514	-32.65287642
5.41	541	-3.178	-0.531	2.734	212.3955306	-167.6475108	228.3810588	141.6466768	-47.76177888	-36.72087822
5.42	542	-3.092	0.946	2.611	341.1391932	-149.1409674	239.7256272	148.1382909	-47.92220712	-40.77169128
5.43	543	-2.018	-0.21	2.312	288.0259866	-122.4411246	177.61698	153.3636679	-47.7274014	-43.84274616
5.44	544	-1.846	-0.024	1.662	250.6118292	-106.5128922	125.6496894	157.5749092	-47.29195332	-46.08874152
5.45	545	-1.757	-0.291	1.458	225.9173394	-110.9819646	88.522011	161.1215192	-46.5814854	-47.77896762
5.46	546	-1.93	-0.889	0.902	186.2686458	-115.9666992	59.6449278	163.9175542	-45.67048218	-49.0165569
5.47	547	-0.949	-0.631	0.69	183.4038558	-104.9086098	62.452422	166.621916	-44.8339635	-50.17393206
5.48	548	-0.312	0.373	0.103	189.8782812	-116.9407278	67.4371566	169.3893031	-43.84847574	-51.35995512
5.49	549	-0.09	0.135	0.464	260.2375236	-153.3235608	62.9680842	172.7869441	-42.46764696	-52.43138658
5.5	550	0.023	0.31	0.878	260.0656362	-191.654451	72.7083702	176.1960442	-40.680018	-53.53719552
5.51	551	-0.919	0.553	1.117	230.7874824	-185.5810962	92.532717	179.3301244	-38.9038482	-54.73467774
5.52	552	-0.713	-0.206	0.967	205.0043724	-156.5894214	100.4395374	-177.8404336	-37.36259118	-55.89778248
5.53	553	0.42	0.855	0.901	168.0485814	-191.2533804	123.758928	-175.3308776	-35.42026356	-57.20412672
5.54	554	0.067	0.012	1.062	161.0584938	-231.0739614	115.2218538	-173.0963414	-33.0596766	-58.20680322
5.55	555	-0.25	0.316	1.261	136.8796662	-235.9441044	118.1439396	-171.1941208	-30.60741636	-59.11780644
5.56	556	-0.493	0.269	1.463	128.3998878	-238.064049	110.8100772	-169.5096243	-28.12650822	-59.82827436
5.57	557	-0.453	0.402	1.3	114.8207832	-244.5384744	105.8253426	-168.0600406	-25.57684512	-60.37258446
5.58	558	-0.48	0.407	1.126	100.26765	-240.64236	84.7404882	-166.9026654	-23.09593698	-60.63041556
5.59	559	-0.254	0.208	1.196	91.7305758	-242.934192	72.479187	-165.9114481	-20.62075842	-60.7049001
5.6	560	-0.211	0.289	1.102	74.48454	-222.2504082	68.2392978	-165.0978477	-18.32892642	-60.75646632
5.61	561	0.004	-0.046	0.963	68.8695516	-217.6094484	57.9260538	-164.3931094	-16.1287677	-60.6762522
5.62	562	0.071	-0.111	1.006	56.2071798	-221.2763796	30.5386614	-163.8889063	-13.96871604	-60.29809992
5.63	563	-0.027	-0.317	1.151	39.1903272	-226.4330016	-2.4064236	-163.6196161	-11.84877144	-59.57044326
5.64	564	-0.075	0.233	1.135	5.8441716	-248.0335182	-44.4615408	-163.7513964	-9.64288314	-58.37296104
5.65	565	-0.171	-0.527	1.127	-12.9488508	-241.788276	-50.706783	-164.0264162	-7.51720896	-57.14110134
5.66	566	-0.372	0.621	1.024	1.0313244	-228.5529462	-79.1254998	-164.152467	-5.58061092	-55.69724718
5.67	567	-0.219	-0.456	1.212	-32.1429438	-214.4008836	-58.441716	-164.547808	-3.70703826	-54.51122412
5.68	568	-0.228	0.008	1.239	-29.5646328	-195.7224528	-54.0299394	-164.8743941	-1.99389384	-53.43406308
5.69	569	-0.333	0.473	1.089	-31.9137606	-173.4916824	-39.247623	-165.1952506	-0.45263682	-52.5688965
5.7	570	-0.28	0.487	1.176	-33.9191136	-145.1875572	-27.788463	-165.4989183	0.84797784	-51.89853564
5.71	571	-0.152	0.59	1.187	-20.4546006	-115.451037	-29.1062664	-165.6822649	1.87357266	-51.30265932
5.72	572	-0.045	0.96	1.073	-55.4050386	-77.2347384	-22.5745452	-166.2151158	2.56685184	-50.88439998
5.73	573	-0.165	0.24	0.95	-61.592985	-46.8106686	0.6302538	-166.8281809	3.01948866	-50.76980838
5.74	574	-0.078	0.287	0.988	-26.9863218	-32.085648	2.4064236	-167.0974711	3.33461556	-50.71824216
5.75	575	-0.084	0.282	0.884	-63.598338	-8.307891	7.3911582	-167.6876179	3.437748	-50.75834922
5.76	576	0.023	0.531	0.803	-62.1086472	2.6356068	3.3804522	-168.3236012	3.43201842	-50.80418586
5.77	577	0.072	0.413	0.841	-51.1078536	11.5164558	2.6356068	-168.844993	3.32888598	-50.85575208
5.78	578	0.38	1	0.701	-44.5188366	8.880849	-8.5370742	-169.2976298	3.23148312	-50.79845628
5.79	579	0.11	0.365	0.841	-53.9726436	13.9228794	-14.6677248	-169.8419399	3.08251404	-50.68386468
5.8	580	0.025	0.098	0.984	-41.6540466	6.1879464	-11.3445684	-170.2831176	2.99657034	-50.5921914
5.81	581	0.186	0.52	0.874	-64.3431834	3.3804522	-8.9954406	-170.9305601	2.95646328	-50.51197728
5.82	582	0.105	0.278	0.994	-41.1956802	-0.9740286	-4.4690724	-171.3488195	2.96792244	-50.47187022
5.83	583	0.086	0.307	1.044	-34.8931422	1.8334656	-6.1306506	-171.6983239	2.94500412	-50.41457442
5.84	584	0.196	0.235	1.071	-36.8411994	13.5218088	-6.1306506	-172.0707466	2.8074942	-50.38019694
5.85	585	-0.005	0.218	1.129	-31.8564648	35.809875	-6.875496	-172.391603	2.45226024	-50.36873778
5.86	586	0.18	0.296	1.057	-24.7517856	57.2385042	-8.59437	-172.6494341	1.88503182	-50.37446736
5.87	587	-0.053	0.053	0.867	-29.4500412	63.311859	-7.3338624	-172.9588315	1.2605076	-50.39738568
5.88	588	0.042	0.096	1.129	-20.4546006	60.9627312	-9.3965112	-173.1765555	0.65317212	-50.39738568
5.89	589	0.236	0.186	1.032	-23.0902074	45.7220484	-4.3544808	-173.4171979	0.20626488	-50.420304
5.9	590	0.06	0.043	0.882	-27.5592798	25.0382646	1.432395	-173.6979473	-0.02291832	-50.47187022
5.91	591	-0.004	0.05	1.139	-14.1520626	19.0222056	4.5263682	-173.8469164	-0.2005353	-50.54635476
5.92	592	-0.022	-0.307	1.24	1.5469866	23.6631654	1.3750992	-173.8297276	-0.43544808	-50.58646182
5.93	593	-0.075	0.061	1.19	18.5638392	20.1681216	0.1718874	-173.6463811	-0.63598338	-50.61510972
5.94	594	-0.029	0.131	1.165	17.8189938	13.6936962	1.0886202	-173.4687641	-0.76776372	-50.64375762
5.95	595	-0.064	0.117	1.096	7.5057498	6.8182002	0.859437	-173.3140654	-0.91100322	-50.63229846
5.96	596	-0.07	0.137	1.09	-3.5523396	-5.5576926	0.286479	-173.3484429	-0.859437	-50.62656888
5.97	597	-0.021	0.107	1.006	-18.2200644	-12.318597	1.6042824	-173.5317895	-0.73338624	-50.62656888
5.98	598	-0.052	0.124	1.026	-35.9817624	-7.6776372	0.4583664	-173.8984826	-0.65317212	-50.6208393
5.99	599	-0.263	0.706	1.025	-25.4393352	9.8548776	-4.4117766	-174.1563137	-0.75057498	-50.5921914
6	600	-0.015	0.099	0.915	6.8182002	19.5951636	-4.9847346	-174.2823644	-0.88235532	-50.60938014
6.01	601	0	0.041	0.851	5.3858052	19.5951636	-1.2032118	-174.2307982	-1.07143146	-50.62656888
6.02	602	0.052	-0.216	0.81	10.9434978	17.7044022	-0.2291832	-174.1219362	-1.24904844	-50.64375762
6.03	603	0.082	-0.411	0.778	-14.610429	12.605076	-3.0939732	-174.2709053	-1.3750992	-50.63229846
6.04	604	-0.006	0.034	0.842	-1.2605076	7.7922288	-1.9480572	-174.288094	-1.45531332	-50.6208393
6.05	605	-0.011	0.06	0.886	4.9847346	9.6829902	-2.86479	-174.2594461	-1.53552744	-50.60938014
6.06	606	-0.011	0.054	0.913	3.151269	13.8082878	-3.6096354	-174.2307982	-1.67876694	-50.5921914
6.07	607	-0.035	0.06	0.983	-2.9793816	15.8136408	-2.005353	-174.2594461	-1.8334656	-50.5921914
6.08	608	-0.044	0.056	1.062	-6.2452422	15.756345	-1.5469866	-174.3282011	-1.98816426	-50.59792098
6.09	609	-0.041	0.049	1.098	-8.021412	16.1574156	-1.718874	-174.4141448	-2.1485925	-50.59792098
6.1	610	-0.078	0.018	1.129	-9.7975818	14.32395	-1.7761698	-174.5459251	-2.29756158	-50.60365056
6.11	611	-0.102	0.04	1.167	-9.3965112	10.0840608	-1.3750992	-174.643328	-2.40069402	-50.59792098
6.12	612	-0.097	0.031	1.158	-8.7662574	5.9587632	-0.572958	-174.7292717	-2.45798982	-50.60365056
6.13	613	-0.076	0.041	1.118	-6.9900876	0.5156622	-0.8021412	-174.8037562	-2.4637194	-50.5921914
6.14	614	-0.067	0.037	1.09	-3.9534102	-0.859437	-0.572958	-174.8438633	-2.45226024	-50.58646182
6.15	615	-0.074	0.043	1.072	0.6875496	0.6875496	-0.8021412	-174.9469957	-2.50382646	-50.58073224
6.16	616	-0.059	0.044	1.047	4.583664	2.5210152	-1.0886202	-174.9011591	-2.52674478	-50.56927308
6.17	617	-0.053	0.06	1.022	7.3911582	4.3544808	-1.0886202	-174.8266745	-2.57258142	-50.5635435
6.18	618	-0.046	0.061	1.004	8.7662574	5.8441716	-1.2605076	-174.7407308	-2.6356068	-50.55781392
6.19	619	-0.048	0.065	0.993	9.3965112	6.875496	-1.2032118	-174.643328	-2.70436176	-50.55208434
6.2	620	-0.05	0.065	0.975	8.880849	7.448454	-0.9740286	-174.574573	-2.7788463	-50.55208434
6.21	621	-0.059	0.075	0.967	7.9068204	7.1046792	-0.8021412	-174.4943589	-2.84760126	-50.55208434
6.22	622	-0.059	0.071	0.966	6.302538	6.589017	-0.9167328	-174.4313335	-2.91635622	-50.55208434
6.23	623	-0.062	0.073	0.964	4.7555514	5.72958	-1.0313244	-174.3854969	-2.97365202	-50.54635476
6.24	624	-0.05	0.072	0.97	2.9220858	4.2398892	-0.9740286	-174.356849	-3.01948866	-50.54635476
6.25	625	-0.056	0.078	0.98	1.432395	2.6356068	-0.8021412	-174.4313335	-3.0653253	-50.54062518
6.26	626	-0.062	0.072	0.992	0.1718874	1.2605076	-0.7448454	-174.4256039	-3.08251404	-50.5348956
6.27	627	-0.062	0.074	1.006	-0.8021412	0.4010706	-0.859437	-174.4370631	-3.08824362	-50.52343644
6.28	628	-0.062	0.072	1.015	-1.5469866	0	-0.9167328	-174.4542518	-3.08824362	-50.51770686
6.29	629	-0.062	0.069	1.023	-2.1199446	0.0572958	-1.0313244	-174.4771702	-3.08824362	-50.5062477
6.3	630	-0.059	0.073	1.031	-2.5210152	0	-1.2032118	-174.5803026	-3.05386614	-50.51197728
6.31	631	-0.07	0.069	1.03	-2.8074942	0.1718874	-1.2032118	-174.6089505	-3.05386614	-50.50051812
6.32	632	-0.068	0.067	1.032	-2.6929026	0.572958	-1.2032118	-174.6375984	-3.0653253	-50.48905896
6.33	633	-0.066	0.064	1.026	-2.3491278	0.7448454	-1.145916	-174.6605167	-3.07105488	-50.4775998
6.34	634	-0.068	0.064	1.022	-1.9480572	0.859437	-0.9167328	-174.683435	-3.08251404	-50.46614064
6.35	635	-0.07	0.061	1.022	-1.4896908	0.9167328	-0.7448454	-174.8553224	-3.1226211	-50.46614064
6.36	636	-0.064	0.06	1.017	-0.859437	0.6875496	-0.4583664	-174.861052	-3.12835068	-50.46041106
6.37	637	-0.072	0.052	1.016	-0.4010706	0.8021412	-0.4583664	-174.8667816	-3.13980984	-50.46041106
6.38	638	-0.066	0.057	1.013	0	1.0886202	-0.4010706	-174.8667816	-3.151269	-50.45468148
6.39	639	-0.059	0.066	1.009	0.286479	1.0313244	-0.3437748	-174.8667816	-3.16272816	-50.4489519
6.4	640	-0.069	0.051	1.011	0.1718874	0.9167328	-0.286479	-175.2105564	-3.2372127	-50.46041106
6.41	641	-0.066	0.054	1.008	0.0572958	0.9740286	-0.286479	-175.2048268	-3.24867186	-50.45468148
6.42	642	-0.065	0.059	1.007	0.1718874	0.7448454	-0.286479	-175.2048268	-3.26013102	-50.45468148
6.43	643	-0.066	0.056	1.01	0	0.3437748	-0.1718874	-175.2048268	-3.26013102	-50.45468148
6.44	644	-0.066	0.057	1.01	-0.1145916	-0.1145916	-0.0572958	-175.2048268	-3.26013102	-50.4489519
6.45	645	-0.065	0.056	1.015	-0.1718874	-0.8021412	0	-175.4626579	-3.28877892	-50.46041106
6.46	646	-0.066	0.057	1.012	-0.4010706	-1.3750992	0	-175.4683875	-3.27159018	-50.46041106
6.47	647	-0.065	0.057	1.013	-0.4010706	-2.005353	0	-175.4741171	-3.25440144	-50.45468148
6.48	648	-0.065	0.059	1.016	-0.3437748	-2.8074942	0	-175.4741171	-3.22575354	-50.45468148
6.49	649	-0.063	0.058	1.016	-0.3437748	-2.9220858	0.0572958	-175.4798467	-3.19710564	-50.4489519
6.5	650	-0.06	0.058	1.014	-0.2291832	-2.8074942	0	-175.5772495	-3.1799169	-50.45468148
6.51	651	-0.061	0.059	1.013	-0.0572958	-2.4637194	0.0572958	-175.5772495	-3.151269	-50.4489519
6.52	652	-0.06	0.06	1.015	0.0572958	-2.005353	0	-175.5772495	-3.13408026	-50.4489519
6.53	653	-0.059	0.061	1.015	0.1145916	-1.3750992	0	-175.5715199	-3.11689152	-50.4489519
6.54	654	-0.06	0.062	1.014	0.286479	-0.8021412	0	-175.5715199	-3.11116194	-50.4489519
6.55	655	-0.059	0.063	1.017	0.4583664	-0.1718874	-0.1145916	-175.7720552	-3.12835068	-50.45468148
6.56	656	-0.06	0.062	1.018	0.572958	0.6875496	-0.1718874	-175.7663257	-3.13980984	-50.45468148
6.57	657	-0.059	0.062	1.019	0.859437	1.5469866	-0.2291832	-175.7548665	-3.151269	-50.45468148
6.58	658	-0.06	0.063	1.019	0.9740286	2.5210152	-0.286479	-175.7434073	-3.1799169	-50.4489519
6.59	659	-0.061	0.063	1.021	0.9740286	3.2658606	-0.4010706	-175.7376778	-3.21429438	-50.4489519
6.6	660	-0.061	0.064	1.019	1.0886202	3.8388186	-0.286479	-175.7548665	-3.25440144	-50.45468148
6.61	661	-0.061	0.065	1.016	0.859437	4.4117766	-0.4583664	-175.7491369	-3.30023808	-50.45468148
6.62	662	-0.063	0.065	1.014	0.6875496	4.6409598	-0.4583664	-175.7434073	-3.34607472	-50.45468148
6.63	663	-0.063	0.063	1.013	0.572958	4.6982556	-0.5156622	-175.7376778	-3.39191136	-50.4489519
6.64	664	-0.064	0.064	1.011	0.286479	4.4117766	-0.572958	-175.7319482	-3.437748	-50.4489519
6.65	665	-0.066	0.062	1.01	0.0572958	4.3544808	-0.572958	-175.7663257	-3.48931422	-50.4489519
6.66	666	-0.068	0.062	1.009	0	4.010706	-0.572958	-175.7663257	-3.52942128	-50.44322232
6.67	667	-0.071	0.06	1.009	0	3.4950438	-0.572958	-175.7663257	-3.56379876	-50.44322232
6.68	668	-0.073	0.058	1.011	0	3.151269	-0.5156622	-175.7663257	-3.59817624	-50.44322232
6.69	669	-0.071	0.06	1.013	-0.0572958	2.9220858	-0.5156622	-175.7720552	-3.62682414	-50.43749274
6.7	670	-0.072	0.06	1.014	0	2.578311	-0.5156622	-175.829351	-3.67839036	-50.43176316
6.71	671	-0.073	0.061	1.016	-0.0572958	2.4064236	-0.4583664	-175.8350806	-3.70130868	-50.43176316
6.72	672	-0.072	0.06	1.014	0	2.2345362	-0.4010706	-175.8350806	-3.724227	-50.42603358
6.73	673	-0.076	0.058	1.015	0.0572958	2.1772404	-0.4010706	-175.8350806	-3.74714532	-50.42603358
6.74	674	-0.075	0.059	1.015	0.1718874	2.0626488	-0.3437748	-175.829351	-3.76433406	-50.42603358
6.75	675	-0.075	0.059	1.014	0.2291832	1.9480572	-0.3437748	-175.9038356	-3.8101707	-50.420304
6.76	676	-0.074	0.058	1.014	0.286479	1.8334656	-0.286479	-175.898106	-3.82735944	-50.420304
6.77	677	-0.075	0.058	1.012	0.2291832	1.7761698	-0.2291832	-175.898106	-3.84454818	-50.420304
6.78	678	-0.075	0.06	1.011	0.286479	1.6615782	-0.1718874	-175.8923764	-3.86173692	-50.420304
6.79	679	-0.074	0.058	1.011	0.4010706	1.3750992	-0.1718874	-175.8923764	-3.87319608	-50.420304
6.8	680	-0.075	0.061	1.009	0.4583664	1.0886202	-0.1145916	-175.9725905	-3.91330314	-50.41457442
6.81	681	-0.074	0.06	1.009	0.4583664	0.7448454	-0.0572958	-175.966861	-3.9247623	-50.41457442
6.82	682	-0.075	0.06	1.01	0.4583664	0.2291832	0	-175.966861	-3.9247623	-50.41457442
6.83	683	-0.074	0.061	1.011	0.4010706	-0.1145916	0	-175.9611314	-3.9247623	-50.41457442
6.84	684	-0.074	0.062	1.013	0.1718874	-0.2291832	0	-175.9554018	-3.9247623	-50.41457442
6.85	685	-0.072	0.062	1.014	0.2291832	-0.6302538	0	-176.1043709	-3.93049188	-50.420304
6.86	686	-0.072	0.062	1.013	0.1718874	-0.6302538	0	-176.0986413	-3.9247623	-50.420304
6.87	687	-0.073	0.062	1.012	0.1145916	-0.6875496	0	-176.0986413	-3.91903272	-50.420304
6.88	688	-0.072	0.062	1.013	0	-0.4583664	0	-176.0986413	-3.91330314	-50.420304
6.89	689	-0.071	0.063	1.014	0.1145916	-0.1145916	0	-176.0986413	-3.91330314	-50.420304
6.9	690	-0.071	0.061	1.014	0.1718874	0.1145916	0	-176.2476104	-3.9247623	-50.42603358
6.91	691	-0.072	0.061	1.015	0.1718874	0.4010706	-0.0572958	-176.2476104	-3.93049188	-50.42603358
6.92	692	-0.073	0.061	1.017	0	0.572958	-0.0572958	-176.2476104	-3.93622146	-50.420304
6.93	693	-0.074	0.061	1.018	-0.0572958	0.5156622	-0.1145916	-176.2476104	-3.94195104	-50.420304
6.94	694	-0.073	0.061	1.017	-0.0572958	0.7448454	-0.1718874	-176.2476104	-3.94768062	-50.420304
6.95	695	-0.073	0.061	1.015	0	1.0313244	-0.0572958	-176.2991766	-3.97632852	-50.420304
6.96	696	-0.073	0.061	1.013	0	1.145916	-0.1145916	-176.2991766	-3.98778768	-50.420304
6.97	697	-0.073	0.061	1.011	-0.0572958	1.3178034	-0.2291832	-176.3049062	-3.99924684	-50.420304
6.98	698	-0.074	0.06	1.012	0	1.3178034	-0.1718874	-176.3049062	-4.010706	-50.41457442
6.99	699	-0.075	0.06	1.012	-0.0572958	1.2032118	-0.2291832	-176.3049062	-4.02789474	-50.41457442
7	700	-0.075	0.06	1.011	0	1.2032118	-0.1718874	-176.3564724	-4.05081306	-50.41457442
7.01	701	-0.077	0.061	1.012	0	1.0313244	-0.1145916	-176.3564724	-4.06227222	-50.41457442
7.02	702	-0.076	0.06	1.012	0	0.9167328	-0.2291832	-176.3564724	-4.07373138	-50.41457442
7.03	703	-0.075	0.061	1.012	0	0.859437	-0.1718874	-176.3564724	-4.07946096	-50.40884484
7.04	704	-0.075	0.06	1.013	0.0572958	0.8021412	-0.1145916	-176.3564724	-4.08519054	-50.40884484
7.05	705	-0.076	0.061	1.014	0	0.7448454	-0.1718874	-176.4080386	-4.10810886	-50.40884484
7.06	706	-0.076	0.06	1.014	0	0.7448454	-0.1718874	-176.4080386	-4.11956802	-50.40884484
7.07	707	-0.076	0.06	1.014	0.0572958	0.8021412	-0.1718874	-176.4080386	-4.1252976	-50.40884484
7.08	708	-0.076	0.06	1.014	0	0.9740286	-0.2291832	-176.4080386	-4.13675676	-50.40311526
7.09	709	-0.076	0.06	1.015	0	1.0886202	-0.1718874	-176.4080386	-4.14821592	-50.40311526
7.1	710	-0.076	0.059	1.013	0	1.0313244	-0.2291832	-176.4538753	-4.17113424	-50.40311526
7.11	711	-0.077	0.06	1.012	0	0.9740286	-0.2291832	-176.4538753	-4.1825934	-50.40311526
7.12	712	-0.077	0.059	1.013	0	0.9167328	-0.1718874	-176.4538753	-4.18832298	-50.39738568
7.13	713	-0.077	0.06	1.012	0	0.6875496	-0.1718874	-176.4538753	-4.19405256	-50.39738568
7.14	714	-0.077	0.06	1.012	0	0.6302538	-0.1718874	-176.4538753	-4.20551172	-50.39738568
7.15	715	-0.077	0.06	1.012	0.0572958	0.572958	-0.1145916	-176.5226302	-4.22843004	-50.39738568
7.16	716	-0.077	0.06	1.011	0	0.4583664	-0.1145916	-176.5226302	-4.23415962	-50.3916561
7.17	717	-0.078	0.06	1.013	0	0.3437748	-0.1145916	-176.5226302	-4.23415962	-50.3916561
7.18	718	-0.078	0.06	1.015	-0.0572958	0.1718874	-0.1145916	-176.5226302	-4.2398892	-50.3916561
7.19	719	-0.078	0.059	1.014	0	0.0572958	-0.1718874	-176.5226302	-4.2398892	-50.3916561
7.2	720	-0.077	0.06	1.013	0	0.0572958	-0.1145916	-176.6429514	-4.29145542	-50.38019694
7.21	721	-0.078	0.059	1.014	0	0.2291832	-0.1145916	-176.6429514	-4.29145542	-50.38019694
7.22	722	-0.078	0.06	1.014	0.0572958	0.2291832	-0.1145916	-176.6429514	-4.297185	-50.38019694
7.23	723	-0.077	0.06	1.013	0.0572958	0.2291832	-0.1145916	-176.6429514	-4.297185	-50.38019694
7.24	724	-0.078	0.06	1.012	0.0572958	0.286479	-0.1145916	-176.6429514	-4.30291458	-50.38019694
7.25	725	-0.078	0.06	1.013	0.0572958	0.286479	-0.0572958	-176.6945176	-4.31437374	-50.37446736
7.26	726	-0.077	0.06	1.013	0.0572958	0.286479	-0.1145916	-176.6945176	-4.32010332	-50.37446736
7.27	727	-0.077	0.06	1.013	0.1145916	0.3437748	-0.1145916	-176.6945176	-4.3258329	-50.37446736
7.28	728	-0.077	0.06	1.013	0.0572958	0.4010706	-0.1145916	-176.6945176	-4.3258329	-50.37446736
7.29	729	-0.077	0.06	1.012	0.1145916	0.2291832	0	-176.688788	-4.33156248	-50.37446736
7.3	730	-0.079	0.06	1.013	0	-0.286479	0.0572958	-176.7403543	-4.34875122	-50.37446736
7.31	731	-0.078	0.06	1.012	0.0572958	-0.1145916	0.0572958	-176.7403543	-4.34875122	-50.37446736
7.32	732	-0.078	0.06	1.011	0.1145916	-0.1718874	0.0572958	-176.7403543	-4.34302164	-50.37446736
7.33	733	-0.079	0.06	1.013	0.1145916	-0.2291832	0	-176.7403543	-4.34302164	-50.37446736
7.34	734	-0.078	0.06	1.013	0.0572958	-0.1718874	0	-176.7346247	-4.34302164	-50.37446736
7.35	735	-0.078	0.059	1.014	0.0572958	-0.1718874	0.0572958	-176.7976501	-4.34875122	-50.37446736
7.36	736	-0.079	0.06	1.013	0.0572958	-0.1145916	0.0572958	-176.7976501	-4.34875122	-50.37446736
7.37	737	-0.079	0.06	1.014	0.0572958	-0.1718874	0.0572958	-176.7976501	-4.34302164	-50.37446736
7.38	738	-0.079	0.06	1.013	0.1145916	-0.1718874	0.0572958	-176.7976501	-4.34302164	-50.37446736
7.39	739	-0.079	0.059	1.013	0.1145916	-0.0572958	0.0572958	-176.7976501	-4.34302164	-50.37446736
7.4	740	-0.079	0.06	1.013	0.0572958	0	0	-176.8434867	-4.37739912	-50.37446736
7.41	741	-0.08	0.059	1.014	0	0.1145916	0	-176.8377571	-4.37739912	-50.37446736
7.42	742	-0.08	0.059	1.013	0.1145916	0.0572958	0	-176.8377571	-4.37739912	-50.37446736
7.43	743	-0.08	0.06	1.012	0.1718874	0	0	-176.8377571	-4.37739912	-50.37446736
7.44	744	-0.08	0.06	1.013	0.1718874	0.0572958	0	-176.8320275	-4.37739912	-50.37446736
7.45	745	-0.079	0.06	1.012	0.1145916	0.0572958	0	-176.8835938	-4.40031744	-50.36873778
7.46	746	-0.08	0.06	1.013	0.0572958	0	0	-176.8778642	-4.40031744	-50.36873778
7.47	747	-0.08	0.06	1.014	0.1145916	-0.0572958	0.0572958	-176.8778642	-4.40031744	-50.36873778
7.48	748	-0.079	0.06	1.013	0.1145916	-0.2291832	0.0572958	-176.8778642	-4.40031744	-50.36873778
7.49	749	-0.079	0.06	1.013	0.0572958	-0.2291832	0.0572958	-176.8778642	-4.39458786	-50.37446736
7.5	750	-0.081	0.06	1.013	0.0572958	-0.0572958	0.0572958	-176.8950529	-4.44615408	-50.3630082
7.51	751	-0.082	0.059	1.011	0.0572958	-0.0572958	0.0572958	-176.8950529	-4.44615408	-50.3630082
7.52	752	-0.08	0.06	1.012	0.1145916	-0.1145916	0.0572958	-176.8893233	-4.44615408	-50.3630082
7.53	753	-0.08	0.059	1.013	0.1145916	-0.1718874	0	-176.8893233	-4.4404245	-50.3630082
7.54	754	-0.08	0.058	1.013	0.0572958	-0.1718874	0	-176.8893233	-4.4404245	-50.3630082
7.55	755	-0.081	0.059	1.014	0.0572958	-0.286479	0	-176.9007825	-4.4404245	-50.3630082
7.56	756	-0.079	0.06	1.014	0.0572958	-0.286479	0	-176.9007825	-4.43469492	-50.3630082
7.57	757	-0.081	0.059	1.012	0	-0.286479	0	-176.9007825	-4.43469492	-50.3630082
7.58	758	-0.081	0.06	1.013	0	-0.3437748	0	-176.9007825	-4.42896534	-50.3630082
7.59	759	-0.08	0.059	1.012	0	-0.286479	0	-176.9007825	-4.42896534	-50.3630082
7.6	760	-0.079	0.059	1.011	0	-0.0572958	0	-176.93516	-4.44615408	-50.35727862
7.61	761	-0.08	0.059	1.011	0	0	0.0572958	-176.93516	-4.44615408	-50.3630082
7.62	762	-0.08	0.059	1.013	0	0	0	-176.93516	-4.44615408	-50.3630082
7.63	763	-0.081	0.059	1.017	-0.1718874	-0.0572958	0	-176.93516	-4.4404245	-50.3630082
7.64	764	-0.08	0.059	1.017	-0.1718874	-0.1145916	0	-176.9408896	-4.4404245	-50.35727862
7.65	765	-0.081	0.058	1.016	-0.2291832	0.0572958	0	-176.9466191	-4.44615408	-50.35727862
7.66	766	-0.08	0.06	1.014	-0.1145916	0.4010706	-0.0572958	-176.9523487	-4.45188366	-50.35727862
7.67	767	-0.082	0.059	1.013	-0.1145916	0.572958	0	-176.9523487	-4.45761324	-50.35727862
7.68	768	-0.082	0.06	1.011	-0.1145916	0.6875496	0	-176.9523487	-4.46334282	-50.35727862
7.69	769	-0.081	0.059	1.012	-0.0572958	0.6875496	-0.0572958	-176.9523487	-4.4690724	-50.35727862
7.7	770	-0.082	0.059	1.01	-0.0572958	0.6302538	0	-176.9580783	-4.49199072	-50.35727862
7.71	771	-0.081	0.06	1.01	0	0.5156622	-0.0572958	-176.9580783	-4.4977203	-50.35727862
7.72	772	-0.081	0.059	1.012	0	0.286479	-0.0572958	-176.9580783	-4.4977203	-50.35727862
7.73	773	-0.082	0.059	1.013	0	0.2291832	-0.1145916	-176.9580783	-4.50344988	-50.35154904
7.74	774	-0.081	0.059	1.014	0	0.1718874	-0.0572958	-176.9580783	-4.50344988	-50.35154904
7.75	775	-0.083	0.06	1.014	0.0572958	0.1718874	-0.0572958	-176.9638079	-4.52063862	-50.35154904
7.76	776	-0.082	0.059	1.015	0	0.1718874	-0.0572958	-176.9638079	-4.52063862	-50.35154904
7.77	777	-0.082	0.06	1.013	0.0572958	0.0572958	0	-176.9638079	-4.52063862	-50.35154904
7.78	778	-0.084	0.06	1.013	0.0572958	0.0572958	0	-176.9638079	-4.52063862	-50.35154904
7.79	779	-0.082	0.059	1.013	0	0.1718874	-0.0572958	-176.9638079	-4.5263682	-50.35154904
7.8	780	-0.082	0.059	1.012	0.0572958	0.1145916	0	-176.9924558	-4.5550161	-50.34581946
7.81	781	-0.083	0.059	1.012	0	0.0572958	0	-176.9924558	-4.5550161	-50.34581946
7.82	782	-0.082	0.059	1.012	0.0572958	0.0572958	0	-176.9924558	-4.5550161	-50.34581946
7.83	783	-0.083	0.059	1.011	0.0572958	-0.0572958	0.0572958	-176.9924558	-4.5550161	-50.34581946
7.84	784	-0.083	0.059	1.011	0.0572958	-0.1145916	0.0572958	-176.9867262	-4.5550161	-50.34581946
7.85	785	-0.083	0.059	1.011	0.0572958	-0.2291832	0	-176.9867262	-4.56074568	-50.34581946
7.86	786	-0.083	0.059	1.01	0.0572958	-0.2291832	0.0572958	-176.9867262	-4.56074568	-50.34581946
7.87	787	-0.083	0.06	1.009	0.0572958	-0.3437748	0.0572958	-176.9867262	-4.5550161	-50.34581946
7.88	788	-0.084	0.059	1.011	0.1145916	-0.5156622	0.0572958	-176.9867262	-4.54928652	-50.34581946
7.89	789	-0.084	0.058	1.011	0.1718874	-0.6875496	0.0572958	-176.9809966	-4.54355694	-50.34581946
7.9	790	-0.084	0.059	1.011	0.0572958	-0.8021412	0.0572958	-176.9809966	-4.54355694	-50.34581946
7.91	791	-0.082	0.059	1.014	0.1145916	-0.9167328	0.0572958	-176.9809966	-4.53209778	-50.34581946
7.92	792	-0.083	0.059	1.015	0.1145916	-0.9167328	0.0572958	-176.975267	-4.52063862	-50.34581946
7.93	793	-0.083	0.06	1.014	0.1145916	-0.6875496	0.1145916	-176.975267	-4.51490904	-50.34581946
7.94	794	-0.083	0.059	1.015	0.1718874	-0.572958	0.0572958	-176.975267	-4.50917946	-50.34581946
7.95	795	-0.082	0.059	1.014	0.1718874	-0.5156622	0.0572958	-176.975267	-4.50917946	-50.34581946
7.96	796	-0.082	0.059	1.014	0.1718874	-0.4583664	0.0572958	-176.975267	-4.50344988	-50.34581946
7.97	797	-0.082	0.061	1.013	0.1718874	-0.5156622	0	-176.9695375	-4.4977203	-50.34581946
7.98	798	-0.083	0.059	1.011	0.2291832	-0.5156622	0	-176.9695375	-4.49199072	-50.34581946
7.99	799	-0.083	0.06	1.011	0.2291832	-0.4583664	0.0572958	-176.9638079	-4.49199072	-50.34581946
8	800	-0.082	0.061	1.011	0.286479	-0.4583664	0.0572958	-176.9580783	-4.49199072	-50.34581946
8.01	801	-0.082	0.06	1.013	0.286479	-0.572958	0.0572958	-176.9523487	-4.48626114	-50.34581946
8.02	802	-0.082	0.06	1.013	0.1718874	-0.5156622	0	-176.9523487	-4.48053156	-50.34581946
8.03	803	-0.081	0.06	1.012	0.2291832	-0.4010706	0.0572958	-176.9523487	-4.47480198	-50.34581946
8.04	804	-0.083	0.06	1.013	0.1718874	-0.4583664	0.0572958	-176.9466191	-4.4690724	-50.34581946
8.05	805	-0.082	0.06	1.014	0.2291832	-0.5156622	0.0572958	-176.9466191	-4.4690724	-50.34581946
8.06	806	-0.082	0.059	1.014	0.2291832	-0.4583664	0	-176.9466191	-4.4690724	-50.34581946
8.07	807	-0.082	0.059	1.013	0.1718874	-0.3437748	0.0572958	-176.9408896	-4.46334282	-50.34581946
8.08	808	-0.083	0.06	1.013	0.1145916	-0.2291832	0	-176.9408896	-4.45761324	-50.34581946
8.09	809	-0.083	0.059	1.013	0.1718874	-0.1718874	0	-176.9408896	-4.45761324	-50.34581946
8.1	810	-0.083	0.06	1.014	0.0572958	-0.0572958	0	-176.93516	-4.48626114	-50.34008988
8.11	811	-0.083	0.06	1.013	0	0	0	-176.93516	-4.49199072	-50.34008988
8.12	812	-0.082	0.06	1.012	0	0.1145916	0	-176.93516	-4.49199072	-50.34008988
8.13	813	-0.082	0.061	1.013	0	0.0572958	0	-176.93516	-4.49199072	-50.34008988
8.14	814	-0.083	0.06	1.012	0.0572958	0.0572958	0	-176.93516	-4.49199072	-50.34008988
8.15	815	-0.082	0.06	1.012	0	0	0	-176.9466191	-4.5263682	-50.3343603
8.16	816	-0.083	0.06	1.012	0.0572958	0	0	-176.9466191	-4.5263682	-50.3343603
8.17	817	-0.083	0.06	1.012	0.0572958	0	-0.0572958	-176.9466191	-4.5263682	-50.3343603
8.18	818	-0.083	0.06	1.013	0.0572958	0	0	-176.9466191	-4.5263682	-50.3343603
8.19	819	-0.083	0.06	1.014	0.0572958	-0.1145916	0	-176.9408896	-4.5263682	-50.3343603
8.2	820	-0.083	0.061	1.014	0	-0.0572958	0	-176.9408896	-4.58939358	-50.32863072
8.21	821	-0.083	0.06	1.012	0	-0.0572958	0	-176.9408896	-4.58939358	-50.32863072
8.22	822	-0.083	0.06	1.012	0	0	0	-176.9408896	-4.58939358	-50.32863072
8.23	823	-0.083	0.061	1.012	0	0	0	-176.9408896	-4.58939358	-50.32863072
8.24	824	-0.083	0.06	1.012	0	0	-0.0572958	-176.9408896	-4.58939358	-50.32290114
8.25	825	-0.083	0.061	1.012	0	0.1145916	0	-176.93516	-4.59512316	-50.32290114
8.26	826	-0.084	0.06	1.013	0	0.0572958	0	-176.93516	-4.59512316	-50.32290114
8.27	827	-0.082	0.06	1.013	0	0.0572958	0	-176.93516	-4.59512316	-50.32290114
8.28	828	-0.083	0.06	1.012	0	0	0	-176.93516	-4.59512316	-50.32290114
8.29	829	-0.083	0.06	1.013	0	0	0	-176.93516	-4.59512316	-50.32290114
8.3	830	-0.083	0.061	1.012	-0.0572958	0	0	-176.9237008	-4.60085274	-50.32290114
8.31	831	-0.083	0.061	1.012	-0.0572958	0	0	-176.9294304	-4.60085274	-50.32290114
8.32	832	-0.083	0.061	1.012	0	0	0	-176.9294304	-4.60085274	-50.32290114
8.33	833	-0.083	0.06	1.012	0	0	0	-176.9294304	-4.60085274	-50.32290114
8.34	834	-0.083	0.061	1.014	-0.0572958	0.0572958	0	-176.9294304	-4.60085274	-50.32290114
8.35	835	-0.083	0.06	1.013	0	0.0572958	0	-176.9237008	-4.6123119	-50.32290114
8.36	836	-0.083	0.061	1.013	-0.0572958	0	0	-176.9294304	-4.6123119	-50.32290114
8.37	837	-0.083	0.06	1.013	0	0	0	-176.9294304	-4.6123119	-50.32290114
8.38	838	-0.083	0.061	1.011	0.0572958	0	0	-176.9237008	-4.6123119	-50.32290114
8.39	839	-0.083	0.061	1.011	0	0.1145916	0	-176.9237008	-4.61804148	-50.32290114
8.4	840	-0.084	0.06	1.012	-0.0572958	0	0	-176.9179712	-4.63523022	-50.32290114
8.41	841	-0.084	0.061	1.014	0	-0.1145916	0	-176.9179712	-4.63523022	-50.32290114
8.42	842	-0.083	0.061	1.014	-0.1145916	0	0	-176.9179712	-4.63523022	-50.32290114
8.43	843	-0.083	0.061	1.011	-0.0572958	-0.0572958	0	-176.9179712	-4.63523022	-50.32290114
8.44	844	-0.084	0.06	1.012	-0.1145916	-0.0572958	0	-176.9179712	-4.62950064	-50.32290114
8.45	845	-0.083	0.06	1.011	0	0	0	-176.9179712	-4.63523022	-50.32290114
8.46	846	-0.083	0.061	1.01	0	0	0	-176.9179712	-4.63523022	-50.32290114
8.47	847	-0.083	0.06	1.012	0	0.1145916	0.0572958	-176.9179712	-4.6409598	-50.32290114
8.48	848	-0.084	0.06	1.015	-0.1718874	0	0	-176.9237008	-4.63523022	-50.32290114
8.49	849	-0.084	0.06	1.015	-0.286479	-0.0572958	0	-176.9237008	-4.63523022	-50.32290114
8.5	850	-0.083	0.06	1.017	-0.2291832	-0.0572958	0	-176.93516	-4.6409598	-50.32290114
8.51	851	-0.084	0.06	1.016	-0.0572958	0.2291832	0.0572958	-176.93516	-4.6409598	-50.32290114
8.52	852	-0.083	0.06	1.012	0.1145916	0.5156622	0.0572958	-176.93516	-4.64668938	-50.32290114
8.53	853	-0.084	0.061	1.011	0.1145916	0.572958	0	-176.9294304	-4.65241896	-50.32290114
8.54	854	-0.085	0.061	1.01	0.0572958	0.4583664	0	-176.9294304	-4.65814854	-50.32290114
8.55	855	-0.084	0.061	1.012	0	0.4583664	0	-176.9294304	-4.66387812	-50.32290114
8.56	856	-0.084	0.061	1.01	0.1145916	0.4010706	0	-176.9294304	-4.6696077	-50.32863072
8.57	857	-0.083	0.061	1.011	0.0572958	0.2291832	0	-176.9237008	-4.67533728	-50.32863072
8.58	858	-0.084	0.061	1.011	0	0.0572958	0	-176.9237008	-4.67533728	-50.32863072
8.59	859	-0.084	0.062	1.012	0	0	0	-176.9237008	-4.67533728	-50.32863072
8.6	860	-0.084	0.061	1.014	0	0	0	-176.9237008	-4.67533728	-50.32863072
8.61	861	-0.084	0.062	1.014	-0.0572958	0	0	-176.9237008	-4.67533728	-50.32863072
8.62	862	-0.084	0.061	1.015	0	0	0	-176.9237008	-4.67533728	-50.32863072
8.63	863	-0.084	0.061	1.015	0	0	0	-176.9237008	-4.67533728	-50.32863072
8.64	864	-0.084	0.062	1.014	0	0	0	-176.9237008	-4.67533728	-50.32863072
8.65	865	-0.084	0.061	1.014	0	0.1145916	-0.0572958	-176.9237008	-4.67533728	-50.32863072
8.66	866	-0.083	0.061	1.012	-0.1145916	0.2291832	0	-176.9237008	-4.68106686	-50.32863072
8.67	867	-0.084	0.06	1.012	-0.1718874	0.2291832	0	-176.9237008	-4.68106686	-50.32863072
8.68	868	-0.084	0.06	1.012	-0.2291832	0.1718874	0	-176.9294304	-4.68679644	-50.32863072
8.69	869	-0.084	0.061	1.013	-0.1718874	0	0	-176.9294304	-4.68679644	-50.32863072
8.7	870	-0.085	0.061	1.011	-0.1718874	-0.0572958	0	-176.93516	-4.68679644	-50.32863072
8.71	871	-0.085	0.059	1.012	-0.2291832	0	0	-176.93516	-4.68679644	-50.32863072
8.72	872	-0.084	0.06	1.011	-0.0572958	-0.0572958	0	-176.93516	-4.68679644	-50.32290114
8.73	873	-0.084	0.06	1.012	-0.0572958	0	0	-176.93516	-4.68679644	-50.32290114
8.74	874	-0.084	0.06	1.013	-0.1718874	-0.0572958	0	-176.9408896	-4.68679644	-50.32290114
8.75	875	-0.085	0.059	1.013	-0.2291832	-0.1145916	0	-176.9466191	-4.68679644	-50.32290114
8.76	876	-0.084	0.061	1.014	-0.2291832	-0.0572958	0	-176.9466191	-4.68679644	-50.32290114
8.77	877	-0.085	0.06	1.014	-0.2291832	-0.1145916	0	-176.9523487	-4.68679644	-50.32290114
8.78	878	-0.085	0.061	1.014	-0.2291832	-0.0572958	-0.0572958	-176.9523487	-4.68679644	-50.32290114
8.79	879	-0.085	0.061	1.014	-0.1145916	-0.0572958	0	-176.9523487	-4.68679644	-50.32290114
8.8	880	-0.085	0.061	1.014	-0.1718874	0	-0.0572958	-176.9523487	-4.68679644	-50.32290114
8.81	881	-0.084	0.06	1.012	-0.1718874	0.0572958	0	-176.9580783	-4.69252602	-50.32290114
8.82	882	-0.086	0.062	1.013	-0.1718874	0	-0.0572958	-176.9580783	-4.69252602	-50.32290114
8.83	883	-0.086	0.061	1.012	-0.0572958	0.0572958	0	-176.9580783	-4.69252602	-50.32290114
8.84	884	-0.085	0.061	1.011	-0.1145916	0.0572958	0	-176.9580783	-4.69252602	-50.32290114
8.85	885	-0.085	0.061	1.012	-0.0572958	0.0572958	0	-176.9580783	-4.70971476	-50.31717156
8.86	886	-0.086	0.06	1.013	-0.1145916	0.0572958	0	-176.9580783	-4.70971476	-50.31717156
8.87	887	-0.085	0.061	1.013	-0.1145916	0	-0.0572958	-176.9580783	-4.70971476	-50.31717156
8.88	888	-0.085	0.06	1.012	-0.1145916	-0.1145916	0	-176.9580783	-4.70971476	-50.31717156
8.89	889	-0.085	0.061	1.012	-0.1145916	-0.1145916	0	-176.9638079	-4.70971476	-50.31717156
8.9	890	-0.085	0.06	1.012	-0.0572958	-0.1718874	0	-176.9580783	-4.71544434	-50.31717156
