TimeStamp(s)	FrameCounter	AccX	AccY	AccZ	GyrX	GyrY	GyrZ	EulerX	EulerY	EulerZ
0.01	1	0.024	-0.96	0.079	20.340009	-3.3804522	0.6875496	63.82179162	4.02216516	-38.62309878
0.02	2	-0.011	-0.957	0.314	4.297185	-1.3750992	0	63.86189868	4.01643558	-38.63455794
0.03	3	-0.01	-0.959	0.314	4.297185	-1.2605076	-0.1145916	63.90773532	4.010706	-38.6460171
0.04	4	-0.01	-0.957	0.315	4.3544808	-1.3750992	0	63.95357196	4.00497642	-38.65747626
0.05	5	-0.009	-0.957	0.318	4.297185	-1.4896908	0.0572958	64.82446812	3.6382833	-38.32516062
0.06	6	-0.006	-0.957	0.316	4.2398892	-1.5469866	0.1145916	64.87030476	3.63255372	-38.33661978
0.07	7	-0.006	-0.96	0.312	4.1252976	-1.7761698	0	64.91041182	3.62682414	-38.35380852
0.08	8	-0.007	-0.964	0.306	4.010706	-1.6042824	0	64.95051888	3.62109456	-38.37099726
0.09	9	-0.01	-0.964	0.306	3.6096354	-1.2032118	0.0572958	64.98489636	3.61536498	-38.37672684
0.1	10	-0.012	-0.962	0.306	3.2658606	-0.9740286	0	66.09643488	3.14553942	-37.9584675
0.11	11	-0.015	-0.961	0.308	3.2658606	-0.9167328	-0.0572958	66.12508278	3.14553942	-37.96419708
0.12	12	-0.014	-0.962	0.308	3.2085648	-0.9167328	-0.2291832	66.15946026	3.14553942	-37.97565624
0.13	13	-0.012	-0.96	0.306	3.3231564	-0.859437	-0.2291832	66.19383774	3.14553942	-37.9871154
0.14	14	-0.007	-0.962	0.304	3.437748	-0.9167328	-0.1718874	66.22821522	3.14553942	-37.99284498
0.15	15	-0.005	-0.958	0.304	3.4950438	-1.2605076	-0.1145916	67.04181558	2.84187168	-37.72355472
0.16	16	-0.004	-0.954	0.309	3.6096354	-1.145916	-0.1145916	67.08192264	2.84187168	-37.73501388
0.17	17	-0.007	-0.954	0.31	3.7815228	-1.3750992	-0.286479	67.11630012	2.8361421	-37.75220262
0.18	18	-0.01	-0.953	0.315	4.1825934	-1.4896908	-0.4010706	67.15640718	2.8361421	-37.76366178
0.19	19	-0.012	-0.954	0.32	4.4690724	-1.2605076	-0.572958	67.20224382	2.84187168	-37.78085052
0.2	20	-0.015	-0.953	0.322	4.7555514	-0.6302538	-0.6302538	67.93563006	2.578311	-37.54593774
0.21	21	-0.017	-0.955	0.322	4.9847346	0	-0.7448454	67.98719628	2.58404058	-37.55166732
0.22	22	-0.019	-0.955	0.326	5.2712136	0.5156622	-0.8021412	68.0387625	2.59549974	-37.54593774
0.23	23	-0.021	-0.955	0.326	5.3858052	1.145916	-0.8021412	68.0960583	2.6069589	-37.54020816
0.24	24	-0.022	-0.957	0.324	5.6149884	1.5469866	-0.859437	68.1533541	2.62414764	-37.528749
0.25	25	-0.018	-0.961	0.323	5.3285094	2.4637194	-0.9740286	68.68047546	2.45798982	-37.34540244
0.26	26	-0.016	-0.962	0.323	5.2139178	2.86479	-1.0313244	68.73777126	2.48090814	-37.32248412
0.27	27	-0.012	-0.961	0.323	5.156622	2.86479	-1.0886202	68.78933748	2.49809688	-37.2995658
0.28	28	-0.009	-0.958	0.324	4.9847346	2.4064236	-1.145916	68.8409037	2.5210152	-37.28237706
0.29	29	-0.007	-0.958	0.33	4.870143	1.9480572	-1.2032118	68.89246992	2.53820394	-37.26518832
0.3	30	-0.008	-0.958	0.333	4.583664	1.8334656	-1.2605076	69.48261666	2.36631654	-37.08184176
0.31	31	-0.012	-0.96	0.335	4.4690724	1.9480572	-1.3750992	69.5284533	2.38923486	-37.06465302
0.32	32	-0.013	-0.962	0.333	4.4690724	2.1199446	-1.2605076	69.57428994	2.4064236	-37.04746428
0.33	33	-0.014	-0.961	0.332	4.297185	2.1199446	-1.145916	69.62012658	2.42934192	-37.03600512
0.34	34	-0.014	-0.96	0.334	4.3544808	2.0626488	-1.2032118	69.66596322	2.44653066	-37.01881638
0.35	35	-0.012	-0.958	0.331	4.1825934	2.1199446	-1.145916	70.26183954	2.26891368	-36.82974024
0.36	36	-0.014	-0.961	0.327	4.010706	2.005353	-1.2605076	70.3019466	2.291832	-36.8125515
0.37	37	-0.015	-0.963	0.33	3.6669312	2.2345362	-1.2605076	70.34205366	2.30902074	-36.79536276
0.38	38	-0.015	-0.964	0.331	3.2658606	2.5210152	-1.2605076	70.37643114	2.33193906	-36.77817402
0.39	39	-0.015	-0.963	0.331	2.86479	2.8074942	-1.2032118	70.40507904	2.3491278	-36.7552557
0.4	40	-0.011	-0.961	0.328	2.6356068	2.8074942	-1.0313244	71.09835822	2.1485925	-36.53753166
0.41	41	-0.009	-0.959	0.329	2.5210152	2.3491278	-1.0313244	71.12127654	2.16578124	-36.51461334
0.42	42	-0.008	-0.957	0.328	2.3491278	2.1772404	-0.9740286	71.14419486	2.18296998	-36.4974246
0.43	43	-0.008	-0.958	0.328	2.2345362	2.005353	-0.9740286	71.16711318	2.20015872	-36.48023586
0.44	44	-0.007	-0.961	0.327	2.1772404	1.9480572	-1.0886202	71.1900315	2.21734746	-36.46304712
0.45	45	-0.008	-0.961	0.327	2.0626488	1.6042824	-1.0886202	72.0781164	1.95951636	-36.2109456
0.46	46	-0.011	-0.959	0.33	1.9480572	1.3178034	-1.0886202	72.09530514	1.97097552	-36.20521602
0.47	47	-0.014	-0.957	0.335	2.005353	1.432395	-0.9740286	72.11822346	1.98816426	-36.19375686
0.48	48	-0.012	-0.96	0.333	1.9480572	2.1772404	-0.9740286	72.14114178	2.005353	-36.17656812
0.49	49	-0.007	-0.962	0.327	1.6042824	2.578311	-0.8021412	72.15833052	2.01681216	-36.1536498
0.5	50	-0.004	-0.961	0.328	1.3178034	2.0626488	-0.7448454	73.14381828	1.75898106	-35.89008912
0.51	51	-0.004	-0.962	0.327	1.2605076	1.7761698	-0.859437	73.16100702	1.7761698	-35.87290038
0.52	52	-0.004	-0.963	0.323	1.0886202	1.8907614	-0.9167328	73.17246618	1.78762896	-35.85571164
0.53	53	-0.005	-0.962	0.322	0.6875496	2.005353	-0.7448454	73.17819576	1.79908812	-35.8385229
0.54	54	-0.002	-0.959	0.322	0.2291832	1.718874	-0.572958	73.18392534	1.81054728	-35.82706374
0.55	55	0	-0.955	0.326	0.0572958	0.8021412	-0.5156622	76.06590408	1.10007936	-35.17389162
0.56	56	0	-0.955	0.33	0.4010706	-0.0572958	-0.4583664	76.06590408	1.10580894	-35.17389162
0.57	57	-0.003	-0.955	0.335	0.6302538	-0.4010706	-0.4010706	76.07163366	1.10580894	-35.1796212
0.58	58	-0.005	-0.954	0.34	0.572958	-0.1718874	-0.3437748	76.08309282	1.11153852	-35.18535078
0.59	59	-0.005	-0.954	0.339	0.6302538	0.1145916	-0.286479	76.0888224	1.11153852	-35.18535078
0.6	60	-0.004	-0.956	0.336	0.6875496	0.1718874	-0.2291832	78.50097558	0.59587632	-34.73844354
0.61	61	-0.007	-0.958	0.329	0.6302538	0.0572958	-0.2291832	78.50670516	0.6016059	-34.73844354
0.62	62	-0.008	-0.956	0.328	0.6302538	-0.1145916	-0.4010706	78.51816432	0.60733548	-34.73844354
0.63	63	-0.009	-0.953	0.33	0.6875496	-0.1145916	-0.3437748	78.5238939	0.60733548	-34.74417312
0.64	64	-0.008	-0.954	0.333	0.9740286	-0.2291832	-0.3437748	78.53535306	0.61306506	-34.74417312
0.65	65	-0.008	-0.955	0.331	1.0886202	-0.3437748	-0.286479	79.94482974	0.34950438	-34.53217866
0.66	66	-0.008	-0.954	0.332	1.0886202	-0.1145916	-0.4583664	79.9562889	0.35523396	-34.53217866
0.67	67	-0.008	-0.956	0.331	1.2605076	-0.1145916	-0.4010706	79.96774806	0.36096354	-34.53790824
0.68	68	-0.009	-0.958	0.332	1.3178034	-0.0572958	-0.4010706	79.97920722	0.36669312	-34.53790824
0.69	69	-0.011	-0.96	0.332	1.3750992	0	-0.4583664	79.99639596	0.36669312	-34.53790824
0.7	70	-0.012	-0.96	0.333	1.2032118	0.3437748	-0.6302538	81.10793448	0.18334656	-34.37748
0.71	71	-0.01	-0.957	0.333	1.2605076	0.8021412	-0.5156622	81.11939364	0.18907614	-34.37175042
0.72	72	-0.01	-0.954	0.334	1.3750992	0.859437	-0.5156622	81.13658238	0.19480572	-34.36602084
0.73	73	-0.012	-0.954	0.337	1.4896908	1.2032118	-0.572958	81.14804154	0.20626488	-34.35456168
0.74	74	-0.014	-0.958	0.335	1.5469866	1.6042824	-0.6302538	81.16523028	0.21199446	-34.33737294
0.75	75	-0.014	-0.96	0.332	1.3178034	1.8907614	-0.6302538	81.85277988	0.10313244	-34.22851092
0.76	76	-0.01	-0.963	0.329	1.0313244	2.1772404	-0.6302538	81.86423904	0.1145916	-34.21132218
0.77	77	-0.008	-0.963	0.327	0.4010706	2.005353	-0.5156622	81.86423904	0.12032118	-34.18840386
0.78	78	-0.008	-0.963	0.328	0.0572958	1.6042824	-0.572958	81.86996862	0.13178034	-34.1769447
0.79	79	-0.01	-0.965	0.331	-0.286479	1.3750992	-0.6302538	81.86423904	0.13750992	-34.15975596
0.8	80	-0.012	-0.964	0.329	-0.6875496	1.432395	-0.572958	82.65492108	0.02291832	-34.05089394
0.81	81	-0.013	-0.962	0.327	-0.9167328	1.7761698	-0.6875496	82.64346192	0.0286479	-34.0337052
0.82	82	-0.013	-0.96	0.326	-1.0886202	1.9480572	-0.6875496	82.63200276	0.04010706	-34.01651646
0.83	83	-0.014	-0.96	0.326	-1.145916	2.0626488	-0.7448454	82.6205436	0.04583664	-33.99932772
0.84	84	-0.016	-0.959	0.329	-1.2605076	2.3491278	-0.859437	82.60908444	0.0572958	-33.9764094
0.85	85	-0.016	-0.959	0.33	-1.2605076	2.6356068	-0.859437	83.07318042	0	-33.8904657
0.86	86	-0.015	-0.958	0.33	-1.3750992	3.0366774	-0.9740286	83.06172126	0.00572958	-33.8618178
0.87	87	-0.012	-0.959	0.33	-1.5469866	3.2658606	-0.9740286	83.04453252	0.01718874	-33.8331699
0.88	88	-0.008	-0.958	0.327	-1.5469866	3.151269	-0.7448454	83.02734378	0.0286479	-33.804522
0.89	89	-0.005	-0.957	0.327	-1.6042824	2.9220858	-0.8021412	83.01015504	0.04010706	-33.7758741
0.9	90	-0.004	-0.96	0.323	-1.5469866	2.7501984	-0.7448454	83.47425102	0	-33.70138956
0.91	91	-0.006	-0.961	0.323	-1.5469866	2.578311	-0.6302538	83.45706228	0.00572958	-33.67847124
0.92	92	-0.008	-0.961	0.325	-1.6042824	2.578311	-0.5156622	83.43987354	0.01145916	-33.64982334
0.93	93	-0.01	-0.962	0.327	-1.5469866	2.6929026	-0.572958	83.4226848	0.01718874	-33.62690502
0.94	94	-0.009	-0.961	0.326	-1.5469866	2.6929026	-0.5156622	83.40549606	0.0286479	-33.59825712
0.95	95	-0.006	-0.96	0.326	-1.432395	2.6356068	-0.4010706	83.92688784	-0.01718874	-33.52377258
0.96	96	-0.004	-0.96	0.323	-1.4896908	2.578311	-0.3437748	83.9096991	-0.01145916	-33.50085426
0.97	97	-0.003	-0.96	0.322	-1.3178034	2.3491278	-0.4010706	83.89251036	-0.00572958	-33.47793594
0.98	98	-0.005	-0.963	0.321	-1.5469866	2.2345362	-0.3437748	83.8810512	0	-33.45501762
0.99	99	-0.004	-0.962	0.321	-1.6615782	2.1199446	-0.1718874	83.86386246	0	-33.43782888
1	100	-0.004	-0.96	0.32	-1.7761698	1.8334656	-0.0572958	84.46546836	-0.0572958	-33.36334434
1.01	101	-0.004	-0.959	0.321	-1.718874	1.6615782	0	84.44827962	-0.0572958	-33.3461556
1.02	102	-0.005	-0.956	0.321	-1.6615782	1.432395	-0.1145916	84.43109088	-0.05156622	-33.33469644
1.03	103	-0.006	-0.956	0.321	-1.6042824	1.2605076	-0.1145916	84.41390214	-0.05156622	-33.32323728
1.04	104	-0.005	-0.955	0.324	-1.5469866	1.145916	0	84.40244298	-0.05156622	-33.31177812
1.05	105	-0.005	-0.955	0.323	-1.3750992	0.7448454	0.0572958	85.38220116	-0.1432395	-33.22583442
1.06	106	-0.006	-0.955	0.321	-1.3178034	0.5156622	0.1718874	85.36501242	-0.1432395	-33.22010484
1.07	107	-0.009	-0.956	0.322	-1.3178034	0.3437748	0.286479	85.35355326	-0.14896908	-33.21437526
1.08	108	-0.01	-0.957	0.322	-1.4896908	0.3437748	0.3437748	85.33636452	-0.14896908	-33.20864568
1.09	109	-0.01	-0.958	0.322	-1.6615782	0.5156622	0.286479	85.31917578	-0.15469866	-33.2029161
1.1	110	-0.01	-0.957	0.323	-1.5469866	0.3437748	0.3437748	86.2015311	-0.24637194	-33.13416114
1.11	111	-0.01	-0.954	0.325	-1.3178034	0.286479	0.286479	86.18434236	-0.24637194	-33.12843156
1.12	112	-0.013	-0.954	0.328	-0.9167328	0.286479	0.1718874	86.17861278	-0.24637194	-33.12843156
1.13	113	-0.013	-0.954	0.33	-0.6875496	0.7448454	0.1145916	86.16715362	-0.25210152	-33.1169724
1.14	114	-0.014	-0.953	0.332	-0.572958	1.145916	0.0572958	86.16142404	-0.25210152	-33.10551324
1.15	115	-0.015	-0.952	0.336	-0.572958	1.3178034	0	87.15264138	-0.36096354	-33.01956954
1.16	116	-0.015	-0.95	0.341	-0.3437748	1.6042824	0	87.1469118	-0.36096354	-33.0023808
1.17	117	-0.013	-0.951	0.345	0	2.5210152	0.0572958	87.1469118	-0.36096354	-32.97946248
1.18	118	-0.008	-0.954	0.343	0.286479	3.2085648	0.1718874	87.1469118	-0.36096354	-32.945085
1.19	119	-0.002	-0.955	0.344	0.1145916	2.86479	0.1718874	87.1469118	-0.36096354	-32.9164371
1.2	120	0	-0.958	0.341	-0.286479	2.1772404	0.2291832	87.90894594	-0.38961144	-32.8591413
1.21	121	-0.002	-0.961	0.337	-0.859437	1.6615782	0.1718874	87.89748678	-0.39534102	-32.84195256
1.22	122	-0.003	-0.964	0.336	-1.2032118	1.718874	0.4010706	87.88602762	-0.39534102	-32.82476382
1.23	123	-0.003	-0.963	0.336	-1.7761698	1.3750992	0.6302538	87.86883888	-0.40680018	-32.81330466
1.24	124	-0.005	-0.963	0.335	-2.0626488	0.4010706	0.7448454	87.84592056	-0.41252976	-32.80757508
1.25	125	-0.008	-0.962	0.338	-2.0626488	-0.572958	0.7448454	88.34439402	-0.45263682	-32.79038634
1.26	126	-0.009	-0.96	0.341	-2.0626488	-0.6875496	0.7448454	88.3214757	-0.4583664	-32.79611592
1.27	127	-0.009	-0.957	0.337	-2.1199446	-0.2291832	0.6875496	88.29855738	-0.46409598	-32.79611592
1.28	128	-0.008	-0.959	0.334	-2.1772404	0	0.859437	88.27563906	-0.47555514	-32.79611592
1.29	129	-0.008	-0.957	0.331	-3.151269	0	0.859437	88.24699116	-0.48128472	-32.8018455
1.3	130	-0.009	-0.954	0.334	-4.1252976	-0.8021412	0.859437	88.50482226	-0.50993262	-32.79038634
1.31	131	-0.009	-0.954	0.338	-4.1825934	-1.0313244	0.7448454	88.4647152	-0.52139178	-32.8018455
1.32	132	-0.009	-0.96	0.329	-3.7815228	-0.9167328	0.7448454	88.42460814	-0.52712136	-32.81330466
1.33	133	-0.009	-0.966	0.322	-3.8388186	-0.9167328	0.7448454	88.39023066	-0.53858052	-32.82476382
1.34	134	-0.008	-0.967	0.318	-4.1252976	-0.8021412	0.6875496	88.34439402	-0.5443101	-32.8304934
1.35	135	-0.009	-0.964	0.317	-4.0680018	-0.859437	0.6302538	88.62514344	-0.56722842	-32.82476382
1.36	136	-0.007	-0.961	0.317	-3.7815228	-0.6302538	0.4010706	88.58503638	-0.56722842	-32.83622298
1.37	137	-0.007	-0.96	0.313	-3.3231564	-0.572958	0.4010706	88.55638848	-0.572958	-32.84195256
1.38	138	-0.008	-0.96	0.31	-3.0939732	-0.6302538	0.286479	88.522011	-0.57868758	-32.84768214
1.39	139	-0.007	-0.96	0.311	-3.0939732	-0.572958	0.286479	88.4933631	-0.57868758	-32.85341172
1.4	140	-0.007	-0.962	0.31	-3.0939732	-0.6302538	0.4010706	88.86005622	-0.59587632	-32.84768214
1.41	141	-0.006	-0.962	0.307	-3.3231564	-0.8021412	0.4583664	88.82567874	-0.6016059	-32.85341172
1.42	142	-0.008	-0.963	0.305	-3.437748	-1.145916	0.4583664	88.79130126	-0.60733548	-32.86487088
1.43	143	-0.008	-0.963	0.301	-3.3231564	-1.2605076	0.4010706	88.75692378	-0.60733548	-32.88205962
1.44	144	-0.013	-0.964	0.301	-3.2085648	-1.0313244	0.286479	88.7225463	-0.61306506	-32.89351878
1.45	145	-0.012	-0.962	0.301	-3.2085648	-0.572958	0.2291832	89.11788732	-0.63598338	-32.88205962
1.46	146	-0.012	-0.96	0.3	-3.2085648	-0.3437748	0.1145916	89.08350984	-0.63598338	-32.88205962
1.47	147	-0.012	-0.961	0.302	-3.2085648	-0.2291832	0.1145916	89.05486194	-0.64171296	-32.8877892
1.48	148	-0.011	-0.963	0.305	-3.151269	-0.1145916	0.1145916	89.02048446	-0.64171296	-32.8877892
1.49	149	-0.011	-0.964	0.308	-3.0939732	0	0.1718874	88.98610698	-0.64171296	-32.8877892
1.5	150	-0.011	-0.963	0.309	-2.9220858	0.2291832	0.1718874	89.45020296	-0.66463128	-32.87060046
1.51	151	-0.01	-0.963	0.308	-2.578311	0.1145916	0.286479	89.42155506	-0.67036086	-32.87060046
1.52	152	-0.009	-0.962	0.308	-2.3491278	0	0.286479	89.39863674	-0.67036086	-32.87060046
1.53	153	-0.009	-0.963	0.307	-2.291832	-0.2291832	0.3437748	89.37571842	-0.67609044	-32.87060046
1.54	154	-0.01	-0.962	0.309	-2.1772404	-0.6302538	0.4010706	89.3528001	-0.68182002	-32.87633004
1.55	155	-0.01	-0.962	0.308	-2.005353	-0.859437	0.4583664	89.80543692	-0.69900876	-32.87060046
1.56	156	-0.014	-0.963	0.308	-2.0626488	-0.859437	0.4010706	89.7825186	-0.70473834	-32.88205962
1.57	157	-0.016	-0.964	0.311	-2.1772404	-0.5156622	0.3437748	89.75960028	-0.70473834	-32.8877892
1.58	158	-0.018	-0.965	0.31	-2.1772404	-0.1718874	0.1718874	89.73668196	-0.71046792	-32.8877892
1.59	159	-0.016	-0.965	0.306	-2.005353	0.2291832	0.1718874	89.71949322	-0.71046792	-32.8877892
1.6	160	-0.016	-0.967	0.305	-1.9480572	0.4583664	0.2291832	90.21796668	-0.73911582	-32.86487088
1.61	161	-0.014	-0.964	0.307	-2.005353	0.6875496	0.1145916	90.20077794	-0.73911582	-32.8591413
1.62	162	-0.014	-0.965	0.31	-2.4064236	0.6302538	0.2291832	90.17785962	-0.7448454	-32.84768214
1.63	163	-0.014	-0.963	0.31	-2.86479	0.5156622	0.2291832	90.14348214	-0.7448454	-32.84768214
1.64	164	-0.013	-0.961	0.31	-3.0366774	0.3437748	0.286479	90.11483424	-0.75057498	-32.84195256
1.65	165	-0.013	-0.961	0.306	-3.0366774	0.286479	0.3437748	90.50444568	-0.76776372	-32.82476382
1.66	166	-0.016	-0.965	0.303	-3.2085648	0.1718874	0.2291832	90.4700682	-0.7734933	-32.82476382
1.67	167	-0.017	-0.966	0.301	-3.3804522	0.4010706	0.0572958	90.43569072	-0.7734933	-32.81903424
1.68	168	-0.02	-0.965	0.301	-3.437748	0.8021412	-0.1145916	90.40131324	-0.7734933	-32.81330466
1.69	169	-0.021	-0.964	0.303	-3.437748	1.145916	-0.3437748	90.36693576	-0.76776372	-32.8018455
1.7	170	-0.019	-0.964	0.303	-3.2085648	1.145916	-0.4010706	90.6419556	-0.78495246	-32.77892718
1.71	171	-0.016	-0.966	0.304	-3.151269	1.2605076	-0.572958	90.6133077	-0.77922288	-32.76746802
1.72	172	-0.016	-0.965	0.306	-3.437748	1.718874	-0.8021412	90.57320064	-0.7734933	-32.75027928
1.73	173	-0.014	-0.963	0.304	-3.6096354	1.9480572	-0.8021412	90.53882316	-0.76776372	-32.72736096
1.74	174	-0.014	-0.964	0.301	-3.6096354	2.1199446	-0.8021412	90.4987161	-0.76203414	-32.71017222
1.75	175	-0.013	-0.965	0.298	-3.6096354	2.291832	-0.6302538	90.69352182	-0.76203414	-32.68152432
1.76	176	-0.013	-0.968	0.295	-3.6096354	2.1199446	-0.572958	90.65914434	-0.75630456	-32.658606
1.77	177	-0.011	-0.971	0.295	-3.8961144	1.718874	-0.572958	90.61903728	-0.75057498	-32.64141726
1.78	178	-0.013	-0.969	0.294	-4.010706	1.3750992	-0.4583664	90.57893022	-0.7448454	-32.6299581
1.79	179	-0.013	-0.968	0.29	-3.9534102	1.0886202	-0.5156622	90.53882316	-0.73911582	-32.61849894
1.8	180	-0.012	-0.97	0.285	-3.8388186	0.9167328	-0.4583664	90.77373594	-0.73911582	-32.60703978
1.81	181	-0.012	-0.972	0.283	-4.1252976	0.5156622	-0.4583664	90.73362888	-0.73338624	-32.6013102
1.82	182	-0.014	-0.971	0.281	-4.7555514	0.3437748	-0.4010706	90.68206266	-0.73338624	-32.59558062
1.83	183	-0.02	-0.966	0.282	-5.0420304	0.4010706	-0.3437748	90.63049644	-0.72765666	-32.58985104
1.84	184	-0.024	-0.967	0.282	-5.2712136	1.0886202	-0.286479	90.57893022	-0.72765666	-32.58412146
1.85	185	-0.022	-0.97	0.284	-6.1306506	2.4064236	-0.286479	90.66487392	-0.73338624	-32.55547356
1.86	186	-0.018	-0.971	0.284	-6.8182002	2.8074942	-0.3437748	90.59611896	-0.73338624	-32.52682566
1.87	187	-0.015	-0.976	0.281	-7.2192708	2.86479	-0.4583664	90.52163442	-0.72765666	-32.49817776
1.88	188	-0.014	-0.98	0.272	-7.5057498	2.9220858	-0.4010706	90.4414203	-0.72765666	-32.46952986
1.89	189	-0.014	-0.982	0.265	-7.9641162	2.6356068	-0.286479	90.36120618	-0.72765666	-32.44661154
1.9	190	-0.013	-0.977	0.264	-8.8235532	2.2345362	-0.1145916	90.38985408	-0.72765666	-32.41796364
1.91	191	-0.012	-0.973	0.273	-9.9121734	1.6615782	0	90.28672164	-0.72765666	-32.40650448
1.92	192	-0.014	-0.973	0.275	-12.032118	1.432395	-0.1718874	90.16640046	-0.72765666	-32.38931574
1.93	193	-0.02	-0.969	0.274	-13.2926256	1.145916	-0.286479	90.02889054	-0.72765666	-32.38358616
1.94	194	-0.025	-0.968	0.272	-13.6936962	1.4896908	-0.3437748	89.89138062	-0.72765666	-32.36639742
1.95	195	-0.027	-0.968	0.268	-14.610429	2.4064236	-0.572958	89.81689608	-0.72765666	-32.3434791
1.96	196	-0.026	-0.965	0.264	-16.042824	3.6669312	-0.8021412	89.65073826	-0.72192708	-32.30910162
1.97	197	-0.024	-0.959	0.261	-16.615782	4.6982556	-0.9167328	89.47885086	-0.7161975	-32.26326498
1.98	198	-0.022	-0.958	0.248	-16.6730778	4.870143	-1.0313244	89.31269304	-0.70473834	-32.21742834
1.99	199	-0.023	-0.959	0.238	-17.6471064	4.1252976	-1.2032118	89.12934648	-0.69900876	-32.17732128
2	200	-0.017	-0.96	0.221	-18.8503182	4.6982556	-1.4896908	88.98610698	-0.6875496	-32.13148464
2.01	201	-0.014	-0.953	0.215	-19.767051	5.3285094	-1.8334656	88.7798421	-0.67036086	-32.07991842
2.02	202	-0.01	-0.948	0.217	-19.767051	5.6722842	-2.1199446	88.5793068	-0.65317212	-32.0283522
2.03	203	-0.005	-0.949	0.217	-19.7097552	5.9587632	-2.291832	88.3787715	-0.6302538	-31.9710564
2.04	204	-0.003	-0.95	0.219	-19.3659804	5.7868758	-2.0626488	88.1782362	-0.60733548	-31.9137606
2.05	205	0	-0.955	0.222	-18.6784308	5.3858052	-1.6615782	88.04072628	-0.59014674	-31.86219438
2.06	206	0.002	-0.956	0.233	-18.048177	5.0420304	-1.0313244	87.85737972	-0.58441716	-31.81635774
2.07	207	0.002	-0.942	0.248	-17.5898106	4.1825934	-0.7448454	87.67976274	-0.572958	-31.77625068
2.08	208	-0.001	-0.927	0.257	-17.3606274	3.4950438	-1.2032118	87.50214576	-0.56149884	-31.74760278
2.09	209	-0.005	-0.926	0.251	-16.902261	3.0939732	-1.718874	87.33025836	-0.55003968	-31.71895488
2.1	210	-0.009	-0.932	0.253	-15.9855282	2.6356068	-1.718874	87.24431466	-0.53285094	-31.69030698
2.11	211	-0.014	-0.943	0.258	-14.7823164	2.8074942	-1.3750992	87.09534558	-0.52139178	-31.66738866
2.12	212	-0.02	-0.95	0.263	-13.5791046	2.8074942	-1.2032118	86.95783566	-0.50993262	-31.63874076
2.13	213	-0.026	-0.961	0.264	-12.0894138	2.291832	-1.0886202	86.8317849	-0.49847346	-31.62155202
2.14	214	-0.03	-0.972	0.268	-10.7143146	1.4896908	-0.5156622	86.72292288	-0.49274388	-31.60436328
2.15	215	-0.027	-0.975	0.27	-9.8548776	1.0313244	-0.286479	86.78594826	-0.50420304	-31.58717454
2.16	216	-0.022	-0.979	0.268	-9.6829902	0.859437	-0.4010706	86.6885454	-0.49847346	-31.58144496
2.17	217	-0.016	-0.972	0.263	-10.2559482	0.572958	-0.6875496	86.57968338	-0.49274388	-31.57571538
2.18	218	-0.017	-0.965	0.265	-10.3705398	0.3437748	-0.9167328	86.47655094	-0.4870143	-31.57571538
2.19	219	-0.019	-0.965	0.264	-10.886202	0.4010706	-1.0313244	86.36768892	-0.47555514	-31.57571538
2.2	220	-0.026	-0.961	0.262	-11.5737516	0.2291832	-0.7448454	86.38487766	-0.48128472	-31.56425622
2.21	221	-0.025	-0.959	0.257	-12.0894138	1.2605076	-0.859437	86.26455648	-0.47555514	-31.55852664
2.22	222	-0.024	-0.958	0.242	-12.5477802	2.5210152	-0.8021412	86.13277614	-0.46409598	-31.52987874
2.23	223	-0.026	-0.957	0.24	-12.4331886	2.4637194	-0.4010706	86.00672538	-0.46409598	-31.50696042
2.24	224	-0.031	-0.96	0.244	-12.5477802	2.7501984	0.0572958	85.88067462	-0.46409598	-31.4840421
2.25	225	-0.033	-0.969	0.242	-12.6623718	4.1825934	-0.1145916	85.84629714	-0.47555514	-31.43820546
2.26	226	-0.033	-0.983	0.243	-13.2926256	5.5576926	-0.4583664	85.70878722	-0.46982556	-31.38663924
2.27	227	-0.023	-0.986	0.25	-13.4072172	7.1046792	-0.7448454	85.5712773	-0.4583664	-31.31788428
2.28	228	-0.013	-0.992	0.243	-13.0634424	7.9068204	-0.7448454	85.43949696	-0.44690724	-31.23767016
2.29	229	-0.012	-1.004	0.238	-12.7196676	7.2765666	-0.286479	85.30771662	-0.44117766	-31.1689152
2.3	230	-0.017	-1.01	0.239	-12.4331886	6.7036086	0.3437748	85.26760956	-0.44690724	-31.10016024
2.31	231	-0.02	-1.007	0.231	-12.5477802	7.1046792	0.572958	85.13582922	-0.45263682	-31.03140528
2.32	232	-0.015	-0.997	0.22	-13.2353298	7.3338624	0.4583664	84.9983193	-0.45263682	-30.96265032
2.33	233	-0.011	-0.984	0.214	-14.32395	6.7609044	0.2291832	84.8550798	-0.45263682	-30.89389536
2.34	234	-0.016	-0.976	0.209	-14.896908	5.9014674	-0.0572958	84.70038114	-0.44690724	-30.83659956
2.35	235	-0.024	-0.976	0.214	-15.756345	5.2712136	-0.4010706	84.62016702	-0.45263682	-30.78503334
2.36	236	-0.025	-0.982	0.215	-16.3865988	5.6149884	-0.6875496	84.4540092	-0.44117766	-30.73346712
2.37	237	-0.02	-0.995	0.205	-17.0168526	5.9014674	-0.8021412	84.27639222	-0.4297185	-30.67617132
2.38	238	-0.014	-1.01	0.197	-17.5898106	5.72958	-0.8021412	84.09877524	-0.41825934	-30.6246051
2.39	239	-0.009	-1.012	0.194	-18.2773602	6.1879464	-0.9167328	83.9096991	-0.40680018	-30.56157972
2.4	240	-0.004	-1.001	0.191	-18.907614	6.8182002	-1.0886202	83.77791876	-0.38961144	-30.49855434
2.41	241	-0.007	-0.991	0.187	-19.5378678	5.7868758	-1.145916	83.57738346	-0.37815228	-30.44698812
2.42	242	-0.009	-0.986	0.185	-20.5118964	5.2139178	-1.2032118	83.37111858	-0.36096354	-30.3954219
2.43	243	-0.012	-0.972	0.179	-21.8296998	4.9847346	-1.2605076	83.14766496	-0.34950438	-30.34958526
2.44	244	-0.014	-0.963	0.177	-22.6891368	3.724227	-1.3178034	82.91848176	-0.33231564	-30.32093736
2.45	245	-0.012	-0.962	0.178	-23.3766864	2.6356068	-1.432395	82.74086478	-0.32085648	-30.29801904
2.46	246	-0.005	-0.965	0.178	-24.2361234	2.291832	-1.8334656	82.49449284	-0.30366774	-30.27510072
2.47	247	0	-0.981	0.177	-24.8663772	1.7761698	-2.2345362	82.24239132	-0.28074942	-30.26364156
2.48	248	0.007	-1.004	0.171	-24.923673	0.572958	-2.2345362	81.9902898	-0.2578311	-30.26364156
2.49	249	0.008	-1.025	0.172	-24.5798982	-0.1145916	-1.6615782	81.73818828	-0.24637194	-30.26937114
2.5	250	0.001	-1.039	0.174	-24.350715	-0.1145916	-1.145916	81.5605713	-0.23491278	-30.27510072
2.51	251	-0.007	-1.044	0.181	-24.5798982	0.0572958	-0.9167328	81.30846978	-0.2291832	-30.2808303
2.52	252	-0.01	-1.042	0.181	-24.9809688	0.7448454	-0.8021412	81.05636826	-0.22345362	-30.27510072
2.53	253	-0.015	-1.041	0.184	-24.350715	1.0313244	-0.7448454	80.80999632	-0.21772404	-30.26937114
2.54	254	-0.019	-1.049	0.187	-24.064236	1.4896908	-0.5156622	80.56362438	-0.21199446	-30.25791198
2.55	255	-0.021	-1.057	0.193	-24.1215318	1.4896908	-0.572958	80.3860074	-0.20626488	-30.24072324
2.56	256	-0.01	-1.064	0.189	-23.8350528	0.9740286	-0.3437748	80.14536504	-0.20626488	-30.23499366
2.57	257	0	-1.059	0.187	-23.8923486	-0.1145916	0	79.90472268	-0.20626488	-30.24072324
2.58	258	0.008	-1.048	0.178	-24.4080108	-1.5469866	0.1145916	79.65835074	-0.21199446	-30.25791198
2.59	259	0.004	-1.032	0.176	-25.0955604	-3.3804522	0.1718874	79.40051964	-0.22345362	-30.29228946
2.6	260	-0.008	-1.028	0.179	-25.6685184	-4.7555514	-0.1718874	79.20571392	-0.23491278	-30.3381261
2.61	261	-0.016	-1.033	0.169	-26.356068	-4.6982556	-0.5156622	78.94215324	-0.24064236	-30.38969232
2.62	262	-0.018	-1.036	0.157	-27.0436176	-3.9534102	-0.7448454	78.6671334	-0.24064236	-30.43552896
2.63	263	-0.015	-1.046	0.146	-27.501984	-2.8074942	-0.9167328	78.38638398	-0.24064236	-30.46417686
2.64	264	-0.008	-1.054	0.141	-28.2468294	-2.291832	-0.8021412	78.09990498	-0.24064236	-30.49282476
2.65	265	-0.002	-1.053	0.143	-28.7051958	-2.1772404	-0.4583664	77.87072178	-0.24064236	-30.51574308
2.66	266	0	-1.045	0.148	-29.3354496	-2.2345362	-0.4010706	77.57278362	-0.24637194	-30.54439098
2.67	267	-0.001	-1.031	0.15	-30.1375908	-2.9220858	-0.6302538	77.26911588	-0.24637194	-30.57876846
2.68	268	-0.007	-1.02	0.153	-30.653253	-3.5523396	-1.145916	76.95971856	-0.24637194	-30.61887552
2.69	269	-0.012	-1.011	0.156	-31.4553942	-3.3804522	-1.6615782	76.63886208	-0.24064236	-30.653253
2.7	270	-0.015	-1.008	0.14	-32.658606	-2.7501984	-2.291832	76.36384224	-0.2291832	-30.68763048
2.71	271	-0.016	-1.01	0.119	-33.6326346	-2.2345362	-2.6929026	76.02579702	-0.21199446	-30.72200796
2.72	272	-0.018	-1.007	0.102	-34.091001	-1.9480572	-2.9793816	75.67629264	-0.18907614	-30.75065586
2.73	273	-0.017	-1.005	0.103	-34.6066632	-1.0313244	-3.2658606	75.32678826	-0.16615782	-30.77357418
2.74	274	-0.01	-1.001	0.098	-35.5806918	0	-3.7815228	74.96582472	-0.13178034	-30.78503334
2.75	275	0	-0.997	0.091	-36.669312	0.2291832	-3.9534102	74.64496824	-0.09740286	-30.7964925
2.76	276	0.011	-0.997	0.092	-37.24227	-0.4010706	-3.6669312	74.26681596	-0.06302538	-30.81368124
2.77	277	0.018	-0.996	0.096	-37.815228	-1.0886202	-3.5523396	73.8829341	-0.04010706	-30.83659956
2.78	278	0.012	-0.993	0.102	-38.5027776	-1.9480572	-3.3804522	73.49332266	-0.01145916	-30.86524746
2.79	279	0.005	-0.994	0.098	-38.961144	-2.3491278	-3.3231564	73.09798164	0	-30.90535452
2.8	280	-0.002	-0.992	0.093	-39.8778768	-2.4064236	-3.2658606	72.74274768	0.02291832	-30.939732
2.81	281	-0.003	-0.98	0.091	-40.9092012	-2.2345362	-3.437748	72.33021792	0.04583664	-30.97410948
2.82	282	-0.002	-0.958	0.089	-42.7426668	-1.8334656	-4.0680018	71.89476984	0.07448454	-31.00848696
2.83	283	-0.005	-0.928	0.088	-45.2063862	-1.0313244	-4.4117766	71.43640344	0.10313244	-31.03713486
2.84	284	-0.009	-0.899	0.071	-47.8992888	-0.4010706	-4.4117766	70.94938914	0.1432395	-31.0543236
2.85	285	-0.012	-0.89	0.055	-50.0765292	0	-4.583664	70.47956358	0.17761698	-31.07724192
2.86	286	-0.004	-0.902	0.054	-52.5402486	0.7448454	-4.6409598	69.94671264	0.21772404	-31.08870108
2.87	287	0.012	-0.922	0.04	-54.5456016	0.9167328	-4.5263682	69.39094338	0.25210152	-31.10016024
2.88	288	0.031	-0.953	0.028	-56.149884	0.2291832	-4.4117766	68.81798538	0.29220858	-31.11734898
2.89	289	0.043	-0.977	0.015	-57.9833496	-0.9740286	-4.1825934	68.23356822	0.32085648	-31.14599688
2.9	290	0.042	-0.977	0.01	-59.9887026	-2.9220858	-4.4117766	67.66061022	0.3437748	-31.19183352
2.91	291	0.024	-0.965	0.029	-62.2232388	-4.4117766	-4.870143	67.02462684	0.36669312	-31.26058848
2.92	292	0.007	-0.949	0.032	-63.8275212	-5.5003968	-5.443101	66.3771843	0.38961144	-31.33507302
2.93	293	-0.005	-0.963	0.022	-65.89017	-6.2452422	-5.9587632	65.70682344	0.41252976	-31.42101672
2.94	294	-0.011	-0.984	0.009	-67.9528188	-6.4171296	-6.302538	65.01927384	0.43544808	-31.51269
2.95	295	-0.005	-1.012	-0.001	-69.4425096	-7.3338624	-6.875496	64.34891298	0.4583664	-31.61009286
2.96	296	0.002	-1.052	-0.019	-71.2186794	-8.4224826	-7.3338624	63.62125632	0.48128472	-31.72468446
2.97	297	0.009	-1.082	-0.026	-72.765666	-9.6256944	-7.0473834	62.88787008	0.49847346	-31.84500564
2.98	298	0.02	-1.104	-0.021	-73.6823988	-10.4851314	-7.3338624	62.1372951	0.50420304	-31.97678598
2.99	299	0.024	-1.111	0.004	-75.1147938	-11.2872726	-7.9641162	61.37526096	0.5156622	-32.12002548
3	300	0.026	-1.092	0.039	-76.6044846	-12.4904844	-8.1932994	60.63041556	0.52139178	-32.27472414
3.01	301	0.022	-1.063	0.04	-77.8076964	-14.037471	-8.2505952	59.83973352	0.52139178	-32.44088196
3.02	302	0.009	-1.048	0.018	-79.9849368	-14.896908	-8.5370742	59.03186274	0.50993262	-32.61849894
3.03	303	0.001	-1.04	-0.02	-81.9902898	-13.5791046	-8.4224826	58.19534406	0.50420304	-32.78465676
3.04	304	-0.003	-1.028	-0.041	-83.5945722	-11.5164558	-7.9068204	57.34736622	0.50420304	-32.92789626
3.05	305	-0.008	-1.019	-0.027	-84.4540092	-9.2819196	-7.3911582	56.52803628	0.50420304	-33.04821744
3.06	306	-0.001	-0.999	-0.03	-85.4853336	-8.2505952	-7.734933	55.65714012	0.50993262	-33.16280904
3.07	307	-0.004	-0.986	-0.028	-86.9750244	-7.6776372	-8.4224826	54.7747848	0.52712136	-33.28313022
3.08	308	-0.011	-0.984	-0.023	-87.8917572	-6.1306506	-9.0527364	53.8866999	0.55576926	-33.38626266
3.09	309	-0.004	-0.988	-0.012	-88.7511942	-5.0993262	-8.9954406	52.98142626	0.59014674	-33.48366552
3.1	310	-0.001	-0.981	-0.002	-89.954406	-3.3231564	-8.880849	52.1105301	0.62452422	-33.56960922
3.11	311	-0.003	-0.961	0.002	-91.1576178	-0.859437	-8.7662574	51.18233814	0.67609044	-33.6326346
3.12	312	-0.014	-0.938	0.011	-91.959759	0.5156622	-7.8495246	50.2484166	0.72765666	-33.67847124
3.13	313	-0.032	-0.91	0	-92.4754212	2.4064236	-7.0473834	49.30876548	0.78495246	-33.71284872
3.14	314	-0.048	-0.891	0.003	-92.7046044	4.9847346	-6.8182002	48.36911436	0.85370742	-33.7185783
3.15	315	-0.047	-0.862	-0.023	-93.105675	7.734933	-7.2765666	47.45811114	0.93965112	-33.71284872
3.16	316	-0.043	-0.857	-0.052	-93.2202666	9.6829902	-7.5057498	46.51273044	1.04278356	-33.6899304
3.17	317	-0.038	-0.845	-0.047	-92.532717	9.740286	-7.2765666	45.56734974	1.15164558	-33.67274166
3.18	318	-0.03	-0.823	-0.042	-92.1316464	10.0840608	-7.5057498	44.6334282	1.2605076	-33.65555292
3.19	319	-0.024	-0.803	-0.03	-92.819196	10.9434978	-8.1932994	43.6880475	1.3750992	-33.63836418
3.2	320	-0.018	-0.782	-0.014	-93.105675	11.5164558	-8.8235532	42.77704428	1.50114996	-33.62117544
3.21	321	-0.017	-0.769	-0.02	-94.7672532	12.7196676	-9.3965112	41.81447484	1.64438946	-33.6039867
3.22	322	-0.009	-0.745	-0.024	-96.256944	14.5531332	-10.0840608	40.83471666	1.79908812	-33.58106838
3.23	323	-0.001	-0.712	-0.04	-96.8871978	16.8449652	-10.4851314	39.8492289	1.98243468	-33.55242048
3.24	324	0	-0.694	-0.065	-97.116381	19.0795014	-10.7716104	38.86374114	2.1772404	-33.51231342
3.25	325	0.006	-0.674	-0.048	-97.3455642	20.8556712	-11.45916	37.9011717	2.38923486	-33.46647678
3.26	326	0.003	-0.648	-0.043	-97.3455642	22.4599536	-12.4904844	36.90995436	2.62414764	-33.42636972
3.27	327	-0.004	-0.632	-0.102	-98.3195928	23.9496444	-13.5218088	35.91300744	2.87624916	-33.39199224
3.28	328	-0.004	-0.624	-0.112	-98.6633676	23.8923486	-13.6364004	34.91033094	3.13408026	-33.35761476
3.29	329	0.004	-0.622	-0.104	-99.2936214	23.5485738	-13.464513	33.90192486	3.38618178	-33.32896686
3.3	330	0.015	-0.618	-0.121	-101.0124954	23.8350528	-14.1520626	32.89351878	3.6382833	-33.31177812
3.31	331	0.036	-0.611	-0.133	-102.4448904	24.064236	-15.0687954	31.85073522	3.90184398	-33.30031896
3.32	332	0.061	-0.61	-0.131	-103.5335106	22.91832	-15.2406828	30.7964925	4.15967508	-33.30604854
3.33	333	0.085	-0.594	-0.131	-104.7940182	19.767051	-15.4125702	29.73079062	4.38885828	-33.33469644
3.34	334	0.094	-0.57	-0.123	-105.424272	15.8709366	-15.6990492	28.65362958	4.583664	-33.39199224
3.35	335	0.103	-0.544	-0.102	-105.7680468	12.3758928	-15.9282324	27.59365728	4.7555514	-33.46647678
3.36	336	0.111	-0.516	-0.091	-106.0545258	8.880849	-16.4438946	26.50503708	4.89306132	-33.56960922
3.37	337	0.111	-0.486	-0.059	-105.710751	5.0420304	-16.6730778	25.42214646	4.99619376	-33.6899304
3.38	338	0.113	-0.472	-0.05	-105.4815678	3.0939732	-16.7303736	24.33925584	5.08213746	-33.82744032
3.39	339	0.117	-0.452	-0.049	-105.5388636	0	-16.7303736	23.25063564	5.13370368	-33.9764094
3.4	340	0.112	-0.44	-0.06	-104.7940182	-3.0366774	-15.6417534	22.19639292	5.156622	-34.13110806
3.41	341	0.107	-0.403	-0.056	-103.418919	-6.8182002	-13.4072172	21.13069104	5.1279741	-34.28007714
3.42	342	0.102	-0.364	-0.044	-101.4708618	-10.4851314	-10.6570188	20.09363706	5.05921914	-34.41185748
3.43	343	0.089	-0.326	-0.047	-100.0957626	-14.0947668	-7.5057498	19.06804224	4.93889796	-34.53217866
3.44	344	0.08	-0.295	-0.067	-98.8925508	-18.5638392	-5.2139178	18.05390658	4.77274014	-34.64104068
3.45	345	0.061	-0.262	-0.095	-96.829902	-24.064236	-3.2658606	17.07987798	4.54355694	-34.74417312
3.46	346	0.03	-0.21	-0.094	-95.4548028	-28.6479	-1.718874	16.10584938	4.2685371	-34.84730556
3.47	347	0.004	-0.145	-0.076	-92.4754212	-32.0283522	-1.4896908	15.16619826	3.95913978	-34.950438
3.48	348	-0.022	-0.087	-0.062	-89.3241522	-33.1742682	-3.437748	14.25519504	3.6382833	-35.07075918
3.49	349	-0.045	-0.049	-0.051	-87.6052782	-31.4553942	-4.6982556	13.36138056	3.34034514	-35.19108036
3.5	350	-0.059	-0.029	-0.052	-87.4906866	-28.2468294	-4.2398892	12.47329566	3.05386614	-35.29994238
3.51	351	-0.068	-0.031	-0.044	-88.8657858	-27.9603504	-0.4583664	11.5737516	2.77311672	-35.36296776
3.52	352	-0.095	-0.026	-0.048	-90.9284346	-29.6792244	4.1252976	10.65128922	2.46944898	-35.3801565
3.53	353	-0.137	-0.056	-0.092	-94.4807742	-30.2521824	6.6463128	9.70017894	2.15432208	-35.37442692
3.54	354	-0.158	-0.046	-0.101	-104.6794266	-30.5386614	8.021412	8.64020664	1.82773602	-35.34004944
3.55	355	-0.17	0.01	-0.099	-116.2531782	-37.4141574	7.6776372	7.46564274	1.42666542	-35.31713112
3.56	356	-0.171	0.054	-0.061	-124.3891818	-36.8984952	5.6149884	6.20513514	1.04278356	-35.30567196
3.57	357	-0.024	0.053	-0.028	-127.4258592	-17.9335854	3.437748	4.91597964	0.84797784	-35.28848322
3.58	358	0.589	0.439	-0.082	-128.9728458	-17.8762896	-3.2085648	3.6096354	0.6589017	-35.32859028
3.59	359	1.071	1.277	0.035	-113.6748672	-55.863405	-5.0993262	2.4637194	0.09740286	-35.41453398
3.6	360	0.852	2.097	-0.017	-67.4371566	-90.9857304	19.6524594	1.78189938	-0.80787078	-35.27129448
3.61	361	0.498	2.876	-1.004	3.3804522	-123.1286742	50.9359662	1.82200644	-2.03973048	-34.8358464
3.62	362	0.145	2.405	-3.317	49.7900502	-121.5243918	49.3889796	2.32620948	-3.25440144	-34.42331664
3.63	363	-0.945	0.006	-3.996	-61.8221682	0	49.6754586	1.67303736	-3.28304934	-33.93057276
3.64	364	-3.145	-2.071	-3.996	-156.6467172	77.062851	19.8816426	0.0572958	-2.54393352	-33.6899304
3.65	365	-1.513	-1.581	-3.996	2.3491278	45.9512316	5.6149884	0.07448454	-2.08556712	-33.62117544
3.66	366	0.129	-0.18	-3.996	-87.3187992	10.1986524	1.5469866	-0.80787078	-1.99962342	-33.59252754
3.67	367	0.746	-1.455	-3.996	-206.0356968	3.7815228	-30.1375908	-2.8934379	-1.99389384	-33.87327696
3.68	368	0.716	-1.075	-3.281	-177.7315716	-25.78311	-4.1252976	-4.69252602	-2.26891368	-33.8904657
3.69	369	0.024	-0.745	0.446	-109.3203864	-43.831287	15.6417534	-5.80406454	-2.69863218	-33.69565998
3.7	370	-0.898	0.089	0.369	-94.8818448	-45.7793442	-4.0680018	-6.76663398	-3.22575354	-33.67847124
3.71	371	-0.906	0.83	-0.204	-70.3592424	-43.0864416	8.3651868	-7.48856106	-3.64401288	-33.5466909
3.72	372	-0.458	2.045	-0.544	-109.2057948	-23.0329116	10.7143146	-8.60009958	-3.8674665	-33.4034514
3.73	373	-0.285	2.26	-0.814	-66.463128	-8.9954406	0.1718874	-9.27619002	-3.95913978	-33.38626266
3.74	374	-0.156	1.666	-0.71	-48.128472	3.7815228	-9.2819196	-9.75747474	-3.94195104	-33.47793594
3.75	375	0.139	0.831	-0.554	-28.2468294	18.2200644	-22.345362	-10.0554129	-3.77579322	-33.72430788
3.76	376	0.26	-0.113	-0.429	-5.0993262	22.8037284	-14.9542038	-10.10124954	-3.57525792	-33.90765444
3.77	377	0.267	-0.586	-0.267	7.8495246	16.2147114	-1.432395	-10.02103542	-3.42055926	-33.9477615
3.78	378	0.291	-0.516	-0.217	13.464513	12.7769634	0.8021412	-9.8835255	-3.28877892	-33.95922066
3.79	379	0.266	-0.195	-0.298	21.199446	10.1986524	-2.005353	-9.66580146	-3.19137606	-33.99359814
3.8	380	0.222	0.053	-0.316	34.7212548	7.3911582	-2.86479	-9.32202666	-3.0939732	-34.03943478
3.81	381	0.276	0.348	-0.26	40.5654264	6.2452422	-1.0313244	-8.9094969	-3.03094782	-34.0623531
3.82	382	0.149	0.542	-0.284	47.4409224	5.9014674	4.6982556	-8.43394176	-2.96219286	-34.02797562
3.83	383	-0.08	0.601	-0.327	50.420304	6.4171296	10.4851314	-7.92400914	-2.87624916	-33.93630234
3.84	384	-0.257	0.599	-0.433	46.5241896	14.7250206	11.2872726	-7.45991316	-2.71582092	-33.84462906
3.85	385	-0.345	0.533	-0.606	41.8832298	28.3041252	8.021412	-7.08176088	-2.4637194	-33.78733326
3.86	386	-0.347	0.297	-0.841	39.4195104	39.8778768	4.0680018	-6.68641986	-2.0626488	-33.78733326
3.87	387	-0.257	-0.036	-1.1	32.372127	47.9565846	-0.2291832	-6.3598338	-1.58709366	-33.8331699
3.88	388	-0.131	-0.322	-1.296	20.1681216	50.9359662	-4.297185	-6.1592985	-1.08289062	-33.9191136
3.89	389	-0.048	-0.444	-1.427	6.875496	46.1804148	-5.2712136	-6.09627312	-0.63598338	-34.01078688
3.9	390	0.028	-0.33	-1.517	-6.2452422	41.0810886	-2.7501984	-6.15356892	-0.23491278	-34.06808268
3.91	391	0.069	-0.12	-1.492	-13.9228794	37.0703826	-1.8334656	-6.302538	0.12605076	-34.11391932
3.92	392	0.09	-0.063	-1.425	-17.8189938	33.231564	-2.3491278	-6.48588456	0.44690724	-34.16548554
3.93	393	0.113	-0.058	-1.277	-19.4232762	28.6479	-1.3750992	-6.69214944	0.72765666	-34.19986302
3.94	394	0.159	-0.029	-1.145	-19.7097552	23.5485738	0	-6.89268474	0.95683986	-34.21705176
3.95	395	0.218	-0.004	-1.076	-19.480572	15.6990492	1.145916	-7.0760313	1.16310474	-34.2342405
3.96	396	0.238	-0.005	-0.984	-16.2147114	4.9274388	2.3491278	-7.23645954	1.20894138	-34.21132218
3.97	397	0.238	-0.017	-0.895	-11.3445684	-6.302538	3.4950438	-7.35105114	1.15164558	-34.17121512
3.98	398	0.216	-0.026	-0.862	-7.3911582	-16.2147114	4.6409598	-7.42553568	0.99694692	-34.10818974
3.99	399	0.182	-0.013	-0.822	-4.297185	-24.0069402	4.6982556	-7.46564274	0.76776372	-34.03943478
4	400	0.122	-0.027	-0.783	-0.6302538	-28.3041252	3.5523396	-7.44272442	0.50993262	-33.9764094
4.01	401	0.053	-0.052	-0.79	2.9220858	-29.2781538	2.7501984	-7.40834694	0.2291832	-33.9191136
4.02	402	0.005	-0.081	-0.856	5.8441716	-24.9809688	2.2345362	-7.34532156	-0.01145916	-33.87327696
4.03	403	-0.032	-0.107	-0.943	8.6516658	-15.8709366	1.432395	-7.25937786	-0.16615782	-33.84462906
4.04	404	-0.041	-0.129	-1.022	10.9434978	-4.9274388	0.859437	-7.14478626	-0.21199446	-33.8331699
4.05	405	-0.026	-0.155	-1.071	12.8342592	5.3858052	0.1145916	-6.94425096	-0.16615782	-33.8331699
4.06	406	0.006	-0.191	-1.099	14.0947668	12.605076	-1.2032118	-6.80101146	-0.04010706	-33.85608822
4.07	407	0.047	-0.24	-1.092	15.0114996	15.4125702	-3.0366774	-6.65204238	0.10313244	-33.90192486
4.08	408	0.074	-0.294	-1.07	15.5271618	15.0114996	-4.9847346	-6.49734372	0.24637194	-33.96495024
4.09	409	0.09	-0.344	-1.012	13.8655836	13.5218088	-5.7868758	-6.3598338	0.37815228	-34.0337052
4.1	410	0.1	-0.338	-0.96	10.1413566	9.0527364	-5.3285094	-6.09627312	0.49847346	-34.10246016
4.11	411	0.088	-0.316	-0.94	6.7609044	2.7501984	-4.010706	-6.02751816	0.52139178	-34.14256722
4.12	412	0.068	-0.282	-0.932	3.4950438	-2.0626488	-2.6356068	-5.99314068	0.49847346	-34.17121512
4.13	413	0.037	-0.245	-0.934	0.6302538	-5.3858052	-1.4896908	-5.98168152	0.44690724	-34.1769447
4.14	414	0.011	-0.224	-0.948	-1.145916	-6.8182002	-0.4583664	-5.99314068	0.37815228	-34.1769447
4.15	415	-0.013	-0.212	-0.969	-3.0366774	-6.875496	0	-5.79833496	0.26929026	-34.15975596
4.16	416	-0.029	-0.198	-0.975	-4.7555514	-6.0733548	0.4010706	-5.84990118	0.20626488	-34.1482968
4.17	417	-0.045	-0.18	-0.977	-6.302538	-4.7555514	0.7448454	-5.91292656	0.16042824	-34.13683764
4.18	418	-0.059	-0.158	-0.974	-6.8182002	-3.7815228	1.0313244	-5.98168152	0.12605076	-34.12537848
4.19	419	-0.067	-0.131	-0.971	-6.7036086	-2.291832	1.0886202	-6.05043648	0.10313244	-34.10818974
4.2	420	-0.072	-0.107	-0.974	-6.1879464	-0.5156622	1.145916	-5.9014674	-0.02291832	-34.0623531
4.21	421	-0.068	-0.087	-0.986	-5.3285094	1.145916	1.145916	-5.9587632	-0.01145916	-34.05089394
4.22	422	-0.059	-0.07	-0.993	-4.0680018	2.9793816	1.0313244	-5.99887026	0.01718874	-34.03943478
4.23	423	-0.042	-0.052	-1.002	-2.6929026	4.7555514	0.7448454	-6.02751816	0.06302538	-34.03943478
4.24	424	-0.016	-0.047	-1.008	-0.9167328	5.5576926	0.6302538	-6.03897732	0.12032118	-34.0337052
4.25	425	0.008	-0.048	-1.006	0.7448454	5.3858052	0.572958	-5.87854908	0.1718874	-34.02797562
4.26	426	0.028	-0.054	-1.002	2.4064236	5.156622	0.5156622	-5.85563076	0.2291832	-34.02797562
4.27	427	0.038	-0.067	-0.996	3.7815228	4.5263682	0.7448454	-5.82125328	0.27501984	-34.02224604
4.28	428	0.042	-0.076	-0.988	5.0993262	3.724227	0.859437	-5.76968706	0.30939732	-34.01651646
4.29	429	0.048	-0.084	-0.978	6.1306506	2.7501984	1.0886202	-5.70666168	0.33804522	-34.01078688
4.3	430	0.049	-0.086	-0.972	6.4171296	1.7761698	1.3178034	-5.50612638	0.39534102	-34.0050573
4.31	431	0.044	-0.087	-0.977	6.6463128	0.9740286	1.8334656	-5.43737142	0.40680018	-33.98786856
4.32	432	0.037	-0.087	-0.986	7.5057498	0.859437	2.1772404	-5.36288688	0.41825934	-33.96495024
4.33	433	0.028	-0.088	-0.988	8.2505952	0.9740286	2.6356068	-5.27694318	0.4297185	-33.94203192
4.34	434	0.019	-0.091	-0.987	8.5370742	1.2032118	2.8074942	-5.19099948	0.44690724	-33.91338402
4.35	435	0.01	-0.094	-0.99	8.7089616	1.6042824	2.6929026	-5.00192334	0.45263682	-33.88473612
4.36	436	0.001	-0.099	-0.991	8.7662574	2.0626488	2.4637194	-4.91025006	0.47555514	-33.8618178
4.37	437	0	-0.106	-0.992	8.8235532	2.8074942	2.3491278	-4.82430636	0.50993262	-33.83889948
4.38	438	0.004	-0.113	-0.991	8.6516658	3.3804522	2.0626488	-4.73836266	0.5443101	-33.82171074
4.39	439	0.016	-0.12	-0.985	8.7662574	3.8961144	2.1199446	-4.64668938	0.58441716	-33.804522
4.4	440	0.024	-0.129	-0.982	8.1932994	4.1825934	2.005353	-4.45188366	0.6302538	-33.78160368
4.41	441	0.028	-0.137	-0.982	7.448454	4.4117766	1.8907614	-4.37739912	0.67609044	-33.76441494
4.42	442	0.031	-0.141	-0.978	7.161975	4.4690724	1.718874	-4.30864416	0.72192708	-33.75295578
4.43	443	0.042	-0.144	-0.971	6.6463128	4.4690724	1.3750992	-4.2398892	0.76776372	-33.74149662
4.44	444	0.054	-0.143	-0.973	6.2452422	4.010706	1.3178034	-4.17686382	0.80787078	-33.73003746
4.45	445	0.06	-0.142	-0.974	6.302538	3.151269	1.3178034	-3.97059894	0.87662574	-33.7185783
4.46	446	0.06	-0.146	-0.971	6.7609044	2.578311	1.2605076	-3.90184398	0.90527364	-33.70711914
4.47	447	0.055	-0.156	-0.975	6.9900876	2.1772404	0.9740286	-3.82735944	0.92819196	-33.70138956
4.48	448	0.05	-0.165	-0.978	7.0473834	1.8334656	0.572958	-3.75860448	0.9453807	-33.69565998
4.49	449	0.053	-0.171	-0.974	6.875496	1.718874	0.286479	-3.68984952	0.96256944	-33.69565998
4.5	450	0.057	-0.172	-0.975	6.1306506	1.3750992	0.3437748	-3.39764094	1.01986524	-33.6899304
4.51	451	0.058	-0.17	-0.981	5.5003968	0.8021412	0.4010706	-3.34034514	1.02559482	-33.6899304
4.52	452	0.058	-0.167	-0.985	5.3285094	0.1718874	0.5156622	-3.28877892	1.0313244	-33.68420082
4.53	453	0.055	-0.165	-0.985	5.3285094	-0.0572958	0.6302538	-3.23148312	1.0313244	-33.67847124
4.54	454	0.047	-0.166	-0.982	5.3858052	-0.286479	0.6302538	-3.1799169	1.02559482	-33.67274166
4.55	455	0.04	-0.166	-0.98	5.3285094	-0.3437748	0.5156622	-2.85906042	1.03705398	-33.65555292
4.56	456	0.033	-0.164	-0.975	5.5003968	-0.4010706	0.286479	-2.80176462	1.03705398	-33.65555292
4.57	457	0.027	-0.157	-0.972	5.9014674	-0.4010706	0.0572958	-2.74446882	1.0313244	-33.65555292
4.58	458	0.028	-0.151	-0.968	6.6463128	-0.5156622	0.1145916	-2.67571386	1.02559482	-33.65555292
4.59	459	0.028	-0.149	-0.965	6.9900876	-0.4010706	0.1718874	-2.6069589	1.02559482	-33.64982334
4.6	460	0.027	-0.15	-0.97	6.6463128	-0.3437748	0.286479	-2.33766864	1.01986524	-33.63836418
4.61	461	0.026	-0.152	-0.976	6.1306506	-0.286479	0.3437748	-2.27464326	1.01986524	-33.63836418
4.62	462	0.024	-0.151	-0.979	5.6149884	-0.1718874	0.4010706	-2.21734746	1.01413566	-33.6326346
4.63	463	0.021	-0.154	-0.98	5.0993262	-0.1145916	0.286479	-2.16578124	1.01413566	-33.6326346
4.64	464	0.02	-0.154	-0.98	5.0993262	0.0572958	0.1718874	-2.11421502	1.01986524	-33.62690502
4.65	465	0.021	-0.157	-0.979	5.0993262	0.1718874	0.1145916	-1.81054728	1.00840608	-33.61544586
4.66	466	0.023	-0.158	-0.978	4.583664	0.1718874	0.0572958	-1.75898106	1.00840608	-33.61544586
4.67	467	0.026	-0.155	-0.979	4.1825934	0.2291832	0.1145916	-1.718874	1.01413566	-33.61544586
4.68	468	0.026	-0.153	-0.979	4.2398892	0.1718874	0.1718874	-1.67303736	1.01413566	-33.60971628
4.69	469	0.027	-0.155	-0.979	4.0680018	0.2291832	0	-1.6329303	1.01986524	-33.61544586
4.7	470	0.027	-0.155	-0.982	3.4950438	0.286479	0	-1.2605076	1.01986524	-33.59825712
4.71	471	0.025	-0.159	-0.983	3.0939732	0.1145916	-0.1718874	-1.22613012	1.01986524	-33.59825712
4.72	472	0.024	-0.161	-0.979	3.2085648	0.2291832	-0.1718874	-1.19748222	1.01986524	-33.6039867
4.73	473	0.025	-0.166	-0.972	3.3231564	0.2291832	-0.1145916	-1.16310474	1.02559482	-33.6039867
4.74	474	0.025	-0.168	-0.97	3.2658606	0.286479	-0.1718874	-1.12872726	1.0313244	-33.60971628
4.75	475	0.026	-0.167	-0.974	3.2085648	0.3437748	-0.2291832	-0.76203414	1.0313244	-33.59825712
4.76	476	0.03	-0.166	-0.976	3.3231564	0.2291832	-0.286479	-0.72765666	1.0313244	-33.59825712
4.77	477	0.032	-0.164	-0.973	3.2085648	0.286479	-0.3437748	-0.69327918	1.03705398	-33.6039867
4.78	478	0.034	-0.166	-0.974	3.3804522	0.4583664	-0.4010706	-0.6589017	1.04278356	-33.60971628
4.79	479	0.036	-0.167	-0.977	3.724227	0.572958	-0.2291832	-0.62452422	1.04851314	-33.60971628
4.8	480	0.036	-0.168	-0.975	4.010706	0.4583664	-0.1718874	-0.33804522	1.07143146	-33.60971628
4.81	481	0.035	-0.167	-0.977	4.297185	0.6875496	-0.286479	-0.29793816	1.07716104	-33.60971628
4.82	482	0.038	-0.171	-0.978	4.4690724	0.7448454	-0.3437748	-0.25210152	1.08289062	-33.61544586
4.83	483	0.041	-0.172	-0.974	4.5263682	0.6302538	-0.2291832	-0.20626488	1.09434978	-33.61544586
4.84	484	0.042	-0.174	-0.966	4.8128472	0.286479	-0.1718874	-0.15469866	1.09434978	-33.62117544
4.85	485	0.044	-0.174	-0.963	5.0993262	0.0572958	0	0.1145916	1.12299768	-33.61544586
4.86	486	0.041	-0.178	-0.965	5.156622	0	0.1145916	0.16615782	1.12299768	-33.61544586
4.87	487	0.038	-0.179	-0.966	4.8128472	0	0.0572958	0.21772404	1.12299768	-33.61544586
4.88	488	0.035	-0.18	-0.97	4.4117766	-0.0572958	0.0572958	0.26356068	1.12299768	-33.61544586
4.89	489	0.032	-0.178	-0.973	3.8961144	0	-0.0572958	0.30366774	1.12299768	-33.61544586
4.9	490	0.034	-0.177	-0.973	3.6669312	0	0	0.63598338	1.14018642	-33.60971628
4.91	491	0.038	-0.179	-0.972	3.724227	-0.0572958	0.2291832	0.67609044	1.14018642	-33.6039867
4.92	492	0.041	-0.183	-0.97	3.8388186	-0.1718874	0.1145916	0.7161975	1.13445684	-33.6039867
4.93	493	0.04	-0.184	-0.972	3.6669312	-0.1145916	0	0.75057498	1.13445684	-33.6039867
4.94	494	0.036	-0.181	-0.971	3.7815228	-0.1718874	-0.1145916	0.79068204	1.13445684	-33.60971628
4.95	495	0.035	-0.178	-0.972	3.724227	0	-0.3437748	1.08289062	1.145916	-33.6039867
4.96	496	0.038	-0.177	-0.972	3.724227	0.286479	-0.4010706	1.12299768	1.15164558	-33.60971628
4.97	497	0.037	-0.179	-0.968	3.6096354	0.4010706	-0.4010706	1.15737516	1.15737516	-33.60971628
4.98	498	0.037	-0.18	-0.968	3.437748	0.4010706	-0.4010706	1.19175264	1.16310474	-33.61544586
4.99	499	0.037	-0.18	-0.97	3.0366774	0.4010706	-0.4010706	1.22613012	1.16310474	-33.62117544
5	500	0.035	-0.182	-0.972	2.6929026	0.1718874	-0.3437748	1.58709366	1.18029348	-33.61544586
5.01	501	0.031	-0.184	-0.971	2.6929026	0	-0.2291832	1.61574156	1.18029348	-33.61544586
5.02	502	0.029	-0.185	-0.972	2.6929026	-0.1718874	-0.1718874	1.64438946	1.18029348	-33.62117544
5.03	503	0.028	-0.186	-0.97	2.578311	-0.286479	-0.0572958	1.66730778	1.1745639	-33.62117544
5.04	504	0.037	-0.187	-0.964	2.1772404	-0.286479	0	1.6902261	1.1745639	-33.62117544
5.05	505	0.042	-0.187	-0.961	1.6042824	-0.6875496	0.2291832	2.0626488	1.20894138	-33.61544586
5.06	506	0.037	-0.182	-0.964	1.3178034	-0.8021412	0.4583664	2.07410796	1.19748222	-33.60971628
5.07	507	0.033	-0.184	-0.963	1.0886202	-0.8021412	0.2291832	2.08556712	1.19175264	-33.6039867
5.08	508	0.033	-0.188	-0.966	0.572958	-0.572958	0.0572958	2.0912967	1.18602306	-33.6039867
5.09	509	0.031	-0.193	-0.97	0.1145916	-0.4583664	0	2.09702628	1.18029348	-33.6039867
5.1	510	0.032	-0.193	-0.969	-0.286479	-0.2291832	0.1145916	3.151269	1.22040054	-33.56960922
5.11	511	0.036	-0.195	-0.965	-0.9167328	-0.0572958	0.2291832	3.14553942	1.22040054	-33.56960922
5.12	512	0.039	-0.193	-0.97	-1.9480572	-0.0572958	0.4010706	3.1226211	1.22040054	-33.56387964
5.13	513	0.04	-0.19	-0.973	-2.0626488	-0.2291832	0.286479	3.10543236	1.21467096	-33.55815006
5.14	514	0.036	-0.189	-0.972	-1.7761698	-0.3437748	0.0572958	3.08251404	1.20894138	-33.55815006
5.15	515	0.034	-0.19	-0.974	-1.2605076	-0.4010706	0	3.52942128	1.22613012	-33.5466909
5.16	516	0.033	-0.191	-0.975	-0.9740286	-0.3437748	0	3.51796212	1.22040054	-33.5466909
5.17	517	0.03	-0.186	-0.973	-0.572958	-0.3437748	0.0572958	3.51223254	1.22040054	-33.5466909
5.18	518	0.031	-0.18	-0.973	-0.4010706	-0.1145916	0	3.50650296	1.22040054	-33.5466909
5.19	519	0.032	-0.175	-0.973	-0.5156622	-0.286479	-0.0572958	3.50077338	1.21467096	-33.5466909
5.2	520	0.033	-0.176	-0.972	-0.5156622	-0.1718874	-0.1145916	4.13102718	1.26623718	-33.53523174
5.21	521	0.033	-0.178	-0.971	-0.4583664	-0.4010706	0	4.1252976	1.2605076	-33.53523174
5.22	522	0.033	-0.18	-0.972	-0.5156622	-0.572958	0	4.11956802	1.25477802	-33.53523174
5.23	523	0.033	-0.183	-0.971	-0.4583664	-0.4583664	0.0572958	4.11383844	1.24904844	-33.53523174
5.24	524	0.032	-0.182	-0.971	-0.4583664	-0.4010706	0	4.11383844	1.24331886	-33.53523174
5.25	525	0.034	-0.18	-0.972	-0.4583664	-0.2291832	-0.0572958	4.6982556	1.27769634	-33.518043
5.26	526	0.035	-0.18	-0.973	-0.572958	-0.286479	0	4.69252602	1.27196676	-33.518043
5.27	527	0.035	-0.181	-0.972	-0.5156622	-0.3437748	0	4.68679644	1.27196676	-33.52377258
5.28	528	0.035	-0.183	-0.972	-0.8021412	-0.4010706	0	4.67533728	1.26623718	-33.52377258
5.29	529	0.034	-0.182	-0.969	-0.859437	-0.4583664	0	4.6696077	1.2605076	-33.52377258
5.3	530	0.031	-0.181	-0.968	-0.9167328	-0.5156622	-0.0572958	4.96754586	1.2605076	-33.51231342
5.31	531	0.03	-0.182	-0.968	-0.9740286	-0.1718874	-0.0572958	4.96181628	1.2605076	-33.51231342
5.32	532	0.03	-0.182	-0.973	-0.8021412	-0.1145916	-0.1718874	4.95035712	1.25477802	-33.51231342
5.33	533	0.031	-0.181	-0.973	-0.6875496	-0.0572958	-0.2291832	4.94462754	1.25477802	-33.518043
5.34	534	0.033	-0.185	-0.971	-0.6302538	0.0572958	-0.1145916	4.93889796	1.25477802	-33.518043
5.35	535	0.032	-0.185	-0.97	-0.9167328	0	0	5.31132066	1.27196676	-33.50658384
5.36	536	0.032	-0.184	-0.97	-1.2605076	0	0	5.2998615	1.27196676	-33.50658384
5.37	537	0.036	-0.184	-0.973	-1.145916	0	0	5.28840234	1.27196676	-33.50658384
5.38	538	0.036	-0.182	-0.972	-1.2032118	-0.2291832	-0.0572958	5.27694318	1.26623718	-33.50658384
5.39	539	0.035	-0.182	-0.974	-1.3178034	-0.286479	0	5.25975444	1.26623718	-33.50658384
5.4	540	0.034	-0.18	-0.975	-1.145916	-0.3437748	-0.0572958	5.49466722	1.27769634	-33.50085426
5.41	541	0.033	-0.18	-0.976	-0.7448454	-0.3437748	-0.1718874	5.48320806	1.27769634	-33.50658384
5.42	542	0.033	-0.182	-0.977	-0.6302538	-0.2291832	-0.1145916	5.47747848	1.27196676	-33.50658384
5.43	543	0.033	-0.184	-0.977	-0.572958	-0.1718874	0	5.4717489	1.27196676	-33.50658384
5.44	544	0.033	-0.184	-0.976	-0.5156622	-0.0572958	0.0572958	5.46601932	1.27196676	-33.50658384
5.45	545	0.032	-0.185	-0.976	-0.6875496	0	0.1145916	5.82698286	1.28342592	-33.49512468
5.46	546	0.033	-0.183	-0.977	-0.859437	0	0.0572958	5.82125328	1.28342592	-33.4893951
5.47	547	0.033	-0.18	-0.976	-0.8021412	0	0.1145916	5.80979412	1.28342592	-33.4893951
5.48	548	0.033	-0.176	-0.975	-0.572958	0	0.1145916	5.80406454	1.28342592	-33.4893951
5.49	549	0.031	-0.176	-0.976	-0.5156622	0	0.1718874	5.79833496	1.28342592	-33.4893951
5.5	550	0.03	-0.179	-0.976	-0.8021412	0	0.1718874	6.0733548	1.2891555	-33.47220636
5.51	551	0.03	-0.18	-0.974	-0.8021412	0.1145916	0.1145916	6.06189564	1.2891555	-33.47220636
5.52	552	0.031	-0.179	-0.975	0	0.3437748	0	6.06189564	1.29488508	-33.47220636
5.53	553	0.033	-0.176	-0.976	0	0.3437748	0	6.06189564	1.29488508	-33.47220636
5.54	554	0.035	-0.174	-0.976	0	0.286479	0	6.06189564	1.30061466	-33.47220636
5.55	555	0.033	-0.174	-0.973	0.0572958	0.286479	0	6.62339448	1.35218088	-33.45501762
5.56	556	0.032	-0.175	-0.974	0.1145916	0.3437748	0	6.62339448	1.35218088	-33.45501762
5.57	557	0.033	-0.176	-0.974	0.2291832	0.4583664	0.0572958	6.62912406	1.35791046	-33.45501762
5.58	558	0.033	-0.178	-0.972	0.1718874	0.5156622	0	6.62912406	1.36364004	-33.45501762
5.59	559	0.031	-0.179	-0.972	0.286479	0.4583664	-0.0572958	6.62912406	1.36936962	-33.45501762
5.6	560	0.031	-0.178	-0.975	0.286479	0.6875496	-0.1145916	6.80674104	1.38655836	-33.44928804
5.61	561	0.034	-0.178	-0.978	0.286479	0.7448454	-0.0572958	6.81247062	1.39228794	-33.44928804
5.62	562	0.035	-0.178	-0.978	0.286479	0.2291832	0	6.81247062	1.39228794	-33.44928804
5.63	563	0.032	-0.18	-0.975	0.3437748	0.0572958	0	6.8182002	1.39801752	-33.44928804
5.64	564	0.029	-0.181	-0.968	0.1145916	0.0572958	0	6.8182002	1.39801752	-33.44928804
5.65	565	0.031	-0.179	-0.971	-0.1145916	0.2291832	-0.0572958	7.08749046	1.41520626	-33.44355846
5.66	566	0.034	-0.174	-0.974	0	0.1145916	0	7.08749046	1.41520626	-33.44355846
5.67	567	0.036	-0.175	-0.972	0.0572958	0	-0.0572958	7.08749046	1.41520626	-33.44355846
5.68	568	0.038	-0.177	-0.976	-0.2291832	-0.1145916	0	7.08176088	1.41520626	-33.44355846
5.69	569	0.035	-0.177	-0.977	-0.286479	-0.3437748	0.0572958	7.08176088	1.40947668	-33.44355846
5.7	570	0.033	-0.176	-0.975	-0.1145916	-0.3437748	0.1718874	7.25937786	1.40947668	-33.4320993
5.71	571	0.031	-0.179	-0.97	-0.4010706	-0.4010706	0.1718874	7.25364828	1.4037471	-33.4320993
5.72	572	0.032	-0.181	-0.976	-0.859437	-0.286479	0.1718874	7.2479187	1.4037471	-33.4320993
5.73	573	0.034	-0.179	-0.976	-0.6875496	-0.286479	0.0572958	7.23645954	1.39801752	-33.4320993
5.74	574	0.035	-0.179	-0.974	-0.4010706	-0.3437748	0.0572958	7.23645954	1.39228794	-33.4320993
5.75	575	0.034	-0.178	-0.974	-0.3437748	-0.4583664	0.0572958	7.3625103	1.4037471	-33.42636972
5.76	576	0.032	-0.178	-0.975	-0.286479	-0.4010706	0	7.3625103	1.39801752	-33.4320993
5.77	577	0.029	-0.175	-0.971	-0.2291832	-0.3437748	0	7.35678072	1.39801752	-33.4320993
5.78	578	0.028	-0.171	-0.969	-0.1718874	-0.2291832	0	7.35678072	1.39228794	-33.4320993
5.79	579	0.029	-0.168	-0.969	0	-0.1145916	-0.1145916	7.35678072	1.39228794	-33.4320993
5.8	580	0.031	-0.168	-0.971	0.3437748	-0.1145916	-0.1718874	7.45991316	1.39801752	-33.4320993
5.81	581	0.033	-0.171	-0.971	0.5156622	-0.1718874	-0.1145916	7.46564274	1.39228794	-33.4320993
5.82	582	0.033	-0.172	-0.974	0.4010706	-0.1718874	0	7.47137232	1.39228794	-33.4320993
5.83	583	0.031	-0.172	-0.977	0.286479	-0.2291832	-0.0572958	7.4771019	1.39228794	-33.43782888
5.84	584	0.031	-0.171	-0.976	0.286479	-0.1145916	-0.1718874	7.4771019	1.38655836	-33.43782888
5.85	585	0.032	-0.171	-0.979	0.286479	0	-0.1718874	7.60888224	1.39801752	-33.43782888
5.86	586	0.032	-0.171	-0.979	0.3437748	0	-0.2291832	7.60888224	1.39801752	-33.43782888
5.87	587	0.034	-0.172	-0.976	0.5156622	0	-0.1718874	7.61461182	1.39801752	-33.43782888
5.88	588	0.034	-0.172	-0.977	0.572958	0	-0.2291832	7.6203414	1.39801752	-33.44355846
5.89	589	0.034	-0.173	-0.976	0.7448454	0.0572958	-0.1718874	7.63180056	1.39801752	-33.44355846
5.9	590	0.035	-0.175	-0.975	0.859437	0.0572958	-0.1145916	7.71774426	1.41520626	-33.44928804
5.91	591	0.035	-0.176	-0.974	0.9740286	-0.0572958	0	7.72920342	1.41520626	-33.44928804
5.92	592	0.033	-0.174	-0.977	0.8021412	-0.0572958	0	7.734933	1.41520626	-33.44928804
5.93	593	0.032	-0.173	-0.977	0.6875496	0.0572958	-0.0572958	7.74066258	1.41520626	-33.44928804
5.94	594	0.031	-0.173	-0.977	0.9167328	0.0572958	-0.1718874	7.75212174	1.42093584	-33.44928804
5.95	595	0.032	-0.174	-0.977	1.0313244	0.1718874	-0.2291832	7.80941754	1.42666542	-33.45501762
5.96	596	0.033	-0.178	-0.974	0.9167328	0.1718874	-0.286479	7.81514712	1.42666542	-33.45501762
5.97	597	0.032	-0.178	-0.974	0.6302538	0.1145916	-0.2291832	7.82660628	1.42666542	-33.45501762
5.98	598	0.032	-0.176	-0.975	0.572958	0.286479	-0.1145916	7.83233586	1.432395	-33.4607472
5.99	599	0.033	-0.173	-0.972	0.6875496	0.3437748	-0.1718874	7.83806544	1.43812458	-33.4607472
6	600	0.036	-0.174	-0.975	0.6302538	0.3437748	-0.1145916	7.9068204	1.45531332	-33.4607472
6.01	601	0.037	-0.173	-0.978	0.7448454	0.1145916	0	7.91254998	1.45531332	-33.4607472
6.02	602	0.036	-0.172	-0.977	0.8021412	-0.0572958	0.0572958	7.91827956	1.45531332	-33.4607472
6.03	603	0.034	-0.172	-0.978	1.0886202	-0.0572958	0	7.92973872	1.45531332	-33.4607472
6.04	604	0.032	-0.172	-0.976	1.2032118	-0.1718874	-0.1145916	7.94692746	1.45531332	-33.4607472
6.05	605	0.031	-0.173	-0.975	1.145916	-0.2291832	-0.1718874	7.9927641	1.44958374	-33.4607472
6.06	606	0.032	-0.174	-0.976	1.145916	-0.0572958	-0.1145916	8.00422326	1.44958374	-33.46647678
6.07	607	0.033	-0.174	-0.975	1.0886202	-0.1145916	0	8.01568242	1.44958374	-33.46647678
6.08	608	0.032	-0.174	-0.973	1.145916	0	0	8.02714158	1.44958374	-33.46647678
6.09	609	0.032	-0.176	-0.974	1.0886202	0	0	8.03860074	1.44958374	-33.46647678
6.1	610	0.031	-0.176	-0.975	0.9740286	0.0572958	-0.0572958	8.09589654	1.44958374	-33.46647678
6.11	611	0.031	-0.175	-0.975	0.8021412	0.1718874	0	8.10162612	1.44958374	-33.46647678
6.12	612	0.032	-0.173	-0.975	0.8021412	0.1145916	0.0572958	8.11308528	1.44958374	-33.4607472
6.13	613	0.033	-0.17	-0.975	0.8021412	0.0572958	0	8.11881486	1.44958374	-33.4607472
6.14	614	0.033	-0.17	-0.976	1.0313244	0.0572958	0	8.13027402	1.44958374	-33.4607472
6.15	615	0.032	-0.172	-0.975	1.3178034	0.1145916	-0.0572958	8.17038108	1.45531332	-33.4607472
6.16	616	0.033	-0.174	-0.976	0.4583664	0	0	8.17038108	1.45531332	-33.4607472
6.17	617	0.033	-0.173	-0.974	0.4010706	0	0	8.17611066	1.45531332	-33.4607472
6.18	618	0.034	-0.172	-0.974	0.286479	0.0572958	0	8.18184024	1.45531332	-33.4607472
6.19	619	0.035	-0.171	-0.974	0.2291832	0.0572958	0	8.18184024	1.45531332	-33.4607472
6.2	620	0.036	-0.173	-0.973	0.2291832	0.1145916	0	8.28497268	1.49542038	-33.46647678
6.21	621	0.036	-0.175	-0.973	0.0572958	0.1145916	0	8.28497268	1.50114996	-33.46647678
6.22	622	0.035	-0.175	-0.974	0.1145916	0.0572958	0.0572958	8.29070226	1.50114996	-33.46647678
6.23	623	0.034	-0.175	-0.975	0.1718874	0	0.1718874	8.29070226	1.50114996	-33.46647678
6.24	624	0.032	-0.176	-0.976	0	-0.2291832	0.1145916	8.29070226	1.49542038	-33.46647678
6.25	625	0.032	-0.176	-0.975	-0.1145916	-0.2291832	0.1718874	8.34799806	1.49542038	-33.4607472
6.26	626	0.03	-0.175	-0.977	-0.2291832	-0.1718874	0.1718874	8.34799806	1.4896908	-33.4607472
6.27	627	0.029	-0.176	-0.977	0	-0.0572958	0.1145916	8.34799806	1.4896908	-33.45501762
6.28	628	0.029	-0.174	-0.975	0	0.0572958	0.0572958	8.34799806	1.4896908	-33.45501762
6.29	629	0.03	-0.173	-0.973	-0.0572958	0.1718874	-0.0572958	8.34226848	1.49542038	-33.45501762
6.3	630	0.034	-0.172	-0.971	-0.286479	0.1145916	0	8.38237554	1.52979786	-33.4607472
6.31	631	0.036	-0.169	-0.975	-0.286479	0.0572958	0	8.38237554	1.52979786	-33.4607472
6.32	632	0.035	-0.172	-0.974	-0.286479	0.0572958	-0.0572958	8.37664596	1.52979786	-33.4607472
6.33	633	0.035	-0.175	-0.976	-0.286479	0	-0.1718874	8.37091638	1.52979786	-33.46647678
6.34	634	0.037	-0.176	-0.976	-0.4583664	-0.1718874	-0.1145916	8.37091638	1.52979786	-33.46647678
6.35	635	0.036	-0.175	-0.973	-0.4010706	-0.3437748	0.2291832	8.38810512	1.52979786	-33.46647678
6.36	636	0.033	-0.175	-0.969	-0.8021412	-0.4010706	0.2291832	8.38237554	1.52406828	-33.4607472
6.37	637	0.031	-0.172	-0.972	-0.9167328	-0.3437748	0.1718874	8.37091638	1.52406828	-33.4607472
6.38	638	0.035	-0.172	-0.974	-0.572958	-0.286479	0.1145916	8.3651868	1.5183387	-33.4607472
6.39	639	0.036	-0.173	-0.973	-0.286479	-0.286479	0.0572958	8.3651868	1.51260912	-33.4607472
6.4	640	0.035	-0.176	-0.975	-0.1718874	-0.3437748	-0.0572958	8.40529386	1.52406828	-33.4607472
6.41	641	0.035	-0.177	-0.975	-0.1718874	-0.286479	0	8.40529386	1.5183387	-33.4607472
6.42	642	0.031	-0.175	-0.974	-0.1145916	-0.286479	0.0572958	8.40529386	1.5183387	-33.4607472
6.43	643	0.03	-0.173	-0.975	-0.1718874	-0.1718874	0	8.39956428	1.51260912	-33.4607472
6.44	644	0.031	-0.171	-0.974	-0.2291832	-0.0572958	0	8.39956428	1.51260912	-33.4607472
6.45	645	0.032	-0.169	-0.973	-0.1718874	0	-0.1145916	8.42821218	1.51260912	-33.4607472
6.46	646	0.034	-0.17	-0.973	-0.0572958	-0.0572958	-0.0572958	8.42821218	1.50687954	-33.4607472
6.47	647	0.034	-0.171	-0.974	0.1145916	-0.1145916	-0.0572958	8.42821218	1.50687954	-33.46647678
6.48	648	0.034	-0.171	-0.975	0.286479	-0.1718874	-0.0572958	8.42821218	1.50687954	-33.46647678
6.49	649	0.033	-0.172	-0.977	0.4010706	-0.0572958	0	8.43394176	1.50687954	-33.46647678
6.5	650	0.032	-0.172	-0.977	0.3437748	-0.0572958	0	8.46258966	1.50687954	-33.46647678
6.51	651	0.032	-0.171	-0.976	0.1718874	-0.1145916	0	8.46258966	1.50114996	-33.46647678
6.52	652	0.034	-0.171	-0.976	0.1718874	-0.0572958	0	8.46831924	1.50114996	-33.46647678
6.53	653	0.034	-0.171	-0.976	0.1718874	0	0.1145916	8.46831924	1.50114996	-33.46647678
6.54	654	0.034	-0.172	-0.975	0.2291832	0	0.1145916	8.47404882	1.50114996	-33.4607472
6.55	655	0.034	-0.174	-0.975	0.3437748	0	0.1718874	8.50269672	1.51260912	-33.4607472
6.56	656	0.035	-0.175	-0.975	0.286479	-0.0572958	0.1718874	8.5084263	1.51260912	-33.4607472
6.57	657	0.034	-0.175	-0.973	0.1718874	0	0.1718874	8.5084263	1.51260912	-33.4607472
6.58	658	0.031	-0.173	-0.973	0.1145916	-0.0572958	0.1718874	8.5084263	1.51260912	-33.45501762
6.59	659	0.029	-0.174	-0.974	-0.0572958	0.0572958	0.0572958	8.5084263	1.51260912	-33.45501762
6.6	660	0.03	-0.173	-0.975	0	0.1718874	0	8.54280378	1.50687954	-33.45501762
6.61	661	0.032	-0.173	-0.975	-0.1145916	0.286479	0	8.54280378	1.51260912	-33.44928804
6.62	662	0.031	-0.175	-0.974	-0.1145916	0.286479	0.0572958	8.5370742	1.51260912	-33.44928804
6.63	663	0.032	-0.174	-0.975	-0.0572958	0.2291832	0.286479	8.5370742	1.5183387	-33.44928804
6.64	664	0.033	-0.173	-0.975	0	0.1718874	0.1718874	8.5370742	1.5183387	-33.44355846
6.65	665	0.034	-0.173	-0.975	0	0.2291832	0.0572958	8.55999252	1.52979786	-33.44355846
6.66	666	0.035	-0.173	-0.975	0	0.1145916	0.1145916	8.5657221	1.52979786	-33.44355846
6.67	667	0.036	-0.173	-0.975	0.0572958	0.0572958	0.0572958	8.5657221	1.53552744	-33.44355846
6.68	668	0.034	-0.174	-0.975	0.2291832	-0.0572958	0.0572958	8.5657221	1.52979786	-33.44355846
6.69	669	0.032	-0.173	-0.975	0.4010706	-0.1145916	0.0572958	8.57145168	1.52979786	-33.43782888
6.7	670	0.033	-0.173	-0.976	0.4583664	-0.0572958	0	8.59437	1.52406828	-33.43782888
6.71	671	0.032	-0.173	-0.975	0.4010706	-0.1145916	0	8.60009958	1.5183387	-33.43782888
6.72	672	0.032	-0.173	-0.976	0.2291832	-0.0572958	0.1145916	8.60009958	1.5183387	-33.43782888
6.73	673	0.032	-0.175	-0.975	0.2291832	-0.0572958	0.1145916	8.60582916	1.5183387	-33.43782888
6.74	674	0.031	-0.174	-0.974	0.286479	0	0.1718874	8.60582916	1.5183387	-33.4320993
6.75	675	0.03	-0.176	-0.976	0.1718874	0.1718874	0	8.63447706	1.51260912	-33.4320993
6.76	676	0.03	-0.176	-0.975	0.0572958	0.1145916	0.0572958	8.63447706	1.51260912	-33.4320993
6.77	677	0.031	-0.173	-0.974	-0.0572958	0.1145916	0	8.63447706	1.5183387	-33.4320993
6.78	678	0.032	-0.173	-0.974	-0.0572958	0.0572958	0	8.63447706	1.5183387	-33.4320993
6.79	679	0.032	-0.172	-0.975	-0.1718874	0	0	8.62874748	1.5183387	-33.4320993
6.8	680	0.033	-0.171	-0.973	-0.286479	-0.0572958	-0.0572958	8.64020664	1.5183387	-33.4320993
6.81	681	0.033	-0.171	-0.973	-0.1145916	0	-0.1718874	8.64020664	1.5183387	-33.4320993
6.82	682	0.033	-0.17	-0.975	-0.1145916	0.1718874	-0.2291832	8.63447706	1.5183387	-33.4320993
6.83	683	0.034	-0.171	-0.977	-0.1718874	0.286479	-0.2291832	8.63447706	1.52406828	-33.43782888
6.84	684	0.035	-0.173	-0.978	-0.1718874	0.4010706	-0.1718874	8.63447706	1.52406828	-33.43782888
6.85	685	0.034	-0.174	-0.978	-0.1718874	0.4010706	-0.2291832	8.64020664	1.53552744	-33.43782888
6.86	686	0.035	-0.175	-0.975	0	0.3437748	-0.2291832	8.63447706	1.54125702	-33.44355846
6.87	687	0.034	-0.173	-0.976	0	0.2291832	-0.1145916	8.63447706	1.54125702	-33.44355846
6.88	688	0.035	-0.172	-0.973	-0.0572958	0.2291832	-0.1145916	8.63447706	1.5469866	-33.44355846
6.89	689	0.035	-0.17	-0.971	0	0.2291832	-0.1145916	8.63447706	1.5469866	-33.44355846
6.9	690	0.036	-0.169	-0.972	0	0.1145916	-0.1145916	8.63447706	1.55844576	-33.44928804
6.91	691	0.035	-0.171	-0.973	0	0.0572958	-0.0572958	8.63447706	1.56417534	-33.44928804
6.92	692	0.034	-0.172	-0.975	-0.1145916	0.0572958	-0.0572958	8.62874748	1.56417534	-33.44928804
6.93	693	0.035	-0.174	-0.975	0	0	0	8.62874748	1.56417534	-33.44928804
6.94	694	0.034	-0.175	-0.977	0.0572958	-0.1145916	0	8.63447706	1.55844576	-33.44928804
