TimeStamp(s)	FrameCounter	AccX	AccY	AccZ	GyrX	GyrY	GyrZ	EulerX	EulerY	EulerZ
0.01	1	-0.065	-0.982	0.223	-3.437748	-4.9847346	1.718874	100.554129	-3.01375908	-21.10204314
0.02	2	-0.061	-0.979	0.226	-4.0680018	4.870143	0.859437	100.5082924	-3.03094782	-21.0562065
0.03	3	-0.061	-0.979	0.229	-3.8961144	5.5003968	1.0886202	100.4624557	-3.05386614	-21.00464028
0.04	4	-0.061	-0.981	0.229	-4.0680018	5.9014674	1.2032118	100.4223487	-3.07678446	-20.94734448
0.05	5	-0.063	-0.981	0.232	-4.297185	6.4171296	1.2605076	100.3879712	-3.10543236	-20.89004868
0.06	6	-0.063	-0.981	0.228	-4.2398892	6.7609044	1.432395	100.336405	-3.13408026	-20.8270233
0.07	7	-0.061	-0.982	0.226	-4.1252976	6.8182002	1.6615782	100.2905683	-3.16272816	-20.76399792
0.08	8	-0.059	-0.985	0.225	-4.1825934	6.589017	1.9480572	100.2447317	-3.19710564	-20.70097254
0.09	9	-0.058	-0.986	0.223	-4.4117766	6.1879464	2.1199446	100.198895	-3.23148312	-20.64940632
0.1	10	-0.058	-0.986	0.221	-4.5263682	5.9014674	2.1199446	100.158788	-3.26013102	-20.59211052
0.11	11	-0.059	-0.987	0.22	-4.583664	5.3858052	2.0626488	100.1072218	-3.2945085	-20.54627388
0.12	12	-0.059	-0.988	0.219	-4.9274388	5.0420304	2.1199446	100.0556555	-3.32888598	-20.50043724
0.13	13	-0.06	-0.988	0.221	-5.2139178	4.4117766	2.2345362	99.99835974	-3.35753388	-20.46033018
0.14	14	-0.065	-0.989	0.22	-5.443101	3.5523396	2.578311	99.94106394	-3.39191136	-20.43168228
0.15	15	-0.071	-0.99	0.223	-5.3285094	2.4064236	3.0939732	99.90095688	-3.42628884	-20.41449354
0.16	16	-0.079	-0.99	0.226	-5.5576926	1.432395	3.8388186	99.84366108	-3.47212548	-20.40303438
0.17	17	-0.087	-0.992	0.233	-5.72958	0.0572958	4.4690724	99.78636528	-3.51223254	-20.41449354
0.18	18	-0.094	-0.995	0.234	-5.9014674	-1.0886202	4.870143	99.72906948	-3.55806918	-20.43168228
0.19	19	-0.101	-1.003	0.237	-6.3598338	-2.0626488	5.2712136	99.6660441	-3.6096354	-20.46605976
0.2	20	-0.102	-1.008	0.231	-7.9641162	-2.9220858	6.016059	99.59728914	-3.67266078	-20.50043724
0.21	21	-0.105	-1.002	0.219	-9.8548776	-4.8128472	7.161975	99.49988628	-3.72995658	-20.56346262
0.22	22	-0.116	-0.992	0.214	-11.8602306	-7.5630456	8.307891	99.38529468	-3.79871154	-20.64940632
0.23	23	-0.122	-0.981	0.207	-14.2666542	-10.886202	9.6256944	99.25351434	-3.87319608	-20.77545708
0.24	24	-0.13	-0.975	0.197	-17.0168526	-14.32395	10.7143146	99.0930861	-3.9534102	-20.93588532
0.25	25	-0.142	-0.974	0.183	-20.4546006	-18.1054728	11.6310474	98.89828038	-4.04508348	-21.13069104
0.26	26	-0.154	-0.969	0.166	-24.1215318	-22.0015872	11.8029348	98.67482676	-4.1252976	-21.3713334
0.27	27	-0.156	-0.959	0.158	-27.215505	-25.4393352	11.0007936	98.42272524	-4.18832298	-21.64062366
0.28	28	-0.145	-0.947	0.164	-29.507337	-27.6738714	9.5111028	98.1477054	-4.23415962	-21.92710266
0.29	29	-0.132	-0.945	0.18	-31.2835068	-28.361421	7.8495246	97.85549682	-4.2685371	-22.21931124
0.3	30	-0.13	-0.963	0.186	-32.2002396	-27.8457588	6.7036086	97.55755866	-4.297185	-22.50579024
0.31	31	-0.133	-0.983	0.18	-31.51269	-26.8717302	6.016059	97.2596205	-4.31437374	-22.78081008
0.32	32	-0.133	-0.998	0.188	-29.2781538	-26.4133638	5.9014674	96.99033024	-4.33729206	-23.05010034
0.33	33	-0.133	-1.003	0.219	-25.4393352	-25.5539268	6.016059	96.75541746	-4.36021038	-23.31366102
0.34	34	-0.134	-1.008	0.254	-20.340009	-25.4393352	6.5317212	96.5720709	-4.39458786	-23.57149212
0.35	35	-0.137	-1.015	0.278	-18.334656	-26.069589	6.9900876	96.42310182	-4.42896534	-23.8350528
0.36	36	-0.139	-1.021	0.286	-17.761698	-26.4133638	7.734933	96.26840316	-4.4690724	-24.11007264
0.37	37	-0.14	-1.02	0.28	-17.9908812	-26.1268848	8.307891	96.10797492	-4.52063862	-24.37363332
0.38	38	-0.143	-1.007	0.269	-17.18874	-25.9549974	8.7662574	95.95900584	-4.57220484	-24.64292358
0.39	39	-0.139	-0.995	0.266	-15.3552744	-25.3247436	8.9954406	95.8272255	-4.62950064	-24.90075468
0.4	40	-0.137	-0.989	0.273	-13.8082878	-24.7517856	9.5111028	95.72982264	-4.6982556	-25.15858578
0.41	41	-0.137	-0.979	0.281	-13.0634424	-24.5798982	10.3705398	95.62096062	-4.77274014	-25.4106873
0.42	42	-0.136	-0.963	0.282	-13.0061466	-24.8090814	11.172681	95.51782818	-4.85295426	-25.6685184
0.43	43	-0.137	-0.947	0.284	-12.605076	-24.8663772	11.8029348	95.41469574	-4.93889796	-25.9263495
0.44	44	-0.143	-0.942	0.278	-12.4331886	-24.4080108	12.0894138	95.3115633	-5.03057124	-26.17845102
0.45	45	-0.149	-0.94	0.27	-12.605076	-24.2361234	12.2040054	95.23134918	-5.1279741	-26.43055254
0.46	46	-0.15	-0.939	0.265	-13.2926256	-23.7204612	11.9175264	95.12248716	-5.21964738	-26.67692448
0.47	47	-0.15	-0.937	0.26	-13.6936962	-23.204799	11.45916	95.00789556	-5.30559108	-26.91756684
0.48	48	-0.146	-0.937	0.259	-14.610429	-23.3193906	11.2299768	94.88757438	-5.39153478	-27.1582092
0.49	49	-0.14	-0.933	0.253	-15.183387	-23.9496444	10.9434978	94.75579404	-5.47747848	-27.41031072
0.5	50	-0.135	-0.931	0.246	-15.469866	-24.5798982	10.6570188	94.64693202	-5.5576926	-27.66241224
0.51	51	-0.135	-0.928	0.239	-15.5271618	-25.0955604	10.2559482	94.51515168	-5.63790672	-27.92024334
0.52	52	-0.135	-0.923	0.239	-14.9542038	-25.496631	9.5683986	94.3948305	-5.70666168	-28.18380402
0.53	53	-0.142	-0.917	0.233	-14.4385416	-25.8977016	8.7662574	94.2802389	-5.76395748	-28.4473647
0.54	54	-0.149	-0.914	0.233	-13.6364004	-26.356068	8.307891	94.17137688	-5.82125328	-28.71665496
0.55	55	-0.153	-0.915	0.242	-12.6623718	-26.5279554	7.9641162	94.09689234	-5.87854908	-28.98594522
0.56	56	-0.156	-0.915	0.237	-11.9748222	-26.8717302	7.448454	94.00521906	-5.9301153	-29.26096506
0.57	57	-0.157	-0.916	0.241	-11.1153852	-27.1009134	6.875496	93.92500494	-5.97595194	-29.5359849
0.58	58	-0.158	-0.914	0.242	-10.0840608	-27.1582092	6.3598338	93.85624998	-6.01032942	-29.81100474
0.59	59	-0.166	-0.914	0.236	-8.9954406	-27.1582092	5.9014674	93.7932246	-6.0447069	-30.080295
0.6	60	-0.173	-0.916	0.232	-8.0787078	-26.4133638	5.443101	93.77030628	-6.08481396	-30.34958526
0.61	61	-0.178	-0.909	0.228	-7.1046792	-25.210152	4.9274388	93.72446964	-6.11346186	-30.60168678
0.62	62	-0.183	-0.906	0.217	-5.72958	-23.8350528	4.010706	93.69582174	-6.1306506	-30.84232914
0.63	63	-0.187	-0.906	0.218	-3.6669312	-22.5172494	3.3231564	93.68436258	-6.14210976	-31.06578276
0.64	64	-0.186	-0.904	0.218	-1.8334656	-20.9702628	2.4637194	93.69009216	-6.14783934	-31.27777722
0.65	65	-0.185	-0.903	0.207	-0.1718874	-19.6524594	1.3750992	93.74738796	-6.16502808	-31.47258294
0.66	66	-0.19	-0.898	0.204	1.9480572	-18.5638392	0.4010706	93.7932246	-6.14783934	-31.6559295
0.67	67	-0.203	-0.896	0.216	4.4690724	-16.329303	-0.572958	93.85624998	-6.1306506	-31.82208732
0.68	68	-0.223	-0.892	0.222	6.4171296	-13.8082878	-1.8334656	93.9364641	-6.09627312	-31.95386766
0.69	69	-0.249	-0.892	0.234	7.6203414	-11.2872726	-3.3804522	94.02813738	-6.05043648	-32.06272968
0.7	70	-0.273	-0.889	0.244	8.9954406	-8.5370742	-4.6409598	94.17137688	-6.03897732	-32.14867338
0.71	71	-0.284	-0.901	0.261	10.599723	-4.4117766	-5.7868758	94.28596848	-5.97595194	-32.18305086
0.72	72	-0.28	-0.93	0.28	9.6829902	1.3178034	-7.1046792	94.37764176	-5.90719698	-32.16586212
0.73	73	-0.268	-0.963	0.285	8.307891	7.9068204	-8.5370742	94.4521263	-5.82698286	-32.07991842
0.74	74	-0.268	-0.988	0.307	10.2559482	9.5683986	-9.1100322	94.54952916	-5.74676874	-31.97678598
0.75	75	-0.279	-1.011	0.355	14.3812458	7.734933	-9.0527364	94.72141656	-5.68374336	-31.89084228
0.76	76	-0.3	-1.062	0.422	17.9908812	6.7036086	-8.880849	94.89330396	-5.60352924	-31.81062816
0.77	77	-0.323	-1.079	0.457	20.3973048	6.0733548	-8.59437	95.09383926	-5.52331512	-31.7418732
0.78	78	-0.335	-1.088	0.469	23.6631654	4.9274388	-8.4224826	95.32875204	-5.443101	-31.6845774
0.79	79	-0.337	-1.109	0.461	26.2414764	5.5003968	-9.9121734	95.58658314	-5.35142772	-31.61582244
0.8	80	-0.332	-1.104	0.445	27.1582092	5.443101	-11.2872726	95.87879172	-5.25402486	-31.54706748
0.81	81	-0.319	-1.081	0.436	26.1841806	4.8128472	-11.2872726	96.13662282	-5.15089242	-31.4840421
0.82	82	-0.283	-1.083	0.419	23.6631654	3.9534102	-10.6570188	96.3715356	-5.04775998	-31.43247588
0.83	83	-0.209	-1.121	0.384	19.0222056	5.8441716	-9.453807	96.55488216	-4.96181628	-31.35799134
0.84	84	-0.076	-1.235	0.284	14.0947668	12.2613012	-5.9014674	96.6866625	-4.92170922	-31.23194058
0.85	85	0.052	-1.451	0.178	9.3392154	13.4072172	1.718874	96.76687662	-4.95035712	-31.10016024
0.86	86	0.048	-1.682	0.212	7.0473834	-2.1199446	12.0894138	96.84709074	-5.06494872	-31.13453772
0.87	87	-0.049	-1.62	0.278	8.7089616	-22.2307704	13.9228794	96.95595276	-5.17381074	-31.3694505
0.88	88	-0.176	-1.342	0.254	8.6516658	-24.1215318	9.8548776	97.07054436	-5.23110654	-31.61582244
0.89	89	-0.249	-1.074	0.22	8.8235532	-22.1734746	3.9534102	97.18513596	-5.23683612	-31.83927606
0.9	90	-0.255	-0.853	0.172	3.6096354	-15.9855282	-2.6356068	97.23670218	-5.21964738	-31.99397472
0.91	91	-0.231	-0.706	0.119	-0.859437	-8.1360036	-6.6463128	97.23670218	-5.14516284	-32.06845926
0.92	92	-0.192	-0.639	0.083	-5.9587632	-0.5156622	-8.1932994	97.1736768	-5.06494872	-32.06272968
0.93	93	-0.133	-0.617	0.069	-11.745639	9.0527364	-9.8548776	97.04762604	-4.97900502	-31.96532682
0.94	94	-0.081	-0.681	0.041	-15.3552744	16.9595568	-10.7716104	96.87000906	-4.8987909	-31.78770984
0.95	95	-0.023	-0.805	-0.006	-18.5638392	19.8816426	-9.9694692	96.64655544	-4.82430636	-31.58144496
0.96	96	0.045	-0.914	-0.059	-19.6524594	18.4492476	-6.4171296	96.4288314	-4.78992888	-31.39236882
0.97	97	0.103	-0.98	-0.095	-19.2513888	12.605076	-1.5469866	96.22256652	-4.78992888	-31.27204764
0.98	98	0.125	-1.008	-0.085	-15.756345	3.0939732	1.432395	96.0564087	-4.8128472	-31.24339974
0.99	99	0.12	-1.009	-0.037	-9.9121734	-6.875496	1.3750992	95.96473542	-4.81857678	-31.3121547
1	100	0.092	-0.986	0.009	-2.9793816	-14.7250206	-1.2605076	95.91889878	-4.73836266	-31.4553942
1.01	101	0.049	-0.951	0.057	4.2398892	-19.5378678	-4.9274388	95.97619458	-4.66387812	-31.64447034
1.02	102	-0.026	-0.922	0.116	10.4851314	-20.912967	-8.021412	96.10224534	-4.5550161	-31.83927606
1.03	103	-0.084	-0.929	0.174	16.5584862	-19.767051	-10.0840608	96.2855919	-4.42896534	-32.02262262
1.04	104	-0.118	-0.963	0.194	17.7044022	-16.1574156	-11.0580894	96.48039762	-4.297185	-32.16586212
1.05	105	-0.126	-1.011	0.191	16.3865988	-11.5737516	-11.6310474	96.66374418	-4.17113424	-32.26326498
1.06	106	-0.115	-1.046	0.186	14.037471	-8.7089616	-12.0894138	96.81271326	-4.0393539	-32.33201994
1.07	107	-0.089	-1.049	0.175	11.45916	-7.5057498	-12.1467096	96.93303444	-3.90757356	-32.38931574
1.08	108	-0.06	-1.02	0.161	9.3965112	-7.3911582	-11.8602306	97.03616688	-3.77579322	-32.44661154
1.09	109	-0.04	-0.985	0.149	7.9068204	-7.1046792	-11.6310474	97.116381	-3.64974246	-32.50390734
1.1	110	-0.037	-0.951	0.154	6.1879464	-7.8495246	-11.6310474	97.19086554	-3.51796212	-32.56120314
1.11	111	-0.041	-0.931	0.166	3.437748	-8.5370742	-11.9175264	97.2309726	-3.38618178	-32.6299581
1.12	112	-0.043	-0.917	0.189	0.9740286	-8.880849	-11.9175264	97.24816134	-3.25440144	-32.70444264
1.13	113	-0.043	-0.908	0.202	-1.432395	-9.6829902	-11.8029348	97.23670218	-3.1226211	-32.77892718
1.14	114	-0.039	-0.912	0.194	-3.2658606	-8.9954406	-11.6310474	97.20805428	-2.99657034	-32.85341172
1.15	115	-0.03	-0.923	0.185	-4.583664	-8.4797784	-11.45916	97.17940638	-2.86479	-32.92216668
1.16	116	-0.011	-0.93	0.186	-5.6722842	-9.453807	-11.5737516	97.12784016	-2.73300966	-33.0023808
1.17	117	0.006	-0.926	0.193	-6.016059	-11.4018642	-11.0007936	97.07054436	-2.6069589	-33.09978366
1.18	118	0.026	-0.916	0.205	-5.2712136	-14.0947668	-9.6829902	97.02470772	-2.4923673	-33.22583442
1.19	119	0.039	-0.916	0.213	-4.6982556	-18.334656	-8.021412	96.98460066	-2.38350528	-33.39772182
1.2	120	0.051	-0.915	0.218	-4.4117766	-21.3713334	-6.7036086	96.9731415	-2.26891368	-33.59252754
1.21	121	0.058	-0.913	0.228	-3.3804522	-24.1215318	-5.6149884	96.95022318	-2.1772404	-33.82171074
1.22	122	0.056	-0.905	0.245	-2.3491278	-27.1582092	-4.297185	96.93876402	-2.09702628	-34.08527142
1.23	123	0.046	-0.896	0.267	-1.432395	-30.0229992	-2.5210152	96.93876402	-2.02827132	-34.37748
1.24	124	0.035	-0.883	0.287	-0.4583664	-31.7418732	-0.7448454	96.95022318	-1.97097552	-34.68687732
1.25	125	0.031	-0.869	0.303	0.1718874	-33.0023808	0.859437	97.0017894	-1.91367972	-35.0077338
1.26	126	0.033	-0.866	0.316	0.286479	-35.236917	2.6929026	97.02470772	-1.8907614	-35.3515086
1.27	127	0.026	-0.868	0.299	-0.0572958	-35.1223254	4.5263682	97.03616688	-1.88503182	-35.70101298
1.28	128	0.026	-0.862	0.27	-0.859437	-32.6013102	6.589017	97.04762604	-1.90222056	-36.02759904
1.29	129	0.046	-0.876	0.236	-1.6615782	-28.1895336	8.307891	97.04189646	-1.94232762	-36.31407804
1.3	130	0.069	-0.888	0.203	-2.2345362	-23.8350528	9.8548776	97.04189646	-1.98243468	-36.56044998
1.31	131	0.083	-0.895	0.187	-1.3750992	-22.345362	11.2872726	97.04189646	-2.0626488	-36.79536276
1.32	132	0.092	-0.892	0.249	2.7501984	-23.3193906	11.8029348	97.08200352	-2.14286292	-37.03600512
1.33	133	0.075	-0.851	0.347	9.7975818	-26.5279554	12.1467096	97.19659512	-2.22307704	-37.31102496
1.34	134	0.004	-0.847	0.382	17.761698	-30.9970278	12.2613012	97.39140084	-2.291832	-37.62615186
1.35	135	-0.056	-0.897	0.414	24.7517856	-33.9764094	12.8342592	97.689339	-2.36631654	-37.96992666
1.36	136	-0.096	-0.933	0.496	30.653253	-40.1643558	13.8655836	98.02165464	-2.4350715	-38.37672684
1.37	137	-0.085	-0.97	0.564	34.8931422	-45.4355694	14.0947668	98.4055365	-2.49809688	-38.83509324
1.38	138	-0.058	-1.033	0.531	34.7212548	-38.1590028	10.6570188	98.7779592	-2.53247436	-39.2189751
1.39	139	-0.054	-1.097	0.499	34.2628884	-25.8977016	4.6409598	99.14465232	-2.52674478	-39.4768062
1.4	140	-0.089	-1.137	0.496	28.8770832	-24.7517856	1.4896908	99.4655088	-2.49809688	-39.71744856
1.41	141	-0.124	-1.192	0.453	17.3033316	-31.1116194	2.6356068	99.66031452	-2.4637194	-40.0211163
1.42	142	-0.25	-1.361	0.292	14.7823164	-35.236917	3.8961144	99.83220192	-2.42934192	-40.3648911
1.43	143	-0.211	-1.652	0.232	12.7769634	-19.9962342	-0.0572958	99.96971184	-2.38923486	-40.55969682
1.44	144	-0.202	-1.641	0.172	3.8961144	-21.8296998	-1.7761698	100.0212781	-2.32620948	-40.7659617
1.45	145	-0.259	-1.629	0.214	15.5844576	-33.0596766	-4.4690724	100.1931655	-2.21734746	-41.07535902
1.46	146	-0.164	-1.668	0.061	10.7716104	-20.5118964	-14.037471	100.3134866	-2.03973048	-41.24724642
1.47	147	0.012	-1.468	-0.089	11.2299768	-9.2246238	-19.9962342	100.4280782	-1.82773602	-41.30454222
1.48	148	0.126	-1.25	-0.027	19.2513888	-21.3140376	-15.5844576	100.6343431	-1.62720072	-41.47642962
1.49	149	0.199	-1.029	0.018	10.3705398	-35.2942128	-7.9068204	100.7546643	-1.47250206	-41.80301568
1.5	150	0.227	-0.775	-0.003	-1.6042824	-43.9458786	-2.2345362	100.7374756	-1.33499214	-42.22127502
1.51	151	0.211	-0.66	0.015	-8.8235532	-52.8840234	-0.286479	100.6687206	-1.22613012	-42.73120764
1.52	152	0.147	-0.66	0.013	-16.5584862	-53.1132066	-4.297185	100.5140219	-1.07143146	-43.24114026
1.53	153	0.039	-0.755	0.014	-22.5172494	-46.2950064	-11.5164558	100.3020275	-0.86516658	-43.67085876
1.54	154	-0.102	-0.905	0.028	-25.0382646	-31.9137606	-15.9855282	100.0556555	-0.64744254	-43.95733776
1.55	155	-0.201	-1.014	0.037	-24.1215318	-13.5218088	-16.2720072	99.78636528	-0.49274388	-44.06619978
1.56	156	-0.238	-1.052	0.032	-20.626488	3.2085648	-13.9801752	99.57437082	-0.36096354	-44.01463356
1.57	157	-0.223	-1.008	0.049	-14.2666542	15.6990492	-10.9434978	99.42540174	-0.286479	-43.84847574
1.58	158	-0.184	-0.94	0.074	-7.2192708	23.3766864	-7.3911582	99.34518762	-0.2578311	-43.60783338
1.59	159	-0.119	-0.883	0.086	0.4583664	28.7051958	-2.86479	99.34518762	-0.286479	-43.32708396
1.6	160	-0.058	-0.868	0.108	5.3858052	30.4813656	0.6302538	99.38529468	-0.35523396	-43.0291458
1.61	161	-0.014	-0.887	0.118	8.3651868	29.2781538	4.010706	99.4655088	-0.44690724	-42.75412596
1.62	162	0.014	-0.922	0.147	11.6883432	24.6944898	6.7609044	99.5801004	-0.56149884	-42.52494276
1.63	163	0.022	-0.944	0.18	14.0947668	19.1367972	8.4797784	99.71761032	-0.68182002	-42.34732578
1.64	164	0.002	-0.947	0.19	14.9542038	13.6364004	9.6829902	99.8665794	-0.8021412	-42.23273418
1.65	165	-0.036	-0.929	0.2	15.4125702	8.59437	10.4851314	100.0270076	-0.92819196	-42.16397922
1.66	166	-0.071	-0.919	0.217	15.0687954	6.2452422	10.313244	100.1817063	-1.03705398	-42.12387216
1.67	167	-0.103	-0.91	0.236	13.8082878	7.3338624	9.167328	100.3192162	-1.14018642	-42.06657636
1.68	168	-0.105	-0.906	0.242	12.032118	9.453807	8.3651868	100.4395374	-1.24331886	-41.98636224
1.69	169	-0.095	-0.91	0.238	10.6570188	10.9434978	7.734933	100.5426698	-1.34072172	-41.89468896
1.7	170	-0.081	-0.905	0.236	8.9954406	11.3445684	7.3911582	100.6400727	-1.44958374	-41.7972861
1.71	171	-0.073	-0.899	0.237	7.5630456	11.5164558	6.7036086	100.7145572	-1.53552744	-41.69415366
1.72	172	-0.079	-0.906	0.243	6.7609044	11.2872726	5.9014674	100.7775826	-1.62147114	-41.5967508
1.73	173	-0.093	-0.914	0.264	6.0733548	11.4018642	5.0420304	100.8348784	-1.6902261	-41.49361836
1.74	174	-0.109	-0.919	0.282	5.9014674	12.9488508	4.1825934	100.8921742	-1.75898106	-41.37902676
1.75	175	-0.124	-0.917	0.286	4.7555514	14.7250206	3.2085648	100.9609292	-1.85065434	-41.24151684
1.76	176	-0.129	-0.914	0.301	3.5523396	16.5011904	2.1772404	100.9895771	-1.90795014	-41.08681818
1.77	177	-0.129	-0.912	0.307	1.9480572	17.9908812	1.432395	101.0010362	-1.95951636	-40.91493078
1.78	178	-0.128	-0.909	0.32	0.3437748	19.1367972	1.0313244	100.9953067	-2.01108258	-40.73158422
1.79	179	-0.125	-0.91	0.344	-1.0313244	20.7983754	0.4010706	100.9781179	-2.0626488	-40.53104892
1.8	180	-0.119	-0.904	0.358	-2.4064236	22.91832	-0.9167328	100.9838475	-2.11421502	-40.3075953
1.81	181	-0.112	-0.895	0.364	-3.0939732	24.4653066	-2.8074942	100.9380109	-2.14286292	-40.06695294
1.82	182	-0.115	-0.878	0.363	-3.437748	25.210152	-4.6982556	100.8921742	-2.1485925	-39.81485142
1.83	183	-0.123	-0.882	0.358	-4.3544808	26.4133638	-6.875496	100.8291488	-2.13713334	-39.54556116
1.84	184	-0.134	-0.886	0.343	-5.5576926	28.1895336	-8.880849	100.7603939	-2.11421502	-39.25908216
1.85	185	-0.144	-0.893	0.33	-6.016059	30.653253	-10.7143146	100.7030981	-2.08556712	-38.93822568
1.86	186	-0.141	-0.893	0.313	-6.016059	33.5753388	-12.4904844	100.622884	-2.0340009	-38.59445088
1.87	187	-0.122	-0.884	0.302	-4.9847346	36.0390582	-14.896908	100.554129	-1.96524594	-38.2162986
1.88	188	-0.105	-0.87	0.304	-2.7501984	38.7319608	-17.0741484	100.5082924	-1.87930224	-37.80949842
1.89	189	-0.098	-0.865	0.294	0.8021412	41.0810886	-19.0795014	100.4968332	-1.7761698	-37.37977992
1.9	190	-0.113	-0.869	0.272	3.7815228	40.966497	-18.7357266	100.5254811	-1.6902261	-36.95006142
1.91	191	-0.168	-0.871	0.328	11.3445684	39.247623	-15.6990492	100.622884	-1.62147114	-36.53753166
1.92	192	-0.2	-0.877	0.42	20.5691922	41.4821592	-12.2040054	100.8176897	-1.58709366	-36.11354274
1.93	193	-0.193	-0.909	0.43	25.8977016	43.0864416	-9.2246238	101.058332	-1.58709366	-35.67236508
1.94	194	-0.161	-0.95	0.417	26.1268848	41.6540466	-7.448454	101.3104336	-1.6042824	-35.25410574
1.95	195	-0.09	-0.994	0.423	25.0955604	39.3622146	-7.5057498	101.5625351	-1.61574156	-34.85303514
1.96	196	-0.028	-1.043	0.408	22.4026578	37.8725238	-9.167328	101.7745295	-1.61001198	-34.46915328
1.97	197	0.037	-1.122	0.371	16.1001198	37.9298196	-10.1413566	101.9234986	-1.59855282	-34.07954184
1.98	198	0.168	-1.304	0.215	6.7609044	37.4141574	-7.8495246	101.9750648	-1.61001198	-33.70138956
1.99	199	0.269	-1.562	-0.036	0.3437748	28.5333084	-1.0313244	101.9693353	-1.66730778	-33.42636972
2	200	0.263	-1.749	-0.059	4.010706	15.5844576	9.5683986	101.9979832	-1.79335854	-33.29458938
2.01	201	0.257	-1.804	0.133	14.1520626	3.2085648	21.2567418	102.1469522	-2.005353	-33.30604854
2.02	202	0.128	-1.727	0.073	27.215505	0	24.1215318	102.4219721	-2.24026578	-33.35761476
2.03	203	-0.186	-1.435	0.057	33.9764094	6.016059	19.5378678	102.7657469	-2.44080108	-33.33469644
2.04	204	-0.379	-1.095	0.163	34.4347758	15.8709366	14.32395	103.1095217	-2.61841806	-33.21437526
2.05	205	-0.434	-0.856	0.214	24.4653066	29.3927454	5.6149884	103.3329753	-2.80176462	-32.945085
2.06	206	-0.45	-0.689	0.198	8.59437	45.3209778	-3.8388186	103.3960007	-2.87624916	-32.50390734
2.07	207	-0.402	-0.631	0.185	-4.297185	61.9367598	-8.880849	103.310057	-2.9507337	-31.89084228
2.08	208	-0.29	-0.682	0.149	-12.032118	65.89017	-8.0787078	103.1438992	-3.04240698	-31.24339974
2.09	209	-0.115	-0.779	0.071	-20.9702628	61.9940556	-3.437748	102.8917976	-3.16272816	-30.64179384
2.1	210	0.077	-0.924	0.002	-27.3873924	51.9672906	2.578311	102.5537524	-3.30023808	-30.15477954
2.11	211	0.208	-1.024	-0.047	-30.7105488	36.4974246	6.4744254	102.2214368	-3.45493674	-29.8224639
2.12	212	0.266	-1.074	-0.065	-30.653253	18.1054728	7.448454	101.8948507	-3.56952834	-29.66776524
2.13	213	0.279	-1.067	-0.048	-26.0122932	0.4010706	7.3338624	101.63129	-3.64401288	-29.6792244
2.14	214	0.253	-1.011	-0.004	-18.334656	-15.469866	6.5317212	101.4594026	-3.67266078	-29.84538222
2.15	215	0.172	-0.959	0.068	-10.4278356	-29.507337	4.8128472	101.3562702	-3.62682414	-30.14332038
2.16	216	0.063	-0.933	0.136	-5.7868758	-38.0444112	1.8907614	101.3276223	-3.55806918	-30.51574308
2.17	217	-0.038	-0.93	0.179	-4.010706	-43.2010332	-1.145916	101.3161631	-3.45493674	-30.92827284
2.18	218	-0.095	-0.942	0.212	-2.2345362	-43.0291458	-3.5523396	101.3218927	-3.3231564	-31.3408026
2.19	219	-0.111	-0.989	0.23	0.4010706	-38.0444112	-6.4744254	101.3505406	-3.17418732	-31.69603656
2.2	220	-0.1	-1.035	0.234	2.5210152	-31.3980984	-8.3651868	101.3963773	-3.03094782	-31.97678598
2.21	221	-0.076	-1.048	0.229	4.2398892	-25.7258142	-9.2246238	101.4536731	-2.88197874	-32.21169876
2.22	222	-0.047	-1.026	0.225	5.0993262	-21.772404	-8.880849	101.522428	-2.74446882	-32.4007749
2.23	223	-0.016	-0.993	0.226	4.870143	-19.6524594	-7.6203414	101.5797238	-2.62414764	-32.5726623
2.24	224	0.016	-0.966	0.234	3.7815228	-19.480572	-6.589017	101.63129	-2.51528562	-32.75027928
2.25	225	0.05	-0.94	0.241	1.3178034	-20.1681216	-5.8441716	101.6656675	-2.38350528	-32.92789626
2.26	226	0.069	-0.922	0.243	-1.4896908	-21.6578124	-5.443101	101.6599379	-2.28037284	-33.12270198
2.27	227	0.069	-0.915	0.239	-3.8961144	-22.9756158	-5.2139178	101.63129	-2.1772404	-33.33469644
2.28	228	0.06	-0.917	0.245	-6.1306506	-23.9496444	-5.156622	101.5797238	-2.07410796	-33.55815006
2.29	229	0.045	-0.921	0.266	-8.021412	-24.2934192	-4.8128472	101.5109689	-1.9767051	-33.78160368
2.3	230	0.032	-0.919	0.28	-9.6256944	-24.923673	-3.9534102	101.4422139	-1.86784308	-34.01651646
2.31	231	0.017	-0.912	0.292	-10.8289062	-26.1841806	-2.8074942	101.3390815	-1.78189938	-34.2628884
2.32	232	0.013	-0.894	0.303	-11.5164558	-26.642547	-1.6615782	101.235949	-1.70741484	-34.51498992
2.33	233	0.018	-0.877	0.309	-12.5477802	-26.5279554	-0.9740286	101.1213574	-1.63865988	-34.77282102
2.34	234	0.019	-0.87	0.317	-13.6936962	-26.8717302	-0.1145916	100.9895771	-1.58136408	-35.0363817
2.35	235	0.018	-0.857	0.322	-15.0687954	-27.3873924	1.2032118	100.8749855	-1.52406828	-35.29994238
2.36	236	0.016	-0.847	0.329	-16.329303	-28.1322378	2.6356068	100.7202868	-1.4896908	-35.5806918
2.37	237	0.013	-0.836	0.333	-17.18874	-28.934379	4.297185	100.554129	-1.47250206	-35.8671708
2.38	238	0.008	-0.82	0.334	-17.9335854	-30.7678446	6.302538	100.3879712	-1.47250206	-36.1822977
2.39	239	-0.002	-0.808	0.311	-18.2200644	-32.4867186	7.9641162	100.2160838	-1.48396122	-36.51461334
2.4	240	-0.014	-0.8	0.275	-18.3919518	-30.8824362	10.026765	100.049926	-1.52406828	-36.82974024
2.41	241	-0.029	-0.788	0.257	-17.475219	-28.8197874	12.1467096	99.88949772	-1.58709366	-37.13340798
2.42	242	-0.04	-0.777	0.265	-14.3812458	-27.3300966	13.6936962	99.7519878	-1.66730778	-37.42561656
2.43	243	-0.048	-0.771	0.28	-9.9121734	-25.3247436	14.0947668	99.6660441	-1.75898106	-37.69490682
2.44	244	-0.042	-0.767	0.299	-4.9274388	-22.91832	13.0634424	99.62593704	-1.83919518	-37.94127876
2.45	245	0.012	-0.777	0.334	1.2032118	-19.9962342	10.1413566	99.694692	-1.87930224	-38.14754364
2.46	246	0.086	-0.831	0.38	5.0420304	-15.756345	4.4117766	99.7519878	-1.8907614	-38.30797188
2.47	247	0.089	-0.883	0.403	7.2765666	-13.9801752	-0.1718874	99.83220192	-1.8621135	-38.4454818
2.48	248	0.018	-0.947	0.394	8.3651868	-14.9542038	-1.8907614	99.9238752	-1.81054728	-38.58299172
2.49	249	-0.079	-0.982	0.398	10.0840608	-15.5271618	0.5156622	100.0327372	-1.78762896	-38.7319608
2.5	250	-0.154	-1.012	0.454	14.2666542	-12.891555	5.2139178	100.2275429	-1.82773602	-38.86374114
2.51	251	-0.177	-1.034	0.476	15.9855282	-6.1306506	9.3965112	100.3937008	-1.90795014	-38.93822568
2.52	252	-0.19	-1.081	0.412	8.1932994	-4.297185	12.1467096	100.4796445	-2.01681216	-39.00125106
2.53	253	-0.266	-1.15	0.254	-1.145916	-12.0894138	13.8655836	100.4796445	-2.12567418	-39.14449056
2.54	254	-0.344	-1.327	0.057	-1.2605076	-16.2720072	13.0634424	100.4739149	-2.22307704	-39.32783712
2.55	255	-0.357	-1.483	0.025	1.718874	-13.4072172	6.3598338	100.4911036	-2.2631841	-39.47107662
2.56	256	-0.374	-1.549	0.08	14.2666542	-22.5172494	-4.4690724	100.6458023	-2.17151082	-39.6773415
2.57	257	-0.287	-1.627	0.162	15.6990492	-27.9030546	-16.4438946	100.8176897	-1.95378678	-39.91798386
2.58	258	-0.013	-1.487	0.161	8.9954406	-12.6623718	-20.5691922	100.9150925	-1.72460358	-39.99819798
2.59	259	0.257	-1.19	0.126	7.734933	-9.9694692	-17.8762896	100.9953067	-1.52979786	-40.06122336
2.6	260	0.409	-0.997	0.071	7.3338624	-27.501984	-12.7769634	101.058332	-1.27196676	-40.29613614
2.61	261	0.481	-0.837	0.06	0	-47.1544434	-6.016059	101.0755208	-1.11153852	-40.74304338
2.62	262	0.433	-0.751	0.088	-8.880849	-63.8275212	-3.437748	101.0010362	-0.93965112	-41.35037886
2.63	263	0.301	-0.811	0.105	-16.329303	-75.4012728	-7.448454	100.8577967	-0.71046792	-42.06657636
2.64	264	0.07	-0.935	0.129	-18.6784308	-72.765666	-12.4331886	100.6859093	-0.43544808	-42.74839638
2.65	265	-0.143	-1.05	0.151	-18.048177	-54.0299394	-16.6730778	100.5025628	-0.17761698	-43.24686984
2.66	266	-0.31	-1.121	0.143	-16.902261	-25.3247436	-17.6471064	100.336405	0.04010706	-43.4588643
2.67	267	-0.422	-1.12	0.151	-12.032118	4.2398892	-15.2406828	100.2103542	0.17761698	-43.39583892
2.68	268	-0.446	-1.081	0.179	-4.870143	29.9084076	-10.6570188	100.158788	0.22345362	-43.0864416
2.69	269	-0.384	-1.026	0.212	1.7761698	51.852699	-6.5317212	100.1702471	0.18334656	-42.5707794
2.7	270	-0.24	-0.968	0.216	5.7868758	69.041439	-3.5523396	100.2218134	0.06302538	-41.90041854
2.71	271	-0.094	-0.932	0.205	7.9068204	76.7190762	-2.86479	100.2905683	-0.0572958	-41.14984356
2.72	272	-0.016	-0.924	0.244	8.9954406	76.6044846	-2.578311	100.3707824	-0.18907614	-40.39926858
2.73	273	0.036	-0.927	0.258	8.6516658	75.916935	-2.3491278	100.445267	-0.32085648	-39.66015276
2.74	274	0.069	-0.931	0.236	8.1360036	72.4218912	-1.432395	100.5140219	-0.4583664	-38.961144
2.75	275	0.086	-0.946	0.224	9.5683986	66.2339448	-0.1718874	100.5999656	-0.57868758	-38.31370146
2.76	276	0.078	-0.95	0.216	10.9434978	60.1032942	-0.286479	100.6973685	-0.70473834	-37.73501388
2.77	277	0.018	-0.93	0.217	10.6570188	55.6342218	-1.3750992	100.7890418	-0.80787078	-37.19070378
2.78	278	-0.064	-0.912	0.226	9.2246238	54.8893764	-2.4637194	100.8692559	-0.89954406	-36.65212326
2.79	279	-0.121	-0.912	0.226	7.161975	56.9520252	-3.8961144	100.9265517	-0.97975818	-36.096354
2.8	280	-0.146	-0.923	0.21	4.7555514	59.7595194	-4.7555514	100.9551996	-1.07716104	-35.51193684
2.81	281	-0.145	-0.927	0.188	2.6356068	61.306506	-4.870143	100.9609292	-1.16310474	-34.91033094
2.82	282	-0.122	-0.943	0.174	0.859437	60.8481396	-5.156622	100.94947	-1.24331886	-34.31445462
2.83	283	-0.084	-0.94	0.176	-0.9740286	57.9833496	-6.0733548	100.9208221	-1.30634424	-33.74149662
2.84	284	-0.054	-0.935	0.196	-2.1772404	54.144531	-7.734933	100.8749855	-1.3464513	-33.2029161
2.85	285	-0.035	-0.938	0.215	-3.2658606	50.706783	-9.5111028	100.8291488	-1.36364004	-32.69298348
2.86	286	-0.026	-0.944	0.225	-4.9274388	46.8106686	-11.1153852	100.7603939	-1.35218088	-32.22315792
2.87	287	-0.028	-0.966	0.244	-5.6149884	42.5707794	-12.2613012	100.6859093	-1.32353298	-31.78770984
2.88	288	-0.03	-0.975	0.262	-6.589017	40.10706	-13.3499214	100.5999656	-1.27769634	-31.37518008
2.89	289	-0.039	-0.969	0.278	-7.0473834	37.7006364	-15.1260912	100.5197515	-1.20894138	-30.98556864
2.9	290	-0.046	-0.959	0.29	-7.5057498	35.4088044	-16.7303736	100.445267	-1.12299768	-30.61314594
2.91	291	-0.05	-0.945	0.297	-8.3651868	33.7472262	-18.048177	100.3478641	-1.01413566	-30.2521824
2.92	292	-0.054	-0.927	0.308	-9.3392154	33.2888598	-19.7097552	100.2390021	-0.89381448	-29.89694844
2.93	293	-0.061	-0.913	0.318	-10.2559482	33.9764094	-21.6005166	100.1244105	-0.75057498	-29.53025532
2.94	294	-0.059	-0.907	0.316	-11.9175264	35.5806918	-24.1215318	99.99263016	-0.58441716	-29.14637346
2.95	295	-0.056	-0.911	0.295	-14.1520626	37.3568616	-26.069589	99.85512024	-0.40680018	-28.73957328
2.96	296	-0.044	-0.913	0.277	-16.5584862	38.0444112	-27.7311672	99.67750326	-0.21199446	-28.32131394
2.97	297	-0.025	-0.912	0.255	-19.480572	38.3308902	-29.3927454	99.47123838	0	-27.9030546
2.98	298	-0.006	-0.915	0.24	-22.058883	38.101707	-30.653253	99.24205518	0.22345362	-27.48479526
2.99	299	0.025	-0.955	0.219	-24.5226024	36.669312	-30.8251404	98.98995366	0.45263682	-27.08372466
3	300	0.078	-1.048	0.143	-28.8197874	32.658606	-28.8770832	98.6920155	0.6875496	-26.7284907
3.01	301	0.133	-1.193	0.006	-36.1536498	23.8350528	-24.2361234	98.3195928	0.88235532	-26.45920044
3.02	302	0.168	-1.278	-0.059	-46.6387812	11.745639	-18.3919518	97.84976724	1.03705398	-26.3274201
3.03	303	0.198	-1.263	-0.038	-50.0765292	0.4583664	-16.4438946	97.33983462	1.19748222	-26.30450178
3.04	304	0.207	-1.286	-0.003	-50.1911208	-3.0939732	-17.475219	96.829902	1.36936962	-26.32169052
3.05	305	0.206	-1.399	0.004	-49.6181628	-2.4064236	-15.9855282	96.31996938	1.53552744	-26.33314968
3.06	306	0.182	-1.545	0.011	-51.3370368	0.5156622	-11.3445684	95.7985776	1.63865988	-26.32169052
3.07	307	0.108	-1.656	0.03	-59.8168152	6.1306506	-7.6776372	95.19124212	1.70741484	-26.25866514
3.08	308	-0.015	-1.605	0.124	-67.4371566	11.9748222	-6.0733548	94.5094221	1.7475219	-26.14407354
3.09	309	-0.15	-1.449	0.268	-61.8221682	16.3865988	-6.1879464	93.88489788	1.78762896	-25.98937488
3.1	310	-0.22	-1.323	0.207	-66.176649	27.7311672	-9.3965112	93.2202666	1.84492476	-25.71435504
3.11	311	-0.154	-1.22	0.044	-76.9482594	46.409598	-13.178034	92.4467733	1.93086846	-25.26171822
3.12	312	0.004	-1.158	-0.124	-88.4074194	56.3217714	-15.5271618	91.56441798	2.04546006	-24.70594896
3.13	313	0.178	-1.077	-0.216	-96.1423524	56.8947294	-18.1054728	90.60184854	2.18869956	-24.15590928
3.14	314	0.268	-0.997	-0.237	-98.7779592	49.2170922	-19.5951636	89.6106312	2.36631654	-23.67462456
3.15	315	0.234	-0.951	-0.226	-97.40286	35.9817624	-19.2513888	88.61368428	2.5496631	-23.33657934
3.16	316	0.121	-0.936	-0.129	-92.3035338	22.9756158	-17.8762896	87.68549232	2.7215505	-23.12458488
3.17	317	-0.025	-0.91	-0.072	-86.230179	17.761698	-17.7044022	86.81459616	2.8934379	-22.96415664
3.18	318	-0.037	-0.836	-0.083	-79.6984578	17.5325148	-19.8243468	86.01245496	3.08824362	-22.81518756
3.19	319	0.053	-0.747	-0.138	-66.9787902	14.0947668	-24.5226024	85.33636452	3.33461556	-22.69486638
3.2	320	0.152	-0.727	-0.159	-53.3996856	3.9534102	-28.3041252	84.78059526	3.62682414	-22.6891368
3.21	321	0.271	-0.739	-0.151	-45.2063862	-7.5630456	-31.3408026	84.31649928	3.9247623	-22.79799882
3.22	322	0.383	-0.762	-0.116	-43.831287	-11.9175264	-29.1062664	83.86386246	4.19978214	-22.9469679
3.23	323	0.429	-0.744	-0.122	-42.6280752	-11.9748222	-25.5539268	83.41695522	4.4404245	-23.10166656
3.24	324	0.393	-0.767	-0.153	-39.4768062	-11.45916	-22.6891368	83.00442546	4.64668938	-23.24490606
3.25	325	0.304	-0.817	-0.183	-38.4454818	-11.9748222	-20.6837838	82.5918957	4.85868384	-23.39387514
3.26	326	0.209	-0.887	-0.167	-38.3308902	-14.2093584	-17.9335854	82.1908251	5.01911208	-23.56003296
3.27	327	0.089	-0.927	-0.179	-39.3622146	-13.2353298	-14.037471	81.77829534	5.13943326	-23.71473162
3.28	328	0.015	-0.921	-0.2	-39.534102	-10.886202	-11.9748222	81.36576558	5.23683612	-23.84078238
3.29	329	0.013	-0.893	-0.194	-37.528749	-10.4851314	-10.0840608	80.97615414	5.32277982	-23.96683314
3.3	330	0.069	-0.888	-0.159	-35.236917	-9.0527364	-7.9068204	80.60373144	5.3858052	-24.06996558
3.31	331	0.143	-0.901	-0.168	-33.6326346	-8.307891	-5.7868758	80.25422706	5.43164184	-24.16736844
3.32	332	0.2	-0.919	-0.164	-32.1429438	-9.2246238	-3.8388186	79.92191142	5.44883058	-24.27050088
3.33	333	0.248	-0.923	-0.182	-30.3094782	-10.886202	-2.1199446	79.60105494	5.45456016	-24.3793629
3.34	334	0.274	-0.92	-0.193	-26.2414764	-13.8655836	-1.0886202	79.3260351	5.43737142	-24.5226024
3.35	335	0.277	-0.916	-0.199	-21.8869956	-20.7983754	-0.572958	79.07393358	5.44883058	-24.72886728
3.36	336	0.281	-0.904	-0.215	-18.907614	-27.8457588	-0.4010706	78.86193912	5.40299394	-25.00388712
3.37	337	0.29	-0.883	-0.215	-15.1260912	-35.0650296	-0.0572958	78.67859256	5.34569814	-25.3533915
3.38	338	0.301	-0.862	-0.205	-11.172681	-43.544808	0.6302538	78.52962348	5.26548402	-25.77738042
3.39	339	0.316	-0.843	-0.202	-6.3598338	-52.4829528	1.5469866	78.42649104	5.156622	-26.28731304
3.4	340	0.336	-0.846	-0.197	-2.2345362	-60.9054354	2.7501984	78.35773608	5.06494872	-26.87745978
3.41	341	0.342	-0.854	-0.189	0	-69.041439	4.1825934	78.30616986	4.90452048	-27.54209106
3.42	342	0.342	-0.857	-0.183	1.2605076	-77.635809	6.016059	78.2660628	4.70971476	-28.28693646
3.43	343	0.338	-0.851	-0.172	2.7501984	-86.4593622	8.4797784	78.24314448	4.47480198	-29.11772556
3.44	344	0.331	-0.84	-0.165	4.4690724	-92.3608296	10.7143146	78.23168532	4.2112413	-29.9943513
3.45	345	0.322	-0.831	-0.183	5.9014674	-97.3455642	13.0634424	78.2374149	3.93622146	-30.91681368
3.46	346	0.298	-0.823	-0.189	6.9900876	-102.6167778	15.2979786	78.26033322	3.60390582	-31.8851127
3.47	347	0.294	-0.806	-0.188	9.453807	-107.9452872	17.9335854	78.31189944	3.24294228	-32.90497794
3.48	348	0.326	-0.8	-0.205	10.6570188	-114.4770084	21.485925	78.3806544	2.84187168	-33.9764094
3.49	349	0.363	-0.795	-0.202	11.0007936	-125.764281	26.9863218	78.45513894	2.36058696	-35.14524372
3.5	350	0.402	-0.774	-0.158	11.2299768	-140.661189	32.4294228	78.54108264	1.82773602	-36.45158796
3.51	351	0.453	-0.718	-0.119	13.6364004	-157.56345	37.0703826	78.66140382	1.2032118	-37.91263086
3.52	352	0.486	-0.67	-0.048	18.9649098	-169.0799058	41.3675676	78.85620954	0.52139178	-39.48253578
3.53	353	0.485	-0.636	-0.012	23.0329116	-183.2892642	46.696077	79.10831106	-0.22345362	-41.17849146
3.54	354	0.466	-0.58	0.027	27.1582092	-204.3168228	51.56622	79.43489712	-1.04278356	-43.07498244
3.55	355	0.441	-0.489	0.181	33.804522	-225.0579024	54.4883058	79.87607478	-1.89649098	-45.1777383
3.56	356	0.412	-0.405	0.297	39.3622146	-241.0434306	55.290447	80.40319614	-2.7788463	-47.4409224
3.57	357	0.365	-0.341	0.293	40.8519054	-249.0075468	55.6915176	80.98188372	-3.64974246	-49.7900502
3.58	358	0.267	-0.341	0.318	41.252976	-260.0083404	56.8374336	81.61213752	-4.52063862	-52.25949918
3.59	359	0.102	-0.439	0.149	37.2995658	-263.1596094	55.6342218	82.24239132	-5.3571573	-54.7747848
3.6	360	-0.066	-0.591	0.071	28.2468294	-260.4667068	50.5921914	82.8210789	-6.12492102	-57.27861126
3.61	361	-0.381	-0.849	-0.183	21.4286292	-260.2948194	44.8626114	83.35965942	-6.80101146	-59.80535604
3.62	362	-1.561	-1.72	-1.608	10.7143146	-302.6364156	50.3057124	83.8810512	-7.54585686	-62.75036016
3.63	363	-2.955	-3.543	-0.428	0.1718874	-243.9082206	7.2765666	84.24201474	-7.80368796	-65.16824292
3.64	364	-2.246	-3.755	-0.262	-83.3080932	-85.0269672	-58.441716	83.52581724	-7.29375534	-66.08497572
3.65	365	-0.639	-0.881	-0.703	-107.0285544	-83.0216142	15.9282324	82.5345999	-7.54585686	-66.89857608
3.66	366	0.21	-0.632	-0.323	-51.9672906	-88.9230816	23.0902074	82.13925888	-7.87244292	-67.75801308
3.67	367	0.574	-1.113	-0.203	-48.2430636	-100.6114248	36.2109456	81.79548408	-8.34226848	-68.70912336
3.68	368	0.645	-1.296	-0.209	-65.2599162	-126.4518306	43.9458786	81.3313881	-8.93241522	-69.90660558
3.69	369	0.101	-1.386	-0.079	-63.3691548	-137.3380326	38.5027776	80.91885834	-9.48818448	-71.2186794
3.7	370	-0.246	-1.29	0.057	-61.0773228	-144.7291908	37.4714532	80.5578948	-10.0554129	-72.60523776
3.71	371	-0.262	-1.063	0.067	-60.2178858	-153.552744	27.7311672	80.23703832	-10.5424272	-74.09492856
3.72	372	-0.233	-0.943	0.074	-57.3530958	-157.5061542	19.3086846	79.96201848	-10.96641612	-75.63618558
3.73	373	-0.3	-0.866	0.072	-53.3423898	-164.2670586	21.3713334	79.7557536	-11.41905294	-77.24046798
3.74	374	-0.442	-0.801	0.101	-51.4516284	-173.3770908	27.501984	79.59532536	-11.95763346	-78.9249645
3.75	375	-0.589	-0.725	0.129	-50.420304	-177.4450926	30.080295	79.48073376	-12.5477802	-80.65529766
3.76	376	-0.619	-0.656	0.128	-47.2117392	-175.038669	28.3041252	79.40624922	-13.09781988	-82.3627125
3.77	377	-0.571	-0.649	0.121	-41.3675676	-167.5329192	25.5539268	79.38906048	-13.61348208	-84.00137238
3.78	378	-0.522	-0.672	0.088	-35.6952834	-158.422887	20.340009	79.41770838	-14.06038932	-85.55981814
3.79	379	-0.516	-0.714	0.041	-30.5959572	-148.3388262	15.5844576	79.49219292	-14.44427118	-87.02659062
3.8	380	-0.504	-0.733	-0.009	-25.78311	-136.0202292	13.1207382	79.59532536	-14.79950514	-88.38450108
3.81	381	-0.506	-0.754	-0.026	-20.912967	-123.9308154	11.5737516	79.71564654	-15.10317288	-89.61636078
3.82	382	-0.502	-0.767	-0.045	-15.6417534	-110.007936	8.5370742	79.86461562	-15.34954482	-90.71644014
3.83	383	-0.468	-0.765	-0.071	-10.7143146	-96.543423	2.8074942	80.02504386	-15.52143222	-91.69619832
3.84	384	-0.405	-0.761	-0.111	-7.2765666	-87.1469118	-3.6669312	80.20266084	-15.60737592	-92.58428322
3.85	385	-0.352	-0.779	-0.087	-4.7555514	-83.1935016	-9.9694692	80.40319614	-15.6417534	-93.4494498
3.86	386	-0.342	-0.825	-0.066	-2.9793816	-83.3080932	-14.9542038	80.6151906	-15.60737592	-94.32607554
3.87	387	-0.362	-0.872	-0.062	-2.1199446	-84.6831924	-18.5638392	80.8443738	-15.53862096	-95.21416044
3.88	388	-0.374	-0.891	-0.069	-0.6302538	-85.8864042	-19.7097552	81.09074574	-15.45267726	-96.11943408
3.89	389	-0.383	-0.901	-0.068	0.9740286	-87.7771656	-19.480572	81.360036	-15.37246314	-97.04762604
3.9	390	-0.376	-0.91	-0.077	1.718874	-89.381448	-18.7357266	81.64078542	-15.30370818	-97.98727716
3.91	391	-0.349	-0.921	-0.089	2.3491278	-92.532717	-17.1314442	81.932994	-15.2406828	-98.9498466
3.92	392	-0.317	-0.921	-0.101	2.6356068	-97.0590852	-15.6990492	82.23666174	-15.18911658	-99.96398226
3.93	393	-0.294	-0.91	-0.099	3.3804522	-100.8979038	-14.7250206	82.55751822	-15.14900952	-101.0067658
3.94	394	-0.289	-0.89	-0.101	4.0680018	-102.9605526	-14.610429	82.88983386	-15.10890246	-102.0781973
3.95	395	-0.297	-0.872	-0.098	4.8128472	-103.9345812	-15.183387	83.23360866	-15.05733624	-103.1553583
3.96	396	-0.31	-0.868	-0.098	6.0733548	-105.0804972	-16.615782	83.58884262	-14.9828517	-104.2439785
3.97	397	-0.341	-0.87	-0.076	7.6203414	-104.4502434	-18.907614	83.96126532	-14.87971926	-105.3268691
3.98	398	-0.359	-0.864	-0.055	9.740286	-100.6687206	-20.626488	84.3394176	-14.74793892	-106.3753823
3.99	399	-0.351	-0.878	-0.051	12.3758928	-95.2829154	-22.4599536	84.72902904	-14.58751068	-107.3665996
4	400	-0.329	-0.894	-0.036	15.0687954	-91.2722094	-23.6631654	85.13582922	-14.41562328	-108.3177099
4.01	401	-0.3	-0.912	-0.016	17.5325148	-88.6938984	-23.8350528	85.55408856	-14.22654714	-109.2401723
4.02	402	-0.273	-0.942	-0.024	19.2513888	-86.6885454	-23.3193906	85.97807748	-14.03174142	-110.1397163
4.03	403	-0.252	-0.974	-0.025	19.9962342	-85.1988546	-22.5745452	86.40779598	-13.8369357	-111.0163421
4.04	404	-0.231	-0.999	-0.016	20.5691922	-83.5945722	-21.772404	86.8317849	-13.64785956	-111.8757791
4.05	405	-0.209	-1.022	0.019	21.6578124	-83.07891	-20.8556712	87.26723298	-13.45305384	-112.7294865
4.06	406	-0.217	-1.029	0.005	22.1734746	-83.5372764	-19.3086846	87.69695148	-13.27543686	-113.5831939
4.07	407	-0.24	-1.028	-0.007	22.1161788	-83.7664596	-16.2147114	88.13239956	-13.11500862	-114.4369013
4.08	408	-0.252	-0.996	0.017	22.058883	-83.4799806	-13.0061466	88.55638848	-12.98895786	-115.2848792
4.09	409	-0.258	-0.922	0.075	22.4026578	-83.0216142	-11.0007936	88.9803774	-12.86863668	-116.1271274
4.1	410	-0.278	-0.865	0.092	23.3766864	-79.5838662	-11.172681	89.41582548	-12.75404508	-116.9349982
4.11	411	-0.283	-0.852	0.097	24.350715	-73.7969904	-12.7769634	89.8398144	-12.61080558	-117.6855732
4.12	412	-0.265	-0.891	0.123	25.6112226	-65.4890994	-14.7823164	90.25234416	-12.44464776	-118.3444749
4.13	413	-0.223	-0.968	0.103	25.6685184	-56.436363	-16.5011904	90.6419556	-12.25557162	-118.9059737
4.14	414	-0.182	-1.05	0.092	24.9809688	-48.4722468	-17.2460358	91.00291914	-12.06649548	-119.392988
4.15	415	-0.15	-1.108	0.108	24.6944898	-42.97185	-17.0741484	91.35242352	-11.8602306	-119.8227065
4.16	416	-0.127	-1.133	0.114	23.9496444	-39.3622146	-17.2460358	91.67900958	-11.66542488	-120.212318
4.17	417	-0.108	-1.126	0.132	23.5485738	-37.1276784	-17.8762896	91.99413648	-11.46488958	-120.5732815
4.18	418	-0.094	-1.11	0.129	23.0902074	-35.9817624	-18.621135	92.3035338	-11.25289512	-120.9285155
4.19	419	-0.085	-1.078	0.137	22.2880662	-35.8671708	-19.3086846	92.60147196	-11.03517108	-121.2780199
4.2	420	-0.067	-1.053	0.135	21.0848544	-35.5806918	-19.8243468	92.89368054	-10.79452872	-121.6217947
4.21	421	-0.056	-1.049	0.122	19.7097552	-36.3255372	-19.5378678	93.1629708	-10.5710751	-121.971299
4.22	422	-0.035	-1.059	0.124	18.1054728	-38.7892566	-18.3919518	93.4208019	-10.35335106	-122.3437217
4.23	423	-0.006	-1.079	0.084	14.7823164	-40.680018	-17.5325148	93.64425552	-10.1413566	-122.7390628
4.24	424	0.019	-1.084	0.059	12.1467096	-43.3729206	-17.0168526	93.84479082	-9.93509172	-123.1630517
4.25	425	0.033	-1.077	0.055	9.740286	-47.4982182	-16.4438946	94.0224078	-9.69444936	-123.6156885
4.26	426	0.036	-1.055	0.073	7.3338624	-52.3110654	-15.756345	94.18856562	-9.48818448	-124.1256211
4.27	427	0.02	-1.024	0.087	5.9014674	-56.3217714	-14.9542038	94.34899386	-9.2819196	-124.6756608
4.28	428	-0.005	-0.993	0.119	5.8441716	-58.0979412	-14.037471	94.50369252	-9.0813843	-125.2428892
4.29	429	-0.023	-0.966	0.148	6.9900876	-58.5563076	-13.6936962	94.67557992	-8.88657858	-125.8158472
4.3	430	-0.017	-0.949	0.156	8.1932994	-57.9833496	-13.6364004	94.85892648	-8.66885454	-126.3773461
4.31	431	-0.005	-0.933	0.172	10.313244	-57.4676874	-13.9228794	95.0537322	-8.46258966	-126.9331153
4.32	432	0	-0.928	0.194	11.8029348	-56.9520252	-13.6936962	95.25999708	-8.26205436	-127.483155
4.33	433	0	-0.913	0.193	12.0894138	-56.7801378	-12.605076	95.46626196	-8.06724864	-128.0331947
4.34	434	-0.002	-0.9	0.192	13.2926256	-56.149884	-10.1986524	95.683986	-7.89536124	-128.5775048
4.35	435	0	-0.895	0.19	14.7823164	-54.9466722	-7.3338624	95.92462836	-7.734933	-129.1160853
4.36	436	-0.002	-0.908	0.156	15.8709366	-55.9207008	-4.010706	96.16527072	-7.6203414	-129.6603954
4.37	437	-0.038	-0.959	0.105	17.3033316	-59.301153	-0.1718874	96.4288314	-7.5343977	-130.2448126
4.38	438	-0.098	-1.039	0.096	17.3033316	-63.8275212	3.6096354	96.69239208	-7.48283148	-130.8750664
4.39	439	-0.179	-1.102	0.118	15.9282324	-66.8641986	6.7609044	96.95022318	-7.45418358	-131.5454272
4.4	440	-0.227	-1.123	0.166	15.0114996	-66.8069028	9.2819196	97.2023247	-7.448454	-132.2157881
4.41	441	-0.228	-1.103	0.18	13.4072172	-64.0567044	11.5164558	97.4315079	-7.46564274	-132.857501
4.42	442	-0.195	-1.072	0.184	8.5370742	-60.16059	12.605076	97.6033953	-7.49429064	-133.4648365
4.43	443	-0.142	-1.009	0.169	6.2452422	-57.6968706	13.0061466	97.75236438	-7.52866812	-134.0492537
4.44	444	-0.096	-0.954	0.169	7.6203414	-56.5509546	13.5218088	97.91279262	-7.56877518	-134.6222117
4.45	445	-0.071	-0.918	0.201	9.3392154	-56.3790672	14.2093584	98.10186876	-7.60888224	-135.2008993
4.46	446	-0.067	-0.915	0.207	10.026765	-57.8114622	14.4958374	98.2909449	-7.65471888	-135.7853164
4.47	447	-0.074	-0.93	0.205	12.318597	-60.733548	14.4385416	98.50866894	-7.69482594	-136.4041111
4.48	448	-0.081	-0.949	0.222	14.6677248	-64.2858876	14.1520626	98.7493113	-7.71774426	-137.0572832
4.49	449	-0.088	-0.963	0.228	15.8136408	-67.2652692	13.5218088	99.01287198	-7.72920342	-137.7333736
4.5	450	-0.096	-0.966	0.245	16.5584862	-69.0987348	12.9488508	99.2936214	-7.72347384	-138.4323824
4.51	451	-0.104	-0.976	0.241	17.9908812	-69.614397	12.2040054	99.5801004	-7.71201468	-139.1313911
4.52	452	-0.122	-0.985	0.247	18.907614	-69.2133264	11.5737516	99.87230898	-7.68909636	-139.8303999
4.53	453	-0.151	-0.989	0.263	19.8243468	-67.322565	11.5737516	100.1759767	-7.66617804	-140.5064903
4.54	454	-0.157	-0.976	0.257	20.7983754	-65.030733	11.8029348	100.4796445	-7.6489893	-141.1596625
4.55	455	-0.149	-0.959	0.258	23.1475032	-63.1972674	11.8029348	100.8176897	-7.63180056	-141.7956458
4.56	456	-0.144	-0.952	0.287	25.0955604	-62.0513514	11.9748222	101.1614645	-7.61461182	-142.4201701
4.57	457	-0.147	-0.937	0.3	25.2674478	-60.733548	13.0061466	101.5109689	-7.60315266	-143.0332351
4.58	458	-0.145	-0.914	0.291	26.1841806	-60.2178858	13.5791046	101.8662028	-7.59742308	-143.6405706
4.59	459	-0.148	-0.925	0.308	27.788463	-59.014674	13.5218088	102.2328959	-7.5916935	-144.2364469
4.6	460	-0.161	-0.94	0.305	27.3300966	-56.6082504	13.4072172	102.6053186	-7.58596392	-144.8151345
4.61	461	-0.17	-0.962	0.285	27.501984	-54.6028974	12.891555	102.9605526	-7.57450476	-145.3651742
4.62	462	-0.167	-0.981	0.287	29.1062664	-51.5089242	12.2613012	103.3329753	-7.5630456	-145.886566
4.63	463	-0.165	-0.982	0.291	30.4813656	-49.6754586	11.6883432	103.7168572	-7.54585686	-146.390769
4.64	464	-0.167	-0.964	0.299	32.1429438	-49.5035712	11.5737516	104.1179278	-7.52866812	-146.8892425
4.65	465	-0.168	-0.939	0.311	33.3461556	-49.1025006	11.6310474	104.5304575	-7.5057498	-147.3877159
4.66	466	-0.177	-0.906	0.321	34.5493674	-49.2170922	11.9175264	104.9544464	-7.48283148	-147.8861894
4.67	467	-0.195	-0.865	0.34	35.6952834	-49.5035712	11.8602306	105.3898945	-7.45418358	-148.3846628
4.68	468	-0.216	-0.828	0.364	36.8411994	-49.1597964	11.5164558	105.8368018	-7.4198061	-148.8831363
4.69	469	-0.234	-0.818	0.37	37.815228	-48.5868384	11.5164558	106.2894386	-7.38542862	-149.3701506
4.7	470	-0.227	-0.84	0.347	38.5027776	-46.9252602	12.0894138	106.7535346	-7.3625103	-149.8457057
4.71	471	-0.215	-0.876	0.327	39.1330314	-45.4355694	12.7769634	107.2176305	-7.33959198	-150.3098017
4.72	472	-0.203	-0.884	0.325	39.5913978	-44.404245	12.7196676	107.6817265	-7.31667366	-150.7624385
4.73	473	-0.186	-0.865	0.327	40.5654264	-42.7999626	11.9748222	108.1572817	-7.28802576	-151.192157
4.74	474	-0.178	-0.84	0.323	41.9978214	-41.825934	11.0007936	108.644296	-7.2479187	-151.616146
4.75	475	-0.182	-0.817	0.337	43.831287	-42.0551172	10.7716104	109.1542286	-7.20781164	-152.0401349
4.76	476	-0.183	-0.796	0.36	45.263682	-41.5967508	10.8289062	109.6698908	-7.161975	-152.4583942
4.77	477	-0.181	-0.793	0.355	45.7793442	-41.252976	10.7716104	110.1912826	-7.11040878	-152.870924
4.78	478	-0.171	-0.823	0.327	45.7220484	-42.112413	11.1153852	110.7126743	-7.05311298	-153.2891833
4.79	479	-0.137	-0.881	0.3	44.9199072	-42.7999626	11.3445684	111.2283365	-6.99581718	-153.7189018
4.8	480	-0.097	-0.951	0.272	43.4302164	-43.1437374	11.172681	111.7096213	-6.92706222	-154.1486203
4.81	481	-0.061	-1.027	0.236	42.0551172	-44.404245	10.599723	112.1966356	-6.8468481	-154.589798
4.82	482	-0.042	-1.082	0.219	40.5081306	-46.3523022	10.026765	112.6664611	-6.74944524	-155.0424348
4.83	483	-0.047	-1.087	0.199	38.9038482	-47.6701056	9.6256944	113.1248275	-6.64058322	-155.5065308
4.84	484	-0.073	-1.042	0.178	37.5860448	-48.70143	10.0840608	113.5660052	-6.5317212	-155.9820859
4.85	485	-0.115	-0.946	0.24	37.4714532	-47.9565846	11.1153852	113.9899941	-6.42858876	-156.4519115
4.86	486	-0.152	-0.867	0.291	39.1330314	-43.6593996	12.1467096	114.4369013	-6.34837464	-156.8873596
4.87	487	-0.179	-0.826	0.305	39.1903272	-40.8519054	12.3758928	114.8895382	-6.27961968	-157.2941597
4.88	488	-0.192	-0.806	0.317	39.7059894	-38.7319608	12.4904844	115.342175	-6.22232388	-157.6895008
4.89	489	-0.2	-0.798	0.345	40.9092012	-36.1536498	13.0634424	115.8005414	-6.17648724	-158.0619235
4.9	490	-0.201	-0.797	0.396	42.97185	-33.5753388	13.9228794	116.2818261	-6.15356892	-158.4114278
4.91	491	-0.19	-0.808	0.432	44.2323576	-31.3980984	15.183387	116.7688404	-6.14210976	-158.7494731
4.92	492	-0.17	-0.825	0.415	43.6021038	-30.1375908	16.3865988	117.2501251	-6.14210976	-159.0817887
4.93	493	-0.143	-0.844	0.364	41.825934	-29.2781538	17.3606274	117.7142211	-6.15356892	-159.4083748
4.94	494	-0.121	-0.852	0.344	39.5913978	-28.8770832	19.0222056	118.1611283	-6.18221682	-159.74642
4.95	495	-0.092	-0.848	0.332	38.1590028	-28.7051958	20.2254174	118.5679285	-6.21086472	-160.0787356
4.96	496	-0.07	-0.852	0.328	38.0444112	-29.8511118	20.7983754	118.997647	-6.2452422	-160.4339696
4.97	497	-0.058	-0.868	0.332	38.7892566	-32.2002396	21.0275586	119.4388247	-6.26243094	-160.8063923
4.98	498	-0.057	-0.887	0.337	39.3622146	-34.5493674	21.0275586	119.8857319	-6.26243094	-161.1960037
4.99	499	-0.061	-0.88	0.36	39.820581	-36.0390582	20.340009	120.3383687	-6.25097178	-161.5970743
5	500	-0.077	-0.852	0.387	40.1643558	-35.7525792	18.8503182	120.7795464	-6.22232388	-161.9866858
5.01	501	-0.106	-0.811	0.413	40.0497642	-34.2628884	17.2460358	121.2321832	-6.1879464	-162.3591085
5.02	502	-0.131	-0.776	0.425	38.961144	-31.2835068	15.9282324	121.6676313	-6.15356892	-162.6971537
5.03	503	-0.153	-0.747	0.437	37.7006364	-27.1009134	15.183387	122.0858906	-6.1306506	-163.0008214
5.04	504	-0.163	-0.724	0.434	36.669312	-22.0015872	14.32395	122.4926908	-6.1306506	-163.2529229
5.05	505	-0.163	-0.711	0.408	35.6379876	-17.3606274	13.6936962	122.8651135	-6.1592985	-163.4649174
5.06	506	-0.175	-0.723	0.381	34.5493674	-15.8136408	13.750992	123.2432658	-6.18221682	-163.6597231
5.07	507	-0.18	-0.754	0.372	33.6899304	-14.5531332	14.0947668	123.6042293	-6.2165943	-163.8545288
5.08	508	-0.177	-0.785	0.366	32.2002396	-11.6883432	13.9801752	123.9537337	-6.26816052	-164.0206867
5.09	509	-0.17	-0.784	0.358	31.1116194	-9.2819196	13.3499214	124.2860494	-6.32545632	-164.1696557
5.1	510	-0.172	-0.755	0.369	30.7105488	-7.3911582	12.5477802	124.5897171	-6.39994086	-164.2899769
5.11	511	-0.18	-0.72	0.373	30.7678446	-5.9587632	11.745639	124.9163032	-6.45723666	-164.4045685
5.12	512	-0.174	-0.704	0.357	29.2781538	-2.7501984	9.8548776	125.2199709	-6.52026204	-164.4790531
5.13	513	-0.165	-0.679	0.347	28.1895336	1.718874	6.9900876	125.5121795	-6.589017	-164.5019714
5.14	514	-0.164	-0.671	0.358	28.4187168	5.6149884	4.1825934	125.7929289	-6.65777196	-164.4733235
5.15	515	-0.168	-0.683	0.355	28.4187168	8.4224826	2.291832	126.0450304	-6.73798608	-164.4160277
5.16	516	-0.179	-0.707	0.343	27.9603504	10.5424272	1.4896908	126.3200503	-6.8182002	-164.3358136
5.17	517	-0.181	-0.708	0.334	27.3873924	13.6364004	0.8021412	126.5836109	-6.9041439	-164.2269515
5.18	518	-0.173	-0.668	0.316	25.210152	18.048177	-0.859437	126.8185237	-7.01300592	-164.0779825
5.19	519	-0.156	-0.626	0.32	23.8350528	21.6005166	-3.437748	127.0362478	-7.11613836	-163.8831767
5.2	520	-0.138	-0.605	0.324	22.91832	24.9809688	-6.8182002	127.2138647	-7.2192708	-163.6425344
5.21	521	-0.124	-0.595	0.323	22.1734746	28.7624916	-9.3965112	127.4029409	-7.32813282	-163.361785
5.22	522	-0.103	-0.578	0.291	20.5691922	32.085648	-11.45916	127.5633691	-7.43699484	-163.0351989
5.23	523	-0.094	-0.563	0.23	17.761698	34.0337052	-13.464513	127.6951495	-7.54585686	-162.6914241
5.24	524	-0.104	-0.562	0.211	15.3552744	35.236917	-15.5844576	127.7982819	-7.64325972	-162.3190014
5.25	525	-0.12	-0.574	0.245	14.610429	37.815228	-17.5325148	127.8670369	-7.74639216	-161.9122012
5.26	526	-0.127	-0.577	0.271	15.2979786	42.0551172	-18.048177	127.9529806	-7.87244292	-161.4767531
5.27	527	-0.116	-0.556	0.29	16.329303	42.97185	-17.4179232	128.056113	-8.00422326	-161.0355755
5.28	528	-0.092	-0.52	0.3	17.1314442	43.7166954	-17.18874	128.1592454	-8.14746276	-160.5886682
5.29	529	-0.076	-0.495	0.278	15.9282324	45.263682	-17.18874	128.2509187	-8.30216142	-160.1303018
5.3	530	-0.07	-0.47	0.25	13.6936962	46.123119	-17.0741484	128.3024849	-8.45686008	-159.6662059
5.31	531	-0.066	-0.45	0.253	11.1153852	46.982556	-17.0741484	128.342592	-8.6230179	-159.1963803
5.32	532	-0.039	-0.42	0.245	7.1046792	47.8992888	-17.761698	128.3311328	-8.78917572	-158.7150956
5.33	533	-0.038	-0.436	0.151	0.859437	48.70143	-18.1054728	128.2623779	-8.95533354	-158.2280813
5.34	534	-0.054	-0.497	0.018	-13.5791046	52.3683612	-16.7303736	128.0331947	-9.15586884	-157.7238782
5.35	535	-0.072	-0.524	-0.054	-20.5118964	51.4516284	-13.8655836	127.7066086	-9.37359288	-157.2368639
5.36	536	-0.084	-0.488	0.055	-17.761698	46.4668938	-11.745639	127.4487775	-9.5683986	-156.8071454
5.37	537	-0.088	-0.455	0.244	-9.453807	44.8053156	-11.6883432	127.2768901	-9.75747474	-156.3831565
5.38	538	-0.072	-0.449	0.291	-2.0626488	45.263682	-12.1467096	127.1737577	-9.9408213	-155.953438
5.39	539	-0.041	-0.472	0.218	2.9793816	43.7166954	-10.026765	127.127921	-10.13562702	-155.5523674
5.4	540	-0.021	-0.487	0.186	4.010706	41.1383844	-6.3598338	127.0763548	-10.33043274	-155.1856743
5.41	541	-0.027	-0.481	0.084	3.0939732	39.4768062	-3.3231564	127.0419773	-10.54815678	-154.8533587
5.42	542	-0.037	-0.487	-0.112	-1.0313244	36.4401288	1.2605076	126.978952	-10.78306956	-154.5726092
5.43	543	-0.059	-0.494	-0.161	-1.7761698	31.3408026	7.6776372	126.9159266	-11.03517108	-154.3720739
5.44	544	-0.084	-0.502	0.043	2.291832	26.1268848	14.0947668	126.9159266	-11.31019092	-154.2517528
5.45	545	-0.072	-0.48	0.14	4.2398892	17.7044022	17.4179232	126.9273857	-11.55083328	-154.2116457
5.46	546	-0.07	-0.452	0.104	7.7922288	6.0733548	18.7357266	127.019059	-11.73990942	-154.2804007
5.47	547	-0.116	-0.448	0.012	7.7922288	0.859437	17.5325148	127.1164619	-11.88314892	-154.3778035
5.48	548	-0.211	-0.493	-0.031	8.1932994	5.5003968	15.1260912	127.2081352	-12.032118	-154.4293697
5.49	549	-0.278	-0.492	0	5.9014674	15.5271618	13.1207382	127.2597014	-12.2326533	-154.3835331
5.5	550	-0.263	-0.4	0.022	-0.0572958	29.3927454	11.0007936	127.196676	-12.52486188	-154.2173753
5.51	551	-0.165	-0.291	0.001	-3.151269	39.534102	7.9641162	127.0992731	-12.82852962	-153.9538146
5.52	552	-0.027	-0.181	-0.02	-6.8182002	45.4355694	3.437748	126.9503041	-13.13792694	-153.6157694
5.53	553	0.05	-0.088	-0.041	-8.307891	44.117766	-0.3437748	126.7784167	-13.4072172	-153.2605354
5.54	554	0.029	-0.064	-0.212	-6.4744254	38.5600734	-3.4950438	126.6294476	-13.61348208	-152.9339494
5.55	555	-0.058	-0.141	0.227	13.4072172	28.5333084	-6.016059	126.7497688	-13.74526242	-152.6818478
5.56	556	-0.203	-0.289	1.046	57.6968706	23.777757	-6.875496	127.2711605	-13.8369357	-152.4469351
5.57	557	-0.444	-0.524	1.738	106.3410048	5.3285094	6.9327918	128.3483216	-13.9228794	-152.4297463
5.58	558	-1.233	-3.7	3.555	218.010519	-23.0902074	1.2032118	130.6000465	-13.78536948	-152.584445
5.59	559	-1.351	-2.617	3.999	158.2509996	-26.8144344	51.3943326	132.3361093	-13.98590478	-153.1115663
5.6	560	-0.727	-0.078	3.999	304.2979938	-33.9764094	123.6443364	135.6993727	-14.63334732	-154.194457
5.61	561	-0.281	-1.749	3.879	614.8985256	-124.2172944	33.2888598	142.202446	-13.93433856	-155.1684856
5.62	562	-0.475	-1.88	3.909	394.3096956	34.3201842	31.9710564	146.2016929	-14.42135286	-155.1856743
5.63	563	-0.86	-0.813	3.812	271.1810214	57.6395748	44.9199072	148.9576208	-15.16046868	-155.2372405
5.64	564	-0.71	-0.174	3.082	273.1863744	61.0773228	43.544808	151.7421967	-15.92250282	-155.3002659
5.65	565	-0.607	-0.409	2.214	266.711949	56.8374336	37.0130868	154.4580176	-16.615782	-155.3575617
5.66	566	-0.528	-0.253	1.836	260.982369	67.9528188	38.7319608	157.1165428	-17.41219362	-155.4205871
5.67	567	-0.302	-0.206	1.209	260.69589	66.8641986	30.1375908	159.7636087	-18.1627686	-155.4435054
5.68	568	-0.067	0.078	0.871	255.3100848	66.749607	48.8733174	162.4278634	-18.9649098	-155.6956069
5.69	569	-0.224	-0.037	0.749	235.199259	69.2706222	74.4272442	164.9832561	-19.8529947	-156.2341874
5.7	570	-0.227	0.019	0.77	223.2817326	71.2186794	54.3164184	167.3782205	-20.68951338	-156.6123397
5.71	571	-0.375	-0.091	1.098	202.3687656	75.2866812	40.8519054	169.5210835	-21.52030248	-156.88163
5.72	572	-0.232	-0.32	1.251	173.8354572	75.916935	40.8519054	171.3889265	-22.345362	-157.1795681
5.73	573	-0.408	0.084	1.258	154.4694768	71.7916374	39.6486936	173.0734231	-23.1188553	-157.5061542
5.74	574	-0.486	-0.083	1.415	132.353298	62.738901	39.1330314	174.5459251	-23.79494574	-157.8613882
5.75	575	-0.426	-0.198	1.458	120.3784758	42.3415962	39.3049188	175.9210243	-24.25331214	-158.2509996
5.76	576	-0.594	-0.11	1.337	111.4976268	33.518043	39.7632852	177.221639	-24.62000526	-158.6577998
5.77	577	-0.516	-0.115	1.304	102.559482	23.8923486	43.7166954	178.4534987	-24.88356594	-159.1276253
5.78	578	-0.48	-0.04	1.263	103.4762148	21.772404	54.0299394	179.7483838	-25.11847872	-159.7120425
5.79	579	-0.484	0.129	1.173	103.5335106	15.0114996	65.603691	-178.8889468	-25.27317738	-160.42824
5.8	580	-0.361	0.049	1.148	104.1637644	7.448454	84.6831924	-177.4336334	-25.3247436	-161.3507024
5.81	581	-0.362	-0.034	1.149	104.1637644	5.7868758	113.3310924	-175.8465398	-25.3247436	-162.5940212
5.82	582	-0.33	-0.071	1.117	90.240885	0.0572958	145.5886278	-174.2537165	-25.20442242	-164.1753853
5.83	583	-0.346	-0.002	1.139	65.89017	-12.6623718	140.7757806	-172.9359131	-24.92940258	-165.6879944
5.84	584	-0.431	0.152	1.07	55.576926	-17.3606274	127.1393802	-171.8071859	-24.59708694	-167.0287162
5.85	585	-0.331	0.188	0.999	38.674665	-20.3973048	125.477802	-170.8560756	-24.21893466	-168.3465196
5.86	586	-0.476	0.308	0.905	45.0917946	-14.9542038	102.9605526	-169.9565315	-23.90380776	-169.417951
5.87	587	-0.307	0.22	0.844	39.7632852	-15.0114996	72.9948492	-169.2517932	-23.6345175	-170.1570668
5.88	588	-0.387	0.271	0.682	31.799169	-13.9801752	43.3156248	-168.7533197	-23.41679346	-170.5867853
5.89	589	-0.303	0.4	0.589	31.6845774	-15.4125702	25.7258142	-168.3350604	-23.22198774	-170.8159685
5.9	590	-0.349	0.17	0.577	28.5333084	-17.761698	12.032118	-167.9970152	-23.04437076	-170.9076418
5.91	591	-0.339	0.234	0.614	13.464513	-21.1421502	1.5469866	-167.8709644	-22.83810588	-170.8675348
5.92	592	-0.399	0.416	0.674	13.750992	-18.7357266	6.302538	-167.7219953	-22.64902974	-170.8847235
5.93	593	-0.443	0.287	0.787	18.4492476	-8.8235532	4.6982556	-167.52146	-22.55735646	-170.9133714
5.94	594	-0.367	0.291	0.782	14.7250206	2.4064236	-2.6929026	-167.3839501	-22.58600436	-170.8904531
5.95	595	-0.379	0.359	0.741	13.5791046	18.1054728	-9.6829902	-167.2063331	-22.80945798	-170.8675348
5.96	596	-0.395	0.366	0.737	5.443101	24.4080108	-13.6364004	-167.1834148	-23.07301866	-170.7873206
5.97	597	-0.296	0.35	0.773	-5.9014674	19.7097552	-22.631841	-167.3209247	-23.31366102	-170.6039741
5.98	598	-0.342	0.321	0.785	-15.5844576	6.589017	-33.4034514	-167.6131333	-23.44544136	-170.2659289
5.99	599	-0.323	0.339	0.765	-24.9809688	-2.578311	-41.6540466	-168.0485814	-23.50846674	-169.8190216
6	600	-0.284	0.286	0.739	-29.8511118	-12.2613012	-50.420304	-168.558514	-23.48554842	-169.2632524
6.01	601	-0.28	0.206	0.723	-36.4401288	-25.3820394	-57.009321	-169.1887678	-23.3480385	-168.6043507
6.02	602	-0.274	0.277	0.743	-41.539455	-40.5654264	-59.0719698	-169.8877766	-23.05582992	-167.8881532
6.03	603	-0.292	0.118	0.74	-41.9978214	-52.7694318	-61.8221682	-170.6097037	-22.64330016	-167.1203894
6.04	604	-0.349	0.092	0.678	-43.7739912	-63.8275212	-56.9520252	-171.3201716	-22.11044922	-166.3927328
6.05	605	-0.4	0.067	0.659	-46.3523022	-81.5892192	-50.9359662	-172.0363691	-21.39425172	-165.7109128
6.06	606	-0.283	0.085	0.748	-49.6181628	-95.8558734	-41.3675676	-172.7411074	-20.50616682	-165.1150364
6.07	607	-0.29	0.042	0.864	-49.2170922	-101.700045	-39.1330314	-173.4171979	-19.55505654	-164.5535376
6.08	608	-0.225	0.131	0.78	-43.1437374	-90.9284346	-30.7105488	-173.9901559	-18.68988996	-164.1009008
6.09	609	-0.269	-0.032	0.752	-45.3782736	-91.8451674	-26.1841806	-174.5631139	-17.81326422	-163.7112893
6.1	610	-0.279	-0.015	0.744	-49.9046418	-97.2309726	-21.7151082	-175.1704493	-16.87934268	-163.3675145
6.11	611	-0.485	-0.017	1.084	-51.279741	-90.8711388	-14.7250206	-175.7491369	-15.99125778	-163.1211426
6.12	612	-0.302	0.008	1.225	-35.809875	-65.603691	-8.5370742	-176.1444779	-15.34954482	-162.9664439
6.13	613	-0.275	-0.004	1.196	-20.626488	-42.9145542	-4.870143	-176.3736611	-14.9255559	-162.8805002
6.14	614	-0.309	0.086	1.27	-11.3445684	-28.0176462	0	-176.4882527	-14.65053606	-162.8518523
6.15	615	-0.315	0.088	1.344	-7.5057498	-16.1574156	-1.7761698	-176.5741964	-14.48437824	-162.8174749
6.16	616	-0.3	0.092	1.291	-2.86479	-11.4018642	-0.8021412	-176.6085739	-14.37551622	-162.8002861
6.17	617	-0.28	0.069	1.238	0	-13.8655836	1.145916	-176.6085739	-14.2380063	-162.8002861
6.18	618	-0.252	0.068	1.168	0.9740286	-19.4232762	2.9793816	-176.5913852	-14.04320058	-162.8117453
6.19	619	-0.231	0.082	1.097	1.0886202	-23.0902074	3.9534102	-176.5741964	-13.81401738	-162.8346636
6.2	620	-0.23	0.089	1.045	0.4010706	-24.2361234	4.4117766	-176.5455485	-13.56191586	-162.8633115
6.21	621	-0.292	0.109	1.015	1.6042824	-21.8296998	4.2398892	-176.5226302	-13.34419182	-162.8862298
6.22	622	-0.192	0.065	0.978	3.6096354	-15.8136408	2.8074942	-176.4767936	-13.18949316	-162.897689
6.23	623	-0.212	0.076	0.959	3.3804522	-13.6936962	2.6356068	-176.4424161	-13.05198324	-162.9148777
6.24	624	-0.137	0.041	0.907	3.2085648	-11.5164558	4.3544808	-176.3965795	-12.93739164	-162.9492552
6.25	625	-0.124	0.051	0.883	1.0886202	-11.9748222	4.7555514	-176.3679316	-12.77123382	-162.9893623
6.26	626	-0.13	0.056	0.902	-1.5469866	-14.610429	4.6409598	-176.3736611	-12.62226474	-163.0237397
6.27	627	-0.154	0.067	0.926	-2.0626488	-12.7769634	3.2085648	-176.3851203	-12.49621398	-163.0409285
6.28	628	-0.165	0.075	0.952	-2.2345362	-10.1986524	2.3491278	-176.402309	-12.39308154	-163.0581172
6.29	629	-0.165	0.08	0.982	-2.005353	-7.2765666	1.7761698	-176.4194978	-12.318597	-163.0695764
6.3	630	-0.171	0.087	1.004	-1.6042824	-4.297185	1.0313244	-176.402309	-12.18681666	-163.0867651
6.31	631	-0.181	0.088	1.026	-1.145916	-1.9480572	0.4583664	-176.4137682	-12.16389834	-163.0867651
6.32	632	-0.183	0.092	1.04	-0.4583664	0.4583664	0	-176.4194978	-12.16962792	-163.0867651
6.33	633	-0.19	0.093	1.05	0.286479	2.86479	-0.2291832	-176.4137682	-12.19827582	-163.0867651
6.34	634	-0.195	0.093	1.053	1.3178034	5.0993262	-0.3437748	-176.402309	-12.24984204	-163.0867651
6.35	635	-0.197	0.089	1.045	2.291832	6.7609044	-0.4010706	-176.362202	-12.2899491	-163.0924947
6.36	636	-0.197	0.088	1.036	3.151269	7.9641162	-0.0572958	-176.3278245	-12.37016322	-163.1039539
6.37	637	-0.199	0.085	1.02	3.9534102	8.7089616	0.1145916	-176.2877174	-12.45610692	-163.1096834
6.38	638	-0.199	0.084	1.008	4.7555514	9.167328	0.4010706	-176.2361512	-12.5477802	-163.1211426
6.39	639	-0.2	0.085	0.997	4.9847346	9.453807	0.5156622	-176.184585	-12.63945348	-163.1383313
6.4	640	-0.201	0.085	0.988	5.0420304	9.6256944	0.5156622	-176.1215596	-12.7196676	-163.1555201
6.41	641	-0.204	0.086	0.979	4.9847346	9.9121734	0.4583664	-176.0699934	-12.81707046	-163.1669792
6.42	642	-0.203	0.087	0.974	4.6409598	9.5683986	0.3437748	-176.0241568	-12.91447332	-163.1784384
6.43	643	-0.207	0.088	0.973	4.0680018	8.9954406	0.1718874	-175.9783201	-13.0061466	-163.1898976
6.44	644	-0.208	0.089	0.973	3.437748	7.8495246	0.1145916	-175.9439426	-13.08063114	-163.2013567
6.45	645	-0.208	0.085	0.972	2.6929026	6.302538	0.0572958	-175.9152947	-13.10354946	-163.2070863
6.46	646	-0.225	0.094	0.977	1.5469866	3.0939732	0.2291832	-175.898106	-13.13219736	-163.2128159
6.47	647	-0.231	0.091	0.986	0.7448454	2.291832	-0.1145916	-175.8866468	-13.15511568	-163.2128159
6.48	648	-0.228	0.09	0.989	0.3437748	2.1199446	-0.1145916	-175.8866468	-13.178034	-163.2128159
6.49	649	-0.226	0.089	0.99	-0.1718874	1.6615782	-0.1145916	-175.8866468	-13.19522274	-163.2128159
6.5	650	-0.226	0.088	0.992	-0.4583664	0.7448454	0	-175.7949736	-13.1493861	-163.2414638
6.51	651	-0.224	0.087	0.992	-0.6875496	-0.0572958	0.0572958	-175.8007031	-13.1493861	-163.2414638
6.52	652	-0.221	0.086	0.99	-0.7448454	-0.7448454	0.1718874	-175.8121623	-13.13792694	-163.2471934
6.53	653	-0.218	0.084	0.988	-0.7448454	-1.5469866	0.286479	-175.8178919	-13.12646778	-163.2471934
6.54	654	-0.216	0.084	0.983	-0.7448454	-2.6356068	0.5156622	-175.8236215	-13.09781988	-163.2471934
6.55	655	-0.215	0.083	0.981	-0.7448454	-3.6669312	0.6302538	-175.8178919	-13.0347945	-163.2586525
6.56	656	-0.213	0.083	0.978	-0.8021412	-4.3544808	0.6875496	-175.8236215	-12.99468744	-163.2586525
6.57	657	-0.209	0.083	0.979	-0.8021412	-4.9274388	0.7448454	-175.8350806	-12.94312122	-163.2643821
6.58	658	-0.206	0.084	0.98	-0.8021412	-5.3858052	0.859437	-175.8408102	-12.891555	-163.2643821
6.59	659	-0.204	0.084	0.983	-0.859437	-5.72958	0.859437	-175.8465398	-12.82852962	-163.2701117
6.6	660	-0.202	0.086	0.985	-0.859437	-6.0733548	0.859437	-175.8408102	-12.74258592	-163.2758413
6.61	661	-0.2	0.086	0.985	-0.8021412	-6.1306506	0.9167328	-175.8465398	-12.67956054	-163.2758413
6.62	662	-0.199	0.087	0.986	-0.8021412	-6.302538	0.9740286	-175.8579989	-12.61653516	-163.2815708
6.63	663	-0.197	0.087	0.987	-1.0313244	-6.4744254	0.9167328	-175.8637285	-12.55350978	-163.2873004
6.64	664	-0.197	0.087	0.99	-1.2032118	-6.4171296	0.8021412	-175.8751877	-12.4904844	-163.2873004
6.65	665	-0.196	0.088	0.994	-1.432395	-6.1879464	0.6875496	-175.8751877	-12.39881112	-163.29303
6.66	666	-0.194	0.088	0.996	-1.5469866	-6.0733548	0.6302538	-175.8923764	-12.33578574	-163.29303
6.67	667	-0.193	0.088	0.997	-1.718874	-5.72958	0.5156622	-175.9095652	-12.27848994	-163.29303
6.68	668	-0.193	0.088	0.999	-1.8334656	-5.0993262	0.4583664	-175.9267539	-12.22692372	-163.29303
6.69	669	-0.192	0.089	1.001	-1.8334656	-4.1825934	0.3437748	-175.9439426	-12.18681666	-163.29303
6.7	670	-0.193	0.087	1.002	-1.6042824	-3.2658606	0.2291832	-175.9382131	-12.10660254	-163.29303
6.71	671	-0.193	0.086	1.002	-1.3178034	-2.4637194	0.2291832	-175.9554018	-12.08368422	-163.29303
6.72	672	-0.194	0.085	1.006	-1.3750992	-1.7761698	0.1718874	-175.966861	-12.06649548	-163.29303
6.73	673	-0.194	0.085	1.009	-1.4896908	-1.3750992	0.1145916	-175.9840497	-12.04930674	-163.2987596
6.74	674	-0.195	0.086	1.012	-1.4896908	-0.9167328	0	-176.0012384	-12.04357716	-163.29303
6.75	675	-0.195	0.086	1.009	-1.2032118	-0.0572958	0	-175.9554018	-11.92898556	-163.3102187
6.76	676	-0.194	0.084	1.006	-0.6875496	0.6875496	0	-175.966861	-11.93471514	-163.3102187
6.77	677	-0.195	0.084	1.002	-0.3437748	1.4896908	0	-175.966861	-11.95190388	-163.3102187
6.78	678	-0.194	0.084	1	-0.0572958	2.2345362	0	-175.966861	-11.9748222	-163.3102187
6.79	679	-0.195	0.084	0.997	0.1718874	2.7501984	0	-175.966861	-11.99774052	-163.3159483
6.8	680	-0.196	0.083	0.993	0.5156622	3.0939732	0	-175.9439426	-11.99774052	-163.3216779
6.81	681	-0.196	0.083	0.992	0.6875496	3.0939732	-0.0572958	-175.9324835	-12.02638842	-163.3274075
6.82	682	-0.195	0.084	0.99	0.6875496	3.0939732	0	-175.9267539	-12.05503632	-163.3274075
6.83	683	-0.197	0.084	0.99	0.7448454	2.86479	0	-175.9210243	-12.08368422	-163.3331371
6.84	684	-0.198	0.084	0.991	0.6875496	2.578311	0	-175.9095652	-12.11233212	-163.3331371
6.85	685	-0.199	0.085	0.991	0.4583664	2.1772404	0.0572958	-175.8751877	-12.08368422	-163.3445962
6.86	686	-0.199	0.084	0.992	0.286479	1.718874	0.0572958	-175.8751877	-12.10087296	-163.3445962
6.87	687	-0.199	0.085	0.991	0.1718874	1.3750992	0.0572958	-175.8694581	-12.11233212	-163.3445962
6.88	688	-0.199	0.085	0.991	0.0572958	1.0313244	0.0572958	-175.8694581	-12.12379128	-163.3503258
6.89	689	-0.2	0.084	0.99	0	0.6302538	0.1718874	-175.8694581	-12.12952086	-163.3503258
6.9	690	-0.2	0.084	0.99	-0.1718874	0.1718874	0.286479	-175.789244	-11.96909262	-163.3732441
6.91	691	-0.199	0.084	0.99	-0.1718874	-0.2291832	0.4010706	-175.7949736	-11.96336304	-163.3789737
6.92	692	-0.201	0.085	0.992	-0.3437748	-0.5156622	0.286479	-175.7949736	-11.95763346	-163.3847033
6.93	693	-0.199	0.084	0.992	-0.4583664	-0.7448454	0.3437748	-175.8007031	-11.95190388	-163.3847033
6.94	694	-0.2	0.085	0.991	-0.4010706	-0.9740286	0.286479	-175.8064327	-11.94044472	-163.3847033
6.95	695	-0.2	0.084	0.991	-0.4010706	-0.9740286	0.286479	-175.7835144	-11.8888785	-163.3961624
6.96	696	-0.199	0.084	0.99	-0.4010706	-1.145916	0.3437748	-175.789244	-11.87741934	-163.3961624
6.97	697	-0.199	0.084	0.991	-0.5156622	-1.432395	0.286479	-175.7949736	-11.8602306	-163.401892
6.98	698	-0.199	0.083	0.993	-0.6302538	-1.718874	0.2291832	-175.8007031	-11.84304186	-163.401892
6.99	699	-0.199	0.085	0.994	-0.572958	-1.9480572	0.286479	-175.8064327	-11.82585312	-163.401892
7	700	-0.198	0.084	0.996	-0.6302538	-2.005353	0.286479	-175.8007031	-11.7742869	-163.4076216
7.01	701	-0.196	0.084	0.996	-0.572958	-1.7761698	0.3437748	-175.8064327	-11.75709816	-163.4076216
7.02	702	-0.196	0.085	0.996	-0.572958	-1.432395	0.3437748	-175.8121623	-11.745639	-163.4076216
7.03	703	-0.196	0.084	0.998	-0.5156622	-1.3178034	0.2291832	-175.8178919	-11.72845026	-163.4076216
7.04	704	-0.195	0.085	0.997	-0.4583664	-1.0886202	0.2291832	-175.8236215	-11.7169911	-163.4133512
7.05	705	-0.194	0.084	0.996	-0.4010706	-1.0886202	0.1718874	-175.7949736	-11.65396572	-163.4190808
7.06	706	-0.195	0.085	0.997	-0.3437748	-0.7448454	0.2291832	-175.8007031	-11.64823614	-163.4190808
7.07	707	-0.194	0.084	0.997	-0.286479	-0.7448454	0.1718874	-175.8007031	-11.64250656	-163.4248103
7.08	708	-0.193	0.085	0.996	-0.1145916	-0.5156622	0.2291832	-175.8007031	-11.63677698	-163.4248103
7.09	709	-0.193	0.085	0.996	-0.1145916	-0.286479	0.1718874	-175.8064327	-11.6310474	-163.4248103
7.1	710	-0.194	0.084	0.997	-0.1145916	-0.1145916	0.0572958	-175.7548665	-11.4878079	-163.4419991
7.11	711	-0.193	0.084	0.996	-0.0572958	0.1145916	0.1145916	-175.7548665	-11.4878079	-163.4419991
7.12	712	-0.194	0.085	0.996	0	0.2291832	0.0572958	-175.7548665	-11.49353748	-163.4419991
7.13	713	-0.194	0.084	0.996	0	0.3437748	0.0572958	-175.7548665	-11.49353748	-163.4419991
7.14	714	-0.195	0.084	0.995	0	0.3437748	0.0572958	-175.7548665	-11.49926706	-163.4419991
7.15	715	-0.195	0.084	0.994	0.0572958	0.286479	0.0572958	-175.7090299	-11.40759378	-163.4534582
7.16	716	-0.194	0.084	0.997	0.0572958	0.4583664	0.0572958	-175.7090299	-11.40759378	-163.4534582
7.17	717	-0.195	0.083	0.995	0.0572958	0.6302538	0.0572958	-175.7090299	-11.41905294	-163.4591878
7.18	718	-0.195	0.085	0.995	0.0572958	0.8021412	0.0572958	-175.7090299	-11.42478252	-163.4591878
7.19	719	-0.196	0.083	0.994	0.0572958	0.6875496	0	-175.7090299	-11.4305121	-163.4591878
7.2	720	-0.197	0.083	0.995	0	0.6302538	0.0572958	-175.6975707	-11.4018642	-163.4649174
7.21	721	-0.196	0.084	0.994	0.0572958	0.4583664	0.1145916	-175.6975707	-11.40759378	-163.4649174
7.22	722	-0.196	0.084	0.993	0	0.3437748	0.1145916	-175.6975707	-11.41332336	-163.4649174
7.23	723	-0.195	0.082	0.993	0.0572958	0.1718874	0.1718874	-175.6918411	-11.41332336	-163.470647
7.24	724	-0.196	0.083	0.993	-0.0572958	0	0.286479	-175.6918411	-11.41332336	-163.470647
7.25	725	-0.197	0.085	0.996	-0.0572958	-0.2291832	0.1718874	-175.6460045	-11.38467546	-163.4878357
7.26	726	-0.196	0.085	0.993	-0.0572958	-0.1145916	0.1718874	-175.6460045	-11.38467546	-163.4878357
7.27	727	-0.197	0.084	0.992	-0.1145916	-0.5156622	0.1718874	-175.6460045	-11.37894588	-163.4935653
7.28	728	-0.197	0.084	0.992	-0.2291832	-0.6302538	0.0572958	-175.6460045	-11.36748672	-163.4935653
7.29	729	-0.196	0.083	0.993	-0.1718874	-0.4583664	0.0572958	-175.6517341	-11.36748672	-163.4935653
7.3	730	-0.195	0.084	0.991	0	-0.286479	0.0572958	-175.6288157	-11.32737966	-163.4992949
7.31	731	-0.195	0.084	0.992	-0.0572958	-0.1718874	0.0572958	-175.6288157	-11.32165008	-163.4992949
7.32	732	-0.195	0.082	0.996	-0.2291832	-0.4010706	0.1145916	-175.6345453	-11.32165008	-163.4992949
7.33	733	-0.195	0.084	1.002	-0.4583664	-0.7448454	0.1145916	-175.6402749	-11.31019092	-163.4992949
7.34	734	-0.195	0.084	1.003	-0.5156622	-0.8021412	0.1145916	-175.6460045	-11.30446134	-163.4992949
7.35	735	-0.195	0.085	1.002	-0.4010706	-0.3437748	0.1145916	-175.6402749	-11.27581344	-163.5050245
7.36	736	-0.194	0.084	1	-0.1718874	0	0.1718874	-175.6402749	-11.27581344	-163.5050245
7.37	737	-0.194	0.084	0.996	-0.0572958	0.0572958	0.1718874	-175.6402749	-11.28154302	-163.5050245
7.38	738	-0.194	0.083	0.994	0	0.3437748	0.1718874	-175.6402749	-11.28154302	-163.510754
7.39	739	-0.195	0.084	0.993	0.0572958	0.4583664	0.1718874	-175.6402749	-11.2872726	-163.510754
7.4	740	-0.195	0.083	0.99	0.1718874	0.4583664	0.1145916	-175.6345453	-11.27581344	-163.5164836
7.41	741	-0.195	0.083	0.99	0.1145916	0.2291832	0.1145916	-175.6345453	-11.28154302	-163.5164836
7.42	742	-0.194	0.084	0.99	0.1145916	0.0572958	0.1145916	-175.6345453	-11.28154302	-163.5164836
7.43	743	-0.194	0.084	0.992	0.1145916	-0.1145916	0.1718874	-175.6288157	-11.27581344	-163.5222132
7.44	744	-0.195	0.085	0.994	0.0572958	-0.1718874	0.0572958	-175.6288157	-11.27581344	-163.5222132
7.45	745	-0.196	0.085	0.998	0.0572958	-0.0572958	0	-175.6058974	-11.24716554	-163.5279428
7.46	746	-0.196	0.086	0.999	0.1718874	0	0	-175.6058974	-11.24716554	-163.5279428
7.47	747	-0.195	0.085	0.998	0.2291832	0.0572958	0	-175.6058974	-11.24716554	-163.5279428
7.48	748	-0.195	0.084	0.998	0.2291832	0.2291832	0	-175.6001678	-11.24716554	-163.5279428
7.49	749	-0.194	0.085	0.997	0.286479	0.286479	0	-175.6001678	-11.25289512	-163.5279428
7.5	750	-0.195	0.084	0.995	0.2291832	0.3437748	0	-175.5829791	-11.24143596	-163.5279428
7.51	751	-0.195	0.085	0.996	0.3437748	0.286479	0	-175.5829791	-11.24716554	-163.5279428
7.52	752	-0.195	0.085	0.994	0.4010706	0.2291832	0	-175.5772495	-11.24716554	-163.5279428
7.53	753	-0.195	0.085	0.993	0.286479	0.1718874	0	-175.5715199	-11.25289512	-163.5279428
7.54	754	-0.194	0.084	0.995	0.3437748	0.0572958	0	-175.5715199	-11.25289512	-163.5336724
7.55	755	-0.194	0.084	0.994	0.3437748	0.1145916	0.0572958	-175.5657904	-11.23570638	-163.5336724
7.56	756	-0.195	0.085	0.993	0.3437748	0.2291832	0	-175.5600608	-11.24143596	-163.5336724
7.57	757	-0.195	0.085	0.992	0.4010706	0.2291832	0	-175.5600608	-11.24143596	-163.5336724
7.58	758	-0.195	0.083	0.994	0.2291832	0	0	-175.5543312	-11.24143596	-163.5336724
7.59	759	-0.195	0.084	0.995	0	-0.2291832	-0.0572958	-175.5543312	-11.24143596	-163.5336724
7.6	760	-0.196	0.084	0.995	0	-0.2291832	-0.0572958	-175.5486016	-11.21851764	-163.5279428
7.61	761	-0.196	0.084	0.996	0.0572958	-0.0572958	-0.0572958	-175.5486016	-11.21851764	-163.5279428
7.62	762	-0.195	0.085	0.996	0.1145916	0	-0.0572958	-175.5486016	-11.21851764	-163.5279428
7.63	763	-0.195	0.085	0.995	0.2291832	0	0	-175.5486016	-11.21851764	-163.5279428
7.64	764	-0.195	0.085	0.996	0.1718874	0	-0.0572958	-175.542872	-11.21851764	-163.5279428
7.65	765	-0.195	0.085	0.997	0.2291832	0.0572958	0	-175.5084946	-11.21278806	-163.5336724
7.66	766	-0.195	0.085	0.995	0.0572958	0	0	-175.5084946	-11.21278806	-163.5336724
7.67	767	-0.195	0.086	0.996	0.1145916	0	-0.0572958	-175.5084946	-11.21278806	-163.5336724
7.68	768	-0.193	0.085	0.993	0.1718874	0.1718874	0	-175.5084946	-11.21278806	-163.5336724
7.69	769	-0.194	0.084	0.993	0	0.1145916	0	-175.5084946	-11.21851764	-163.5336724
7.7	770	-0.194	0.086	0.994	0.0572958	0.0572958	0	-175.4741171	-11.18986974	-163.5394019
7.71	771	-0.194	0.087	0.995	0.0572958	0.0572958	0	-175.4741171	-11.18986974	-163.5394019
7.72	772	-0.195	0.086	0.996	0.0572958	0.0572958	0	-175.4741171	-11.18986974	-163.5394019
7.73	773	-0.193	0.085	0.995	0	0.0572958	-0.0572958	-175.4741171	-11.18986974	-163.5394019
7.74	774	-0.195	0.086	0.995	0.0572958	0	0	-175.4741171	-11.18986974	-163.5394019
7.75	775	-0.195	0.086	0.995	0	-0.0572958	-0.0572958	-175.4798467	-11.172681	-163.5394019
7.76	776	-0.195	0.086	0.996	0	0	-0.0572958	-175.4798467	-11.172681	-163.5336724
7.77	777	-0.196	0.086	0.996	0	0.0572958	0	-175.4798467	-11.172681	-163.5336724
7.78	778	-0.195	0.085	0.995	0.0572958	0.1718874	-0.0572958	-175.4798467	-11.17841058	-163.5336724
7.79	779	-0.195	0.086	0.995	0.0572958	0.1718874	0	-175.4798467	-11.17841058	-163.5336724
7.8	780	-0.195	0.087	0.996	0	0.1718874	0	-175.4683875	-11.16122184	-163.5394019
7.81	781	-0.195	0.086	0.995	0.0572958	0.0572958	0	-175.4683875	-11.16695142	-163.5394019
7.82	782	-0.195	0.085	0.995	0	0.1718874	0	-175.4683875	-11.16695142	-163.5394019
7.83	783	-0.195	0.085	0.995	0.0572958	0.1145916	0	-175.4683875	-11.16695142	-163.5394019
7.84	784	-0.195	0.087	0.996	0	0.1718874	-0.0572958	-175.4683875	-11.172681	-163.5394019
7.85	785	-0.195	0.087	0.996	0	0.2291832	0	-175.4511988	-11.17841058	-163.5394019
7.86	786	-0.195	0.087	0.995	0	0.1145916	0	-175.4511988	-11.17841058	-163.5394019
7.87	787	-0.195	0.087	0.994	0	0.1145916	0	-175.4511988	-11.17841058	-163.5394019
7.88	788	-0.196	0.087	0.995	0	0.1145916	0	-175.4511988	-11.17841058	-163.5394019
7.89	789	-0.196	0.087	0.994	0.0572958	0.1145916	0	-175.4511988	-11.18414016	-163.5394019
7.9	790	-0.196	0.087	0.995	0	0.2291832	0	-175.4454692	-11.17841058	-163.5394019
7.91	791	-0.196	0.087	0.994	0.1145916	0.1718874	0	-175.4454692	-11.17841058	-163.5394019
7.92	792	-0.196	0.086	0.993	0	0.1718874	0	-175.4454692	-11.18414016	-163.5394019
7.93	793	-0.196	0.087	0.994	0	0	0	-175.4454692	-11.18414016	-163.5394019
7.94	794	-0.196	0.088	0.996	0	-0.1145916	0.0572958	-175.4454692	-11.18414016	-163.5394019
7.95	795	-0.196	0.087	0.995	-0.1718874	-0.2291832	0	-175.4397396	-11.18414016	-163.5394019
7.96	796	-0.195	0.088	0.994	-0.1718874	-0.3437748	0	-175.4454692	-11.17841058	-163.5394019
7.97	797	-0.196	0.087	0.994	-0.2291832	-0.3437748	0	-175.4454692	-11.17841058	-163.5394019
7.98	798	-0.194	0.087	0.993	0	0	0	-175.4454692	-11.17841058	-163.5394019
7.99	799	-0.194	0.087	0.994	0	0.1145916	0	-175.4454692	-11.17841058	-163.5394019
8	800	-0.195	0.087	0.996	-0.1145916	0	0	-175.4397396	-11.172681	-163.5394019
8.01	801	-0.195	0.087	1	-0.3437748	-0.3437748	0	-175.4454692	-11.172681	-163.5394019
8.02	802	-0.196	0.087	1.002	-0.5156622	-0.4583664	0	-175.4511988	-11.16695142	-163.5394019
8.03	803	-0.196	0.088	1.001	-0.4583664	-0.1718874	0	-175.4569283	-11.16122184	-163.5394019
8.04	804	-0.196	0.088	0.998	-0.1718874	0.0572958	0	-175.4569283	-11.16122184	-163.5451315
8.05	805	-0.195	0.086	0.995	0	0.286479	0.0572958	-175.4569283	-11.16122184	-163.5451315
8.06	806	-0.195	0.087	0.992	-0.0572958	0.4583664	0.0572958	-175.4569283	-11.16695142	-163.5451315
8.07	807	-0.195	0.087	0.99	0	0.4010706	0.0572958	-175.4569283	-11.172681	-163.5451315
8.08	808	-0.196	0.087	0.99	0	0.4010706	0	-175.4569283	-11.172681	-163.5451315
8.09	809	-0.195	0.088	0.991	-0.0572958	0.3437748	0.0572958	-175.4569283	-11.17841058	-163.5508611
8.1	810	-0.196	0.088	0.99	-0.0572958	0	0.0572958	-175.4282804	-11.17841058	-163.5565907
8.11	811	-0.197	0.089	0.993	-0.1145916	-0.2291832	0.0572958	-175.4282804	-11.172681	-163.5565907
8.12	812	-0.196	0.088	0.995	-0.2291832	-0.286479	0.0572958	-175.4282804	-11.172681	-163.5565907
8.13	813	-0.195	0.089	0.996	-0.1718874	-0.3437748	0.0572958	-175.43401	-11.16695142	-163.5565907
8.14	814	-0.197	0.088	0.999	-0.286479	-0.4010706	0	-175.43401	-11.16122184	-163.5565907
8.15	815	-0.196	0.089	0.999	-0.286479	-0.4010706	0	-175.4282804	-11.16122184	-163.5623203
8.16	816	-0.196	0.088	0.998	-0.3437748	-0.286479	0	-175.4282804	-11.15549226	-163.5623203
8.17	817	-0.196	0.088	0.996	-0.4010706	-0.1718874	0	-175.43401	-11.15549226	-163.5623203
8.18	818	-0.194	0.087	0.995	-0.4010706	-0.1718874	0	-175.4397396	-11.14976268	-163.5623203
8.19	819	-0.195	0.087	0.995	-0.4583664	-0.1145916	0	-175.4454692	-11.14976268	-163.5623203
8.2	820	-0.195	0.086	0.994	-0.3437748	-0.1145916	0	-175.4511988	-11.14976268	-163.5565907
8.21	821	-0.195	0.087	0.994	-0.2291832	-0.2291832	0.0572958	-175.4511988	-11.14976268	-163.5623203
8.22	822	-0.195	0.088	0.993	-0.3437748	-0.4583664	0	-175.4569283	-11.1440331	-163.5623203
8.23	823	-0.194	0.086	0.994	-0.4010706	-0.4583664	0	-175.4569283	-11.13830352	-163.5623203
8.24	824	-0.195	0.086	0.994	-0.4583664	-0.4583664	0	-175.4626579	-11.13257394	-163.5565907
8.25	825	-0.196	0.087	0.993	-0.4010706	-0.286479	0	-175.4683875	-11.13257394	-163.5565907
8.26	826	-0.196	0.087	0.993	-0.4010706	-0.2291832	0	-175.4683875	-11.12684436	-163.5565907
8.27	827	-0.196	0.086	0.995	-0.572958	-0.572958	0	-175.4741171	-11.12111478	-163.5565907
8.28	828	-0.195	0.087	0.996	-0.6302538	-0.8021412	0	-175.4855762	-11.1153852	-163.5565907
8.29	829	-0.195	0.087	0.997	-0.6302538	-0.6875496	0	-175.4913058	-11.10392604	-163.5565907
8.3	830	-0.194	0.087	0.996	-0.572958	-0.5156622	0	-175.4913058	-11.09819646	-163.5565907
8.31	831	-0.194	0.086	0.997	-0.4010706	-0.3437748	0	-175.4970354	-11.09819646	-163.5565907
8.32	832	-0.194	0.086	0.996	-0.4010706	-0.3437748	0	-175.4970354	-11.09246688	-163.5565907
8.33	833	-0.195	0.087	0.996	-0.3437748	-0.2291832	0	-175.502765	-11.0867373	-163.5565907
8.34	834	-0.194	0.087	0.995	-0.286479	-0.1718874	0	-175.5084946	-11.0867373	-163.5565907
8.35	835	-0.194	0.086	0.995	-0.4010706	-0.1718874	0	-175.502765	-11.08100772	-163.5565907
8.36	836	-0.194	0.087	0.995	-0.4583664	-0.1718874	-0.0572958	-175.5084946	-11.08100772	-163.5565907
8.37	837	-0.194	0.087	0.994	-0.3437748	-0.0572958	0	-175.5142241	-11.08100772	-163.5565907
8.38	838	-0.193	0.086	0.995	-0.286479	-0.1718874	-0.0572958	-175.5142241	-11.07527814	-163.5565907
8.39	839	-0.194	0.087	0.994	-0.286479	-0.1145916	0	-175.5199537	-11.07527814	-163.5565907
8.4	840	-0.194	0.087	0.995	-0.1718874	-0.1145916	0	-175.5084946	-11.08100772	-163.5565907
8.41	841	-0.194	0.086	0.996	-0.0572958	0	-0.0572958	-175.5084946	-11.08100772	-163.5565907
8.42	842	-0.194	0.086	0.994	-0.0572958	0	-0.0572958	-175.5084946	-11.08100772	-163.5565907
8.43	843	-0.194	0.085	0.994	-0.0572958	-0.0572958	0	-175.5084946	-11.08100772	-163.5565907
8.44	844	-0.194	0.086	0.996	0	-0.0572958	0	-175.5084946	-11.08100772	-163.5565907
8.45	845	-0.194	0.086	0.995	-0.0572958	0	0	-175.502765	-11.08100772	-163.5565907
8.46	846	-0.194	0.086	0.997	-0.1145916	0.1145916	-0.0572958	-175.502765	-11.08100772	-163.5565907
8.47	847	-0.194	0.086	0.995	0	0.1145916	-0.0572958	-175.502765	-11.0867373	-163.5565907
8.48	848	-0.194	0.085	0.996	-0.0572958	0.0572958	0	-175.502765	-11.0867373	-163.5565907
8.49	849	-0.194	0.086	0.995	0.0572958	0	0	-175.502765	-11.0867373	-163.5565907
8.5	850	-0.194	0.085	0.996	0	0	0	-175.4970354	-11.08100772	-163.5565907
8.51	851	-0.194	0.086	0.995	0.0572958	0.0572958	0	-175.4970354	-11.08100772	-163.5565907
8.52	852	-0.193	0.086	0.995	0.1145916	0.1145916	0.0572958	-175.4970354	-11.08100772	-163.5565907
8.53	853	-0.193	0.085	0.994	0.1145916	0.1145916	0	-175.4970354	-11.08100772	-163.5565907
8.54	854	-0.194	0.085	0.995	0.1145916	0.2291832	0	-175.4913058	-11.0867373	-163.5565907
8.55	855	-0.194	0.085	0.995	0.1718874	0.1718874	0.0572958	-175.4913058	-11.0867373	-163.5565907
8.56	856	-0.193	0.085	0.995	0.1718874	0.1718874	0	-175.4855762	-11.0867373	-163.5565907
8.57	857	-0.194	0.086	0.995	0.1718874	0.1145916	0	-175.4855762	-11.0867373	-163.5623203
8.58	858	-0.193	0.085	0.996	0.1718874	0	0	-175.4855762	-11.0867373	-163.5623203
8.59	859	-0.193	0.085	0.994	0.1145916	0.0572958	0.0572958	-175.4798467	-11.0867373	-163.5623203
8.6	860	-0.194	0.085	0.997	0.1718874	0.0572958	0.0572958	-175.4913058	-11.08100772	-163.5565907
8.61	861	-0.194	0.086	0.996	0.0572958	0.0572958	0	-175.4913058	-11.08100772	-163.5565907
8.62	862	-0.193	0.087	0.995	0.1718874	0.1145916	0	-175.4913058	-11.08100772	-163.5565907
8.63	863	-0.193	0.085	0.994	0.1718874	0.0572958	0	-175.4855762	-11.08100772	-163.5565907
8.64	864	-0.193	0.086	0.994	0.2291832	0.0572958	0	-175.4855762	-11.0867373	-163.5623203
8.65	865	-0.193	0.085	0.995	0.2291832	0	0.0572958	-175.4798467	-11.08100772	-163.5623203
8.66	866	-0.193	0.086	0.994	0.2291832	0	0	-175.4798467	-11.08100772	-163.5623203
8.67	867	-0.193	0.084	0.995	0.2291832	0	0.0572958	-175.4741171	-11.08100772	-163.5623203
8.68	868	-0.193	0.085	0.995	0.286479	0	0	-175.4741171	-11.08100772	-163.5623203
8.69	869	-0.193	0.086	0.996	0.1145916	0	0	-175.4683875	-11.08100772	-163.5623203
8.7	870	-0.192	0.085	0.997	0.0572958	0	0	-175.4683875	-11.06954856	-163.5623203
8.71	871	-0.193	0.085	0.994	0	-0.1145916	0	-175.4683875	-11.06954856	-163.5623203
8.72	872	-0.194	0.085	0.995	0	-0.1145916	0	-175.4683875	-11.06954856	-163.5623203
8.73	873	-0.192	0.085	0.995	0.0572958	0.0572958	0	-175.4683875	-11.06954856	-163.5623203
8.74	874	-0.191	0.085	0.993	0.2291832	0.1718874	0	-175.4626579	-11.06954856	-163.5623203
8.75	875	-0.192	0.085	0.994	0.1145916	0.1718874	0	-175.4683875	-11.06954856	-163.5623203
8.76	876	-0.194	0.084	0.998	-0.0572958	-0.0572958	0	-175.4683875	-11.06954856	-163.5623203
8.77	877	-0.193	0.085	1.001	-0.1718874	-0.4010706	0.0572958	-175.4683875	-11.06381898	-163.5623203
8.78	878	-0.193	0.085	1.003	-0.286479	-0.2291832	0.0572958	-175.4741171	-11.0580894	-163.5623203
8.79	879	-0.193	0.084	1.001	-0.1718874	0	0	-175.4741171	-11.0580894	-163.5623203
8.8	880	-0.192	0.085	0.999	0.0572958	0.2291832	0.0572958	-175.4683875	-11.05235982	-163.5680498
8.81	881	-0.194	0.085	0.994	0	0.1718874	0	-175.4683875	-11.0580894	-163.5680498
8.82	882	-0.193	0.086	0.995	0.0572958	0.4010706	0	-175.4683875	-11.0580894	-163.5680498
8.83	883	-0.192	0.085	0.994	0.1145916	0.6302538	0	-175.4683875	-11.06381898	-163.5680498
8.84	884	-0.192	0.085	0.99	0.1718874	0.6875496	0	-175.4626579	-11.07527814	-163.5680498
8.85	885	-0.193	0.084	0.988	0.1145916	0.4583664	0	-175.4626579	-11.07527814	-163.5680498
8.86	886	-0.193	0.085	0.992	0.1145916	0.0572958	0	-175.4626579	-11.07527814	-163.5680498
8.87	887	-0.192	0.085	0.993	0	-0.1145916	0	-175.4626579	-11.07527814	-163.5680498
8.88	888	-0.193	0.085	0.998	0	-0.2291832	0	-175.4626579	-11.07527814	-163.5680498
8.89	889	-0.193	0.085	0.999	0	-0.1718874	-0.0572958	-175.4626579	-11.06954856	-163.5680498
8.9	890	-0.193	0.086	0.997	0	-0.1145916	-0.0572958	-175.4626579	-11.06381898	-163.5680498
8.91	891	-0.192	0.085	0.998	0.0572958	0	0	-175.4626579	-11.06381898	-163.5680498
8.92	892	-0.192	0.084	0.998	0.1145916	0	-0.0572958	-175.4626579	-11.06381898	-163.5680498
8.93	893	-0.192	0.085	0.996	0.0572958	0.1718874	-0.0572958	-175.4626579	-11.06954856	-163.5623203
8.94	894	-0.192	0.085	0.995	0.0572958	0.286479	0	-175.4626579	-11.06954856	-163.5623203
8.95	895	-0.192	0.084	0.995	0.1145916	0.2291832	0	-175.4626579	-11.06381898	-163.5623203
8.96	896	-0.192	0.085	0.995	0.0572958	0.1718874	-0.0572958	-175.4626579	-11.06381898	-163.5623203
8.97	897	-0.192	0.084	0.994	0	0.2291832	0	-175.4569283	-11.06381898	-163.5623203
8.98	898	-0.192	0.085	0.995	0	0.0572958	0	-175.4569283	-11.06954856	-163.5623203
8.99	899	-0.192	0.084	0.994	0	0.0572958	0	-175.4626579	-11.06954856	-163.5623203
9	900	-0.193	0.084	0.995	0	0	0	-175.4741171	-11.06954856	-163.5623203
9.01	901	-0.192	0.084	0.994	0	0.1718874	0	-175.4741171	-11.06954856	-163.5623203
9.02	902	-0.192	0.084	0.994	0	0.0572958	0	-175.4741171	-11.06954856	-163.5623203
