TimeStamp(s)	FrameCounter	AccX	AccY	AccZ	GyrX	GyrY	GyrZ	EulerX	EulerY	EulerZ
0.01	1	-0.044	-0.987	0.19	-3.8388186	3.8388186	-1.9480572	100.554129	-1.62720072	-19.95039756
0.02	2	-0.044	-0.986	0.19	-3.8388186	3.6669312	-2.2345362	100.5140219	-1.61574156	-19.9102905
0.03	3	-0.047	-0.988	0.189	-3.8961144	3.6096354	-2.291832	100.4739149	-1.59855282	-19.87018344
0.04	4	-0.05	-0.992	0.189	-4.010706	3.6669312	-2.4064236	100.4338078	-1.58709366	-19.83007638
0.05	5	-0.051	-0.995	0.191	-4.1825934	3.8388186	-2.6356068	100.3822416	-1.5756345	-19.78423974
0.06	6	-0.052	-0.997	0.193	-4.297185	4.1825934	-2.9220858	100.336405	-1.55271618	-19.7384031
0.07	7	-0.054	-1	0.189	-4.583664	4.583664	-3.2085648	100.2905683	-1.53552744	-19.68683688
0.08	8	-0.052	-1.001	0.185	-4.8128472	4.870143	-3.437748	100.2390021	-1.50687954	-19.63527066
0.09	9	-0.051	-1.003	0.182	-5.0993262	5.0420304	-3.6669312	100.1817063	-1.48396122	-19.57797486
0.1	10	-0.049	-1.006	0.176	-5.5003968	5.2712136	-3.724227	100.1186809	-1.4610429	-19.52067906
0.11	11	-0.04	-1.003	0.174	-5.6722842	5.156622	-3.8961144	100.0556555	-1.432395	-19.46338326
0.12	12	-0.034	-0.997	0.17	-5.9014674	4.8128472	-4.4690724	99.99263016	-1.4037471	-19.41181704
0.13	13	-0.032	-0.993	0.167	-5.6722842	4.0680018	-4.9847346	99.93533436	-1.35791046	-19.36025082
0.14	14	-0.033	-0.992	0.167	-5.2712136	3.2085648	-5.3858052	99.87803856	-1.31207382	-19.32014376
0.15	15	-0.033	-0.993	0.167	-5.156622	3.0939732	-5.7868758	99.82074276	-1.26623718	-19.2800367
0.16	16	-0.034	-0.993	0.164	-5.3285094	3.0366774	-6.2452422	99.76344696	-1.20894138	-19.23992964
0.17	17	-0.035	-0.993	0.164	-5.0993262	2.9793816	-6.7036086	99.71188074	-1.15164558	-19.19982258
0.18	18	-0.037	-0.996	0.162	-4.9274388	3.3231564	-7.2765666	99.65458494	-1.0886202	-19.15398594
0.19	19	-0.038	-0.998	0.16	-4.6409598	4.0680018	-7.8495246	99.6087483	-1.01986524	-19.10241972
0.2	20	-0.038	-0.998	0.158	-4.6982556	5.0993262	-8.3651868	99.5514525	-0.95111028	-19.03939434
0.21	21	-0.033	-0.997	0.153	-4.870143	6.7609044	-8.8235532	99.49988628	-0.87662574	-18.95918022
0.22	22	-0.023	-0.993	0.143	-5.443101	8.4797784	-9.3392154	99.44259048	-0.8021412	-18.86177736
0.23	23	-0.011	-0.985	0.135	-6.4744254	9.7975818	-9.9121734	99.37383552	-0.72192708	-18.74718576
0.24	24	-0.005	-0.982	0.133	-7.5057498	10.886202	-10.1413566	99.2936214	-0.64171296	-18.62686458
0.25	25	-0.002	-0.985	0.134	-8.7662574	11.172681	-10.4278356	99.19621854	-0.56149884	-18.5065434
0.26	26	0.001	-0.989	0.138	-10.4851314	11.45916	-10.7143146	99.08735652	-0.47555514	-18.37476306
0.27	27	0.004	-0.99	0.137	-12.4904844	12.4331886	-10.886202	98.95557618	-0.39534102	-18.23725314
0.28	28	0.003	-0.991	0.137	-14.7823164	14.0947668	-10.886202	98.80087752	-0.3151269	-18.08828406
0.29	29	-0.004	-0.997	0.144	-15.9855282	15.3552744	-10.4851314	98.6347197	-0.24064236	-17.92212624
0.3	30	-0.012	-1.018	0.149	-16.1574156	15.5271618	-10.3705398	98.46856188	-0.16615782	-17.75596842
0.31	31	-0.004	-1.037	0.15	-15.6417534	16.7303736	-11.1153852	98.30813364	-0.0859437	-17.57835144
0.32	32	0.021	-1.041	0.154	-14.896908	18.2200644	-12.0894138	98.15343498	0	-17.3892753
0.33	33	0.053	-1.023	0.161	-14.7250206	18.3919518	-12.8342592	97.99873632	0.09167328	-17.18874
0.34	34	0.081	-0.99	0.158	-15.5271618	18.048177	-13.178034	97.83830808	0.18907614	-16.99966386
0.35	35	0.099	-0.951	0.164	-16.615782	17.2460358	-12.9488508	97.67215026	0.30366774	-16.8163173
0.36	36	0.105	-0.935	0.182	-17.7044022	15.9282324	-12.2040054	97.4888037	0.39534102	-16.65015948
0.37	37	0.105	-0.935	0.204	-18.6784308	14.0947668	-11.5164558	97.29972756	0.4870143	-16.49546082
0.38	38	0.096	-0.942	0.225	-18.621135	11.8602306	-11.0580894	97.11065142	0.57868758	-16.36941006
0.39	39	0.077	-0.952	0.239	-17.5898106	9.8548776	-10.9434978	96.92730486	0.67036086	-16.26054804
0.4	40	0.063	-0.963	0.256	-15.469866	9.5111028	-10.9434978	96.78979494	0.76776372	-16.16314518
0.41	41	0.05	-0.967	0.279	-12.6623718	9.9121734	-11.2872726	96.6580146	0.86516658	-16.05428316
0.42	42	0.042	-0.971	0.307	-9.8548776	10.4851314	-11.4018642	96.56061174	0.96256944	-15.93969156
0.43	43	0.028	-0.985	0.329	-8.59437	11.3445684	-10.5424272	96.46893846	1.04851314	-15.8136408
0.44	44	0.021	-0.992	0.325	-8.3651868	11.9748222	-8.3651868	96.38872434	1.1172681	-15.68759004
0.45	45	0.028	-0.998	0.312	-9.5111028	12.891555	-5.9587632	96.3142398	1.16310474	-15.56153928
0.46	46	0.043	-1.004	0.289	-11.1153852	13.750992	-4.1252976	96.20537778	1.18029348	-15.42402936
0.47	47	0.049	-1.012	0.27	-12.8342592	14.8396122	-2.9220858	96.07359744	1.19175264	-15.27506028
0.48	48	0.044	-1.018	0.257	-14.0947668	16.2147114	-2.2345362	95.93035794	1.19175264	-15.11463204
0.49	49	0.025	-1.022	0.238	-15.1260912	17.9335854	-1.718874	95.78138886	1.18602306	-14.93701506
0.5	50	-0.001	-1.015	0.225	-15.2979786	20.05353	-1.5469866	95.63814936	1.16883432	-14.74220934
0.51	51	-0.023	-1.002	0.227	-15.2979786	21.8869956	-1.8907614	95.4834507	1.16310474	-14.5244853
0.52	52	-0.034	-0.986	0.233	-15.5271618	22.8610242	-2.7501984	95.32302246	1.15737516	-14.30103168
0.53	53	-0.029	-0.978	0.214	-16.2720072	24.1788276	-3.437748	95.16259422	1.16310474	-14.06038932
0.54	54	-0.014	-0.969	0.193	-16.615782	25.2674478	-3.4950438	94.9964364	1.16883432	-13.81401738
0.55	55	0.009	-0.963	0.192	-16.6730778	25.4393352	-3.3231564	94.83600816	1.1745639	-13.56191586
0.56	56	0.032	-0.959	0.199	-16.5584862	24.6944898	-3.151269	94.66985034	1.1745639	-13.3212735
0.57	57	0.046	-0.955	0.188	-16.9595568	23.204799	-3.0939732	94.49796294	1.18029348	-13.0920903
0.58	58	0.05	-0.954	0.177	-16.7876694	21.7151082	-2.6356068	94.32607554	1.18602306	-12.87436626
0.59	59	0.041	-0.949	0.195	-15.9855282	20.2827132	-2.291832	94.1656473	1.18602306	-12.67383096
0.6	60	0.029	-0.939	0.216	-13.8082878	18.907614	-1.9480572	94.04532612	1.18602306	-12.4904844
0.61	61	0.024	-0.925	0.228	-11.3445684	17.18874	-1.3178034	93.93073452	1.18602306	-12.32432658
0.62	62	0.031	-0.911	0.239	-8.6516658	15.1260912	-0.572958	93.84479082	1.1745639	-12.1753575
0.63	63	0.035	-0.9	0.239	-6.3598338	12.318597	0	93.78176544	1.16310474	-12.05503632
0.64	64	0.042	-0.89	0.24	-4.9847346	9.5683986	0.4010706	93.73019922	1.15164558	-11.95763346
0.65	65	0.033	-0.874	0.266	-3.4950438	6.2452422	1.2032118	93.75884712	1.14018642	-11.90606724
0.66	66	0.023	-0.862	0.287	-1.0313244	3.6669312	1.8907614	93.75311754	1.1172681	-11.87168976
0.67	67	0.026	-0.862	0.28	0.859437	1.8907614	3.0939732	93.75884712	1.08289062	-11.85450102
0.68	68	0.038	-0.872	0.271	1.3750992	-0.286479	4.6409598	93.77603586	1.03705398	-11.8602306
0.69	69	0.045	-0.882	0.269	1.4896908	-2.8074942	5.7868758	93.78749502	0.98548776	-11.89460808
0.7	70	0.051	-0.885	0.273	1.7761698	-5.3858052	6.9327918	93.85624998	0.93392154	-11.96336304
0.71	71	0.056	-0.886	0.279	2.86479	-10.313244	7.6776372	93.88489788	0.87089616	-12.06649548
0.72	72	0.054	-0.894	0.278	4.4117766	-17.6471064	7.734933	93.93073452	0.80787078	-12.24411246
0.73	73	0.047	-0.907	0.281	6.9327918	-23.777757	7.5057498	93.99948948	0.75630456	-12.48475482
0.74	74	0.047	-0.929	0.283	9.2246238	-27.788463	6.9327918	94.09689234	0.7161975	-12.76550424
0.75	75	0.062	-0.965	0.267	10.599723	-31.8564648	6.1879464	94.21721352	0.69327918	-13.08636072
0.76	76	0.087	-1.016	0.24	10.599723	-35.3515086	5.3285094	94.32607554	0.67609044	-13.4358651
0.77	77	0.106	-1.066	0.204	9.5111028	-36.096354	4.6409598	94.4234784	0.67036086	-13.79109906
0.78	78	0.121	-1.097	0.176	8.6516658	-33.6899304	3.7815228	94.51515168	0.67036086	-14.1234147
0.79	79	0.137	-1.099	0.182	10.313244	-32.2002396	3.0939732	94.61828412	0.67036086	-14.44427118
0.8	80	0.165	-1.082	0.222	14.4385416	-32.2575354	2.1772404	94.77298278	0.69900876	-14.77085724
0.81	81	0.188	-1.064	0.286	19.2513888	-32.4294228	0.2291832	94.97351808	0.73338624	-15.08598414
0.82	82	0.191	-1.042	0.349	26.2987722	-32.658606	-2.1772404	95.23707876	0.79641162	-15.40111104
0.83	83	0.181	-1.049	0.413	36.1536498	-31.4553942	-4.4117766	95.60377188	0.88235532	-15.6990492
0.84	84	0.17	-1.094	0.468	45.3209778	-29.7365202	-5.6722842	96.06786786	0.97975818	-15.97979862
0.85	85	0.155	-1.145	0.508	51.2224452	-29.1635622	-4.6982556	96.59498922	1.07143146	-16.25481846
0.86	86	0.132	-1.175	0.511	51.3370368	-28.1322378	-2.86479	97.116381	1.145916	-16.52410872
0.87	87	0.085	-1.214	0.46	48.1857678	-28.3041252	-0.9167328	97.6033953	1.2032118	-16.79339898
0.88	88	-0.042	-1.327	0.29	37.5860448	-31.7418732	-1.0313244	97.98154758	1.26623718	-17.09706672
0.89	89	-0.177	-1.49	0.094	23.6058696	-27.7311672	-4.870143	98.21646036	1.36364004	-17.35489782
0.9	90	-0.235	-1.637	0.012	7.6776372	-23.204799	-8.1932994	98.2909449	1.47823164	-17.56689228
0.91	91	-0.18	-1.63	-0.038	6.1879464	-18.3919518	-7.5057498	98.35397028	1.58709366	-17.7330501
0.92	92	-0.023	-1.525	0.035	14.32395	-17.7044022	-1.8334656	98.49720978	1.6329303	-17.9049375
0.93	93	0.168	-1.342	0.044	10.5424272	-16.3865988	7.734933	98.60034222	1.58709366	-18.0768249
0.94	94	0.261	-1.191	-0.101	10.6570188	-21.772404	14.7250206	98.70920424	1.48396122	-18.3060081
0.95	95	0.253	-1.047	-0.141	9.2246238	-32.2002396	17.5898106	98.7779592	1.38655836	-18.65551248
0.96	96	0.197	-0.915	-0.072	4.8128472	-40.6227222	17.9908812	98.81806626	1.28342592	-19.07377182
0.97	97	0.123	-0.831	-0.059	-1.6042824	-49.0452048	17.475219	98.80087752	1.19748222	-19.57797486
0.98	98	0.047	-0.822	-0.049	-6.2452422	-56.6655462	17.5325148	98.73212256	1.12872726	-20.16239202
0.99	99	-0.017	-0.879	-0.02	-9.2819196	-61.0773228	17.8762896	98.6347197	1.0599723	-20.78118666
1	100	-0.071	-0.932	0.014	-10.9434978	-59.7595194	17.3606274	98.51439852	0.98548776	-21.38852214
1.01	101	-0.103	-0.949	0.028	-10.2559482	-54.0299394	15.8709366	98.4055365	0.92246238	-21.93856182
1.02	102	-0.132	-0.966	0.037	-7.8495246	-46.3523022	14.7823164	98.32532238	0.85370742	-22.41411696
1.03	103	-0.163	-0.962	0.055	-4.9274388	-35.5806918	14.037471	98.27375616	0.77922288	-22.78081008
1.04	104	-0.178	-0.934	0.091	-2.4064236	-23.7204612	13.464513	98.25083784	0.68182002	-23.0329116
1.05	105	-0.165	-0.917	0.104	-1.2032118	-12.4904844	13.464513	98.22791952	0.53858052	-23.16469194
1.06	106	-0.131	-0.919	0.106	-0.2291832	-4.1825934	14.4958374	98.22791952	0.4010706	-23.22771732
1.07	107	-0.09	-0.931	0.119	0.7448454	2.2345362	15.8136408	98.2336491	0.24064236	-23.22771732
1.08	108	-0.043	-0.924	0.113	1.0313244	6.1879464	16.615782	98.24510826	0.06875496	-23.18761026
1.09	109	-0.013	-0.929	0.112	2.2345362	6.875496	16.5584862	98.26802658	-0.10313244	-23.1475032
1.1	110	-0.005	-0.927	0.122	2.9793816	4.8128472	16.2147114	98.2909449	-0.26929026	-23.1188553
1.11	111	-0.006	-0.92	0.121	3.8961144	1.3178034	15.9282324	98.33105196	-0.4297185	-23.13031446
1.12	112	-0.015	-0.907	0.136	4.583664	-2.9220858	15.0114996	98.3768886	-0.56722842	-23.18188068
1.13	113	-0.04	-0.897	0.166	5.3285094	-5.9587632	13.6936962	98.4341844	-0.69327918	-23.2620948
1.14	114	-0.072	-0.896	0.182	5.5576926	-6.875496	12.5477802	98.4914802	-0.8021412	-23.34230892
1.15	115	-0.102	-0.893	0.179	4.870143	-6.589017	11.8029348	98.548776	-0.92819196	-23.41679346
1.16	116	-0.12	-0.884	0.185	4.6409598	-5.156622	10.886202	98.60034222	-1.02559482	-23.48554842
1.17	117	-0.118	-0.868	0.185	3.8961144	-2.8074942	9.7975818	98.64044928	-1.1172681	-23.52565548
1.18	118	-0.116	-0.864	0.181	3.0939732	-1.4896908	9.1100322	98.67482676	-1.20894138	-23.55430338
1.19	119	-0.109	-0.866	0.174	2.4064236	-0.2291832	8.7089616	98.69774508	-1.2891555	-23.57149212
1.2	120	-0.088	-0.86	0.174	1.7761698	0	8.307891	98.72639298	-1.39228794	-23.5772217
1.21	121	-0.07	-0.848	0.173	1.0886202	-0.859437	7.6203414	98.73785214	-1.46677248	-23.59441044
1.22	122	-0.066	-0.834	0.176	0.5156622	-3.2658606	6.6463128	98.74358172	-1.52406828	-23.64024708
1.23	123	-0.072	-0.82	0.204	-0.2291832	-5.2139178	5.156622	98.74358172	-1.56417534	-23.69754288
1.24	124	-0.084	-0.81	0.223	-1.432395	-5.9587632	3.2085648	98.73212256	-1.58709366	-23.76056826
1.25	125	-0.096	-0.808	0.232	-2.6929026	-6.1306506	1.3178034	98.73212256	-1.61001198	-23.81786406
1.26	126	-0.11	-0.813	0.232	-3.7815228	-4.9847346	-0.3437748	98.6920155	-1.59855282	-23.8637007
1.27	127	-0.122	-0.82	0.228	-5.3285094	-3.7815228	-1.7761698	98.64044928	-1.5756345	-23.90380776
1.28	128	-0.127	-0.823	0.226	-6.302538	-2.291832	-3.3231564	98.5774239	-1.53552744	-23.9209965
1.29	129	-0.133	-0.828	0.224	-7.0473834	-0.1145916	-5.156622	98.50293936	-1.48396122	-23.91526692
1.3	130	-0.136	-0.832	0.217	-7.161975	2.005353	-6.9900876	98.44564356	-1.44958374	-23.87515986
1.31	131	-0.139	-0.843	0.206	-6.5317212	4.1252976	-9.2819196	98.3768886	-1.36364004	-23.82359364
1.32	132	-0.141	-0.859	0.205	-4.6409598	7.3338624	-11.9175264	98.32532238	-1.2605076	-23.73192036
1.33	133	-0.143	-0.878	0.219	-1.0886202	12.2040054	-14.6677248	98.30813364	-1.13445684	-23.59441044
1.34	134	-0.147	-0.892	0.246	2.8074942	17.0168526	-16.2720072	98.33105196	-1.0026765	-23.4053343
1.35	135	-0.138	-0.92	0.245	6.7609044	21.8296998	-17.475219	98.4055365	-0.88235532	-23.15896236
1.36	136	-0.121	-0.962	0.21	8.7662574	26.4133638	-17.7044022	98.48575062	-0.75630456	-22.87248336
1.37	137	-0.123	-0.991	0.207	10.886202	29.1062664	-16.902261	98.58888306	-0.63598338	-22.56308604
1.38	138	-0.138	-1.006	0.261	15.5844576	31.3980984	-15.6417534	98.73785214	-0.53858052	-22.2307704
1.39	139	-0.171	-1.017	0.31	21.0275586	33.0023808	-14.1520626	98.94411702	-0.4583664	-21.8869956
1.4	140	-0.208	-1.055	0.339	26.9863218	34.0337052	-11.0007936	99.21913686	-0.42398892	-21.53176164
1.41	141	-0.218	-1.134	0.326	30.7105488	34.2628884	-4.9274388	99.5228046	-0.43544808	-21.18798684
1.42	142	-0.192	-1.163	0.332	33.2888598	30.8251404	0.9167328	99.85512024	-0.50420304	-20.8843191
1.43	143	-0.136	-1.168	0.353	39.7632852	26.2987722	4.4117766	100.2504613	-0.59587632	-20.63221758
1.44	144	-0.077	-1.165	0.387	42.9145542	19.9962342	4.9274388	100.6801798	-0.68182002	-20.44314144
1.45	145	-0.036	-1.189	0.445	47.1544434	14.610429	4.010706	101.1671941	-0.75057498	-20.30563152
1.46	146	0.01	-1.27	0.434	45.3209778	14.4385416	2.1199446	101.6198309	-0.8021412	-20.16239202
1.47	147	0.06	-1.412	0.274	38.6173692	16.4438946	2.1772404	102.0094423	-0.859437	-20.00196378
1.48	148	0.126	-1.547	0.174	29.6219286	19.0222056	5.6722842	102.3073805	-0.95683986	-19.83007638
1.49	149	0.231	-1.723	0.02	19.8243468	16.1001198	14.610429	102.5021862	-1.13445684	-19.70402562
1.5	150	0.29	-1.891	-0.096	18.7930224	-1.718874	25.8977016	102.6912623	-1.38082878	-19.77278058
1.51	151	0.191	-1.802	-0.158	28.5333084	-11.0580894	31.1689152	102.9892005	-1.65584862	-19.94466798
1.52	152	-0.04	-1.397	-0.061	31.1116194	-2.86479	25.9549974	103.310057	-1.89649098	-20.03061168
1.53	153	-0.215	-1.06	0.029	26.2987722	4.6409598	13.5791046	103.5736177	-2.03973048	-20.01342294
1.54	154	-0.289	-0.832	0.092	18.2200644	9.9694692	1.5469866	103.7569642	-2.07983754	-19.92174966
1.55	155	-0.364	-0.695	0.153	10.2559482	20.912967	-6.0733548	103.8486375	-2.11421502	-19.69256646
1.56	156	-0.372	-0.666	0.206	6.016059	36.0390582	-9.1100322	103.8887446	-2.1199446	-19.32587334
1.57	157	-0.274	-0.691	0.184	1.145916	47.3263308	-8.3651868	103.8772854	-2.16578124	-18.8503182
1.58	158	-0.121	-0.732	0.114	-4.010706	52.4829528	-6.5317212	103.8085304	-2.24026578	-18.334656
1.59	159	0.048	-0.812	0.05	-7.9068204	50.133825	-3.9534102	103.705398	-2.33193906	-17.8476417
1.6	160	0.19	-0.905	-0.026	-13.9228794	38.0444112	0.3437748	103.5105923	-2.40069402	-17.49813732
1.61	161	0.271	-0.966	-0.108	-21.772404	21.8869956	5.7868758	103.2814091	-2.51528562	-17.3033316
1.62	162	0.305	-0.989	-0.159	-25.5539268	4.7555514	10.026765	103.0178484	-2.62414764	-17.28614286
1.63	163	0.315	-0.993	-0.166	-23.4339822	-11.9175264	12.4331886	102.7886652	-2.71582092	-17.42938236
1.64	164	0.244	-0.969	-0.136	-18.4492476	-30.8824362	12.7769634	102.6225074	-2.76738714	-17.75596842
1.65	165	0.086	-0.928	-0.046	-11.745639	-45.3209778	9.3965112	102.5079158	-2.74446882	-18.21433482
1.66	166	-0.051	-0.905	0.052	-5.0993262	-48.8733174	2.6929026	102.4849975	-2.65279554	-18.68988996
1.67	167	-0.133	-0.923	0.139	1.9480572	-46.3523022	-4.9274388	102.5308341	-2.4923673	-19.12533804
1.68	168	-0.16	-0.96	0.192	6.6463128	-38.7892566	-11.172681	102.6167778	-2.291832	-19.46911284
1.69	169	-0.148	-0.996	0.215	8.6516658	-29.1635622	-14.1520626	102.7199102	-2.07983754	-19.72121436
1.7	170	-0.095	-0.999	0.236	8.9954406	-21.2567418	-13.9801752	102.8173131	-1.89649098	-19.88737218
1.71	171	-0.033	-0.962	0.254	8.880849	-15.5844576	-11.745639	102.914716	-1.7475219	-20.01342294
1.72	172	0.003	-0.906	0.248	8.9954406	-11.5737516	-9.3392154	103.0121188	-1.62720072	-20.09936664
1.73	173	0.023	-0.85	0.236	8.7662574	-9.7975818	-7.8495246	103.1037921	-1.52406828	-20.17385118
1.74	174	0.029	-0.821	0.235	7.2765666	-11.0007936	-7.7922288	103.1782766	-1.42093584	-20.25979488
1.75	175	0.034	-0.818	0.232	5.3285094	-13.6364004	-8.0787078	103.241302	-1.29488508	-20.37438648
1.76	176	0.043	-0.835	0.23	3.7815228	-15.9282324	-8.307891	103.2871387	-1.1745639	-20.50616682
1.77	177	0.052	-0.855	0.247	2.3491278	-18.7930224	-8.0787078	103.3157866	-1.04851314	-20.67232464
1.78	178	0.047	-0.864	0.261	1.718874	-22.345362	-7.161975	103.3387049	-0.92246238	-20.86713036
1.79	179	0.026	-0.873	0.251	1.432395	-23.2620948	-5.8441716	103.3616232	-0.80787078	-21.07339524
1.8	180	0.007	-0.872	0.248	0.572958	-20.8556712	-4.297185	103.3788119	-0.70473834	-21.26820096
1.81	181	-0.007	-0.857	0.269	-0.6875496	-17.6471064	-2.4637194	103.3730824	-0.63598338	-21.4286292
1.82	182	-0.003	-0.839	0.291	-1.9480572	-15.5271618	-0.9167328	103.3558936	-0.59014674	-21.57759828
1.83	183	0.012	-0.825	0.301	-2.86479	-14.3812458	0.6302538	103.3329753	-0.56149884	-21.7151082
1.84	184	0.032	-0.822	0.293	-3.437748	-13.6364004	2.1772404	103.2985978	-0.5443101	-21.85261812
1.85	185	0.048	-0.831	0.282	-4.010706	-13.8082878	3.9534102	103.2756795	-0.53285094	-21.99585762
1.86	186	0.059	-0.842	0.276	-4.3544808	-14.7250206	6.1879464	103.2355724	-0.55576926	-22.15055628
1.87	187	0.066	-0.854	0.253	-3.6669312	-14.7250206	8.7089616	103.201195	-0.6016059	-22.3167141
1.88	188	0.074	-0.863	0.218	-2.1772404	-14.037471	11.0007936	103.1840062	-0.67609044	-22.47714234
1.89	189	0.091	-0.86	0.199	0.1145916	-14.7250206	12.891555	103.1897358	-0.76203414	-22.64330016
1.9	190	0.089	-0.842	0.228	3.5523396	-18.048177	13.5218088	103.2355724	-0.8307891	-22.85529462
1.91	191	0.073	-0.829	0.293	9.6829902	-23.6631654	13.750992	103.3387049	-0.90527364	-23.11312572
1.92	192	0.037	-0.854	0.329	16.7303736	-30.939732	14.2093584	103.5220514	-0.96256944	-23.43971178
1.93	193	-0.01	-0.894	0.356	22.8037284	-36.2109456	15.183387	103.7626938	-1.01413566	-23.81786406
1.94	194	-0.069	-0.944	0.397	27.6738714	-38.1590028	14.5531332	104.060632	-1.04851314	-24.21320508
1.95	195	-0.103	-0.985	0.427	30.5959572	-34.7785506	11.6883432	104.3929476	-1.07716104	-24.56843904
1.96	196	-0.134	-1.02	0.437	33.1742682	-23.8350528	7.1046792	104.7367224	-1.07716104	-24.80335182
1.97	197	-0.198	-1.079	0.466	35.4088044	-11.9748222	2.8074942	105.0976859	-1.07143146	-24.923673
1.98	198	-0.217	-1.148	0.479	32.085648	-5.2139178	0.9167328	105.424272	-1.0599723	-24.96950964
1.99	199	-0.261	-1.252	0.462	23.4339822	-7.3911582	0.572958	105.6649144	-1.04278356	-25.0382646
2	200	-0.29	-1.423	0.283	19.1367972	-7.3338624	-2.6929026	105.8597201	-1.0026765	-25.0955604
2.01	201	-0.194	-1.558	0.137	2.4064236	7.161975	-8.307891	105.8826384	-0.9453807	-25.00388712
2.02	202	-0.115	-1.529	0.127	-1.9480572	2.0626488	-10.313244	105.8597201	-0.85370742	-24.95805048
2.03	203	-0.115	-1.672	0.113	11.5737516	-16.3865988	-18.621135	105.9800413	-0.62452422	-25.06118292
2.04	204	-0.033	-1.789	-0.029	5.0993262	-7.5057498	-34.3201842	106.0316075	-0.27501984	-25.03253502
2.05	205	0.144	-1.679	-0.068	10.0840608	-8.9954406	-33.518043	106.1290103	0.07448454	-25.02680544
2.06	206	0.291	-1.457	-0.068	13.2926256	-26.8717302	-22.058883	106.2665203	0.36669312	-25.21588158
2.07	207	0.345	-1.146	-0.035	6.5317212	-42.685371	-12.9488508	106.3352752	0.61879464	-25.5825747
2.08	208	0.336	-0.891	0.057	0.2291832	-52.3683612	-8.7662574	106.3352752	0.859437	-26.04667068
2.09	209	0.304	-0.744	0.13	-4.7555514	-60.733548	-7.448454	106.2894386	1.1172681	-26.59671036
2.1	210	0.238	-0.723	0.183	-8.0787078	-64.2285918	-8.4224826	106.1977653	1.4037471	-27.1868571
2.11	211	0.105	-0.77	0.176	-11.9175264	-60.2178858	-7.9641162	106.0717145	1.6615782	-27.7311672
2.12	212	-0.029	-0.879	0.175	-11.0580894	-52.3683612	-4.5263682	105.9513934	1.8621135	-28.21245192
2.13	213	-0.122	-0.931	0.185	-7.9641162	-41.4248634	-0.1145916	105.8597201	1.98816426	-28.60779294
2.14	214	-0.172	-0.897	0.175	-5.0420304	-29.507337	2.2345362	105.8024243	2.05118964	-28.89427194
2.15	215	-0.196	-0.844	0.165	-2.86479	-17.4179232	3.3804522	105.7451285	2.01108258	-29.0489706
2.16	216	-0.204	-0.827	0.108	-2.291832	-6.4171296	3.6096354	105.7222102	1.99389384	-29.12345514
2.17	217	-0.204	-0.834	0.057	-2.6356068	2.9793816	2.9793816	105.6935623	1.95378678	-29.10053682
2.18	218	-0.194	-0.86	0.055	-4.010706	12.7769634	1.0886202	105.6534552	1.90795014	-28.98594522
2.19	219	-0.164	-0.93	0.02	-7.1046792	22.6891368	-1.718874	105.5904298	1.85638392	-28.7624916
2.2	220	-0.126	-1.027	0.014	-9.0527364	28.2468294	-2.9220858	105.4586495	1.78189938	-28.48747176
2.21	221	-0.088	-1.097	0.029	-9.5683986	29.3927454	-0.8021412	105.3669762	1.70741484	-28.20672234
2.22	222	-0.037	-1.104	0.04	-8.021412	26.6998428	2.6356068	105.2924917	1.6042824	-27.96607998
2.23	223	0.014	-1.071	0.062	-5.2712136	21.1421502	5.443101	105.2409254	1.4896908	-27.77700384
2.24	224	0.065	-1.021	0.089	-2.9220858	13.5791046	7.6776372	105.2122775	1.3750992	-27.66814182
2.25	225	0.092	-0.983	0.109	-1.2605076	4.583664	7.7922288	105.1034155	1.34072172	-27.66814182
2.26	226	0.084	-0.949	0.154	-0.8021412	-2.8074942	7.0473834	105.0919564	1.28342592	-27.71397846
2.27	227	0.04	-0.93	0.191	-2.005353	-8.59437	6.4171296	105.069038	1.24331886	-27.81138132
2.28	228	-0.014	-0.928	0.184	-4.4690724	-13.2353298	6.0733548	105.0232014	1.22613012	-27.95462082
2.29	229	-0.064	-0.939	0.184	-5.9587632	-14.2666542	5.6149884	104.960176	1.20894138	-28.1035899
2.3	230	-0.096	-0.945	0.19	-6.4171296	-11.2872726	4.8128472	104.8742323	1.15737516	-28.21245192
2.31	231	-0.11	-0.947	0.204	-6.589017	-6.8182002	3.7815228	104.8054774	1.14018642	-28.28693646
2.32	232	-0.115	-0.944	0.206	-6.6463128	-2.2345362	2.8074942	104.7367224	1.1172681	-28.31558436
2.33	233	-0.114	-0.934	0.211	-6.4744254	2.2345362	1.8907614	104.673697	1.09434978	-28.3041252
2.34	234	-0.109	-0.923	0.208	-6.3598338	6.1306506	0.859437	104.6049421	1.06570188	-28.2468294
2.35	235	-0.102	-0.907	0.199	-6.5317212	9.453807	-0.1718874	104.5247279	1.0026765	-28.14942654
2.36	236	-0.095	-0.88	0.211	-5.8441716	12.5477802	-1.5469866	104.4674321	0.98548776	-28.02337578
2.37	237	-0.095	-0.846	0.197	-5.0420304	14.3812458	-2.8074942	104.4158659	0.9740286	-27.88013628
2.38	238	-0.098	-0.816	0.178	-3.2658606	14.3812458	-3.9534102	104.3814884	0.96829902	-27.73689678
2.39	239	-0.089	-0.796	0.179	0.4583664	15.2406828	-5.5576926	104.387218	0.98548776	-27.57646854
2.4	240	-0.063	-0.781	0.192	4.1825934	15.8709366	-7.5630456	104.4273251	1.0026765	-27.40458114
2.41	241	-0.033	-0.783	0.208	7.3911582	15.8709366	-9.740286	104.5075392	1.05424272	-27.22696416
2.42	242	-0.013	-0.782	0.181	9.7975818	15.0114996	-11.45916	104.6049421	1.12299768	-27.05507676
2.43	243	-0.017	-0.77	0.19	14.32395	15.9282324	-12.6623718	104.7539111	1.2032118	-26.86600062
2.44	244	-0.037	-0.765	0.187	19.9389384	19.1367972	-13.5218088	104.960176	1.27769634	-26.64827658
2.45	245	-0.053	-0.759	0.196	23.8923486	18.7930224	-13.5791046	105.2008184	1.35218088	-26.43055254
2.46	246	-0.043	-0.757	0.23	26.5852512	16.3865988	-13.178034	105.4758382	1.432395	-26.23574682
2.47	247	-0.007	-0.794	0.22	27.2728008	15.469866	-13.2353298	105.7508581	1.51260912	-26.04667068
2.48	248	0.058	-0.889	0.203	24.9809688	17.3033316	-12.8342592	106.0086892	1.58709366	-25.84613538
2.49	249	0.14	-1.074	0.205	18.8503182	20.2827132	-11.3445684	106.2034949	1.6329303	-25.62268176
2.5	250	0.191	-1.34	0.086	11.9748222	18.1054728	-5.9587632	106.3180865	1.63865988	-25.43360562
2.51	251	0.1	-1.655	-0.033	14.4958374	11.1153852	4.6982556	106.461326	1.56417534	-25.34193234
2.52	252	-0.018	-1.729	0.028	16.3865988	24.064236	9.9694692	106.6332134	1.39228794	-25.14139704
2.53	253	-0.215	-1.517	0.169	16.2147114	44.8626114	7.6776372	106.7993712	1.18029348	-24.74032644
2.54	254	-0.359	-1.269	0.258	11.5164558	61.879464	4.8128472	106.9196924	0.93965112	-24.17309802
2.55	255	-0.332	-1.143	0.282	7.6203414	78.495246	1.8907614	106.9941769	0.6589017	-23.4339822
2.56	256	-0.194	-1.146	0.217	2.578311	87.8917572	-0.5156622	107.0170952	0.38961144	-22.60892268
2.57	257	-0.028	-1.232	0.123	-1.3178034	85.3134462	-1.9480572	106.9941769	0.13750992	-21.80678148
2.58	258	0.111	-1.264	0.095	-5.7868758	77.34933	-2.3491278	106.925422	-0.07448454	-21.07339524
2.59	259	0.192	-1.229	0.123	-5.9587632	66.8641986	-3.7815228	106.8509374	-0.25210152	-20.43741186
2.6	260	0.216	-1.145	0.142	-6.9327918	55.290447	-6.7036086	106.7535346	-0.33804522	-19.90456092
2.61	261	0.219	-1.073	0.157	-7.5630456	43.0291458	-8.7662574	106.6675909	-0.38961144	-19.47484242
2.62	262	0.22	-1.011	0.16	-8.4797784	32.6013102	-10.6570188	106.5759176	-0.38961144	-19.14252678
2.63	263	0.201	-0.96	0.155	-9.2819196	24.4080108	-11.8602306	106.4785147	-0.34950438	-18.8789661
2.64	264	0.16	-0.927	0.157	-9.2246238	15.9855282	-12.4331886	106.3811119	-0.28074942	-18.69561954
2.65	265	0.124	-0.91	0.163	-8.4224826	9.8548776	-13.0061466	106.2665203	-0.16042824	-18.56956878
2.66	266	0.105	-0.901	0.172	-7.5630456	5.7868758	-13.750992	106.1863061	-0.04583664	-18.4778955
2.67	267	0.104	-0.888	0.182	-7.1046792	1.2605076	-14.6677248	106.1175512	0.08021412	-18.42632928
2.68	268	0.113	-0.878	0.185	-6.9900876	-4.9274388	-15.469866	106.0430666	0.24637194	-18.43205886
2.69	269	0.124	-0.868	0.176	-7.734933	-10.8289062	-15.5844576	105.9685821	0.42398892	-18.49508424
2.7	270	0.129	-0.861	0.165	-8.7089616	-13.4072172	-15.5844576	105.8654497	0.63598338	-18.58102794
2.71	271	0.139	-0.871	0.155	-10.313244	-14.7823164	-15.756345	105.7623172	0.8307891	-18.6784308
2.72	272	0.127	-0.881	0.14	-12.0894138	-14.5531332	-15.1260912	105.6362665	1.01986524	-18.78156324
2.73	273	0.112	-0.892	0.144	-12.891555	-13.6936962	-13.8655836	105.5044861	1.19175264	-18.87323652
2.74	274	0.102	-0.893	0.155	-13.0634424	-12.891555	-12.2613012	105.3727058	1.3464513	-18.9649098
2.75	275	0.102	-0.895	0.152	-12.5477802	-12.2613012	-10.2559482	105.2237367	1.49542038	-19.05658308
2.76	276	0.11	-0.9	0.156	-11.5164558	-11.3445684	-8.307891	105.1034155	1.61001198	-19.14825636
2.77	277	0.11	-0.904	0.171	-10.8289062	-10.5424272	-6.9327918	104.9945535	1.70168526	-19.22847048
2.78	278	0.098	-0.911	0.18	-10.1986524	-9.1100322	-6.1306506	104.8914211	1.78762896	-19.30295502
2.79	279	0.092	-0.92	0.172	-9.9121734	-7.0473834	-5.156622	104.7882886	1.85638392	-19.35452124
2.8	280	0.082	-0.917	0.162	-9.7975818	-5.2712136	-3.6669312	104.6565083	1.92513888	-19.40608746
2.81	281	0.073	-0.911	0.176	-10.1413566	-4.1825934	-2.1772404	104.5533758	1.95951636	-19.44046494
2.82	282	0.067	-0.93	0.184	-10.886202	-3.3804522	-1.4896908	104.4387842	1.98243468	-19.46911284
2.83	283	0.067	-0.966	0.167	-11.9175264	-1.6042824	-0.5156622	104.3184631	1.98816426	-19.48630158
2.84	284	0.075	-1.017	0.153	-13.464513	0.572958	0.4010706	104.1809531	1.98243468	-19.480572
2.85	285	0.074	-1.067	0.113	-16.329303	1.8334656	1.8334656	103.9689587	1.97097552	-19.47484242
2.86	286	0.043	-1.099	0.048	-17.6471064	2.1199446	2.9220858	103.7856121	1.93659804	-19.46338326
2.87	287	0.022	-1.136	0.042	-12.8342592	5.156622	2.4637194	103.6595614	1.89649098	-19.4232762
2.88	288	0.021	-1.16	0.1	-9.3392154	10.026765	0.572958	103.5621585	1.8621135	-19.32587334
2.89	289	0.007	-1.099	0.138	-9.167328	9.2819196	0.3437748	103.4704852	1.8334656	-19.23992964
2.9	290	0.01	-0.998	0.133	-8.021412	5.3858052	2.5210152	103.3387049	1.79335854	-19.194093
2.91	291	0.038	-0.943	0.153	-4.2398892	1.0886202	4.4117766	103.2928682	1.7475219	-19.194093
2.92	292	0.054	-0.971	0.188	-2.2345362	-3.8388186	4.583664	103.2699499	1.71314442	-19.24565922
2.93	293	0.065	-1.001	0.222	-3.2658606	-7.161975	3.2658606	103.2355724	1.70168526	-19.32014376
2.94	294	0.078	-1.004	0.237	-3.8388186	-8.880849	2.1199446	103.1954654	1.70168526	-19.41181704
2.95	295	0.081	-0.993	0.218	-4.2398892	-10.2559482	1.8907614	103.13244	1.73033316	-19.52067906
2.96	296	0.067	-0.981	0.197	-4.6982556	-11.45916	2.578311	103.0808738	1.73606274	-19.63527066
2.97	297	0.046	-0.977	0.199	-5.2712136	-12.2040054	3.4950438	103.0293076	1.73033316	-19.76132142
2.98	298	0.027	-0.975	0.2	-6.0733548	-11.6883432	3.8961144	102.9662822	1.72460358	-19.8816426
2.99	299	0.021	-0.979	0.196	-7.2765666	-10.0840608	3.0366774	102.8860681	1.718874	-19.99050462
3	300	0.023	-0.982	0.184	-9.1100322	-7.9641162	1.9480572	102.7657469	1.718874	-20.07071874
3.01	301	0.029	-0.979	0.161	-10.6570188	-5.8441716	1.3178034	102.6568849	1.718874	-20.13374412
3.02	302	0.037	-0.975	0.142	-11.2299768	-4.583664	1.0313244	102.5422933	1.718874	-20.17958076
3.03	303	0.033	-0.975	0.141	-11.172681	-3.6669312	0.5156622	102.4277017	1.72460358	-20.21968782
3.04	304	0.024	-0.973	0.155	-11.2299768	-3.2658606	0.1718874	102.3131101	1.72460358	-20.2540653
3.05	305	0.02	-0.97	0.158	-11.172681	-2.2345362	-0.1145916	102.164141	1.73033316	-20.27125404
3.06	306	0.021	-0.964	0.158	-11.172681	-0.8021412	-0.572958	102.0495494	1.73606274	-20.2827132
3.07	307	0.02	-0.962	0.156	-11.0580894	0.0572958	-0.9740286	101.9349578	1.7475219	-20.2827132
3.08	308	0.023	-0.964	0.149	-10.1413566	-0.0572958	-1.0886202	101.8318253	1.75898106	-20.2827132
3.09	309	0.029	-0.97	0.155	-9.2246238	0	-0.7448454	101.7401521	1.76471064	-20.27698362
3.1	310	0.033	-0.973	0.166	-8.7089616	-0.1718874	-0.1145916	101.6141013	1.7761698	-20.2827132
3.11	311	0.036	-0.969	0.179	-7.8495246	-0.6875496	0.5156622	101.5338872	1.77044022	-20.29417236
3.12	312	0.036	-0.971	0.176	-7.0473834	-1.3178034	0.859437	101.4651322	1.76471064	-20.3113611
3.13	313	0.034	-0.973	0.172	-6.5317212	-2.2345362	1.3178034	101.3963773	1.75325148	-20.33427942
3.14	314	0.031	-0.977	0.175	-6.1306506	-3.151269	1.7761698	101.3333519	1.74179232	-20.3686569
3.15	315	0.029	-0.984	0.179	-5.8441716	-4.010706	2.291832	101.2531378	1.73033316	-20.41449354
3.16	316	0.028	-0.988	0.187	-5.5576926	-4.6409598	2.6929026	101.195842	1.71314442	-20.46605976
3.17	317	0.03	-0.993	0.188	-5.5003968	-4.4690724	2.9220858	101.1385462	1.69595568	-20.51762598
3.18	318	0.031	-0.996	0.187	-5.6149884	-4.010706	2.7501984	101.0812504	1.67876694	-20.55773304
3.19	319	0.03	-0.994	0.19	-5.9014674	-3.7815228	2.5210152	101.018225	1.6615782	-20.60356968
3.2	320	0.028	-0.992	0.191	-6.016059	-3.3231564	2.291832	100.9437404	1.65011904	-20.64367674
3.21	321	0.025	-0.99	0.191	-6.1879464	-2.8074942	1.9480572	100.8807151	1.6329303	-20.67232464
3.22	322	0.026	-0.986	0.193	-6.5317212	-2.6356068	1.7761698	100.8119601	1.62147114	-20.70097254
3.23	323	0.028	-0.98	0.201	-6.875496	-2.86479	1.5469866	100.7432051	1.61001198	-20.73535002
3.24	324	0.028	-0.979	0.207	-7.2765666	-3.437748	1.6042824	100.6687206	1.6042824	-20.7697275
3.25	325	0.029	-0.978	0.208	-7.6776372	-4.297185	1.718874	100.5885065	1.59855282	-20.82129372
3.26	326	0.029	-0.98	0.202	-8.307891	-4.9274388	1.718874	100.5082924	1.59282324	-20.87285994
3.27	327	0.026	-0.981	0.201	-9.2246238	-5.5003968	1.9480572	100.4108895	1.58136408	-20.93015574
3.28	328	0.022	-0.982	0.203	-10.0840608	-6.2452422	2.3491278	100.3077571	1.5756345	-20.9989107
3.29	329	0.025	-0.981	0.201	-11.172681	-6.6463128	2.6356068	100.1931655	1.55844576	-21.06766566
3.3	330	0.025	-0.98	0.194	-12.1467096	-7.2192708	2.8074942	100.0671147	1.5469866	-21.1421502
3.31	331	0.022	-0.98	0.188	-12.3758928	-8.021412	2.86479	99.94106394	1.53552744	-21.2280939
3.32	332	0.015	-0.98	0.193	-12.9488508	-9.1100322	2.9220858	99.8092836	1.52406828	-21.32549676
3.33	333	0.013	-0.978	0.201	-13.9228794	-9.3392154	2.9220858	99.6660441	1.51260912	-21.42289962
3.34	334	0.009	-0.976	0.201	-14.5531332	-9.5683986	2.9793816	99.51707502	1.50114996	-21.52030248
3.35	335	0.007	-0.976	0.198	-15.0687954	-9.453807	3.0939732	99.36237636	1.48396122	-21.61770534
3.36	336	0.005	-0.976	0.201	-15.5844576	-9.5683986	3.151269	99.2076777	1.46677248	-21.72083778
3.37	337	0.008	-0.975	0.206	-16.2147114	-9.167328	3.151269	99.04151988	1.45531332	-21.81824064
3.38	338	0.014	-0.973	0.203	-16.902261	-8.5370742	3.0366774	98.8639029	1.43812458	-21.90418434
3.39	339	0.021	-0.974	0.2	-17.5325148	-8.2505952	3.151269	98.68628592	1.42093584	-21.99585762
3.4	340	0.025	-0.971	0.204	-18.621135	-8.1360036	3.4950438	98.50293936	1.39801752	-22.08180132
3.41	341	0.026	-0.968	0.205	-18.907614	-8.6516658	3.8388186	98.31386322	1.3750992	-22.1734746
3.42	342	0.028	-0.965	0.205	-19.7097552	-8.9954406	4.1825934	98.11332792	1.3464513	-22.27087746
3.43	343	0.026	-0.964	0.199	-20.3973048	-9.5683986	4.3544808	97.90133346	1.3178034	-22.3740099
3.44	344	0.02	-0.963	0.195	-21.2567418	-10.1413566	4.4117766	97.68360942	1.2891555	-22.48287192
3.45	345	0.008	-0.959	0.196	-22.058883	-10.0840608	4.4117766	97.47161496	1.2605076	-22.58600436
3.46	346	-0.001	-0.956	0.196	-22.8610242	-9.6256944	4.4117766	97.23670218	1.2318597	-22.6891368
3.47	347	-0.009	-0.952	0.201	-23.2620948	-9.2246238	4.4117766	97.0017894	1.19748222	-22.79226924
3.48	348	-0.01	-0.949	0.207	-24.6944898	-8.8235532	4.4117766	96.74968788	1.16883432	-22.88394252
3.49	349	0	-0.95	0.215	-25.78311	-8.5370742	4.4690724	96.4861272	1.13445684	-22.9756158
3.5	350	0.009	-0.95	0.218	-26.8144344	-8.5370742	4.4690724	96.23402568	1.10007936	-23.06728908
3.51	351	0.01	-0.949	0.209	-27.788463	-8.307891	4.4117766	95.94754668	1.0599723	-23.15896236
3.52	352	0.009	-0.945	0.205	-28.361421	-8.1932994	4.6982556	95.66106768	1.02559482	-23.25063564
3.53	353	0.012	-0.94	0.201	-29.1062664	-8.1360036	4.9274388	95.36312952	0.98548776	-23.33657934
3.54	354	0.01	-0.932	0.196	-29.9657034	-8.307891	4.9847346	95.05946178	0.93965112	-23.42825262
3.55	355	0.004	-0.921	0.191	-30.653253	-8.6516658	4.9847346	94.76152362	0.89954406	-23.5199259
3.56	356	0	-0.907	0.185	-31.6272816	-9.3965112	4.7555514	94.44066714	0.859437	-23.62305834
3.57	357	-0.008	-0.897	0.173	-32.372127	-9.740286	4.4690724	94.11408108	0.81932994	-23.72619078
3.58	358	-0.016	-0.884	0.173	-33.2888598	-9.8548776	4.010706	93.77603586	0.79068204	-23.82932322
3.59	359	-0.022	-0.872	0.175	-34.4347758	-9.0527364	3.2658606	93.42653148	0.76203414	-23.9209965
3.6	360	-0.027	-0.857	0.181	-35.2942128	-7.6203414	2.1772404	93.08848626	0.73911582	-24.00121062
3.61	361	-0.029	-0.846	0.194	-35.809875	-5.5003968	1.0313244	92.72179314	0.72765666	-24.064236
3.62	362	-0.032	-0.842	0.2	-36.2682414	-2.9793816	0.2291832	92.35510002	0.72765666	-24.09861348
3.63	363	-0.026	-0.84	0.193	-37.0703826	0	-0.1145916	91.97694774	0.72192708	-24.09861348
3.64	364	-0.011	-0.837	0.184	-38.961144	3.6096354	-0.1718874	91.58160672	0.72192708	-24.06996558
3.65	365	0.002	-0.835	0.173	-40.6227222	4.6409598	0	91.19199528	0.7161975	-24.02985852
3.66	366	0.009	-0.833	0.167	-42.0551172	3.2658606	0.3437748	90.76227678	0.70473834	-24.00121062
3.67	367	0.008	-0.834	0.164	-43.0291458	0.9740286	0.4583664	90.3268287	0.69900876	-23.99548104
3.68	368	0.004	-0.84	0.158	-43.7166954	-1.3178034	0.4010706	89.87992146	0.6875496	-24.01266978
3.69	369	-0.006	-0.845	0.157	-44.5761324	-3.6669312	0.1145916	89.42728464	0.6875496	-24.05277684
3.7	370	-0.012	-0.842	0.172	-46.0085274	-5.6722842	-0.3437748	88.98610698	0.68182002	-24.11580222
3.71	371	-0.016	-0.84	0.19	-46.6387812	-7.1046792	-0.7448454	88.51055184	0.6875496	-24.19028676
3.72	372	-0.022	-0.842	0.209	-46.9252602	-7.9068204	-1.0886202	88.0349967	0.69327918	-24.27623046
3.73	373	-0.014	-0.846	0.227	-47.4409224	-6.589017	-0.9740286	87.55371198	0.69900876	-24.34498542
3.74	374	0	-0.852	0.237	-48.414951	-4.4690724	-0.572958	87.0609681	0.69900876	-24.39655164
3.75	375	0.02	-0.856	0.234	-50.0192334	-2.6356068	0.1718874	86.59114254	0.69900876	-24.43092912
3.76	376	0.042	-0.855	0.224	-52.1964738	-2.005353	1.3750992	86.0582916	0.67609044	-24.45384744
3.77	377	0.047	-0.85	0.206	-54.43101	-2.86479	2.7501984	85.50825192	0.64171296	-24.48822492
3.78	378	0.044	-0.842	0.185	-57.009321	-4.010706	4.010706	84.92956434	0.59587632	-24.52833198
3.79	379	0.038	-0.825	0.16	-59.6449278	-5.156622	4.870143	84.32222886	0.53858052	-24.58562778
3.8	380	0.023	-0.798	0.139	-63.02538	-7.1046792	5.6149884	83.70343422	0.47555514	-24.65438274
3.81	381	0.004	-0.759	0.132	-66.176649	-7.448454	5.7868758	83.03307336	0.4010706	-24.72886728
3.82	382	-0.004	-0.726	0.137	-68.3538894	-6.1306506	5.3858052	82.33979418	0.33804522	-24.79189266
3.83	383	-0.01	-0.7	0.146	-69.900876	-4.7555514	4.9847346	81.62932626	0.27501984	-24.8377293
3.84	384	-0.016	-0.681	0.155	-71.333271	-3.8961144	5.2139178	80.90739918	0.21199446	-24.87783636
3.85	385	-0.016	-0.665	0.159	-72.2500038	-3.4950438	5.9014674	80.19120168	0.1432395	-24.90648426
3.86	386	-0.013	-0.655	0.174	-72.8229618	-3.2085648	7.1046792	79.45208586	0.0572958	-24.93513216
3.87	387	0	-0.638	0.198	-72.9948492	-3.8388186	8.2505952	78.71297004	-0.0286479	-24.96378006
3.88	388	0.013	-0.632	0.201	-72.5364828	-6.1879464	9.3965112	77.9795838	-0.13750992	-25.01534628
3.89	389	0.026	-0.636	0.193	-73.2813282	-8.021412	9.8548776	77.2347384	-0.2578311	-25.07837166
3.9	390	0.036	-0.647	0.175	-76.0315266	-9.5683986	10.1986524	76.489893	-0.37815228	-25.1528562
3.91	391	0.044	-0.656	0.153	-80.3860074	-10.7143146	10.8289062	75.67629264	-0.5156622	-25.2387999
3.92	392	0.052	-0.665	0.145	-85.8864042	-12.318597	11.8029348	74.80539648	-0.66463128	-25.33620276
3.93	393	0.065	-0.67	0.143	-91.386801	-13.8655836	13.2926256	73.8829341	-0.83651868	-25.44506478
3.94	394	0.075	-0.655	0.138	-96.4288314	-16.329303	14.896908	72.90317592	-1.0313244	-25.56538596
3.95	395	0.09	-0.633	0.132	-100.554129	-20.2254174	16.3865988	71.906229	-1.24904844	-25.72008462
3.96	396	0.096	-0.611	0.116	-104.7940182	-27.0436176	19.2513888	70.85198628	-1.5183387	-25.9263495
3.97	397	0.094	-0.599	0.079	-109.2057948	-32.6013102	21.4286292	69.7576365	-1.8334656	-26.16699186
3.98	398	0.078	-0.582	0.044	-116.023995	-36.382833	23.2620948	68.59453176	-2.18296998	-26.43628212
3.99	399	0.049	-0.555	0.013	-123.472449	-38.2162986	24.8663772	67.35694248	-2.55539268	-26.71130196
4	400	0.02	-0.505	-0.015	-129.774987	-36.2682414	25.8404058	66.06778698	-2.93927454	-26.95194432
4.01	401	0.017	-0.461	-0.054	-134.7597216	-33.4034514	26.7571386	64.7156061	-3.32888598	-27.1582092
4.02	402	0.03	-0.405	-0.099	-140.5465974	-33.231564	28.5333084	63.30612942	-3.73568616	-27.34155576
4.03	403	0.061	-0.342	-0.105	-143.0676126	-36.955791	30.1948866	61.87373442	-4.17686382	-27.54209106
4.04	404	0.078	-0.346	-0.157	-152.2922364	-34.5493674	29.4500412	60.34393656	-4.6123119	-27.71397846
4.05	405	0.087	-0.319	-0.16	-167.303736	-17.3033316	27.215505	58.65371046	-4.94462754	-27.74262636
4.06	406	0.062	-0.257	-0.039	-176.184585	-19.3086846	29.220858	56.87181108	-5.31132066	-27.7598151
4.07	407	0.032	-0.217	0.025	-163.5222132	-39.7632852	33.3461556	55.2331512	-5.8155237	-27.91451376
4.08	408	0.067	-0.269	0.086	-155.6153928	-57.2385042	37.4141574	53.6861646	-6.45723666	-28.17807444
4.09	409	0.075	-0.219	0.161	-166.0432284	-69.2133264	42.2270046	52.0532343	-7.21354122	-28.49320134
4.1	410	0.072	-0.154	0.099	-164.8400166	-79.641162	44.8053156	50.4489519	-8.0500599	-28.85416488
4.11	411	0.071	-0.086	0.101	-164.8973124	-90.0689976	47.2117392	48.8446695	-8.98971102	-29.25523548
4.12	412	0.042	-0.052	0.046	-157.9645206	-99.981171	50.0765292	47.33206038	-10.02103542	-29.69068356
4.13	413	-0.062	-0.054	0.09	-154.2402936	-108.5182452	54.7747848	45.85955832	-11.15549226	-30.12613164
4.14	414	-0.16	-0.047	0.245	-149.0263758	-115.1072622	61.9940556	44.44435206	-12.39308154	-30.5386614
4.15	415	-0.099	-0.019	0.502	-145.9324026	-109.3203864	69.4425096	43.0577937	-13.65358914	-30.81941082
4.16	416	0.159	0.075	0.498	-149.255559	-105.3096804	75.6877518	41.60248038	-14.93701506	-30.9970278
4.17	417	0.181	0.109	0.334	-161.6314518	-112.9300218	83.9956428	40.01538672	-16.329303	-31.12880814
4.18	418	-0.292	-0.351	-0.494	-222.594183	-103.1897358	99.694692	37.73501388	-17.75596842	-31.01994612
4.19	419	-1.67	-0.919	-2.132	-360.104103	4.3544808	110.6381898	33.78733326	-18.41487012	-30.06310626
4.2	420	-3.949	-1.182	-3.016	-446.5634652	168.3350604	79.354683	28.72238454	-17.49240774	-28.41298722
4.21	421	-3.994	-0.381	-3.948	-488.2748076	274.3322904	105.137793	23.07874824	-15.60164634	-26.12115522
4.22	422	-1.399	1.794	-3.996	-341.769447	298.2819348	95.9131692	19.04512392	-13.27543686	-24.02412894
4.23	423	0.226	3.913	-3.996	-204.3741186	217.2083778	49.1025006	16.68453696	-11.42478252	-22.80945798
4.24	424	1.395	3.763	-3.996	-99.2363256	124.9621398	24.6944898	15.54435054	-10.33043274	-22.17920418
4.25	425	-0.507	2.475	-3.996	-47.0971476	69.1560306	-21.4286292	15.05160666	-9.6256944	-22.18493376
4.26	426	-1.969	0.592	-3.463	-23.0902074	65.317212	-19.767051	14.8109643	-8.96106312	-22.19066334
4.27	427	-1.958	-0.27	-1.132	-4.6982556	17.4179232	10.5424272	14.73647976	-8.8235532	-22.04169426
4.28	428	-1.785	-0.792	-0.714	-5.6722842	48.9306132	8.1932994	14.6390769	-8.37664596	-21.82397022
4.29	429	-1.764	-1.188	-0.438	7.2765666	95.9131692	-6.589017	14.67345438	-7.448454	-21.61770534
4.3	430	-0.797	0.087	-0.825	-12.7769634	117.5136858	-21.3140376	14.4671895	-6.302538	-21.49165458
4.31	431	0.001	1.019	-0.63	12.4904844	116.310474	-30.8824362	14.57605152	-5.11651494	-21.46873626
4.32	432	0.34	1.179	-0.516	23.491278	116.8261362	-46.8106686	14.8109643	-3.88465524	-21.59478702
4.33	433	0.558	0.873	-0.257	26.8144344	116.9980236	-60.6762522	15.08025456	-2.61841806	-21.84688854
4.34	434	0.55	0.382	-0.085	21.8296998	123.8162238	-64.457775	15.29224902	-1.27196676	-22.1161788
4.35	435	0.595	-0.195	0.081	21.8869956	127.9988172	-54.3164184	15.51570264	0.1145916	-22.27087746
4.36	436	0.66	-0.714	-0.044	23.8350528	113.3310924	-35.8671708	15.73915626	1.28342592	-22.28233662
4.37	437	0.627	-0.637	-0.193	13.178034	89.094969	-25.1528562	15.86520702	2.19442914	-22.26514788
4.38	438	0.559	-0.23	-0.361	13.1207382	72.7083702	-20.2254174	15.9855282	2.93927454	-22.24222956
4.39	439	0.447	0.024	-0.479	12.318597	66.176649	-18.2773602	16.10584938	3.61536498	-22.21358166
4.4	440	0.363	0.108	-0.608	9.6829902	67.1506776	-16.8449652	16.16887476	4.3258329	-22.18493376
4.41	441	0.407	0.01	-0.749	7.8495246	71.5051584	-13.0634424	16.24908888	5.03630082	-22.09326048
4.42	442	0.561	-0.171	-0.878	7.448454	71.333271	-6.6463128	16.329303	5.72385042	-21.93856182
4.43	443	0.597	-0.339	-0.977	5.72958	63.7129296	0.6875496	16.39805796	6.32545632	-21.73802652
4.44	444	0.519	-0.361	-1.008	2.005353	51.1078536	5.3285094	16.43816502	6.7895523	-21.52603206
4.45	445	0.455	-0.326	-1.068	2.7501984	39.3049188	6.7609044	16.47827208	7.16770458	-21.34841508
4.46	446	0.366	-0.275	-1.138	5.0993262	28.7624916	6.875496	16.54702704	7.4198061	-21.19371642
4.47	447	0.328	-0.245	-1.17	6.9900876	21.2567418	5.3285094	16.63297074	7.60315266	-21.07339524
4.48	448	0.356	-0.258	-1.2	6.1306506	14.32395	4.3544808	16.7017257	7.72920342	-20.98745154
4.49	449	0.384	-0.279	-1.181	5.2712136	8.4224826	5.2139178	16.76475108	7.7922288	-20.912967
4.5	450	0.397	-0.298	-1.102	4.7555514	1.2605076	6.302538	16.81058772	7.84379502	-20.86140078
4.51	451	0.388	-0.311	-1.015	2.3491278	-6.2452422	5.156622	16.83923562	7.77504006	-20.83275288
4.52	452	0.363	-0.308	-0.969	-1.5469866	-10.4278356	2.4064236	16.82777646	7.66617804	-20.83848246
4.53	453	0.358	-0.282	-0.943	-3.8388186	-11.2872726	0.7448454	16.78193982	7.55731602	-20.86713036
4.54	454	0.342	-0.258	-0.94	-5.9587632	-13.2353298	0.5156622	16.71891444	7.43126526	-20.90150784
4.55	455	0.319	-0.246	-0.949	-8.2505952	-16.615782	1.9480572	16.615782	7.31667366	-20.94734448
4.56	456	0.236	-0.228	-0.96	-10.3705398	-22.0015872	4.4117766	16.50691998	7.09894962	-20.97599238
4.57	457	0.14	-0.213	-0.97	-13.178034	-27.6165756	6.1879464	16.37513964	6.8182002	-20.9989107
4.58	458	0.058	-0.186	-0.957	-14.2666542	-28.8770832	6.3598338	16.23190014	6.52599162	-21.0275586
4.59	459	-0.013	-0.173	-0.911	-11.172681	-29.220858	5.8441716	16.11730854	6.23378304	-21.0562065
4.6	460	-0.084	-0.163	-0.95	-10.313244	-26.8717302	2.5210152	15.97979862	5.91292656	-21.10777272
4.61	461	-0.105	-0.166	-0.943	-11.6310474	-22.0015872	0.7448454	15.85374786	5.70666168	-21.16506852
4.62	462	-0.079	-0.169	-0.962	-11.4018642	-18.9649098	0.4010706	15.73915626	5.52331512	-21.21663474
4.63	463	-0.063	-0.194	-0.953	-9.740286	-18.6784308	-0.1145916	15.63602382	5.34569814	-21.27393054
4.64	464	-0.036	-0.237	-0.959	-10.4851314	-16.3865988	-1.2032118	15.5271618	5.19099948	-21.33122634
4.65	465	-0.029	-0.264	-0.96	-12.318597	-12.1467096	-2.291832	15.38965188	5.03630082	-21.38279256
4.66	466	-0.029	-0.265	-0.981	-13.2926256	-7.448454	-3.437748	15.25214196	4.97327544	-21.43435878
4.67	467	-0.015	-0.249	-1.027	-15.469866	-0.8021412	-5.0993262	15.09171372	4.97900502	-21.485925
4.68	468	0.03	-0.221	-1.038	-15.1260912	6.4744254	-6.7036086	14.93128548	5.05348956	-21.53176164
4.69	469	-0.012	-0.21	-0.927	-11.8602306	1.2605076	-7.8495246	14.80523472	5.08786704	-21.6005166
4.7	470	0.02	-0.215	-0.839	-11.6310474	5.443101	-9.9694692	14.66199522	5.14516284	-21.68073072
4.71	471	0.044	-0.224	-0.845	-12.032118	1.145916	-7.9641162	14.53594446	5.17381074	-21.75521526
4.72	472	0.059	-0.216	-0.792	-11.8602306	-2.9220858	-4.297185	14.4098937	5.156622	-21.8010519
4.73	473	0.057	-0.209	-0.876	-13.1207382	-3.9534102	-0.572958	14.27811336	5.11651494	-21.81824064
4.74	474	0.011	-0.198	-0.948	-13.5791046	-7.6203414	2.0626488	14.14060344	5.03630082	-21.81824064
4.75	475	-0.046	-0.183	-1.005	-13.8082878	-10.9434978	2.5210152	13.96871604	4.87587258	-21.81824064
4.76	476	-0.097	-0.179	-1.021	-12.0894138	-9.9694692	1.8907614	13.84839486	4.77274014	-21.82397022
4.77	477	-0.105	-0.181	-1.042	-11.172681	-5.2139178	1.432395	13.73380326	4.72117392	-21.82397022
4.78	478	-0.061	-0.167	-1.068	-9.3392154	-0.9167328	0.4583664	13.64212998	4.70971476	-21.81824064
4.79	479	-0.008	-0.156	-1.039	-5.9014674	2.5210152	-0.7448454	13.5791046	4.73263308	-21.81824064
4.8	480	0.031	-0.152	-1.017	-4.1825934	6.2452422	-2.005353	13.464513	4.76701056	-21.82397022
4.81	481	0.067	-0.154	-1.001	-2.9220858	9.6256944	-3.2658606	13.4358651	4.86441342	-21.8296998
4.82	482	0.101	-0.145	-0.987	-1.3178034	12.0894138	-4.0680018	13.41867636	4.99046418	-21.83542938
4.83	483	0.159	-0.133	-0.965	1.0886202	12.891555	-4.0680018	13.43013552	5.12224452	-21.84115896
4.84	484	0.188	-0.121	-0.955	1.6042824	10.313244	-3.3231564	13.44159468	5.23110654	-21.84688854
4.85	485	0.202	-0.121	-0.949	1.5469866	7.9068204	-2.3491278	13.35565098	5.40872352	-21.87553644
4.86	486	0.19	-0.131	-0.945	0.6302538	7.1046792	-1.5469866	13.36138056	5.47747848	-21.87553644
4.87	487	0.163	-0.137	-0.959	0.2291832	5.6722842	-0.1718874	13.36711014	5.53477428	-21.86407728
4.88	488	0.143	-0.14	-0.989	-0.4583664	4.297185	1.2605076	13.36138056	5.56915176	-21.84115896
4.89	489	0.128	-0.141	-1.004	-1.4896908	4.583664	2.2345362	13.3499214	5.60925882	-21.80678148
4.9	490	0.107	-0.128	-1.003	-1.3750992	4.010706	2.6929026	13.18376358	5.62644756	-21.77813358
4.91	491	0.075	-0.122	-1.004	-1.4896908	2.4637194	2.9220858	13.17230442	5.6436363	-21.7437561
4.92	492	0.054	-0.118	-0.998	-2.578311	1.5469866	2.4064236	13.1493861	5.65509546	-21.7151082
4.93	493	0.047	-0.117	-0.979	-2.1199446	2.3491278	1.7761698	13.12646778	5.6722842	-21.69218988
4.94	494	0.05	-0.124	-0.966	-1.9480572	3.7815228	1.0313244	13.10927904	5.70666168	-21.66927156
4.95	495	0.072	-0.129	-0.963	-1.7761698	5.443101	0.4010706	12.96603954	5.73530958	-21.6578124
4.96	496	0.1	-0.131	-0.952	-0.4583664	6.302538	0.1718874	12.96603954	5.79260538	-21.64062366
4.97	497	0.128	-0.135	-0.937	0.572958	6.3598338	0.0572958	12.97176912	5.85563076	-21.62343492
4.98	498	0.146	-0.139	-0.942	1.0886202	5.7868758	-0.1145916	12.98322828	5.91292656	-21.61197576
4.99	499	0.155	-0.145	-0.951	1.6042824	4.7555514	-0.2291832	13.00041702	5.9587632	-21.60624618
5	500	0.156	-0.152	-0.966	1.718874	3.4950438	-0.286479	12.85717752	6.06762522	-21.62343492
5.01	501	0.148	-0.161	-0.981	1.7761698	2.9220858	-0.286479	12.87436626	6.1020027	-21.62343492
5.02	502	0.134	-0.168	-0.989	1.718874	2.7501984	-0.3437748	12.89728458	6.12492102	-21.61770534
5.03	503	0.118	-0.175	-0.994	1.6615782	2.7501984	-0.5156622	12.90874374	6.15356892	-21.61770534
5.04	504	0.109	-0.18	-0.996	1.3750992	3.0366774	-0.3437748	12.92593248	6.1879464	-21.61197576
5.05	505	0.101	-0.185	-0.996	1.145916	3.3804522	0	12.82852962	6.1879464	-21.61197576
5.06	506	0.097	-0.178	-0.99	1.0886202	3.2085648	0.4583664	12.83998878	6.2165943	-21.59478702
5.07	507	0.089	-0.168	-0.988	1.4896908	1.7761698	0.6302538	12.85717752	6.23378304	-21.58905744
5.08	508	0.077	-0.166	-0.99	1.145916	1.145916	0.8021412	12.86863668	6.2452422	-21.57759828
5.09	509	0.062	-0.166	-0.983	0.859437	0.9167328	0.859437	12.88009584	6.25097178	-21.56613912
5.1	510	0.05	-0.163	-0.971	1.0313244	0.6875496	0.9167328	12.6337239	6.03324774	-21.53749122
5.11	511	0.044	-0.16	-0.964	1.145916	0.4583664	0.7448454	12.64518306	6.03897732	-21.53176164
5.12	512	0.054	-0.157	-0.957	1.3750992	0.4583664	0.572958	12.6623718	6.03897732	-21.52603206
5.13	513	0.066	-0.152	-0.964	1.3178034	0.9740286	0.4010706	12.67956054	6.05043648	-21.5145729
5.14	514	0.073	-0.152	-0.972	0.859437	2.1199446	0.1718874	12.68529012	6.06762522	-21.50884332
5.15	515	0.081	-0.152	-0.971	0.4583664	3.3804522	0	12.50767314	6.03897732	-21.50884332
5.16	516	0.092	-0.15	-0.976	0.572958	3.6669312	-0.2291832	12.51340272	6.07908438	-21.50311374
5.17	517	0.105	-0.15	-0.98	0.8021412	3.7815228	-0.2291832	12.52486188	6.11346186	-21.49165458
5.18	518	0.119	-0.15	-0.98	0.8021412	3.7815228	-0.1145916	12.53059146	6.15356892	-21.485925
5.19	519	0.127	-0.145	-0.978	1.0313244	3.4950438	0	12.54205062	6.1879464	-21.48019542
5.2	520	0.128	-0.144	-0.978	1.5469866	2.86479	0	12.37016322	6.23951262	-21.49165458
5.21	521	0.13	-0.149	-0.979	1.2032118	2.3491278	0	12.38735196	6.26243094	-21.485925
5.22	522	0.129	-0.155	-0.975	0.8021412	2.578311	-0.1145916	12.39308154	6.29107884	-21.48019542
5.23	523	0.13	-0.154	-0.975	1.4896908	2.578311	-0.1718874	12.41027028	6.31399716	-21.48019542
5.24	524	0.13	-0.155	-0.982	1.6042824	2.6356068	-0.1718874	12.42745902	6.34264506	-21.47446584
5.25	525	0.126	-0.152	-0.974	1.432395	2.7501984	-0.0572958	12.27276036	6.38275212	-21.485925
5.26	526	0.123	-0.149	-0.97	1.3750992	2.6929026	0	12.28421952	6.41140002	-21.48019542
5.27	527	0.121	-0.149	-0.969	1.2605076	2.4637194	0	12.29567868	6.43431834	-21.47446584
5.28	528	0.118	-0.151	-0.96	1.432395	1.8907614	0	12.31286742	6.45723666	-21.46873626
5.29	529	0.113	-0.155	-0.959	1.432395	1.5469866	-0.0572958	12.33005616	6.46869582	-21.46873626
5.3	530	0.108	-0.158	-0.964	1.0886202	1.8907614	0	12.1467096	6.46869582	-21.47446584
5.31	531	0.107	-0.155	-0.966	0.9740286	2.2345362	0.1718874	12.15816876	6.48588456	-21.46873626
5.32	532	0.106	-0.152	-0.971	1.145916	1.8334656	0.1718874	12.16962792	6.5030733	-21.46300668
5.33	533	0.105	-0.155	-0.976	1.2605076	1.6615782	0.1718874	12.18108708	6.52026204	-21.4572771
5.34	534	0.104	-0.16	-0.982	1.2605076	1.9480572	0.1145916	12.19254624	6.53745078	-21.45154752
5.35	535	0.107	-0.161	-0.983	1.3178034	2.005353	0	12.04930674	6.5317212	-21.4572771
5.36	536	0.11	-0.163	-0.984	1.7761698	2.1199446	-0.1145916	12.06649548	6.54890994	-21.45154752
5.37	537	0.11	-0.162	-0.979	2.0626488	2.2345362	-0.4010706	12.08368422	6.57182826	-21.45154752
5.38	538	0.108	-0.159	-0.972	2.005353	1.6615782	-0.3437748	12.10660254	6.589017	-21.45154752
5.39	539	0.106	-0.157	-0.965	2.0626488	0.9167328	-0.2291832	12.12952086	6.60047616	-21.45154752
5.4	540	0.108	-0.159	-0.967	1.8334656	0.6302538	-0.1718874	11.94044472	6.57182826	-21.46873626
5.41	541	0.111	-0.165	-0.965	0.9740286	0.859437	-0.1718874	11.95190388	6.58328742	-21.46873626
5.42	542	0.111	-0.163	-0.964	0.9740286	0.5156622	-0.0572958	11.96336304	6.589017	-21.46873626
5.43	543	0.111	-0.16	-0.969	1.0886202	0.4583664	-0.0572958	11.9748222	6.59474658	-21.46873626
5.44	544	0.113	-0.16	-0.976	0.9740286	0.8021412	-0.1718874	11.98055178	6.60047616	-21.46873626
5.45	545	0.116	-0.163	-0.98	0.7448454	1.0886202	-0.2291832	11.745639	6.59474658	-21.485925
5.46	546	0.119	-0.162	-0.975	0.572958	1.2032118	-0.2291832	11.75136858	6.60620574	-21.485925
5.47	547	0.12	-0.155	-0.965	1.0313244	0.6302538	-0.0572958	11.76282774	6.6176649	-21.485925
5.48	548	0.121	-0.156	-0.968	1.3750992	0.2291832	-0.1145916	11.78001648	6.6176649	-21.49165458
5.49	549	0.12	-0.16	-0.972	1.2032118	1.145916	-0.2291832	11.79147564	6.62912406	-21.49165458
5.5	550	0.12	-0.16	-0.976	1.0313244	2.005353	-0.3437748	11.6596953	6.6463128	-21.50311374
5.51	551	0.12	-0.161	-0.979	0.9167328	2.1772404	-0.3437748	11.67115446	6.66923112	-21.49738416
5.52	552	0.121	-0.16	-0.974	0.8021412	1.7761698	-0.1718874	11.68261362	6.68641986	-21.49738416
5.53	553	0.118	-0.159	-0.968	0.7448454	1.2605076	0	11.6883432	6.69787902	-21.49738416
5.54	554	0.117	-0.158	-0.966	0.6302538	1.0886202	0.2291832	11.69407278	6.70933818	-21.49165458
5.55	555	0.115	-0.155	-0.967	0.6302538	0.8021412	0.2291832	11.4018642	6.68641986	-21.50884332
5.56	556	0.116	-0.154	-0.973	0.6875496	0.859437	0.1145916	11.41332336	6.69787902	-21.50884332
5.57	557	0.115	-0.154	-0.974	0.859437	1.2032118	0.1145916	11.41905294	6.70933818	-21.50311374
5.58	558	0.115	-0.156	-0.974	0.9740286	1.2605076	0	11.4305121	6.72079734	-21.49738416
5.59	559	0.115	-0.16	-0.974	0.9167328	1.0886202	0	11.44197126	6.7322565	-21.49738416
5.6	560	0.115	-0.161	-0.968	0.9167328	1.2032118	0	11.25289512	6.71506776	-21.50884332
5.61	561	0.117	-0.162	-0.966	0.859437	1.2032118	0	11.26435428	6.72652692	-21.50884332
5.62	562	0.121	-0.162	-0.968	0.5156622	1.6615782	-0.1145916	11.27008386	6.74371566	-21.50311374
5.63	563	0.124	-0.155	-0.97	0.5156622	1.8907614	-0.1718874	11.27581344	6.76663398	-21.50311374
5.64	564	0.122	-0.157	-0.971	0.8021412	1.4896908	-0.286479	11.28154302	6.77809314	-21.50311374
5.65	565	0.121	-0.161	-0.976	0.6302538	1.6042824	-0.3437748	11.13830352	6.78382272	-21.5145729
5.66	566	0.121	-0.161	-0.971	0.859437	1.432395	-0.1718874	11.14976268	6.80101146	-21.5145729
5.67	567	0.121	-0.16	-0.972	0.9740286	0.9740286	-0.0572958	11.15549226	6.81247062	-21.5145729
5.68	568	0.119	-0.16	-0.972	1.2032118	0.8021412	-0.0572958	11.172681	6.8182002	-21.5145729
5.69	569	0.115	-0.159	-0.973	1.432395	0.572958	-0.1145916	11.18414016	6.82392978	-21.5145729
5.7	570	0.118	-0.161	-0.974	1.432395	0.5156622	-0.286479	11.04090066	6.81247062	-21.53176164
5.71	571	0.124	-0.163	-0.97	1.432395	0.2291832	-0.286479	11.0580894	6.8182002	-21.53176164
5.72	572	0.122	-0.162	-0.966	1.0886202	-0.0572958	-0.1718874	11.06954856	6.8182002	-21.53749122
5.73	573	0.118	-0.162	-0.968	0.859437	0.0572958	-0.1145916	11.07527814	6.8182002	-21.53749122
5.74	574	0.119	-0.161	-0.968	0.9167328	0.3437748	-0.2291832	11.0867373	6.82392978	-21.53749122
5.75	575	0.123	-0.16	-0.97	1.145916	0.4010706	-0.286479	10.92057948	6.82392978	-21.55467996
5.76	576	0.128	-0.162	-0.973	1.0886202	0.572958	-0.286479	10.93203864	6.82965936	-21.56040954
5.77	577	0.129	-0.164	-0.971	0.7448454	0.5156622	-0.0572958	10.9434978	6.83538894	-21.56040954
5.78	578	0.128	-0.164	-0.971	0.572958	0.286479	0.1145916	10.94922738	6.84111852	-21.55467996
5.79	579	0.125	-0.161	-0.967	0.5156622	0.286479	0	10.95495696	6.84111852	-21.55467996
5.8	580	0.119	-0.159	-0.969	0.859437	0.1145916	0	10.66274838	6.79528188	-21.57759828
5.81	581	0.118	-0.16	-0.974	1.0313244	0.0572958	-0.1145916	10.67420754	6.79528188	-21.58332786
5.82	582	0.121	-0.164	-0.975	0.6302538	0.4583664	-0.1145916	10.67993712	6.80101146	-21.58332786
5.83	583	0.117	-0.161	-0.973	0.4010706	0.4010706	-0.0572958	10.6856667	6.80674104	-21.58332786
5.84	584	0.114	-0.157	-0.97	0.5156622	0.3437748	-0.0572958	10.69139628	6.81247062	-21.58332786
5.85	585	0.115	-0.156	-0.969	0.5156622	0.4583664	0	10.41637644	6.77236356	-21.6005166
5.86	586	0.116	-0.155	-0.967	0.4010706	0.6302538	0	10.42210602	6.77809314	-21.6005166
5.87	587	0.119	-0.155	-0.966	0.2291832	0.859437	0.0572958	10.42210602	6.7895523	-21.6005166
5.88	588	0.122	-0.155	-0.963	0.1145916	1.145916	0.1718874	10.4278356	6.80101146	-21.59478702
5.89	589	0.126	-0.157	-0.965	0.0572958	1.6615782	0.1718874	10.4278356	6.8182002	-21.58905744
5.9	590	0.128	-0.158	-0.965	-0.1145916	2.1199446	0	10.30178484	6.84111852	-21.59478702
5.91	591	0.125	-0.16	-0.962	-0.0572958	1.8907614	-0.0572958	10.30178484	6.85830726	-21.59478702
5.92	592	0.127	-0.162	-0.961	-0.286479	1.6615782	-0.0572958	10.29605526	6.875496	-21.58905744
5.93	593	0.127	-0.161	-0.962	-0.1145916	1.3178034	-0.1718874	10.29605526	6.89268474	-21.58905744
5.94	594	0.126	-0.162	-0.965	-0.0572958	1.0886202	-0.0572958	10.29605526	6.9041439	-21.58905744
5.95	595	0.127	-0.164	-0.966	-0.1145916	1.0886202	0	10.13562702	6.91560306	-21.6005166
5.96	596	0.126	-0.163	-0.971	0	1.2605076	-0.0572958	10.1413566	6.92706222	-21.6005166
5.97	597	0.125	-0.165	-0.974	0.1145916	1.432395	-0.1718874	10.1413566	6.94425096	-21.6005166
5.98	598	0.123	-0.164	-0.973	0.1145916	1.2605076	-0.2291832	10.1413566	6.95571012	-21.6005166
5.99	599	0.124	-0.165	-0.975	0.0572958	1.145916	-0.3437748	10.1413566	6.96716928	-21.6005166
6	600	0.123	-0.163	-0.972	-0.0572958	1.145916	-0.4010706	10.01530584	6.9614397	-21.61197576
6.01	601	0.124	-0.161	-0.968	0.0572958	0.859437	-0.4010706	10.01530584	6.97289886	-21.61770534
6.02	602	0.125	-0.157	-0.969	0.1718874	0.8021412	-0.4010706	10.02103542	6.97862844	-21.61770534
6.03	603	0.128	-0.158	-0.972	0.2291832	1.0313244	-0.4010706	10.02103542	6.9900876	-21.62343492
6.04	604	0.128	-0.159	-0.973	0	1.432395	-0.572958	10.02103542	7.00727634	-21.62343492
6.05	605	0.128	-0.16	-0.972	0.1718874	1.2032118	-0.5156622	9.9121734	7.02446508	-21.64062366
6.06	606	0.129	-0.161	-0.972	0	1.0313244	-0.5156622	9.9121734	7.03592424	-21.64062366
6.07	607	0.129	-0.16	-0.972	-0.3437748	0.8021412	-0.5156622	9.90644382	7.04165382	-21.64635324
6.08	608	0.127	-0.156	-0.97	-0.1718874	0.572958	-0.4583664	9.90644382	7.0473834	-21.64635324
6.09	609	0.128	-0.156	-0.972	0	0.4583664	-0.4010706	9.90644382	7.05311298	-21.65208282
6.1	610	0.127	-0.155	-0.973	0	0.4583664	-0.286479	9.6543423	7.05311298	-21.68073072
6.11	611	0.129	-0.155	-0.973	0.1718874	0.1718874	-0.2291832	9.6543423	7.05884256	-21.68073072
6.12	612	0.13	-0.158	-0.972	0.286479	0	-0.1145916	9.66007188	7.05884256	-21.68073072
6.13	613	0.128	-0.159	-0.971	0.5156622	0	-0.0572958	9.66580146	7.05884256	-21.68073072
6.14	614	0.126	-0.159	-0.969	0.5156622	0	-0.1145916	9.67153104	7.05884256	-21.6864603
6.15	615	0.127	-0.159	-0.97	0.4583664	0	-0.1718874	9.48818448	7.0473834	-21.70364904
6.16	616	0.127	-0.16	-0.97	0.5156622	-0.1145916	-0.1718874	9.49391406	7.0473834	-21.70937862
6.17	617	0.129	-0.159	-0.97	0.572958	-0.1718874	-0.1145916	9.49964364	7.0473834	-21.70937862
6.18	618	0.129	-0.158	-0.97	0.5156622	-0.4010706	-0.1145916	9.50537322	7.04165382	-21.7151082
6.19	619	0.129	-0.159	-0.973	0.5156622	-0.6302538	-0.1718874	9.5111028	7.03592424	-21.7151082
6.2	620	0.132	-0.158	-0.978	0.1718874	-0.7448454	-0.3437748	9.40224078	7.0473834	-21.73229694
6.21	621	0.134	-0.157	-0.98	-0.0572958	-1.7761698	-0.3437748	9.40224078	7.03019466	-21.73802652
6.22	622	0.13	-0.158	-0.969	-0.2291832	-3.3231564	-0.286479	9.3965112	7.00154676	-21.74948568
6.23	623	0.128	-0.158	-0.97	-0.5156622	-4.2398892	-0.2291832	9.39078162	6.9614397	-21.76094484
6.24	624	0.13	-0.158	-0.973	-0.8021412	-4.6982556	-0.2291832	9.37932246	6.91560306	-21.772404
6.25	625	0.13	-0.157	-0.972	-0.4583664	-4.870143	-0.3437748	9.35067456	6.86976642	-21.78959274
6.26	626	0.13	-0.158	-0.976	-0.286479	-4.5263682	-0.3437748	9.35067456	6.82392978	-21.8010519
6.27	627	0.124	-0.158	-0.978	-0.1145916	-4.0680018	-0.286479	9.34494498	6.78382272	-21.81251106
6.28	628	0.12	-0.156	-0.975	0	-4.010706	-0.4010706	9.34494498	6.74944524	-21.82397022
6.29	629	0.114	-0.158	-0.972	0.286479	-4.0680018	-0.4583664	9.34494498	6.70933818	-21.83542938
6.3	630	0.109	-0.159	-0.971	0.4583664	-4.010706	-0.572958	9.32775624	6.65204238	-21.84688854
6.31	631	0.105	-0.159	-0.967	0.4583664	-3.4950438	-0.7448454	9.33348582	6.62339448	-21.86407728
6.32	632	0.11	-0.157	-0.963	0.5156622	-2.4637194	-0.9167328	9.33348582	6.60047616	-21.87553644
6.33	633	0.115	-0.153	-0.963	0.4583664	-1.3178034	-0.9740286	9.3392154	6.589017	-21.8869956
6.34	634	0.117	-0.15	-0.965	0.4010706	-0.6302538	-1.0313244	9.34494498	6.58328742	-21.90418434
6.35	635	0.119	-0.154	-0.971	0.2291832	-0.0572958	-0.859437	9.23608296	6.589017	-21.92137308
6.36	636	0.125	-0.157	-0.971	0.2291832	0.1145916	-0.9167328	9.24181254	6.59474658	-21.92710266
6.37	637	0.127	-0.159	-0.972	0.5156622	0	-0.7448454	9.24181254	6.59474658	-21.93856182
6.38	638	0.127	-0.164	-0.975	0.4583664	-0.4010706	-0.4583664	9.24754212	6.589017	-21.9442914
6.39	639	0.124	-0.163	-0.972	0.4583664	-0.7448454	-0.286479	9.2532717	6.58328742	-21.95002098
6.4	640	0.124	-0.159	-0.972	0.4010706	-0.572958	-0.286479	9.11576178	6.60047616	-21.96720972
6.41	641	0.124	-0.155	-0.973	0.3437748	-0.286479	-0.4010706	9.11576178	6.60047616	-21.9729393
6.42	642	0.124	-0.154	-0.973	0.3437748	-0.2291832	-0.5156622	9.12149136	6.59474658	-21.97866888
6.43	643	0.124	-0.159	-0.972	0.3437748	-0.0572958	-0.5156622	9.12722094	6.59474658	-21.98439846
6.44	644	0.122	-0.161	-0.969	0.286479	-0.0572958	-0.4583664	9.12722094	6.59474658	-21.99012804
6.45	645	0.116	-0.16	-0.968	0.2291832	-0.286479	-0.4583664	9.04127724	6.5603691	-22.0015872
6.46	646	0.112	-0.155	-0.969	0.3437748	-0.2291832	-0.4583664	9.04700682	6.5603691	-22.00731678
6.47	647	0.111	-0.15	-0.971	0.572958	-0.2291832	-0.4583664	9.0527364	6.5603691	-22.01304636
6.48	648	0.113	-0.149	-0.973	0.6302538	0	-0.4583664	9.05846598	6.5603691	-22.01304636
6.49	649	0.117	-0.152	-0.976	0.572958	0.0572958	-0.4583664	9.06419556	6.5603691	-22.01877594
6.5	650	0.119	-0.153	-0.977	0.5156622	0	-0.4010706	8.97825186	6.5603691	-22.03596468
6.51	651	0.117	-0.154	-0.978	0.5156622	-0.3437748	-0.4583664	8.98398144	6.55463952	-22.03596468
6.52	652	0.123	-0.154	-0.984	0.572958	-1.8907614	-0.4583664	8.98398144	6.53745078	-22.04742384
6.53	653	0.122	-0.154	-0.975	0.4583664	-3.5523396	-0.1718874	8.98971102	6.5030733	-22.05315342
6.54	654	0.123	-0.152	-0.97	0.4583664	-4.5263682	-0.0572958	8.9954406	6.45723666	-22.06461258
6.55	655	0.123	-0.154	-0.972	0.9167328	-5.0420304	-0.0572958	8.98971102	6.41140002	-22.07607174
6.56	656	0.121	-0.159	-0.972	0.7448454	-4.9274388	-0.1145916	8.9954406	6.36556338	-22.0875309
6.57	657	0.121	-0.161	-0.97	0.286479	-4.8128472	-0.2291832	9.00117018	6.31972674	-22.09899006
6.58	658	0.121	-0.159	-0.963	0.286479	-4.6409598	-0.2291832	9.00117018	6.2738901	-22.11044922
6.59	659	0.119	-0.16	-0.965	0.1145916	-4.1252976	-0.286479	9.00117018	6.23378304	-22.12190838
6.6	660	0.119	-0.16	-0.967	-0.2291832	-3.6669312	-0.286479	8.97825186	6.20513514	-22.13336754
6.61	661	0.116	-0.158	-0.968	-0.2291832	-3.6669312	-0.3437748	8.97825186	6.16502808	-22.1448267
6.62	662	0.117	-0.158	-0.973	-0.2291832	-3.0939732	-0.5156622	8.97252228	6.13638018	-22.15628586
6.63	663	0.115	-0.159	-0.975	-0.4010706	-2.6929026	-0.572958	8.9667927	6.11346186	-22.16201544
6.64	664	0.113	-0.16	-0.973	-0.572958	-2.6929026	-0.5156622	8.96106312	6.08481396	-22.1734746
6.65	665	0.108	-0.158	-0.973	-0.572958	-2.5210152	-0.4583664	8.93241522	6.05616606	-22.18493376
6.66	666	0.106	-0.154	-0.974	-0.5156622	-2.3491278	-0.286479	8.92095606	6.03324774	-22.19066334
6.67	667	0.106	-0.154	-0.971	-0.6875496	-2.005353	-0.1718874	8.91522648	6.016059	-22.19639292
6.68	668	0.102	-0.151	-0.971	-0.5156622	-1.432395	-0.1718874	8.9094969	5.99887026	-22.2021225
6.69	669	0.101	-0.151	-0.973	-0.4010706	-0.859437	-0.3437748	8.90376732	5.99314068	-22.20785208
6.7	670	0.1	-0.152	-0.973	-0.4583664	0.1718874	-0.4583664	8.83501236	5.96449278	-22.21931124
6.71	671	0.1	-0.152	-0.974	-0.286479	0.1718874	-0.572958	8.82928278	5.97022236	-22.22504082
6.72	672	0.103	-0.155	-0.974	0	-0.2291832	-0.6302538	8.82928278	5.97022236	-22.2307704
6.73	673	0.107	-0.157	-0.976	0	-0.2291832	-0.572958	8.82928278	5.96449278	-22.23649998
6.74	674	0.111	-0.156	-0.974	-0.0572958	0	-0.572958	8.82928278	5.96449278	-22.24222956
6.75	675	0.113	-0.153	-0.973	0.0572958	-0.1718874	-0.4583664	8.7376095	5.9874111	-22.2594183
6.76	676	0.114	-0.153	-0.974	0.286479	-0.3437748	-0.4583664	8.7376095	5.9874111	-22.2594183
6.77	677	0.116	-0.155	-0.972	0.2291832	-0.1718874	-0.5156622	8.74333908	5.98168152	-22.26514788
6.78	678	0.117	-0.156	-0.973	-0.0572958	0	-0.572958	8.7376095	5.9874111	-22.27087746
6.79	679	0.118	-0.154	-0.968	0	0.1718874	-0.572958	8.7376095	5.9874111	-22.27660704
6.8	680	0.118	-0.151	-0.968	0.1718874	0.286479	-0.572958	8.6516658	6.02178858	-22.29379578
6.81	681	0.116	-0.15	-0.97	0.1718874	0.4010706	-0.5156622	8.65739538	6.02751816	-22.29952536
6.82	682	0.114	-0.15	-0.973	0.286479	0.5156622	-0.6302538	8.65739538	6.03324774	-22.30525494
6.83	683	0.109	-0.15	-0.977	0.572958	0.1718874	-0.6302538	8.66312496	6.03897732	-22.31098452
6.84	684	0.108	-0.152	-0.975	0.572958	-0.1145916	-0.572958	8.66885454	6.03897732	-22.3167141
6.85	685	0.108	-0.154	-0.974	0.8021412	-0.3437748	-0.4583664	8.64020664	6.02751816	-22.32244368
6.86	686	0.107	-0.156	-0.972	0.8021412	-0.4583664	-0.4010706	8.64593622	6.02751816	-22.32817326
6.87	687	0.107	-0.157	-0.968	0.6302538	-0.572958	-0.286479	8.6516658	6.02178858	-22.33390284
6.88	688	0.106	-0.156	-0.968	0.8021412	-0.572958	-0.286479	8.65739538	6.016059	-22.33963242
6.89	689	0.107	-0.153	-0.972	0.6875496	-0.4010706	-0.3437748	8.66885454	6.01032942	-22.33963242
6.9	690	0.108	-0.153	-0.973	0.572958	-0.1145916	-0.4010706	8.61728832	6.00459984	-22.35109158
6.91	691	0.108	-0.152	-0.971	0.5156622	0.1145916	-0.5156622	8.6230179	6.00459984	-22.35682116
6.92	692	0.106	-0.153	-0.968	0.572958	0.4010706	-0.5156622	8.62874748	6.01032942	-22.36255074
6.93	693	0.104	-0.155	-0.969	0.4010706	0.5156622	-0.5156622	8.63447706	6.016059	-22.36828032
6.94	694	0.106	-0.154	-0.972	0.286479	0.8021412	-0.572958	8.63447706	6.02751816	-22.36828032
6.95	695	0.107	-0.154	-0.977	0.3437748	0.9167328	-0.572958	8.60009958	6.02751816	-22.37973948
6.96	696	0.106	-0.152	-0.979	0.5156622	0.9740286	-0.5156622	8.60582916	6.03324774	-22.37973948
6.97	697	0.105	-0.153	-0.979	0.572958	0.9740286	-0.3437748	8.61155874	6.0447069	-22.38546906
6.98	698	0.103	-0.154	-0.98	0.572958	1.2605076	-0.4010706	8.61728832	6.06189564	-22.38546906
6.99	699	0.105	-0.156	-0.979	0.6302538	1.2605076	-0.4010706	8.6230179	6.0733548	-22.38546906
7	700	0.108	-0.154	-0.977	0.6875496	1.432395	-0.3437748	8.60009958	6.08481396	-22.39119864
7.01	701	0.11	-0.154	-0.977	0.9167328	1.3178034	-0.286479	8.61155874	6.09627312	-22.39119864
7.02	702	0.111	-0.154	-0.976	1.145916	1.3178034	-0.286479	8.6230179	6.10773228	-22.39119864
7.03	703	0.114	-0.153	-0.977	1.2032118	1.432395	-0.4010706	8.63447706	6.12492102	-22.39119864
7.04	704	0.116	-0.152	-0.979	1.3750992	1.6042824	-0.4583664	8.64593622	6.14210976	-22.39692822
7.05	705	0.116	-0.154	-0.978	1.2605076	1.8907614	-0.5156622	8.64020664	6.16502808	-22.4026578
7.06	706	0.115	-0.154	-0.977	1.0313244	1.8334656	-0.572958	8.6516658	6.18221682	-22.4026578
7.07	707	0.117	-0.153	-0.974	1.0886202	1.6615782	-0.5156622	8.66312496	6.19940556	-22.4026578
7.08	708	0.121	-0.152	-0.974	0.9740286	1.3178034	-0.3437748	8.66885454	6.21086472	-22.40838738
7.09	709	0.123	-0.153	-0.974	0.6302538	1.3750992	-0.2291832	8.6803137	6.22805346	-22.40838738
7.1	710	0.123	-0.151	-0.971	0.4010706	1.2605076	-0.286479	8.63447706	6.26243094	-22.41411696
7.11	711	0.123	-0.15	-0.975	0.6875496	1.2032118	-0.286479	8.64593622	6.2738901	-22.41411696
7.12	712	0.122	-0.151	-0.977	0.859437	1.432395	-0.4583664	8.6516658	6.29107884	-22.41411696
7.13	713	0.119	-0.157	-0.973	0.572958	1.6615782	-0.4010706	8.65739538	6.30826758	-22.41411696
7.14	714	0.115	-0.158	-0.971	0.4583664	1.6615782	-0.1718874	8.66312496	6.32545632	-22.41411696
7.15	715	0.117	-0.158	-0.972	0.3437748	1.4896908	-0.0572958	8.63447706	6.34264506	-22.41411696
7.16	716	0.12	-0.157	-0.972	0	1.8907614	-0.1145916	8.63447706	6.36556338	-22.41411696
7.17	717	0.122	-0.156	-0.973	-0.1145916	1.7761698	-0.1145916	8.63447706	6.38275212	-22.41411696
7.18	718	0.121	-0.155	-0.975	0.1145916	1.3750992	0	8.63447706	6.39421128	-22.40838738
7.19	719	0.119	-0.156	-0.976	0.3437748	0.859437	0.1145916	8.64020664	6.40567044	-22.40838738
7.2	720	0.114	-0.156	-0.977	0.3437748	0.7448454	0	8.58864042	6.39421128	-22.40838738
7.21	721	0.109	-0.154	-0.975	0.4010706	0.6875496	-0.1145916	8.59437	6.39994086	-22.40838738
7.22	722	0.109	-0.151	-0.973	0.572958	0.5156622	-0.2291832	8.60009958	6.40567044	-22.41411696
7.23	723	0.111	-0.146	-0.973	0.8021412	0.4583664	-0.3437748	8.61155874	6.41140002	-22.41411696
7.24	724	0.114	-0.147	-0.971	1.0313244	0.286479	-0.4583664	8.61728832	6.4171296	-22.41984654
7.25	725	0.116	-0.149	-0.971	0.8021412	0.4583664	-0.572958	8.57718126	6.42285918	-22.4313057
7.26	726	0.117	-0.149	-0.971	0.6302538	0.3437748	-0.5156622	8.58291084	6.42285918	-22.4313057
7.27	727	0.12	-0.15	-0.972	0.572958	0.1145916	-0.4583664	8.58864042	6.42858876	-22.43703528
7.28	728	0.121	-0.154	-0.97	0.4583664	0	-0.4010706	8.59437	6.42858876	-22.44276486
7.29	729	0.121	-0.156	-0.969	0.4583664	0.1718874	-0.5156622	8.59437	6.43431834	-22.44849444
7.3	730	0.121	-0.154	-0.971	0.6302538	0.4010706	-0.4583664	8.55999252	6.4457775	-22.45422402
7.31	731	0.121	-0.154	-0.975	0.859437	0.6875496	-0.5156622	8.5657221	6.45723666	-22.4599536
7.32	732	0.121	-0.155	-0.973	0.7448454	1.0886202	-0.4583664	8.57718126	6.46869582	-22.46568318
7.33	733	0.121	-0.157	-0.973	0.6875496	1.145916	-0.3437748	8.58291084	6.48015498	-22.46568318
7.34	734	0.122	-0.158	-0.971	0.6875496	0.9167328	-0.286479	8.58864042	6.49161414	-22.46568318
7.35	735	0.122	-0.159	-0.971	0.6302538	0.8021412	-0.2291832	8.57145168	6.5030733	-22.47141276
7.36	736	0.122	-0.157	-0.968	0.3437748	0.6875496	-0.286479	8.57718126	6.50880288	-22.47141276
7.37	737	0.118	-0.149	-0.969	0.4010706	0.5156622	-0.3437748	8.58291084	6.51453246	-22.47141276
7.38	738	0.119	-0.148	-0.974	0.572958	0.4583664	-0.4010706	8.58864042	6.52026204	-22.47714234
7.39	739	0.119	-0.152	-0.977	0.572958	0.3437748	-0.4010706	8.59437	6.52599162	-22.48287192
7.4	740	0.116	-0.157	-0.976	0.8021412	0.286479	-0.3437748	8.5657221	6.51453246	-22.4886015
7.41	741	0.118	-0.157	-0.972	0.6302538	0.4010706	-0.3437748	8.57145168	6.52026204	-22.4886015
7.42	742	0.121	-0.154	-0.968	0.6302538	0.4583664	-0.3437748	8.57718126	6.52599162	-22.49433108
7.43	743	0.121	-0.152	-0.97	0.9740286	0.3437748	-0.3437748	8.58864042	6.5317212	-22.49433108
7.44	744	0.123	-0.153	-0.976	1.145916	0.4583664	-0.3437748	8.60009958	6.53745078	-22.50006066
7.45	745	0.125	-0.155	-0.975	1.2605076	0.5156622	-0.3437748	8.58291084	6.54890994	-22.50579024
7.46	746	0.125	-0.157	-0.974	1.0313244	0.4010706	-0.4010706	8.59437	6.55463952	-22.50579024
7.47	747	0.125	-0.156	-0.973	1.0886202	0.1718874	-0.4010706	8.60582916	6.55463952	-22.51151982
7.48	748	0.122	-0.157	-0.971	0.9740286	0.1145916	-0.4010706	8.61728832	6.5603691	-22.5172494
7.49	749	0.123	-0.154	-0.969	0.9167328	0.286479	-0.5156622	8.6230179	6.5603691	-22.52297898
7.5	750	0.125	-0.152	-0.968	0.859437	0.4010706	-0.4583664	8.59437	6.58328742	-22.52870856
7.51	751	0.125	-0.149	-0.971	0.7448454	0.5156622	-0.3437748	8.60009958	6.589017	-22.53443814
7.52	752	0.124	-0.151	-0.972	0.7448454	0.4583664	-0.286479	8.60582916	6.59474658	-22.53443814
7.53	753	0.122	-0.153	-0.973	0.8021412	0.4010706	-0.2291832	8.61728832	6.59474658	-22.53443814
7.54	754	0.119	-0.157	-0.972	0.8021412	0.4583664	-0.1718874	8.6230179	6.60047616	-22.54016772
7.55	755	0.119	-0.159	-0.97	0.859437	0.4010706	-0.1145916	8.60009958	6.60047616	-22.54016772
7.56	756	0.118	-0.156	-0.97	0.859437	0.4583664	-0.1145916	8.61155874	6.60620574	-22.5458973
7.57	757	0.118	-0.153	-0.97	0.9740286	0.5156622	-0.1718874	8.61728832	6.61193532	-22.5458973
7.58	758	0.118	-0.151	-0.972	0.286479	0.286479	0.1145916	8.6230179	6.61193532	-22.54016772
7.59	759	0.115	-0.151	-0.973	0.3437748	0.6875496	0.0572958	8.62874748	6.62339448	-22.54016772
7.6	760	0.114	-0.153	-0.975	0.4010706	1.0313244	-0.0572958	8.59437	6.61193532	-22.5458973
7.61	761	0.116	-0.153	-0.976	0.5156622	1.3178034	-0.1145916	8.60009958	6.62912406	-22.54016772
7.62	762	0.12	-0.157	-0.973	0.572958	1.432395	-0.1145916	8.60582916	6.64058322	-22.54016772
7.63	763	0.125	-0.161	-0.969	0.572958	1.2605076	-0.1718874	8.61155874	6.65204238	-22.54016772
7.64	764	0.124	-0.16	-0.969	0.572958	0.9167328	-0.286479	8.61728832	6.66350154	-22.54016772
7.65	765	0.123	-0.159	-0.971	0.6302538	0.7448454	-0.3437748	8.59437	6.6749607	-22.5458973
7.66	766	0.124	-0.158	-0.972	0.4583664	0.9740286	-0.2291832	8.60009958	6.68641986	-22.5458973
7.67	767	0.126	-0.157	-0.975	0.2291832	1.3750992	-0.2291832	8.60009958	6.7036086	-22.55162688
7.68	768	0.128	-0.156	-0.971	-0.0572958	1.4896908	-0.1718874	8.60009958	6.71506776	-22.5458973
7.69	769	0.128	-0.154	-0.968	-0.0572958	1.145916	0	8.60009958	6.72652692	-22.5458973
7.7	770	0.131	-0.156	-0.971	-0.4010706	0.9167328	0.0572958	8.55426294	6.7609044	-22.5458973
7.71	771	0.132	-0.153	-0.968	-0.6302538	0.9167328	0.1718874	8.54853336	6.76663398	-22.5458973
7.72	772	0.132	-0.152	-0.97	-0.2291832	0.859437	0.1718874	8.54853336	6.77809314	-22.54016772
7.73	773	0.131	-0.153	-0.972	0	0.8021412	0.1145916	8.54853336	6.78382272	-22.54016772
7.74	774	0.13	-0.157	-0.971	0	0.8021412	0.1145916	8.54853336	6.79528188	-22.53443814
7.75	775	0.129	-0.158	-0.972	0.0572958	0.6302538	0.0572958	8.4797784	6.82965936	-22.54016772
7.76	776	0.131	-0.157	-0.971	0.1145916	0.286479	0	8.4797784	6.83538894	-22.54016772
7.77	777	0.132	-0.156	-0.97	0.0572958	0.4010706	0	8.4797784	6.84111852	-22.54016772
7.78	778	0.133	-0.155	-0.969	-0.1718874	0.7448454	0.0572958	8.4797784	6.8468481	-22.53443814
7.79	779	0.13	-0.151	-0.967	-0.7448454	0.8021412	-0.0572958	8.47404882	6.85257768	-22.53443814
7.8	780	0.127	-0.15	-0.967	-0.8021412	0.6875496	-0.1718874	8.42821218	6.86403684	-22.54016772
