TimeStamp(s)	FrameCounter	AccX	AccY	AccZ	GyrX	GyrY	GyrZ	EulerX	EulerY	EulerZ
0.01	1	-0.042	-0.964	0.299	-1.9480572	9.2819196	0	109.5839471	-1.20894138	-60.63614514
0.02	2	-0.04	-0.966	0.283	-3.5523396	10.9434978	0.3437748	109.54384	-1.24904844	-60.53874228
0.03	3	-0.042	-0.97	0.278	-4.1825934	10.0840608	0.7448454	109.4980034	-1.29488508	-60.447069
0.04	4	-0.043	-0.974	0.274	-4.9274388	9.2246238	0.9740286	109.4464372	-1.33499214	-60.36685488
0.05	5	-0.043	-0.981	0.264	-5.6722842	8.5370742	1.432395	109.3547639	-1.38655836	-60.3038295
0.06	6	-0.043	-0.983	0.256	-6.3598338	7.6203414	1.8334656	109.2917385	-1.432395	-60.24080412
0.07	7	-0.047	-0.979	0.248	-6.5317212	6.4171296	2.291832	109.2229835	-1.47823164	-60.1892379
0.08	8	-0.051	-0.971	0.24	-6.5317212	5.156622	2.5210152	109.1542286	-1.5183387	-60.14913084
0.09	9	-0.054	-0.959	0.233	-6.6463128	4.2398892	2.7501984	109.0854736	-1.55844576	-60.12048294
0.1	10	-0.058	-0.952	0.231	-6.7036086	2.9793816	2.9220858	108.9766116	-1.61574156	-60.12048294
0.11	11	-0.065	-0.944	0.232	-7.5057498	1.432395	2.9793816	108.8963975	-1.65011904	-60.11475336
0.12	12	-0.07	-0.936	0.236	-8.307891	-0.5156622	2.8074942	108.8161834	-1.67876694	-60.1319421
0.13	13	-0.072	-0.93	0.246	-9.2819196	-2.7501984	2.4637194	108.7187805	-1.6902261	-60.16631958
0.14	14	-0.07	-0.924	0.27	-9.7975818	-5.2712136	2.291832	108.6213776	-1.69595568	-60.22361538
0.15	15	-0.059	-0.929	0.297	-9.9121734	-7.3911582	2.291832	108.5182452	-1.69595568	-60.3038295
0.16	16	-0.042	-0.954	0.309	-10.7716104	-9.5111028	2.2345362	108.4151128	-1.6902261	-60.40123236
0.17	17	-0.029	-0.988	0.308	-12.2040054	-10.886202	2.6929026	108.2947916	-1.67876694	-60.51582396
0.18	18	-0.026	-1.009	0.312	-13.4072172	-12.2613012	3.6096354	108.1630112	-1.67303736	-60.64187472
0.19	19	-0.033	-1.013	0.31	-14.2093584	-14.0947668	4.8128472	108.0255013	-1.66730778	-60.7908438
0.2	20	-0.047	-1.004	0.305	-14.9542038	-16.902261	6.1879464	107.8765322	-1.67876694	-60.97419036
0.21	21	-0.066	-0.985	0.307	-15.5844576	-19.8816426	7.161975	107.7275632	-1.67876694	-61.18045524
0.22	22	-0.084	-0.958	0.313	-16.1574156	-21.772404	6.6463128	107.5728645	-1.67303736	-61.40963844
0.23	23	-0.108	-0.927	0.344	-15.469866	-22.2880662	4.9274388	107.4238954	-1.65011904	-61.63309206
0.24	24	-0.118	-0.916	0.388	-13.9801752	-20.8556712	3.3231564	107.2921151	-1.61001198	-61.83935694
0.25	25	-0.117	-0.924	0.411	-13.0061466	-17.761698	2.4064236	107.1775235	-1.59855282	-62.0227035
0.26	26	-0.116	-0.938	0.44	-12.0894138	-14.7250206	1.5469866	107.0629319	-1.56417534	-62.165943
0.27	27	-0.109	-0.943	0.469	-10.7716104	-11.3445684	0.7448454	106.9597994	-1.53552744	-62.2805346
0.28	28	-0.096	-0.94	0.476	-10.0840608	-6.9900876	0.1145916	106.856667	-1.5183387	-62.34355998
0.29	29	-0.073	-0.952	0.45	-10.4278356	-2.5210152	-0.1145916	106.7535346	-1.50687954	-62.37220788
0.3	30	-0.059	-0.976	0.409	-11.6310474	0	-0.1718874	106.6561317	-1.51260912	-62.37793746
0.31	31	-0.053	-0.995	0.382	-12.891555	0.5156622	-0.2291832	106.5300809	-1.51260912	-62.37220788
0.32	32	-0.052	-0.984	0.365	-13.8655836	-0.1145916	0	106.3868414	-1.51260912	-62.37220788
0.33	33	-0.049	-0.96	0.359	-13.9228794	-1.8907614	-0.1718874	106.2436019	-1.50687954	-62.3951262
0.34	34	-0.056	-0.938	0.365	-13.9228794	-4.0680018	-0.6302538	106.106092	-1.4896908	-62.42950368
0.35	35	-0.062	-0.917	0.359	-15.2406828	-4.9847346	-0.859437	105.9685821	-1.47250206	-62.4810699
0.36	36	-0.059	-0.901	0.34	-17.1314442	-4.2398892	-0.9167328	105.7966947	-1.45531332	-62.52117696
0.37	37	-0.05	-0.891	0.321	-19.0795014	-3.8388186	-0.6302538	105.601889	-1.43812458	-62.56128402
0.38	38	-0.046	-0.88	0.307	-19.8243468	-4.4117766	-0.1718874	105.4013537	-1.42093584	-62.60139108
0.39	39	-0.049	-0.868	0.294	-19.0222056	-5.0420304	0.4583664	105.2122775	-1.41520626	-62.6529573
0.4	40	-0.059	-0.854	0.309	-16.8449652	-6.1306506	1.432395	105.0518493	-1.42093584	-62.72171226
0.41	41	-0.072	-0.842	0.333	-14.6677248	-6.7609044	2.4064236	104.9086098	-1.42666542	-62.7961968
0.42	42	-0.081	-0.825	0.347	-12.2040054	-7.2765666	3.0939732	104.7882886	-1.432395	-62.87641092
0.43	43	-0.09	-0.811	0.353	-9.7975818	-8.307891	3.0939732	104.6908858	-1.44385416	-62.96235462
0.44	44	-0.099	-0.808	0.369	-7.5630456	-8.6516658	2.4637194	104.6164012	-1.44385416	-63.0540279
0.45	45	-0.108	-0.823	0.387	-5.2712136	-7.2765666	1.7761698	104.6106716	-1.47250206	-63.1399716
0.46	46	-0.11	-0.848	0.389	-3.724227	-5.0993262	1.432395	104.5762942	-1.47250206	-63.19153782
0.47	47	-0.11	-0.878	0.393	-3.151269	-2.9793816	1.0313244	104.5476463	-1.47250206	-63.2259153
0.48	48	-0.111	-0.893	0.401	-2.7501984	0.0572958	0.1718874	104.5189984	-1.47823164	-63.2259153
0.49	49	-0.117	-0.898	0.407	-1.8334656	2.5210152	-0.859437	104.49608	-1.47250206	-63.1972674
0.5	50	-0.124	-0.906	0.419	-0.859437	5.0420304	-1.718874	104.5705646	-1.53552744	-63.17434908
0.51	51	-0.133	-0.922	0.431	-1.0886202	8.1932994	-2.4064236	104.5533758	-1.53552744	-63.08840538
0.52	52	-0.147	-0.931	0.431	-1.9480572	11.172681	-2.8074942	104.5304575	-1.54125702	-62.97381378
0.53	53	-0.163	-0.931	0.435	-2.0626488	13.2353298	-3.437748	104.5018096	-1.54125702	-62.84203344
0.54	54	-0.186	-0.93	0.448	-2.0626488	15.2979786	-4.010706	104.4788913	-1.5469866	-62.68733478
0.55	55	-0.209	-0.935	0.45	-2.6356068	18.5065434	-4.4690724	104.4731617	-1.59282324	-62.51544738
0.56	56	-0.219	-0.952	0.43	-4.5263682	23.491278	-5.3858052	104.4158659	-1.6042824	-62.2805346
0.57	57	-0.23	-0.989	0.425	-5.0993262	23.7204612	-6.3598338	104.3528405	-1.61001198	-62.03989224
0.58	58	-0.222	-1.04	0.445	-3.6096354	23.491278	-7.3338624	104.3070039	-1.59855282	-61.79924988
0.59	59	-0.207	-1.07	0.471	-2.6356068	23.8923486	-8.1932994	104.2668968	-1.58709366	-61.55287794
0.6	60	-0.173	-1.116	0.474	-2.291832	25.6112226	-9.5683986	104.2439785	-1.56990492	-61.28931726
0.61	61	-0.144	-1.166	0.46	-2.291832	27.6165756	-10.599723	104.209601	-1.5469866	-60.99710868
0.62	62	-0.124	-1.192	0.427	-2.291832	28.074942	-11.4018642	104.169494	-1.51260912	-60.7049001
0.63	63	-0.114	-1.182	0.405	-1.718874	26.4133638	-12.032118	104.1408461	-1.46677248	-60.42415068
0.64	64	-0.104	-1.154	0.41	1.8334656	23.0329116	-12.2613012	104.1523052	-1.40947668	-60.17204916
0.65	65	-0.109	-1.13	0.476	6.875496	19.5378678	-12.1467096	104.2267898	-1.35218088	-59.9600547
0.66	66	-0.131	-1.101	0.59	9.740286	17.475219	-12.318597	104.3184631	-1.27769634	-59.7595194
0.67	67	-0.179	-1.044	0.686	15.4125702	16.4438946	-12.8342592	104.4674321	-1.19748222	-59.57044326
0.68	68	-0.23	-1.009	0.766	23.9496444	17.1314442	-12.605076	104.7080745	-1.12299768	-59.36990796
0.69	69	-0.181	-1.074	0.717	24.8663772	26.2414764	-12.4331886	104.9487169	-1.07716104	-59.08915854
0.7	70	0.045	-1.571	-0.052	0.572958	38.388186	-8.4797784	104.9372577	-1.10580894	-58.6995471
0.71	71	0.003	-1.825	-0.005	-14.8396122	3.8388186	3.3804522	104.7882886	-1.145916	-58.67662878
0.72	72	0.118	-1.304	0.414	5.2139178	-13.6936962	-2.8074942	104.8455844	-1.08289062	-58.79694996
0.73	73	0.079	-0.908	0.218	8.59437	6.5317212	-14.4385416	104.9257985	-0.96256944	-58.6995471
0.74	74	0.003	-0.795	0.325	15.183387	16.2147114	-17.4179232	105.0747676	-0.83651868	-58.4990118
0.75	75	-0.054	-0.789	0.293	10.886202	33.0596766	-16.5011904	105.1779001	-0.77922288	-58.14377784
0.76	76	-0.056	-0.773	0.047	0.572958	52.7694318	-16.902261	105.1664409	-0.76776372	-57.59373816
0.77	77	-0.08	-0.813	-0.119	-10.0840608	50.133825	-15.3552744	105.0518493	-0.76203414	-57.08380554
0.78	78	-0.108	-0.984	-0.141	-16.1001198	45.0917946	-12.8342592	104.8742323	-0.76776372	-56.62543914
0.79	79	-0.089	-1.155	-0.092	-17.9908812	36.3255372	-12.0894138	104.6794266	-0.75057498	-56.25301644
0.8	80	-0.032	-1.28	-0.079	-14.037471	29.1635622	-11.45916	104.5132688	-0.72765666	-55.9493487
0.81	81	0.017	-1.342	-0.034	-10.4851314	24.2361234	-7.5630456	104.3986772	-0.72192708	-55.70297676
0.82	82	0.082	-1.252	0.046	-8.021412	20.5691922	-3.8961144	104.3127335	-0.73911582	-55.49671188
0.83	83	0.101	-1.094	0.076	-4.6409598	18.4492476	-3.4950438	104.2611673	-0.75630456	-55.31336532
0.84	84	0.08	-0.998	0.094	-1.145916	15.4125702	-4.8128472	104.2439785	-0.75057498	-55.15293708
0.85	85	0.052	-0.997	0.13	0.572958	13.2353298	-6.5317212	104.2153306	-0.70473834	-55.00969758
0.86	86	0.021	-1.012	0.186	-1.0886202	12.1467096	-8.4797784	104.1981419	-0.6589017	-54.87218766
0.87	87	-0.005	-0.991	0.227	-3.3804522	11.8029348	-10.6570188	104.1580348	-0.58441716	-54.73467774
0.88	88	-0.023	-0.937	0.243	-6.4744254	14.2666542	-11.9175264	104.0892799	-0.50993262	-54.56851992
0.89	89	-0.029	-0.89	0.235	-10.3705398	18.2200644	-11.0580894	103.9804178	-0.45263682	-54.36798462
0.9	90	-0.031	-0.84	0.209	-14.8396122	21.5432208	-9.7975818	103.8199896	-0.41825934	-54.144531
0.91	91	-0.017	-0.797	0.19	-18.1627686	22.345362	-8.880849	103.6309135	-0.38961144	-53.9153478
0.92	92	0.006	-0.78	0.18	-21.5432208	19.7097552	-8.1932994	103.4074598	-0.36096354	-53.70908292
0.93	93	0.038	-0.781	0.155	-24.064236	16.042824	-7.2765666	103.1610879	-0.33231564	-53.5429251
0.94	94	0.069	-0.8	0.116	-25.9549974	12.6623718	-6.7036086	102.8975272	-0.30366774	-53.40541518
0.95	95	0.089	-0.825	0.095	-29.1062664	8.59437	-6.5317212	102.5881299	-0.24637194	-53.30801232
0.96	96	0.099	-0.827	0.085	-32.0283522	2.005353	-7.3338624	102.2615438	-0.18334656	-53.27936442
0.97	97	0.092	-0.828	0.072	-32.6013102	-4.1825934	-8.4224826	101.9292282	-0.09167328	-53.30801232
0.98	98	0.076	-0.821	0.057	-32.2002396	-8.1932994	-9.2246238	101.6026421	0.00572958	-53.3710377
0.99	99	0.064	-0.825	0.049	-30.4240698	-10.4851314	-9.8548776	101.2932448	0.12605076	-53.4569814
1	100	0.039	-0.801	0.057	-28.6479	-13.1207382	-9.9121734	100.9953067	0.25210152	-53.56584342
1.01	101	0.033	-0.773	0.067	-25.7258142	-15.8709366	-9.1100322	100.7374756	0.3724227	-53.70908292
1.02	102	0.033	-0.752	0.077	-21.6005166	-18.5065434	-8.6516658	100.5197515	0.49274388	-53.86951116
1.03	103	0.054	-0.754	0.089	-18.1054728	-20.340009	-8.4797784	100.336405	0.61879464	-54.0585873
1.04	104	0.071	-0.77	0.106	-15.0687954	-23.2620948	-8.9381448	100.1817063	0.75057498	-54.26485218
1.05	105	0.083	-0.803	0.114	-13.5218088	-26.4706596	-9.6829902	100.0384668	0.91100322	-54.50549454
1.06	106	0.084	-0.853	0.094	-14.1520626	-27.9030546	-10.1413566	99.8952273	1.0599723	-54.75759606
1.07	107	0.084	-0.915	0.036	-16.1574156	-27.501984	-9.2246238	99.72906948	1.2032118	-55.01542716
1.08	108	0.088	-0.989	-0.029	-18.1054728	-26.2414764	-8.1932994	99.54572292	1.33499214	-55.25606952
1.09	109	0.084	-1.066	-0.056	-17.8189938	-25.1528562	-8.59437	99.36237636	1.46677248	-55.4909823
1.1	110	0.064	-1.115	-0.053	-15.469866	-25.2674478	-9.9121734	99.1790298	1.61001198	-55.72589508
1.11	111	0.034	-1.109	-0.01	-12.4904844	-26.2987722	-10.8289062	99.04724946	1.76471064	-55.96653744
1.12	112	0.026	-1.056	0.147	-9.453807	-29.4500412	-9.3965112	98.94411702	1.90795014	-56.2358277
1.13	113	0.021	-0.985	0.325	-6.9900876	-41.825934	-5.156622	98.8639029	2.0340009	-56.6368983
1.14	114	0.021	-0.939	0.465	0.2291832	-57.1812084	-1.6615782	98.85817332	2.15432208	-57.19266756
1.15	115	0.038	-0.951	0.572	6.4744254	-64.744254	-1.6042824	98.93265786	2.291832	-57.8114622
1.16	116	0.08	-1	0.62	10.1413566	-64.3431834	-2.6356068	99.01860156	2.4350715	-58.43025684
1.17	117	0.108	-1.103	0.632	11.6310474	-62.2232388	-3.0366774	99.121734	2.578311	-59.03186274
1.18	118	0.106	-1.197	0.654	11.6310474	-62.3378304	-1.0313244	99.21913686	2.70436176	-59.63346864
1.19	119	0.079	-1.276	0.683	10.5424272	-59.7022236	3.6669312	99.30508056	2.7788463	-60.2178858
1.2	120	0.058	-1.373	0.67	5.0993262	-52.3683612	6.3598338	99.34518762	2.81895336	-60.733548
1.21	121	0.043	-1.473	0.59	-4.6982556	-41.8832298	7.6203414	99.28216224	2.81895336	-61.15753692
1.22	122	-0.018	-1.578	0.423	-17.3606274	-33.231564	9.9121734	99.0930861	2.78457588	-61.49558214
1.23	123	-0.091	-1.698	0.241	-27.3873924	-17.8189938	11.0007936	98.8066071	2.70436176	-61.69038786
1.24	124	-0.164	-1.803	0.021	-36.669312	-0.6302538	13.1207382	98.4341844	2.578311	-61.72476534
1.25	125	-0.179	-1.773	-0.171	-38.3308902	5.443101	18.7357266	98.03884338	2.3777757	-61.70184702
1.26	126	-0.089	-1.541	-0.117	-31.8564648	-16.2147114	29.4500412	97.71225732	2.10848544	-61.9081119
1.27	127	0.076	-1.282	-0.078	-23.6631654	-44.3469492	39.4768062	97.4601558	1.79335854	-62.3951262
1.28	128	0.259	-1.17	0	-17.5325148	-57.4676874	40.393539	97.27680924	1.47823164	-63.01392084
1.29	129	0.38	-1.018	-0.01	-15.0114996	-58.3844202	35.7525792	97.116381	1.21467096	-63.63271548
1.3	130	0.402	-0.832	-0.024	-14.0947668	-56.3790672	29.3354496	96.96168234	1.04278356	-64.20567348
1.31	131	0.324	-0.728	-0.021	-9.1100322	-53.9726436	23.3193906	96.87000906	0.8880849	-64.76144274
1.32	132	0.16	-0.724	-0.02	-5.2712136	-53.7434604	19.8243468	96.81271326	0.7734933	-65.31148242
1.33	133	-0.01	-0.759	-0.031	-1.6042824	-47.3263308	17.7044022	96.79552452	0.66463128	-65.79849672
1.34	134	-0.125	-0.826	-0.077	0.572958	-34.8358464	15.5844576	96.80698368	0.56149884	-66.15946026
1.35	135	-0.166	-0.87	-0.139	1.6615782	-20.2254174	12.318597	96.76114704	0.41825934	-66.40010262
1.36	136	-0.152	-0.869	-0.14	3.151269	-5.9587632	9.2246238	96.79552452	0.33804522	-66.46885758
1.37	137	-0.13	-0.862	-0.126	4.1252976	2.1772404	6.7609044	96.84136116	0.26929026	-66.45166884
1.38	138	-0.099	-0.872	-0.128	4.1252976	6.875496	4.1825934	96.88146822	0.21772404	-66.39437304
1.39	139	-0.081	-0.918	-0.156	3.6669312	8.4224826	1.6615782	96.9158457	0.18907614	-66.30842934
1.4	140	-0.062	-0.975	-0.175	3.437748	7.448454	1.432395	96.8012541	0.12032118	-66.27405186
1.41	141	-0.053	-1.017	-0.156	2.86479	5.6149884	1.6042824	96.829902	0.09740286	-66.21675606
1.42	142	-0.035	-1.01	-0.131	2.4637194	4.297185	1.8334656	96.85282032	0.06875496	-66.176649
1.43	143	-0.008	-0.983	-0.101	2.4064236	3.9534102	1.0886202	96.87573864	0.05156622	-66.14227152
1.44	144	0.01	-0.965	-0.048	2.1772404	5.0993262	-0.5156622	96.89865696	0.05156622	-66.0907053
1.45	145	0.026	-0.961	-0.04	1.3750992	6.4171296	-1.718874	96.81271326	0.08021412	-66.02195034
1.46	146	0.023	-0.961	-0.026	1.4896908	7.734933	-2.1772404	96.82417242	0.0859437	-65.94173622
1.47	147	0.011	-0.957	0.01	1.8907614	9.2819196	-2.3491278	96.84136116	0.09740286	-65.85006294
1.48	148	0.001	-0.941	0.018	1.4896908	11.4018642	-2.6929026	96.8585499	0.10886202	-65.73547134
1.49	149	-0.011	-0.917	0.023	1.8334656	13.0634424	-2.6356068	96.87573864	0.1145916	-65.603691
1.5	150	-0.013	-0.905	0.045	3.0366774	14.4958374	-2.578311	96.8871978	0.1145916	-65.4604515
1.51	151	-0.011	-0.881	0.052	3.2658606	15.6417534	-2.2345362	96.9158457	0.1145916	-65.30575284
1.52	152	-0.011	-0.851	0.056	3.3804522	15.9282324	-0.9740286	96.95022318	0.10313244	-65.1453246
1.53	153	-0.003	-0.831	0.067	4.4117766	15.8709366	0.859437	96.99605982	0.07448454	-64.99062594
1.54	154	0	-0.794	0.072	5.0993262	14.1520626	1.9480572	97.04189646	0.03437748	-64.85311602
1.55	155	0	-0.752	0.093	5.443101	11.2299768	2.6356068	97.09919226	-0.00572958	-64.74998358
1.56	156	-0.007	-0.726	0.101	5.3858052	9.3965112	3.2658606	97.15075848	-0.05156622	-64.6583103
1.57	157	-0.025	-0.714	0.111	4.870143	9.5111028	3.8961144	97.19659512	-0.10313244	-64.5723666
1.58	158	-0.041	-0.715	0.14	5.0993262	10.8289062	4.2398892	97.24816134	-0.16042824	-64.46923416
1.59	159	-0.064	-0.716	0.176	4.2398892	14.3812458	4.297185	97.2882684	-0.22345362	-64.33172424
1.6	160	-0.086	-0.72	0.16	3.437748	19.7097552	4.5263682	97.32264588	-0.3151269	-64.14837768
1.61	161	-0.102	-0.724	0.138	2.3491278	21.5432208	3.724227	97.3455642	-0.38388186	-63.9421128
1.62	162	-0.117	-0.74	0.128	1.8334656	25.496631	1.718874	97.35702336	-0.44117766	-63.69574086
1.63	163	-0.14	-0.775	0.112	0	32.1429438	-1.3178034	97.35129378	-0.47555514	-63.38061396
1.64	164	-0.164	-0.82	0.092	-2.9793816	39.3622146	-4.1825934	97.31118672	-0.49847346	-62.99100252
1.65	165	-0.169	-0.843	0.098	-5.443101	46.2950064	-6.6463128	97.24243176	-0.52139178	-62.5383657
1.66	166	-0.13	-0.846	0.093	-8.1360036	52.712136	-8.6516658	97.15075848	-0.5156622	-62.01697392
1.67	167	-0.048	-0.859	0.046	-9.3392154	57.9833496	-9.740286	97.04189646	-0.50993262	-61.43828634
1.68	168	0.037	-0.887	0.005	-9.740286	56.6655462	-9.0527364	96.92730486	-0.50420304	-60.87105792
1.69	169	0.101	-0.873	0.069	-6.4744254	47.2117392	-6.875496	96.85282032	-0.50420304	-60.40123236
1.7	170	0.151	-0.799	0.176	0.6875496	36.8984952	-4.9847346	96.86427948	-0.48128472	-60.02308008
1.71	171	0.144	-0.735	0.275	8.4797784	26.5279554	-3.3231564	96.9444936	-0.4870143	-59.7595194
1.72	172	0.083	-0.745	0.331	16.6730778	18.907614	-1.6042824	97.11065142	-0.49274388	-59.57044326
1.73	173	-0.007	-0.823	0.37	22.5745452	16.3865988	0.1145916	97.33983462	-0.52139178	-59.40428544
1.74	174	-0.103	-0.947	0.41	26.9863218	19.7097552	0.286479	97.60912488	-0.55003968	-59.20947972
1.75	175	-0.203	-1.015	0.48	31.1689152	26.5852512	-1.2605076	97.94144052	-0.59587632	-58.95164862
1.76	176	-0.281	-1.03	0.53	34.7212548	34.6066632	-2.7501984	98.28521532	-0.62452422	-58.60214424
1.77	177	-0.32	-1.057	0.553	37.815228	40.3362432	-4.1825934	98.65763802	-0.65317212	-58.20107364
1.78	178	-0.303	-1.108	0.57	41.0810886	47.7274014	-5.5003968	99.0644382	-0.68182002	-57.71978892
1.79	179	-0.219	-1.213	0.534	40.5654264	55.863405	-6.7036086	99.4655088	-0.7161975	-57.16401966
1.8	180	-0.108	-1.343	0.477	36.3255372	55.4623344	-5.5003968	99.82074276	-0.76776372	-56.61397998
1.81	181	-0.004	-1.511	0.347	28.7051958	48.987909	-3.0366774	100.0957626	-0.8307891	-56.12696568
1.82	182	0.087	-1.71	0.166	17.5898106	39.5913978	-1.2605076	100.26765	-0.89954406	-55.74308382
1.83	183	0.11	-1.83	0.046	12.7196676	31.1116194	-0.6875496	100.3879712	-0.95683986	-55.43941608
1.84	184	0.085	-1.83	-0.029	10.6570188	19.3659804	-1.0886202	100.4911036	-0.98548776	-55.24461036
1.85	185	0.058	-1.677	-0.03	9.740286	5.7868758	-3.6669312	100.5770473	-0.95683986	-55.18158498
1.86	186	0.076	-1.524	-0.055	7.9068204	0.5156622	-8.021412	100.6572614	-0.88235532	-55.15866666
1.87	187	0.095	-1.416	-0.086	6.016059	-3.6096354	-11.5737516	100.7202868	-0.75630456	-55.1758554
1.88	188	0.14	-1.271	-0.114	2.1772404	-3.0939732	-14.037471	100.7432051	-0.61306506	-55.1758554
1.89	189	0.145	-1.07	-0.109	-0.4583664	-0.6302538	-15.2406828	100.7374756	-0.46409598	-55.15293708
1.9	190	0.059	-0.874	-0.031	0.1718874	-4.1252976	-15.183387	100.7030981	-0.30939732	-55.17012582
1.91	191	-0.067	-0.791	-0.021	-0.5156622	-5.7868758	-15.1260912	100.6973685	-0.14896908	-55.19877372
1.92	192	-0.175	-0.832	0.013	-1.7761698	0.5156622	-14.896908	100.6801798	-0.00572958	-55.17012582
1.93	193	-0.204	-0.928	-0.016	-5.6149884	11.0007936	-14.3812458	100.622884	0.10886202	-55.0326159
1.94	194	-0.172	-1.001	-0.065	-10.886202	22.058883	-12.8342592	100.5082924	0.18334656	-54.79770312
1.95	195	-0.09	-1.043	-0.098	-14.037471	28.5333084	-10.1413566	100.3249458	0.21199446	-54.5169537
1.96	196	0	-1.059	-0.14	-15.6990492	29.793816	-6.9327918	100.158788	0.22345362	-54.21901554
1.97	197	0.063	-1.074	-0.143	-16.5011904	25.6112226	-3.5523396	99.99263016	0.20626488	-53.96691402
1.98	198	0.108	-1.092	-0.119	-16.3865988	17.8189938	-1.145916	99.82074276	0.17761698	-53.79502662
1.99	199	0.128	-1.088	-0.109	-16.1001198	9.1100322	-0.3437748	99.65458494	0.16615782	-53.70335334
2	200	0.116	-1.064	-0.113	-16.7303736	1.8907614	-0.5156622	99.38529468	0.19480572	-53.69189418
2.01	201	0.079	-1.028	-0.095	-15.0114996	-3.151269	-1.0313244	99.23059602	0.21199446	-53.72627166
2.02	202	0.047	-0.975	-0.026	-12.1467096	-5.9014674	-1.6615782	99.11027484	0.24064236	-53.77783788
2.03	203	0.016	-0.924	0.018	-11.1153852	-4.1825934	-2.9220858	98.99568324	0.27501984	-53.81794494
2.04	204	-0.016	-0.898	0.051	-10.1413566	-1.7761698	-4.583664	98.8925508	0.32658606	-53.8294041
2.05	205	-0.018	-0.88	0.098	-8.4224826	0.6875496	-6.3598338	98.79514794	0.37815228	-53.81794494
2.06	206	0.004	-0.854	0.167	-7.6203414	2.578311	-7.3338624	98.7206634	0.44690724	-53.78356746
2.07	207	0.029	-0.832	0.18	-7.3338624	2.291832	-6.5317212	98.64617886	0.50420304	-53.74918998
2.08	208	0.071	-0.823	0.15	-6.9327918	3.151269	-5.0993262	98.57169432	0.55003968	-53.70908292
2.09	209	0.103	-0.827	0.139	-7.0473834	4.010706	-4.3544808	98.50293936	0.58441716	-53.66897586
2.1	210	0.122	-0.824	0.152	-7.2765666	1.3750992	-3.7815228	98.4341844	0.66463128	-53.6288688
2.11	211	0.123	-0.806	0.155	-7.6776372	-1.718874	-3.5523396	98.35969986	0.69900876	-53.64032796
2.12	212	0.099	-0.771	0.185	-8.2505952	-5.3858052	-3.9534102	98.27375616	0.75057498	-53.69189418
2.13	213	0.084	-0.764	0.127	-7.7922288	-8.8235532	-3.8388186	98.19354204	0.8021412	-53.7721083
2.14	214	0.052	-0.781	0.1	-9.6829902	-14.4958374	-1.8334656	98.09613918	0.84224826	-53.90961822
2.15	215	0.071	-0.806	0.118	-10.9434978	-16.6730778	-0.1718874	97.98154758	0.8880849	-54.07004646
2.16	216	0.101	-0.871	0.086	-14.7823164	-20.05353	0.6302538	97.82684892	0.91100322	-54.27058176
2.17	217	0.109	-0.915	0.051	-20.3973048	-24.1215318	3.151269	97.62058404	0.92246238	-54.51122412
2.18	218	0.153	-0.924	-0.011	-24.5798982	-30.1375908	4.9274388	97.3742121	0.9167328	-54.81489186
2.19	219	0.191	-0.88	-0.023	-28.934379	-39.247623	3.724227	97.07627394	0.93965112	-55.2045033
2.2	220	0.193	-0.865	0.013	-30.9970278	-46.982556	2.1772404	96.75541746	1.0026765	-55.66859928
2.21	221	0.143	-0.861	0.11	-30.1948866	-53.1132066	1.2605076	96.44602014	1.0599723	-56.18999106
2.22	222	0.068	-0.861	0.195	-29.3927454	-56.149884	-0.1718874	96.1423524	1.13445684	-56.74576032
2.23	223	0.013	-0.887	0.158	-30.080295	-56.4936588	-1.4896908	95.83295508	1.22613012	-57.30152958
2.24	224	-0.021	-0.95	0.087	-31.9137606	-57.6395748	-1.0313244	95.50636902	1.30634424	-57.868758
2.25	225	0	-1.009	0.053	-35.1223254	-58.2698286	0.0572958	95.1396759	1.36936962	-58.44744558
2.26	226	0.073	-1.045	0.017	-41.3102718	-60.733548	1.0313244	94.7099574	1.42666542	-59.04905148
2.27	227	0.152	-1.018	0.048	-48.5295426	-68.0674104	1.718874	94.21148394	1.47250206	-59.72514192
2.28	228	0.197	-0.952	0.131	-49.274388	-77.4066258	1.7761698	93.70155132	1.52979786	-60.49863522
2.29	229	0.165	-0.886	0.222	-43.2010332	-89.2095606	4.0680018	93.2489145	1.55844576	-61.38099054
2.3	230	0.067	-0.859	0.372	-32.0283522	-101.2416786	7.3338624	92.92805802	1.56990492	-62.38939662
2.31	231	-0.064	-0.917	0.467	-16.5584862	-104.9659056	7.6203414	92.75044104	1.56990492	-63.4264506
2.32	232	-0.127	-1.047	0.538	-5.0993262	-104.2210602	7.2192708	92.68168608	1.5756345	-64.457775
2.33	233	-0.141	-1.129	0.628	-0.7448454	-102.9605526	7.5630456	92.65876776	1.5756345	-65.47764024
2.34	234	-0.124	-1.192	0.742	-5.0420304	-99.9238752	8.6516658	92.59574238	1.56417534	-66.46885758
2.35	235	-0.07	-1.217	0.637	-22.631841	-89.5533354	11.3445684	92.36655918	1.50687954	-67.36267206
2.36	236	0.005	-1.302	0.361	-20.6837838	-85.084263	15.469866	92.14883514	1.40947668	-68.2106499
2.37	237	0.114	-1.372	-0.106	-6.4744254	-91.0430262	21.4286292	92.0743506	1.25477802	-69.11592354
2.38	238	0.06	-1.492	0.434	10.313244	-109.6641612	17.1314442	92.17175346	1.15737516	-70.20454374
2.39	239	0.028	-1.61	0.325	-10.0840608	-97.4601558	5.443101	92.06289144	1.16310474	-71.16711318
2.4	240	0.038	-1.577	-0.133	-7.8495246	-65.2599162	0.572958	91.97121816	1.19748222	-71.81455572
2.41	241	-0.052	-1.55	-0.145	-3.8388186	-49.274388	2.005353	91.9311111	1.20894138	-72.30157002
2.42	242	-0.069	-1.365	-0.317	-7.9068204	-35.0077338	1.6615782	91.8451674	1.20894138	-72.6510744
2.43	243	-0.147	-1.252	-0.35	-4.0680018	-21.9442914	5.0993262	91.79933076	1.1745639	-72.86879844
2.44	244	-0.25	-1.221	-0.425	-3.0939732	-10.6570188	5.6149884	91.77068286	1.12299768	-72.97766046
2.45	245	-0.332	-1.272	-0.482	0.0572958	2.005353	2.291832	91.74776454	1.07716104	-72.9662013
2.46	246	-0.392	-1.302	-0.427	2.1772404	14.3812458	-3.9534102	91.77068286	1.10580894	-72.8229618
2.47	247	-0.352	-1.233	-0.422	2.6356068	29.6219286	-11.0007936	91.79933076	1.2032118	-72.52502364
2.48	248	-0.242	-1.148	-0.445	4.1252976	40.393539	-15.8136408	91.8451674	1.33499214	-72.12395304
2.49	249	-0.107	-1.082	-0.379	4.1252976	43.9458786	-19.8243468	91.89100404	1.50687954	-71.68277538
2.5	250	0.003	-1.031	-0.297	3.9534102	43.544808	-21.8296998	91.9024632	1.69595568	-71.24159772
2.51	251	0.038	-0.978	-0.23	4.1252976	43.544808	-21.8296998	91.95402942	1.88503182	-70.80614964
2.52	252	-0.014	-0.954	-0.23	7.161975	43.7739912	-20.1108258	92.03424354	2.0626488	-70.36497198
2.53	253	-0.111	-0.964	-0.183	12.605076	44.5188366	-17.7044022	92.17175346	2.2058883	-69.91806474
2.54	254	-0.181	-0.977	-0.118	18.1627686	46.696077	-15.4125702	92.37228876	2.33193906	-69.44823918
2.55	255	-0.176	-0.97	-0.086	23.491278	49.0452048	-13.5791046	92.61293112	2.41215318	-68.96122488
2.56	256	-0.118	-0.942	-0.035	28.361421	49.847346	-12.4904844	92.91086928	2.50382646	-68.46275142
2.57	257	-0.045	-0.905	-0.025	30.0229992	47.9565846	-11.6883432	93.23172576	2.58404058	-67.97573712
2.58	258	0.029	-0.853	-0.033	31.8564648	44.2896534	-11.4018642	93.56977098	2.65852512	-67.52882988
2.59	259	0.079	-0.809	0.006	34.7785506	38.0444112	-11.9748222	93.9364641	2.74446882	-67.14494802
2.6	260	0.096	-0.79	0.002	35.7525792	31.8564648	-12.891555	94.30315722	2.85333084	-66.81263238
2.61	261	0.094	-0.757	0.009	38.388186	26.4133638	-13.5218088	94.70422782	2.96219286	-66.53761254
2.62	262	0.081	-0.717	0.07	41.9978214	22.8610242	-13.9228794	95.1396759	3.07678446	-66.29697018
2.63	263	0.057	-0.679	0.084	46.123119	22.1161788	-13.4072172	95.61523104	3.18564648	-66.05632782
2.64	264	0.036	-0.644	0.101	51.9672906	24.350715	-13.4072172	96.15954114	3.28877892	-65.79849672
2.65	265	0.028	-0.639	0.107	55.6342218	26.8717302	-14.9542038	96.73822872	3.40337052	-65.51201772
2.66	266	0.013	-0.656	0.118	58.9573782	28.3041252	-17.0168526	97.35129378	3.53515086	-65.2026204
2.67	267	0.015	-0.684	0.142	59.8168152	28.8770832	-18.907614	97.97008842	3.67839036	-64.8874935
2.68	268	0.024	-0.713	0.134	59.301153	28.4760126	-20.8556712	98.58888306	3.8388186	-64.5723666
2.69	269	0.024	-0.732	0.056	57.3530958	28.2468294	-22.8037284	99.19048896	4.010706	-64.2572397
2.7	270	0.003	-0.742	0.053	58.9000824	30.3094782	-24.6944898	99.80355402	4.19405256	-63.9134649
2.71	271	-0.025	-0.744	0.112	59.7595194	38.0444112	-26.8144344	100.4395374	4.38885828	-63.48947598
2.72	272	-0.042	-0.73	0.059	57.4676874	44.8053156	-29.9657034	101.0526025	4.58939358	-62.99100252
2.73	273	-0.025	-0.737	-0.005	57.7541664	51.3943326	-32.0283522	101.6771267	4.78992888	-62.4237741
2.74	274	-0.004	-0.777	0.005	63.311859	57.7541664	-30.0229992	102.3646763	4.95035712	-61.7935203
2.75	275	0.004	-0.822	0.037	65.7755784	59.5303362	-24.2361234	103.0751442	5.03630082	-61.1632665
2.76	276	-0.005	-0.758	0.122	70.9894962	60.6189564	-17.6471064	103.8429079	5.05348956	-60.5330127
2.77	277	-0.013	-0.697	0.084	72.5364828	60.5043648	-13.6936962	104.6221308	5.03057124	-59.90848848
2.78	278	-0.028	-0.619	0.168	71.1613836	62.6816052	-10.5424272	105.3956241	4.9560867	-59.27823468
2.79	279	-0.008	-0.573	0.231	69.327918	73.3959198	-5.3285094	106.1461991	4.79565846	-58.5563076
2.8	280	0.055	-0.5	-0.041	53.4569814	82.0475856	2.005353	106.7248867	4.5263682	-57.7828143
2.81	281	0.061	-0.345	-0.303	40.5654264	89.3241522	12.4904844	107.1889826	4.1252976	-56.97494352
2.82	282	0.159	-0.222	-0.457	33.9764094	97.0590852	22.4599536	107.5785941	3.60390582	-56.12696568
2.83	283	0.282	-0.049	-0.582	24.2934192	87.949053	29.220858	107.8536139	3.04240698	-55.39357944
2.84	284	0.292	0.162	-0.629	26.7571386	58.8427866	26.356068	108.1458225	2.60122932	-54.92375388
2.85	285	0.236	0.298	-0.479	30.939732	35.9817624	11.0580894	108.4437607	2.39496444	-54.61435656
2.86	286	0.2	0.287	-0.337	19.4232762	30.080295	-6.0733548	108.6500255	2.3491278	-54.31068882
2.87	287	0.064	0.191	-0.162	1.2605076	35.3515086	-10.026765	108.6729439	2.32620948	-53.94972528
2.88	288	-0.09	0.044	-0.038	-13.4072172	52.0818822	-8.7089616	108.5526227	2.22880662	-53.43979266
2.89	289	-0.092	-0.2	-0.255	-28.934379	77.5785132	-8.1360036	108.2718733	2.03973048	-52.70067684
2.9	290	-0.042	-0.402	-0.572	-45.6074568	87.089616	-6.1879464	107.7791294	1.79908812	-51.88707648
2.91	291	-0.072	-0.408	-0.435	-40.680018	60.16059	-5.5576926	107.3780588	1.65584862	-51.31411848
2.92	292	-0.053	-0.296	-0.006	-4.3544808	30.5386614	-5.72958	107.3379517	1.61001198	-51.01045074
2.93	293	0.105	-0.167	0.15	15.8136408	24.923673	-10.8289062	107.5041095	1.6329303	-50.74116048
2.94	294	0.285	0.014	0.325	26.7571386	30.9970278	-12.7196676	107.7791294	1.65584862	-50.40884484
2.95	295	0.314	0.055	0.324	40.5081306	24.2361234	-5.3858052	108.2145775	1.65584862	-50.15101374
2.96	296	0.258	-0.032	0.214	41.3675676	20.7410796	2.0626488	108.6385664	1.56990492	-49.95620802
2.97	297	0.234	-0.153	0.203	40.7373138	23.204799	6.589017	109.0568257	1.42666542	-49.75567272
2.98	298	0.16	-0.178	0.298	41.539455	16.5584862	8.4797784	109.4750851	1.2891555	-49.62389238
2.99	299	0.046	-0.096	0.384	46.4668938	4.1825934	9.167328	109.9506402	1.19175264	-49.61243322
3	300	0.027	0.013	0.427	52.0245864	-5.6149884	11.0007936	110.5064095	1.1172681	-49.68691776
3.01	301	0.073	0.148	0.48	68.9268474	-26.356068	15.8709366	111.2054182	1.07143146	-49.97339676
3.02	302	0.26	0.288	0.7	95.8558734	-50.2484166	21.3140376	112.1737172	1.07143146	-50.50051812
3.03	303	0.539	0.274	0.542	113.1019092	-66.2339448	26.8717302	113.3196332	1.10007936	-51.18233814
3.04	304	0.961	0.128	-0.023	111.7841058	-61.2492102	35.523396	114.4483605	1.04278356	-51.85842858
3.05	305	1.724	-0.311	-0.816	100.0957626	-39.534102	48.128472	115.4624962	0.79068204	-52.3970091
3.06	306	2.88	-2.1	-2.55	55.8061092	-69.1560306	84.3394176	116.0297246	0.35523396	-53.36530812
3.07	307	1.708	-2.662	-0.742	21.3140376	-388.2363408	118.029348	116.2589078	1.08289062	-57.27861126
3.08	308	0.579	-1.272	0.36	96.4288314	-252.9036612	20.7983754	117.2100181	2.08556712	-59.5589841
3.09	309	-0.497	-1.905	-0.954	96.256944	-142.953021	-41.7686382	118.1611283	3.13980984	-60.58457892
3.1	310	-2.846	-3.747	-1.653	124.1027028	-4.8128472	-135.1034964	119.461743	4.33729206	-59.9600547
3.11	311	-3.619	-3.792	-0.54	35.6952834	63.8275212	-119.0033766	119.9086502	5.03057124	-58.82559786
3.12	312	-2.329	-0.879	0.227	36.0390582	21.8869956	42.112413	120.2696138	4.56074568	-58.8427866
3.13	313	-1.105	-0.093	0.802	95.7985776	6.1306506	59.9887026	121.2264536	4.01643558	-59.08342896
3.14	314	-0.147	0.774	0.399	102.4448904	5.3285094	11.6310474	122.2635076	3.89038482	-59.08915854
3.15	315	0.992	1.455	0.318	124.9621398	3.6096354	-10.7143146	123.5469335	3.96486936	-58.98029652
3.16	316	1.746	1.405	0.227	137.5672158	2.291832	-15.1260912	124.9506806	4.07946096	-58.85424576
3.17	317	1.678	0.485	-0.352	154.2402936	-27.0436176	-15.6990492	126.5091264	4.36593996	-58.95164862
3.18	318	0.597	-0.113	0.148	132.8689602	-46.696077	-15.8136408	127.8441185	4.77846972	-59.19802056
3.19	319	0.073	-0.19	0.287	143.0676126	-40.3362432	-30.2521824	129.2937023	5.2712136	-59.29542342
3.2	320	-0.051	-0.371	0.478	156.5321256	-47.2117392	-23.5485738	130.8750664	5.75249832	-59.4730404
3.21	321	-0.313	-0.435	0.863	160.2563526	-48.70143	-6.0733548	132.4793488	6.12492102	-59.76524898
3.22	322	-0.733	-0.582	0.83	163.3503258	-42.7426668	-7.6203414	134.1180086	6.4744254	-59.9887026
3.23	323	-1.375	-1.39	0.763	161.5168602	-45.3209778	-16.7303736	135.7452094	6.91560306	-60.16059
3.24	324	-1.486	-2.491	0.85	130.061466	-27.6738714	26.8717302	137.0229057	6.9327918	-60.52155354
3.25	325	-0.838	-1.955	0.875	81.8756982	30.366774	88.7511942	137.796399	6.1020027	-60.97419036
3.26	326	0.771	-1.184	1.169	85.4280378	82.5632478	84.6831924	138.6443768	4.91597964	-61.06586364
3.27	327	1.575	-0.96	1.664	122.2119414	83.7664596	23.6631654	139.9048844	4.11383844	-60.69917052
3.28	328	0.811	-3.578	1.947	561.5561358	79.5838662	11.2299768	145.6172757	3.38618178	-60.25226328
3.29	329	0.892	-3.781	3.695	191.1387888	147.3647976	-26.7571386	147.5882512	2.28037284	-59.2438572
3.3	330	-0.05	-1.877	3.999	154.1829978	121.180617	-51.3943326	149.1696153	1.50114996	-58.18961448
3.31	331	0.058	-0.343	3.865	105.4815678	90.9284346	-29.4500412	150.2467763	0.85370742	-57.49060572
3.32	332	0.282	-2.591	3.095	150.5733624	72.9948492	-7.5630456	151.765115	0.24064236	-57.07234638
3.33	333	0.289	-1.216	1.767	171.6582168	32.7731976	18.9649098	153.5069074	-0.1432395	-57.07807596
3.34	334	0.233	-0.752	1.478	147.4220934	-10.0840608	23.4339822	155.0023277	-0.16042824	-57.30725916
3.35	335	-0.278	-0.498	1.225	137.223441	-21.485925	19.1367972	156.3946157	-0.06302538	-57.5536311
3.36	336	-0.126	-0.46	0.708	145.5886278	-6.2452422	13.2353298	157.8728473	-0.06875496	-57.67968186
3.37	337	-0.028	-0.236	0.196	165.584862	8.7089616	13.8655836	159.5516143	-0.21199446	-57.75989598
3.38	338	0.087	-0.037	0.193	166.6734822	22.631841	17.6471064	161.2418404	-0.49847346	-57.83438052
3.39	339	-0.025	-0.035	0.801	154.4694768	49.4462754	21.6578124	162.8060157	-1.04851314	-57.88594674
3.4	340	0.023	-0.176	1.073	136.5931872	68.6976642	18.7357266	164.1811149	-1.77044022	-57.87448758
3.41	341	0.058	-0.304	1.134	120.607659	68.2392978	18.3919518	165.3957859	-2.48090814	-57.88021716
3.42	342	0.106	-0.387	1.197	109.4922738	62.2232388	18.048177	166.5015948	-3.13408026	-57.90886506
3.43	343	-0.089	-0.383	1.184	99.7519878	65.4890994	20.1681216	167.5100009	-3.82735944	-57.96616086
3.44	344	-0.082	-0.324	1.059	93.2775624	69.7862844	23.6631654	168.4553816	-4.56074568	-58.06356372
3.45	345	-0.14	-0.246	1.035	88.5793068	72.3072996	25.6112226	169.3549256	-5.3285094	-58.18961448
3.46	346	-0.106	-0.246	1.032	87.4333908	76.7190762	25.5539268	170.2430105	-6.1306506	-58.32139482
3.47	347	-0.013	-0.32	0.974	87.7198698	77.8649922	26.1268848	171.1425546	-6.94425096	-58.46463432
3.48	348	0.001	-0.331	0.895	87.2042076	75.630456	26.9863218	172.0363691	-7.734933	-58.63652172
3.49	349	-0.096	-0.197	0.813	83.7091638	71.333271	26.642547	172.9072652	-8.4797784	-58.81986828
3.5	350	-0.165	-0.082	0.759	80.7297822	65.7755784	27.2728008	173.7495135	-9.167328	-59.02613316
3.51	351	-0.172	-0.067	0.87	74.6564274	61.8221682	25.6112226	174.5287364	-9.80904096	-59.22666846
3.52	352	-0.154	0.014	0.934	66.5204238	59.3584488	20.7983754	175.2277451	-10.42210602	-59.39282628
3.53	353	-0.153	0.002	0.988	57.4676874	54.43101	15.2406828	175.829351	-10.97787528	-59.51887704
3.54	354	-0.2	-0.033	1.054	47.3263308	49.6181628	10.313244	176.3163653	-11.47634874	-59.59336158
3.55	355	-0.27	-0.073	1.108	34.6066632	45.9512316	5.5576926	176.6658697	-11.9461743	-59.63346864
3.56	356	-0.343	-0.051	1.078	20.912967	43.7739912	1.4896908	176.8721346	-12.38162238	-59.63919822
3.57	357	-0.364	-0.023	1.075	9.5683986	39.7632852	-1.3178034	176.9638079	-12.7769634	-59.61055032
3.58	358	-0.338	-0.055	1.117	2.4064236	34.7785506	-2.9220858	176.9695375	-13.11500862	-59.57044326
3.59	359	-0.335	-0.083	1.111	-0.9167328	28.0176462	-3.0366774	176.9523487	-13.39002846	-59.53606578
3.6	360	-0.334	-0.067	1.097	-1.8907614	22.91832	-2.578311	176.9179712	-13.63067082	-59.50741788
3.61	361	-0.335	-0.038	1.128	-2.005353	18.2773602	-1.9480572	176.8893233	-13.8082878	-59.47876998
3.62	362	-0.35	-0.023	1.143	-6.0733548	14.8396122	-1.8334656	176.8148388	-13.95725688	-59.46158124
3.63	363	-0.324	-0.189	1.14	-13.5791046	10.2559482	-2.6929026	176.6715993	-14.05465974	-59.42720376
3.64	364	-0.299	-0.195	1.098	-17.5898106	5.3285094	-2.4064236	176.4825232	-14.10622596	-59.40428544
3.65	365	-0.27	-0.167	0.994	-18.5638392	3.2085648	1.5469866	176.2361512	-14.14633302	-59.4157446
3.66	366	-0.192	-0.203	0.883	-16.5011904	1.8907614	7.5057498	176.0871821	-14.16352176	-59.49022914
3.67	367	-0.26	-0.152	0.809	-13.3499214	-3.6669312	3.8961144	175.9611314	-14.12914428	-59.53606578
3.68	368	-0.271	-0.163	0.782	-12.3758928	-10.8289062	2.0626488	175.8465398	-14.02028226	-59.5589841
3.69	369	-0.251	-0.163	0.793	-10.886202	-17.6471064	-0.1718874	175.7376778	-13.84839486	-59.57044326
3.7	370	-0.239	-0.158	0.81	-7.9641162	-22.058883	-0.1718874	175.6345453	-13.6364004	-59.57617284
3.71	371	-0.215	-0.161	0.8	-6.1879464	-23.2620948	0.0572958	175.5829791	-13.4072172	-59.59336158
3.72	372	-0.216	-0.175	0.759	-2.9793816	-24.7517856	0.859437	175.5600608	-13.16084526	-59.61055032
3.73	373	-0.204	-0.163	0.776	-1.718874	-26.1841806	1.0313244	175.5486016	-12.90301416	-59.63919822
3.74	374	-0.193	-0.158	0.852	-3.0939732	-27.1582092	0.572958	175.5256833	-12.63945348	-59.65638696
3.75	375	-0.196	-0.155	0.878	-5.3285094	-25.4393352	-0.1145916	175.4511988	-12.38735196	-59.66784612
3.76	376	-0.204	-0.165	0.894	-6.302538	-23.0902074	-0.1145916	175.3881734	-12.15816876	-59.67930528
3.77	377	-0.212	-0.163	0.903	-6.7609044	-21.8869956	-0.1145916	175.325148	-11.94044472	-59.69076444
3.78	378	-0.23	-0.14	0.935	-7.6776372	-22.631841	-0.2291832	175.256393	-11.7169911	-59.69649402
3.79	379	-0.215	-0.154	0.992	-11.1153852	-23.8350528	-0.9167328	175.147531	-11.47634874	-59.7022236
3.8	380	-0.201	-0.167	1.022	-14.7823164	-24.8663772	-1.6042824	174.9756436	-11.2299768	-59.7022236
3.81	381	-0.213	-0.165	1.01	-16.615782	-24.1788276	-2.1772404	174.8094858	-10.98933444	-59.69649402
3.82	382	-0.199	-0.205	1.016	-16.042824	-23.6631654	-2.2345362	174.6490576	-10.74869208	-59.69076444
3.83	383	-0.176	-0.204	1.017	-13.5791046	-24.4080108	-1.8334656	174.5172772	-10.50804972	-59.69076444
3.84	384	-0.172	-0.187	1.023	-11.5164558	-25.78311	-0.9740286	174.4026856	-10.25021862	-59.69649402
3.85	385	-0.185	-0.184	1.027	-10.026765	-27.1009134	-0.5156622	174.288094	-9.98665794	-59.71368276
3.86	386	-0.193	-0.187	1.022	-9.0527364	-27.215505	-0.286479	174.2021503	-9.7116381	-59.7308715
3.87	387	-0.176	-0.197	1.022	-7.6776372	-26.7571386	-0.4010706	174.1276658	-9.44807742	-59.74233066
3.88	388	-0.173	-0.197	1.023	-5.72958	-26.1268848	-0.2291832	174.0760996	-9.19024632	-59.76524898
3.89	389	-0.176	-0.191	1.028	-3.7815228	-25.0382646	0	174.0417221	-8.94387438	-59.78243772
3.9	390	-0.172	-0.189	1.04	-1.9480572	-23.7204612	0.1718874	174.001615	-8.71469118	-59.79962646
3.91	391	-0.161	-0.192	1.039	-0.8021412	-20.8556712	0.2291832	173.9958854	-8.5084263	-59.82254478
3.92	392	-0.153	-0.19	1.029	-0.286479	-18.5638392	0.3437748	174.001615	-8.32507974	-59.83973352
3.93	393	-0.14	-0.191	1.011	0.1718874	-16.5584862	0.4583664	174.0073446	-8.1646515	-59.85692226
3.94	394	-0.141	-0.183	0.994	0.6302538	-14.32395	0.572958	174.0188038	-8.021412	-59.874111
3.95	395	-0.14	-0.183	0.979	1.0313244	-11.9175264	0.6875496	173.9672375	-7.91254998	-59.88557016
3.96	396	-0.14	-0.185	0.976	1.6042824	-9.9121734	0.8021412	173.9901559	-7.81514712	-59.9027589
3.97	397	-0.136	-0.187	0.981	2.0626488	-8.0787078	0.859437	174.0130742	-7.734933	-59.91994764
3.98	398	-0.132	-0.188	0.976	1.8334656	-6.3598338	0.8021412	174.0359925	-7.67190762	-59.9314068
3.99	399	-0.126	-0.189	0.983	1.2032118	-4.1825934	0.6302538	174.0474517	-7.63180056	-59.94286596
4	400	-0.133	-0.184	0.983	0.6302538	-2.4064236	0.572958	173.7953501	-7.62607098	-59.94286596
4.01	401	-0.132	-0.186	0.991	0.0572958	-1.718874	0.4583664	173.8010797	-7.61461182	-59.94859554
4.02	402	-0.129	-0.183	1.013	-0.286479	-0.286479	0.4010706	173.7953501	-7.60888224	-59.95432512
4.03	403	-0.134	-0.175	1.015	-1.5469866	1.4896908	0.3437748	173.783891	-7.62607098	-59.95432512
4.04	404	-0.14	-0.175	1.01	-2.6356068	2.578311	0.286479	173.7552431	-7.6489893	-59.9600547
4.05	405	-0.145	-0.176	1.008	-3.0366774	3.0939732	0.1718874	173.6291923	-7.69482594	-59.9600547
4.06	406	-0.145	-0.18	1.003	-3.5523396	3.3804522	0	173.5890853	-7.72920342	-59.95432512
4.07	407	-0.146	-0.181	0.999	-4.2398892	3.6669312	-0.286479	173.5432486	-7.7635809	-59.94859554
4.08	408	-0.146	-0.183	0.993	-4.4117766	4.1252976	-0.4583664	173.497412	-7.80368796	-59.94286596
4.09	409	-0.147	-0.185	0.987	-4.297185	4.5263682	-0.572958	173.4515753	-7.84379502	-59.9314068
4.1	410	-0.147	-0.187	0.988	-3.7815228	4.8128472	-0.6302538	173.3312542	-7.9068204	-59.91994764
4.11	411	-0.148	-0.188	0.99	-2.9793816	5.156622	-0.7448454	173.2968767	-7.95265704	-59.90848848
4.12	412	-0.149	-0.192	0.993	-2.1199446	5.3858052	-0.7448454	173.2739584	-8.00995284	-59.89702932
4.13	413	-0.151	-0.194	0.997	-1.2032118	5.5003968	-0.572958	173.2567696	-8.06151906	-59.88557016
4.14	414	-0.152	-0.194	0.997	-0.572958	5.72958	-0.5156622	173.25104	-8.11881486	-59.874111
4.15	415	-0.153	-0.195	0.997	0.2291832	5.9014674	-0.4010706	173.1364484	-8.1932994	-59.86265184
4.16	416	-0.154	-0.192	0.998	0.4583664	5.9587632	-0.4010706	173.142178	-8.2505952	-59.85119268
4.17	417	-0.154	-0.191	0.997	0.4010706	6.016059	-0.3437748	173.142178	-8.307891	-59.8454631
4.18	418	-0.153	-0.19	0.99	0.1145916	5.9587632	-0.3437748	173.142178	-8.3651868	-59.83400394
4.19	419	-0.156	-0.191	0.989	-0.2291832	5.72958	-0.3437748	173.1364484	-8.4224826	-59.82827436
4.2	420	-0.159	-0.193	0.987	-0.5156622	5.3858052	-0.2291832	173.0103977	-8.50269672	-59.8168152
4.21	421	-0.161	-0.194	0.986	-0.6875496	4.9847346	-0.1718874	172.9989385	-8.54853336	-59.81108562
4.22	422	-0.162	-0.192	0.981	-0.8021412	4.5263682	-0.1145916	172.9874794	-8.59437	-59.80535604
4.23	423	-0.163	-0.192	0.978	-1.0886202	3.8388186	-0.1145916	172.9760202	-8.63447706	-59.79962646
4.24	424	-0.163	-0.19	0.972	-1.3750992	3.2085648	-0.1718874	172.9588315	-8.66312496	-59.79389688
4.25	425	-0.162	-0.188	0.969	-1.5469866	2.3491278	-0.0572958	172.7697553	-8.72042076	-59.79389688
4.26	426	-0.161	-0.187	0.977	-1.6042824	1.6615782	-0.0572958	172.7525666	-8.7376095	-59.7881673
4.27	427	-0.165	-0.189	0.981	-1.6042824	0.9740286	-0.0572958	172.7353778	-8.74333908	-59.7881673
4.28	428	-0.164	-0.191	0.981	-1.5469866	0.4010706	-0.0572958	172.7239187	-8.74906866	-59.7881673
4.29	429	-0.163	-0.193	0.984	-1.2605076	-0.0572958	0	172.7067299	-8.74906866	-59.7881673
4.3	430	-0.162	-0.194	0.985	-1.145916	-0.6302538	0	172.391603	-8.78344614	-59.77670814
4.31	431	-0.161	-0.194	0.985	-1.0886202	-1.4896908	0.1145916	172.3801439	-8.77198698	-59.78243772
4.32	432	-0.16	-0.194	0.987	-1.0886202	-2.005353	0.1718874	172.3686847	-8.74906866	-59.7881673
4.33	433	-0.16	-0.194	0.987	-0.9167328	-2.4064236	0.286479	172.3572256	-8.72615034	-59.79389688
4.34	434	-0.16	-0.194	0.986	-0.6302538	-2.6929026	0.286479	172.351496	-8.69750244	-59.79962646
4.35	435	-0.159	-0.194	0.985	-0.4010706	-2.9793816	0.286479	172.1910677	-8.69177286	-59.79962646
4.36	436	-0.16	-0.195	0.987	-0.1145916	-3.151269	0.3437748	172.1910677	-8.65739538	-59.80535604
4.37	437	-0.158	-0.195	0.993	0	-3.3231564	0.3437748	172.1910677	-8.62874748	-59.81108562
4.38	438	-0.158	-0.195	0.993	0	-3.3231564	0.4010706	172.1967973	-8.59437	-59.82254478
4.39	439	-0.157	-0.192	0.993	-0.3437748	-3.0939732	0.286479	172.1910677	-8.5657221	-59.82827436
4.4	440	-0.156	-0.191	0.993	-0.3437748	-2.9793816	0.286479	172.0363691	-8.54853336	-59.82827436
4.41	441	-0.156	-0.192	0.989	-0.4583664	-2.578311	0.286479	172.0306395	-8.52561504	-59.83400394
4.42	442	-0.154	-0.192	0.987	-0.6875496	-2.3491278	0.1718874	172.0249099	-8.49696714	-59.83973352
4.43	443	-0.153	-0.193	0.99	-0.6875496	-2.1199446	0.1145916	172.0191803	-8.4797784	-59.8454631
4.44	444	-0.154	-0.194	0.994	-0.4583664	-1.8334656	0.1718874	172.0134508	-8.46258966	-59.8454631
4.45	445	-0.151	-0.194	0.993	-0.3437748	-1.432395	0.1145916	171.7212422	-8.45686008	-59.83400394
4.46	446	-0.151	-0.193	0.991	-0.3437748	-0.9740286	0.0572958	171.7212422	-8.44540092	-59.83400394
4.47	447	-0.153	-0.193	0.99	-0.1718874	-0.3437748	0.0572958	171.7155126	-8.44540092	-59.83973352
4.48	448	-0.153	-0.193	0.991	-0.1145916	-0.0572958	0	171.7155126	-8.43967134	-59.83973352
4.49	449	-0.153	-0.191	0.991	-0.2291832	0.1145916	0	171.7155126	-8.44540092	-59.83400394
4.5	450	-0.152	-0.191	0.992	-0.5156622	0.3437748	-0.0572958	171.3602786	-8.47404882	-59.82254478
4.51	451	-0.153	-0.193	0.989	-0.6302538	0.572958	-0.1145916	171.3545491	-8.4797784	-59.8168152
4.52	452	-0.152	-0.194	0.984	-0.6875496	1.0886202	-0.1145916	171.3430899	-8.49123756	-59.8168152
4.53	453	-0.152	-0.195	0.98	-0.6302538	1.3178034	-0.1145916	171.3373603	-8.5084263	-59.81108562
4.54	454	-0.153	-0.196	0.986	-0.4583664	1.3178034	-0.1145916	171.3316307	-8.51988546	-59.81108562
4.55	455	-0.155	-0.195	0.996	-0.5156622	1.2605076	-0.1718874	171.1654729	-8.54853336	-59.79962646
4.56	456	-0.157	-0.196	1.002	-0.9740286	1.3750992	-0.2291832	171.1540138	-8.55999252	-59.79389688
4.57	457	-0.158	-0.195	1	-1.145916	1.2605076	-0.2291832	171.1425546	-8.57145168	-59.79389688
4.58	458	-0.156	-0.194	0.994	-0.9167328	1.2605076	-0.286479	171.1310954	-8.58291084	-59.7881673
4.59	459	-0.155	-0.195	0.989	-0.7448454	1.2605076	-0.2291832	171.1196363	-8.59437	-59.78243772
4.6	460	-0.156	-0.196	0.986	-0.7448454	1.3750992	-0.286479	170.9649376	-8.6230179	-59.77097856
4.61	461	-0.156	-0.197	0.986	-0.6302538	1.432395	-0.2291832	170.959208	-8.64020664	-59.76524898
4.62	462	-0.156	-0.197	0.985	-0.4010706	1.4896908	-0.1718874	170.9534785	-8.6516658	-59.76524898
4.63	463	-0.157	-0.197	0.983	-0.286479	1.3750992	-0.1718874	170.9477489	-8.66312496	-59.7595194
4.64	464	-0.158	-0.197	0.984	-0.1718874	1.2032118	-0.1145916	170.9477489	-8.67458412	-59.7595194
4.65	465	-0.158	-0.195	0.984	0	0.9740286	-0.0572958	170.6383516	-8.72042076	-59.74233066
4.66	466	-0.158	-0.194	0.983	-0.1145916	0.9167328	-0.1145916	170.632622	-8.72615034	-59.73660108
4.67	467	-0.157	-0.194	0.984	-0.2291832	0.6875496	-0.0572958	170.632622	-8.73187992	-59.73660108
4.68	468	-0.159	-0.196	0.987	-0.2291832	0.4010706	-0.1145916	170.6268924	-8.7376095	-59.73660108
4.69	469	-0.159	-0.197	0.988	-0.3437748	0.3437748	-0.1145916	170.6268924	-8.74333908	-59.7308715
4.7	470	-0.158	-0.196	0.987	-0.4583664	0.286479	-0.1145916	170.3174951	-8.77198698	-59.71368276
4.71	471	-0.158	-0.196	0.988	-0.4583664	0.1718874	-0.1145916	170.3117655	-8.77198698	-59.71368276
4.72	472	-0.158	-0.196	0.988	-0.572958	0.1145916	0	170.3060359	-8.77198698	-59.71368276
4.73	473	-0.157	-0.195	0.985	-0.6302538	0	-0.1145916	170.3003063	-8.77198698	-59.71368276
4.74	474	-0.157	-0.196	0.982	-0.572958	-0.0572958	0	170.2945768	-8.77198698	-59.71368276
4.75	475	-0.158	-0.199	0.983	-0.5156622	-0.286479	0	170.059664	-8.7949053	-59.7022236
4.76	476	-0.157	-0.198	0.984	-0.4583664	-0.5156622	0	170.0539344	-8.78917572	-59.7022236
4.77	477	-0.157	-0.198	0.985	-0.4583664	-0.6875496	0	170.0539344	-8.78344614	-59.70795318
4.78	478	-0.157	-0.197	0.985	-0.4010706	-0.6875496	0	170.0482048	-8.77771656	-59.70795318
4.79	479	-0.157	-0.197	0.988	-0.0572958	-0.7448454	0	170.0482048	-8.77198698	-59.70795318
4.8	480	-0.156	-0.197	0.991	-0.0572958	-0.8021412	0	169.8419399	-8.76052782	-59.69076444
4.81	481	-0.157	-0.197	0.99	-0.2291832	-0.6875496	0	169.8362104	-8.75479824	-59.69649402
4.82	482	-0.157	-0.197	0.99	-0.286479	-0.6302538	0	169.8362104	-8.74906866	-59.69649402
4.83	483	-0.158	-0.197	0.988	-0.1718874	-0.6302538	0	169.8304808	-8.7376095	-59.69649402
4.84	484	-0.157	-0.198	0.986	-0.1718874	-0.6875496	0	169.8304808	-8.73187992	-59.69649402
4.85	485	-0.156	-0.199	0.988	-0.1145916	-0.6302538	0	169.5841088	-8.72615034	-59.67930528
4.86	486	-0.155	-0.199	0.988	0	-0.5156622	0	169.5841088	-8.72042076	-59.67930528
4.87	487	-0.156	-0.199	0.988	0	-0.2291832	0	169.5783793	-8.72042076	-59.67930528
4.88	488	-0.155	-0.198	0.986	0	-0.1718874	0	169.5841088	-8.71469118	-59.67930528
4.89	489	-0.156	-0.196	0.987	0	-0.0572958	0	169.5841088	-8.71469118	-59.67930528
4.9	490	-0.156	-0.196	0.988	0	-0.0572958	0	169.1543903	-8.74333908	-59.65065738
4.91	491	-0.156	-0.197	0.986	-0.1145916	-0.1145916	0	169.1543903	-8.7376095	-59.65065738
4.92	492	-0.156	-0.197	0.986	-0.3437748	0	-0.0572958	169.1486608	-8.7376095	-59.65065738
4.93	493	-0.157	-0.198	0.989	-0.286479	0	0	169.1429312	-8.7376095	-59.65065738
4.94	494	-0.154	-0.2	0.988	-0.4010706	0.0572958	-0.1145916	169.1429312	-8.7376095	-59.65065738
4.95	495	-0.156	-0.199	0.986	-0.2291832	0.1145916	-0.0572958	168.9882325	-8.7376095	-59.63919822
4.96	496	-0.157	-0.198	0.988	-0.1718874	0	0	168.9882325	-8.7376095	-59.63346864
4.97	497	-0.156	-0.198	0.991	-0.1718874	0.0572958	0	168.9825029	-8.74333908	-59.63346864
4.98	498	-0.156	-0.198	0.989	-0.2291832	0.1145916	-0.0572958	168.9825029	-8.74333908	-59.63346864
4.99	499	-0.155	-0.198	0.985	-0.2291832	0.1718874	-0.0572958	168.9767734	-8.74333908	-59.63346864
5	500	-0.155	-0.198	0.982	-0.2291832	0.2291832	-0.0572958	168.8507226	-8.74333908	-59.62200948
5.01	501	-0.157	-0.199	0.984	-0.2291832	0.1145916	0	168.844993	-8.74906866	-59.62200948
5.02	502	-0.156	-0.199	0.986	-0.2291832	0.1145916	-0.0572958	168.844993	-8.74906866	-59.62200948
5.03	503	-0.157	-0.198	0.988	-0.2291832	-0.0572958	-0.0572958	168.8392634	-8.74906866	-59.6162799
5.04	504	-0.156	-0.198	0.99	-0.3437748	-0.2291832	-0.0572958	168.8392634	-8.74333908	-59.6162799
5.05	505	-0.157	-0.198	0.991	-0.4583664	-0.2291832	-0.0572958	168.7819676	-8.74906866	-59.6162799
5.06	506	-0.156	-0.197	0.987	-0.2291832	-0.0572958	0	168.7819676	-8.74906866	-59.6162799
5.07	507	-0.155	-0.198	0.981	0.1145916	0	0	168.7819676	-8.74906866	-59.6162799
5.08	508	-0.155	-0.199	0.983	0.3437748	0.1145916	0	168.7876972	-8.74906866	-59.6162799
5.09	509	-0.156	-0.2	0.991	0.1145916	0	0.0572958	168.7876972	-8.74906866	-59.6162799
5.1	510	-0.157	-0.199	0.993	-0.1145916	0	0	168.6788352	-8.7662574	-59.61055032
5.11	511	-0.157	-0.199	0.991	-0.1145916	-0.0572958	0	168.6788352	-8.7662574	-59.61055032
5.12	512	-0.156	-0.198	0.988	-0.1145916	-0.286479	0	168.6731056	-8.76052782	-59.61055032
5.13	513	-0.156	-0.199	0.984	-0.0572958	-0.2291832	0.0572958	168.6731056	-8.76052782	-59.61055032
5.14	514	-0.156	-0.199	0.982	0	-0.1718874	0	168.6731056	-8.76052782	-59.6162799
5.15	515	-0.156	-0.199	0.984	-0.1145916	-0.0572958	0	168.5126774	-8.74333908	-59.59336158
5.16	516	-0.155	-0.199	0.985	0	-0.0572958	0	168.5126774	-8.74333908	-59.59909116
5.17	517	-0.155	-0.2	0.985	0.1718874	0	0	168.5126774	-8.74333908	-59.59909116
5.18	518	-0.155	-0.199	0.985	0.1145916	0	0.0572958	168.5126774	-8.74333908	-59.59909116
5.19	519	-0.155	-0.199	0.986	0.286479	-0.1145916	0.1145916	168.518407	-8.74333908	-59.59909116
5.2	520	-0.156	-0.199	0.989	0.286479	-0.2291832	0.0572958	168.4782999	-8.74333908	-59.59909116
5.21	521	-0.156	-0.198	0.987	0.286479	-0.286479	0.1145916	168.4782999	-8.7376095	-59.59909116
5.22	522	-0.155	-0.198	0.986	0.2291832	-0.4010706	0.0572958	168.4840295	-8.73187992	-59.59909116
5.23	523	-0.155	-0.198	0.987	0.286479	-0.3437748	0.0572958	168.4897591	-8.73187992	-59.59909116
5.24	524	-0.155	-0.199	0.988	0.286479	-0.286479	0.0572958	168.4897591	-8.72615034	-59.60482074
5.25	525	-0.155	-0.2	0.989	0.3437748	-0.286479	0	168.4553816	-8.72042076	-59.59909116
5.26	526	-0.154	-0.199	0.988	0.286479	-0.2291832	0.1145916	168.4611112	-8.71469118	-59.59909116
5.27	527	-0.154	-0.2	0.987	0.3437748	-0.1718874	0.0572958	168.4611112	-8.71469118	-59.59909116
5.28	528	-0.153	-0.2	0.986	0.286479	-0.1145916	0	168.4668407	-8.71469118	-59.59909116
5.29	529	-0.155	-0.199	0.986	0.0572958	0	0	168.4668407	-8.71469118	-59.59909116
5.3	530	-0.155	-0.199	0.987	0.0572958	0	0.1145916	168.3923562	-8.69750244	-59.59336158
5.31	531	-0.154	-0.198	0.986	0	0	0.0572958	168.3923562	-8.69750244	-59.59336158
5.32	532	-0.155	-0.198	0.985	0	-0.0572958	0	168.3923562	-8.69750244	-59.59336158
5.33	533	-0.155	-0.199	0.987	0.0572958	0	0	168.3923562	-8.69750244	-59.59336158
5.34	534	-0.155	-0.198	0.988	0.0572958	-0.0572958	0	168.3923562	-8.69750244	-59.59336158
5.35	535	-0.155	-0.199	0.989	0	-0.1145916	0	168.3236012	-8.69750244	-59.587632
5.36	536	-0.154	-0.199	0.987	0	-0.0572958	0	168.3236012	-8.69750244	-59.587632
5.37	537	-0.155	-0.199	0.988	0.0572958	0	0	168.3236012	-8.69750244	-59.587632
5.38	538	-0.155	-0.199	0.989	0	0	0	168.3236012	-8.69750244	-59.587632
5.39	539	-0.155	-0.199	0.988	0	0.1145916	0	168.3236012	-8.69750244	-59.587632
5.4	540	-0.155	-0.199	0.988	0	0.1718874	0	168.2949533	-8.69750244	-59.587632
5.41	541	-0.154	-0.199	0.989	0	0.2291832	-0.0572958	168.2949533	-8.70323202	-59.58190242
5.42	542	-0.155	-0.199	0.99	0	0.1718874	0	168.2949533	-8.70323202	-59.58190242
5.43	543	-0.153	-0.198	0.987	0	0.1718874	-0.0572958	168.2949533	-8.70323202	-59.58190242
5.44	544	-0.154	-0.199	0.985	0	0.3437748	0	168.2949533	-8.7089616	-59.58190242
5.45	545	-0.155	-0.199	0.986	0	0.4010706	0	168.272035	-8.70323202	-59.57617284
5.46	546	-0.153	-0.199	0.984	0.1718874	0.5156622	0	168.272035	-8.7089616	-59.57617284
5.47	547	-0.154	-0.199	0.983	0.2291832	0.572958	0	168.272035	-8.71469118	-59.57617284
5.48	548	-0.154	-0.2	0.983	0.4010706	0.572958	0	168.2777646	-8.72042076	-59.57044326
5.49	549	-0.154	-0.2	0.986	0.4583664	0.5156622	0	168.2834942	-8.72615034	-59.57044326
5.5	550	-0.155	-0.199	0.988	0.4010706	0.3437748	0	168.272035	-8.73187992	-59.57044326
5.51	551	-0.155	-0.198	0.989	0.3437748	0.4010706	0.0572958	168.2777646	-8.7376095	-59.57044326
5.52	552	-0.155	-0.199	0.991	0.286479	0.4010706	0	168.2834942	-8.74333908	-59.57044326
5.53	553	-0.155	-0.198	0.993	0.1145916	0.4010706	0	168.2834942	-8.74333908	-59.57044326
5.54	554	-0.155	-0.198	0.99	0.1145916	0.4583664	0	168.2834942	-8.74906866	-59.57044326
5.55	555	-0.155	-0.199	0.988	0.1145916	0.4583664	0	168.272035	-8.74906866	-59.56471368
5.56	556	-0.155	-0.198	0.987	0.1718874	0.4010706	0	168.272035	-8.74906866	-59.56471368
5.57	557	-0.154	-0.199	0.984	0.2291832	0.2291832	0	168.272035	-8.75479824	-59.56471368
5.58	558	-0.154	-0.2	0.983	0.286479	0.3437748	0.0572958	168.2777646	-8.76052782	-59.56471368
5.59	559	-0.155	-0.2	0.984	0.3437748	0.286479	0.0572958	168.2834942	-8.76052782	-59.56471368
5.6	560	-0.155	-0.198	0.985	0.3437748	0.0572958	0	168.272035	-8.76052782	-59.5589841
5.61	561	-0.155	-0.199	0.988	0.1718874	-0.0572958	0	168.2777646	-8.75479824	-59.5589841
5.62	562	-0.155	-0.198	0.988	0	0	0	168.2777646	-8.75479824	-59.56471368
5.63	563	-0.155	-0.198	0.986	-0.1145916	0	0	168.272035	-8.75479824	-59.5589841
5.64	564	-0.153	-0.199	0.981	0	0.1718874	0	168.272035	-8.75479824	-59.5589841
5.65	565	-0.153	-0.199	0.982	0.3437748	0.1718874	0.0572958	168.2605759	-8.75479824	-59.5589841
5.66	566	-0.155	-0.2	0.993	0.0572958	0.0572958	0	168.2663054	-8.75479824	-59.5589841
5.67	567	-0.156	-0.2	0.997	-0.4010706	-0.0572958	0	168.2605759	-8.75479824	-59.5589841
5.68	568	-0.156	-0.198	0.995	-0.5156622	-0.0572958	0	168.2548463	-8.74906866	-59.5589841
5.69	569	-0.155	-0.198	0.99	-0.3437748	-0.0572958	0	168.2491167	-8.74906866	-59.5589841
5.7	570	-0.154	-0.199	0.987	-0.286479	-0.0572958	0	168.2147392	-8.73187992	-59.54752494
5.71	571	-0.155	-0.2	0.985	-0.1145916	0	0	168.2090096	-8.73187992	-59.54752494
5.72	572	-0.154	-0.199	0.984	0	0	0	168.2090096	-8.7376095	-59.55325452
5.73	573	-0.155	-0.197	0.984	0.0572958	0.0572958	0	168.2147392	-8.7376095	-59.55325452
5.74	574	-0.155	-0.197	0.983	0.0572958	0.1145916	0	168.2147392	-8.7376095	-59.55325452
5.75	575	-0.155	-0.198	0.985	0.1718874	0	0	168.1803617	-8.74333908	-59.54752494
5.76	576	-0.155	-0.198	0.986	0.1718874	-0.1145916	0	168.1803617	-8.74333908	-59.54752494
5.77	577	-0.155	-0.197	0.986	0.1145916	-0.1145916	0	168.1803617	-8.7376095	-59.54752494
5.78	578	-0.156	-0.198	0.988	0.1718874	-0.1718874	0.0572958	168.1860913	-8.7376095	-59.55325452
5.79	579	-0.154	-0.198	0.989	0.1718874	-0.1718874	0	168.1860913	-8.7376095	-59.55325452
5.8	580	-0.155	-0.199	0.989	0.1145916	-0.1145916	0	168.1803617	-8.72615034	-59.54752494
5.81	581	-0.154	-0.198	0.988	0.1145916	-0.1145916	0	168.1803617	-8.72615034	-59.54752494
5.82	582	-0.155	-0.199	0.989	0.1145916	-0.0572958	0	168.1803617	-8.72615034	-59.54752494
5.83	583	-0.155	-0.199	0.988	0	0	0	168.1803617	-8.72615034	-59.54752494
5.84	584	-0.154	-0.198	0.986	-0.1145916	0.0572958	0	168.1803617	-8.72615034	-59.54752494
5.85	585	-0.155	-0.198	0.986	-0.2291832	0	0	168.1746322	-8.72042076	-59.54752494
5.86	586	-0.155	-0.198	0.986	-0.2291832	-0.0572958	0	168.1689026	-8.72042076	-59.54752494
5.87	587	-0.155	-0.198	0.987	-0.2291832	-0.0572958	0	168.1689026	-8.72042076	-59.54752494
5.88	588	-0.154	-0.198	0.986	-0.286479	-0.0572958	0	168.163173	-8.72042076	-59.54752494
5.89	589	-0.154	-0.199	0.986	-0.2291832	0	0	168.163173	-8.71469118	-59.54752494
5.9	590	-0.155	-0.198	0.985	-0.1145916	-0.1145916	-0.0572958	168.1459843	-8.72042076	-59.54752494
5.91	591	-0.154	-0.199	0.989	-0.0572958	-0.0572958	0	168.1459843	-8.72042076	-59.54752494
5.92	592	-0.155	-0.199	0.99	-0.1718874	0	0	168.1459843	-8.72042076	-59.54752494
5.93	593	-0.155	-0.199	0.989	-0.1718874	0	0	168.1459843	-8.72042076	-59.54752494
5.94	594	-0.155	-0.198	0.99	-0.0572958	0	0	168.1402547	-8.72042076	-59.54752494
5.95	595	-0.156	-0.199	0.99	0	0	0	168.1287955	-8.72042076	-59.54179536
5.96	596	-0.155	-0.198	0.989	0	0	0	168.1287955	-8.72042076	-59.54179536
5.97	597	-0.156	-0.198	0.988	0	0.0572958	0	168.1287955	-8.72042076	-59.54179536
5.98	598	-0.154	-0.199	0.991	-0.0572958	0.1145916	0.0572958	168.1287955	-8.72615034	-59.54179536
5.99	599	-0.155	-0.197	0.989	0.0572958	0.0572958	0.0572958	168.1287955	-8.72615034	-59.54752494
6	600	-0.154	-0.197	0.985	0	0.0572958	0	168.1345251	-8.72042076	-59.54179536
6.01	601	-0.155	-0.198	0.987	0	0.1718874	0	168.1345251	-8.72042076	-59.54179536
6.02	602	-0.155	-0.198	0.988	0	0.1718874	0	168.1345251	-8.72615034	-59.54179536
6.03	603	-0.155	-0.198	0.987	0	0.286479	0	168.1345251	-8.72615034	-59.54179536
6.04	604	-0.155	-0.197	0.986	-0.0572958	0.4010706	0	168.1345251	-8.73187992	-59.54179536
6.05	605	-0.156	-0.198	0.986	0.0572958	0.4010706	0	168.1345251	-8.7376095	-59.54179536
6.06	606	-0.156	-0.199	0.987	0.1718874	0.286479	0	168.1345251	-8.74333908	-59.54179536
6.07	607	-0.155	-0.197	0.989	0.1145916	0.3437748	0.0572958	168.1345251	-8.74333908	-59.54179536
6.08	608	-0.155	-0.198	0.987	-0.0572958	0.286479	0	168.1345251	-8.74906866	-59.54179536
6.09	609	-0.156	-0.198	0.987	-0.1718874	0.2291832	0	168.1345251	-8.74906866	-59.54179536
6.1	610	-0.155	-0.197	0.989	-0.2291832	0.2291832	0	168.1345251	-8.74906866	-59.54179536
6.11	611	-0.155	-0.198	0.988	-0.2291832	0.1718874	0	168.1287955	-8.75479824	-59.53606578
6.12	612	-0.156	-0.199	0.986	-0.1145916	0.2291832	0	168.1287955	-8.75479824	-59.53606578
6.13	613	-0.155	-0.199	0.987	-0.0572958	0.286479	0	168.1287955	-8.76052782	-59.53606578
6.14	614	-0.155	-0.199	0.988	-0.1145916	0.2291832	0	168.1230659	-8.76052782	-59.53606578
6.15	615	-0.156	-0.199	0.988	0	0.1718874	0.0572958	168.1173364	-8.7662574	-59.53606578
6.16	616	-0.156	-0.198	0.987	0	0.1145916	0	168.1173364	-8.7662574	-59.53606578
6.17	617	-0.157	-0.198	0.985	0.0572958	0.0572958	0	168.1173364	-8.7662574	-59.53606578
6.18	618	-0.156	-0.197	0.985	0.0572958	0	0	168.1173364	-8.7662574	-59.53606578
6.19	619	-0.157	-0.198	0.986	0.1718874	-0.2291832	0	168.1173364	-8.7662574	-59.53606578
6.2	620	-0.158	-0.198	0.985	0.1718874	-0.3437748	0	168.1230659	-8.76052782	-59.54179536
6.21	621	-0.157	-0.198	0.991	0.0572958	-0.6302538	0	168.1230659	-8.75479824	-59.54179536
6.22	622	-0.156	-0.197	0.989	-0.1718874	-0.6302538	0.0572958	168.1230659	-8.74906866	-59.54179536
6.23	623	-0.155	-0.198	0.984	-0.1718874	-0.5156622	0	168.1173364	-8.74333908	-59.54179536
6.24	624	-0.153	-0.198	0.979	0.0572958	-0.4010706	0	168.1230659	-8.74333908	-59.54752494
6.25	625	-0.155	-0.198	0.984	0.1718874	-0.572958	0.0572958	168.1230659	-8.73187992	-59.54752494
6.26	626	-0.155	-0.198	0.997	-0.2291832	-0.7448454	0.0572958	168.1173364	-8.72615034	-59.54752494
6.27	627	-0.156	-0.198	0.997	-0.7448454	-0.7448454	0	168.1116068	-8.72042076	-59.55325452
6.28	628	-0.155	-0.198	0.991	-0.7448454	-0.6875496	0	168.1058772	-8.7089616	-59.55325452
6.29	629	-0.155	-0.199	0.985	-0.286479	-0.6875496	0	168.1001476	-8.70323202	-59.55325452
6.3	630	-0.154	-0.199	0.984	-0.0572958	-0.6302538	0	168.094418	-8.69177286	-59.55325452
6.31	631	-0.156	-0.198	0.984	0.1145916	-0.4010706	0	168.1001476	-8.69177286	-59.55325452
6.32	632	-0.154	-0.199	0.983	0.1145916	-0.4010706	0	168.1001476	-8.68604328	-59.55325452
6.33	633	-0.154	-0.197	0.985	0.2291832	-0.3437748	0	168.1001476	-8.6803137	-59.55325452
6.34	634	-0.155	-0.197	0.986	0.2291832	-0.2291832	0	168.1058772	-8.6803137	-59.55325452
6.35	635	-0.156	-0.198	0.988	0.1718874	-0.1718874	0	168.1058772	-8.6803137	-59.55325452
6.36	636	-0.156	-0.197	0.99	0.2291832	-0.2291832	-0.0572958	168.1058772	-8.6803137	-59.55325452
6.37	637	-0.156	-0.198	0.991	0.1718874	-0.2291832	-0.0572958	168.1058772	-8.67458412	-59.55325452
6.38	638	-0.156	-0.197	0.991	0.0572958	-0.1718874	-0.1145916	168.1116068	-8.67458412	-59.55325452
6.39	639	-0.155	-0.199	0.989	0.2291832	-0.1718874	-0.0572958	168.1116068	-8.66885454	-59.55325452
6.4	640	-0.154	-0.198	0.989	0.1718874	-0.1718874	-0.0572958	168.1173364	-8.66885454	-59.55325452
6.41	641	-0.154	-0.198	0.987	0.1145916	0	-0.0572958	168.1173364	-8.66885454	-59.55325452
6.42	642	-0.154	-0.198	0.986	0	0.1145916	0	168.1173364	-8.66885454	-59.55325452
