TimeStamp(s)	FrameCounter	AccX	AccY	AccZ	GyrX	GyrY	GyrZ	EulerX	EulerY	EulerZ
0.01	1	-0.007	-0.953	0.32	-6.4171296	-2.005353	1.4896908	108.2317662	-0.95683986	-68.2392978
0.02	2	-0.003	-0.948	0.314	-7.6776372	-2.9793816	1.6615782	108.1515521	-0.96256944	-68.27367528
0.03	3	-0.005	-0.944	0.313	-7.3338624	-3.151269	1.432395	108.0770675	-0.96256944	-68.30805276
0.04	4	-0.003	-0.941	0.312	-7.2192708	-3.3231564	1.145916	108.0083126	-0.96829902	-68.34243024
0.05	5	-0.003	-0.938	0.309	-7.3338624	-3.3804522	1.0886202	107.9280985	-0.95683986	-68.37680772
0.06	6	0	-0.935	0.306	-7.5057498	-3.3804522	0.9740286	107.8536139	-0.95683986	-68.4111852
0.07	7	0.001	-0.931	0.303	-7.9068204	-4.297185	1.0886202	107.7733998	-0.95683986	-68.45702184
0.08	8	0.002	-0.926	0.303	-7.9641162	-6.0733548	0.9740286	107.6931857	-0.9453807	-68.52004722
0.09	9	0	-0.925	0.303	-7.6776372	-8.2505952	0.7448454	107.6187011	-0.92246238	-68.60026134
0.1	10	-0.003	-0.921	0.302	-7.5630456	-10.7716104	0.6875496	107.5442166	-0.89381448	-68.70339378
0.11	11	-0.013	-0.913	0.304	-7.9068204	-13.0634424	0.9167328	107.4697321	-0.859437	-68.82944454
0.12	12	-0.022	-0.903	0.31	-7.9641162	-15.2406828	1.8907614	107.3895179	-0.8307891	-68.97841362
0.13	13	-0.033	-0.897	0.321	-8.5370742	-18.048177	3.724227	107.3093038	-0.80787078	-69.1560306
0.14	14	-0.048	-0.904	0.332	-9.740286	-21.0275586	6.0733548	107.2176305	-0.8021412	-69.37375464
0.15	15	-0.057	-0.932	0.333	-11.8602306	-22.8610242	7.7922288	107.1030389	-0.80787078	-69.614397
0.16	16	-0.056	-0.958	0.332	-15.183387	-23.1475032	8.8235532	106.9540699	-0.81932994	-69.86076894
0.17	17	-0.04	-0.982	0.325	-18.3919518	-23.6058696	10.2559482	106.7764529	-0.84224826	-70.11287046
0.18	18	-0.028	-1.01	0.304	-21.485925	-26.069589	12.1467096	106.5644584	-0.87662574	-70.39934946
0.19	19	-0.02	-1.039	0.295	-23.7204612	-28.8770832	13.9801752	106.3352752	-0.92246238	-70.70874678
0.2	20	-0.011	-1.068	0.276	-25.3820394	-30.8824362	15.469866	106.0831737	-0.97975818	-71.046792
0.21	21	-0.014	-1.072	0.257	-27.215505	-33.9191136	17.0168526	105.819613	-1.04278356	-71.4192147
0.22	22	-0.03	-1.036	0.253	-27.9603504	-36.955791	18.1627686	105.5503228	-1.10580894	-71.8202853
0.23	23	-0.051	-0.978	0.271	-27.1009134	-38.674665	18.2773602	105.2867621	-1.16883432	-72.23854464
0.24	24	-0.072	-0.921	0.304	-25.6112226	-39.0184398	17.3606274	105.0403901	-1.22613012	-72.65680398
0.25	25	-0.097	-0.882	0.348	-23.3766864	-37.815228	15.2406828	104.8226661	-1.27196676	-73.06360416
0.26	26	-0.108	-0.878	0.384	-20.7410796	-34.663959	12.7196676	104.6221308	-1.30061466	-73.4245677
0.27	27	-0.104	-0.897	0.41	-18.5065434	-30.3094782	10.0840608	104.4502434	-1.31207382	-73.7396946
0.28	28	-0.084	-0.931	0.435	-15.9855282	-25.0382646	7.734933	104.2955447	-1.32353298	-74.00325528
0.29	29	-0.078	-0.962	0.46	-13.5218088	-19.8243468	5.6722842	104.1637644	-1.32353298	-74.20952016
0.3	30	-0.079	-0.959	0.483	-10.7716104	-15.2406828	3.7815228	104.0892799	-1.32926256	-74.3699484
0.31	31	-0.091	-0.941	0.497	-7.9641162	-10.0840608	2.6356068	104.0090657	-1.32926256	-74.47308084
0.32	32	-0.094	-0.94	0.483	-7.2192708	-4.4117766	2.005353	103.9403108	-1.33499214	-74.51891748
0.33	33	-0.093	-0.958	0.445	-8.9381448	0.4583664	1.5469866	103.8486375	-1.35218088	-74.51891748
0.34	34	-0.085	-0.972	0.407	-11.5737516	3.6096354	1.2605076	103.7283163	-1.3750992	-74.49026958
0.35	35	-0.07	-0.972	0.38	-13.9228794	4.5263682	0.8021412	103.6022656	-1.4037471	-74.4558921
0.36	36	-0.057	-0.963	0.356	-15.9855282	3.437748	0.286479	103.4361077	-1.41520626	-74.4272442
0.37	37	-0.049	-0.942	0.331	-17.5898106	1.432395	0	103.2584908	-1.42093584	-74.41005546
0.38	38	-0.043	-0.921	0.32	-18.7930224	-1.2605076	-0.0572958	103.0694146	-1.41520626	-74.4272442
0.39	39	-0.049	-0.903	0.323	-20.4546006	-4.1825934	-0.1145916	102.8631497	-1.4037471	-74.46735126
0.4	40	-0.064	-0.895	0.32	-21.3140376	-5.0993262	-0.3437748	102.6568849	-1.39801752	-74.52464706
0.41	41	-0.077	-0.896	0.324	-21.2567418	-4.7555514	-0.6875496	102.4448904	-1.38082878	-74.5704837
0.42	42	-0.083	-0.898	0.33	-20.7983754	-3.437748	-0.8021412	102.2328959	-1.36364004	-74.60486118
0.43	43	-0.086	-0.892	0.332	-18.7930224	-1.6042824	-0.6302538	102.0438198	-1.35791046	-74.62204992
0.44	44	-0.086	-0.878	0.339	-16.042824	-1.145916	-0.4583664	101.8833916	-1.3464513	-74.63350908
0.45	45	-0.082	-0.854	0.36	-13.0061466	-1.0313244	-0.6302538	101.7859887	-1.35218088	-74.6564274
0.46	46	-0.078	-0.842	0.369	-10.599723	-0.4010706	-1.145916	101.6771267	-1.34072172	-74.6564274
0.47	47	-0.079	-0.849	0.364	-9.6256944	1.2605076	-1.8907614	101.5797238	-1.32353298	-74.64496824
0.48	48	-0.083	-0.865	0.369	-9.5111028	4.2398892	-2.6356068	101.482321	-1.31207382	-74.5991316
0.49	49	-0.089	-0.869	0.378	-8.9381448	7.3338624	-3.151269	101.3849181	-1.29488508	-74.52464706
0.5	50	-0.09	-0.859	0.38	-7.9068204	9.1100322	-3.2658606	101.3333519	-1.29488508	-74.43297378
0.51	51	-0.093	-0.842	0.381	-7.3338624	10.313244	-3.6669312	101.2531378	-1.28342592	-74.32984134
0.52	52	-0.095	-0.825	0.401	-6.5317212	11.5737516	-4.1252976	101.1843828	-1.27196676	-74.20952016
0.53	53	-0.095	-0.812	0.417	-5.6149884	12.0894138	-4.4690724	101.1213574	-1.25477802	-74.0834694
0.54	54	-0.09	-0.815	0.41	-5.0993262	12.8342592	-4.6409598	101.0640616	-1.23758928	-73.95168906
0.55	55	-0.079	-0.841	0.395	-5.3858052	13.750992	-4.1825934	101.0354137	-1.2318597	-73.81990872
0.56	56	-0.073	-0.876	0.377	-6.1879464	14.037471	-3.6669312	100.9666588	-1.22613012	-73.67666922
0.57	57	-0.077	-0.894	0.357	-7.448454	12.4904844	-3.2658606	100.8864446	-1.22040054	-73.55061846
0.58	58	-0.091	-0.903	0.345	-8.021412	10.3705398	-2.86479	100.8005009	-1.21467096	-73.44748602
0.59	59	-0.111	-0.919	0.351	-8.2505952	8.5370742	-2.6356068	100.7145572	-1.20894138	-73.36154232
0.6	60	-0.135	-0.954	0.388	-8.1932994	8.6516658	-1.8907614	100.662991	-1.2318597	-73.28705778
0.61	61	-0.154	-1.012	0.381	-9.453807	10.0840608	-0.5156622	100.5598586	-1.24904844	-73.18965492
0.62	62	-0.181	-1.056	0.406	-13.464513	9.3965112	-0.4010706	100.4223487	-1.26623718	-73.09798164
0.63	63	-0.185	-1.092	0.481	-13.8082878	13.4072172	-1.145916	100.2733796	-1.28342592	-72.9662013
0.64	64	-0.172	-1.122	0.488	-10.1986524	18.334656	-2.2345362	100.1645176	-1.30061466	-72.78858432
0.65	65	-0.151	-1.149	0.516	-4.9274388	19.8243468	-3.4950438	100.1186809	-1.31207382	-72.5937786
0.66	66	-0.145	-1.164	0.57	2.6929026	20.9702628	-4.9847346	100.1415992	-1.30061466	-72.37605456
0.67	67	-0.147	-1.165	0.633	7.9641162	23.2620948	-6.8182002	100.2160838	-1.28342592	-72.14114178
0.68	68	-0.143	-1.139	0.687	9.5683986	26.0122932	-9.2819196	100.3020275	-1.24331886	-71.87185152
0.69	69	-0.098	-1.152	0.707	10.6570188	28.074942	-11.5164558	100.3994303	-1.18602306	-71.57391336
0.7	70	0.137	-1.504	0.324	-3.5523396	30.7678446	-7.1046792	100.3535937	-1.18029348	-71.26451604
0.71	71	0.148	-1.908	-0.058	-28.3041252	10.4278356	7.9641162	100.0613851	-1.28342592	-71.18430192
0.72	72	0.234	-1.741	0.238	-6.1306506	-9.6256944	13.0634424	100.0040893	-1.39228794	-71.29889352
0.73	73	0.204	-1.391	0.351	1.2605076	-24.4653066	3.7815228	100.0270076	-1.38082878	-71.54526546
0.74	74	0.067	-1.149	0.231	5.5576926	-24.2361234	-5.7868758	100.090033	-1.27196676	-71.76871908
0.75	75	-0.124	-1.15	0.282	10.886202	-12.4904844	-7.2765666	100.2103542	-1.18602306	-71.8775811
0.76	76	-0.234	-1.244	0.234	4.7555514	-5.156622	-2.9793816	100.2619204	-1.145916	-71.92341774
0.77	77	-0.301	-1.222	0.082	-1.6042824	4.9274388	0.5156622	100.2390021	-1.16310474	-71.8775811
0.78	78	-0.232	-1.048	-0.005	-5.6149884	21.7151082	0.1145916	100.1759767	-1.20894138	-71.66558664
0.79	79	-0.141	-0.886	-0.087	-9.453807	25.9549974	-0.4010706	100.0728443	-1.25477802	-71.41348512
0.8	80	-0.082	-0.881	-0.16	-16.2720072	28.2468294	-1.0886202	99.8665794	-1.30634424	-71.14419486
0.81	81	-0.032	-0.994	-0.175	-22.5745452	28.4760126	-0.1718874	99.63166662	-1.35791046	-70.86917502
0.82	82	0.018	-1.115	-0.159	-25.78311	26.7571386	2.1199446	99.35664678	-1.432395	-70.6170735
0.83	83	0.059	-1.145	-0.121	-24.2934192	22.345362	2.5210152	99.10454526	-1.50114996	-70.40507904
0.84	84	0.063	-1.093	-0.09	-20.5691922	18.5638392	0.6875496	98.88682122	-1.54125702	-70.22746206
0.85	85	0.038	-0.995	-0.05	-16.5011904	16.329303	-1.2032118	98.68628592	-1.55271618	-70.06703382
0.86	86	0.004	-0.936	-0.004	-11.5164558	14.2093584	-3.0366774	98.56596474	-1.55271618	-69.92379432
0.87	87	-0.033	-0.93	0.051	-8.4224826	12.032118	-4.8128472	98.47429146	-1.52406828	-69.79774356
0.88	88	-0.056	-0.941	0.078	-8.307891	11.1153852	-5.8441716	98.38261818	-1.48396122	-69.68315196
0.89	89	-0.053	-0.949	0.093	-9.0527364	12.032118	-6.8182002	98.2909449	-1.43812458	-69.5571012
0.9	90	-0.05	-0.951	0.101	-10.6570188	12.5477802	-7.8495246	98.17062372	-1.38655836	-69.42532086
0.91	91	-0.059	-0.937	0.117	-12.2613012	13.5791046	-8.7089616	98.03884338	-1.32353298	-69.28208136
0.92	92	-0.061	-0.903	0.121	-13.6936962	16.5011904	-9.167328	97.8898743	-1.2605076	-69.11019396
0.93	93	-0.066	-0.849	0.128	-15.0114996	19.194093	-9.1100322	97.73517564	-1.2032118	-68.90965866
0.94	94	-0.066	-0.812	0.141	-16.5584862	19.767051	-8.9954406	97.55755866	-1.145916	-68.70912336
0.95	95	-0.047	-0.781	0.142	-19.480572	20.05353	-9.1100322	97.35129378	-1.09434978	-68.50285848
0.96	96	-0.021	-0.77	0.121	-22.4026578	20.1681216	-9.453807	97.12211058	-1.0313244	-68.2965936
0.97	97	0.006	-0.778	0.11	-24.637194	15.8136408	-9.6256944	96.86427948	-0.96256944	-68.13616536
0.98	98	0.035	-0.789	0.108	-26.4133638	11.3445684	-9.7975818	96.59498922	-0.88235532	-68.01584418
0.99	99	0.043	-0.805	0.092	-26.9863218	9.453807	-10.3705398	96.3142398	-0.79641162	-67.91271174
1	100	0.046	-0.816	0.072	-26.5852512	7.7922288	-10.6570188	96.03921996	-0.69900876	-67.82676804
1.01	101	0.049	-0.825	0.074	-25.6685184	5.2139178	-10.4278356	95.77565928	-0.6016059	-67.76374266
1.02	102	0.047	-0.824	0.082	-23.9496444	2.8074942	-9.8548776	95.53501692	-0.50993262	-67.72936518
1.03	103	0.046	-0.823	0.082	-21.772404	0.4583664	-8.9954406	95.3115633	-0.42398892	-67.71790602
1.04	104	0.064	-0.835	0.07	-22.345362	-1.2032118	-7.9641162	95.08810968	-0.3437748	-67.72936518
1.05	105	0.097	-0.862	0.052	-25.78311	-5.0993262	-6.1879464	94.81881942	-0.26356068	-67.76947224
1.06	106	0.132	-0.9	0.042	-30.7678446	-11.9175264	-3.437748	94.5094221	-0.21772404	-67.88979342
1.07	107	0.158	-0.928	0.035	-35.7525792	-19.480572	-0.7448454	94.14845856	-0.19480572	-68.08459914
1.08	108	0.152	-0.929	0.038	-37.8725238	-27.5592798	1.0886202	93.77030628	-0.18334656	-68.35961898
1.09	109	0.106	-0.903	0.095	-37.4714532	-34.8931422	1.7761698	93.39788358	-0.1718874	-68.70912336
1.1	110	0.038	-0.869	0.16	-34.663959	-38.9038482	1.4896908	93.05983836	-0.16042824	-69.0987348
1.11	111	-0.031	-0.84	0.222	-28.4187168	-38.5600734	0.4010706	92.77335936	-0.13178034	-69.48261666
1.12	112	-0.078	-0.844	0.266	-24.2934192	-32.7731976	-1.0886202	92.532717	-0.10313244	-69.80920272
1.13	113	-0.106	-0.886	0.27	-25.3247436	-23.6631654	-2.6356068	92.28061548	-0.0572958	-70.0441155
1.14	114	-0.101	-0.916	0.251	-29.0489706	-14.5531332	-4.3544808	91.9884069	-0.01145916	-70.187355
1.15	115	-0.061	-0.92	0.231	-30.3094782	-7.1046792	-5.6149884	91.69619832	0.04010706	-70.26183954
1.16	116	0.01	-0.912	0.218	-28.5906042	-2.4637194	-5.9587632	91.40971932	0.09740286	-70.29048744
1.17	117	0.11	-0.921	0.212	-26.356068	-4.0680018	-5.443101	91.14042906	0.14896908	-70.3305945
1.18	118	0.196	-0.953	0.218	-21.1421502	-14.5531332	-3.8961144	90.9284346	0.19480572	-70.473834
1.19	119	0.247	-1.034	0.264	-12.5477802	-29.6792244	-2.1199446	90.80238384	0.2291832	-70.77177216
1.2	120	0.233	-1.135	0.317	-3.8388186	-44.0031744	-0.3437748	90.77946552	0.26356068	-71.20149066
1.21	121	0.215	-1.242	0.432	6.2452422	-57.1239126	0.6875496	90.84822048	0.28074942	-71.7629895
1.22	122	0.184	-1.318	0.568	16.1574156	-69.041439	1.3178034	91.02010788	0.29793816	-72.44480952
1.23	123	0.142	-1.352	0.638	23.204799	-73.2240324	0.6302538	91.26075024	0.32658606	-73.1667366
1.24	124	0.107	-1.388	0.658	26.4133638	-70.9322004	-1.3750992	91.53577008	0.37815228	-73.86574536
1.25	125	0.083	-1.442	0.62	25.7258142	-63.7702254	-4.3544808	91.80506034	0.4583664	-74.49026958
1.26	126	0.022	-1.509	0.533	19.8816426	-52.6548402	-6.5317212	92.01132522	0.56149884	-75.00593178
1.27	127	-0.089	-1.59	0.382	5.2712136	-38.388186	-6.589017	92.06289144	0.64744254	-75.37835448
1.28	128	-0.204	-1.661	0.198	-11.0580894	-20.1681216	-5.8441716	91.95402942	0.72192708	-75.57888978
1.29	129	-0.251	-1.694	-0.014	-23.5485738	-3.6096354	-3.3231564	91.71338706	0.75057498	-75.61326726
1.3	130	-0.186	-1.596	-0.272	-29.7365202	3.151269	1.5469866	91.40398974	0.73338624	-75.59034894
1.31	131	-0.065	-1.351	-0.249	-19.3086846	-10.599723	3.0366774	91.20918402	0.70473834	-75.69921096
1.32	132	0.056	-1.218	-0.167	-13.8655836	-26.5852512	2.578311	91.06594452	0.6875496	-75.96277164
1.33	133	0.159	-1.091	-0.141	-12.605076	-25.8977016	3.2085648	90.93989376	0.67036086	-76.22060274
1.34	134	0.172	-0.985	-0.225	-9.3392154	-21.7151082	4.8128472	90.8424909	0.6302538	-76.43832678
1.35	135	0.19	-0.845	-0.165	-7.8495246	-20.05353	4.6409598	90.73935846	0.61879464	-76.62167334
1.36	136	0.22	-0.759	-0.165	-4.6982556	-20.8556712	3.4950438	90.69352182	0.59014674	-76.8336678
1.37	137	0.162	-0.754	-0.156	-1.5469866	-26.8717302	3.0366774	90.67633308	0.572958	-77.09722848
1.38	138	0.05	-0.818	-0.175	-0.1718874	-29.793816	2.578311	90.67633308	0.55576926	-77.39516664
1.39	139	-0.046	-0.893	-0.215	-0.2291832	-27.215505	2.4064236	90.67633308	0.5443101	-77.6644569
1.4	140	-0.112	-0.917	-0.257	-0.6302538	-21.6578124	2.291832	90.60757812	0.49847346	-77.88791052
1.41	141	-0.17	-0.889	-0.28	-1.0313244	-16.8449652	2.3491278	90.59611896	0.48128472	-78.05406834
1.42	142	-0.21	-0.858	-0.261	-1.6042824	-11.8029348	2.9220858	90.57893022	0.45263682	-78.16865994
1.43	143	-0.226	-0.872	-0.269	-1.7761698	-6.1306506	3.437748	90.56174148	0.42398892	-78.23168532
1.44	144	-0.22	-0.928	-0.251	-1.0886202	-2.5210152	3.151269	90.55028232	0.38961144	-78.25460364
1.45	145	-0.205	-0.996	-0.222	-1.0886202	0.2291832	2.4637194	90.34974702	0.19480572	-78.30616986
1.46	146	-0.179	-1.035	-0.189	-1.145916	2.4064236	1.8907614	90.33828786	0.17761698	-78.28325154
1.47	147	-0.14	-1.036	-0.16	-0.572958	4.8128472	1.718874	90.33255828	0.15469866	-78.23168532
1.48	148	-0.101	-1.018	-0.135	0.3437748	7.0473834	1.5469866	90.33828786	0.13750992	-78.16293036
1.49	149	-0.066	-1.003	-0.136	0.6875496	8.307891	1.432395	90.34401744	0.12032118	-78.08271624
1.5	150	-0.036	-0.984	-0.106	1.6615782	8.8235532	1.3750992	90.32109912	0.09740286	-77.99677254
1.51	151	-0.007	-0.96	-0.057	2.9793816	9.5111028	0.5156622	90.34974702	0.09167328	-77.89936968
1.52	152	0.01	-0.943	-0.055	2.9793816	9.7975818	-0.6875496	90.37839492	0.09167328	-77.80196682
1.53	153	0.019	-0.935	-0.037	4.3544808	9.3965112	-1.718874	90.41850198	0.10886202	-77.71029354
1.54	154	0.023	-0.926	-0.022	5.2712136	9.1100322	-1.9480572	90.4700682	0.12605076	-77.61862026
1.55	155	0.015	-0.907	0	6.4744254	8.59437	-1.7761698	90.53309358	0.1432395	-77.53267656
1.56	156	-0.003	-0.887	0.019	7.6776372	8.1360036	-1.5469866	90.60757812	0.15469866	-77.44673286
1.57	157	-0.024	-0.862	0.041	8.7662574	8.2505952	-1.6615782	90.6992514	0.1718874	-77.36651874
1.58	158	-0.04	-0.849	0.046	9.5683986	8.59437	-1.8334656	90.79665426	0.18334656	-77.28057504
1.59	159	-0.049	-0.838	0.036	9.740286	8.5370742	-1.4896908	90.89405712	0.2005353	-77.19463134
1.6	160	-0.05	-0.816	0.058	10.313244	7.3911582	-0.6875496	91.00291914	0.19480572	-77.1201468
1.61	161	-0.064	-0.786	0.095	11.172681	6.8182002	-0.1145916	91.11751074	0.19480572	-77.05139184
1.62	162	-0.077	-0.758	0.111	11.5737516	7.6776372	-0.0572958	91.23210234	0.18907614	-76.9769073
1.63	163	-0.087	-0.744	0.113	12.032118	9.2819196	-0.286479	91.35242352	0.18907614	-76.87950444
1.64	164	-0.092	-0.743	0.136	12.032118	11.9748222	-0.5156622	91.47847428	0.18907614	-76.76491284
1.65	165	-0.085	-0.744	0.133	11.8029348	14.6677248	-0.3437748	91.60452504	0.17761698	-76.62167334
1.66	166	-0.078	-0.731	0.129	10.9434978	15.5844576	-0.572958	91.71338706	0.17761698	-76.4612451
1.67	167	-0.072	-0.716	0.148	11.0007936	16.7303736	-1.3750992	91.82224908	0.17761698	-76.29508728
1.68	168	-0.075	-0.706	0.172	9.6256944	18.2200644	-2.6356068	91.91965194	0.19480572	-76.11174072
1.69	169	-0.068	-0.706	0.17	7.3911582	20.3973048	-4.1252976	91.99413648	0.22345362	-75.91120542
1.7	170	-0.062	-0.721	0.149	4.010706	23.3193906	-6.4744254	92.03997312	0.26929026	-75.67629264
1.71	171	-0.049	-0.756	0.088	-0.286479	27.215505	-8.880849	92.03424354	0.3437748	-75.40700238
1.72	172	-0.038	-0.819	0.016	-4.6409598	31.6272816	-10.599723	91.98267732	0.4297185	-75.09187548
1.73	173	-0.03	-0.891	-0.034	-9.6256944	37.0703826	-11.2872726	91.88527446	0.5156622	-74.72518236
1.74	174	-0.03	-0.918	-0.012	-10.4851314	40.1643558	-10.9434978	91.77641244	0.6016059	-74.32411176
1.75	175	-0.018	-0.864	0.062	-8.307891	36.382833	-10.5424272	91.69619832	0.68182002	-73.96314822
1.76	176	0.002	-0.771	0.192	-2.2345362	31.799169	-10.886202	91.67328	0.7734933	-73.64802132
1.77	177	0.023	-0.718	0.3	5.9587632	28.9916748	-10.8289062	91.73630538	0.86516658	-73.35581274
1.78	178	0.02	-0.755	0.356	13.464513	27.215505	-8.4797784	91.86808572	0.93392154	-73.0807929
1.79	179	0.003	-0.849	0.403	19.5378678	25.6685184	-3.5523396	92.06862102	0.95683986	-72.8229618
1.8	180	-0.029	-0.941	0.455	23.8923486	25.4393352	1.5469866	92.34937044	0.9167328	-72.57086028
1.81	181	-0.094	-1.011	0.504	29.6792244	25.3247436	4.010706	92.65303818	0.86516658	-72.31875876
1.82	182	-0.168	-1.042	0.531	33.804522	24.7517856	3.3231564	92.99681298	0.81360036	-72.07238682
1.83	183	-0.249	-1.096	0.519	37.9871154	27.6165756	-1.145916	93.38069484	0.80787078	-71.79736698
1.84	184	-0.313	-1.256	0.44	37.0130868	31.9137606	-5.6149884	93.75884712	0.83651868	-71.4765105
1.85	185	-0.351	-1.454	0.389	31.7418732	35.0650296	-7.448454	94.0797036	0.87662574	-71.12127654
1.86	186	-0.337	-1.603	0.34	24.5798982	42.7426668	-8.3651868	94.33180512	0.9167328	-70.69155804
1.87	187	-0.249	-1.701	0.234	14.8396122	56.0352924	-9.9121734	94.48650378	0.95683986	-70.1300592
1.88	188	-0.083	-1.79	0.071	5.443101	66.1193532	-10.6570188	94.54379958	0.99694692	-69.4711575
1.89	189	0.099	-1.843	-0.127	1.145916	61.306506	-9.1100322	94.55525874	1.01986524	-68.86382202
1.9	190	0.189	-1.75	-0.256	-1.6615782	50.8213746	-9.5111028	94.53807	1.0599723	-68.3538894
1.91	191	0.232	-1.576	-0.261	0.2291832	35.809875	-13.0634424	94.54379958	1.15164558	-67.99292586
1.92	192	0.299	-1.443	-0.26	-0.9167328	24.2361234	-15.9855282	94.53234042	1.2891555	-67.74082434
1.93	193	0.397	-1.261	-0.217	-4.870143	21.3140376	-17.6471064	94.48650378	1.43812458	-67.51737072
1.94	194	0.411	-1.045	-0.134	-6.8182002	21.485925	-21.6005166	94.4234784	1.6329303	-67.28818752
1.95	195	0.28	-0.889	-0.095	-9.5683986	20.2827132	-22.2880662	94.3088868	1.85065434	-67.0647339
1.96	196	0.09	-0.84	-0.136	-11.4018642	21.1421502	-16.2147114	94.1942952	1.98816426	-66.84700986
1.97	197	-0.156	-0.919	-0.141	-10.1986524	20.5118964	-5.2712136	94.09689234	2.02254174	-66.64074498
1.98	198	-0.29	-0.995	-0.105	-8.6516658	22.1734746	3.7815228	94.01094864	1.95951636	-66.42302094
1.99	199	-0.272	-1.025	-0.09	-10.2559482	27.5592798	6.7609044	93.91354578	1.86784308	-66.15946026
2	200	-0.136	-1.046	-0.111	-12.8342592	30.7678446	8.7089616	93.77030628	1.74179232	-65.86725168
2.01	201	0.002	-1.086	-0.125	-13.9228794	28.074942	13.464513	93.63279636	1.58136408	-65.603691
2.02	202	0.137	-1.114	-0.134	-13.750992	22.4599536	18.048177	93.49528644	1.38082878	-65.39742612
2.03	203	0.237	-1.08	-0.117	-10.599723	14.0947668	19.194093	93.38642442	1.1745639	-65.27137536
2.04	204	0.263	-1.013	-0.061	-6.4744254	4.583664	17.4179232	93.32339904	0.99694692	-65.23699788
2.05	205	0.231	-0.94	0.016	-3.5523396	-2.86479	14.2666542	93.2775624	0.9167328	-65.25418662
2.06	206	0.159	-0.903	0.054	-2.86479	-6.4744254	9.9694692	93.24318492	0.82505952	-65.32294158
2.07	207	0.074	-0.899	0.076	-3.6096354	-4.9274388	7.2192708	93.20880744	0.75630456	-65.3745078
2.08	208	-0.002	-0.907	0.1	-4.1252976	-0.7448454	5.3858052	93.16870038	0.70473834	-65.38596696
2.09	209	-0.039	-0.891	0.116	-4.010706	3.6096354	4.297185	93.12286374	0.65317212	-65.35731906
2.1	210	-0.04	-0.851	0.109	-3.2085648	6.9900876	3.4950438	93.09994542	0.60733548	-65.2885641
2.11	211	-0.023	-0.808	0.1	-2.6356068	9.2246238	2.6929026	93.07129752	0.572958	-65.2026204
2.12	212	0.006	-0.777	0.114	-2.578311	9.5683986	1.5469866	93.0483792	0.55003968	-65.11094712
2.13	213	0.042	-0.746	0.117	-2.5210152	7.6203414	0.1718874	93.0197313	0.53858052	-65.03646258
2.14	214	0.078	-0.73	0.098	-3.6096354	4.2398892	-1.718874	92.98535382	0.55576926	-64.99062594
2.15	215	0.093	-0.718	0.094	-5.6149884	1.3750992	-2.9793816	92.9337876	0.59587632	-64.9734372
2.16	216	0.09	-0.702	0.088	-6.9327918	-1.2032118	-4.1825934	92.85930306	0.63598338	-64.98489636
2.17	217	0.104	-0.706	0.06	-9.453807	-2.4064236	-5.5576926	92.7619002	0.69327918	-65.00781468
2.18	218	0.14	-0.764	-0.021	-15.6417534	-4.0680018	-5.156622	92.60720154	0.7448454	-65.04219216
2.19	219	0.18	-0.855	-0.11	-21.8296998	-9.5111028	-1.8907614	92.38374792	0.7734933	-65.13959502
2.2	220	0.227	-0.934	-0.142	-25.3247436	-18.2773602	1.6615782	92.1029985	0.79641162	-65.317212
2.21	221	0.255	-0.976	-0.15	-26.9863218	-26.2987722	2.6356068	91.82797866	0.77922288	-65.58077268
2.22	222	0.234	-0.96	-0.135	-27.788463	-38.5027776	1.4896908	91.54722924	0.78495246	-65.96465454
2.23	223	0.173	-0.931	-0.063	-26.1841806	-47.3263308	0.4010706	91.28366856	0.8021412	-66.4344801
2.24	224	0.069	-0.884	0.041	-24.7517856	-49.560867	-1.5469866	91.03156704	0.84224826	-66.92722398
2.25	225	-0.01	-0.848	0.114	-24.8090814	-48.5295426	-3.3804522	90.7851951	0.8880849	-67.4085087
2.26	226	-0.036	-0.875	0.14	-24.923673	-45.9512316	-3.0939732	90.527364	0.93965112	-67.8668751
2.27	227	-0.029	-0.961	0.151	-27.3873924	-44.2896534	-1.3750992	90.25234416	0.96256944	-68.30805276
2.28	228	-0.025	-1.044	0.146	-29.9657034	-42.9145542	0.4583664	89.94294684	0.96829902	-68.73204168
2.29	229	-0.021	-1.076	0.132	-32.4867186	-42.2843004	1.432395	89.6106312	0.96256944	-69.1560306
2.3	230	-0.009	-1.07	0.147	-37.3568616	-44.2323576	2.4637194	89.2382085	0.93965112	-69.59720826
2.31	231	-0.005	-1.023	0.179	-38.674665	-51.1651494	3.5523396	88.84859706	0.91100322	-70.10714088
2.32	232	0.001	-0.969	0.196	-33.6899304	-55.9207008	4.1252976	88.50482226	0.86516658	-70.66291014
2.33	233	0.008	-0.936	0.215	-26.1268848	-59.9314068	5.0993262	88.235532	0.81360036	-71.25878646
2.34	234	-0.001	-0.958	0.249	-16.615782	-65.2599162	5.0420304	88.06937418	0.75630456	-71.906229
2.35	235	-0.013	-1.012	0.343	-8.7089616	-71.7916374	2.86479	88.0063488	0.72192708	-72.61669692
2.36	236	-0.031	-1.103	0.476	-9.9121734	-75.4585686	0.1145916	87.90321636	0.7161975	-73.36154232
2.37	237	-0.022	-1.173	0.59	-16.5584862	-76.489893	-0.1718874	87.73705854	0.71046792	-74.11784688
2.38	238	0.007	-1.207	0.611	-13.1207382	-72.8802576	4.0680018	87.6052782	0.6589017	-74.83977396
2.39	239	0.039	-1.226	0.515	1.6042824	-66.2912406	11.8602306	87.62246694	0.52712136	-75.49294608
2.4	240	0.12	-1.283	0.331	8.7662574	-60.6189564	18.048177	87.72559938	0.34950438	-76.08309282
2.41	241	0.072	-1.363	0.155	9.5111028	-65.3745078	16.042824	87.82873182	0.18334656	-76.72480578
2.42	242	-0.054	-1.486	0.143	5.5576926	-77.34933	8.4797784	87.8917572	0.09167328	-77.48111034
2.43	243	-0.135	-1.538	0.23	5.9014674	-67.322565	0	87.96051216	0.0859437	-78.14574162
2.44	244	-0.116	-1.488	0.084	-1.0313244	-33.7472262	-3.5523396	87.95478258	0.12032118	-78.48378684
2.45	245	-0.055	-1.318	-0.222	-4.1825934	-7.6203414	-4.5263682	87.89748678	0.16042824	-78.56400096
2.46	246	0.026	-1.209	-0.246	0.7448454	15.5271618	-4.6982556	87.90321636	0.20626488	-78.4093023
2.47	247	0.051	-1.146	-0.307	1.3750992	23.9496444	-2.4637194	87.91467552	0.23491278	-78.17438952
2.48	248	-0.001	-1.141	-0.343	4.1252976	24.923673	0.9167328	87.95478258	0.2291832	-77.92801758
2.49	249	-0.109	-1.18	-0.388	7.6203414	24.064236	2.3491278	88.02926712	0.20626488	-77.68737522
2.5	250	-0.187	-1.188	-0.366	12.2613012	25.0382646	-0.1145916	88.13239956	0.2005353	-77.44100328
2.51	251	-0.172	-1.147	-0.357	14.896908	29.5646328	-5.9587632	88.27563906	0.2578311	-77.1487947
2.52	252	-0.106	-1.092	-0.357	17.1314442	33.4034514	-11.6883432	88.44752646	0.37815228	-76.81647906
2.53	253	-0.024	-1.085	-0.305	17.0741484	34.663959	-15.9855282	88.61941386	0.53858052	-76.47843384
2.54	254	0.032	-1.103	-0.262	14.2666542	32.945085	-16.4438946	88.76265336	0.69900876	-76.15184778
2.55	255	0.067	-1.079	-0.196	13.9801752	32.658606	-15.2979786	88.88870412	0.859437	-75.8309913
2.56	256	0.044	-1.044	-0.145	15.756345	33.0023808	-14.7823164	89.05486194	1.0026765	-75.50440524
2.57	257	-0.023	-1.043	-0.138	18.9649098	33.6326346	-14.4958374	89.24393808	1.145916	-75.16636002
2.58	258	-0.105	-1.067	-0.12	22.9756158	36.2109456	-14.2093584	89.48458044	1.28342592	-74.81112606
2.59	259	-0.153	-1.065	-0.073	27.1009134	39.5913978	-14.1520626	89.75960028	1.41520626	-74.41578504
2.6	260	-0.118	-1.031	-0.05	28.8770832	41.4248634	-14.3812458	90.05753844	1.54125702	-74.00325528
2.61	261	-0.03	-0.964	-0.037	30.2521824	40.393539	-14.0947668	90.36693576	1.67303736	-73.60218468
2.62	262	0.064	-0.901	-0.021	31.4553942	35.5806918	-13.2353298	90.69352182	1.79335854	-73.24122114
2.63	263	0.126	-0.852	0.015	31.2835068	30.0229992	-12.4904844	91.0143783	1.90795014	-72.94328298
2.64	264	0.145	-0.797	0.02	32.4867186	24.4653066	-11.45916	91.35242352	2.01108258	-72.69118146
2.65	265	0.115	-0.73	0.064	37.3568616	17.7044022	-10.599723	91.73630538	2.11421502	-72.5078349
2.66	266	0.069	-0.682	0.11	40.9092012	14.8396122	-10.599723	92.15456472	2.21734746	-72.35313624
2.67	267	0.041	-0.67	0.07	41.8832298	17.3606274	-11.45916	92.58428322	2.3204799	-72.16978968
2.68	268	0.012	-0.667	0.091	46.2950064	21.4286292	-11.6310474	93.05983836	2.42361234	-71.94633606
2.69	269	-0.019	-0.649	0.21	51.0505578	27.4446882	-12.4331886	93.58695972	2.52674478	-71.66558664
2.7	270	-0.031	-0.623	0.147	50.8786704	32.1429438	-14.3812458	94.11981066	2.64133638	-71.333271
2.71	271	-0.037	-0.61	0.061	50.2484166	35.236917	-16.8449652	94.64120244	2.77311672	-70.96657788
2.72	272	-0.027	-0.609	0.086	52.998615	39.5913978	-19.3086846	95.19124212	2.9220858	-70.55404812
2.73	273	-0.03	-0.622	0.06	55.003968	41.825934	-20.2254174	95.7699297	3.07678446	-70.11287046
2.74	274	-0.029	-0.601	0.067	54.43101	41.6540466	-20.1108258	96.33715812	3.22575354	-69.67742238
2.75	275	-0.009	-0.594	0.103	55.863405	41.5967508	-20.2254174	96.92730486	3.36899304	-69.2419743
2.76	276	0.026	-0.592	0.072	53.8007562	40.5081306	-20.340009	97.49453328	3.51223254	-68.8122558
2.77	277	0.069	-0.571	0.1	57.582279	36.8984952	-19.194093	98.09613918	3.64401288	-68.41691478
2.78	278	0.085	-0.569	0.179	65.4890994	24.4653066	-17.18874	98.77222962	3.77579322	-68.14189494
2.79	279	0.104	-0.569	0.272	68.9841432	18.3919518	-16.2147114	99.48842712	3.90757356	-67.92990048
2.8	280	0.083	-0.609	0.27	69.8435802	15.9855282	-15.183387	100.2160838	4.02789474	-67.74082434
2.81	281	-0.024	-0.649	0.247	71.333271	16.042824	-14.1520626	100.94947	4.13675676	-67.54601862
2.82	282	-0.138	-0.694	0.186	69.7862844	22.058883	-13.9228794	101.6713971	4.22843004	-67.29964668
2.83	283	-0.171	-0.733	0.128	67.036086	34.4347758	-13.0061466	102.3761354	4.27999626	-66.92722398
2.84	284	-0.127	-0.737	0.036	60.7908438	50.993262	-11.2299768	103.023578	4.26280752	-66.4058322
2.85	285	-0.034	-0.675	-0.164	52.0818822	63.3691548	-8.9381448	103.5736177	4.18832298	-65.7755784
2.86	286	0.081	-0.573	-0.388	40.5081306	77.4066258	-6.3598338	104.0262545	4.05081306	-65.01354426
2.87	287	0.128	-0.423	-0.459	37.4714532	86.0582916	-3.3804522	104.455973	3.85027776	-64.17702558
2.88	288	0.111	-0.26	-0.337	39.3049188	94.3661826	-1.2032118	104.8971506	3.60390582	-63.27175194
2.89	289	0.099	-0.066	-0.245	36.4974246	100.9551996	2.4064236	105.31541	3.2945085	-62.31491208
2.9	290	0.13	0.155	-0.062	41.9405256	111.6122184	6.9900876	105.7852355	2.91635622	-61.27212852
2.91	291	0.161	0.351	0.032	42.2270046	115.6229244	8.4797784	106.2493315	2.4923673	-60.19496748
2.92	292	0.156	0.466	0.005	36.0390582	107.2004418	7.3338624	106.638943	2.0912967	-59.20375014
2.93	293	-0.008	0.355	-0.049	26.069589	107.429625	4.6409598	106.925422	1.71314442	-58.20680322
2.94	294	-0.116	0.019	-0.186	0.6875496	111.3257394	-2.578311	106.9483403	1.39228794	-57.1525605
2.95	295	-0.05	-0.276	-0.31	-23.5485738	115.3937412	-8.7089616	106.6962388	1.11153852	-56.05248114
2.96	296	0.037	-0.481	-0.43	-41.4248634	110.9246688	-13.4072172	106.2779794	0.89381448	-54.9753201
2.97	297	0.097	-0.573	-0.518	-56.4936588	86.9177286	-13.9801752	105.7050214	0.76776372	-54.12734226
2.98	298	0.121	-0.459	-0.4	-49.7900502	56.8947294	-10.7143146	105.2008184	0.69900876	-53.56584342
2.99	299	0.198	-0.319	-0.115	-18.334656	41.9978214	-5.3285094	105.0117422	0.6302538	-53.15904324
3	300	0.337	-0.183	0.221	7.0473834	41.1383844	-0.0572958	105.0976859	0.5443101	-52.75797264
3.01	301	0.388	-0.088	0.317	21.772404	33.1169724	3.9534102	105.31541	0.41252976	-52.44857532
3.02	302	0.357	-0.144	0.279	20.1681216	23.204799	6.875496	105.5216749	0.28074942	-52.24804002
3.03	303	0.273	-0.231	0.152	7.0473834	24.2361234	8.307891	105.5904298	0.12605076	-52.03604556
3.04	304	0.36	-0.278	-0.028	0.9740286	24.2934192	12.2040054	105.5961594	-0.0572958	-51.84123984
3.05	305	0.725	-0.354	-0.23	-9.2819196	25.0955604	21.3713334	105.4643791	-0.2291832	-51.63497496
3.06	306	1.353	-0.449	-0.271	-6.589017	-1.6042824	38.674665	105.4013537	-0.59587632	-51.75529614
3.07	307	2.108	-1.202	-0.667	-3.6669312	-66.3485364	61.9367598	105.3841649	-0.99694692	-52.54597818
3.08	308	2.954	-2.815	-1.207	-81.8756982	-149.4847422	94.9964364	104.6164012	-1.4896908	-54.21901554
3.09	309	1.555	0.08	1.456	15.4125702	-369.9589806	63.8275212	104.9086098	-1.07716104	-57.89167632
3.1	310	0.451	0.456	1.07	100.0957626	-327.3882012	28.934379	106.0258779	-0.4010706	-61.0486749
3.11	311	-0.769	0.332	1.069	96.3142398	-321.6586212	8.307891	107.0457431	0.50420304	-64.07962272
3.12	312	-1.57	-0.038	1.683	176.0699934	-273.9885156	-3.151269	108.8276425	1.44385416	-66.60063792
3.13	313	-1.724	-0.826	1.319	201.7958076	-194.0035788	1.3750992	110.8444547	2.13713334	-68.36534856
3.14	314	-1.333	-1.403	0.04	132.9835518	-81.8756982	7.7922288	112.1737172	2.38350528	-69.12165312
3.15	315	-2.038	-2.31	-2.646	9.2819196	61.592985	18.334656	112.2825793	1.97097552	-68.63463882
3.16	316	-3.069	-3.884	-3.401	-0.9167328	175.038669	-1.4896908	112.2940384	1.28342592	-67.04754516
3.17	317	-2.135	-3.378	-0.652	9.740286	81.7611066	4.8128472	112.3971709	0.91100322	-66.32561808
3.18	318	-0.758	-0.834	-1.45	-11.2872726	72.479187	52.5975444	112.2768497	0.13750992	-65.87298126
3.19	319	0.672	-0.467	-0.659	45.4928652	73.4532156	33.0596766	112.7237569	-0.45263682	-65.32867116
3.2	320	1.429	-0.458	-0.271	99.4655088	73.7969904	27.788463	113.7149743	-0.99121734	-64.75571316
3.21	321	1.207	-0.38	-0.03	134.1294678	44.5761324	40.6227222	115.0671551	-1.5469866	-64.50934122
3.22	322	0.234	-0.238	0.421	150.7452498	22.631841	36.096354	116.5912234	-1.97097552	-64.44631584
3.23	323	-0.322	-0.236	0.763	155.3289138	43.4302164	11.0007936	118.1496692	-2.27464326	-64.09681146
3.24	324	-0.589	-0.102	0.948	159.282324	72.8229618	-14.1520626	119.7253037	-2.51528562	-63.38634354
3.25	325	-0.659	-0.147	0.805	162.6627762	94.1369994	-15.9855282	121.3353157	-2.88770832	-62.49825864
3.26	326	-0.469	-0.187	0.642	163.4649174	116.1385866	7.3911582	122.9281389	-3.58671708	-61.55860752
3.27	327	-0.231	-0.364	0.684	169.9966386	123.5870406	30.9970278	124.5782579	-4.54355694	-60.71062968
3.28	328	-0.152	-0.665	0.858	171.7155126	125.191323	45.3782736	126.2398361	-5.65509546	-59.95432512
3.29	329	-0.36	-1.278	1.093	179.335854	120.7795464	47.7274014	127.9701693	-6.78382272	-59.27823468
3.3	330	-0.364	-2.423	1.489	190.9669014	111.72681	53.5142772	129.8265532	-7.91254998	-58.74538374
3.31	331	-0.279	-2.944	1.577	170.2831176	107.3723292	77.8076964	131.493861	-9.21316464	-58.43598642
3.32	332	-0.224	-2.333	1.396	170.6268924	108.9766116	104.9659056	133.1955463	-10.73150334	-58.33858356
3.33	333	0.006	-1.763	1.231	176.1272892	88.1209404	112.9873176	135.0060935	-12.16389834	-58.49328222
3.34	334	-0.285	-3.096	2.058	346.5249984	-138.1974696	-25.6112226	138.6787543	-10.98360486	-59.15218392
3.35	335	2.061	-2.336	3.066	474.2373366	-146.5053606	-43.1437374	143.6004635	-9.57412818	-59.6449278
3.36	336	-0.453	-1.753	3.158	172.1165832	-6.302538	12.1467096	145.3651742	-9.60277608	-59.7595194
3.37	337	-0.539	-0.851	3.403	175.2105564	15.9282324	49.6754586	147.1929102	-10.01530584	-60.06891672
3.38	338	-0.928	-1.538	3.464	162.720072	34.091001	55.4050386	148.8945955	-10.60545258	-60.34966614
3.39	339	-0.606	-1.194	2.405	161.287677	47.7274014	67.895523	150.5905511	-11.36748672	-60.69344094
3.4	340	-0.938	-0.873	1.831	165.298383	39.9924684	58.0406454	152.3266139	-12.00919968	-61.00283826
3.41	341	-0.718	-0.582	1.247	179.6796288	28.7051958	45.3209778	154.2001865	-12.47902524	-61.27212852
3.42	342	-0.558	-0.557	0.947	191.8263384	-1.2605076	40.680018	156.2284579	-12.64518306	-61.62736248
3.43	343	-0.184	-0.369	0.851	191.94093	-31.3980984	36.2109456	158.2739179	-12.50767314	-62.05708098
3.44	344	-0.197	-0.228	0.876	185.924871	-54.5456016	32.6013102	160.2678118	-12.12952086	-62.52690654
3.45	345	-0.267	-0.166	0.892	169.4809764	-62.6816052	28.4760126	162.0898182	-11.64250656	-62.9680842
3.46	346	-0.284	-0.288	0.94	149.828517	-64.744254	25.78311	163.6998302	-11.1153852	-63.37488438
3.47	347	-0.278	-0.385	1.073	130.8063114	-63.9421128	22.1734746	165.1035773	-10.5710751	-63.73584792
3.48	348	-0.231	-0.194	1.113	113.9613462	-61.879464	18.6784308	166.3239778	-10.03249458	-64.03951566
3.49	349	-0.229	0.084	1.16	103.5908064	-60.7908438	17.3033316	167.4355163	-9.48818448	-64.32026508
3.5	350	-0.172	0.167	1.144	104.6221308	-54.144531	16.5011904	168.558514	-9.00117018	-64.5723666
3.51	351	-0.103	0.205	1.051	106.856667	-43.3729206	18.5065434	169.6872413	-8.6230179	-64.81300896
3.52	352	-0.092	-0.019	1.025	102.1011156	-31.5699858	19.8816426	170.7644023	-8.35945722	-65.04792174
3.53	353	0.017	-0.084	0.935	95.4548028	-25.210152	18.2773602	171.7670788	-8.14746276	-65.25418662
3.54	354	0.035	-0.065	0.829	85.7718126	-24.4080108	15.4125702	172.6608933	-7.9354683	-65.42034444
3.55	355	0.006	-0.056	0.832	71.333271	-25.8977016	11.45916	173.4114683	-7.69482594	-65.55212478
3.56	356	-0.078	-0.077	0.829	51.56622	-32.085648	7.1046792	173.9500488	-7.3911582	-65.64379806
3.57	357	-0.126	-0.029	0.894	36.1536498	-31.799169	6.7609044	174.3339307	-7.08749046	-65.73547134
3.58	358	-0.185	-0.025	1.109	28.9916748	-20.3973048	6.6463128	174.643328	-6.89268474	-65.80995588
3.59	359	-0.198	0.005	1.254	24.2934192	-13.2926256	5.443101	174.8954295	-6.77236356	-65.87298126
3.6	360	-0.204	-0.028	1.276	19.3086846	-7.2192708	4.3544808	175.1016944	-6.70933818	-65.9188179
3.61	361	-0.208	-0.067	1.262	15.0114996	-1.2605076	4.297185	175.2621226	-6.7036086	-65.95892496
3.62	362	-0.18	-0.022	1.301	13.6936962	-1.0886202	4.7555514	175.4053621	-6.69787902	-66.01049118
3.63	363	-0.122	-0.123	1.187	13.178034	0.4583664	5.443101	175.5486016	-6.70933818	-66.0620574
3.64	364	-0.147	0.053	1.063	8.3651868	-1.0886202	5.2712136	175.6402749	-6.7036086	-66.11362362
3.65	365	-0.337	-0.044	0.992	0.4010706	-11.6310474	5.8441716	175.6345453	-6.65204238	-66.19383774
3.66	366	-0.254	-0.101	0.893	-12.7769634	-26.1268848	6.7609044	175.5199537	-6.39994086	-66.27405186
3.67	367	-0.05	-0.137	0.802	-24.923673	-37.1849742	5.3285094	175.2793114	-6.03324774	-66.3485364
3.68	368	-0.024	-0.019	0.848	-23.5485738	-47.7846972	1.8334656	175.0501282	-5.56342218	-66.39437304
3.69	369	-0.105	-0.055	1.02	-18.9649098	-53.8007562	-1.0886202	174.8667816	-5.02484166	-66.41729136
3.7	370	-0.113	-0.064	0.968	-18.2773602	-42.97185	-2.578311	174.6891646	-4.60085274	-66.42302094
3.71	371	-0.049	-0.087	0.986	-8.880849	-26.4706596	-2.4064236	174.6032209	-4.33729206	-66.41729136
3.72	372	-0.043	-0.13	0.968	-1.5469866	-14.3812458	-1.432395	174.5860322	-4.19405256	-66.41156178
3.73	373	-0.113	-0.126	0.96	0.6302538	-10.886202	-0.1718874	174.5974913	-4.08519054	-66.41729136
3.74	374	-0.126	-0.098	1.071	2.6929026	-8.9381448	0.2291832	174.6261392	-3.99924684	-66.42302094
3.75	375	-0.097	-0.047	1.122	5.0420304	-6.2452422	0.4010706	174.7006238	-3.93622146	-66.4344801
3.76	376	-0.089	-0.01	1.087	5.72958	-6.302538	0.4583664	174.7636492	-3.87892566	-66.44020968
3.77	377	-0.092	-0.069	1.041	3.5523396	-7.6203414	-0.572958	174.7980266	-3.79871154	-66.44020968
3.78	378	-0.092	-0.085	0.985	1.0886202	-10.2559482	-0.4583664	174.8152154	-3.70130868	-66.44020968
3.79	379	-0.072	-0.089	0.969	-2.0626488	-12.891555	-0.1145916	174.7922971	-3.56952834	-66.44593926
3.8	380	-0.057	-0.145	0.947	-5.72958	-14.4958374	-0.6302538	174.7178125	-3.42055926	-66.45166884
3.81	381	-0.031	-0.1	0.917	-8.3651868	-15.3552744	-0.4583664	174.6318688	-3.2658606	-66.45739842
3.82	382	-0.072	-0.06	0.91	-11.8602306	-14.3812458	-0.6875496	174.5172772	-3.1226211	-66.45739842
3.83	383	-0.064	-0.112	0.876	-15.9855282	-12.2613012	-0.7448454	174.356849	-3.00229992	-66.463128
3.84	384	-0.068	-0.095	0.86	-19.194093	-10.7716104	-1.6042824	174.1620433	-2.88770832	-66.45166884
3.85	385	-0.044	-0.104	0.859	-21.3713334	-9.0527364	-2.3491278	173.9385896	-2.79603504	-66.44020968
3.86	386	-0.046	-0.111	0.885	-21.485925	-8.2505952	-2.291832	173.7208656	-2.71009134	-66.42302094
3.87	387	-0.061	-0.116	0.951	-19.8816426	-6.9900876	-1.8334656	173.5146007	-2.6356068	-66.41156178
3.88	388	-0.066	-0.116	1.019	-16.9595568	-5.0993262	-1.718874	173.3427133	-2.578311	-66.40010262
3.89	389	-0.064	-0.129	1.058	-14.32395	-3.3804522	-1.6615782	173.1994738	-2.54393352	-66.38864346
3.9	390	-0.055	-0.125	1.063	-11.2872726	-2.6356068	-1.3750992	173.0848822	-2.5210152	-66.38291388
3.91	391	-0.06	-0.125	1.065	-9.2819196	-2.7501984	-1.2032118	172.9874794	-2.4923673	-66.37145472
3.92	392	-0.059	-0.124	1.08	-7.161975	-3.437748	-0.9740286	172.9129948	-2.45226024	-66.36572514
3.93	393	-0.059	-0.125	1.098	-5.0993262	-4.010706	-0.8021412	172.8614286	-2.41215318	-66.35999556
3.94	394	-0.053	-0.126	1.102	-3.151269	-3.8961144	-0.7448454	172.8327807	-2.37204612	-66.35999556
3.95	395	-0.052	-0.118	1.087	-1.5469866	-3.2658606	-0.6302538	172.8213215	-2.34339822	-66.35426598
3.96	396	-0.055	-0.124	1.073	-0.7448454	-2.1772404	-0.7448454	172.815592	-2.3204799	-66.3485364
3.97	397	-0.046	-0.149	1.053	-0.286479	-0.6875496	-0.6875496	172.8098624	-2.31475032	-66.34280682
3.98	398	-0.051	-0.149	1.044	0.9740286	1.2032118	-0.1718874	172.8213215	-2.32620948	-66.34280682
3.99	399	-0.057	-0.134	1.04	2.1772404	2.9793816	0.0572958	172.8442399	-2.35485738	-66.33707724
4	400	-0.058	-0.127	1.037	2.9793816	4.9274388	0.2291832	172.8671582	-2.41215318	-66.33707724
4.01	401	-0.06	-0.116	1.023	3.6669312	6.589017	0.4583664	172.9072652	-2.48090814	-66.33707724
4.02	402	-0.063	-0.117	1.01	3.7815228	7.6203414	0.4583664	172.9416427	-2.55539268	-66.33134766
4.03	403	-0.067	-0.11	1.004	3.2658606	8.1932994	0.572958	172.9760202	-2.6356068	-66.33134766
4.04	404	-0.072	-0.105	1.003	1.718874	8.4224826	0.4010706	172.9932089	-2.7215505	-66.32561808
4.05	405	-0.073	-0.101	0.993	-0.1145916	8.2505952	0.0572958	172.9932089	-2.81895336	-66.32561808
4.06	406	-0.069	-0.099	0.976	-2.005353	7.5057498	-0.1145916	172.9760202	-2.8934379	-66.31415892
4.07	407	-0.069	-0.102	0.963	-2.9793816	6.7036086	-0.4010706	172.9416427	-2.95646328	-66.30842934
4.08	408	-0.071	-0.103	0.956	-3.8388186	5.7868758	-0.6302538	172.9015357	-3.01375908	-66.29697018
4.09	409	-0.071	-0.109	0.953	-4.2398892	4.7555514	-0.8021412	172.855699	-3.05959572	-66.27978144
4.1	410	-0.069	-0.114	0.957	-4.297185	3.7815228	-0.8021412	172.8098624	-3.11116194	-66.27405186
4.11	411	-0.069	-0.115	0.966	-3.9534102	2.7501984	-0.7448454	172.7697553	-3.13408026	-66.2625927
4.12	412	-0.068	-0.118	0.973	-3.437748	1.6615782	-0.6875496	172.7353778	-3.151269	-66.25686312
4.13	413	-0.072	-0.12	0.986	-2.86479	0.5156622	-0.572958	172.7010004	-3.15699858	-66.25113354
4.14	414	-0.074	-0.122	1.004	-2.0626488	-0.6302538	-0.3437748	172.6838116	-3.14553942	-66.24540396
4.15	415	-0.075	-0.123	1.02	-1.5469866	-1.145916	-0.286479	172.6666229	-3.17418732	-66.25113354
4.16	416	-0.075	-0.123	1.036	-1.0886202	-1.6042824	-0.2291832	172.6551637	-3.15699858	-66.25113354
4.17	417	-0.074	-0.127	1.045	-0.7448454	-2.005353	-0.1718874	172.6494341	-3.13408026	-66.25113354
4.18	418	-0.077	-0.12	1.049	-0.4583664	-2.4064236	-0.1145916	172.6437046	-3.11116194	-66.25113354
4.19	419	-0.075	-0.123	1.048	-0.4010706	-2.6356068	-0.1718874	172.6437046	-3.08824362	-66.25113354
4.2	420	-0.073	-0.122	1.045	-0.3437748	-2.6929026	-0.1145916	172.6437046	-3.08824362	-66.2625927
4.21	421	-0.072	-0.122	1.04	-0.572958	-2.6356068	-0.1145916	172.637975	-3.05959572	-66.2625927
4.22	422	-0.071	-0.119	1.037	-0.6875496	-2.005353	-0.0572958	172.6322454	-3.04240698	-66.2625927
4.23	423	-0.068	-0.117	1.034	-0.9167328	-1.5469866	-0.0572958	172.6207862	-3.02521824	-66.2625927
4.24	424	-0.068	-0.117	1.025	-1.145916	-0.9167328	-0.0572958	172.6093271	-3.01375908	-66.2625927
4.25	425	-0.066	-0.116	1.014	-1.432395	-0.0572958	-0.0572958	172.6207862	-3.05959572	-66.27405186
4.26	426	-0.066	-0.118	1.004	-1.5469866	0.6302538	-0.1145916	172.6035975	-3.0653253	-66.27405186
4.27	427	-0.065	-0.118	0.996	-1.5469866	1.2605076	-0.1145916	172.5921383	-3.08251404	-66.27405186
4.28	428	-0.065	-0.119	0.991	-1.5469866	1.8907614	-0.1145916	172.5749496	-3.09970278	-66.26832228
4.29	429	-0.065	-0.119	0.988	-1.432395	2.1199446	-0.1718874	172.5577609	-3.11689152	-66.2625927
4.3	430	-0.066	-0.12	0.985	-1.3750992	2.5210152	-0.1718874	172.5463017	-3.16272816	-66.2625927
4.31	431	-0.067	-0.12	0.985	-1.432395	2.6356068	-0.2291832	172.529113	-3.18564648	-66.25686312
4.32	432	-0.068	-0.118	0.993	-1.432395	2.4064236	-0.1718874	172.5119242	-3.2085648	-66.25113354
4.33	433	-0.069	-0.117	0.999	-1.4896908	2.1772404	-0.1718874	172.5004651	-3.23148312	-66.25113354
4.34	434	-0.071	-0.116	1.005	-1.6042824	1.9480572	-0.2291832	172.4832763	-3.24867186	-66.24540396
4.35	435	-0.072	-0.116	1.011	-1.6042824	1.7761698	-0.1718874	172.4775467	-3.2945085	-66.25113354
4.36	436	-0.073	-0.117	1.015	-1.718874	1.3750992	-0.1718874	172.460358	-3.31169724	-66.24540396
4.37	437	-0.074	-0.118	1.019	-1.7761698	0.9167328	-0.2291832	172.4431693	-3.31742682	-66.23967438
4.38	438	-0.075	-0.118	1.02	-1.718874	0.5156622	-0.2291832	172.4259805	-3.3231564	-66.23967438
4.39	439	-0.073	-0.119	1.02	-1.6042824	0.1718874	-0.2291832	172.4087918	-3.3231564	-66.2339448
4.4	440	-0.073	-0.121	1.017	-1.6615782	-0.0572958	-0.286479	172.4087918	-3.36326346	-66.23967438
4.41	441	-0.073	-0.122	1.018	-1.5469866	-0.3437748	-0.286479	172.391603	-3.35753388	-66.23967438
4.42	442	-0.074	-0.123	1.018	-1.145916	-0.4010706	-0.2291832	172.3801439	-3.3518043	-66.23967438
4.43	443	-0.073	-0.124	1.012	-0.9167328	-0.286479	-0.286479	172.3686847	-3.34607472	-66.2339448
4.44	444	-0.072	-0.126	1.012	-0.6302538	-0.1145916	-0.286479	172.3629551	-3.34607472	-66.2339448
4.45	445	-0.071	-0.124	1.012	-0.286479	0.1718874	-0.1145916	172.3801439	-3.42628884	-66.24540396
4.46	446	-0.07	-0.124	1.008	-0.0572958	0.6875496	-0.2291832	172.3801439	-3.43201842	-66.24540396
4.47	447	-0.07	-0.122	1.002	-0.0572958	1.145916	-0.2291832	172.3801439	-3.44347758	-66.23967438
4.48	448	-0.072	-0.122	1.005	0.0572958	1.432395	-0.1718874	172.3801439	-3.45493674	-66.23967438
4.49	449	-0.074	-0.121	1.008	0	1.6615782	-0.2291832	172.3801439	-3.47212548	-66.2339448
4.5	450	-0.075	-0.118	1.012	0	1.4896908	-0.2291832	172.4087918	-3.52942128	-66.23967438
4.51	451	-0.073	-0.118	1.012	-0.286479	1.3750992	-0.286479	172.4030622	-3.54088044	-66.2339448
4.52	452	-0.073	-0.117	1.009	-0.5156622	1.3750992	-0.286479	172.3973326	-3.5523396	-66.22821522
4.53	453	-0.074	-0.119	1.006	-0.8021412	1.2605076	-0.286479	172.391603	-3.56379876	-66.22821522
4.54	454	-0.074	-0.119	1.003	-0.7448454	1.2032118	-0.3437748	172.3801439	-3.57525792	-66.22248564
4.55	455	-0.072	-0.119	1.002	-0.7448454	1.0886202	-0.4010706	172.3858735	-3.60390582	-66.22248564
4.56	456	-0.072	-0.12	1.008	-1.145916	0.9167328	-0.4010706	172.3744143	-3.61536498	-66.21675606
4.57	457	-0.073	-0.121	1.018	-1.5469866	0.6875496	-0.3437748	172.3572256	-3.62109456	-66.21102648
4.58	458	-0.074	-0.12	1.018	-1.6615782	0.286479	-0.3437748	172.3400368	-3.62682414	-66.2052969
4.59	459	-0.074	-0.121	1.016	-1.5469866	0.1145916	-0.286479	172.3228481	-3.62682414	-66.2052969
4.6	460	-0.074	-0.12	1.01	-1.0886202	0.1145916	-0.2291832	172.3572256	-3.6669312	-66.21102648
4.61	461	-0.074	-0.12	1.002	-0.9167328	0	-0.286479	172.3457664	-3.6669312	-66.21102648
4.62	462	-0.074	-0.122	1.004	-0.6302538	-0.1145916	-0.2291832	172.3400368	-3.6669312	-66.2052969
4.63	463	-0.075	-0.124	1.008	-0.4583664	0	-0.1718874	172.3343072	-3.6669312	-66.2052969
4.64	464	-0.074	-0.122	1.008	-0.286479	0	-0.1145916	172.3343072	-3.6669312	-66.2052969
4.65	465	-0.075	-0.121	1.007	-0.286479	0	-0.2291832	172.3801439	-3.74141574	-66.21675606
4.66	466	-0.075	-0.121	1.008	-0.2291832	-0.0572958	-0.1145916	172.3801439	-3.74141574	-66.21675606
4.67	467	-0.075	-0.119	1.011	-0.2291832	0	-0.1145916	172.3744143	-3.74141574	-66.21675606
4.68	468	-0.075	-0.119	1.013	-0.1718874	0.0572958	-0.1718874	172.3744143	-3.74141574	-66.21102648
4.69	469	-0.075	-0.119	1.011	-0.286479	0.1718874	-0.1718874	172.3744143	-3.74141574	-66.21102648
4.7	470	-0.075	-0.119	1.011	-0.4010706	0.3437748	-0.1718874	172.3973326	-3.7815228	-66.21675606
4.71	471	-0.074	-0.119	1.009	-0.572958	0.4010706	-0.2291832	172.391603	-3.7815228	-66.21675606
4.72	472	-0.073	-0.119	1.009	-0.8021412	0.572958	-0.2291832	172.3858735	-3.78725238	-66.21102648
4.73	473	-0.074	-0.119	1.01	-0.8021412	0.6302538	-0.2291832	172.3744143	-3.79298196	-66.21102648
4.74	474	-0.073	-0.12	1.009	-0.9167328	0.6302538	-0.2291832	172.3629551	-3.79871154	-66.2052969
4.75	475	-0.073	-0.121	1.009	-0.859437	0.572958	-0.286479	172.3744143	-3.81590028	-66.2052969
4.76	476	-0.074	-0.12	1.008	-0.859437	0.572958	-0.2291832	172.3629551	-3.82162986	-66.2052969
4.77	477	-0.074	-0.119	1.006	-0.8021412	0.6302538	-0.2291832	172.351496	-3.82735944	-66.19956732
4.78	478	-0.075	-0.121	1.006	-0.9167328	0.572958	-0.2291832	172.3457664	-3.83308902	-66.19383774
4.79	479	-0.074	-0.12	1.005	-0.9167328	0.5156622	-0.286479	172.3343072	-3.8388186	-66.19383774
4.8	480	-0.075	-0.121	1.006	-0.9167328	0.4010706	-0.2291832	172.3457664	-3.86173692	-66.19383774
4.81	481	-0.075	-0.121	1.01	-1.0313244	0.3437748	-0.2291832	172.3343072	-3.8674665	-66.19383774
4.82	482	-0.074	-0.12	1.012	-1.0886202	0.4010706	-0.2291832	172.3228481	-3.8674665	-66.18810816
4.83	483	-0.074	-0.12	1.012	-0.9167328	0.4010706	-0.286479	172.3113889	-3.87319608	-66.18810816
4.84	484	-0.075	-0.12	1.011	-0.8021412	0.5156622	-0.2291832	172.2999298	-3.87892566	-66.18237858
4.85	485	-0.075	-0.12	1.01	-0.7448454	0.5156622	-0.2291832	172.3171185	-3.8961144	-66.18237858
4.86	486	-0.076	-0.121	1.012	-0.6302538	0.5156622	-0.2291832	172.3113889	-3.90184398	-66.18237858
4.87	487	-0.076	-0.122	1.011	-0.572958	0.4583664	-0.2291832	172.3056593	-3.90757356	-66.176649
4.88	488	-0.075	-0.121	1.011	-0.572958	0.5156622	-0.2291832	172.2999298	-3.91330314	-66.176649
4.89	489	-0.076	-0.121	1.008	-0.5156622	0.5156622	-0.286479	172.2942002	-3.91330314	-66.17091942
4.9	490	-0.075	-0.121	1.009	-0.4583664	0.5156622	-0.2291832	172.3113889	-3.93622146	-66.17091942
4.91	491	-0.075	-0.12	1.01	-0.5156622	0.5156622	-0.1718874	172.3056593	-3.94195104	-66.17091942
4.92	492	-0.077	-0.119	1.009	-0.4010706	0.4583664	-0.1145916	172.2999298	-3.94768062	-66.16518984
4.93	493	-0.076	-0.121	1.006	0	0.1718874	0	172.2999298	-3.94768062	-66.16518984
4.94	494	-0.077	-0.121	1.007	-0.0572958	0	0	172.2999298	-3.94768062	-66.16518984
4.95	495	-0.077	-0.12	1.01	-0.0572958	0.0572958	0	172.4317101	-4.010706	-66.18810816
4.96	496	-0.076	-0.12	1.01	-0.0572958	0.0572958	0	172.4317101	-4.01643558	-66.18810816
4.97	497	-0.076	-0.119	1.012	-0.1718874	-0.0572958	-0.0572958	172.4259805	-4.010706	-66.18810816
4.98	498	-0.077	-0.12	1.011	-0.2291832	-0.1718874	0	172.4259805	-4.010706	-66.18810816
4.99	499	-0.077	-0.12	1.009	-0.1145916	-0.286479	0	172.4259805	-4.00497642	-66.18810816
5	500	-0.077	-0.12	1.006	0	-0.3437748	0	172.460358	-4.0393539	-66.19956732
5.01	501	-0.077	-0.12	1.007	0.1718874	-0.5156622	0	172.4660876	-4.0393539	-66.19956732
5.02	502	-0.079	-0.12	1.01	0	-0.6875496	-0.0572958	172.4660876	-4.02789474	-66.19956732
5.03	503	-0.078	-0.12	1.012	0.1718874	-0.9740286	-0.0572958	172.4660876	-4.02216516	-66.19956732
5.04	504	-0.075	-0.119	1.013	0.1718874	-1.0313244	0.0572958	172.4660876	-4.010706	-66.19956732
5.05	505	-0.077	-0.119	1.008	0	-1.145916	0	172.4890059	-4.01643558	-66.2052969
5.06	506	-0.076	-0.12	1.003	0	-0.9740286	0	172.4890059	-4.00497642	-66.2052969
5.07	507	-0.073	-0.121	1	0.2291832	-0.8021412	-0.1145916	172.4890059	-3.99924684	-66.2052969
5.08	508	-0.073	-0.122	1.008	0.3437748	-0.9167328	-0.0572958	172.4947355	-3.98778768	-66.2052969
5.09	509	-0.076	-0.122	1.02	-0.1145916	-0.7448454	0	172.4890059	-3.9820581	-66.2052969
5.1	510	-0.077	-0.12	1.023	-0.572958	-0.8021412	0	172.5004651	-3.98778768	-66.21102648
5.11	511	-0.076	-0.119	1.018	-0.572958	-1.0313244	0	172.4947355	-3.97632852	-66.21102648
5.12	512	-0.076	-0.118	1.014	-0.4010706	-0.9167328	0	172.4890059	-3.96486936	-66.21102648
5.13	513	-0.076	-0.12	1.01	-0.0572958	-0.8021412	0	172.4890059	-3.95913978	-66.21675606
5.14	514	-0.075	-0.12	1.006	0	-0.8021412	0	172.4890059	-3.94768062	-66.21675606
5.15	515	-0.076	-0.12	1.004	0	-0.8021412	-0.0572958	172.5061946	-3.96486936	-66.22248564
5.16	516	-0.076	-0.12	1.005	0.0572958	-0.8021412	0	172.5061946	-3.9534102	-66.22248564
5.17	517	-0.075	-0.12	1.005	0.0572958	-0.7448454	0	172.5061946	-3.94768062	-66.22248564
5.18	518	-0.075	-0.119	1.004	0.1145916	-0.9740286	0	172.5119242	-3.93622146	-66.22248564
5.19	519	-0.075	-0.119	1.007	0.1145916	-1.0313244	0	172.5119242	-3.93049188	-66.22248564
5.2	520	-0.075	-0.12	1.007	0.1718874	-0.9740286	0	172.5233834	-3.93049188	-66.22821522
5.21	521	-0.075	-0.12	1.009	0.0572958	-0.9740286	-0.0572958	172.529113	-3.91903272	-66.22821522
5.22	522	-0.075	-0.119	1.01	0.0572958	-0.859437	0	172.529113	-3.90757356	-66.22821522
5.23	523	-0.074	-0.12	1.012	0.0572958	-0.8021412	0	172.529113	-3.90184398	-66.22821522
5.24	524	-0.074	-0.12	1.011	0	-0.6875496	0	172.529113	-3.8961144	-66.22821522
5.25	525	-0.074	-0.12	1.012	-0.1145916	-0.6875496	0	172.5520313	-3.90184398	-66.2339448
5.26	526	-0.075	-0.119	1.011	-0.1145916	-0.572958	0	172.5463017	-3.8961144	-66.2339448
5.27	527	-0.074	-0.12	1.011	-0.1718874	-0.4583664	0	172.5463017	-3.89038482	-66.2339448
5.28	528	-0.075	-0.122	1.011	-0.286479	-0.4583664	0	172.5463017	-3.89038482	-66.23967438
5.29	529	-0.075	-0.121	1.01	-0.286479	-0.4010706	0	172.5405721	-3.88465524	-66.23967438
5.3	530	-0.075	-0.122	1.009	-0.2291832	-0.4010706	0.0572958	172.5405721	-3.8961144	-66.23967438
5.31	531	-0.074	-0.12	1.008	-0.286479	-0.2291832	0	172.5405721	-3.8961144	-66.23967438
5.32	532	-0.074	-0.12	1.007	-0.1145916	0.4583664	0	172.5348425	-3.90184398	-66.23967438
5.33	533	-0.075	-0.12	1.006	-0.1145916	0.286479	0	172.5348425	-3.90184398	-66.23967438
5.34	534	-0.075	-0.12	1.009	0	-0.1145916	0	172.5348425	-3.90184398	-66.23967438
5.35	535	-0.076	-0.12	1.011	0	-0.1145916	0	172.5749496	-3.93622146	-66.25113354
5.36	536	-0.075	-0.12	1.011	0.0572958	-0.2291832	0	172.5749496	-3.93622146	-66.25113354
5.37	537	-0.074	-0.119	1.01	0.0572958	-0.2291832	0	172.5749496	-3.93049188	-66.25113354
5.38	538	-0.074	-0.12	1.01	0.2291832	-0.2291832	0.0572958	172.5806792	-3.93049188	-66.25113354
5.39	539	-0.074	-0.119	1.011	0.1145916	-0.2291832	0	172.5806792	-3.9247623	-66.25113354
5.4	540	-0.074	-0.12	1.009	0.1145916	-0.1718874	0.0572958	172.5921383	-3.94195104	-66.25686312
5.41	541	-0.072	-0.122	1.007	0.1145916	-0.2291832	0	172.5921383	-3.93622146	-66.25686312
5.42	542	-0.075	-0.116	1.007	0	0	0	172.5921383	-3.93622146	-66.25686312
5.43	543	-0.073	-0.121	1.006	0	-0.0572958	0	172.5921383	-3.93622146	-66.25686312
5.44	544	-0.073	-0.121	1.008	0	0	0	172.5921383	-3.93622146	-66.25686312
5.45	545	-0.073	-0.122	1.009	0	0.0572958	0	172.6150567	-3.96486936	-66.2625927
5.46	546	-0.073	-0.119	1.01	0.1145916	0.0572958	0	172.6150567	-3.97059894	-66.2625927
5.47	547	-0.073	-0.12	1.009	0.0572958	0.1718874	0	172.6150567	-3.97059894	-66.2625927
5.48	548	-0.072	-0.121	1.01	0.3437748	0.286479	0	172.6207862	-3.97059894	-66.2625927
5.49	549	-0.073	-0.121	1.01	0.3437748	0.3437748	0	172.6265158	-3.97632852	-66.2625927
5.5	550	-0.073	-0.121	1.011	0.286479	0.4010706	0	172.637975	-3.98778768	-66.2625927
5.51	551	-0.072	-0.12	1.011	0.2291832	0.3437748	0	172.6437046	-3.99351726	-66.2625927
5.52	552	-0.073	-0.119	1.01	0.1718874	0.286479	-0.0572958	172.6437046	-3.99351726	-66.2625927
5.53	553	-0.072	-0.12	1.012	0.2291832	0.3437748	-0.0572958	172.6437046	-3.99924684	-66.2625927
5.54	554	-0.072	-0.12	1.011	0.1718874	0.5156622	-0.0572958	172.6437046	-4.00497642	-66.25686312
5.55	555	-0.073	-0.119	1.01	0.2291832	0.572958	-0.0572958	172.6551637	-4.010706	-66.25686312
5.56	556	-0.072	-0.121	1.006	0.286479	0.572958	0	172.6551637	-4.01643558	-66.25686312
5.57	557	-0.073	-0.12	1.007	0.4010706	0.572958	-0.0572958	172.6608933	-4.02216516	-66.25686312
5.58	558	-0.073	-0.12	1.008	0.286479	0.6302538	0	172.6666229	-4.02789474	-66.25686312
5.59	559	-0.075	-0.12	1.009	0.286479	0.572958	-0.0572958	172.6666229	-4.03362432	-66.25113354
5.6	560	-0.075	-0.119	1.011	0.2291832	0.4010706	-0.0572958	172.6838116	-4.0393539	-66.25113354
5.61	561	-0.073	-0.118	1.013	0.0572958	0.3437748	0	172.6838116	-4.04508348	-66.25113354
5.62	562	-0.075	-0.118	1.013	-0.1145916	0.286479	0	172.678082	-4.04508348	-66.25113354
5.63	563	-0.074	-0.12	1.005	-0.1718874	0.4583664	-0.0572958	172.678082	-4.05081306	-66.25113354
5.64	564	-0.072	-0.119	1.004	0.1718874	0.5156622	0	172.678082	-4.05654264	-66.25113354
5.65	565	-0.072	-0.121	1.008	0.1145916	0.4583664	0	172.6838116	-4.05654264	-66.25113354
5.66	566	-0.074	-0.121	1.017	-0.0572958	0.4583664	0.0572958	172.678082	-4.06227222	-66.25113354
5.67	567	-0.074	-0.119	1.018	-0.286479	0.3437748	0	172.678082	-4.0680018	-66.24540396
5.68	568	-0.074	-0.119	1.015	-0.2291832	0.286479	0	172.6723525	-4.0680018	-66.24540396
5.69	569	-0.074	-0.119	1.013	0	0.3437748	0	172.6723525	-4.07373138	-66.24540396
5.7	570	-0.074	-0.119	1.011	0.2291832	0.5156622	0	172.6838116	-4.08519054	-66.24540396
5.71	571	-0.074	-0.12	1.012	0.4010706	0.6302538	0.1145916	172.6895412	-4.09092012	-66.24540396
5.72	572	-0.074	-0.119	1.014	0.5156622	0.7448454	0	172.6952708	-4.0966497	-66.24540396
5.73	573	-0.075	-0.116	1.016	0.6302538	0.6875496	0.0572958	172.7010004	-4.10237928	-66.24540396
5.74	574	-0.075	-0.116	1.016	0.8021412	1.0886202	0	172.7067299	-4.11383844	-66.24540396
5.75	575	-0.076	-0.117	1.015	0.859437	1.3178034	0	172.7181891	-4.13102718	-66.24540396
5.76	576	-0.075	-0.117	1.013	0.9167328	1.432395	0	172.7296483	-4.14248634	-66.24540396
5.77	577	-0.075	-0.117	1.012	0.859437	1.6615782	0	172.7353778	-4.15967508	-66.24540396
5.78	578	-0.075	-0.117	1.008	0.7448454	1.8334656	-0.0572958	172.746837	-4.17686382	-66.23967438
5.79	579	-0.075	-0.117	1.006	0.5156622	2.0626488	-0.0572958	172.7525666	-4.19978214	-66.23967438
5.8	580	-0.073	-0.118	1	0.1718874	2.291832	-0.0572958	172.746837	-4.22270046	-66.2339448
5.81	581	-0.074	-0.117	0.997	-0.2291832	2.3491278	-0.0572958	172.746837	-4.24561878	-66.22821522
5.82	582	-0.075	-0.118	0.996	-0.5156622	2.2345362	-0.1145916	172.7411074	-4.2685371	-66.22821522
5.83	583	-0.075	-0.119	0.996	-0.8021412	2.0626488	-0.1145916	172.7296483	-4.28572584	-66.22248564
5.84	584	-0.076	-0.119	1	-0.859437	1.718874	-0.0572958	172.7239187	-4.30291458	-66.22248564
5.85	585	-0.078	-0.121	1.004	-0.572958	1.432395	0	172.7124595	-4.32010332	-66.22248564
5.86	586	-0.079	-0.12	1.01	-0.2291832	1.0313244	0	172.7124595	-4.3258329	-66.21675606
5.87	587	-0.079	-0.121	1.012	0	0.6875496	0	172.7124595	-4.33729206	-66.21675606
5.88	588	-0.079	-0.12	1.015	0.1718874	0.4583664	0	172.7124595	-4.34302164	-66.21675606
5.89	589	-0.079	-0.12	1.016	0.2291832	0.1718874	0	172.7124595	-4.34302164	-66.21675606
5.9	590	-0.079	-0.121	1.015	0.2291832	0	0	172.7067299	-4.34875122	-66.21675606
5.91	591	-0.079	-0.121	1.013	0.1718874	-0.1718874	0	172.7124595	-4.34875122	-66.21675606
5.92	592	-0.08	-0.119	1.011	0.2291832	-0.2291832	0	172.7124595	-4.34875122	-66.21675606
5.93	593	-0.078	-0.119	1.009	0.2291832	-0.1718874	0	172.7181891	-4.34302164	-66.21675606
5.94	594	-0.078	-0.12	1.006	0.3437748	-0.2291832	0	172.7181891	-4.34302164	-66.21675606
5.95	595	-0.079	-0.12	1.005	0.3437748	-0.4010706	0.0572958	172.7296483	-4.33729206	-66.22248564
5.96	596	-0.079	-0.118	1.007	0.4010706	-0.3437748	0	172.7296483	-4.33729206	-66.22248564
5.97	597	-0.078	-0.118	1.008	0.4010706	-0.2291832	0	172.7353778	-4.33156248	-66.22248564
5.98	598	-0.08	-0.117	1.011	0.286479	-0.1145916	0	172.7411074	-4.33156248	-66.22248564
5.99	599	-0.079	-0.116	1.013	0.1145916	0	0	172.7411074	-4.33156248	-66.22248564
6	600	-0.079	-0.115	1.012	0	0.1718874	0	172.7754849	-4.33156248	-66.22248564
6.01	601	-0.078	-0.116	1.011	-0.0572958	0.286479	0	172.7754849	-4.33156248	-66.22248564
6.02	602	-0.078	-0.115	1.01	-0.1718874	0.572958	0	172.7697553	-4.33729206	-66.22248564
6.03	603	-0.079	-0.116	1.009	-0.2291832	0.572958	0	172.7697553	-4.34302164	-66.22248564
6.04	604	-0.079	-0.117	1.006	-0.2291832	0.5156622	0	172.7640257	-4.34875122	-66.22248564
6.05	605	-0.079	-0.117	1.005	-0.1718874	0.5156622	0.0572958	172.7697553	-4.3544808	-66.22248564
6.06	606	-0.079	-0.117	1.006	-0.1145916	0.572958	0	172.7697553	-4.36021038	-66.22248564
6.07	607	-0.079	-0.117	1.008	0	0.4010706	0.0572958	172.7697553	-4.36593996	-66.22248564
6.08	608	-0.079	-0.116	1.01	-0.0572958	0.286479	0	172.7697553	-4.37166954	-66.22248564
6.09	609	-0.079	-0.118	1.011	-0.1718874	0.2291832	0	172.7640257	-4.37166954	-66.22248564
6.1	610	-0.079	-0.118	1.013	-0.1718874	0.1145916	0.0572958	172.7926736	-4.3831287	-66.22248564
6.11	611	-0.08	-0.119	1.011	-0.2291832	0.0572958	0	172.7926736	-4.3831287	-66.22821522
6.12	612	-0.08	-0.118	1.009	-0.2291832	0	0	172.7869441	-4.3831287	-66.22821522
6.13	613	-0.079	-0.119	1.009	-0.286479	0	0	172.7869441	-4.3831287	-66.22821522
6.14	614	-0.079	-0.119	1.01	-0.2291832	0	0	172.7812145	-4.3831287	-66.22821522
6.15	615	-0.08	-0.119	1.008	-0.1718874	0	0	172.7869441	-4.38885828	-66.22821522
6.16	616	-0.08	-0.119	1.007	-0.0572958	0	0.0572958	172.7812145	-4.38885828	-66.22821522
6.17	617	-0.079	-0.119	1.005	0	0.0572958	0.0572958	172.7812145	-4.38885828	-66.22821522
6.18	618	-0.08	-0.118	1.005	0	0.0572958	0.0572958	172.7812145	-4.39458786	-66.22821522
6.19	619	-0.08	-0.118	1.007	-0.0572958	0	0.0572958	172.7812145	-4.38885828	-66.22821522
6.2	620	-0.081	-0.118	1.009	-0.0572958	-0.2291832	0.0572958	172.7869441	-4.39458786	-66.2339448
6.21	621	-0.08	-0.117	1.012	-0.1718874	-0.4010706	0	172.7869441	-4.39458786	-66.2339448
6.22	622	-0.081	-0.115	1.012	-0.2291832	-0.2291832	0.0572958	172.7812145	-4.38885828	-66.2339448
6.23	623	-0.08	-0.117	1.006	-0.2291832	-0.1145916	0.0572958	172.7812145	-4.38885828	-66.2339448
6.24	624	-0.08	-0.118	1.002	0	0	0	172.7812145	-4.38885828	-66.2339448
6.25	625	-0.078	-0.119	1.006	0.0572958	0	0	172.7869441	-4.36593996	-66.2339448
6.26	626	-0.079	-0.118	1.017	-0.1718874	0	0	172.7869441	-4.36593996	-66.2339448
6.27	627	-0.079	-0.118	1.022	-0.6302538	-0.1718874	0	172.7812145	-4.36021038	-66.2339448
6.28	628	-0.079	-0.118	1.017	-0.8021412	-0.1718874	-0.0572958	172.7697553	-4.36021038	-66.2339448
6.29	629	-0.079	-0.118	1.013	-0.6302538	-0.1718874	-0.1145916	172.7640257	-4.36021038	-66.2339448
6.3	630	-0.08	-0.118	1.009	-0.3437748	0	-0.0572958	172.7697553	-4.37166954	-66.2339448
6.31	631	-0.079	-0.119	1.006	-0.1145916	0.1145916	-0.0572958	172.7697553	-4.37166954	-66.2339448
6.32	632	-0.08	-0.119	1.007	-0.1145916	0.1718874	0	172.7697553	-4.37739912	-66.2339448
6.33	633	-0.08	-0.118	1.005	0	0.3437748	0	172.7697553	-4.37739912	-66.2339448
6.34	634	-0.08	-0.119	1.007	-0.0572958	0.286479	0	172.7640257	-4.3831287	-66.2339448
6.35	635	-0.08	-0.117	1.007	-0.0572958	0.2291832	0	172.7812145	-4.39458786	-66.2339448
6.36	636	-0.08	-0.116	1.007	-0.0572958	0.0572958	0	172.7754849	-4.39458786	-66.2339448
6.37	637	-0.08	-0.116	1.007	0	0.0572958	-0.0572958	172.7754849	-4.39458786	-66.2339448
6.38	638	-0.081	-0.116	1.011	0	0	0	172.7754849	-4.39458786	-66.2339448
6.39	639	-0.081	-0.118	1.011	-0.1145916	0.0572958	0	172.7754849	-4.39458786	-66.22821522
6.4	640	-0.08	-0.118	1.013	0	0	0	172.7926736	-4.40604702	-66.2339448
6.41	641	-0.08	-0.118	1.013	-0.0572958	0	-0.0572958	172.7926736	-4.40604702	-66.2339448
6.42	642	-0.079	-0.118	1.013	-0.2291832	0.1145916	0	172.7869441	-4.40604702	-66.22821522
