TimeStamp(s)	FrameCounter	AccX	AccY	AccZ	GyrX	GyrY	GyrZ	EulerX	EulerY	EulerZ
0.01	1	0.047	-1.008	-0.049	0.1145916	0.5156622	-3.4950438	87.15264138	0.26356068	-14.0088231
0.02	2	0.053	-1.016	-0.044	0.4583664	-2.1772404	-4.6982556	87.15837096	0.30939732	-14.03174142
0.03	3	0.052	-1.019	-0.037	0.0572958	-1.8334656	-4.4690724	87.15837096	0.35523396	-14.05465974
0.04	4	0.053	-1.025	-0.032	-0.572958	-1.4896908	-4.5263682	87.15264138	0.39534102	-14.07184848
0.05	5	0.051	-1.034	-0.028	-1.718874	-0.9740286	-4.870143	87.14118222	0.47555514	-14.08903722
0.06	6	0.048	-1.038	-0.029	-3.2658606	-0.1145916	-5.5576926	87.10680474	0.53285094	-14.0947668
0.07	7	0.042	-1.04	-0.033	-4.2398892	0.9740286	-6.1879464	87.0609681	0.59587632	-14.08903722
0.08	8	0.036	-1.035	-0.042	-4.9274388	2.2345362	-6.6463128	87.01513146	0.6589017	-14.0661189
0.09	9	0.036	-1.023	-0.047	-4.9274388	3.6669312	-6.6463128	86.96356524	0.72765666	-14.037471
0.1	10	0.046	-1.009	-0.047	-4.6982556	5.2712136	-6.5317212	86.91199902	0.80787078	-13.98590478
0.11	11	0.063	-0.992	-0.045	-4.4117766	6.589017	-6.0733548	86.86616238	0.86516658	-13.92860898
0.12	12	0.082	-0.984	-0.043	-4.3544808	7.2192708	-5.5576926	86.82032574	0.92246238	-13.85985402
0.13	13	0.1	-0.987	-0.044	-4.297185	7.161975	-4.870143	86.78021868	0.9740286	-13.79109906
0.14	14	0.109	-0.994	-0.05	-4.6982556	5.9014674	-3.8388186	86.72865246	1.01413566	-13.73380326
0.15	15	0.112	-1.003	-0.056	-4.9274388	4.4117766	-2.9793816	86.67708624	1.0886202	-13.69942578
0.16	16	0.111	-1.005	-0.058	-4.9847346	2.9793816	-2.2345362	86.62552002	1.11153852	-13.67077788
0.17	17	0.107	-1	-0.058	-5.0993262	1.718874	-2.005353	86.5739538	1.13445684	-13.65358914
0.18	18	0.102	-0.994	-0.053	-5.0993262	0.8021412	-1.8907614	86.52238758	1.15164558	-13.64785956
0.19	19	0.097	-0.987	-0.047	-4.9847346	0	-2.1199446	86.47082136	1.16883432	-13.64785956
0.2	20	0.096	-0.985	-0.045	-4.8128472	-0.6302538	-2.5210152	86.4307143	1.24331886	-13.6650483
0.21	21	0.098	-0.987	-0.037	-4.6982556	-1.2032118	-3.0939732	86.37914808	1.27196676	-13.67650746
0.22	22	0.102	-0.992	-0.033	-4.2398892	-1.7761698	-3.7815228	86.33904102	1.31207382	-13.69942578
0.23	23	0.107	-0.998	-0.031	-4.010706	-2.005353	-3.9534102	86.29320438	1.35218088	-13.7223441
0.24	24	0.109	-1.003	-0.031	-4.2398892	-1.8907614	-3.8961144	86.25309732	1.38655836	-13.74526242
0.25	25	0.109	-1.007	-0.033	-4.6409598	-2.005353	-3.6096354	86.21871984	1.47250206	-13.77391032
0.26	26	0.11	-1.008	-0.031	-5.0993262	-2.5210152	-3.0939732	86.16715362	1.50114996	-13.80255822
0.27	27	0.113	-1.011	-0.027	-5.3285094	-3.6096354	-2.9793816	86.10985782	1.52979786	-13.84266528
0.28	28	0.112	-1.013	-0.024	-5.5003968	-5.0420304	-3.0366774	86.05256202	1.55271618	-13.8942315
0.29	29	0.108	-1.013	-0.019	-5.7868758	-5.9014674	-3.437748	85.99526622	1.58709366	-13.9515273
0.3	30	0.095	-1.01	-0.016	-5.9014674	-6.6463128	-3.8388186	85.94942958	1.64438946	-14.02601184
0.31	31	0.093	-1.007	-0.014	-6.1879464	-6.7036086	-4.1252976	85.8864042	1.68449652	-14.10049638
0.32	32	0.087	-1.009	-0.011	-6.7036086	-6.302538	-4.3544808	85.81764924	1.72460358	-14.16352176
0.33	33	0.08	-1.017	-0.012	-7.6203414	-5.5003968	-4.5263682	85.73743512	1.76471064	-14.22081756
0.34	34	0.074	-1.022	-0.013	-8.7089616	-4.5263682	-4.4690724	85.64576184	1.81054728	-14.27238378
0.35	35	0.074	-1.026	-0.017	-9.740286	-3.4950438	-4.1825934	85.55981814	1.8621135	-14.31249084
0.36	36	0.075	-1.025	-0.024	-10.7716104	-2.6929026	-3.7815228	85.45095612	1.90222056	-14.34686832
0.37	37	0.078	-1.021	-0.028	-11.0580894	-1.8334656	-3.4950438	85.33636452	1.93086846	-14.36978664
0.38	38	0.081	-1.01	-0.03	-11.2299768	-0.4010706	-3.437748	85.22177292	1.96524594	-14.37551622
0.39	39	0.081	-1.002	-0.028	-11.2872726	-0.1718874	-3.6669312	85.10718132	1.99962342	-14.3812458
0.4	40	0.083	-0.996	-0.025	-11.5737516	-0.1718874	-4.1252976	85.00977846	2.0626488	-14.39270496
0.41	41	0.081	-0.987	-0.025	-12.0894138	-0.0572958	-4.4690724	84.8837277	2.10275586	-14.39843454
0.42	42	0.076	-0.981	-0.022	-12.5477802	0.6302538	-4.4690724	84.75767694	2.1485925	-14.39843454
0.43	43	0.072	-0.985	-0.022	-12.891555	1.8907614	-4.4117766	84.6258966	2.19442914	-14.3812458
0.44	44	0.067	-0.99	-0.019	-13.2353298	3.8961144	-4.4690724	84.49411626	2.24026578	-14.3525979
0.45	45	0.064	-0.999	-0.017	-13.5218088	5.6149884	-4.4117766	84.37379508	2.291832	-14.30103168
0.46	46	0.069	-1	-0.022	-13.9801752	7.3338624	-4.4117766	84.23055558	2.34339822	-14.2380063
0.47	47	0.074	-0.991	-0.027	-13.9228794	8.4224826	-4.010706	84.09304566	2.38923486	-14.15779218
0.48	48	0.082	-0.979	-0.033	-13.8655836	9.2246238	-3.6669312	83.95553574	2.42934192	-14.07184848
0.49	49	0.088	-0.967	-0.034	-13.5218088	9.7975818	-3.3231564	83.81802582	2.46944898	-13.9801752
0.5	50	0.093	-0.956	-0.033	-13.0061466	9.9694692	-3.0366774	83.70343422	2.5210152	-13.88850192
0.51	51	0.097	-0.953	-0.034	-12.4331886	10.2559482	-2.6929026	83.58311304	2.55539268	-13.79109906
0.52	52	0.105	-0.954	-0.034	-12.0894138	10.6570188	-2.2345362	83.46279186	2.58404058	-13.68796662
0.53	53	0.112	-0.962	-0.032	-11.45916	11.0580894	-1.6042824	83.34820026	2.6069589	-13.58483418
0.54	54	0.116	-0.972	-0.025	-10.3705398	11.2872726	-0.9740286	83.24506782	2.62987722	-13.47597216
0.55	55	0.12	-0.979	-0.022	-9.9121734	11.45916	-0.286479	83.17631286	2.6642547	-13.36711014
0.56	56	0.124	-0.984	-0.02	-10.026765	11.6883432	0.4583664	83.07318042	2.66998428	-13.25251854
0.57	57	0.127	-0.986	-0.018	-10.8289062	11.5164558	1.432395	82.97004798	2.6642547	-13.13792694
0.58	58	0.132	-0.983	-0.021	-11.8029348	10.599723	2.005353	82.8497268	2.65279554	-13.0347945
0.59	59	0.141	-0.978	-0.023	-11.6310474	8.8235532	2.291832	82.7351352	2.64133638	-12.94312122
0.6	60	0.149	-0.972	-0.024	-10.599723	6.4744254	1.7761698	82.66638024	2.66998428	-12.88582542
0.61	61	0.157	-0.968	-0.025	-9.3392154	4.6982556	0.9167328	82.57470696	2.6642547	-12.83998878
0.62	62	0.156	-0.961	-0.024	-7.6776372	3.151269	0	82.49449284	2.6642547	-12.81134088
0.63	63	0.152	-0.956	-0.014	-6.302538	1.8334656	-0.286479	82.43146746	2.66998428	-12.79415214
0.64	64	0.144	-0.954	-0.003	-5.156622	0.7448454	-0.572958	82.37990124	2.67571386	-12.78269298
0.65	65	0.136	-0.952	0.011	-4.5263682	0.1145916	-0.6875496	82.46584494	2.78457588	-12.8056113
0.66	66	0.133	-0.959	0.018	-4.2398892	-0.6302538	-0.9167328	82.4200083	2.79030546	-12.81707046
0.67	67	0.133	-0.973	0.022	-3.9534102	-1.718874	-1.2032118	82.37990124	2.80176462	-12.8342592
0.68	68	0.145	-0.99	0.032	-3.4950438	-3.151269	-1.5469866	82.33979418	2.81322378	-12.86863668
0.69	69	0.161	-1.003	0.042	-2.9220858	-4.870143	-1.8907614	82.31114628	2.83041252	-12.9202029
0.7	70	0.177	-1.017	0.039	-2.9220858	-6.6463128	-2.1199446	82.3627125	2.91635622	-13.0061466
0.71	71	0.192	-1.02	0.036	-3.3231564	-7.9641162	-2.005353	82.32260544	2.92781538	-13.08636072
0.72	72	0.206	-1.022	0.03	-3.3804522	-9.9694692	-2.0626488	82.28822796	2.93354496	-13.18376358
0.73	73	0.21	-1.019	0.024	-3.0939732	-12.4331886	-2.2345362	82.2481209	2.94500412	-13.30981434
0.74	74	0.206	-1.018	0.012	-2.1772404	-14.3812458	-2.6929026	82.22520258	2.95646328	-13.45878342
0.75	75	0.203	-1.015	0.005	-0.6302538	-15.183387	-3.437748	82.25385048	3.02521824	-13.61921166
0.76	76	0.2	-1.014	0.01	2.4064236	-15.8136408	-4.0680018	82.27103922	3.04813656	-13.7796399
0.77	77	0.196	-1.002	0.028	6.8182002	-16.5584862	-4.1252976	82.3340646	3.07105488	-13.9515273
0.78	78	0.191	-0.983	0.034	14.4958374	-18.7930224	-3.0366774	82.4773041	3.08251404	-14.13487386
0.79	79	0.169	-1.007	-0.005	18.907614	-22.058883	-2.7501984	82.66065066	3.08824362	-14.35832748
0.8	80	0.071	-1.159	-0.101	17.475219	-23.491278	-7.3338624	82.82680848	3.13980984	-14.59324026
0.81	81	-0.035	-1.388	-0.03	15.756345	-5.0420304	-19.6524594	82.98723672	3.32888598	-14.6677248
0.82	82	-0.137	-1.536	0.012	18.1054728	19.6524594	-33.4034514	83.17631286	3.67839036	-14.51302614
0.83	83	-0.152	-1.565	0.04	13.2926256	40.7946096	-41.7113424	83.33101152	4.1252976	-14.1520626
0.84	84	0.002	-1.418	0.007	9.3965112	52.5402486	-37.2995658	83.4513327	4.54355694	-13.67650746
0.85	85	0.221	-1.193	-0.093	10.886202	53.571573	-20.3973048	83.60030178	4.80138804	-13.16657484
0.86	86	0.31	-1.056	-0.17	15.5844576	41.8832298	2.0626488	83.78937792	4.8128472	-12.7483155
0.87	87	0.329	-1.011	-0.187	17.0168526	29.0489706	15.9855282	83.98418364	4.68106686	-12.44464776
0.88	88	0.349	-1.02	-0.195	15.2979786	16.3865988	22.5172494	84.15034146	4.4690724	-12.25557162
0.89	89	0.372	-1.051	-0.22	12.1467096	7.6776372	22.2880662	84.2821218	4.25707794	-12.15816876
0.9	90	0.353	-1.051	-0.236	11.8602306	1.2032118	19.7097552	84.38525424	4.0966497	-12.12952086
0.91	91	0.29	-0.997	-0.244	11.8029348	-5.5003968	17.4179232	84.49984584	3.9247623	-12.16389834
0.92	92	0.206	-0.912	-0.249	9.5111028	-13.1207382	15.756345	84.59151912	3.75860448	-12.27848994
0.93	93	0.118	-0.813	-0.268	6.7036086	-19.0795014	13.5218088	84.6545445	3.6096354	-12.45610692
0.94	94	0.047	-0.741	-0.268	3.7815228	-24.4653066	8.2505952	84.67746282	3.51223254	-12.6910197
0.95	95	0.022	-0.725	-0.273	0.0572958	-24.6944898	1.3750992	84.63735576	3.47785506	-12.92593248
0.96	96	0.028	-0.731	-0.251	-6.1879464	-21.6578124	-6.302538	84.56287122	3.5236917	-13.1493861
0.97	97	0.034	-0.777	-0.22	-10.6570188	-17.0168526	-12.3758928	84.44255004	3.63255372	-13.32700308
0.98	98	0.038	-0.856	-0.196	-13.0061466	-12.0894138	-14.2093584	84.30504012	3.76433406	-13.464513
0.99	99	0.036	-0.931	-0.169	-12.2613012	-7.5630456	-11.172681	84.17325978	3.87319608	-13.5504567
1	100	0.047	-0.982	-0.162	-10.4278356	-4.1252976	-4.7555514	84.03002028	3.90757356	-13.59629334
1.01	101	0.077	-1.014	-0.17	-9.1100322	-2.578311	2.2345362	83.93261742	3.87892566	-13.61921166
1.02	102	0.082	-1.018	-0.165	-7.3338624	-1.7761698	8.1360036	83.85813288	3.79871154	-13.63067082
1.03	103	0.069	-1	-0.159	-6.1879464	-1.6042824	11.2299768	83.7951075	3.68411994	-13.6364004
1.04	104	0.049	-0.976	-0.16	-5.6149884	-1.3750992	12.7196676	83.7378117	3.55806918	-13.6364004
1.05	105	0.031	-0.948	-0.151	-4.870143	-0.9740286	12.9488508	83.66332716	3.41482968	-13.63067082
1.06	106	0.026	-0.933	-0.133	-4.2398892	-0.0572958	12.0894138	83.6232201	3.2945085	-13.61921166
1.07	107	0.04	-0.92	-0.117	-4.8128472	0.5156622	10.1986524	83.57738346	3.19710564	-13.60202292
1.08	108	0.066	-0.912	-0.106	-6.4171296	0.4583664	7.734933	83.5086285	3.11689152	-13.59056376
1.09	109	0.094	-0.914	-0.098	-7.734933	-0.1145916	5.8441716	83.43414396	3.05959572	-13.58483418
1.1	110	0.106	-0.928	-0.095	-8.8235532	-2.6929026	5.0420304	83.34247068	3.02521824	-13.6077525
1.11	111	0.104	-0.944	-0.086	-9.167328	-5.0420304	5.6722842	83.24506782	2.96219286	-13.65358914
1.12	112	0.091	-0.956	-0.079	-9.453807	-6.7609044	6.9327918	83.14766496	2.88770832	-13.71661452
1.13	113	0.07	-0.959	-0.077	-9.3965112	-7.6203414	8.3651868	83.0502621	2.79603504	-13.7796399
1.14	114	0.047	-0.957	-0.077	-8.880849	-7.6776372	9.453807	82.95858882	2.69863218	-13.84839486
1.15	115	0.023	-0.947	-0.075	-7.7922288	-6.6463128	10.0840608	82.88410428	2.58404058	-13.89996108
1.16	116	-0.001	-0.934	-0.069	-6.875496	-4.9274388	10.313244	82.80961974	2.47517856	-13.93433856
1.17	117	-0.026	-0.923	-0.06	-6.5317212	-2.9220858	10.2559482	82.74659436	2.37204612	-13.9515273
1.18	118	-0.043	-0.915	-0.049	-6.3598338	0.1145916	10.1413566	82.68356898	2.27464326	-13.94006814
1.19	119	-0.042	-0.914	-0.04	-6.1879464	2.86479	9.5111028	82.6205436	2.18296998	-13.89996108
1.2	120	-0.034	-0.916	-0.03	-6.2452422	5.5003968	8.2505952	82.57470696	2.0912967	-13.8369357
1.21	121	-0.018	-0.92	-0.023	-6.5317212	7.6203414	6.4744254	82.51168158	2.0340009	-13.75672158
1.22	122	0.002	-0.923	-0.022	-7.2192708	8.9954406	4.583664	82.43719704	1.99962342	-13.65931872
1.23	123	0.017	-0.931	-0.023	-7.5057498	9.5111028	2.8074942	82.36844208	1.9767051	-13.56191586
1.24	124	0.031	-0.948	-0.019	-7.448454	9.453807	0.859437	82.29395754	1.9767051	-13.47024258
1.25	125	0.039	-0.963	-0.016	-7.161975	9.3965112	-1.0886202	82.25385048	2.005353	-13.38429888
1.26	126	0.039	-0.972	-0.012	-6.4171296	9.5111028	-4.010706	82.1908251	2.05691922	-13.2926256
1.27	127	0.03	-0.986	-0.008	-5.0993262	9.6256944	-6.7036086	82.14498846	2.13140376	-13.21241148
1.28	128	0.021	-0.998	-0.012	-3.151269	10.1986524	-8.59437	82.11061098	2.22880662	-13.1207382
1.29	129	0.014	-1.011	-0.013	-0.3437748	10.9434978	-9.7975818	82.11061098	2.33766864	-13.02906492
1.3	130	0.014	-1.025	-0.007	3.6669312	11.8602306	-10.4278356	82.17936594	2.45226024	-12.92593248
1.31	131	0.022	-1.044	0.012	7.448454	12.4904844	-10.1986524	82.25958006	2.56685184	-12.81707046
1.32	132	0.02	-1.056	0.038	10.7716104	11.6883432	-8.880849	82.36844208	2.66998428	-12.70820844
1.33	133	0.009	-1.072	0.076	14.5531332	12.318597	-6.7609044	82.52314074	2.7501984	-12.59361684
1.34	134	0.032	-1.086	0.051	19.7097552	13.1207382	-3.9534102	82.72940562	2.80176462	-12.46756608
1.35	135	0.07	-1.087	0.033	24.4080108	12.2040054	-2.2345362	83.00442546	2.84760126	-12.35297448
1.36	136	0.119	-1.076	0.051	28.4187168	10.599723	-1.432395	83.29663404	2.87624916	-12.24411246
1.37	137	0.167	-1.04	0.11	30.1948866	7.3338624	-2.5210152	83.60603136	2.90489706	-12.16962792
1.38	138	0.189	-0.993	0.228	31.4553942	3.9534102	-5.2139178	83.92688784	2.96792244	-12.13525044
1.39	139	0.164	-0.984	0.351	31.7418732	3.8961144	-7.7922288	84.24774432	3.04813656	-12.10087296
1.4	140	0.211	-1.181	0.153	17.2460358	11.8029348	-6.5317212	84.4253613	3.13408026	-11.98628136
1.41	141	0.254	-1.491	-0.078	5.5576926	2.9793816	2.6356068	84.4826571	3.11116194	-11.95763346
1.42	142	0.351	-1.838	-0.26	14.1520626	-8.880849	19.767051	84.6258966	2.91062664	-12.02638842
1.43	143	0.477	-2.084	-0.373	5.6722842	-28.5906042	34.7785506	84.67746282	2.5496631	-12.27276036
1.44	144	0.553	-1.884	-0.37	7.9641162	-32.085648	39.4195104	84.75194736	2.14286292	-12.55350978
1.45	145	0.471	-1.399	-0.436	5.0420304	-31.3408026	35.7525792	84.78632484	1.7761698	-12.8342592
1.46	146	0.274	-0.968	-0.402	15.8709366	-32.7731976	26.929026	84.9410235	1.49542038	-13.13219736
1.47	147	0.066	-0.721	-0.281	24.1215318	-32.2575354	16.042824	85.18739544	1.3178034	-13.4358651
1.48	148	-0.114	-0.659	-0.164	17.7044022	-26.7571386	7.734933	85.36501242	1.22613012	-13.6936962
1.49	149	-0.226	-0.654	-0.2	4.9847346	-12.2613012	3.6669312	85.41084906	1.18602306	-13.8082878
1.5	150	-0.32	-0.677	-0.253	-6.875496	3.724227	4.583664	85.2847983	1.06570188	-13.75672158
1.51	151	-0.388	-0.722	-0.267	-13.750992	19.2513888	9.5111028	85.14728838	0.98548776	-13.55618628
1.52	152	-0.431	-0.812	-0.291	-17.9335854	33.804522	14.1520626	84.9696714	0.859437	-13.21814106
1.53	153	-0.424	-0.944	-0.312	-22.5172494	44.2323576	16.2720072	84.7404882	0.72192708	-12.76550424
1.54	154	-0.321	-1.078	-0.311	-27.3300966	46.0085274	16.2147114	84.45973878	0.59014674	-12.30140826
1.55	155	-0.153	-1.165	-0.314	-31.0543236	43.9458786	14.32395	84.13315272	0.46982556	-11.85450102
1.56	156	0.022	-1.165	-0.318	-32.085648	40.5654264	11.4018642	83.80083708	0.38961144	-11.44770084
1.57	157	0.188	-1.068	-0.31	-27.5592798	35.9817624	6.7036086	83.52008766	0.34950438	-11.0867373
1.58	158	0.273	-0.937	-0.268	-18.621135	32.372127	-0.8021412	83.33101152	0.38388186	-10.7716104
1.59	159	0.296	-0.834	-0.225	-12.8342592	30.4240698	-8.4224826	83.19923118	0.49274388	-10.4851314
1.6	160	0.272	-0.797	-0.204	-10.8289062	29.1062664	-14.1520626	83.07318042	0.68182002	-10.21584114
1.61	161	0.227	-0.811	-0.197	-10.1986524	28.0176462	-16.7303736	82.9643184	0.87662574	-9.95801004
1.62	162	0.187	-0.839	-0.183	-10.886202	26.6998428	-16.3865988	82.85545638	1.0599723	-9.71736768
1.63	163	0.152	-0.862	-0.155	-12.4904844	24.9809688	-14.8396122	82.72940562	1.2318597	-9.48818448
1.64	164	0.127	-0.883	-0.13	-14.037471	23.2620948	-13.178034	82.5918957	1.38082878	-9.27619002
1.65	165	0.111	-0.913	-0.121	-15.5844576	20.340009	-12.032118	82.43146746	1.53552744	-9.09284346
1.66	166	0.106	-0.94	-0.112	-16.7876694	15.6417534	-11.8602306	82.25958006	1.66730778	-8.96106312
1.67	167	0.112	-0.946	-0.105	-17.2460358	13.0061466	-12.891555	82.08769266	1.8048177	-8.84647152
1.68	168	0.126	-0.928	-0.107	-17.3606274	13.4072172	-14.896908	81.91580526	1.96524594	-8.7376095
1.69	169	0.151	-0.903	-0.119	-17.3033316	14.7250206	-17.761698	81.73818828	2.15432208	-8.6230179
1.7	170	0.173	-0.882	-0.13	-17.2460358	14.4385416	-21.0848544	81.56630088	2.39496444	-8.5084263
1.71	171	0.183	-0.868	-0.137	-16.8449652	11.6883432	-23.5485738	81.39441348	2.64133638	-8.43394176
1.72	172	0.186	-0.859	-0.144	-16.042824	8.1932994	-24.637194	81.23398524	2.88770832	-8.38810512
1.73	173	0.192	-0.841	-0.149	-15.4125702	4.9847346	-23.8923486	81.073557	3.12835068	-8.37664596
1.74	174	0.206	-0.834	-0.141	-15.1260912	0.5156622	-21.8296998	80.91885834	3.34034514	-8.40529386
1.75	175	0.211	-0.841	-0.122	-15.183387	-3.8388186	-19.767051	80.76415968	3.5523396	-8.4797784
1.76	176	0.202	-0.859	-0.115	-15.0687954	-7.161975	-17.7044022	80.60373144	3.71849742	-8.57718126
1.77	177	0.182	-0.883	-0.104	-14.7823164	-8.4797784	-15.6417534	80.4433032	3.85600734	-8.69177286
1.78	178	0.149	-0.914	-0.087	-14.2666542	-8.8235532	-13.5218088	80.29433412	3.97632852	-8.80063488
1.79	179	0.122	-0.945	-0.072	-14.3812458	-8.4797784	-11.9748222	80.13963546	4.07946096	-8.90376732
1.8	180	0.105	-0.975	-0.072	-15.2979786	-7.9068204	-10.7143146	79.99639596	4.1825934	-9.00117018
1.81	181	0.105	-1.013	-0.072	-16.7876694	-8.021412	-9.5683986	79.81877898	4.26280752	-9.09857304
1.82	182	0.115	-1.03	-0.072	-18.1054728	-8.2505952	-7.9641162	79.62970284	4.3258329	-9.1959759
1.83	183	0.133	-1.038	-0.081	-18.2773602	-8.7089616	-6.4171296	79.4406267	4.37739912	-9.29337876
1.84	184	0.15	-1.035	-0.086	-17.2460358	-10.0840608	-5.156622	79.25728014	4.40604702	-9.40797036
1.85	185	0.169	-1.03	-0.088	-15.1260912	-11.2299768	-4.7555514	79.11977022	4.45761324	-9.52829154
1.86	186	0.194	-1.027	-0.079	-12.4904844	-12.605076	-5.0993262	78.9822603	4.48626114	-9.66580146
1.87	187	0.21	-1.032	-0.047	-9.3392154	-16.329303	-6.016059	78.87339828	4.52063862	-9.83768886
1.88	188	0.202	-1.046	-0.019	-5.8441716	-21.3140376	-6.7609044	78.79891374	4.54928652	-10.06114248
1.89	189	0.198	-1.079	-0.004	-3.3804522	-24.5798982	-7.161975	78.74734752	4.57793442	-10.313244
1.9	190	0.207	-1.116	0.018	-0.9740286	-26.929026	-7.8495246	78.7530771	4.62950064	-10.59399342
1.91	191	0.224	-1.165	0.044	0.1718874	-26.4706596	-9.8548776	78.73588836	4.68106686	-10.87474284
1.92	192	0.236	-1.222	0.048	0.5156622	-22.7464326	-12.9488508	78.7244292	4.77274014	-11.12111478
1.93	193	0.233	-1.273	0.02	-1.3178034	-16.8449652	-15.469866	78.6957813	4.89306132	-11.3159205
1.94	194	0.218	-1.316	-0.027	-5.8441716	-10.3705398	-16.7303736	78.62702634	5.0420304	-11.44770084
1.95	195	0.184	-1.342	-0.084	-11.6310474	-3.7815228	-17.0741484	78.51243474	5.20245864	-11.52218538
1.96	196	0.137	-1.33	-0.158	-14.7823164	1.3750992	-16.329303	78.35773608	5.36288688	-11.5451037
1.97	197	0.053	-1.305	-0.377	-6.1879464	6.7609044	-15.0687954	78.2947107	5.52331512	-11.50499664
1.98	198	-0.025	-1.3	-0.579	14.7823164	18.3919518	-16.2720072	78.46086852	5.71239126	-11.35602756
1.99	199	-0.081	-1.222	-0.52	39.6486936	10.0840608	-20.1681216	78.8676687	5.9301153	-11.29300218
2	200	-0.007	-1.204	-0.046	59.4730404	-9.8548776	-24.350715	79.47500418	6.1592985	-11.4305121
2.01	201	0.317	-1.199	0.254	47.269035	-23.6058696	-20.8556712	79.927641	6.3311859	-11.69407278
2.02	202	0.635	-1.084	0.007	36.4401288	-33.804522	-6.8182002	80.26568622	6.35410422	-12.032118
2.03	203	0.766	-0.984	-0.222	41.825934	-45.9512316	14.3812458	80.64956808	6.15356892	-12.4618365
2.04	204	0.776	-0.951	-0.276	47.0971476	-56.2071798	33.0023808	81.08501616	5.76395748	-12.96030996
2.05	205	0.632	-0.88	-0.26	41.825934	-63.7702254	40.680018	81.45743886	5.31132066	-13.5218088
2.06	206	0.441	-0.774	-0.306	32.4294228	-70.9322004	37.5860448	81.73818828	4.86441342	-14.16352176
2.07	207	0.225	-0.725	-0.306	28.8770832	-71.906229	28.8197874	81.9902898	4.50344988	-14.83388262
2.08	208	0.02	-0.68	-0.331	23.204799	-64.457775	19.0795014	82.18509552	4.24561878	-15.4412181
2.09	209	-0.196	-0.674	-0.354	15.4125702	-52.998615	9.2819196	82.31114628	4.0966497	-15.94542114
2.1	210	-0.388	-0.701	-0.317	5.156622	-41.6540466	-0.6302538	82.29395754	3.97632852	-16.34649174
2.11	211	-0.472	-0.731	-0.278	-4.8128472	-31.51269	-8.5370742	82.22520258	4.02216516	-16.66734822
2.12	212	-0.407	-0.775	-0.35	-11.8029348	-23.7204612	-11.0007936	82.08769266	4.10810886	-16.91944974
2.13	213	-0.216	-0.861	-0.473	-13.2926256	-19.3659804	-6.5317212	81.94445316	4.14821592	-17.11998504
2.14	214	-0.034	-0.974	-0.521	-11.0580894	-13.4072172	2.6929026	81.82413198	4.10810886	-17.25176538
2.15	215	0.101	-1.053	-0.518	-11.3445684	-6.4171296	11.0007936	81.65224458	3.98778768	-17.29760202
2.16	216	0.16	-1.047	-0.514	-10.7716104	0.6875496	17.0741484	81.54338256	3.82162986	-17.26322454
2.17	217	0.142	-0.949	-0.512	-7.1046792	8.1360036	21.0848544	81.48035718	3.62109456	-17.15436252
2.18	218	0.058	-0.838	-0.483	-3.0939732	13.0061466	24.8663772	81.45743886	3.39191136	-16.99393428
2.19	219	-0.026	-0.748	-0.424	-0.5156622	15.0687954	28.5333084	81.45743886	3.12835068	-16.80485814
2.2	220	-0.068	-0.701	-0.351	1.0313244	12.5477802	31.9710564	81.4459797	2.81322378	-16.62724116
2.21	221	-0.062	-0.732	-0.273	0.0572958	9.167328	34.6066632	81.45170928	2.48663772	-16.48973124
2.22	222	0	-0.83	-0.223	-3.3804522	6.3598338	34.8358464	81.42306138	2.1485925	-16.37513964
2.23	223	0.089	-0.952	-0.191	-6.1306506	5.0993262	32.7159018	81.36576558	1.8334656	-16.27773678
2.24	224	0.191	-1.048	-0.154	-5.9014674	3.2658606	28.4187168	81.3027402	1.55844576	-16.20325224
2.25	225	0.271	-1.085	-0.112	-1.0886202	-0.6302538	23.204799	81.30846978	1.38655836	-16.18033392
2.26	226	0.293	-1.064	-0.091	3.0366774	-6.589017	18.8503182	81.34284726	1.19175264	-16.22044098
2.27	227	0.263	-1.018	-0.081	5.3858052	-13.178034	16.042824	81.39441348	1.01986524	-16.32357342
2.28	228	0.193	-0.97	-0.088	6.1879464	-17.0741484	13.6936962	81.45743886	0.86516658	-16.4725425
2.29	229	0.076	-0.939	-0.088	5.6149884	-16.902261	11.45916	81.51473466	0.73338624	-16.62151158
2.3	230	-0.04	-0.936	-0.094	1.718874	-11.5164558	10.4278356	81.53765298	0.58441716	-16.71318486
2.31	231	-0.134	-0.939	-0.118	-2.005353	-4.3544808	10.7143146	81.51473466	0.46982556	-16.74183276
2.32	232	-0.216	-0.944	-0.132	-3.5523396	4.0680018	12.3758928	81.48035718	0.35523396	-16.68453696
2.33	233	-0.255	-0.968	-0.121	-4.9274388	12.7769634	14.896908	81.42879096	0.22345362	-16.54129746
2.34	234	-0.245	-0.998	-0.11	-7.0473834	20.5118964	17.761698	81.35430642	0.07448454	-16.31211426
2.35	235	-0.182	-1.016	-0.093	-8.1360036	27.2728008	19.5951636	81.2740923	-0.10313244	-16.0141761
2.36	236	-0.099	-1.021	-0.083	-9.1100322	32.7159018	20.05353	81.17668944	-0.2578311	-15.66467172
2.37	237	0.002	-1.017	-0.054	-10.1413566	35.4661002	20.2254174	81.06782742	-0.41252976	-15.28651944
2.38	238	0.052	-1.012	-0.042	-11.1153852	35.3515086	20.1681216	80.94750624	-0.56722842	-14.90836716
2.39	239	0.08	-1	-0.043	-11.8602306	33.6899304	19.480572	80.8157259	-0.7161975	-14.5531332
2.4	240	0.092	-0.992	-0.059	-11.8602306	30.653253	18.1054728	80.7011343	-0.83651868	-14.22654714
2.41	241	0.102	-0.99	-0.059	-10.5424272	27.3300966	16.2720072	80.58081312	-0.96256944	-13.93433856
2.42	242	0.104	-0.988	-0.045	-8.880849	24.7517856	14.32395	80.48341026	-1.07143146	-13.67077788
2.43	243	0.088	-0.975	-0.011	-6.9900876	21.8296998	12.032118	80.40892572	-1.15737516	-13.4358651
2.44	244	0.06	-0.958	0.037	-4.3544808	18.6784308	9.6256944	80.3573595	-1.22613012	-13.2353298
2.45	245	0.019	-0.934	0.102	-1.8907614	16.3865988	6.9900876	80.42611446	-1.25477802	-13.08063114
2.46	246	-0.014	-0.927	0.159	0	13.9801752	4.8128472	80.42038488	-1.28342592	-12.93166206
2.47	247	-0.047	-0.932	0.178	-0.0572958	14.5531332	3.7815228	80.4146553	-1.30061466	-12.78269298
2.48	248	-0.091	-0.941	0.184	0.6302538	16.9595568	3.5523396	80.4146553	-1.31207382	-12.61080558
2.49	249	-0.132	-0.969	0.189	3.0366774	22.9756158	4.1825934	80.43757362	-1.32353298	-12.38162238
2.5	250	-0.161	-0.992	0.193	6.0733548	32.2575354	4.870143	80.54070606	-1.3464513	-12.0607659
2.51	251	-0.187	-0.992	0.215	11.0580894	42.3415962	5.3285094	80.63810892	-1.34072172	-11.63677698
2.52	252	-0.2	-0.984	0.245	15.2979786	52.4829528	5.5003968	80.77561884	-1.32353298	-11.10965562
2.53	253	-0.189	-0.968	0.254	17.8189938	61.7648724	5.3858052	80.93604708	-1.29488508	-10.49659056
2.54	254	-0.159	-0.977	0.202	18.907614	72.1354122	4.6982556	81.1022049	-1.24331886	-9.78039306
2.55	255	-0.107	-1.021	0.057	14.037471	77.7504006	4.1825934	81.22252608	-1.19175264	-9.00689976
2.56	256	-0.004	-1.143	-0.25	6.0733548	78.495246	5.2712136	81.25690356	-1.145916	-8.22767688
2.57	257	0.159	-1.284	-0.526	1.7761698	73.2813282	7.3911582	81.25117398	-1.12872726	-7.50002022
2.58	258	0.373	-1.357	-0.734	5.2712136	58.6708992	11.172681	81.28555146	-1.16883432	-6.9041439
2.59	259	0.613	-1.307	-0.753	18.907614	38.101707	14.037471	81.46889802	-1.25477802	-6.50880288
2.6	260	0.802	-1.139	-0.59	33.8618178	17.8762896	15.8709366	81.7897545	-1.35791046	-6.30826758
2.61	261	0.715	-0.899	-0.408	30.939732	-2.2345362	17.1314442	82.1048814	-1.52979786	-6.302538
2.62	262	0.392	-0.759	-0.294	20.3973048	-24.4080108	9.9121734	82.32260544	-1.65011904	-6.52599162
2.63	263	0.148	-0.858	-0.25	19.5378678	-23.5485738	-4.3544808	82.52887032	-1.62720072	-6.7609044
2.64	264	-0.026	-1.104	-0.263	22.6891368	-8.1360036	-19.8243468	82.7637831	-1.43812458	-6.86403684
2.65	265	-0.198	-1.378	-0.305	19.194093	8.1932994	-31.4553942	82.95285924	-1.12299768	-6.8182002
2.66	266	-0.319	-1.581	-0.349	12.318597	23.3766864	-35.5806918	83.06745084	-0.75057498	-6.62912406
2.67	267	-0.321	-1.609	-0.384	6.875496	32.6013102	-31.6845774	83.13047622	-0.40680018	-6.34264506
2.68	268	-0.164	-1.494	-0.426	2.8074942	33.8618178	-24.4080108	83.15339454	-0.13750992	-6.03897732
2.69	269	0.032	-1.336	-0.513	-0.3437748	30.4813656	-16.5584862	83.14766496	0.05156622	-5.7582279
2.7	270	0.12	-1.139	-0.604	-3.3231564	26.2987722	-6.302538	83.0502621	0.1432395	-5.5003968
2.71	271	0.13	-0.99	-0.625	-3.5523396	22.91832	0.572958	83.01015504	0.15469866	-5.2712136
2.72	272	0.151	-0.914	-0.624	-5.3285094	17.0741484	3.9534102	82.95858882	0.13178034	-5.0993262
2.73	273	0.198	-0.886	-0.596	-7.9068204	12.032118	2.3491278	82.87264512	0.12032118	-4.97900502
2.74	274	0.255	-0.891	-0.535	-10.2559482	8.7662574	-3.6669312	82.76951268	0.16615782	-4.8987909
2.75	275	0.275	-0.906	-0.471	-11.2299768	1.145916	-11.6883432	82.55751822	0.33804522	-4.89306132
2.76	276	0.287	-0.914	-0.416	-10.7143146	-8.59437	-19.7097552	82.4486562	0.52139178	-5.00765292
2.77	277	0.295	-0.927	-0.388	-10.0840608	-13.9801752	-25.8977016	82.34552376	0.76203414	-5.17954032
2.78	278	0.262	-0.937	-0.365	-7.1046792	-19.3659804	-29.6792244	82.27103922	1.03705398	-5.40872352
2.79	279	0.213	-0.947	-0.334	-3.151269	-22.5172494	-30.8824362	82.23666174	1.31207382	-5.6722842
2.8	280	0.15	-0.946	-0.284	-1.3178034	-23.777757	-30.5959572	82.1908251	1.6042824	-5.94157446
2.81	281	0.082	-0.948	-0.255	-0.8021412	-23.4339822	-28.9916748	82.17936594	1.8621135	-6.21086472
2.82	282	0.03	-0.94	-0.241	-1.5469866	-22.1734746	-26.4706596	82.15644762	2.09702628	-6.46869582
2.83	283	0.009	-0.923	-0.227	-2.5210152	-21.199446	-23.4339822	82.12207014	2.30902074	-6.7036086
2.84	284	-0.003	-0.896	-0.223	-3.724227	-20.2254174	-20.4546006	82.0762335	2.48663772	-6.9327918
2.85	285	-0.004	-0.865	-0.223	-4.5263682	-18.5065434	-17.8762896	81.99601938	2.62987722	-7.13905668
2.86	286	0.012	-0.833	-0.204	-4.297185	-15.6417534	-15.9282324	81.94445316	2.77311672	-7.31094408
2.87	287	0.035	-0.805	-0.169	-3.3231564	-13.2353298	-15.9282324	81.9043461	2.91062664	-7.46564274
2.88	288	0.061	-0.779	-0.126	-2.7501984	-10.599723	-17.0741484	81.86996862	3.07105488	-7.59742308
2.89	289	0.086	-0.761	-0.087	-2.9220858	-8.6516658	-19.1367972	81.83559114	3.24867186	-7.7062851
2.9	290	0.109	-0.753	-0.069	-3.7815228	-6.302538	-21.4286292	81.79548408	3.46066632	-7.79795838
2.91	291	0.129	-0.756	-0.078	-5.2712136	-2.9793816	-23.204799	81.73818828	3.68984952	-7.86098376
2.92	292	0.148	-0.769	-0.117	-7.3338624	0.4010706	-24.1788276	81.66370374	3.9247623	-7.89536124
2.93	293	0.183	-0.785	-0.157	-10.026765	1.432395	-23.777757	81.55484172	4.15967508	-7.91254998
2.94	294	0.223	-0.794	-0.188	-13.750992	-1.3750992	-22.345362	81.41160222	4.37739912	-7.95838662
2.95	295	0.268	-0.781	-0.2	-15.6417534	-5.443101	-21.0275586	81.23398524	4.6123119	-8.0500599
2.96	296	0.304	-0.763	-0.184	-15.0114996	-10.5424272	-19.9962342	81.06782742	4.78992888	-8.18184024
2.97	297	0.315	-0.754	-0.161	-12.891555	-16.5584862	-19.3659804	80.92458792	4.96181628	-8.37664596
2.98	298	0.314	-0.745	-0.129	-9.740286	-22.1734746	-18.7930224	80.80426674	5.11651494	-8.62874748
2.99	299	0.283	-0.756	-0.105	-6.3598338	-24.8663772	-17.7044022	80.71832304	5.25402486	-8.90376732
3	300	0.23	-0.786	-0.07	-2.2345362	-25.0382646	-16.5584862	80.68394556	5.40299394	-9.17305758
3.01	301	0.159	-0.835	-0.035	1.6615782	-22.7464326	-14.4385416	80.68394556	5.51758554	-9.4251591
3.02	302	0.082	-0.884	-0.015	4.583664	-19.2513888	-10.4851314	80.71259346	5.59779966	-9.6256944
3.03	303	0.036	-0.909	-0.015	4.297185	-16.2720072	-6.016059	80.74124136	5.63217714	-9.7975818
3.04	304	0.024	-0.909	-0.014	2.9220858	-13.6364004	-0.8021412	80.7584301	5.62071798	-9.93509172
3.05	305	0.047	-0.892	-0.014	2.6929026	-11.6883432	4.1252976	80.8157259	5.56342218	-10.04395374
3.06	306	0.088	-0.868	-0.011	3.3231564	-11.0580894	8.4797784	80.8443738	5.46601932	-10.13562702
3.07	307	0.133	-0.856	-0.01	3.5523396	-11.9175264	12.2040054	80.8730217	5.3285094	-10.23875946
3.08	308	0.18	-0.849	-0.007	3.6096354	-14.3812458	15.183387	80.9016696	5.16235158	-10.35335106
3.09	309	0.217	-0.847	-0.005	4.9847346	-19.4232762	18.2773602	80.94177666	4.96181628	-10.5137793
3.1	310	0.239	-0.852	0.011	7.5057498	-25.1528562	20.5118964	81.02772036	4.7555514	-10.73150334
3.11	311	0.243	-0.855	0.041	11.0580894	-29.3354496	22.0015872	81.11939364	4.50344988	-10.98933444
3.12	312	0.241	-0.85	0.072	15.0114996	-32.4294228	22.8610242	81.25690356	4.2398892	-11.27008386
3.13	313	0.228	-0.848	0.086	18.048177	-34.4920716	23.204799	81.42306138	3.97059894	-11.5737516
3.14	314	0.226	-0.847	0.095	19.8243468	-36.8411994	22.9756158	81.60640794	3.70130868	-11.90033766
3.15	315	0.217	-0.858	0.116	22.345362	-39.9351726	22.4026578	81.8470503	3.45493674	-12.26703078
3.16	316	0.203	-0.88	0.127	24.9809688	-42.685371	21.4286292	82.08196308	3.20283522	-12.65091264
3.17	317	0.191	-0.903	0.133	26.9863218	-45.263682	19.8243468	82.33979418	2.96219286	-13.06917198
3.18	318	0.183	-0.919	0.124	29.1635622	-49.5035712	18.3919518	82.6205436	2.73300966	-13.52753838
3.19	319	0.179	-0.923	0.113	32.085648	-54.144531	16.7876694	82.92994092	2.51528562	-14.037471
3.2	320	0.169	-0.905	0.139	37.1849742	-55.576926	15.1260912	83.31382278	2.33193906	-14.57032194
3.21	321	0.14	-0.884	0.141	41.1956802	-50.8213746	13.8082878	83.72062296	2.15432208	-15.05160666
3.22	322	0.085	-0.862	0.109	43.3156248	-42.8572584	13.750992	84.15034146	1.98816426	-15.45267726
3.23	323	-0.03	-0.847	0.136	48.5868384	-35.5806918	15.0114996	84.64308534	1.82200644	-15.7849929
3.24	324	-0.179	-0.856	0.25	55.0612638	-31.2835068	17.1314442	85.19312502	1.63865988	-16.07720148
3.25	325	-0.252	-0.875	0.365	59.7022236	-27.1009134	18.4492476	85.83483798	1.42666542	-16.32357342
3.26	326	-0.176	-0.904	0.422	58.0406454	-20.2827132	15.5271618	86.42498472	1.27196676	-16.50691998
3.27	327	-0.033	-0.947	0.41	55.9207008	-16.902261	8.7662574	86.99221314	1.18029348	-16.66161864
3.28	328	0.075	-0.996	0.36	60.2751816	-17.761698	0.7448454	87.59954862	1.1745639	-16.83350604
3.29	329	0.18	-1.045	0.28	68.6976642	-21.6578124	-4.1825934	88.29855738	1.22040054	-17.03977092
3.3	330	0.278	-1.099	0.171	75.057498	-25.6685184	-4.6982556	89.0663211	1.29488508	-17.28614286
3.31	331	0.327	-1.145	-0.063	75.1720896	-34.950438	-2.1772404	89.82262566	1.32926256	-17.62418808
3.32	332	0.274	-1.208	-0.438	73.1094408	-44.1750618	-0.2291832	90.56174148	1.35218088	-18.05390658
3.33	333	0.103	-1.266	-0.573	66.8641986	-48.8733174	-4.4690724	91.23783192	1.42093584	-18.52946172
3.34	334	-0.104	-1.349	-0.647	58.728195	-44.4615408	-16.1574156	91.82797866	1.61001198	-18.95345064
3.35	335	-0.361	-1.429	-0.74	52.5975444	-34.2628884	-33.2888598	92.34364086	1.95951636	-19.27430712
3.36	336	-0.56	-1.529	-0.788	39.4195104	-15.6990492	-53.7434604	92.73898188	2.50955604	-19.40035788
3.37	337	-0.69	-1.544	-0.844	24.1788276	1.145916	-70.473834	92.98535382	3.2085648	-19.34879166
3.38	338	-0.638	-1.5	-0.862	14.2093584	16.615782	-73.7396946	93.14005248	3.9247623	-19.14252678
3.39	339	-0.414	-1.369	-0.875	12.0894138	35.1796212	-64.1140002	93.28902156	4.53209778	-18.75291534
3.4	340	-0.072	-1.243	-0.767	19.5951636	52.3110654	-51.5089242	93.49528644	5.00192334	-18.20287566
3.41	341	0.296	-1.148	-0.689	25.496631	62.738901	-38.5027776	93.80468376	5.3285094	-17.54970354
3.42	342	0.582	-1.095	-0.664	32.8304934	56.2071798	-27.788463	94.18856562	5.55196302	-16.97101596
3.43	343	0.807	-1.184	-0.603	40.5081306	43.2010332	-16.329303	94.63547286	5.6722842	-16.5298383
3.44	344	0.909	-1.327	-0.524	43.2010332	27.9603504	-2.5210152	95.09956884	5.66655462	-16.2433593
3.45	345	0.855	-1.331	-0.481	51.7954032	8.6516658	12.7196676	95.61523104	5.54623344	-16.16314518
3.46	346	0.63	-1.197	-0.351	64.4004792	-13.2353298	25.8977016	96.256944	5.31132066	-16.31784384
3.47	347	0.395	-1.028	-0.185	72.7083702	-30.1375908	32.658606	96.9731415	5.03630082	-16.63870032
3.48	348	0.233	-0.847	-0.112	76.5471888	-38.1590028	33.6326346	97.7179869	4.77274014	-17.05123008
3.49	349	0.153	-0.744	0.03	80.2714158	-45.6647526	29.0489706	98.50293936	4.56647526	-17.52678522
3.5	350	0.124	-0.724	0.23	77.062851	-50.3057124	22.7464326	99.2649735	4.44615408	-18.04244742
3.51	351	0.151	-0.748	0.307	65.89017	-52.3683612	14.2093584	99.90095688	4.4117766	-18.56956878
3.52	352	0.106	-0.778	0.285	52.8840234	-53.285094	4.583664	100.3994303	4.47480198	-19.08523098
3.53	353	-0.025	-0.768	0.237	40.7373138	-48.5295426	-0.5156622	100.7833122	4.583664	-19.55505654
3.54	354	-0.2	-0.694	0.183	31.8564648	-36.096354	-2.3491278	101.0869799	4.68679644	-19.89310176
3.55	355	-0.409	-0.585	0.162	24.7517856	-22.5172494	0.572958	101.3161631	4.65241896	-20.09936664
3.56	356	-0.557	-0.466	0.15	17.5325148	-9.0527364	8.1360036	101.4880505	4.59512316	-20.20249908
3.57	357	-0.538	-0.357	0.131	10.026765	6.8182002	17.0741484	101.591183	4.4117766	-20.1681216
3.58	358	-0.356	-0.287	0.109	4.1252976	15.9282324	22.345362	101.6427492	4.15967508	-20.05925958
3.59	359	-0.168	-0.264	0.022	2.2345362	16.2147114	23.5485738	101.6713971	3.8961144	-19.95039756
3.6	360	0.011	-0.237	-0.061	1.0313244	14.7250206	23.2620948	101.6713971	3.6382833	-19.85872428
3.61	361	0.15	-0.186	-0.102	0.4010706	12.5477802	22.5172494	101.6771267	3.39191136	-19.78423974
3.62	362	0.207	-0.103	-0.055	0.2291832	7.3338624	21.2567418	101.6828563	3.16845774	-19.75559184
3.63	363	0.189	-0.002	0.024	-3.437748	3.6669312	18.2773602	101.6484788	2.9793816	-19.75559184
3.64	364	0.141	0.073	0.058	-15.9282324	4.6982556	12.7769634	101.482321	2.84760126	-19.7384031
3.65	365	0.109	0.099	-0.042	-32.658606	10.1986524	4.9274388	101.1385462	2.7788463	-19.6524594
3.66	366	0.079	0.123	-0.217	-34.8358464	15.9282324	1.3178034	100.7947714	2.72728008	-19.50349032
3.67	367	0.045	0.184	-0.207	-19.767051	9.740286	2.8074942	100.5942361	2.68144344	-19.41754662
3.68	368	0.05	0.211	-0.149	-8.880849	0.8021412	6.9900876	100.5025628	2.6069589	-19.4232762
3.69	369	0.083	0.184	-0.015	-4.1252976	-7.448454	10.026765	100.4567261	2.52674478	-19.51494948
3.7	370	0.071	0.095	0.154	-0.9167328	-20.2254174	7.6203414	100.4624557	2.50382646	-19.72694394
3.71	371	0.033	0.007	0.207	2.1199446	-24.9809688	2.578311	100.4796445	2.52674478	-19.97331588
3.72	372	-0.005	-0.061	0.177	3.6669312	-22.2307704	-0.8021412	100.5082924	2.58404058	-20.18531034
3.73	373	-0.012	-0.168	0.037	8.0787078	-14.5531332	-4.4117766	100.5885065	2.65852512	-20.31709068
3.74	374	-0.014	-0.345	-0.2	14.037471	3.437748	-11.745639	100.731746	2.76165756	-20.25979488
3.75	375	-0.124	-0.646	-0.417	16.042824	26.929026	-26.0122932	100.8234193	2.9220858	-19.9389384
3.76	376	-0.467	-1.292	-0.576	3.724227	81.073557	-57.6968706	100.8979038	3.31169724	-19.04512392
3.77	377	-0.958	-2.304	-0.446	-10.026765	174.0646404	-113.3883882	100.8921742	4.04508348	-17.14863294
3.78	378	-0.923	-1.809	0.093	-40.7373138	144.9010782	-112.9873176	100.5827769	4.83576552	-15.53289138
3.79	379	-0.536	-0.293	-0.227	-73.8542862	76.3753014	-42.398892	99.8952273	5.09359662	-14.7250206
3.8	380	-0.523	0.34	-0.109	-23.3193906	21.1421502	30.4813656	99.68323284	4.70398518	-14.56459236
3.81	381	-0.033	0.194	0.318	-3.7815228	-6.9900876	65.4318036	99.63166662	4.07946096	-14.74220934
3.82	382	0.836	-0.316	0.098	0.9167328	13.4072172	35.7525792	99.64312578	3.70130868	-14.67345438
3.83	383	1.262	-0.897	-0.108	27.1582092	31.1116194	-11.6883432	99.93533436	3.75860448	-14.34686832
3.84	384	1.363	-1.093	-0.016	44.5188366	31.6272816	-45.4928652	100.4108895	4.14248634	-13.9515273
3.85	385	1.271	-0.573	0.054	30.8824362	11.1153852	-46.2377106	100.731746	4.68106686	-13.75672158
3.86	386	0.67	0.025	0.044	20.3973048	-8.7089616	-27.3300966	100.9380109	4.96754586	-13.78536948
3.87	387	-0.104	0.122	0.054	38.674665	-2.7501984	-9.3965112	101.3333519	5.06494872	-13.79109906
3.88	388	-0.664	-0.238	-0.229	66.5777196	15.4125702	-5.3285094	102.0209015	5.08786704	-13.62494124
3.89	389	-0.833	-0.616	-0.42	95.5120986	6.7036086	-12.7196676	102.9949301	5.19672906	-13.51607922
3.9	390	-0.312	-0.777	-0.461	114.1905294	-34.2055926	-11.172681	104.0950094	5.39153478	-13.80255822
3.91	391	0.278	-0.788	-0.248	129.488508	-50.0192334	-6.5317212	105.3727058	5.59779966	-14.24373588
3.92	392	0.69	-0.573	-0.166	139.801752	-46.9252602	-8.9954406	106.7592641	5.83271244	-14.64480648
3.93	393	0.638	-0.197	-0.056	157.1623794	-50.993262	-21.0275586	108.3177099	6.20513514	-15.0401475
3.94	394	0.569	0.006	0.117	177.2159094	-45.6647526	-34.4920716	110.0938797	6.69214944	-15.3266265
3.95	395	0.492	-0.01	0.371	196.7537772	-37.0130868	-43.0291458	112.0935031	7.25364828	-15.48132516
3.96	396	0.381	-0.155	0.485	212.1663474	-26.4133638	-49.4462754	114.2478252	7.8208767	-15.4985139
3.97	397	0.285	-0.336	0.522	224.4276486	-23.1475032	-53.0559108	116.5339276	8.40529386	-15.4412181
3.98	398	0.213	-0.526	0.569	232.620948	-23.3766864	-50.9359662	118.9059737	8.97252228	-15.37246314
3.99	399	0.183	-0.771	0.746	244.0228122	-20.626488	-44.7480198	121.398341	9.46526616	-15.28651944
4	400	0.244	-1.082	1.037	248.663772	-4.3544808	-40.680018	123.9594633	9.83195928	-15.0687954
4.01	401	0.284	-1.492	1.392	247.1167854	13.9801752	-44.0604702	126.5377743	10.10697912	-14.66199522
4.02	402	0.173	-2.393	1.623	245.6843904	33.6899304	-32.6013102	129.1160853	10.14708618	-14.16352176
4.03	403	0.089	-3.574	1.892	216.9218988	44.7480198	13.2926256	131.3563511	9.75174516	-13.88850192
4.04	404	0.093	-3.999	1.917	154.125702	51.56622	76.3180056	132.8976081	8.83501236	-14.01455268
4.05	405	0.653	-3.999	1.586	67.9528188	51.5089242	125.5923936	133.5106732	7.56877518	-14.50156698
4.06	406	0.456	-2.2	2.901	447.9958602	31.3980984	-55.8061092	138.1401738	7.69482594	-13.8369357
4.07	407	1.438	-2.013	3.197	840.3002028	190.5658308	-109.0339074	146.9064312	6.79528188	-11.75136858
4.08	408	0.596	-1.15	2.661	289.2291984	118.4304186	-47.3263308	149.9431086	6.00459984	-10.72577376
4.09	409	0.214	-1.318	2.475	92.4754212	117.1126152	-19.480572	150.9343259	5.0706783	-9.9981171
4.1	410	0.121	-1.185	2.377	148.7398968	148.396122	-21.6578124	152.4927717	3.85027776	-9.13295052
4.11	411	0.179	-0.523	1.536	161.8033392	130.634424	-10.6570188	154.1543499	2.7215505	-8.46831924
4.12	412	0.068	-0.53	1.032	161.4595644	103.3043274	-4.0680018	155.7987394	1.78762896	-8.00422326
4.13	413	0.2	-0.579	0.896	165.6994536	86.1155874	6.302538	157.4775063	0.96256944	-7.72347384
4.14	414	0.09	-0.701	0.874	172.9760202	83.8237554	11.45916	159.2250282	0.13178034	-7.52866812
4.15	415	0.07	-0.576	0.974	180.4244742	86.6885454	11.9175264	161.0355755	-0.72765666	-7.34532156
4.16	416	0.083	-0.339	1.003	193.086846	85.7145168	13.9801752	162.9836327	-1.6042824	-7.2192708
4.17	417	0.016	-0.141	1.158	185.065434	74.8283148	15.9855282	164.8457462	-2.3777757	-7.16770458
4.18	418	-0.078	-0.049	1.232	157.849929	65.6609868	15.6417534	166.4385694	-3.0653253	-7.15624542
4.19	419	-0.069	-0.084	1.167	126.6810138	55.7488134	14.8396122	167.7219953	-3.64974246	-7.17916374
4.2	420	-0.008	-0.103	0.872	99.121734	43.7739912	12.9488508	168.7246718	-4.11383844	-7.2192708
4.21	421	-0.083	-0.195	0.784	82.6778394	41.9978214	9.3965112	169.5611905	-4.54928652	-7.23645954
4.22	422	0.005	-0.323	0.781	71.046792	43.7166954	9.167328	170.277388	-4.99619376	-7.25364828
4.23	423	-0.026	-0.394	0.8	60.447069	36.955791	10.7143146	170.8904531	-5.3858052	-7.3052145
4.24	424	0.038	-0.492	0.937	51.1078536	26.642547	12.6623718	171.4118449	-5.66655462	-7.3911582
4.25	425	0.006	-0.205	1.029	37.6433406	24.6944898	14.2093584	171.8071859	-5.9301153	-7.50002022
4.26	426	-0.07	-0.235	0.918	29.6792244	19.7097552	11.5164558	172.1165832	-6.14210976	-7.5916935
4.27	427	-0.039	-0.424	0.908	42.6280752	18.9649098	11.4018642	172.5577609	-6.34837464	-7.6776372
4.28	428	-0.099	-0.374	1.213	69.7862844	30.5959572	11.5164558	173.2739584	-6.66923112	-7.75785132
4.29	429	-0.218	-0.211	1.28	81.360036	35.9817624	15.756345	174.1047475	-7.0473834	-7.8781725
4.3	430	-0.227	-0.135	1.153	66.6923112	24.4653066	21.0848544	174.7922971	-7.31667366	-8.06151906
4.31	431	-0.176	-0.152	1.039	61.4783934	21.199446	24.0069402	175.4397396	-7.55158644	-8.28497268
4.32	432	0.014	-0.314	0.987	56.722842	15.9282324	44.9199072	176.075723	-7.74639216	-8.72042076
4.33	433	-0.132	-0.106	1.016	49.4462754	13.9228794	61.0773228	176.6601401	-7.92973872	-9.32202666
4.34	434	-0.175	-0.043	1.014	29.9657034	14.8396122	56.9520252	177.0382924	-8.1073557	-9.88925508
4.35	435	-0.162	-0.018	0.997	15.9855282	14.7250206	54.5456016	177.2903939	-8.28497268	-10.43356518
4.36	436	-0.133	-0.015	1.02	8.1932994	11.8029348	49.7327544	177.4450926	-8.4224826	-10.92630906
4.37	437	-0.142	0.03	0.987	-2.9793816	7.3338624	45.6647526	177.4794701	-8.51415588	-11.38467546
4.38	438	-0.141	0.063	0.936	-7.1046792	5.6149884	34.7212548	177.4622813	-8.58291084	-11.73417984
4.39	439	-0.177	0.257	0.907	-8.7662574	4.2398892	21.5432208	177.4049855	-8.63447706	-11.95190388
4.4	440	-0.151	0.235	0.895	-9.1100322	0.8021412	8.1360036	177.5367659	-8.66312496	-12.07795464
4.41	441	-0.137	0.199	0.895	-7.6203414	-2.8074942	-0.8021412	177.4565518	-8.63447706	-12.07222506
4.42	442	-0.117	0.179	0.911	-9.3965112	-7.1046792	-1.0886202	177.3648785	-8.55999252	-12.0607659
4.43	443	-0.117	0.082	0.971	-8.9381448	-10.026765	0.6875496	177.2732052	-8.46258966	-12.07222506
4.44	444	-0.123	-0.083	1.063	-9.2819196	-13.2926256	1.4896908	177.1872615	-8.33080932	-12.0894138
4.45	445	-0.132	-0.144	1.077	-9.5111028	-14.8396122	1.0313244	177.0554812	-8.17611066	-12.10087296
4.46	446	-0.119	-0.138	1.044	-9.2246238	-13.5218088	-0.0572958	176.9638079	-8.03860074	-12.10087296
4.47	447	-0.1	-0.136	0.999	-9.2819196	-9.6829902	-1.5469866	176.866405	-7.94119788	-12.0894138
4.48	448	-0.102	-0.159	0.951	-13.4072172	-6.7036086	-2.9793816	176.7288951	-7.87244292	-12.0607659
4.49	449	-0.141	-0.171	0.971	-15.6417534	-7.2765666	-3.2658606	176.5684669	-7.79795838	-12.032118
4.5	450	-0.155	-0.162	1.044	-13.750992	-7.9068204	-3.0939732	176.3851203	-7.71201468	-11.99774052
4.51	451	-0.067	-0.184	1.081	-10.9434978	-5.8441716	-3.8388186	176.2705287	-7.65471888	-11.96336304
4.52	452	-0.064	-0.198	1.042	-8.9954406	-1.4896908	-5.5003968	176.1673963	-7.63180056	-11.90606724
4.53	453	-0.102	-0.132	1.024	-8.3651868	2.3491278	-6.2452422	176.075723	-7.6489893	-11.84304186
4.54	454	-0.096	-0.079	1.024	-8.880849	6.3598338	-6.3598338	175.9783201	-7.7062851	-11.78001648
4.55	455	-0.124	-0.108	1.015	-10.7716104	8.7089616	-6.7036086	175.8350806	-7.78076964	-11.70553194
4.56	456	-0.16	-0.12	1.029	-10.7716104	7.5057498	-6.8182002	175.7147594	-7.8495246	-11.6310474
4.57	457	-0.124	-0.11	1.031	-7.7922288	3.437748	-6.4744254	175.6288157	-7.8781725	-11.56802202
4.58	458	-0.086	-0.142	1.015	-5.443101	-2.578311	-5.3858052	175.5657904	-7.8495246	-11.5164558
4.59	459	-0.082	-0.18	1.006	-2.7501984	-6.589017	-4.9274388	175.5314129	-7.78076964	-11.47061916
4.6	460	-0.043	-0.19	0.976	-4.3544808	-9.2246238	-4.9847346	175.4225509	-7.6489893	-11.41332336
4.61	461	-0.13	-0.195	0.967	-7.3338624	-11.0580894	-5.3285094	175.3423367	-7.5343977	-11.36748672
4.62	462	-0.153	-0.169	0.94	-8.7089616	-9.9121734	-5.9587632	175.2449339	-7.43126526	-11.31019092
4.63	463	-0.121	-0.17	0.933	-9.9694692	-9.740286	-6.7036086	175.1360719	-7.32813282	-11.25289512
4.64	464	-0.078	-0.194	0.938	-9.9694692	-10.5424272	-6.3598338	175.0329394	-7.2192708	-11.19559932
4.65	465	-0.094	-0.195	0.938	-10.1413566	-10.8289062	-6.2452422	174.8725112	-7.08749046	-11.12684436
4.66	466	-0.08	-0.19	0.949	-8.9954406	-11.9748222	-4.870143	174.7808379	-6.9614397	-11.0867373
4.67	467	-0.054	-0.165	0.978	-9.5683986	-12.7769634	-3.724227	174.6777055	-6.83538894	-11.0580894
4.68	468	-0.066	-0.159	1.001	-12.1467096	-12.318597	-3.2085648	174.5573843	-6.70933818	-11.03517108
4.69	469	-0.082	-0.169	1.014	-14.9542038	-11.5737516	-2.86479	174.4026856	-6.589017	-11.01798234
4.7	470	-0.091	-0.183	1.018	-16.9595568	-10.7143146	-2.9220858	174.1964207	-6.46869582	-10.98933444
4.71	471	-0.089	-0.187	1.014	-16.615782	-9.167328	-3.151269	174.0302629	-6.37702254	-10.96641612
4.72	472	-0.089	-0.192	1.011	-14.896908	-7.9068204	-3.3804522	173.8755643	-6.29107884	-10.9434978
4.73	473	-0.094	-0.198	1.012	-12.9488508	-7.8495246	-3.2085648	173.7380543	-6.21086472	-10.9148499
4.74	474	-0.089	-0.202	1.024	-10.886202	-8.1360036	-2.4064236	173.6291923	-6.12492102	-10.89766116
4.75	475	-0.09	-0.205	1.033	-9.5683986	-8.0787078	-1.8907614	173.4916824	-6.03324774	-10.88047242
4.76	476	-0.087	-0.208	1.041	-9.1100322	-7.2192708	-1.4896908	173.4000091	-5.9587632	-10.87474284
4.77	477	-0.077	-0.218	1.026	-8.0787078	-5.7868758	-0.9740286	173.319795	-5.9014674	-10.86901326
4.78	478	-0.066	-0.215	1.005	-4.297185	-5.156622	-0.6302538	173.2739584	-5.84990118	-10.86901326
4.79	479	-0.067	-0.226	0.996	-0.9740286	-4.583664	-0.1718874	173.2624992	-5.80406454	-10.86901326
4.8	480	-0.068	-0.22	0.981	1.5469866	-3.6096354	0.1145916	173.0791526	-5.72385042	-10.84036536
4.81	481	-0.064	-0.211	0.972	3.7815228	-2.6356068	0.286479	173.1192597	-5.69520252	-10.84609494
4.82	482	-0.066	-0.199	0.969	5.3858052	-1.5469866	0.4583664	173.1765555	-5.68374336	-10.85182452
4.83	483	-0.072	-0.191	0.975	6.4171296	-0.7448454	0.6302538	173.2453105	-5.67801378	-10.8575541
4.84	484	-0.073	-0.187	0.983	6.5317212	-0.1718874	0.6875496	173.3083358	-5.67801378	-10.86328368
4.85	485	-0.075	-0.183	0.99	6.1879464	0	0.6875496	173.2567696	-5.64936588	-10.85182452
4.86	486	-0.076	-0.175	0.996	5.8441716	0	0.859437	173.319795	-5.64936588	-10.8575541
4.87	487	-0.08	-0.174	1	5.443101	-0.2291832	0.8021412	173.3770908	-5.64936588	-10.86901326
4.88	488	-0.08	-0.174	1.005	5.2139178	-0.6875496	0.7448454	173.428657	-5.6436363	-10.87474284
4.89	489	-0.076	-0.176	1.007	4.9847346	-1.0886202	0.7448454	173.4802232	-5.63217714	-10.886202
4.9	490	-0.078	-0.178	1.008	4.583664	-1.718874	0.6875496	173.428657	-5.5863405	-10.87474284
4.91	491	-0.079	-0.176	1.008	4.1252976	-2.4064236	0.6875496	173.4744937	-5.56342218	-10.886202
4.92	492	-0.075	-0.179	1.007	3.6096354	-3.2085648	0.5156622	173.5088711	-5.5290447	-10.89193158
4.93	493	-0.074	-0.176	1.007	2.9793816	-3.9534102	0.3437748	173.5432486	-5.48893764	-10.89766116
4.94	494	-0.074	-0.176	1.007	2.4637194	-4.5263682	0.2291832	173.5661669	-5.44883058	-10.90339074
4.95	495	-0.074	-0.174	1.004	2.1199446	-4.8128472	0.1145916	173.4916824	-5.37434604	-10.89193158
4.96	496	-0.072	-0.172	0.999	1.718874	-5.0993262	0	173.5088711	-5.32277982	-10.89766116
4.97	497	-0.069	-0.172	0.998	1.3178034	-5.156622	-0.1145916	173.5260599	-5.2712136	-10.90339074
4.98	498	-0.07	-0.171	0.995	0.9740286	-4.8128472	-0.1718874	173.537519	-5.22537696	-10.90339074
4.99	499	-0.071	-0.169	0.993	0.6875496	-4.2398892	-0.286479	173.5432486	-5.1852699	-10.90339074
5	500	-0.069	-0.169	0.993	0.3437748	-3.6669312	-0.4010706	173.4000091	-5.10505578	-10.88047242
5.01	501	-0.068	-0.172	0.992	0.1145916	-2.9793816	-0.5156622	173.4000091	-5.07640788	-10.87474284
5.02	502	-0.068	-0.172	0.992	-0.0572958	-2.291832	-0.4583664	173.4000091	-5.04775998	-10.87474284
5.03	503	-0.067	-0.173	0.993	-0.0572958	-1.8334656	-0.4583664	173.4000091	-5.03057124	-10.86901326
5.04	504	-0.067	-0.174	0.998	-0.0572958	-1.3178034	-0.4010706	173.4000091	-5.01911208	-10.86901326
5.05	505	-0.065	-0.178	0.999	-0.0572958	-0.9740286	-0.4583664	172.9531019	-4.87587258	-10.79452872
5.06	506	-0.066	-0.176	1.003	0	-0.8021412	-0.4583664	172.9531019	-4.870143	-10.78879914
5.07	507	-0.069	-0.178	1.006	-0.2291832	-0.6875496	-0.4583664	172.9473723	-4.85868384	-10.78879914
5.08	508	-0.065	-0.178	1.009	-0.286479	-0.7448454	-0.4583664	172.9473723	-4.85295426	-10.78306956
5.09	509	-0.066	-0.179	1.01	-0.2291832	-0.4583664	-0.3437748	172.9416427	-4.84722468	-10.77733998
5.1	510	-0.068	-0.181	1.011	-0.286479	-0.1718874	-0.3437748	172.391603	-4.69252602	-10.69712586
5.11	511	-0.068	-0.181	1.007	-0.3437748	0	-0.2291832	172.391603	-4.69252602	-10.69139628
5.12	512	-0.068	-0.181	1.004	-0.286479	0.1145916	-0.1718874	172.3858735	-4.69252602	-10.69139628
5.13	513	-0.068	-0.182	1.004	-0.2291832	0.1145916	-0.2291832	172.3858735	-4.69252602	-10.6856667
5.14	514	-0.068	-0.181	1.004	-0.3437748	0	-0.1145916	172.3801439	-4.69252602	-10.6856667
5.15	515	-0.068	-0.18	1.003	-0.4583664	-0.2291832	-0.0572958	171.8874	-4.57793442	-10.61118216
5.16	516	-0.068	-0.181	0.998	-0.2291832	-0.286479	0	171.8874	-4.57793442	-10.61118216
5.17	517	-0.069	-0.18	0.995	0.1145916	-0.286479	0.0572958	171.8874	-4.57220484	-10.61118216
5.18	518	-0.069	-0.181	0.996	0.4010706	-0.3437748	0	171.8931296	-4.57220484	-10.61691174
5.19	519	-0.069	-0.181	0.999	0.4010706	-0.572958	0	171.8988592	-4.56647526	-10.61691174
5.2	520	-0.07	-0.18	1.003	0.3437748	-1.0313244	-0.0572958	171.6467576	-4.4977203	-10.57680468
5.21	521	-0.07	-0.18	1.004	0.1718874	-1.3750992	0	171.6467576	-4.48053156	-10.57680468
5.22	522	-0.07	-0.178	1.005	0.2291832	-1.3750992	-0.1145916	171.6524872	-4.4690724	-10.57680468
5.23	523	-0.069	-0.179	1.003	0.3437748	-1.2605076	0	171.6524872	-4.45761324	-10.58253426
5.24	524	-0.069	-0.18	0.997	0.286479	-1.2032118	-0.0572958	171.6582168	-4.44615408	-10.58253426
5.25	525	-0.068	-0.18	0.996	0.2291832	-1.0886202	0	171.4061153	-4.37739912	-10.5424272
5.26	526	-0.069	-0.179	0.997	0.1718874	-1.0313244	-0.0572958	171.4118449	-4.37166954	-10.5424272
5.27	527	-0.07	-0.179	0.999	0.1145916	-1.0886202	-0.0572958	171.4118449	-4.36021038	-10.5424272
5.28	528	-0.069	-0.178	0.999	0	-1.0313244	-0.1145916	171.4118449	-4.34875122	-10.5424272
5.29	529	-0.07	-0.177	0.998	0.1145916	-1.0313244	-0.1145916	171.4118449	-4.33729206	-10.5424272
5.3	530	-0.07	-0.178	1	0.2291832	-0.9167328	-0.0572958	171.20558	-4.29145542	-10.5137793
5.31	531	-0.07	-0.177	0.999	0.2291832	-0.9740286	-0.1718874	171.2113096	-4.27999626	-10.5137793
5.32	532	-0.07	-0.179	1	0.3437748	-0.859437	-0.0572958	171.2113096	-4.2685371	-10.5137793
5.33	533	-0.07	-0.18	1.001	0.4583664	-0.859437	-0.1145916	171.2170391	-4.26280752	-10.5137793
5.34	534	-0.069	-0.179	1.001	0.4010706	-0.9167328	-0.1145916	171.2227687	-4.25134836	-10.5137793
5.35	535	-0.069	-0.18	1.002	0.4010706	-0.9740286	-0.1145916	171.1024475	-4.21697088	-10.49659056
5.36	536	-0.068	-0.179	1.002	0.4583664	-1.0313244	-0.1145916	171.1081771	-4.20551172	-10.49659056
5.37	537	-0.068	-0.179	1.003	0.5156622	-1.0886202	-0.1145916	171.1139067	-4.19405256	-10.49659056
5.38	538	-0.068	-0.178	1.003	0.6302538	-1.2032118	-0.1145916	171.1196363	-4.1825934	-10.49659056
5.39	539	-0.067	-0.178	1.003	0.572958	-1.2605076	-0.1145916	171.1253659	-4.17113424	-10.49659056
5.4	540	-0.067	-0.179	1	0.6302538	-1.2032118	-0.0572958	171.0394222	-4.13675676	-10.4851314
5.41	541	-0.067	-0.178	0.998	0.7448454	-1.3178034	-0.0572958	171.0451517	-4.1252976	-10.4851314
5.42	542	-0.067	-0.178	0.997	0.859437	-1.432395	-0.0572958	171.0566109	-4.10810886	-10.4851314
5.43	543	-0.068	-0.178	0.995	0.9740286	-1.432395	-0.0572958	171.0623405	-4.0966497	-10.4851314
5.44	544	-0.066	-0.178	0.999	0.859437	-1.3750992	-0.1145916	171.0737996	-4.07946096	-10.4851314
5.45	545	-0.066	-0.178	1.001	0.8021412	-1.3178034	-0.1145916	170.9935855	-4.05081306	-10.47367224
5.46	546	-0.066	-0.177	1.001	0.859437	-1.3178034	-0.1145916	170.9993151	-4.03362432	-10.47367224
5.47	547	-0.065	-0.177	1.001	0.7448454	-1.2032118	-0.1145916	171.0107743	-4.02216516	-10.47367224
5.48	548	-0.066	-0.177	1.002	0.6875496	-1.0886202	-0.1718874	171.0165038	-4.010706	-10.47367224
5.49	549	-0.068	-0.177	1.003	0.572958	-0.9740286	-0.1145916	171.0222334	-4.00497642	-10.47367224
5.5	550	-0.067	-0.177	1.004	0.4583664	-0.6875496	-0.1718874	170.9076418	-3.97632852	-10.4564835
5.51	551	-0.067	-0.177	1.003	0.4010706	-0.6302538	-0.1145916	170.9133714	-3.97059894	-10.4564835
5.52	552	-0.066	-0.176	1.001	0.4010706	-0.4583664	-0.1145916	170.9133714	-3.96486936	-10.4564835
5.53	553	-0.066	-0.176	0.999	0.4583664	-0.286479	-0.1718874	170.919101	-3.96486936	-10.45075392
5.54	554	-0.066	-0.177	0.997	0.2291832	0.1718874	-0.0572958	170.9248306	-3.96486936	-10.45075392
5.55	555	-0.068	-0.177	0.999	0	0.6302538	0	170.7242953	-3.94768062	-10.42210602
5.56	556	-0.067	-0.177	1.002	0	0.6875496	0	170.7242953	-3.9534102	-10.42210602
5.57	557	-0.067	-0.177	1.001	0.0572958	0.859437	0	170.7242953	-3.95913978	-10.42210602
5.58	558	-0.067	-0.178	0.998	0	0.9740286	0	170.7242953	-3.97059894	-10.42210602
5.59	559	-0.068	-0.176	1	0	0.8021412	0	170.7242953	-3.9820581	-10.42210602
5.6	560	-0.068	-0.177	1.003	0	0.8021412	0	170.5925149	-3.95913978	-10.3991877
5.61	561	-0.068	-0.177	1.003	-0.0572958	0.6875496	0	170.5925149	-3.96486936	-10.3991877
5.62	562	-0.067	-0.178	1.002	-0.0572958	0.572958	0	170.5925149	-3.97059894	-10.3991877
5.63	563	-0.067	-0.177	1.002	0	0.572958	0.0572958	170.5925149	-3.9820581	-10.3991877
5.64	564	-0.068	-0.177	1.001	0	0.3437748	0	170.5925149	-3.9820581	-10.3991877
5.65	565	-0.067	-0.177	1.001	0	0.2291832	0.0572958	170.3576021	-3.93622146	-10.3705398
5.66	566	-0.07	-0.178	1.001	0	0.286479	0	170.3576021	-3.93622146	-10.36481022
5.67	567	-0.068	-0.177	1	0.0572958	0.286479	0	170.3576021	-3.94195104	-10.36481022
5.68	568	-0.068	-0.176	0.999	0.1145916	0.3437748	0	170.3633317	-3.94195104	-10.36481022
5.69	569	-0.068	-0.176	1	0.0572958	0.286479	0	170.3633317	-3.94768062	-10.36481022
5.7	570	-0.069	-0.176	1.002	-0.0572958	0.2291832	0	170.2143626	-3.91903272	-10.34762148
5.71	571	-0.068	-0.175	1.002	-0.1145916	0.1718874	0	170.2086331	-3.91903272	-10.34762148
5.72	572	-0.068	-0.175	0.998	0	0.286479	0	170.2086331	-3.9247623	-10.34762148
5.73	573	-0.067	-0.175	0.996	0.1718874	0.572958	0.0572958	170.2143626	-3.93049188	-10.34762148
5.74	574	-0.068	-0.176	0.999	0.2291832	0.6302538	0	170.2143626	-3.93622146	-10.34762148
5.75	575	-0.068	-0.177	1.003	0.1718874	0.4010706	0	170.1112302	-3.91903272	-10.33043274
5.76	576	-0.069	-0.176	1.007	-0.0572958	0.1145916	0	170.1112302	-3.91903272	-10.33043274
5.77	577	-0.069	-0.175	1.009	-0.1718874	-0.0572958	0	170.1055006	-3.91903272	-10.33043274
5.78	578	-0.068	-0.176	1.006	-0.1718874	-0.286479	0	170.1055006	-3.91903272	-10.33043274
5.79	579	-0.068	-0.177	1.005	-0.0572958	-0.1718874	0	170.1055006	-3.91330314	-10.33043274
5.8	580	-0.068	-0.177	1	-0.2291832	-0.0572958	0	170.0023682	-3.88465524	-10.31897358
5.81	581	-0.069	-0.175	0.998	-0.3437748	-0.1145916	0.0572958	169.9966386	-3.88465524	-10.31897358
5.82	582	-0.068	-0.176	1.001	-0.2291832	-0.286479	0.0572958	169.990909	-3.87892566	-10.31897358
5.83	583	-0.067	-0.175	1	-0.4010706	-0.286479	0	169.990909	-3.87319608	-10.31897358
5.84	584	-0.067	-0.175	0.999	-0.3437748	-0.2291832	0	169.9851794	-3.87319608	-10.32470316
5.85	585	-0.068	-0.174	0.998	-0.1718874	-0.2291832	0	169.8992357	-3.86173692	-10.313244
5.86	586	-0.067	-0.176	0.998	-0.0572958	-0.1145916	0	169.8992357	-3.86173692	-10.313244
5.87	587	-0.067	-0.175	0.997	0	-0.1145916	0	169.8992357	-3.85600734	-10.313244
5.88	588	-0.068	-0.177	0.999	0	-0.1718874	0	169.8992357	-3.85600734	-10.313244
5.89	589	-0.069	-0.175	1.002	-0.0572958	0.0572958	0	169.8992357	-3.85600734	-10.313244
5.9	590	-0.067	-0.176	1.003	-0.0572958	0	0	169.8362104	-3.81590028	-10.30178484
5.91	591	-0.067	-0.175	1.003	-0.1718874	0.0572958	0	169.8304808	-3.81590028	-10.30178484
5.92	592	-0.068	-0.177	1.003	-0.1718874	0	0	169.8304808	-3.81590028	-10.30178484
5.93	593	-0.068	-0.177	1.002	-0.1145916	0	0	169.8304808	-3.81590028	-10.30178484
5.94	594	-0.068	-0.177	1.005	-0.3437748	0	0	169.8247512	-3.81590028	-10.30178484
5.95	595	-0.068	-0.176	1.004	-0.4010706	0.0572958	0	169.8018329	-3.8101707	-10.29605526
5.96	596	-0.068	-0.175	1	-0.5156622	0.1718874	-0.0572958	169.7961033	-3.81590028	-10.29605526
5.97	597	-0.068	-0.176	0.998	-0.286479	0.1145916	-0.0572958	169.7903737	-3.81590028	-10.29605526
5.98	598	-0.069	-0.177	0.998	-0.1718874	0.1145916	-0.0572958	169.7903737	-3.81590028	-10.29605526
5.99	599	-0.068	-0.177	0.999	-0.1718874	0.1145916	0	169.7846441	-3.81590028	-10.29605526
6	600	-0.068	-0.176	1.002	-0.2291832	0.0572958	0	169.773185	-3.8101707	-10.29032568
6.01	601	-0.068	-0.175	1.002	-0.0572958	0.1145916	0	169.7674554	-3.8101707	-10.29032568
6.02	602	-0.069	-0.176	1.001	0	0.1718874	0	169.7674554	-3.8101707	-10.29032568
6.03	603	-0.068	-0.177	1.001	0.0572958	0.286479	0	169.7674554	-3.81590028	-10.29032568
6.04	604	-0.069	-0.175	1	0.1145916	0.286479	0	169.773185	-3.82162986	-10.29032568
6.05	605	-0.069	-0.176	1.001	0	0.4010706	0	169.7445371	-3.81590028	-10.2845961
6.06	606	-0.068	-0.176	1.002	0	0.286479	0	169.7445371	-3.82162986	-10.2845961
6.07	607	-0.069	-0.176	1.002	0	0.2291832	0	169.7445371	-3.82162986	-10.2845961
6.08	608	-0.069	-0.175	1.003	0	0.1145916	0	169.7445371	-3.82162986	-10.2845961
6.09	609	-0.069	-0.176	1.001	0	0.1145916	0	169.7388075	-3.82735944	-10.2845961
6.1	610	-0.069	-0.176	1.001	0	0	0	169.6987004	-3.8101707	-10.27886652
6.11	611	-0.07	-0.175	1	0	0.1145916	0	169.6987004	-3.81590028	-10.27886652
6.12	612	-0.069	-0.176	0.999	0	0.1718874	0	169.6987004	-3.81590028	-10.27886652
6.13	613	-0.069	-0.175	0.999	0.0572958	0.1718874	0	169.6987004	-3.81590028	-10.27886652
6.14	614	-0.069	-0.176	0.999	0.0572958	0.1145916	0	169.70443	-3.82162986	-10.27886652
6.15	615	-0.07	-0.176	1.001	0.0572958	0.1718874	0.0572958	169.6929709	-3.82162986	-10.27886652
6.16	616	-0.068	-0.177	1.002	0	0.1145916	0	169.6929709	-3.82735944	-10.27886652
6.17	617	-0.069	-0.176	1.002	0	0.0572958	0.0572958	169.6929709	-3.82735944	-10.27886652
6.18	618	-0.069	-0.175	1.004	0	0	0	169.6929709	-3.82735944	-10.27886652
6.19	619	-0.069	-0.176	1.002	-0.0572958	0	0	169.6929709	-3.82735944	-10.27886652
6.2	620	-0.069	-0.176	1.002	-0.0572958	0	0.0572958	169.664323	-3.81590028	-10.27886652
6.21	621	-0.07	-0.176	1.002	-0.0572958	-0.1718874	0	169.664323	-3.81590028	-10.27886652
6.22	622	-0.07	-0.176	1.002	-0.1145916	-0.1145916	0	169.6585934	-3.81590028	-10.27886652
6.23	623	-0.069	-0.176	1	-0.0572958	-0.0572958	0	169.6585934	-3.8101707	-10.27886652
6.24	624	-0.068	-0.176	0.999	-0.0572958	-0.1145916	0	169.6585934	-3.8101707	-10.27886652
6.25	625	-0.069	-0.176	0.998	0	-0.1145916	0	169.6414046	-3.8101707	-10.27886652
6.26	626	-0.07	-0.176	1.001	0	-0.1145916	0	169.6414046	-3.80444112	-10.27886652
6.27	627	-0.069	-0.176	1.002	0	-0.1718874	0	169.6414046	-3.80444112	-10.27886652
6.28	628	-0.069	-0.175	1.003	0	-0.286479	0	169.6414046	-3.80444112	-10.27886652
6.29	629	-0.069	-0.174	1.003	-0.286479	-0.4583664	0	169.6356751	-3.79871154	-10.27886652
6.3	630	-0.07	-0.176	1.001	-0.286479	-0.286479	0	169.6184863	-3.79871154	-10.27886652
6.31	631	-0.069	-0.176	0.999	-0.0572958	-0.1145916	0	169.6127567	-3.79871154	-10.27886652
6.32	632	-0.068	-0.176	0.996	0.1145916	-0.0572958	0	169.6184863	-3.79871154	-10.27886652
6.33	633	-0.069	-0.178	1	0.1718874	-0.0572958	-0.0572958	169.6184863	-3.79871154	-10.27886652
6.34	634	-0.07	-0.177	1.007	0	-0.2291832	0	169.6184863	-3.79298196	-10.27886652
6.35	635	-0.07	-0.177	1.009	-0.4010706	-0.4583664	0	169.6127567	-3.79298196	-10.27886652
6.36	636	-0.069	-0.176	1.007	-0.4583664	-0.4583664	0	169.6070272	-3.78725238	-10.27886652
6.37	637	-0.068	-0.177	1.004	-0.1145916	-0.3437748	0	169.6070272	-3.7815228	-10.27886652
6.38	638	-0.068	-0.176	1	-0.0572958	-0.1718874	0	169.6070272	-3.7815228	-10.27886652
6.39	639	-0.069	-0.177	0.997	0	-0.1718874	0	169.6070272	-3.77579322	-10.27886652
6.4	640	-0.07	-0.176	0.999	0	-0.2291832	0	169.6012976	-3.7815228	-10.27886652
6.41	641	-0.069	-0.175	1	0	-0.3437748	0	169.6012976	-3.77579322	-10.27886652
6.42	642	-0.068	-0.173	1	0	-0.1718874	0	169.6012976	-3.77579322	-10.27886652
6.43	643	-0.069	-0.174	1	0	-0.1718874	0	169.6012976	-3.77006364	-10.27886652
6.44	644	-0.07	-0.175	1.001	0	-0.1145916	-0.0572958	169.6012976	-3.77006364	-10.27886652
6.45	645	-0.068	-0.176	1	0	-0.1145916	-0.0572958	169.5841088	-3.77006364	-10.27313694
6.46	646	-0.069	-0.176	1.001	0	-0.1718874	-0.0572958	169.5841088	-3.77006364	-10.27313694
6.47	647	-0.069	-0.176	1.001	0	-0.0572958	-0.0572958	169.5841088	-3.76433406	-10.27313694
6.48	648	-0.069	-0.175	1.003	0	-0.1145916	-0.0572958	169.5841088	-3.76433406	-10.27313694
6.49	649	-0.07	-0.176	1.003	0	0	0	169.5841088	-3.76433406	-10.27313694
6.5	650	-0.068	-0.176	1.002	0	0.0572958	0	169.5783793	-3.77006364	-10.27313694
6.51	651	-0.069	-0.176	1.002	0	0	0	169.5726497	-3.77006364	-10.27313694
6.52	652	-0.069	-0.177	1.004	0	0	0	169.5726497	-3.77006364	-10.27313694
6.53	653	-0.069	-0.177	1.004	-0.0572958	0	0	169.5726497	-3.77006364	-10.27313694
6.54	654	-0.069	-0.176	1.002	-0.1718874	0	0	169.5726497	-3.77006364	-10.27313694
6.55	655	-0.068	-0.177	0.999	-0.1145916	0	0	169.5440018	-3.77579322	-10.26740736
6.56	656	-0.068	-0.177	0.998	0	0.0572958	0	169.5440018	-3.77579322	-10.26740736
6.57	657	-0.068	-0.176	1.001	0.0572958	0	0	169.5440018	-3.77579322	-10.26740736
6.58	658	-0.07	-0.177	1.002	-0.0572958	0	0	169.5440018	-3.77579322	-10.26740736
6.59	659	-0.069	-0.175	1.003	0	-0.1145916	0	169.5382722	-3.77006364	-10.26740736
6.6	660	-0.068	-0.177	1.003	0	-0.1718874	0	169.526813	-3.76433406	-10.26167778
6.61	661	-0.068	-0.176	1.002	0.1718874	0.0572958	0.0572958	169.5325426	-3.76433406	-10.26740736
6.62	662	-0.068	-0.177	1	0.1718874	0.0572958	0	169.5325426	-3.76433406	-10.26740736
6.63	663	-0.069	-0.176	1.001	0.1145916	0.1145916	0	169.5325426	-3.76433406	-10.26740736
6.64	664	-0.069	-0.175	1.002	0.1718874	0.0572958	0	169.5382722	-3.77006364	-10.26740736
6.65	665	-0.069	-0.175	1.002	0.0572958	0	0	169.5382722	-3.7815228	-10.26740736
6.66	666	-0.07	-0.176	1.003	-0.0572958	0	0	169.5325426	-3.7815228	-10.26740736
6.67	667	-0.069	-0.176	1.002	0	-0.1145916	0	169.5325426	-3.77579322	-10.26740736
6.68	668	-0.068	-0.175	0.998	-0.0572958	-0.0572958	0	169.5325426	-3.77579322	-10.26740736
6.69	669	-0.069	-0.176	1.001	0	0	0	169.5325426	-3.77579322	-10.26740736
6.7	670	-0.068	-0.176	1.001	0	0	0	169.5325426	-3.77579322	-10.26740736
6.71	671	-0.068	-0.175	1	0.0572958	0	0	169.5325426	-3.77579322	-10.26740736
6.72	672	-0.067	-0.177	0.998	0.1145916	0.0572958	0	169.5325426	-3.7815228	-10.26740736
6.73	673	-0.068	-0.176	0.999	0.1718874	0	0	169.5382722	-3.7815228	-10.26740736
6.74	674	-0.069	-0.175	1	0.2291832	0.1145916	0	169.5382722	-3.7815228	-10.26740736
6.75	675	-0.068	-0.176	1.002	0.1718874	0	0.0572958	169.5440018	-3.77579322	-10.26740736
6.76	676	-0.068	-0.176	1.003	0.1718874	0	0	169.5497314	-3.77579322	-10.26740736
6.77	677	-0.068	-0.177	1.004	0.0572958	0.0572958	0	169.5497314	-3.77579322	-10.26740736
6.78	678	-0.068	-0.176	1.003	0	0	0.0572958	169.5497314	-3.77579322	-10.26740736
6.79	679	-0.068	-0.176	1.003	-0.0572958	0	0	169.5497314	-3.77579322	-10.26740736
6.8	680	-0.068	-0.176	1.003	0	0	0	169.5382722	-3.77006364	-10.26740736
6.81	681	-0.068	-0.175	1.002	-0.0572958	0	0	169.5382722	-3.77006364	-10.26740736
6.82	682	-0.068	-0.176	1.002	-0.1145916	-0.0572958	0	169.5382722	-3.77006364	-10.26740736
6.83	683	-0.069	-0.175	1.001	0	-0.1145916	0	169.5382722	-3.77006364	-10.26740736
6.84	684	-0.068	-0.176	0.999	0	0	-0.0572958	169.5382722	-3.77006364	-10.26740736
6.85	685	-0.068	-0.176	0.999	0	0	0	169.5440018	-3.77579322	-10.26740736
6.86	686	-0.068	-0.177	0.999	0.0572958	0	0	169.5440018	-3.77579322	-10.26740736
6.87	687	-0.069	-0.176	0.999	0.0572958	0	0	169.5440018	-3.77579322	-10.26740736
6.88	688	-0.069	-0.176	1	0.0572958	0	0	169.5440018	-3.77579322	-10.26740736
6.89	689	-0.068	-0.176	1.002	0.0572958	0	0	169.5440018	-3.77579322	-10.26167778
6.9	690	-0.068	-0.176	1.003	-0.0572958	-0.0572958	-0.0572958	169.5497314	-3.77006364	-10.26167778
6.91	691	-0.068	-0.175	1.001	-0.1718874	-0.1145916	0	169.5497314	-3.77006364	-10.26167778
6.92	692	-0.067	-0.175	1	-0.0572958	-0.0572958	-0.0572958	169.5440018	-3.77006364	-10.26167778
6.93	693	-0.068	-0.176	0.996	0	0.1145916	0	169.5497314	-3.77006364	-10.26167778
6.94	694	-0.068	-0.176	0.997	0.2291832	0.1718874	0	169.5497314	-3.77006364	-10.26167778
6.95	695	-0.068	-0.177	1.003	0.1718874	-0.0572958	-0.0572958	169.5440018	-3.77006364	-10.26167778
6.96	696	-0.069	-0.177	1.009	-0.1718874	-0.2291832	0	169.5382722	-3.76433406	-10.26167778
6.97	697	-0.068	-0.176	1.009	-0.286479	-0.4010706	-0.1145916	169.5382722	-3.76433406	-10.26167778
6.98	698	-0.068	-0.176	1.005	-0.2291832	-0.1718874	0	169.5325426	-3.75860448	-10.26167778
6.99	699	-0.067	-0.177	1.003	0	0	0	169.5325426	-3.75860448	-10.26167778
7	700	-0.068	-0.178	0.999	0.0572958	0	0	169.5038947	-3.74714532	-10.2559482
7.01	701	-0.068	-0.177	0.998	0	0	0	169.5038947	-3.74714532	-10.2559482
7.02	702	-0.068	-0.175	0.999	0.0572958	-0.0572958	0	169.5096243	-3.74714532	-10.2559482
7.03	703	-0.068	-0.176	0.998	0	-0.0572958	0	169.5096243	-3.74714532	-10.2559482
7.04	704	-0.069	-0.175	0.997	0	-0.1145916	0	169.5096243	-3.74714532	-10.26167778
7.05	705	-0.067	-0.175	0.999	0.0572958	-0.0572958	0	169.5096243	-3.7528749	-10.26167778
7.06	706	-0.068	-0.175	1	0.0572958	0	0.0572958	169.5096243	-3.7528749	-10.26167778
7.07	707	-0.068	-0.175	1	0.0572958	0	0	169.5153539	-3.7528749	-10.26167778
7.08	708	-0.068	-0.174	1.001	0	0.1145916	0	169.5153539	-3.7528749	-10.26167778
7.09	709	-0.068	-0.176	1.002	0	0.0572958	0	169.5153539	-3.7528749	-10.26167778
7.1	710	-0.068	-0.175	1.002	0	0	0	169.5153539	-3.7528749	-10.26167778
7.11	711	-0.067	-0.176	1.002	0	0.0572958	0	169.5153539	-3.7528749	-10.26167778
7.12	712	-0.067	-0.177	1.001	0	0.0572958	0.0572958	169.5153539	-3.7528749	-10.26167778
7.13	713	-0.067	-0.178	1	0	0	0	169.5153539	-3.7528749	-10.26167778
7.14	714	-0.068	-0.177	1.002	0	0	0.0572958	169.5153539	-3.7528749	-10.26167778
7.15	715	-0.068	-0.176	1.004	-0.1145916	0	0	169.5210835	-3.7528749	-10.26167778
