TimeStamp(s)	FrameCounter	AccX	AccY	AccZ	GyrX	GyrY	GyrZ	EulerX	EulerY	EulerZ
0.01	1	-0.085	-1	-0.045	-0.1718874	0.3437748	0	85.7145168	-4.58939358	-39.3908625
0.02	2	-0.085	-0.999	-0.042	-0.1145916	0.8021412	0.0572958	85.7145168	-4.58939358	-39.38513292
0.03	3	-0.085	-1	-0.043	-0.1718874	0.8021412	0.1145916	85.70878722	-4.58939358	-39.37367376
0.04	4	-0.085	-1.002	-0.045	-0.1718874	0.6875496	0.1145916	85.70878722	-4.59512316	-39.36794418
0.05	5	-0.086	-1.004	-0.041	-0.2291832	0.859437	0.1145916	85.73170554	-4.60085274	-39.3622146
0.06	6	-0.087	-1.007	-0.037	-0.572958	1.0886202	0.0572958	85.72597596	-4.60085274	-39.35075544
0.07	7	-0.085	-1.011	-0.04	-0.9167328	0.9740286	0.1718874	85.7145168	-4.60085274	-39.33929628
0.08	8	-0.081	-1.009	-0.041	-0.7448454	0.7448454	0.1145916	85.70878722	-4.60085274	-39.3335667
0.09	9	-0.078	-1.002	-0.041	-0.5156622	0.5156622	0.1718874	85.70305764	-4.60658232	-39.32783712
0.1	10	-0.077	-0.997	-0.041	-0.5156622	0.4010706	0.1718874	85.70878722	-4.59512316	-39.32210754
0.11	11	-0.08	-0.997	-0.045	-0.5156622	0.3437748	0.286479	85.70305764	-4.60085274	-39.31637796
0.12	12	-0.082	-0.999	-0.047	-0.572958	0.2291832	0.286479	85.69732806	-4.60085274	-39.31637796
0.13	13	-0.085	-1.001	-0.048	-0.4583664	0.2291832	0.1718874	85.69159848	-4.60658232	-39.31637796
0.14	14	-0.086	-1	-0.048	-0.286479	0.1718874	-0.1145916	85.69159848	-4.60085274	-39.31064838
0.15	15	-0.087	-1	-0.049	-0.2291832	0	-0.1145916	85.69159848	-4.6123119	-39.31064838
0.16	16	-0.086	-0.999	-0.05	-0.1145916	-0.0572958	-0.1145916	85.69159848	-4.6123119	-39.31064838
0.17	17	-0.084	-1	-0.049	-0.1145916	-0.1718874	-0.2291832	85.69159848	-4.60658232	-39.31637796
0.18	18	-0.082	-1	-0.05	-0.1145916	-0.3437748	-0.2291832	85.6858689	-4.60658232	-39.31637796
0.19	19	-0.083	-1.002	-0.049	-0.1718874	-0.286479	-0.1718874	85.6858689	-4.60658232	-39.32210754
0.2	20	-0.085	-1.002	-0.049	-0.1718874	-0.286479	-0.1145916	85.69732806	-4.60085274	-39.32783712
0.21	21	-0.085	-1.004	-0.052	0	-0.1145916	0	85.69732806	-4.60085274	-39.32783712
0.22	22	-0.085	-1.003	-0.05	-0.1718874	-0.1718874	-0.0572958	85.69732806	-4.60085274	-39.32783712
0.23	23	-0.086	-1.004	-0.05	-0.3437748	-0.5156622	-0.0572958	85.69159848	-4.60085274	-39.3335667
0.24	24	-0.089	-1.004	-0.051	-0.5156622	-0.4583664	-0.2291832	85.69159848	-4.60085274	-39.33929628
0.25	25	-0.089	-1.005	-0.049	-0.5156622	-0.286479	-0.1718874	85.69159848	-4.60658232	-39.34502586
0.26	26	-0.09	-1.004	-0.05	-0.5156622	-0.0572958	-0.2291832	85.6858689	-4.60658232	-39.34502586
0.27	27	-0.087	-1.005	-0.048	-0.572958	0.0572958	-0.1718874	85.68013932	-4.60658232	-39.34502586
0.28	28	-0.086	-1.004	-0.048	-0.6875496	0	-0.0572958	85.67440974	-4.60658232	-39.34502586
0.29	29	-0.086	-1.002	-0.048	-0.6875496	0	0	85.66868016	-4.60658232	-39.34502586
0.3	30	-0.086	-1.002	-0.046	-0.8021412	0	0.0572958	85.66868016	-4.60658232	-39.34502586
0.31	31	-0.084	-1.002	-0.047	-1.2605076	0	0.1145916	85.657221	-4.60658232	-39.34502586
0.32	32	-0.084	-1.003	-0.048	-1.432395	0.0572958	0.0572958	85.64003226	-4.60658232	-39.34502586
0.33	33	-0.084	-1.002	-0.05	-1.3750992	-0.0572958	0	85.6285731	-4.60658232	-39.34502586
0.34	34	-0.084	-1.002	-0.052	-1.2032118	0	0	85.61138436	-4.60658232	-39.34502586
0.35	35	-0.086	-1.003	-0.051	-1.145916	0	0	85.61138436	-4.6123119	-39.34502586
0.36	36	-0.088	-1.001	-0.05	-1.145916	0	0	85.59419562	-4.6123119	-39.34502586
0.37	37	-0.087	-1.001	-0.05	-1.0886202	0	0	85.58273646	-4.6123119	-39.34502586
0.38	38	-0.087	-1.001	-0.049	-1.2032118	-0.1145916	-0.1718874	85.5712773	-4.6123119	-39.35075544
0.39	39	-0.088	-1.001	-0.052	-1.2605076	-0.0572958	-0.1145916	85.55981814	-4.60658232	-39.35075544
0.4	40	-0.087	-1.001	-0.054	-1.0886202	-0.1145916	-0.0572958	85.54835898	-4.6123119	-39.35075544
0.41	41	-0.086	-1.002	-0.053	-1.0313244	-0.0572958	-0.0572958	85.53689982	-4.6123119	-39.35075544
0.42	42	-0.084	-1.001	-0.053	-1.145916	0	-0.0572958	85.52544066	-4.6123119	-39.35075544
0.43	43	-0.084	-1.001	-0.054	-1.0886202	0	-0.0572958	85.5139815	-4.6123119	-39.35075544
0.44	44	-0.085	-1	-0.053	-0.9740286	0	-0.0572958	85.50252234	-4.6123119	-39.35648502
0.45	45	-0.084	-1	-0.053	-0.9740286	0	-0.0572958	85.49679276	-4.6123119	-39.35648502
0.46	46	-0.084	-1.001	-0.054	-0.9167328	-0.1145916	-0.0572958	85.4853336	-4.6123119	-39.35648502
0.47	47	-0.085	-1.003	-0.053	-0.859437	-0.1718874	-0.0572958	85.47960402	-4.6123119	-39.35648502
0.48	48	-0.086	-1.003	-0.053	-0.8021412	-0.286479	-0.0572958	85.46814486	-4.60658232	-39.3622146
0.49	49	-0.085	-1.003	-0.051	-0.9167328	-0.286479	0	85.46241528	-4.60658232	-39.3622146
0.5	50	-0.085	-1.002	-0.052	-0.9167328	-0.3437748	0.0572958	85.4566857	-4.6123119	-39.36794418
0.51	51	-0.085	-1.003	-0.052	-0.9167328	-0.2291832	0.0572958	85.44522654	-4.6123119	-39.37367376
0.52	52	-0.086	-1.003	-0.051	-0.9167328	-0.1718874	0.0572958	85.43949696	-4.6123119	-39.37367376
0.53	53	-0.086	-1.002	-0.05	-1.0313244	-0.1145916	0	85.4280378	-4.6123119	-39.37367376
0.54	54	-0.087	-1.003	-0.052	-1.2032118	0	0	85.41657864	-4.6123119	-39.37367376
0.55	55	-0.087	-1.004	-0.055	-1.3750992	-0.1718874	0	85.40511948	-4.61804148	-39.37940334
0.56	56	-0.086	-1.004	-0.055	-1.3178034	-0.286479	-0.0572958	85.39366032	-4.61804148	-39.37940334
0.57	57	-0.085	-1.003	-0.055	-1.0313244	-0.286479	-0.0572958	85.38220116	-4.61804148	-39.38513292
0.58	58	-0.084	-1.003	-0.055	-0.1718874	-0.2291832	0	85.38220116	-4.61804148	-39.38513292
0.59	59	-0.087	-1.001	-0.056	-0.0572958	-0.286479	0	85.38220116	-4.61804148	-39.3908625
0.6	60	-0.088	-0.999	-0.056	0.0572958	-0.1145916	0.0572958	85.3993899	-4.66387812	-39.3908625
0.61	61	-0.088	-0.999	-0.054	0.0572958	0	0	85.40511948	-4.6696077	-39.3908625
0.62	62	-0.087	-0.998	-0.055	0.1145916	0.1145916	0.1145916	85.40511948	-4.6696077	-39.3908625
0.63	63	-0.087	-0.994	-0.054	0.5156622	0.1145916	0.1145916	85.41084906	-4.6696077	-39.38513292
0.64	64	-0.086	-0.994	-0.058	0.6302538	0	0.2291832	85.41657864	-4.6696077	-39.38513292
0.65	65	-0.085	-0.995	-0.061	0.7448454	-0.3437748	0.4583664	85.41657864	-4.67533728	-39.3908625
0.66	66	-0.084	-0.994	-0.061	1.0886202	-0.9167328	0.2291832	85.4280378	-4.68106686	-39.39659208
0.67	67	-0.087	-0.995	-0.058	0.9740286	-1.145916	-0.2291832	85.43949696	-4.68106686	-39.40805124
0.68	68	-0.086	-0.998	-0.058	-0.0572958	-1.2605076	-1.0313244	85.43949696	-4.6696077	-39.42523998
0.69	69	-0.087	-1	-0.059	-1.0313244	-1.6615782	-1.8334656	85.4280378	-4.65241896	-39.44242872
0.7	70	-0.086	-1.005	-0.061	-1.0886202	-1.2605076	-2.9793816	85.41657864	-4.62377106	-39.45388788
0.71	71	-0.085	-1.008	-0.063	-1.4896908	-0.6875496	-4.4690724	85.40511948	-4.57793442	-39.46534704
0.72	72	-0.085	-1.004	-0.063	-1.5469866	0	-5.2139178	85.38793074	-4.5263682	-39.47107662
0.73	73	-0.086	-0.998	-0.059	-0.9167328	0.572958	-5.5003968	85.37647158	-4.47480198	-39.47107662
0.74	74	-0.086	-0.996	-0.054	-0.0572958	0.8021412	-5.7868758	85.37647158	-4.4117766	-39.46534704
0.75	75	-0.082	-0.993	-0.051	0.8021412	1.0886202	-6.016059	85.38793074	-4.3544808	-39.45961746
0.76	76	-0.072	-0.993	-0.042	1.432395	1.7761698	-6.1879464	85.3993899	-4.29145542	-39.4481583
0.77	77	-0.061	-0.994	-0.03	2.0626488	3.0939732	-6.0733548	85.42230822	-4.22843004	-39.4195104
0.78	78	-0.048	-0.998	-0.022	2.4637194	4.5263682	-5.6722842	85.43949696	-4.17113424	-39.37940334
0.79	79	-0.04	-1.005	-0.01	2.1199446	6.589017	-5.2139178	85.4566857	-4.11383844	-39.31637796
0.8	80	-0.037	-1.003	0.006	2.1772404	7.5057498	-4.6409598	85.4853336	-4.05654264	-39.247623
0.81	81	-0.033	-1.006	0.016	2.291832	8.5370742	-4.2398892	85.50252234	-4.010706	-39.16740888
0.82	82	-0.031	-1.004	0.026	2.4064236	9.5111028	-4.1825934	85.51971108	-3.96486936	-39.0757356
0.83	83	-0.025	-1.012	0.027	2.5210152	10.1413566	-4.010706	85.53689982	-3.91903272	-38.97833274
0.84	84	-0.007	-1.019	0.027	2.1772404	10.313244	-3.7815228	85.55408856	-3.87892566	-38.8752003
0.85	85	0.008	-1.027	0.028	1.8907614	9.8548776	-3.3804522	85.58273646	-3.82162986	-38.78352702
0.86	86	0.028	-1.033	0.031	1.3750992	8.880849	-2.9793816	85.58846604	-3.78725238	-38.69758332
0.87	87	0.04	-1.035	0.033	0.6875496	7.448454	-2.8074942	85.58846604	-3.75860448	-38.62309878
0.88	88	0.054	-1.036	0.037	0.0572958	5.9587632	-2.4064236	85.58846604	-3.72995658	-38.56580298
0.89	89	0.065	-1.037	0.041	-0.5156622	4.1825934	-2.1199446	85.57700688	-3.70703826	-38.52569592
0.9	90	0.072	-1.037	0.046	-1.4896908	2.7501984	-1.8334656	85.5999252	-3.62682414	-38.5027776
0.91	91	0.071	-1.036	0.048	-2.6356068	1.8334656	-1.5469866	85.5712773	-3.6096354	-38.48558886
0.92	92	0.066	-1.035	0.045	-4.010706	1.0313244	-1.3750992	85.53117024	-3.59817624	-38.47985928
0.93	93	0.056	-1.031	0.039	-5.2139178	0.4583664	-1.3750992	85.47960402	-3.58671708	-38.4741297
0.94	94	0.049	-1.024	0.034	-5.9014674	-0.0572958	-1.3178034	85.41657864	-3.56952834	-38.47985928
0.95	95	0.044	-1.014	0.027	-6.6463128	-0.7448454	-1.4896908	85.37647158	-3.5236917	-38.49131844
0.96	96	0.04	-1.003	0.022	-7.0473834	-0.8021412	-1.4896908	85.30771662	-3.51223254	-38.49704802
0.97	97	0.033	-0.994	0.014	-7.2765666	-0.7448454	-1.6615782	85.23323208	-3.4950438	-38.50850718
0.98	98	0.026	-0.987	0	-7.6776372	-0.6302538	-2.005353	85.15301796	-3.47785506	-38.51996634
0.99	99	0.026	-0.984	-0.011	-7.8495246	-0.5156622	-2.3491278	85.07280384	-3.45493674	-38.52569592
1	100	0.027	-0.984	-0.023	-8.021412	-0.286479	-2.6929026	85.00404888	-3.40337052	-38.5314255
1.01	101	0.027	-0.986	-0.037	-8.1360036	-0.0572958	-2.9793816	84.91810518	-3.37472262	-38.53715508
1.02	102	0.025	-0.99	-0.048	-7.734933	-0.2291832	-2.9793816	84.84362064	-3.34607472	-38.54288466
1.03	103	0.023	-0.996	-0.059	-8.4797784	-0.6302538	-2.6356068	84.75767694	-3.3231564	-38.55434382
1.04	104	0.015	-0.998	-0.075	-9.9121734	-1.8334656	-1.6042824	84.6545445	-3.30596766	-38.57153256
1.05	105	-0.006	-0.993	-0.094	-11.0580894	-4.4117766	-0.3437748	84.5399529	-3.30023808	-38.6173692
1.06	106	-0.035	-0.983	-0.121	-10.9434978	-8.4797784	0.4583664	84.43682046	-3.31169724	-38.7033129
1.07	107	-0.023	-0.956	-0.149	-10.313244	-12.5477802	1.0886202	84.3394176	-3.33461556	-38.82936366
1.08	108	0.014	-0.919	-0.143	-10.886202	-16.7303736	2.1772404	84.24201474	-3.36899304	-38.99552148
1.09	109	-0.01	-0.9	-0.133	-12.7769634	-20.5691922	2.1772404	84.12742314	-3.40337052	-39.19605678
1.1	110	-0.034	-0.885	-0.131	-14.6677248	-22.4026578	0.286479	83.98991322	-3.42628884	-39.4195104
1.11	111	-0.092	-0.9	-0.124	-16.9595568	-23.777757	-4.010706	83.83521456	-3.4091001	-39.66015276
1.12	112	-0.123	-0.922	-0.13	-18.7930224	-24.350715	-8.021412	83.66332716	-3.34607472	-39.91225428
1.13	113	-0.128	-0.962	-0.129	-19.3659804	-24.9809688	-10.7716104	83.48571018	-3.2658606	-40.17008538
1.14	114	-0.142	-1.02	-0.108	-17.4179232	-25.496631	-11.5737516	83.32528194	-3.17418732	-40.43937564
1.15	115	-0.153	-1.073	-0.073	-14.9542038	-25.3247436	-9.9694692	83.1935016	-3.10543236	-40.69720674
1.16	116	-0.18	-1.102	-0.028	-11.3445684	-24.8663772	-6.302538	83.09609874	-3.0653253	-40.95503784
1.17	117	-0.212	-1.121	0.021	-8.7089616	-24.2361234	-2.4637194	83.0216142	-3.0653253	-41.1956802
1.18	118	-0.233	-1.083	0.057	-10.599723	-23.204799	1.0313244	82.92994092	-3.09970278	-41.4248634
1.19	119	-0.249	-1.051	0.098	-2.7501984	-20.8556712	5.3285094	82.91275218	-3.16845774	-41.6253987
1.2	120	-0.254	-1.07	0.119	-3.8961144	-18.7357266	7.7922288	82.9070226	-3.27731976	-41.80301568
1.21	121	-0.24	-1.092	0.121	-6.9327918	-16.6730778	9.5683986	82.8497268	-3.39191136	-41.95771434
1.22	122	-0.199	-1.112	0.122	-8.880849	-15.3552744	10.5424272	82.76951268	-3.51223254	-42.09522426
1.23	123	-0.167	-1.122	0.115	-9.9694692	-14.8396122	11.172681	82.6778394	-3.6382833	-42.2270046
1.24	124	-0.122	-1.105	0.094	-10.6570188	-13.9228794	12.2613012	82.58043654	-3.77006364	-42.35305536
1.25	125	-0.089	-1.085	0.072	-10.313244	-13.5791046	13.464513	82.49449284	-3.91903272	-42.47337654
1.26	126	-0.072	-1.056	0.059	-10.026765	-14.037471	14.6677248	82.40281956	-4.07946096	-42.59369772
1.27	127	-0.078	-1.013	0.052	-9.5111028	-14.9542038	15.8709366	82.31687586	-4.25134836	-42.71974848
1.28	128	-0.096	-0.967	0.048	-9.1100322	-15.183387	16.5011904	82.23666174	-4.43469492	-42.85152882
1.29	129	-0.123	-0.928	0.04	-9.0527364	-14.7250206	16.042824	82.15644762	-4.60658232	-42.97185
1.3	130	-0.15	-0.896	0.032	-9.5111028	-13.750992	15.0114996	82.08196308	-4.77846972	-43.09217118
1.31	131	-0.175	-0.872	0.028	-10.2559482	-12.4331886	13.750992	81.9902898	-4.9274388	-43.19530362
1.32	132	-0.191	-0.864	0.027	-10.9434978	-11.2872726	12.318597	81.88715736	-5.06494872	-43.29270648
1.33	133	-0.209	-0.866	0.023	-11.5737516	-9.8548776	10.9434978	81.77829534	-5.1852699	-43.37865018
1.34	134	-0.216	-0.864	0.02	-11.5737516	-8.6516658	9.740286	81.66943332	-5.28840234	-43.44740514
1.35	135	-0.218	-0.861	0.02	-10.1986524	-7.2192708	8.4224826	81.5892192	-5.39726436	-43.51043052
1.36	136	-0.219	-0.863	0.023	-8.4797784	-5.72958	7.448454	81.50900508	-5.47747848	-43.55626716
1.37	137	-0.218	-0.874	0.032	-6.875496	-3.8961144	6.5317212	81.44025012	-5.54623344	-43.58491506
1.38	138	-0.211	-0.891	0.04	-5.8441716	-1.8907614	5.72958	81.38295432	-5.60925882	-43.59637422
1.39	139	-0.212	-0.905	0.054	-5.156622	0.5156622	4.870143	81.3313881	-5.65509546	-43.58491506
1.4	140	-0.211	-0.921	0.064	-4.9847346	3.3231564	4.0680018	81.31992894	-5.71812084	-43.55053758
1.41	141	-0.21	-0.941	0.073	-5.5003968	5.8441716	3.2658606	81.25690356	-5.74676874	-43.4875122
1.42	142	-0.209	-0.958	0.077	-6.3598338	8.021412	2.4637194	81.18241902	-5.7582279	-43.40729808
1.43	143	-0.207	-0.975	0.071	-7.3338624	10.7716104	1.5469866	81.09074574	-5.76395748	-43.29843606
1.44	144	-0.204	-0.977	0.07	-8.0787078	13.0061466	0.7448454	80.99907246	-5.75249832	-43.16665572
1.45	145	-0.199	-0.976	0.067	-8.1932994	14.6677248	0	80.92458792	-5.75249832	-43.0291458
1.46	146	-0.195	-0.978	0.065	-7.9068204	16.042824	-0.6302538	80.82718506	-5.72385042	-42.86871756
1.47	147	-0.192	-0.982	0.058	-7.161975	17.475219	-1.2605076	80.73551178	-5.68947294	-42.70255974
1.48	148	-0.193	-0.987	0.059	-5.7868758	18.8503182	-1.8334656	80.65529766	-5.6436363	-42.51921318
1.49	149	-0.198	-0.992	0.061	-5.3858052	20.3973048	-2.291832	80.58081312	-5.59779966	-42.32440746
1.5	150	-0.207	-1.003	0.06	-5.3858052	22.345362	-2.86479	80.52351732	-5.55196302	-42.10668342
1.51	151	-0.216	-1.017	0.076	-4.1825934	24.2361234	-3.6096354	80.45476236	-5.48320806	-41.87750022
1.52	152	-0.226	-1.04	0.088	-2.86479	25.7258142	-4.3544808	80.39746656	-5.40299394	-41.63112828
1.53	153	-0.238	-1.062	0.102	-0.9740286	27.2728008	-5.2712136	80.3573595	-5.31132066	-41.37329718
1.54	154	-0.244	-1.08	0.124	0.9167328	29.220858	-6.1306506	80.34017076	-5.2139178	-41.09254776
1.55	155	-0.254	-1.085	0.143	2.9793816	31.4553942	-7.1046792	80.3573595	-5.11078536	-40.7946096
1.56	156	-0.262	-1.091	0.143	4.0680018	33.8618178	-7.7922288	80.36881866	-4.9847346	-40.47375312
1.57	157	-0.26	-1.111	0.117	3.2658606	36.3255372	-7.6776372	80.36881866	-4.85868384	-40.12997832
1.58	158	-0.228	-1.143	0.112	2.6356068	36.955791	-6.302538	80.3573595	-4.74409224	-39.78047394
1.59	159	-0.198	-1.198	0.049	-0.4583664	34.8358464	-3.8388186	80.32298202	-4.65814854	-39.44242872
1.6	160	-0.155	-1.318	-0.106	-7.6776372	28.1895336	-0.0572958	80.21984958	-4.61804148	-39.16740888
1.61	161	-0.039	-1.47	-0.233	-15.8136408	15.8709366	4.1825934	80.0422326	-4.6409598	-39.00698064
1.62	162	0.131	-1.527	-0.301	-16.7876694	4.7555514	8.5370742	79.86461562	-4.72117392	-38.94395526
1.63	163	0.251	-1.415	-0.298	-5.6149884	1.432395	13.3499214	79.80731982	-4.84722468	-38.90957778
1.64	164	0.235	-1.278	-0.245	9.8548776	-0.572958	15.5271618	79.90472268	-5.00192334	-38.88665946
1.65	165	0.077	-1.18	-0.214	15.9282324	-0.8021412	12.891555	80.06515092	-5.12224452	-38.86947072
1.66	166	-0.12	-1.129	-0.248	17.18874	-0.6875496	8.2505952	80.23703832	-5.20245864	-38.86374114
1.67	167	-0.241	-1.136	-0.254	22.1734746	2.3491278	5.3858052	80.46049194	-5.24829528	-38.82936366
1.68	168	-0.304	-1.146	-0.195	23.7204612	5.3858052	2.005353	80.69540472	-5.25975444	-38.76633828
1.69	169	-0.304	-1.161	-0.219	16.9595568	11.9748222	-0.7448454	80.85583296	-5.23110654	-38.65174668
1.7	170	-0.24	-1.14	-0.332	12.6623718	19.3659804	0	80.94750624	-5.2139178	-38.45694096
1.71	171	-0.167	-1.098	-0.395	11.8602306	22.4599536	3.6096354	81.0449091	-5.21964738	-38.22775776
1.72	172	-0.11	-1.045	-0.411	9.3392154	24.637194	8.0787078	81.11366406	-5.26548402	-37.96992666
1.73	173	-0.091	-0.971	-0.421	7.161975	26.6998428	12.1467096	81.1595007	-5.35142772	-37.68917724
1.74	174	-0.08	-0.929	-0.404	5.3858052	25.78311	15.6417534	81.18241902	-5.4717489	-37.40842782
1.75	175	-0.055	-0.923	-0.365	3.6096354	23.2620948	16.1574156	81.17095986	-5.59779966	-37.1563263
1.76	176	-0.008	-0.902	-0.328	3.8388186	20.4546006	13.750992	81.1881486	-5.70666168	-36.93287268
1.77	177	0.022	-0.866	-0.297	5.5003968	17.475219	9.9694692	81.22252608	-5.78114622	-36.74379654
1.78	178	0.03	-0.835	-0.272	7.3338624	15.0114996	5.7868758	81.27982188	-5.82125328	-36.58909788
1.79	179	0.023	-0.835	-0.245	9.9121734	12.4331886	0.859437	81.36576558	-5.80979412	-36.46304712
1.8	180	0.015	-0.851	-0.221	10.8289062	9.8548776	-4.4117766	81.45170928	-5.74103916	-36.36564426
1.81	181	0.007	-0.879	-0.213	11.6310474	8.021412	-9.2819196	81.5605713	-5.63790672	-36.30261888
1.82	182	0.009	-0.907	-0.199	13.2926256	6.0733548	-13.0061466	81.69235164	-5.50612638	-36.25678224
1.83	183	0.006	-0.917	-0.18	15.0687954	4.9274388	-14.3812458	81.84132072	-5.3571573	-36.22813434
1.84	184	0	-0.915	-0.167	15.8709366	4.8128472	-14.0947668	81.99601938	-5.20818822	-36.19948644
1.85	185	-0.003	-0.912	-0.151	15.6990492	5.0993262	-12.7196676	82.15071804	-5.0706783	-36.16510896
1.86	186	-0.012	-0.912	-0.145	15.0687954	5.7868758	-10.599723	82.29968712	-4.9560867	-36.11927232
1.87	187	-0.019	-0.914	-0.137	13.6936962	6.4744254	-8.6516658	82.43146746	-4.86441342	-36.06197652
1.88	188	-0.022	-0.908	-0.129	12.0894138	6.6463128	-6.7609044	82.54605906	-4.78992888	-36.00468072
1.89	189	-0.021	-0.903	-0.124	10.0840608	6.2452422	-5.3285094	82.64346192	-4.7269035	-35.94738492
1.9	190	-0.017	-0.905	-0.124	8.59437	4.4117766	-4.4690724	82.72367604	-4.66387812	-35.90727786
1.91	191	-0.013	-0.894	-0.12	6.875496	1.4896908	-4.0680018	82.792431	-4.62377106	-35.8958187
1.92	192	-0.001	-0.882	-0.114	5.7868758	-1.0886202	-4.010706	82.8497268	-4.583664	-35.91300744
1.93	193	0.008	-0.877	-0.107	5.156622	-3.724227	-3.724227	82.9070226	-4.54928652	-35.9531145
1.94	194	0.024	-0.865	-0.096	4.5263682	-5.9014674	-3.6096354	82.95858882	-4.52063862	-36.01613988
1.95	195	0.038	-0.857	-0.083	4.6409598	-7.8495246	-3.3231564	83.01588462	-4.47480198	-36.096354
1.96	196	0.042	-0.859	-0.073	5.0993262	-9.6829902	-3.0366774	83.07318042	-4.45188366	-36.19948644
1.97	197	0.044	-0.865	-0.063	4.9274388	-11.4018642	-2.86479	83.1362058	-4.43469492	-36.31407804
1.98	198	0.044	-0.876	-0.054	4.6982556	-13.178034	-2.578311	83.1935016	-4.42323576	-36.44585838
1.99	199	0.041	-0.889	-0.044	5.156622	-14.8396122	-1.9480572	83.26225656	-4.4117766	-36.59482746
2	200	0.041	-0.897	-0.036	5.443101	-16.1001198	-0.9167328	83.3367411	-4.40031744	-36.7552557
2.01	201	0.037	-0.901	-0.022	5.8441716	-17.0741484	0.4583664	83.41695522	-4.41750618	-36.92141352
2.02	202	0.029	-0.904	-0.01	6.1306506	-17.9908812	2.4064236	83.49143976	-4.45761324	-37.0990305
2.03	203	0.018	-0.905	0	6.589017	-18.3919518	4.1252976	83.57738346	-4.51490904	-37.27664748
2.04	204	0.01	-0.906	0.007	7.161975	-18.4492476	5.72958	83.66332716	-4.583664	-37.44853488
2.05	205	-0.009	-0.899	0.012	7.161975	-18.621135	7.3911582	83.7664596	-4.6696077	-37.62615186
2.06	206	-0.02	-0.882	0.009	7.448454	-18.5065434	9.1100322	83.85813288	-4.77274014	-37.79803926
2.07	207	-0.025	-0.86	0.012	8.7089616	-19.3659804	10.2559482	83.9669949	-4.88733174	-37.98138582
2.08	208	-0.018	-0.849	0.017	9.453807	-21.0848544	10.9434978	84.0815865	-5.0133825	-38.17619154
2.09	209	-0.006	-0.836	0.029	10.1413566	-23.2620948	11.3445684	84.20763726	-5.13943326	-38.39391558
2.1	210	0.011	-0.831	0.04	12.2040054	-25.8404058	11.2872726	84.36233592	-5.25975444	-38.64028752
2.11	211	0.032	-0.837	0.044	13.9801752	-28.8197874	11.172681	84.53422332	-5.39153478	-38.91530736
2.12	212	0.049	-0.855	0.042	15.0114996	-31.7418732	11.2299768	84.72329946	-5.52331512	-39.21324552
2.13	213	0.053	-0.885	0.041	16.1574156	-34.6066632	10.7716104	84.92383476	-5.64936588	-39.54556116
2.14	214	0.048	-0.939	0.033	16.6730778	-36.7266078	8.880849	85.13582922	-5.75249832	-39.9065247
2.15	215	0.029	-0.999	0.027	16.615782	-37.1276784	6.589017	85.35355326	-5.82698286	-40.26748824
2.16	216	0.007	-1.037	0.018	15.8136408	-36.3255372	4.1252976	85.55408856	-5.89000824	-40.6227222
2.17	217	-0.012	-1.047	0.019	14.6677248	-35.3515086	1.8334656	85.7431647	-5.92438572	-40.97222658
2.18	218	-0.028	-1.048	0.051	14.5531332	-34.2628884	-0.1145916	85.93224084	-5.93584488	-41.3102718
2.19	219	-0.045	-1.073	0.089	14.4385416	-31.4553942	-1.7761698	86.1155874	-5.9301153	-41.61966912
2.2	220	-0.078	-1.122	0.109	13.5218088	-26.642547	-3.151269	86.29320438	-5.9014674	-41.88895938
2.21	221	-0.125	-1.178	0.109	11.9175264	-21.8869956	-4.5263682	86.44217346	-5.86708992	-42.10668342
2.22	222	-0.184	-1.249	0.08	10.1413566	-17.1314442	-7.2192708	86.56249464	-5.79833496	-42.27857082
2.23	223	-0.282	-1.343	0.018	4.9274388	-8.7662574	-11.3445684	86.62552002	-5.68947294	-42.37597368
2.24	224	-0.393	-1.437	0	-3.0939732	1.8907614	-17.0741484	86.59114254	-5.51758554	-42.36451452
2.25	225	-0.467	-1.501	-0.049	-9.167328	15.4125702	-25.1528562	86.48228052	-5.26548402	-42.2270046
2.26	226	-0.5	-1.507	-0.149	-9.2246238	27.9603504	-35.0650296	86.36195934	-4.91025006	-41.9691735
2.27	227	-0.429	-1.455	-0.188	-1.2032118	35.523396	-43.4302164	86.3161227	-4.4690724	-41.64258744
2.28	228	-0.279	-1.375	-0.239	8.7089616	32.1429438	-46.0085274	86.37914808	-3.99924684	-41.35037886
2.29	229	-0.076	-1.274	-0.261	17.6471064	24.2361234	-41.9978214	86.53957632	-3.57525792	-41.1383844
2.3	230	0.123	-1.172	-0.247	23.1475032	17.4179232	-32.8304934	86.75157078	-3.23148312	-40.97795616
2.31	231	0.231	-1.092	-0.283	21.9442914	10.7716104	-26.2987722	86.96929482	-2.96219286	-40.8805533
2.32	232	0.255	-1.034	-0.352	18.7930224	5.5576926	-22.4026578	87.15837096	-2.73873924	-40.83471666
2.33	233	0.192	-0.99	-0.366	15.183387	3.7815228	-21.0848544	87.30734004	-2.52674478	-40.80606876
2.34	234	0.086	-0.953	-0.372	12.1467096	0.0572958	-21.772404	87.4333908	-2.30902074	-40.81179834
2.35	235	-0.001	-0.902	-0.349	8.880849	-7.3911582	-22.0015872	87.4906866	-2.0912967	-40.89201246
2.36	236	-0.05	-0.861	-0.332	4.9847346	-14.037471	-21.485925	87.5479824	-1.87930224	-41.04098154
2.37	237	-0.062	-0.872	-0.305	3.0366774	-17.2460358	-20.6837838	87.58235988	-1.67303736	-41.21859852
2.38	238	-0.072	-0.938	-0.266	4.297185	-17.8189938	-19.7097552	87.6339261	-1.48396122	-41.40194508
2.39	239	-0.085	-1.008	-0.228	6.302538	-16.902261	-18.2200644	87.70841064	-1.30061466	-41.57383248
2.4	240	-0.096	-1.06	-0.201	7.7922288	-15.6417534	-15.8709366	87.77143602	-1.15164558	-41.73426072
2.41	241	-0.099	-1.073	-0.175	9.5111028	-14.4958374	-12.4904844	87.87456846	-1.0313244	-41.8832298
2.42	242	-0.099	-1.06	-0.153	11.172681	-12.7196676	-8.3651868	87.98916006	-0.9453807	-42.00928056
2.43	243	-0.097	-1.022	-0.144	11.0007936	-10.8289062	-4.1825934	88.10948124	-0.90527364	-42.11814258
2.44	244	-0.107	-0.969	-0.128	11.2299768	-8.7089616	-0.3437748	88.22407284	-0.89954406	-42.20408628
2.45	245	-0.136	-0.93	-0.128	12.2613012	-6.7036086	2.005353	88.32720528	-0.95111028	-42.26711166
2.46	246	-0.167	-0.918	-0.118	13.6936962	-5.2712136	3.437748	88.47044478	-0.97975818	-42.31867788
2.47	247	-0.186	-0.913	-0.102	13.2353298	-3.724227	3.5523396	88.60222512	-1.01413566	-42.35305536
2.48	248	-0.19	-0.896	-0.087	12.032118	-2.005353	2.8074942	88.72827588	-1.04278356	-42.3702441
2.49	249	-0.186	-0.882	-0.075	10.7143146	0.4583664	1.6615782	88.8371379	-1.0599723	-42.36451452
2.5	250	-0.183	-0.872	-0.07	10.1413566	3.724227	0.0572958	88.9230816	-1.09434978	-42.32440746
2.51	251	-0.177	-0.868	-0.064	10.026765	7.2192708	-1.0886202	89.02048446	-1.08289062	-42.24992292
2.52	252	-0.175	-0.876	-0.055	9.453807	10.5424272	-1.432395	89.11215774	-1.07143146	-42.14679048
2.53	253	-0.169	-0.876	-0.047	8.59437	14.1520626	-1.145916	89.19810144	-1.0599723	-42.00355098
2.54	254	-0.167	-0.88	-0.038	9.3965112	18.2200644	-0.1145916	89.28404514	-1.0599723	-41.825934
2.55	255	-0.176	-0.902	-0.035	9.3965112	22.345362	1.432395	89.36998884	-1.10007936	-41.60248038
2.56	256	-0.178	-0.916	-0.021	9.2819196	25.0382646	2.4637194	89.45593254	-1.12872726	-41.35037886
2.57	257	-0.18	-0.915	-0.01	9.3965112	26.5279554	3.2085648	89.54187624	-1.16310474	-41.08681818
2.58	258	-0.174	-0.91	-0.004	10.1413566	27.0436176	3.2658606	89.63354952	-1.2032118	-40.81752792
2.59	259	-0.163	-0.899	0	10.1413566	26.8717302	2.7501984	89.73095238	-1.2318597	-40.55396724
2.6	260	-0.154	-0.894	0.011	10.2559482	26.5279554	1.6615782	89.82262566	-1.27196676	-40.29040656
2.61	261	-0.144	-0.897	0.022	8.9954406	26.2987722	-0.0572958	89.90856936	-1.27769634	-40.02684588
2.62	262	-0.134	-0.892	0.024	7.2765666	26.6998428	-2.7501984	89.97159474	-1.25477802	-39.7632852
2.63	263	-0.125	-0.891	0.03	6.589017	26.929026	-5.5003968	90.02889054	-1.20894138	-39.49399494
2.64	264	-0.12	-0.9	0.036	5.5576926	27.5592798	-8.1932994	90.07472718	-1.13445684	-39.22470468
2.65	265	-0.116	-0.905	0.038	4.6409598	28.3041252	-10.886202	90.11483424	-1.04278356	-38.93822568
2.66	266	-0.114	-0.908	0.039	3.0939732	29.1635622	-13.2353298	90.13775256	-0.92246238	-38.65174668
2.67	267	-0.113	-0.913	0.04	1.8907614	30.1375908	-15.183387	90.14921172	-0.77922288	-38.35380852
2.68	268	-0.108	-0.919	0.045	1.4896908	31.4553942	-16.7303736	90.1549413	-0.61879464	-38.03868162
2.69	269	-0.102	-0.926	0.056	1.3750992	32.8877892	-17.6471064	90.16067088	-0.45263682	-37.71209556
2.7	270	-0.102	-0.93	0.061	1.718874	34.8358464	-17.9335854	90.17785962	-0.29793816	-37.36832076
2.71	271	-0.11	-0.94	0.068	2.3491278	37.4714532	-17.3033316	90.19504836	-0.13750992	-36.99589806
2.72	272	-0.111	-0.954	0.07	4.1252976	38.9038482	-15.8709366	90.22942584	0.00572958	-36.6120162
2.73	273	-0.113	-0.954	0.074	5.5003968	40.2216516	-14.2093584	90.28099206	0.13178034	-36.2109456
2.74	274	-0.114	-0.958	0.074	7.1046792	40.8519054	-12.5477802	90.34974702	0.24637194	-35.80414542
2.75	275	-0.112	-0.995	0.072	8.1360036	40.3362432	-9.167328	90.42996114	0.3151269	-35.40307482
2.76	276	-0.105	-1.025	0.072	7.6203414	39.0757356	-5.8441716	90.51017526	0.35523396	-35.01919296
2.77	277	-0.088	-1.041	0.074	7.6203414	37.3568616	-3.8961144	90.5846598	0.38388186	-34.64677026
2.78	278	-0.075	-1.05	0.083	7.1046792	35.9817624	-3.0366774	90.65341476	0.4010706	-34.28580672
2.79	279	-0.077	-1.068	0.083	6.2452422	34.0337052	-2.4064236	90.71644014	0.41252976	-33.95349108
2.8	280	-0.075	-1.087	0.081	3.6669312	32.658606	-2.0626488	90.7565472	0.41252976	-33.62690502
2.81	281	-0.071	-1.097	0.101	3.0939732	31.51269	-2.005353	90.7851951	0.41825934	-33.3175077
2.82	282	-0.061	-1.119	0.091	1.6042824	30.366774	-1.718874	90.80238384	0.42398892	-33.01383996
2.83	283	-0.051	-1.155	0.081	-2.291832	29.220858	-0.9167328	90.77373594	0.41825934	-32.72736096
2.84	284	-0.033	-1.191	0.06	-6.4171296	27.6165756	-0.1145916	90.70498098	0.41252976	-32.45234112
2.85	285	0.007	-1.256	0.009	-11.9748222	23.1475032	1.2605076	90.5846598	0.38961144	-32.22315792
2.86	286	0.054	-1.322	-0.034	-21.1421502	14.32395	5.3858052	90.36693576	0.32658606	-32.085648
2.87	287	0.126	-1.375	-0.146	-31.6272816	3.151269	13.0634424	90.04607928	0.19480572	-32.06272968
2.88	288	0.203	-1.44	-0.31	-37.7579322	-7.2192708	21.2567418	89.66219742	-0.01145916	-32.13721422
2.89	289	0.299	-1.512	-0.292	-43.8885828	-21.6005166	29.6219286	89.22101976	-0.30366774	-32.35493826
2.9	290	0.351	-1.492	-0.303	-38.4454818	-30.0229992	35.9244666	88.8371379	-0.6589017	-32.64714684
2.91	291	0.331	-1.297	-0.247	-16.7303736	-29.6792244	38.2162986	88.67098008	-1.03705398	-32.93935542
2.92	292	0.122	-1.127	-0.152	7.734933	-25.0382646	37.528749	88.76265336	-1.40947668	-33.1742682
2.93	293	-0.126	-0.992	-0.147	16.2720072	-16.2720072	31.4553942	88.93454076	-1.718874	-33.32896686
2.94	294	-0.259	-0.926	-0.162	12.605076	-8.4797784	20.5691922	89.0663211	-1.9194093	-33.40918098
2.95	295	-0.297	-0.984	-0.211	3.9534102	-3.7815228	9.5683986	89.01475488	-2.11421502	-33.43782888
2.96	296	-0.288	-1.052	-0.251	-5.8441716	0.4583664	2.5210152	88.9517295	-2.14286292	-33.43782888
2.97	297	-0.222	-1.083	-0.264	-12.7769634	6.1879464	-2.1772404	88.81994916	-2.1199446	-33.3748035
2.98	298	-0.128	-1.089	-0.267	-19.0795014	10.886202	-5.3858052	88.61941386	-2.06837838	-33.27167106
2.99	299	-0.02	-1.065	-0.291	-24.637194	15.183387	-6.8182002	88.36731234	-2.005353	-33.12843156
3	300	0.079	-1.028	-0.319	-27.7311672	18.5065434	-6.9327918	88.04645586	-1.92513888	-32.945085
3.01	301	0.165	-0.991	-0.342	-29.0489706	20.5118964	-6.302538	87.74278812	-1.8621135	-32.75027928
3.02	302	0.206	-0.944	-0.365	-28.3041252	21.772404	-5.2139178	87.44484996	-1.81054728	-32.53828482
3.03	303	0.221	-0.881	-0.371	-24.1215318	21.2567418	-3.724227	87.19274844	-1.77044022	-32.33201994
3.04	304	0.199	-0.838	-0.352	-20.05353	18.5065434	-1.8907614	86.98075398	-1.7475219	-32.15440296
3.05	305	0.173	-0.811	-0.328	-17.0741484	14.3812458	0.1718874	86.75157078	-1.718874	-32.01116346
3.06	306	0.146	-0.797	-0.293	-15.4125702	9.7975818	1.3750992	86.59114254	-1.73033316	-31.9137606
3.07	307	0.103	-0.827	-0.287	-14.2093584	6.4744254	0.1145916	86.44217346	-1.73033316	-31.85073522
3.08	308	0.08	-0.861	-0.289	-13.3499214	3.4950438	-3.724227	86.31039312	-1.69595568	-31.82208732
3.09	309	0.067	-0.893	-0.267	-11.4018642	-0.1718874	-7.7922288	86.19007194	-1.61574156	-31.8278169
3.1	310	0.058	-0.921	-0.24	-7.6776372	-2.6929026	-10.6570188	86.06975076	-1.4896908	-31.86219438
3.11	311	0.057	-0.952	-0.223	-4.8128472	-2.7501984	-12.7769634	86.01818454	-1.36364004	-31.89657186
3.12	312	0.059	-0.965	-0.209	-2.4637194	-1.2032118	-13.464513	85.99526622	-1.2318597	-31.91949018
3.13	313	0.052	-0.98	-0.199	-2.0626488	0.859437	-12.6623718	85.9723479	-1.10580894	-31.91949018
3.14	314	0.042	-0.982	-0.19	-3.0366774	2.9220858	-10.4851314	85.93797042	-1.0026765	-31.89657186
3.15	315	0.031	-0.975	-0.183	-4.9847346	4.9274388	-7.5630456	85.84629714	-0.91100322	-31.85073522
3.16	316	0.024	-0.958	-0.176	-6.589017	6.0733548	-4.5263682	85.77754218	-0.86516658	-31.799169
3.17	317	0.026	-0.947	-0.175	-7.6203414	6.6463128	-2.1772404	85.69732806	-0.84224826	-31.73041404
3.18	318	0.034	-0.941	-0.18	-7.8495246	7.161975	-0.6875496	85.61711394	-0.8307891	-31.66165908
3.19	319	0.05	-0.928	-0.179	-7.8495246	7.161975	0.1145916	85.53689982	-0.8307891	-31.59290412
3.2	320	0.068	-0.921	-0.182	-7.5630456	6.8182002	0.3437748	85.41084906	-0.79641162	-31.52414916
3.21	321	0.089	-0.918	-0.188	-7.1046792	6.589017	0.2291832	85.33636452	-0.79641162	-31.46112378
3.22	322	0.105	-0.915	-0.19	-6.3598338	5.9587632	0.286479	85.27333914	-0.79641162	-31.40382798
3.23	323	0.12	-0.913	-0.185	-4.9274388	4.8128472	0.4583664	85.22177292	-0.8021412	-31.35799134
3.24	324	0.13	-0.915	-0.18	-3.6096354	3.724227	0.5156622	85.18166586	-0.8021412	-31.31788428
3.25	325	0.135	-0.917	-0.179	-2.0626488	1.9480572	0.9167328	85.04988552	-0.67609044	-31.29496596
3.26	326	0.138	-0.916	-0.175	-0.2291832	-0.6875496	1.9480572	85.04988552	-0.69900876	-31.30069554
3.27	327	0.142	-0.909	-0.168	1.8334656	-3.6669312	3.4950438	85.06707426	-0.73338624	-31.33507302
3.28	328	0.143	-0.893	-0.155	3.8961144	-7.0473834	5.3285094	85.10718132	-0.79068204	-31.40382798
3.29	329	0.144	-0.878	-0.144	6.2452422	-10.599723	7.3338624	85.17593628	-0.87089616	-31.50123084
3.3	330	0.149	-0.874	-0.132	8.6516658	-13.5218088	9.0527364	85.2561504	-0.93965112	-31.62155202
3.31	331	0.157	-0.87	-0.125	11.0007936	-16.2147114	10.3705398	85.370742	-1.04851314	-31.77625068
3.32	332	0.166	-0.868	-0.126	13.3499214	-18.3919518	11.6310474	85.5139815	-1.1745639	-31.94813808
3.33	333	0.178	-0.867	-0.13	15.183387	-20.6837838	12.9488508	85.67440974	-1.31207382	-32.1429438
3.34	334	0.184	-0.866	-0.148	16.042824	-23.5485738	14.3812458	85.84629714	-1.4610429	-32.36066784
3.35	335	0.163	-0.879	-0.184	17.2460358	-26.4706596	16.1001198	86.01818454	-1.61574156	-32.61276936
3.36	336	0.141	-0.897	-0.173	19.5378678	-29.2781538	17.5325148	86.230179	-1.79908812	-32.8877892
3.37	337	0.125	-0.919	-0.179	20.2827132	-30.1375908	18.1627686	86.45363262	-1.98816426	-33.16853862
3.38	338	0.091	-0.936	-0.192	20.5691922	-29.507337	18.2200644	86.67708624	-2.1772404	-33.44928804
3.39	339	0.037	-0.943	-0.204	19.5951636	-28.7624916	18.621135	86.8890807	-2.36631654	-33.72430788
3.4	340	-0.047	-0.962	-0.237	18.1054728	-28.074942	19.194093	87.07242726	-2.56685184	-33.98786856
3.41	341	-0.146	-0.993	-0.166	16.1574156	-28.0176462	18.5065434	87.25004424	-2.75592798	-34.25715882
3.42	342	-0.198	-1.012	-0.095	11.6310474	-28.0176462	14.9542038	87.38755416	-2.90489706	-34.52644908
3.43	343	-0.209	-1.021	-0.107	5.2712136	-27.1582092	9.8548776	87.45630912	-3.0080295	-34.79000976
3.44	344	-0.196	-1.022	-0.104	1.8907614	-25.3820394	3.5523396	87.4906866	-3.04813656	-35.04211128
3.45	345	-0.187	-1.038	-0.086	0.2291832	-21.6005166	-4.010706	87.50214576	-3.0366774	-35.25410574
3.46	346	-0.165	-1.07	-0.074	-2.291832	-16.7303736	-11.3445684	87.48495702	-2.92781538	-35.42599314
3.47	347	-0.121	-1.088	-0.084	-5.3858052	-12.8342592	-16.7876694	87.43912038	-2.76165756	-35.55777348
3.48	348	-0.071	-1.095	-0.1	-6.9327918	-10.5424272	-18.6784308	87.376095	-2.578311	-35.67236508
3.49	349	-0.028	-1.095	-0.093	-6.2452422	-8.9954406	-16.5584862	87.3187992	-2.41788276	-35.76976794
3.5	350	-0.023	-1.091	-0.077	-3.6669312	-6.6463128	-11.5737516	87.27296256	-2.29756158	-35.8385229
3.51	351	-0.046	-1.087	-0.058	-2.291832	-2.7501984	-5.9587632	87.25004424	-2.24026578	-35.87290038
3.52	352	-0.084	-1.082	-0.053	-3.0366774	1.3178034	-1.4896908	87.22139634	-2.22307704	-35.86144122
3.53	353	-0.114	-1.061	-0.061	-3.8961144	4.4117766	1.6615782	87.1755597	-2.24026578	-35.81560458
3.54	354	-0.131	-1.031	-0.075	-4.3544808	6.016059	3.437748	87.12972306	-2.27464326	-35.7525792
3.55	355	-0.137	-0.993	-0.087	-5.2712136	6.6463128	3.6096354	87.04950894	-2.34339822	-35.68382424
3.56	356	-0.127	-0.957	-0.096	-7.2192708	6.875496	2.1199446	86.9750244	-2.36058696	-35.61506928
3.57	357	-0.111	-0.938	-0.115	-9.740286	6.875496	-0.8021412	86.87189196	-2.35485738	-35.5520439
3.58	358	-0.094	-0.946	-0.123	-12.318597	5.8441716	-4.1252976	86.74011162	-2.30902074	-35.4947481
3.59	359	-0.08	-0.973	-0.122	-14.2093584	4.0680018	-6.875496	86.59687212	-2.24599536	-35.46037062
3.6	360	-0.073	-0.998	-0.117	-15.3552744	2.0626488	-8.5370742	86.41925514	-2.16578124	-35.44891146
3.61	361	-0.066	-1.011	-0.112	-15.8709366	0	-9.5111028	86.2588269	-2.07410796	-35.45464104
3.62	362	-0.062	-1.012	-0.103	-16.2147114	-1.6042824	-9.8548776	86.09266908	-1.9767051	-35.47755936
3.63	363	-0.066	-1.003	-0.094	-16.042824	-2.5210152	-10.026765	85.93224084	-1.87930224	-35.51193684
3.64	364	-0.075	-0.992	-0.086	-15.5271618	-2.4064236	-10.0840608	85.77754218	-1.78189938	-35.54631432
3.65	365	-0.081	-0.969	-0.077	-14.7250206	-1.9480572	-9.9694692	85.62284352	-1.69595568	-35.56923264
3.66	366	-0.089	-0.951	-0.064	-13.4072172	-1.0886202	-9.3392154	85.4853336	-1.6042824	-35.59215096
3.67	367	-0.098	-0.941	-0.053	-12.1467096	0.1145916	-8.59437	85.36501242	-1.52406828	-35.59788054
3.68	368	-0.107	-0.946	-0.041	-11.1153852	1.6615782	-8.021412	85.25042082	-1.44385416	-35.58642138
3.69	369	-0.116	-0.954	-0.033	-9.9121734	3.4950438	-7.5057498	85.14728838	-1.36936962	-35.56350306
3.7	370	-0.123	-0.97	-0.024	-9.0527364	5.156622	-7.161975	85.06707426	-1.32353298	-35.51766642
3.71	371	-0.133	-0.981	-0.015	-8.8235532	6.8182002	-6.875496	84.97540098	-1.24904844	-35.45464104
3.72	372	-0.136	-0.99	-0.007	-8.880849	8.6516658	-6.5317212	84.87799812	-1.18029348	-35.37442692
3.73	373	-0.137	-0.992	0	-9.3392154	10.5424272	-6.0733548	84.78059526	-1.1172681	-35.27702406
3.74	374	-0.132	-0.983	0.009	-10.2559482	12.7196676	-5.443101	84.67173324	-1.05424272	-35.15670288
3.75	375	-0.122	-0.97	0.016	-11.5737516	14.3812458	-4.5263682	84.5686008	-1.01986524	-35.02492254
3.76	376	-0.109	-0.961	0.023	-12.5477802	15.2406828	-3.6096354	84.43682046	-0.9740286	-34.87595346
3.77	377	-0.089	-0.956	0.023	-13.2926256	15.4125702	-2.578311	84.29931054	-0.93965112	-34.72698438
3.78	378	-0.065	-0.95	0.024	-13.750992	15.0114996	-1.432395	84.15034146	-0.9167328	-34.58374488
3.79	379	-0.043	-0.945	0.029	-13.8082878	14.3812458	-0.286479	84.00710196	-0.90527364	-34.44050538
3.8	380	-0.031	-0.944	0.027	-14.1520626	13.5791046	0.5156622	83.8810512	-0.89954406	-34.30872504
3.81	381	-0.025	-0.949	0.023	-14.4958374	13.0061466	1.0313244	83.73208212	-0.89954406	-34.18267428
3.82	382	-0.023	-0.951	0.02	-14.7823164	12.1467096	1.2605076	83.57738346	-0.90527364	-34.0623531
3.83	383	-0.024	-0.95	0.01	-15.2406828	11.4018642	1.145916	83.41695522	-0.91100322	-33.9477615
3.84	384	-0.022	-0.94	0.005	-15.2406828	10.6570188	1.0313244	83.26225656	-0.91100322	-33.84462906
3.85	385	-0.015	-0.933	0	-15.1260912	9.6829902	1.145916	83.12474664	-0.9167328	-33.75295578
3.86	386	-0.005	-0.93	-0.007	-14.9542038	8.3651868	1.4896908	82.97004798	-0.92246238	-33.66701208
3.87	387	-0.003	-0.935	-0.014	-14.8396122	6.9900876	2.5210152	82.81534932	-0.9453807	-33.59825712
3.88	388	-0.008	-0.94	-0.016	-15.2406828	5.72958	3.8961144	82.66065066	-0.97975818	-33.53523174
3.89	389	-0.016	-0.943	-0.018	-15.2979786	4.8128472	5.5003968	82.505952	-1.0313244	-33.48366552
3.9	390	-0.027	-0.94	-0.016	-14.9542038	4.6409598	6.6463128	82.36844208	-1.09434978	-33.4320993
3.91	391	-0.034	-0.934	-0.016	-14.896908	4.8128472	7.2765666	82.219473	-1.16310474	-33.3748035
3.92	392	-0.035	-0.927	-0.02	-15.2979786	4.297185	7.448454	82.05904476	-1.2318597	-33.32323728
3.93	393	-0.029	-0.925	-0.02	-15.5271618	2.8074942	7.734933	81.89861652	-1.30634424	-33.2888598
3.94	394	-0.019	-0.926	-0.021	-15.469866	1.145916	8.0787078	81.74391786	-1.38655836	-33.26594148
3.95	395	-0.009	-0.928	-0.017	-15.1260912	-0.286479	8.9954406	81.61213752	-1.47250206	-33.2602119
3.96	396	-0.003	-0.922	-0.013	-14.7250206	-1.6615782	9.9694692	81.46316844	-1.5756345	-33.26594148
3.97	397	-0.004	-0.912	-0.007	-13.8082878	-3.0939732	11.172681	81.32565852	-1.6902261	-33.27740064
3.98	398	-0.013	-0.905	0.001	-12.4331886	-4.0680018	12.0894138	81.19960776	-1.81627686	-33.30031896
3.99	399	-0.031	-0.899	0.01	-11.3445684	-4.1252976	12.2613012	81.08501616	-1.94232762	-33.32896686
4	400	-0.056	-0.891	0.017	-10.1413566	-3.5523396	11.5164558	81.01053162	-2.06837838	-33.3461556
4.01	401	-0.086	-0.885	0.027	-8.880849	-3.0366774	10.026765	80.92458792	-2.17151082	-33.36334434
4.02	402	-0.111	-0.887	0.037	-7.7922288	-2.4064236	8.2505952	80.8443738	-2.25745452	-33.3748035
4.03	403	-0.13	-0.894	0.046	-7.161975	-1.0313244	6.1879464	80.77561884	-2.3204799	-33.3748035
4.04	404	-0.139	-0.905	0.051	-7.5630456	0.6875496	3.8388186	80.69540472	-2.35485738	-33.36334434
4.05	405	-0.142	-0.908	0.05	-8.7662574	2.7501984	1.2605076	80.6724864	-2.4064236	-33.33469644
4.06	406	-0.132	-0.906	0.047	-10.4278356	4.010706	-1.145916	80.56935396	-2.38923486	-33.30031896
4.07	407	-0.112	-0.899	0.037	-12.8342592	4.870143	-3.0366774	80.43184404	-2.35485738	-33.2602119
4.08	408	-0.089	-0.892	0.028	-14.896908	5.0420304	-4.3544808	80.27714538	-2.30329116	-33.21437526
4.09	409	-0.065	-0.883	0.019	-17.0741484	4.9847346	-5.2712136	80.10525798	-2.24599536	-33.17999778
4.1	410	-0.04	-0.863	0.003	-19.2513888	4.9274388	-5.443101	79.927641	-2.18869956	-33.13989072
4.11	411	-0.021	-0.838	-0.007	-20.8556712	4.4117766	-5.0993262	79.71564654	-2.13713334	-33.11124282
4.12	412	-0.013	-0.818	-0.014	-22.058883	3.6096354	-4.7555514	79.48646334	-2.08556712	-33.08259492
4.13	413	-0.005	-0.792	-0.023	-23.7204612	2.6929026	-4.583664	79.24582098	-2.03973048	-33.07113576
4.14	414	-0.001	-0.778	-0.033	-25.5539268	1.6042824	-4.3544808	78.98798988	-1.99389384	-33.06540618
4.15	415	-0.003	-0.759	-0.044	-26.5279554	0.2291832	-4.297185	78.7244292	-1.95378678	-33.07113576
4.16	416	-0.011	-0.742	-0.051	-27.3300966	-0.8021412	-4.5263682	78.44940936	-1.91367972	-33.0883245
4.17	417	-0.026	-0.731	-0.047	-27.3873924	-1.145916	-4.9847346	78.17438952	-1.86784308	-33.1169724
4.18	418	-0.04	-0.708	-0.038	-27.9030546	-1.0886202	-5.3285094	77.88791052	-1.82200644	-33.13989072
4.19	419	-0.057	-0.698	-0.028	-28.9916748	-0.2291832	-5.9014674	77.59570194	-1.77044022	-33.15707946
4.2	420	-0.073	-0.68	-0.032	-31.1689152	1.7761698	-6.7609044	77.28630462	-1.70741484	-33.15707946
4.21	421	-0.09	-0.664	-0.034	-33.1742682	3.9534102	-8.021412	76.9482594	-1.62720072	-33.13989072
4.22	422	-0.101	-0.658	-0.034	-35.5806918	5.5003968	-8.880849	76.58729586	-1.52979786	-33.11124282
4.23	423	-0.104	-0.656	-0.029	-38.388186	6.2452422	-9.1100322	76.19768442	-1.432395	-33.07113576
4.24	424	-0.104	-0.656	-0.025	-41.252976	6.4171296	-8.3651868	75.7736955	-1.3464513	-33.03675828
4.25	425	-0.097	-0.659	-0.017	-44.1750618	6.8182002	-7.161975	75.33251784	-1.27196676	-32.99092164
4.26	426	-0.084	-0.662	-0.014	-46.7533728	7.5057498	-6.1879464	74.8569627	-1.19748222	-32.93935542
4.27	427	-0.071	-0.673	-0.017	-49.560867	8.7662574	-5.6149884	74.35275966	-1.12872726	-32.87060046
4.28	428	-0.051	-0.679	-0.029	-52.6548402	11.0007936	-5.156622	73.81417914	-1.0599723	-32.78465676
4.29	429	-0.026	-0.646	-0.051	-55.8061092	13.4072172	-4.6982556	73.24122114	-0.98548776	-32.67579474
4.3	430	-0.015	-0.607	-0.067	-57.9833496	15.756345	-4.297185	72.65680398	-0.91100322	-32.5440144
4.31	431	-0.016	-0.567	-0.081	-59.6449278	17.8762896	-4.0680018	72.04373892	-0.8307891	-32.38931574
4.32	432	-0.025	-0.536	-0.09	-61.9940556	18.7930224	-3.8388186	71.41348512	-0.7448454	-32.2288875
4.33	433	-0.03	-0.521	-0.108	-65.7182826	17.8762896	-3.2085648	70.73739468	-0.67036086	-32.07418884
4.34	434	-0.036	-0.506	-0.118	-67.9528188	15.5271618	-3.2085648	70.0441155	-0.6016059	-31.94813808
4.35	435	-0.042	-0.514	-0.12	-70.4165382	13.750992	-3.6096354	69.33364758	-0.53285094	-31.83354648
4.36	436	-0.029	-0.519	-0.144	-76.0888224	12.9488508	-3.6669312	68.5544247	-0.46409598	-31.73041404
4.37	437	0.034	-0.512	-0.117	-84.511305	13.1207382	-4.9274388	67.6949877	-0.38388186	-31.63301118
4.38	438	0.075	-0.541	-0.178	-97.8612264	10.1986524	-4.870143	66.69804078	-0.3151269	-31.5699858
4.39	439	0.099	-0.608	-0.302	-112.4716554	-0.7448454	-0.4583664	65.55785436	-0.32658606	-31.58717454
4.4	440	0.107	-0.814	-0.384	-123.6443364	-15.6417534	7.734933	64.30880592	-0.46982556	-31.70176614
4.41	441	0.129	-1.219	-0.401	-145.4167404	-22.4026578	18.1054728	62.83630386	-0.73911582	-31.83354648
4.42	442	0.173	-1.715	-0.446	-181.1120238	-19.5951636	26.6998428	61.00283826	-1.08289062	-31.89657186
4.43	443	0.205	-2.071	-0.433	-199.2747924	-15.469866	25.6112226	58.9860261	-1.4037471	-31.9137606
4.44	444	0.191	-2.074	-0.33	-206.3794716	-14.4385416	17.3033316	56.8947294	-1.65011904	-31.95959724
4.45	445	0.096	-1.881	-0.24	-213.5987424	-13.6936962	12.4904844	54.73467774	-1.85065434	-32.01689304
4.46	446	-0.071	-1.746	-0.249	-220.4169426	-11.172681	-0.8021412	52.50014154	-1.93659804	-32.12002548
4.47	447	-0.32	-1.732	-0.372	-232.1625816	-8.6516658	-16.5011904	50.15101374	-1.8907614	-32.30337204
4.48	448	-0.42	-1.683	-0.489	-239.496444	-6.589017	-25.8404058	47.7274014	-1.77044022	-32.52682566
4.49	449	-0.439	-1.538	-0.393	-245.9135736	-1.2032118	-28.1322378	45.24076368	-1.61001198	-32.73309054
4.5	450	-0.45	-1.355	-0.33	-253.9349856	18.6784308	-26.0122932	42.66818226	-1.34072172	-32.79611592
4.51	451	-0.401	-1.126	-0.172	-251.9869284	39.3622146	-19.480572	40.10706	-0.96256944	-32.68152432
4.52	452	-0.445	-0.888	0.02	-246.7730106	52.5975444	-15.3552744	37.59177438	-0.50420304	-32.46380028
4.53	453	-0.276	-0.604	0.128	-234.7408926	62.2805346	-16.7303736	35.19680994	0.04010706	-32.21742834
4.54	454	0.001	-0.387	0.354	-216.5208282	59.1292656	-11.0007936	32.99665122	0.55003968	-31.96532682
4.55	455	0.16	-0.168	0.411	-222.3649998	50.706783	-13.2353298	30.74492628	1.00840608	-31.799169
4.56	456	0.169	0.053	0.323	-233.0793144	44.404245	-21.3713334	28.37288016	1.45531332	-31.75333236
4.57	457	0.207	0.225	0.18	-235.4284422	48.7587258	-26.5852512	25.97791572	1.97097552	-31.75333236
4.58	458	0.304	0.282	0.109	-230.329116	52.8267276	-29.220858	23.62878792	2.52674478	-31.77625068
4.59	459	0.392	0.383	-0.122	-226.1465226	45.83664	-31.1689152	21.32549676	3.03094782	-31.87365354
4.6	460	0.515	0.571	-0.433	-208.1556414	36.4401288	-33.1169724	19.17117468	3.4663959	-32.03981136
4.61	461	0.574	0.782	-0.682	-181.1120238	22.7464326	-32.7731976	17.31479076	3.7528749	-32.26326498
4.62	462	0.513	1.017	-0.827	-150.0004044	-1.5469866	-29.3354496	15.77353374	3.80444112	-32.5440144
4.63	463	0.297	1.237	-0.916	-136.2494124	-18.3919518	-19.1367972	14.3812458	3.66120162	-32.7731976
4.64	464	0.07	1.372	-0.976	-134.2440594	-23.8923486	-8.021412	13.01187618	3.437748	-32.90497794
4.65	465	-0.119	1.306	-0.983	-123.6443364	-26.8144344	1.145916	11.73990942	3.15699858	-32.95081458
4.66	466	-0.553	1.031	-0.877	-123.8735196	-23.4339822	5.3285094	10.4851314	2.90489706	-32.945085
4.67	467	-0.699	0.705	-1.161	-140.661189	-4.2398892	5.3285094	9.05846598	2.8361421	-32.89351878
4.68	468	-1.059	0.585	-2.337	-197.6132142	27.3300966	4.4690724	7.05884256	3.07105488	-32.79038634
4.69	469	-0.633	1.083	-3.994	-226.8340722	61.3638018	-11.5737516	4.74409224	3.65547204	-32.81330466
4.7	470	0.321	2.812	-3.996	-112.3570638	30.0229992	-43.4875122	3.57525792	3.97059894	-33.2029161
4.71	471	1.555	3.14	-3.996	-77.7504006	33.0023808	-15.9282324	2.77311672	4.297185	-33.32896686
4.72	472	0.814	1.906	-3.591	-129.774987	78.208767	5.0993262	1.44958374	5.04775998	-33.22010484
4.73	473	0.561	1.557	-2.942	-131.1500862	59.1292656	10.1413566	0.12605076	5.6149884	-33.08259492
4.74	474	0.431	1.152	-2.754	-104.851314	73.2813282	11.4018642	-0.92819196	6.3311859	-32.945085
4.75	475	0.429	0.961	-2.175	-109.0912032	65.2026204	8.7662574	-2.0340009	6.96716928	-32.84768214
4.76	476	0.301	0.744	-1.728	-109.8360486	49.560867	13.3499214	-3.13980984	7.448454	-32.71017222
4.77	477	0.347	0.328	-1.19	-102.3875946	40.0497642	19.194093	-4.15967508	7.84379502	-32.52682566
4.78	478	0.421	-0.061	-0.897	-85.8864042	28.1895336	21.8869956	-5.00192334	8.13027402	-32.3148312
4.79	479	0.535	-0.19	-0.714	-60.5616606	17.5325148	13.4072172	-5.60352924	8.307891	-32.18305086
4.8	480	0.571	-0.027	-0.627	-35.6952834	11.2872726	1.8907614	-5.97022236	8.49123756	-32.1715917
4.81	481	0.457	0.292	-0.587	-20.7410796	8.1360036	-0.7448454	-6.1879464	8.57145168	-32.18305086
4.82	482	0.361	0.588	-0.539	-17.7044022	-3.8388186	5.9014674	-6.35410422	8.5370742	-32.12002548
4.83	483	0.306	0.718	-0.511	-11.6310474	-20.05353	12.891555	-6.45150708	8.35372764	-31.9710564
4.84	484	0.249	0.797	-0.476	-1.145916	-27.3300966	16.8449652	-6.42858876	8.10162612	-31.78198026
4.85	485	0.134	0.853	-0.409	8.1360036	-28.4760126	16.8449652	-6.43431834	7.84379502	-31.60436328
4.86	486	0.051	0.853	-0.376	17.9908812	-27.501984	14.32395	-6.22232388	7.5916935	-31.43820546
4.87	487	0.023	0.832	-0.341	22.4026578	-25.0382646	13.0634424	-5.97595194	7.3625103	-31.28923638
4.88	488	0.019	0.805	-0.337	24.637194	-22.8037284	11.4018642	-5.7009321	7.15051584	-31.16318562
4.89	489	0.045	0.758	-0.389	27.9603504	-21.4286292	8.3651868	-5.40299394	6.94998054	-31.06578276
4.9	490	0.075	0.689	-0.452	28.9916748	-18.8503182	4.4690724	-5.19099948	6.77236356	-31.01994612
4.91	491	0.085	0.602	-0.545	27.6738714	-13.464513	2.0626488	-4.90452048	6.64058322	-30.9970278
4.92	492	0.099	0.492	-0.608	28.4760126	-11.6883432	3.0366774	-4.60658232	6.5317212	-30.96265032
4.93	493	0.098	0.369	-0.672	29.0489706	-13.5791046	5.443101	-4.30291458	6.40567044	-30.89962494
4.94	494	0.097	0.253	-0.729	24.4080108	-15.3552744	7.9641162	-4.04508348	6.26243094	-30.81941082
4.95	495	0.081	0.152	-0.829	18.5065434	-14.8396122	8.7089616	-3.86173692	6.11346186	-30.72773754
4.96	496	0.07	0.084	-0.958	14.3812458	-11.0580894	8.5370742	-3.70130868	6.016059	-30.64179384
4.97	497	0.054	0.056	-1.082	13.3499214	-5.9587632	7.5057498	-3.55806918	5.9587632	-30.56157972
4.98	498	0.062	0.034	-1.176	13.2353298	-1.6042824	6.6463128	-3.41482968	5.94730404	-30.49855434
4.99	499	0.095	0.023	-1.244	13.0061466	0	5.5003968	-3.27731976	5.95303362	-30.44125854
5	500	0.134	0.032	-1.29	12.5477802	-0.6302538	3.437748	-3.14553942	5.95303362	-30.41261064
5.01	501	0.152	0.051	-1.323	12.318597	-2.0626488	1.0313244	-3.01948866	5.9301153	-30.40115148
5.02	502	0.156	0.049	-1.315	10.599723	-4.4690724	-0.572958	-2.91062664	5.89000824	-30.40688106
5.03	503	0.13	0.009	-1.269	7.3338624	-7.161975	-1.718874	-2.84187168	5.8155237	-30.4240698
5.04	504	0.106	-0.046	-1.202	1.9480572	-9.2246238	-2.6929026	-2.81895336	5.72385042	-30.44698812
5.05	505	0.064	-0.07	-1.138	-2.9220858	-9.8548776	-4.010706	-2.82468294	5.60925882	-30.4813656
5.06	506	0.025	-0.047	-1.072	-4.297185	-8.3651868	-5.9014674	-2.87624916	5.52331512	-30.5386614
5.07	507	0.01	-0.005	-1.004	-2.578311	-5.6722842	-7.5630456	-2.91062664	5.46028974	-30.61314594
5.08	508	-0.002	0.032	-0.937	-1.0886202	-3.8961144	-8.4797784	-2.92781538	5.42018268	-30.69908964
5.09	509	-0.007	0.067	-0.876	-0.7448454	-2.8074942	-8.4797784	-2.94500412	5.3858052	-30.78503334
5.1	510	-0.005	0.081	-0.852	-1.718874	0.1718874	-7.7922288	-2.99084076	5.35142772	-30.85951788
5.11	511	0.006	0.073	-0.847	-3.2085648	2.4637194	-6.8182002	-3.03094782	5.36861646	-30.92827284
5.12	512	0.016	0.056	-0.852	-3.7815228	4.1252976	-5.3858052	-3.07678446	5.40872352	-30.98556864
5.13	513	0.033	0.037	-0.867	-3.151269	4.5263682	-4.010706	-3.11116194	5.44883058	-31.0256757
5.14	514	0.042	0.023	-0.871	-2.2345362	3.9534102	-3.3804522	-3.13980984	5.48893764	-31.06005318
5.15	515	0.053	0.022	-0.876	-0.7448454	4.1252976	-3.3804522	-3.151269	5.50612638	-31.09443066
5.16	516	0.065	0.036	-0.888	1.9480572	5.2139178	-3.7815228	-3.13408026	5.5576926	-31.13453772
5.17	517	0.082	0.064	-0.911	5.3858052	6.3598338	-4.870143	-3.08251404	5.6149884	-31.18610394
5.18	518	0.099	0.084	-0.933	8.0787078	8.4797784	-5.9014674	-3.0080295	5.7009321	-31.24912932
5.19	519	0.115	0.091	-0.95	7.7922288	9.1100322	-6.302538	-2.93927454	5.7868758	-31.3121547
5.2	520	0.133	0.091	-0.97	6.302538	8.4797784	-6.2452422	-2.90489706	5.87854908	-31.38090966
5.21	521	0.148	0.089	-0.995	4.010706	7.448454	-5.9587632	-2.87051958	5.95303362	-31.44393504
5.22	522	0.161	0.088	-1.018	1.8907614	6.016059	-5.3285094	-2.85906042	6.01032942	-31.50123084
5.23	523	0.166	0.091	-1.034	0.0572958	4.8128472	-4.6409598	-2.86479	6.05616606	-31.54706748
5.24	524	0.167	0.101	-1.043	-1.0886202	3.8388186	-3.724227	-2.88197874	6.09054354	-31.58717454
5.25	525	0.157	0.119	-1.047	-1.6042824	2.9793816	-2.578311	-2.96792244	6.14210976	-31.62155202
5.26	526	0.145	0.141	-1.039	-1.2032118	1.7761698	-1.5469866	-2.98511118	6.1592985	-31.63301118
5.27	527	0.138	0.162	-1.028	-0.859437	1.0313244	-0.9167328	-2.99657034	6.17075766	-31.64447034
5.28	528	0.135	0.179	-1.01	-0.9167328	0.4583664	-0.286479	-3.0080295	6.17648724	-31.65019992
5.29	529	0.137	0.195	-0.991	-1.0886202	-0.4010706	0.286479	-3.01375908	6.17075766	-31.64447034
5.3	530	0.137	0.207	-0.973	-1.3750992	-1.3178034	0.9740286	-3.33461556	6.19940556	-31.66738866
5.31	531	0.136	0.213	-0.952	-2.1772404	-1.8907614	1.5469866	-3.3518043	6.18221682	-31.65019992
5.32	532	0.134	0.216	-0.937	-3.151269	-2.4064236	2.005353	-3.3804522	6.1592985	-31.6272816
5.33	533	0.128	0.218	-0.933	-3.8388186	-2.005353	2.4064236	-3.42055926	6.13638018	-31.60436328
5.34	534	0.122	0.22	-0.937	-3.3804522	-0.5156622	2.4637194	-3.44920716	6.1306506	-31.57571538
5.35	535	0.118	0.216	-0.937	-2.3491278	0	2.2345362	-3.77006364	6.14210976	-31.58717454
5.36	536	0.116	0.212	-0.939	-1.432395	0.4010706	1.7761698	-3.78725238	6.14783934	-31.5699858
5.37	537	0.116	0.207	-0.945	-0.7448454	0.4583664	1.4896908	-3.79298196	6.15356892	-31.55279706
5.38	538	0.116	0.202	-0.952	-0.2291832	0.1145916	1.2032118	-3.79298196	6.15356892	-31.5413379
5.39	539	0.116	0.194	-0.961	0.4010706	-0.1718874	0.9740286	-3.78725238	6.15356892	-31.52987874
5.4	540	0.114	0.185	-0.968	0.9740286	-0.4583664	0.8021412	-4.17113424	6.14210976	-31.56425622
5.41	541	0.111	0.174	-0.977	1.3178034	-0.572958	0.6302538	-4.1539455	6.14210976	-31.55852664
5.42	542	0.109	0.162	-0.982	1.6042824	-0.4010706	0.286479	-4.13675676	6.13638018	-31.55279706
5.43	543	0.108	0.152	-0.986	1.6615782	-0.4010706	0.1718874	-4.11956802	6.1306506	-31.55279706
5.44	544	0.105	0.147	-0.987	1.5469866	0	-0.0572958	-4.10810886	6.1306506	-31.55279706
5.45	545	0.106	0.144	-0.995	1.4896908	0.4583664	-0.286479	-4.3258329	6.10773228	-31.58144496
5.46	546	0.108	0.14	-0.995	1.432395	0.4583664	-0.572958	-4.30864416	6.11346186	-31.58717454
5.47	547	0.112	0.139	-0.99	1.2032118	0	-0.6875496	-4.297185	6.11346186	-31.59290412
5.48	548	0.115	0.135	-0.984	1.145916	-0.572958	-0.8021412	-4.28572584	6.10773228	-31.60436328
5.49	549	0.114	0.127	-0.979	0.9740286	-0.6302538	-0.9740286	-4.27426668	6.09627312	-31.61582244
5.5	550	0.109	0.116	-0.966	0.1718874	-0.859437	-1.2032118	-4.4404245	6.0733548	-31.64447034
5.51	551	0.105	0.106	-0.957	-0.572958	-1.3178034	-1.3178034	-4.44615408	6.06189564	-31.6559295
5.52	552	0.101	0.102	-0.957	-0.9740286	-1.3178034	-1.5469866	-4.45761324	6.0447069	-31.67311824
5.53	553	0.099	0.101	-0.962	-0.9167328	-1.0313244	-1.6615782	-4.4690724	6.03324774	-31.6845774
5.54	554	0.097	0.107	-0.965	-0.6302538	-0.6302538	-1.6615782	-4.47480198	6.02751816	-31.70176614
5.55	555	0.097	0.116	-0.967	-0.2291832	-0.4010706	-1.5469866	-4.68679644	5.97022236	-31.7418732
5.56	556	0.098	0.126	-0.971	0.1718874	-0.4010706	-1.3178034	-4.68679644	5.96449278	-31.75333236
5.57	557	0.101	0.141	-0.976	0.5156622	-0.1718874	-1.0313244	-4.68679644	5.96449278	-31.76479152
5.58	558	0.105	0.153	-0.977	1.0313244	0	-0.7448454	-4.67533728	5.96449278	-31.7705211
5.59	559	0.109	0.158	-0.976	1.2605076	0.1718874	-0.4010706	-4.66387812	5.96449278	-31.77625068
5.6	560	0.11	0.163	-0.974	1.3750992	0.3437748	-0.1145916	-5.02484166	5.96449278	-31.81635774
5.61	561	0.108	0.164	-0.969	1.145916	0.2291832	0	-5.0133825	5.96449278	-31.81635774
5.62	562	0.109	0.166	-0.966	0.572958	0.2291832	0	-5.00765292	5.97022236	-31.81635774
5.63	563	0.107	0.17	-0.967	0.2291832	0.4583664	0	-5.00765292	5.97022236	-31.82208732
5.64	564	0.108	0.17	-0.968	0	0.572958	-0.0572958	-5.00765292	5.97595194	-31.82208732
5.65	565	0.111	0.171	-0.971	0.1145916	0.8021412	-0.1718874	-5.5576926	5.98168152	-31.87938312
5.66	566	0.114	0.172	-0.972	0.3437748	1.2605076	0	-5.55196302	5.99314068	-31.87938312
5.67	567	0.119	0.172	-0.976	0.6875496	1.145916	0.1718874	-5.54623344	6.00459984	-31.87938312
5.68	568	0.122	0.173	-0.977	1.0313244	0.8021412	0.286479	-5.53477428	6.016059	-31.87938312
5.69	569	0.121	0.173	-0.976	1.145916	0.4010706	0.3437748	-5.52331512	6.02178858	-31.87365354
5.7	570	0.119	0.173	-0.974	0.7448454	0	0.2291832	-6.11919144	6.05043648	-31.93094934
5.71	571	0.116	0.171	-0.971	0.1718874	-0.1718874	0.1145916	-6.11919144	6.05043648	-31.93094934
5.72	572	0.115	0.167	-0.97	-0.0572958	-0.0572958	0	-6.11919144	6.05043648	-31.93094934
5.73	573	0.116	0.16	-0.97	-0.286479	0.0572958	0	-6.11919144	6.05043648	-31.93094934
5.74	574	0.114	0.154	-0.973	-0.1718874	0.2291832	0	-6.12492102	6.05043648	-31.93094934
5.75	575	0.112	0.152	-0.975	0.286479	0.2291832	-0.0572958	-6.60047616	6.03324774	-31.98251556
5.76	576	0.11	0.15	-0.972	0.6302538	0.0572958	-0.0572958	-6.59474658	6.03324774	-31.98251556
5.77	577	0.107	0.15	-0.97	0.572958	-0.0572958	-0.2291832	-6.589017	6.03324774	-31.98824514
5.78	578	0.106	0.15	-0.972	0.5156622	-0.1145916	-0.2291832	-6.58328742	6.03324774	-31.98824514
5.79	579	0.107	0.151	-0.977	0.7448454	-0.1145916	-0.2291832	-6.57182826	6.03324774	-31.98824514
5.8	580	0.108	0.152	-0.98	1.2032118	-0.0572958	-0.2291832	-6.75517482	6.016059	-32.01116346
5.81	581	0.108	0.152	-0.978	1.7761698	0	-0.286479	-6.73798608	6.016059	-32.01689304
5.82	582	0.107	0.151	-0.973	1.8907614	-0.1718874	-0.3437748	-6.72079734	6.016059	-32.02262262
5.83	583	0.107	0.149	-0.972	1.4896908	0	-0.3437748	-6.7036086	6.016059	-32.02262262
5.84	584	0.108	0.15	-0.976	1.3178034	0.2291832	-0.3437748	-6.69214944	6.016059	-32.0283522
5.85	585	0.108	0.152	-0.977	1.5469866	0.5156622	-0.3437748	-6.80674104	6.01032942	-32.04554094
5.86	586	0.113	0.154	-0.977	1.6615782	0.6302538	-0.1718874	-6.7895523	6.016059	-32.05127052
5.87	587	0.116	0.155	-0.977	1.6615782	0.572958	-0.0572958	-6.77236356	6.02178858	-32.05127052
5.88	588	0.118	0.158	-0.977	1.7761698	0.4583664	0	-6.75517482	6.02751816	-32.05127052
5.89	589	0.119	0.16	-0.973	1.8334656	0	-0.0572958	-6.73798608	6.02751816	-32.05127052
5.9	590	0.117	0.164	-0.971	2.005353	-0.2291832	-0.1145916	-6.88122558	6.03324774	-32.07418884
5.91	591	0.114	0.162	-0.969	1.8334656	-0.0572958	-0.3437748	-6.86403684	6.03324774	-32.07418884
5.92	592	0.114	0.159	-0.966	1.6042824	-0.1145916	-0.4010706	-6.8468481	6.03324774	-32.07991842
5.93	593	0.112	0.157	-0.965	1.3750992	-0.1718874	-0.4010706	-6.82965936	6.02751816	-32.085648
5.94	594	0.113	0.155	-0.97	1.145916	-0.1718874	-0.4583664	-6.8182002	6.02751816	-32.09137758
5.95	595	0.112	0.156	-0.971	1.3750992	-0.1718874	-0.4583664	-6.95571012	6.02178858	-32.10856632
5.96	596	0.113	0.158	-0.974	1.6615782	-0.2291832	-0.4583664	-6.93852138	6.016059	-32.1142959
5.97	597	0.112	0.161	-0.976	2.005353	-0.1718874	-0.4583664	-6.91560306	6.016059	-32.12002548
5.98	598	0.112	0.162	-0.976	2.5210152	-0.3437748	-0.4583664	-6.89268474	6.01032942	-32.12002548
5.99	599	0.111	0.162	-0.976	2.4637194	-0.4010706	-0.5156622	-6.86976642	6.01032942	-32.12575506
6	600	0.109	0.159	-0.978	2.3491278	-0.6875496	-0.4583664	-6.94425096	5.9874111	-32.1429438
6.01	601	0.105	0.156	-0.975	2.1772404	-0.6302538	-0.572958	-6.92706222	5.98168152	-32.14867338
6.02	602	0.103	0.158	-0.976	1.8907614	0	-0.6875496	-6.9041439	5.98168152	-32.15440296
6.03	603	0.107	0.157	-0.974	1.7761698	-0.0572958	-0.6875496	-6.88695516	5.98168152	-32.16013254
6.04	604	0.111	0.159	-0.971	1.6042824	-0.3437748	-0.4583664	-6.86976642	5.97595194	-32.16586212
6.05	605	0.114	0.159	-0.97	1.6042824	-0.2291832	-0.286479	-7.0187355	5.98168152	-32.18878044
6.06	606	0.113	0.154	-0.966	1.6042824	-0.1718874	-0.1145916	-7.00154676	5.97595194	-32.18878044
6.07	607	0.11	0.148	-0.962	1.3178034	0	0	-6.9900876	5.97595194	-32.18878044
6.08	608	0.109	0.142	-0.96	1.145916	-0.1718874	0.0572958	-6.97862844	5.97595194	-32.18878044
6.09	609	0.106	0.139	-0.961	1.2032118	-0.5156622	-0.0572958	-6.96716928	5.97022236	-32.18878044
6.1	610	0.106	0.136	-0.964	1.3178034	-0.4010706	-0.286479	-7.0473834	5.95303362	-32.2002396
6.11	611	0.108	0.137	-0.97	1.3178034	-0.2291832	-0.4583664	-7.03592424	5.94730404	-32.20596918
6.12	612	0.108	0.141	-0.971	1.432395	-0.286479	-0.4583664	-7.0187355	5.94730404	-32.21169876
6.13	613	0.112	0.147	-0.974	1.3750992	-0.2291832	-0.3437748	-7.00727634	5.94157446	-32.21169876
6.14	614	0.114	0.154	-0.977	1.432395	-0.286479	-0.1145916	-6.9900876	5.94157446	-32.21742834
6.15	615	0.114	0.159	-0.981	1.8334656	-0.2291832	-0.1145916	-7.09894962	5.93584488	-32.2288875
6.16	616	0.112	0.164	-0.98	2.3491278	-0.3437748	0	-7.07030172	5.93584488	-32.2288875
6.17	617	0.109	0.165	-0.976	2.4637194	-0.286479	-0.0572958	-7.0473834	5.9301153	-32.2288875
6.18	618	0.107	0.163	-0.971	2.005353	-0.3437748	-0.0572958	-7.02446508	5.9301153	-32.2288875
6.19	619	0.105	0.162	-0.971	1.145916	-0.1145916	0	-7.01300592	5.92438572	-32.2288875
6.2	620	0.103	0.162	-0.973	0	0.2291832	0.0572958	-7.48856106	5.84990118	-32.28045372
6.21	621	0.102	0.16	-0.971	0.2291832	0.286479	0	-7.48283148	5.85563076	-32.2861833
6.22	622	0.103	0.16	-0.969	0	0.4010706	-0.286479	-7.48283148	5.85563076	-32.2861833
6.23	623	0.106	0.159	-0.967	-0.286479	0.3437748	-0.4010706	-7.48856106	5.86136034	-32.29191288
6.24	624	0.108	0.159	-0.968	-0.5156622	0.5156622	-0.3437748	-7.49429064	5.86708992	-32.29764246
6.25	625	0.111	0.158	-0.972	-0.6875496	0.5156622	-0.2291832	-7.67190762	5.8728195	-32.3148312
6.26	626	0.113	0.157	-0.973	-0.6302538	0.5156622	-0.0572958	-7.6776372	5.87854908	-32.3148312
6.27	627	0.113	0.156	-0.976	-0.286479	0.286479	0.0572958	-7.68336678	5.88427866	-32.3148312
6.28	628	0.114	0.155	-0.976	-0.0572958	0.1718874	0.1145916	-7.68336678	5.88427866	-32.3148312
6.29	629	0.112	0.153	-0.974	0.1145916	0.0572958	0.2291832	-7.68336678	5.88427866	-32.3148312
6.3	630	0.111	0.152	-0.97	0.2291832	-0.2291832	0.286479	-7.91827956	5.88427866	-32.33201994
6.31	631	0.111	0.151	-0.967	0	-0.2291832	0.286479	-7.91827956	5.88427866	-32.32629036
6.32	632	0.11	0.149	-0.966	-0.2291832	-0.0572958	0.286479	-7.91827956	5.88427866	-32.32629036
6.33	633	0.11	0.146	-0.967	-0.2291832	-0.0572958	0.286479	-7.91827956	5.88427866	-32.32056078
6.34	634	0.11	0.143	-0.968	-0.286479	-0.0572958	0.2291832	-7.92400914	5.88427866	-32.32056078
6.35	635	0.109	0.142	-0.97	-0.3437748	0	0.1718874	-8.09016696	5.86708992	-32.33774952
6.36	636	0.107	0.142	-0.973	-0.286479	-0.1145916	0.0572958	-8.09016696	5.86136034	-32.33201994
6.37	637	0.105	0.143	-0.972	-0.1145916	-0.4010706	-0.1145916	-8.09589654	5.86136034	-32.33774952
6.38	638	0.105	0.145	-0.973	-0.4010706	-0.5156622	-0.3437748	-8.10162612	5.85563076	-32.33774952
6.39	639	0.105	0.149	-0.974	-0.4010706	-0.1718874	-0.3437748	-8.10162612	5.84990118	-32.3434791
6.4	640	0.108	0.153	-0.976	0	0.0572958	-0.2291832	-8.41102344	5.83271244	-32.37785658
6.41	641	0.109	0.156	-0.975	0.286479	0.0572958	-0.1145916	-8.41102344	5.83271244	-32.37785658
6.42	642	0.11	0.157	-0.973	0.286479	0.286479	0	-8.40529386	5.83844202	-32.37785658
6.43	643	0.109	0.159	-0.972	0.4583664	0.4010706	0	-8.39956428	5.8441716	-32.37785658
6.44	644	0.11	0.159	-0.968	0.4010706	0.286479	0.0572958	-8.39956428	5.8441716	-32.37785658
6.45	645	0.112	0.157	-0.966	0.2291832	0.1718874	0.1145916	-8.81782362	5.86708992	-32.41796364
6.46	646	0.112	0.157	-0.967	0.0572958	0	0.0572958	-8.81209404	5.86708992	-32.41223406
6.47	647	0.113	0.156	-0.97	0.0572958	0.1145916	0.0572958	-8.81209404	5.8728195	-32.41223406
6.48	648	0.111	0.155	-0.974	0.4583664	0.0572958	0.0572958	-8.80636446	5.8728195	-32.41223406
6.49	649	0.107	0.155	-0.968	0.572958	-0.1718874	0.0572958	-8.80063488	5.8728195	-32.41223406
6.5	650	0.104	0.152	-0.965	0	-0.2291832	0	-8.9381448	5.83271244	-32.4294228
6.51	651	0.103	0.152	-0.968	-0.4010706	0	0.0572958	-8.94387438	5.83271244	-32.4294228
6.52	652	0.105	0.153	-0.974	-0.4010706	0.4010706	0.0572958	-8.94960396	5.83844202	-32.4294228
6.53	653	0.109	0.154	-0.975	-0.1718874	0.5156622	0.0572958	-8.94960396	5.8441716	-32.4294228
6.54	654	0.109	0.154	-0.975	-0.0572958	0.0572958	0.1145916	-8.94960396	5.8441716	-32.42369322
6.55	655	0.108	0.154	-0.974	0	-0.2291832	0.0572958	-9.10430262	5.82698286	-32.44088196
6.56	656	0.107	0.153	-0.976	0.1145916	-0.3437748	0	-9.10430262	5.82125328	-32.44088196
6.57	657	0.106	0.153	-0.976	0.0572958	-0.3437748	-0.1145916	-9.10430262	5.82125328	-32.44088196
6.58	658	0.106	0.152	-0.977	0.4010706	-0.2291832	-0.1145916	-9.09857304	5.8155237	-32.44088196
6.59	659	0.106	0.15	-0.975	0.5156622	0.1145916	-0.1145916	-9.09284346	5.8155237	-32.44661154
6.6	660	0.105	0.152	-0.974	0.4583664	0.5156622	-0.0572958	-9.13295052	5.80979412	-32.45234112
6.61	661	0.107	0.152	-0.974	0.4010706	0.2291832	-0.1145916	-9.12722094	5.80979412	-32.45234112
6.62	662	0.111	0.154	-0.97	0	-0.2291832	0	-9.12722094	5.80979412	-32.45234112
6.63	663	0.112	0.155	-0.968	-0.1718874	-0.1718874	-0.1145916	-9.13295052	5.80979412	-32.45234112
6.64	664	0.111	0.152	-0.965	-0.1145916	0.0572958	-0.0572958	-9.13295052	5.80979412	-32.4580707
6.65	665	0.11	0.149	-0.962	-0.3437748	0.3437748	0	-9.18451674	5.80979412	-32.4580707
6.66	666	0.107	0.145	-0.962	-0.6302538	0.1145916	0.0572958	-9.19024632	5.80979412	-32.4580707
6.67	667	0.103	0.142	-0.963	-0.572958	-0.1145916	0.2291832	-9.1959759	5.80979412	-32.4580707
6.68	668	0.105	0.14	-0.969	-0.286479	0	0.2291832	-9.1959759	5.80979412	-32.45234112
6.69	669	0.107	0.138	-0.974	-0.1718874	0.4010706	0.286479	-9.20170548	5.8155237	-32.45234112
6.7	670	0.109	0.141	-0.977	-0.286479	0.4583664	0.4583664	-9.21889422	5.82125328	-32.44661154
6.71	671	0.11	0.146	-0.979	-0.3437748	0.1145916	0.3437748	-9.21889422	5.82125328	-32.44661154
6.72	672	0.11	0.153	-0.981	-0.0572958	0	0.286479	-9.21889422	5.82125328	-32.44088196
6.73	673	0.111	0.158	-0.982	0.286479	0.0572958	0.286479	-9.21889422	5.82698286	-32.44088196
6.74	674	0.111	0.161	-0.978	0.6302538	0.1145916	0.2291832	-9.21316464	5.82698286	-32.43515238
6.75	675	0.108	0.162	-0.974	0.6302538	0	0.2291832	-9.29910834	5.82125328	-32.44661154
6.76	676	0.105	0.161	-0.968	0.3437748	-0.2291832	0.1145916	-9.29337876	5.8155237	-32.44088196
6.77	677	0.104	0.159	-0.967	0.1145916	-0.3437748	0.1718874	-9.29337876	5.8155237	-32.44088196
6.78	678	0.103	0.159	-0.969	0	-0.3437748	0.0572958	-9.29337876	5.80979412	-32.44088196
6.79	679	0.103	0.158	-0.968	0.0572958	-0.286479	0	-9.29337876	5.80979412	-32.44088196
6.8	680	0.102	0.158	-0.968	0.1718874	-0.2291832	0	-9.43088868	5.75249832	-32.4580707
6.81	681	0.102	0.156	-0.966	0.1145916	0	-0.0572958	-9.43088868	5.75249832	-32.4580707
6.82	682	0.102	0.153	-0.966	0	0.1145916	0	-9.43088868	5.75249832	-32.4580707
6.83	683	0.101	0.15	-0.964	0	0.286479	0	-9.43088868	5.7582279	-32.4580707
6.84	684	0.1	0.148	-0.961	-0.572958	0.4010706	-0.0572958	-9.43661826	5.76395748	-32.4580707
6.85	685	0.104	0.146	-0.964	-1.0886202	0.6875496	0	-9.453807	5.76395748	-32.46380028
6.86	686	0.108	0.147	-0.968	-1.2032118	0.6875496	0.0572958	-9.46526616	5.76968706	-32.46380028
6.87	687	0.109	0.147	-0.971	-1.0886202	0.9167328	0.2291832	-9.47672532	5.78114622	-32.4580707
6.88	688	0.109	0.147	-0.976	-0.7448454	0.859437	0.4583664	-9.48818448	5.79260538	-32.4580707
6.89	689	0.109	0.147	-0.974	-0.5156622	0.572958	0.572958	-9.49391406	5.79833496	-32.45234112
6.9	690	0.108	0.145	-0.971	-0.6875496	0.286479	0.5156622	-9.49964364	5.79833496	-32.44661154
6.91	691	0.108	0.143	-0.969	-0.859437	0.286479	0.4583664	-9.50537322	5.79833496	-32.44088196
6.92	692	0.107	0.142	-0.97	-1.145916	0.4010706	0.3437748	-9.51683238	5.80406454	-32.44088196
6.93	693	0.108	0.14	-0.973	-1.2032118	0.6875496	0.3437748	-9.53402112	5.80979412	-32.43515238
6.94	694	0.109	0.14	-0.975	-0.9740286	0.572958	0.286479	-9.5397507	5.82125328	-32.43515238
6.95	695	0.108	0.142	-0.977	-0.6875496	0.286479	0.2291832	-9.54548028	5.8155237	-32.4294228
6.96	696	0.108	0.145	-0.976	-0.6302538	0.2291832	0.1145916	-9.55120986	5.82125328	-32.4294228
6.97	697	0.107	0.148	-0.974	-0.7448454	0.286479	0	-9.55693944	5.82125328	-32.4294228
6.98	698	0.109	0.152	-0.973	-0.9167328	0.4583664	0	-9.5683986	5.82698286	-32.4294228
6.99	699	0.11	0.156	-0.973	-0.9740286	0.6302538	0.0572958	-9.57985776	5.83271244	-32.4294228
7	700	0.112	0.159	-0.972	-0.9167328	0.572958	0.1145916	-9.61423524	5.83844202	-32.43515238
7.01	701	0.11	0.163	-0.973	-0.859437	0.5156622	0.1718874	-9.6256944	5.8441716	-32.4294228
7.02	702	0.11	0.165	-0.975	-0.6302538	0.6302538	0.0572958	-9.63142398	5.85563076	-32.4294228
7.03	703	0.111	0.163	-0.972	-0.3437748	0.6875496	0	-9.63715356	5.86136034	-32.43515238
7.04	704	0.114	0.161	-0.969	-0.1145916	0.6302538	0	-9.63715356	5.86708992	-32.43515238
7.05	705	0.115	0.158	-0.968	-0.0572958	0.4583664	0	-9.6829902	5.88427866	-32.43515238
7.06	706	0.114	0.155	-0.968	-0.1145916	0.4010706	0.1145916	-9.68871978	5.89000824	-32.43515238
7.07	707	0.113	0.156	-0.968	-0.3437748	0.5156622	0.2291832	-9.68871978	5.89573782	-32.43515238
7.08	708	0.11	0.156	-0.967	-0.5156622	0.6875496	0.286479	-9.69444936	5.9014674	-32.4294228
7.09	709	0.107	0.153	-0.968	-0.859437	0.7448454	0.286479	-9.70590852	5.91292656	-32.4294228
7.1	710	0.106	0.155	-0.97	-1.145916	0.572958	0.1718874	-9.72882684	5.90719698	-32.4294228
7.11	711	0.105	0.155	-0.973	-1.145916	0.2291832	0	-9.740286	5.90719698	-32.4294228
7.12	712	0.107	0.154	-0.974	-0.859437	0	-0.1718874	-9.75174516	5.90719698	-32.43515238
7.13	713	0.107	0.153	-0.974	-0.7448454	-0.1145916	-0.2291832	-9.75747474	5.90719698	-32.43515238
7.14	714	0.109	0.152	-0.974	-0.572958	-0.0572958	-0.3437748	-9.7689339	5.90719698	-32.44088196
7.15	715	0.109	0.151	-0.972	-0.6302538	-0.1145916	-0.286479	-9.78039306	5.89573782	-32.44661154
7.16	716	0.109	0.15	-0.972	-0.6875496	-0.0572958	-0.1718874	-9.78612264	5.89573782	-32.44661154
7.17	717	0.108	0.149	-0.976	-0.7448454	0	-0.0572958	-9.7975818	5.89573782	-32.44661154
7.18	718	0.108	0.149	-0.979	-0.6302538	0.1718874	0.1145916	-9.80331138	5.9014674	-32.44661154
7.19	719	0.106	0.15	-0.979	-0.0572958	0.1145916	0.0572958	-9.80331138	5.9014674	-32.44661154
7.2	720	0.105	0.151	-0.978	0.572958	0.1145916	0	-9.80904096	5.87854908	-32.44661154
7.21	721	0.104	0.153	-0.976	0.6302538	-0.0572958	0	-9.80331138	5.87854908	-32.44661154
7.22	722	0.105	0.154	-0.972	0.5156622	-0.286479	-0.1145916	-9.7975818	5.8728195	-32.44661154
7.23	723	0.108	0.157	-0.971	0.286479	-0.0572958	-0.1145916	-9.79185222	5.8728195	-32.45234112
7.24	724	0.109	0.156	-0.97	0.286479	0.3437748	-0.1145916	-9.79185222	5.87854908	-32.45234112
7.25	725	0.109	0.154	-0.966	0.1718874	1.0313244	0	-9.7975818	5.88427866	-32.45234112
7.26	726	0.11	0.15	-0.964	0.1145916	0.5156622	0.286479	-9.7975818	5.89573782	-32.45234112
7.27	727	0.111	0.15	-0.961	0.286479	-0.1718874	0.286479	-9.79185222	5.89000824	-32.44661154
7.28	728	0.109	0.149	-0.964	0.4583664	-0.1145916	0.1718874	-9.78612264	5.89000824	-32.44661154
7.29	729	0.108	0.148	-0.97	0.4583664	0.286479	0.1145916	-9.78039306	5.89573782	-32.44661154
7.3	730	0.109	0.147	-0.972	0.1145916	0.3437748	0.0572958	-9.78039306	5.87854908	-32.44661154
7.31	731	0.11	0.15	-0.978	0.0572958	0.4010706	0.1145916	-9.78039306	5.88427866	-32.44661154
7.32	732	0.112	0.155	-0.981	0.2291832	0.2291832	0.2291832	-9.77466348	5.88427866	-32.44661154
7.33	733	0.113	0.16	-0.981	0.6302538	0	0.4583664	-9.7689339	5.89000824	-32.44088196
7.34	734	0.112	0.161	-0.978	0.9740286	0.2291832	0.6875496	-9.75747474	5.89000824	-32.43515238
7.35	735	0.111	0.161	-0.971	0.6875496	0.1718874	0.859437	-9.77466348	5.89000824	-32.4294228
7.36	736	0.108	0.16	-0.969	0.2291832	0.0572958	0.9740286	-9.77466348	5.89573782	-32.41796364
7.37	737	0.106	0.16	-0.97	-0.286479	0	0.859437	-9.77466348	5.89573782	-32.41223406
7.38	738	0.106	0.16	-0.97	-0.4010706	0.1145916	0.6302538	-9.78039306	5.9014674	-32.4007749
7.39	739	0.109	0.16	-0.97	-0.286479	0	0.286479	-9.78039306	5.9014674	-32.4007749
7.4	740	0.112	0.159	-0.97	-0.3437748	-0.0572958	0	-9.84341844	5.90719698	-32.40650448
7.41	741	0.114	0.159	-0.97	-0.286479	-0.1145916	-0.1718874	-9.84914802	5.90719698	-32.40650448
7.42	742	0.112	0.155	-0.967	-0.4583664	-0.3437748	-0.1145916	-9.84914802	5.9014674	-32.40650448
7.43	743	0.112	0.152	-0.966	-0.6875496	-0.5156622	-0.1145916	-9.86060718	5.89573782	-32.40650448
7.44	744	0.112	0.15	-0.967	-0.9740286	-0.572958	-0.1718874	-9.87206634	5.89000824	-32.40650448
7.45	745	0.112	0.15	-0.97	-1.145916	-0.572958	-0.1145916	-9.87779592	5.88427866	-32.40650448
7.46	746	0.112	0.149	-0.971	-1.0886202	-0.6875496	-0.1718874	-9.88925508	5.8728195	-32.41223406
7.47	747	0.111	0.151	-0.973	-0.859437	-0.7448454	-0.1718874	-9.90071424	5.86708992	-32.41223406
7.48	748	0.109	0.152	-0.972	-0.6875496	-0.572958	-0.3437748	-9.90644382	5.86136034	-32.41223406
7.49	749	0.108	0.152	-0.972	-0.4583664	-0.4010706	-0.4010706	-9.9121734	5.85563076	-32.41796364
7.5	750	0.107	0.152	-0.971	-0.5156622	-0.286479	-0.4583664	-9.92363256	5.8441716	-32.42369322
7.51	751	0.108	0.151	-0.971	-0.4583664	-0.286479	-0.572958	-9.92936214	5.8441716	-32.4294228
7.52	752	0.109	0.15	-0.972	-0.286479	-0.3437748	-0.572958	-9.93509172	5.83844202	-32.43515238
7.53	753	0.11	0.148	-0.971	-0.286479	-0.4010706	-0.572958	-9.9408213	5.83271244	-32.44088196
7.54	754	0.11	0.148	-0.97	-0.5156622	-0.5156622	-0.6875496	-9.94655088	5.82698286	-32.44661154
7.55	755	0.109	0.148	-0.971	-0.8021412	-0.4010706	-0.572958	-9.94655088	5.82125328	-32.45234112
7.56	756	0.109	0.15	-0.972	-0.9740286	-0.3437748	-0.6302538	-9.95801004	5.8155237	-32.4580707
7.57	757	0.107	0.152	-0.972	-1.0313244	-0.4010706	-0.6875496	-9.9694692	5.80979412	-32.46380028
7.58	758	0.108	0.157	-0.975	-0.9740286	-0.4010706	-0.6302538	-9.98092836	5.80406454	-32.46952986
7.59	759	0.107	0.16	-0.976	-0.9167328	-0.2291832	-0.6302538	-9.99238752	5.79833496	-32.47525944
7.6	760	0.108	0.165	-0.98	-0.6302538	-0.1145916	-0.572958	-10.03249458	5.7868758	-32.48098902
7.61	761	0.108	0.167	-0.978	-0.2291832	0	-0.5156622	-10.03249458	5.7868758	-32.4867186
7.62	762	0.108	0.169	-0.979	0.0572958	0.0572958	-0.3437748	-10.03249458	5.7868758	-32.49244818
7.63	763	0.108	0.17	-0.978	0.4010706	-0.0572958	-0.1718874	-10.026765	5.7868758	-32.49244818
7.64	764	0.107	0.171	-0.977	0.572958	-0.1145916	-0.1145916	-10.02103542	5.7868758	-32.49244818
7.65	765	0.107	0.17	-0.975	0.572958	0	-0.0572958	-10.07833122	5.78114622	-32.50390734
7.66	766	0.109	0.168	-0.973	0.5156622	-0.1145916	-0.0572958	-10.07260164	5.77541664	-32.50390734
7.67	767	0.111	0.165	-0.972	0.4583664	-0.2291832	0	-10.06687206	5.77541664	-32.50390734
