TimeStamp(s)	FrameCounter	AccX	AccY	AccZ	GyrX	GyrY	GyrZ	EulerX	EulerY	EulerZ
0.01	1	-0.031	-1.004	0.134	-0.6875496	0.286479	-0.286479	93.73019922	-2.34339822	-22.89540168
0.02	2	-0.032	-1.005	0.133	-0.6875496	0.4583664	-0.2291832	93.71874006	-2.34339822	-22.8896721
0.03	3	-0.033	-1.003	0.133	-0.8021412	0.4583664	-0.286479	93.71301048	-2.34339822	-22.88394252
0.04	4	-0.034	-1.002	0.133	-0.9167328	0.4010706	-0.3437748	93.70155132	-2.33766864	-22.87821294
0.05	5	-0.034	-0.998	0.133	-1.0886202	0.572958	-0.4010706	93.77603586	-2.30902074	-22.8896721
0.06	6	-0.033	-0.997	0.133	-0.9167328	0.6875496	-0.4583664	93.7645767	-2.30329116	-22.87821294
0.07	7	-0.031	-0.996	0.132	-0.859437	0.6875496	-0.4010706	93.75884712	-2.30329116	-22.87248336
0.08	8	-0.03	-0.995	0.134	-0.859437	0.2291832	-0.1145916	93.74738796	-2.29756158	-22.87248336
0.09	9	-0.033	-0.997	0.134	-0.8021412	0	-0.1145916	93.74165838	-2.29756158	-22.87248336
0.1	10	-0.034	-1	0.133	-0.9740286	0.0572958	-0.286479	93.85624998	-2.25172494	-22.8896721
0.11	11	-0.033	-1.004	0.137	-1.0886202	0.4583664	-0.3437748	93.84479082	-2.24599536	-22.88394252
0.12	12	-0.03	-1.005	0.138	-1.145916	0.9167328	-0.3437748	93.83333166	-2.24599536	-22.87821294
0.13	13	-0.027	-1.008	0.138	-1.0886202	0.8021412	-0.286479	93.8218725	-2.24599536	-22.86675378
0.14	14	-0.027	-1.009	0.136	-1.2605076	0.572958	-0.1145916	93.81041334	-2.24026578	-22.8610242
0.15	15	-0.026	-1.007	0.133	-1.2032118	0.3437748	0	93.93073452	-2.17151082	-22.8896721
0.16	16	-0.026	-1.004	0.136	-1.0313244	0.0572958	0	93.91927536	-2.17151082	-22.8896721
0.17	17	-0.028	-0.997	0.132	-1.2032118	0.286479	-0.1718874	93.9078162	-2.17151082	-22.8896721
0.18	18	-0.03	-0.991	0.131	-0.7448454	0.2291832	-0.3437748	93.89635704	-2.16578124	-22.88394252
0.19	19	-0.032	-0.992	0.138	-0.1718874	0.1718874	-0.572958	93.89635704	-2.16005166	-22.88394252
0.2	20	-0.031	-0.996	0.14	-0.4583664	0.2291832	-0.572958	94.00521906	-2.12567418	-22.89540168
0.21	21	-0.029	-1.001	0.139	-0.8021412	0.286479	-0.4583664	93.99948948	-2.1199446	-22.8896721
0.22	22	-0.028	-1.002	0.136	-0.859437	0.2291832	-0.3437748	93.98803032	-2.11421502	-22.8896721
0.23	23	-0.029	-1.003	0.139	-0.7448454	0.1145916	-0.2291832	93.98230074	-2.11421502	-22.8896721
0.24	24	-0.031	-1.005	0.139	-0.9740286	0.1718874	-0.1145916	93.97084158	-2.11421502	-22.88394252
0.25	25	-0.032	-1.003	0.137	-1.0886202	0.1145916	-0.0572958	94.09689234	-2.07410796	-22.90113126
0.26	26	-0.032	-0.999	0.135	-1.2032118	0.0572958	-0.0572958	94.08543318	-2.07410796	-22.90113126
0.27	27	-0.03	-0.996	0.133	-1.0313244	0.1145916	-0.0572958	94.07397402	-2.07410796	-22.90113126
0.28	28	-0.031	-0.993	0.134	-0.9167328	0.2291832	-0.1145916	94.06824444	-2.07410796	-22.89540168
0.29	29	-0.03	-0.992	0.133	-0.8021412	0.286479	-0.1718874	94.05678528	-2.06837838	-22.89540168
0.3	30	-0.029	-0.996	0.133	-0.6302538	0.286479	-0.1718874	94.17137688	-2.02254174	-22.91259042
0.31	31	-0.029	-0.998	0.132	-0.5156622	0.1718874	-0.1145916	94.1656473	-2.01681216	-22.91259042
0.32	32	-0.029	-0.999	0.135	-0.2291832	0.1145916	-0.1718874	94.1656473	-2.01681216	-22.90686084
0.33	33	-0.029	-1.002	0.138	-0.3437748	0.1718874	-0.3437748	94.15991772	-2.01108258	-22.90686084
0.34	34	-0.031	-1.003	0.135	-0.9167328	0.1718874	-0.3437748	94.14845856	-2.01108258	-22.90686084
0.35	35	-0.032	-1.005	0.132	-0.3437748	0	0	94.40628966	-1.93659804	-22.94123832
0.36	36	-0.032	-1.006	0.132	0	0	0.1145916	94.40628966	-1.93659804	-22.94123832
0.37	37	-0.031	-1.005	0.134	0	0	0.2291832	94.40628966	-1.94232762	-22.94123832
0.38	38	-0.03	-1.003	0.137	-0.0572958	0	0.2291832	94.40056008	-1.94232762	-22.94123832
0.39	39	-0.031	-1.001	0.137	-0.2291832	0	0.2291832	94.40056008	-1.94232762	-22.94123832
0.4	40	-0.029	-1	0.133	-0.3437748	0	0.3437748	94.55525874	-1.88503182	-22.96988622
0.41	41	-0.028	-0.999	0.132	-0.286479	0.0572958	0.1718874	94.54952916	-1.88503182	-22.96988622
0.42	42	-0.03	-0.998	0.134	-0.2291832	0	0.0572958	94.54952916	-1.8907614	-22.96415664
0.43	43	-0.03	-0.998	0.134	-0.286479	0	0	94.54379958	-1.8907614	-22.96415664
0.44	44	-0.031	-0.998	0.134	-0.1145916	0	0	94.54379958	-1.8907614	-22.96415664
0.45	45	-0.03	-0.997	0.134	0.0572958	0	0	94.77871236	-1.82773602	-22.99280454
0.46	46	-0.029	-0.996	0.135	0.1145916	0.1145916	0	94.78444194	-1.82773602	-22.99280454
0.47	47	-0.028	-0.996	0.138	0.1145916	0.1145916	0	94.78444194	-1.82773602	-22.99280454
0.48	48	-0.029	-0.999	0.138	0	0.1718874	0.0572958	94.78444194	-1.82773602	-22.98707496
0.49	49	-0.03	-1	0.134	-0.1718874	0.2291832	0.1718874	94.77871236	-1.82773602	-22.98707496
0.5	50	-0.03	-1.001	0.135	-0.0572958	0.286479	0.1718874	94.99070682	-1.77044022	-23.00999328
0.51	51	-0.029	-1	0.137	0	0.3437748	0.1145916	94.99070682	-1.77044022	-23.00999328
0.52	52	-0.03	-1.001	0.138	0.0572958	0.286479	0.0572958	94.99070682	-1.77044022	-23.0042637
0.53	53	-0.028	-1.002	0.137	0.0572958	0.1718874	0.1145916	94.99070682	-1.7761698	-23.0042637
0.54	54	-0.028	-1.002	0.139	0.1145916	0.1145916	0.1145916	94.99070682	-1.7761698	-23.0042637
0.55	55	-0.029	-1.002	0.138	-0.0572958	0.1145916	0.0572958	95.26572666	-1.66730778	-23.04437076
0.56	56	-0.028	-1.001	0.134	-0.2291832	0.1718874	0.1145916	95.26572666	-1.66730778	-23.04437076
0.57	57	-0.027	-1.002	0.137	0	0.1718874	0.1145916	95.26572666	-1.66730778	-23.04437076
0.58	58	-0.027	-1.002	0.137	0	0.1145916	0.1145916	95.26572666	-1.67303736	-23.03864118
0.59	59	-0.027	-1	0.135	0	0.1145916	0.1718874	95.26572666	-1.67303736	-23.03864118
0.6	60	-0.027	-1	0.135	0.1145916	0	0.2291832	95.38604784	-1.63865988	-23.05582992
0.61	61	-0.028	-1	0.136	0.0572958	0	0.286479	95.38604784	-1.63865988	-23.05582992
0.62	62	-0.03	-1	0.136	-0.1145916	-0.1145916	0.3437748	95.38604784	-1.64438946	-23.05582992
0.63	63	-0.029	-1.002	0.136	-0.1145916	-0.0572958	0.1145916	95.38031826	-1.64438946	-23.0615595
0.64	64	-0.031	-1.003	0.136	-0.2291832	0.0572958	0.0572958	95.38031826	-1.64438946	-23.05582992
0.65	65	-0.03	-1.003	0.133	-0.3437748	0.1145916	0	95.43761406	-1.62147114	-23.06728908
0.66	66	-0.028	-1.001	0.133	-0.2291832	0.1145916	0	95.43761406	-1.62147114	-23.06728908
0.67	67	-0.031	-0.999	0.138	-0.0572958	0	0.1145916	95.43761406	-1.62147114	-23.06728908
0.68	68	-0.03	-0.996	0.139	-0.2291832	-0.1145916	0.1145916	95.43188448	-1.62720072	-23.06728908
0.69	69	-0.03	-0.996	0.138	-0.2291832	0	0.1718874	95.43188448	-1.62720072	-23.06728908
0.7	70	-0.031	-0.997	0.135	-0.1718874	0	0.1145916	95.55220566	-1.61574156	-23.07301866
0.71	71	-0.032	-0.997	0.136	-0.1718874	0.1145916	0.0572958	95.54647608	-1.62147114	-23.07301866
0.72	72	-0.031	-0.997	0.138	-0.1145916	0.2291832	0	95.54647608	-1.61574156	-23.06728908
0.73	73	-0.031	-0.998	0.136	-0.0572958	0.4010706	0	95.54647608	-1.62147114	-23.06728908
0.74	74	-0.032	-0.998	0.134	0	0.2291832	0	95.54647608	-1.62147114	-23.0615595
0.75	75	-0.031	-1	0.136	0.4010706	0	0.1718874	95.61523104	-1.61574156	-23.06728908
0.76	76	-0.032	-1.001	0.141	0.4583664	0	0	95.62096062	-1.61574156	-23.0615595
0.77	77	-0.033	-1.002	0.14	0.1145916	0.1718874	-0.0572958	95.62096062	-1.61574156	-23.0615595
0.78	78	-0.029	-1.004	0.138	-0.1718874	0.5156622	-0.0572958	95.62096062	-1.61574156	-23.05582992
0.79	79	-0.026	-1.007	0.138	-0.286479	0.572958	0	95.61523104	-1.61574156	-23.05010034
0.8	80	-0.026	-1.009	0.137	-0.4010706	0.4010706	0.1718874	95.64960852	-1.59855282	-23.05582992
0.81	81	-0.027	-1.006	0.134	-0.572958	0	0.3437748	95.64387894	-1.6042824	-23.05582992
0.82	82	-0.029	-1.002	0.133	-0.2291832	-0.3437748	0.3437748	95.64387894	-1.61001198	-23.0615595
0.83	83	-0.029	-0.997	0.133	0	-0.4010706	0.1145916	95.64387894	-1.61001198	-23.0615595
0.84	84	-0.03	-0.992	0.133	0.0572958	-0.2291832	-0.2291832	95.64387894	-1.6042824	-23.06728908
0.85	85	-0.032	-0.99	0.136	0.286479	-0.2291832	-0.4583664	95.683986	-1.6042824	-23.06728908
0.86	86	-0.033	-0.994	0.138	0.3437748	-0.1718874	-0.572958	95.68971558	-1.59282324	-23.06728908
0.87	87	-0.032	-0.997	0.138	0.1145916	-0.0572958	-0.572958	95.68971558	-1.58709366	-23.06728908
0.88	88	-0.031	-1	0.134	-0.1145916	0	-0.4010706	95.68971558	-1.58709366	-23.06728908
0.89	89	-0.029	-1.001	0.133	0.0572958	-0.1145916	-0.1718874	95.68971558	-1.58136408	-23.06728908
0.9	90	-0.029	-1.003	0.134	0.4010706	-0.1145916	-0.1145916	95.7412818	-1.56990492	-23.07301866
0.91	91	-0.03	-1.005	0.133	0.4583664	0	-0.0572958	95.74701138	-1.56990492	-23.07301866
0.92	92	-0.03	-1.006	0.132	0.5156622	-0.1145916	0	95.75274096	-1.56990492	-23.07874824
0.93	93	-0.03	-1.004	0.134	0.6875496	-0.0572958	-0.0572958	95.75847054	-1.56990492	-23.07874824
0.94	94	-0.029	-1.001	0.138	0.572958	0	0	95.76420012	-1.56990492	-23.07874824
0.95	95	-0.03	-0.997	0.138	0.286479	-0.1145916	0.0572958	95.8272255	-1.55844576	-23.08447782
0.96	96	-0.031	-0.994	0.136	0.0572958	-0.0572958	0.1145916	95.8272255	-1.55844576	-23.08447782
0.97	97	-0.03	-0.991	0.136	0.0572958	0	0.1145916	95.8272255	-1.55844576	-23.08447782
0.98	98	-0.031	-0.992	0.137	0.0572958	0	0.0572958	95.8272255	-1.56417534	-23.08447782
0.99	99	-0.032	-0.992	0.136	0.1145916	-0.0572958	0.0572958	95.83295508	-1.56417534	-23.08447782
1	100	-0.032	-0.997	0.136	0.5156622	-0.1145916	0	95.87879172	-1.55844576	-23.08447782
1.01	101	-0.031	-1.002	0.14	0.4583664	0.0572958	-0.1145916	95.8845213	-1.55844576	-23.08447782
1.02	102	-0.028	-1.005	0.141	0.0572958	0.1145916	-0.1145916	95.8845213	-1.55271618	-23.08447782
1.03	103	-0.028	-1.005	0.138	0	0.1718874	-0.1145916	95.8845213	-1.55271618	-23.08447782
1.04	104	-0.028	-1.005	0.138	0	0.2291832	0	95.8845213	-1.55271618	-23.07874824
1.05	105	-0.028	-1.006	0.138	0.0572958	0.1718874	0.0572958	95.95327626	-1.52979786	-23.0902074
1.06	106	-0.028	-1.005	0.14	0	0	0.286479	95.95327626	-1.52979786	-23.0902074
1.07	107	-0.029	-1.005	0.138	-0.0572958	0	0.286479	95.95327626	-1.53552744	-23.0902074
1.08	108	-0.028	-1.005	0.139	0.0572958	0	0.2291832	95.95327626	-1.53552744	-23.0902074
1.09	109	-0.029	-1.003	0.14	0	0	0.1718874	95.95327626	-1.54125702	-23.0902074
1.1	110	-0.028	-1.003	0.139	-0.286479	0	0.1145916	95.99338332	-1.52406828	-23.09593698
1.11	111	-0.027	-1	0.138	-0.4010706	0.1145916	0.1145916	95.98765374	-1.52979786	-23.0902074
1.12	112	-0.028	-0.996	0.138	-0.4583664	0.1718874	0.1145916	95.98765374	-1.52979786	-23.0902074
1.13	113	-0.029	-0.995	0.138	-0.4583664	0.1145916	0.1718874	95.98192416	-1.52979786	-23.0902074
1.14	114	-0.029	-0.994	0.136	-0.3437748	0	0.3437748	95.97619458	-1.53552744	-23.0902074
1.15	115	-0.029	-0.994	0.139	0	0	0.286479	96.04494954	-1.5183387	-23.09593698
1.16	116	-0.028	-0.997	0.138	0	0.1145916	0.3437748	96.04494954	-1.52406828	-23.09593698
1.17	117	-0.027	-0.997	0.139	0.0572958	0	0.286479	96.04494954	-1.52979786	-23.09593698
1.18	118	-0.029	-0.999	0.14	0.0572958	0	0.2291832	96.04494954	-1.52979786	-23.09593698
1.19	119	-0.029	-0.999	0.139	-0.1718874	0.0572958	0.1718874	96.04494954	-1.53552744	-23.09593698
1.2	120	-0.029	-1.001	0.139	-0.0572958	0.1145916	0.1718874	96.15381156	-1.51260912	-23.10166656
1.21	121	-0.03	-1.001	0.141	-0.286479	0	0.1145916	96.14808198	-1.51260912	-23.10166656
1.22	122	-0.03	-0.999	0.138	-0.4583664	0	0.1145916	96.1423524	-1.51260912	-23.10166656
1.23	123	-0.03	-1.001	0.137	-0.286479	-0.0572958	0.1145916	96.1423524	-1.51260912	-23.10739614
1.24	124	-0.029	-1.001	0.137	-0.2291832	0	0.1718874	96.13662282	-1.5183387	-23.10739614
1.25	125	-0.029	-0.999	0.137	0	0	0.1718874	96.21683694	-1.4896908	-23.1188553
1.26	126	-0.029	-0.998	0.139	-0.0572958	0	0.0572958	96.21683694	-1.4896908	-23.1188553
1.27	127	-0.028	-0.999	0.137	0	0.0572958	0.1718874	96.21110736	-1.4896908	-23.11312572
1.28	128	-0.031	-1.001	0.138	0	0	0.2291832	96.21683694	-1.4896908	-23.1188553
1.29	129	-0.032	-1.004	0.141	0	0.0572958	0.286479	96.21683694	-1.49542038	-23.11312572
1.3	130	-0.033	-1.003	0.14	-0.5156622	0.1718874	0.286479	96.22256652	-1.50114996	-23.11312572
1.31	131	-0.032	-1.002	0.136	-0.859437	0.286479	0.286479	96.21683694	-1.50687954	-23.10739614
1.32	132	-0.031	-1	0.134	-0.4583664	0.3437748	0.286479	96.21110736	-1.50687954	-23.10739614
1.33	133	-0.03	-1	0.135	-0.286479	0.3437748	0.1718874	96.20537778	-1.51260912	-23.10166656
1.34	134	-0.028	-1	0.137	-0.1718874	0.286479	0.1718874	96.20537778	-1.51260912	-23.10166656
1.35	135	-0.029	-1.001	0.139	-0.1718874	0.1145916	0.1718874	96.25121442	-1.50114996	-23.10739614
1.36	136	-0.03	-1.003	0.139	-0.1718874	0	0.1145916	96.25121442	-1.50114996	-23.10739614
1.37	137	-0.031	-1.002	0.139	-0.4010706	0.0572958	0	96.24548484	-1.50114996	-23.10166656
1.38	138	-0.032	-1	0.137	-0.6302538	0.0572958	0	96.23975526	-1.50114996	-23.10166656
1.39	139	-0.032	-0.999	0.138	-0.6875496	0	-0.0572958	96.23402568	-1.50114996	-23.10166656
1.4	140	-0.031	-0.997	0.135	-0.6875496	0.2291832	-0.0572958	96.23402568	-1.50114996	-23.10166656
1.41	141	-0.029	-0.995	0.134	-0.8021412	0	0.1145916	96.2282961	-1.50114996	-23.10166656
1.42	142	-0.03	-0.995	0.134	-0.6302538	-0.2291832	0.286479	96.22256652	-1.50687954	-23.10739614
1.43	143	-0.032	-0.993	0.133	-0.4583664	-0.4583664	0.2291832	96.21683694	-1.50687954	-23.10739614
1.44	144	-0.033	-0.994	0.136	-0.3437748	-0.3437748	0.1145916	96.21110736	-1.50687954	-23.11312572
1.45	145	-0.031	-0.999	0.136	-0.4583664	0.0572958	0	96.2282961	-1.50114996	-23.11312572
1.46	146	-0.029	-1.004	0.139	0	0.286479	0	96.2282961	-1.50114996	-23.11312572
1.47	147	-0.028	-1.01	0.142	0	-0.1145916	0.0572958	96.2282961	-1.50114996	-23.11312572
1.48	148	-0.03	-1.011	0.137	-0.1718874	-0.3437748	0.1145916	96.2282961	-1.50114996	-23.1188553
1.49	149	-0.032	-1.011	0.138	0.0572958	-0.4583664	0.2291832	96.2282961	-1.50687954	-23.1188553
1.5	150	-0.033	-1.007	0.138	-0.2291832	-0.4010706	0.1145916	96.24548484	-1.51260912	-23.12458488
1.51	151	-0.035	-0.998	0.137	-0.286479	-0.0572958	0	96.23975526	-1.51260912	-23.12458488
1.52	152	-0.036	-0.992	0.136	-0.0572958	0	-0.1145916	96.23975526	-1.51260912	-23.12458488
1.53	153	-0.036	-0.993	0.137	0	0.1718874	-0.0572958	96.23975526	-1.50687954	-23.12458488
1.54	154	-0.034	-0.995	0.136	-0.0572958	0.2291832	0.0572958	96.23975526	-1.51260912	-23.1188553
1.55	155	-0.032	-0.995	0.135	-0.2291832	0.1718874	0.1145916	96.25121442	-1.50687954	-23.1188553
1.56	156	-0.031	-0.993	0.133	-0.1145916	0.3437748	0.1718874	96.25121442	-1.51260912	-23.1188553
1.57	157	-0.032	-0.993	0.132	0.1145916	0.3437748	0.3437748	96.25121442	-1.51260912	-23.11312572
1.58	158	-0.034	-0.993	0.132	0.4583664	0.2291832	0.1718874	96.256944	-1.5183387	-23.11312572
1.59	159	-0.034	-0.994	0.132	0.6875496	0.1718874	0.2291832	96.26267358	-1.5183387	-23.10739614
1.6	160	-0.034	-0.994	0.133	0.7448454	0.2291832	0.1718874	96.27413274	-1.52406828	-23.10739614
1.61	161	-0.033	-0.996	0.132	0.7448454	0.1718874	0.1145916	96.2855919	-1.52406828	-23.10739614
1.62	162	-0.032	-0.999	0.135	0.859437	0.2291832	0	96.29132148	-1.52979786	-23.10166656
1.63	163	-0.032	-1.001	0.134	0.7448454	0.1718874	0	96.30278064	-1.52979786	-23.10166656
1.64	164	-0.031	-1.001	0.132	0.6302538	0.1145916	-0.0572958	96.30851022	-1.52979786	-23.09593698
1.65	165	-0.033	-0.999	0.132	0.5156622	0.1145916	-0.1718874	96.3142398	-1.53552744	-23.09593698
1.66	166	-0.035	-1.002	0.134	0.5156622	0.1145916	-0.286479	96.31996938	-1.52979786	-23.0902074
1.67	167	-0.035	-1.003	0.135	0.286479	0.2291832	-0.286479	96.32569896	-1.52979786	-23.0902074
1.68	168	-0.035	-1.005	0.133	0.0572958	0.286479	-0.3437748	96.32569896	-1.52406828	-23.08447782
1.69	169	-0.034	-1.006	0.135	0	0.286479	-0.286479	96.32569896	-1.52406828	-23.08447782
1.7	170	-0.032	-1.007	0.137	0.1145916	0.1718874	-0.1145916	96.34861728	-1.51260912	-23.08447782
1.71	171	-0.03	-1.007	0.139	0	0	0	96.34861728	-1.51260912	-23.08447782
1.72	172	-0.029	-1.006	0.139	-0.1145916	-0.1145916	0	96.34861728	-1.51260912	-23.08447782
1.73	173	-0.031	-1.004	0.138	-0.3437748	-0.1718874	0.1718874	96.3428877	-1.51260912	-23.08447782
1.74	174	-0.033	-1.002	0.137	-0.4010706	-0.2291832	0.1145916	96.3428877	-1.51260912	-23.0902074
1.75	175	-0.033	-1.001	0.139	-0.4583664	-0.1718874	0	96.36007644	-1.5183387	-23.0902074
1.76	176	-0.033	-0.999	0.139	-0.6302538	-0.0572958	-0.0572958	96.35434686	-1.5183387	-23.0902074
1.77	177	-0.033	-0.996	0.138	-0.859437	0	-0.1145916	96.3428877	-1.5183387	-23.0902074
1.78	178	-0.033	-0.994	0.136	-0.8021412	0	-0.0572958	96.33715812	-1.5183387	-23.0902074
1.79	179	-0.033	-0.994	0.136	-0.7448454	-0.1718874	0	96.33142854	-1.5183387	-23.09593698
1.8	180	-0.032	-0.995	0.136	-0.4583664	-0.3437748	0.0572958	96.33715812	-1.5183387	-23.09593698
1.81	181	-0.032	-0.996	0.136	-0.286479	-0.4010706	0.1145916	96.33142854	-1.5183387	-23.10166656
1.82	182	-0.031	-0.998	0.138	-0.1145916	-0.3437748	0.1145916	96.33142854	-1.5183387	-23.10739614
1.83	183	-0.032	-0.998	0.138	-0.1145916	-0.4010706	0.1145916	96.33142854	-1.5183387	-23.10739614
1.84	184	-0.034	-0.999	0.138	-0.2291832	-0.286479	0.0572958	96.32569896	-1.5183387	-23.11312572
1.85	185	-0.035	-0.999	0.137	-0.5156622	-0.2291832	0.0572958	96.33715812	-1.54125702	-23.11312572
1.86	186	-0.037	-0.999	0.137	-0.3437748	-0.2291832	0	96.33142854	-1.54125702	-23.11312572
1.87	187	-0.037	-0.999	0.137	-0.286479	-0.1145916	0	96.32569896	-1.54125702	-23.11312572
1.88	188	-0.037	-1.001	0.137	-0.3437748	-0.0572958	0	96.32569896	-1.54125702	-23.1188553
1.89	189	-0.034	-1	0.139	-0.1718874	-0.1145916	0	96.31996938	-1.54125702	-23.1188553
1.9	190	-0.034	-1.003	0.138	-0.4583664	-0.0572958	0	96.33142854	-1.5469866	-23.1188553
1.91	191	-0.032	-1.004	0.138	-0.7448454	0.0572958	0	96.32569896	-1.5469866	-23.1188553
1.92	192	-0.032	-1.005	0.137	-1.0313244	0.1145916	0	96.3142398	-1.5469866	-23.11312572
1.93	193	-0.033	-1.006	0.135	-1.0886202	0	0.1145916	96.30278064	-1.5469866	-23.11312572
1.94	194	-0.035	-1.006	0.137	-1.4896908	0.1718874	0.1145916	96.2855919	-1.5469866	-23.11312572
1.95	195	-0.035	-1.005	0.139	-1.8334656	0.4010706	0.286479	96.27413274	-1.55844576	-23.11312572
1.96	196	-0.037	-1.004	0.138	-2.1199446	0.4010706	0.2291832	96.25121442	-1.55844576	-23.10739614
1.97	197	-0.037	-1.005	0.141	-1.9480572	0.5156622	0.286479	96.2282961	-1.56417534	-23.10166656
1.98	198	-0.037	-1.008	0.14	-2.3491278	0.6302538	0.286479	96.20537778	-1.56990492	-23.09593698
1.99	199	-0.036	-1.011	0.136	-2.86479	0.6302538	0.2291832	96.17672988	-1.56990492	-23.0902074
2	200	-0.036	-1.012	0.136	-3.0939732	0.6302538	0.1145916	96.14808198	-1.5756345	-23.08447782
2.01	201	-0.035	-1.011	0.138	-3.3804522	0.572958	-0.0572958	96.1137045	-1.5756345	-23.07874824
2.02	202	-0.036	-1.01	0.135	-3.724227	0.4010706	-0.1145916	96.07359744	-1.5756345	-23.07301866
2.03	203	-0.038	-1.009	0.134	-3.8961144	0.286479	-0.2291832	96.03349038	-1.5756345	-23.07301866
2.04	204	-0.038	-1.008	0.135	-4.1825934	0.5156622	-0.1718874	95.99338332	-1.5756345	-23.06728908
2.05	205	-0.036	-1.01	0.131	-4.3544808	0.572958	-0.1718874	95.94754668	-1.5756345	-23.0615595
2.06	206	-0.033	-1.007	0.131	-4.6409598	0.4010706	-0.0572958	95.90171004	-1.5756345	-23.05582992
2.07	207	-0.033	-1.002	0.132	-4.9274388	0	0	95.85014382	-1.5756345	-23.05582992
2.08	208	-0.035	-0.999	0.127	-5.2712136	0.0572958	0.1718874	95.7985776	-1.5756345	-23.05582992
2.09	209	-0.038	-0.998	0.129	-5.2712136	0.1145916	0.1718874	95.74701138	-1.58136408	-23.05582992
2.1	210	-0.039	-1	0.131	-4.9274388	0.4583664	0.1718874	95.70117474	-1.58709366	-23.05582992
2.11	211	-0.037	-1.004	0.136	-4.9274388	0.859437	0.1718874	95.64960852	-1.58709366	-23.04437076
2.12	212	-0.036	-1.008	0.14	-5.5003968	0.9167328	0.0572958	95.59231272	-1.59282324	-23.03864118
2.13	213	-0.033	-1.006	0.136	-5.8441716	0.5156622	0.1145916	95.53501692	-1.59282324	-23.0329116
2.14	214	-0.032	-1.007	0.134	-5.5576926	0.286479	0.2291832	95.47772112	-1.59855282	-23.0329116
2.15	215	-0.032	-1.007	0.131	-5.9587632	0.1718874	0.1718874	95.42042532	-1.59855282	-23.02718202
2.16	216	-0.033	-1.002	0.125	-6.0733548	0.0572958	0.1145916	95.35739994	-1.6042824	-23.02718202
2.17	217	-0.037	-0.996	0.134	-5.443101	-0.0572958	-0.1718874	95.30010414	-1.59855282	-23.0329116
2.18	218	-0.037	-0.998	0.145	-6.0733548	-0.1145916	-0.286479	95.24280834	-1.59855282	-23.0329116
2.19	219	-0.034	-1.002	0.144	-7.448454	0.2291832	-0.2291832	95.16259422	-1.59282324	-23.0329116
2.2	220	-0.031	-1.006	0.137	-8.6516658	0.572958	-0.0572958	95.0823801	-1.59282324	-23.02718202
2.21	221	-0.031	-1.006	0.132	-8.9954406	0.6302538	0.1145916	94.99070682	-1.59855282	-23.02145244
2.22	222	-0.034	-1.009	0.134	-9.0527364	0.4583664	0.1145916	94.89903354	-1.59855282	-23.01572286
2.23	223	-0.037	-1.015	0.144	-9.6829902	0.859437	0.0572958	94.80163068	-1.6042824	-23.00999328
2.24	224	-0.038	-1.021	0.146	-10.7143146	1.6615782	0.1145916	94.69276866	-1.61001198	-22.99280454
2.25	225	-0.043	-1.027	0.145	-12.0894138	2.2345362	0.1145916	94.57244748	-1.61574156	-22.9756158
2.26	226	-0.044	-1.032	0.148	-13.6936962	3.2085648	0.0572958	94.43493756	-1.62147114	-22.94123832
2.27	227	-0.045	-1.038	0.143	-14.7823164	3.6669312	-0.0572958	94.2802389	-1.62147114	-22.90686084
2.28	228	-0.055	-1.047	0.167	-17.3033316	4.8128472	-0.3437748	94.10262192	-1.62720072	-22.8610242
2.29	229	-0.054	-1.055	0.172	-21.8869956	6.3598338	-0.6302538	93.8791683	-1.62720072	-22.8037284
2.3	230	-0.041	-1.061	0.138	-26.2414764	7.448454	-0.5156622	93.60987804	-1.6329303	-22.72924386
2.31	231	-0.032	-1.061	0.088	-28.7624916	6.9327918	-0.286479	93.31766946	-1.6329303	-22.66621848
2.32	232	-0.031	-1.055	0.07	-27.0436176	5.3285094	0	93.03692004	-1.63865988	-22.61465226
2.33	233	-0.034	-1.054	0.095	-24.9809688	4.3544808	0.0572958	92.78481852	-1.65011904	-22.5745452
2.34	234	-0.039	-1.05	0.104	-26.9863218	4.6409598	0	92.50979868	-1.65584862	-22.53443814
2.35	235	-0.042	-1.04	0.105	-29.4500412	5.2139178	0.0572958	92.21186052	-1.6615782	-22.48287192
2.36	236	-0.039	-1.033	0.094	-31.1689152	5.9587632	0.1145916	91.89100404	-1.66730778	-22.4313057
2.37	237	-0.04	-1.035	0.078	-32.7159018	6.2452422	0.4010706	91.5586884	-1.67876694	-22.3740099
2.38	238	-0.042	-1.033	0.076	-33.6326346	6.7609044	0.572958	91.20918402	-1.6902261	-22.31098452
2.39	239	-0.037	-1.029	0.07	-34.7785506	7.2192708	0.7448454	90.85395006	-1.70168526	-22.24222956
2.4	240	-0.037	-1.025	0.045	-36.3255372	6.7036086	0.9167328	90.48152736	-1.718874	-22.17920418
2.41	241	-0.035	-1.029	0.033	-35.5806918	5.6722842	1.145916	90.12056382	-1.73606274	-22.12763796
2.42	242	-0.033	-1.033	0.041	-33.9764094	3.4950438	1.2605076	89.77105944	-1.75325148	-22.09326048
2.43	243	-0.039	-1.03	0.037	-36.096354	2.2345362	1.2605076	89.40436632	-1.76471064	-22.07607174
2.44	244	-0.041	-1.023	0.025	-37.8725238	2.0626488	1.0313244	89.02048446	-1.78189938	-22.058883
2.45	245	-0.039	-1.017	0.016	-37.815228	1.8334656	0.6875496	88.6366026	-1.79335854	-22.04742384
2.46	246	-0.037	-1.009	0.014	-37.5860448	1.9480572	0.2291832	88.25272074	-1.79908812	-22.0302351
2.47	247	-0.037	-1.007	0.011	-37.1849742	1.6042824	-0.2291832	87.87456846	-1.79908812	-22.01877594
2.48	248	-0.033	-1.007	0.02	-36.7839036	0.859437	-0.6302538	87.50214576	-1.79335854	-22.01304636
2.49	249	-0.039	-1.013	0.005	-38.4454818	0	-0.8021412	87.11253432	-1.78762896	-22.01877594
2.5	250	-0.036	-1.015	-0.007	-39.8778768	-0.4010706	-1.2032118	86.71146372	-1.78189938	-22.0302351
2.51	251	-0.041	-1.021	-0.004	-39.0757356	-0.9740286	-1.6615782	86.3161227	-1.77044022	-22.04169426
2.52	252	-0.042	-1.028	-0.009	-39.9351726	-1.3750992	-2.0626488	85.90932252	-1.75325148	-22.06461258
2.53	253	-0.044	-1.027	-0.016	-40.966497	-1.2032118	-2.291832	85.49106318	-1.73033316	-22.08180132
2.54	254	-0.042	-1.028	-0.016	-41.7113424	-1.0886202	-2.4064236	85.07280384	-1.71314442	-22.09899006
2.55	255	-0.036	-1.029	-0.023	-41.7113424	-1.7761698	-2.6356068	84.6545445	-1.6902261	-22.12190838
2.56	256	-0.033	-1.027	-0.017	-41.4248634	-1.7761698	-2.3491278	84.23055558	-1.67303736	-22.15055628
2.57	257	-0.037	-1.03	-0.034	-44.0031744	-1.8334656	-2.005353	83.78364834	-1.65584862	-22.1734746
2.58	258	-0.04	-1.028	-0.046	-45.8939358	-2.1199446	-1.6615782	83.31955236	-1.64438946	-22.2021225
2.59	259	-0.046	-1.031	-0.05	-46.696077	-1.7761698	-2.1199446	82.8497268	-1.6329303	-22.22504082
2.6	260	-0.047	-1.033	-0.062	-48.70143	-1.3178034	-2.6356068	82.35698292	-1.61001198	-22.24795914
2.61	261	-0.044	-1.026	-0.069	-50.133825	-0.9740286	-3.0939732	81.8470503	-1.58709366	-22.26514788
2.62	262	-0.045	-1.029	-0.081	-50.4775998	-0.859437	-3.7815228	81.33711768	-1.55271618	-22.2880662
2.63	263	-0.045	-1.033	-0.09	-50.8786704	-0.6302538	-4.2398892	80.82145548	-1.5183387	-22.30525494
2.64	264	-0.046	-1.026	-0.082	-51.3943326	-0.6302538	-4.2398892	80.3000637	-1.48396122	-22.32244368
2.65	265	-0.054	-1.03	-0.105	-53.285094	-0.8021412	-4.2398892	79.76148318	-1.44958374	-22.345362
2.66	266	-0.051	-1.026	-0.121	-55.1758554	-0.7448454	-4.4117766	79.19998434	-1.41520626	-22.36255074
2.67	267	-0.051	-1.016	-0.112	-55.0612638	-0.8021412	-4.6982556	78.64421508	-1.3750992	-22.38546906
2.68	268	-0.048	-1.015	-0.119	-56.2644756	-0.572958	-5.2139178	78.07125708	-1.32926256	-22.40838738
2.69	269	-0.045	-1.015	-0.136	-57.582279	-0.0572958	-5.3858052	77.48683992	-1.28342592	-22.42557612
2.7	270	-0.038	-1.007	-0.147	-58.3271244	0.2291832	-5.2712136	76.90242276	-1.23758928	-22.44276486
2.71	271	-0.035	-1.004	-0.162	-59.6449278	0.1718874	-5.0420304	76.29508728	-1.19748222	-22.45422402
2.72	272	-0.04	-1.002	-0.174	-60.3897732	-0.4010706	-5.2712136	75.68202222	-1.15164558	-22.47714234
2.73	273	-0.047	-1.004	-0.19	-61.9367598	-0.8021412	-5.72958	75.05176842	-1.10580894	-22.50579024
2.74	274	-0.047	-1.003	-0.204	-62.452422	-0.4010706	-6.2452422	74.42151462	-1.05424272	-22.53443814
2.75	275	-0.055	-1.001	-0.21	-62.0513514	0.2291832	-6.4744254	73.79126082	-0.99694692	-22.55162688
2.76	276	-0.043	-1.004	-0.213	-63.6556338	0.8021412	-6.8182002	73.14954786	-0.93965112	-22.56881562
2.77	277	-0.033	-0.996	-0.224	-65.6609868	1.0313244	-6.5317212	72.479187	-0.87662574	-22.58600436
2.78	278	-0.033	-0.981	-0.214	-66.0620574	0.4583664	-6.1306506	71.80882614	-0.82505952	-22.6031931
2.79	279	-0.026	-0.979	-0.194	-64.4004792	0.3437748	-5.9587632	71.15565402	-0.77922288	-22.62611142
2.8	280	-0.021	-0.986	-0.21	-67.7236356	0	-5.9014674	70.473834	-0.72765666	-22.64902974
2.81	281	-0.017	-0.983	-0.26	-73.4532156	-0.6875496	-5.6149884	69.7289886	-0.6875496	-22.68340722
2.82	282	-0.018	-0.988	-0.274	-72.7083702	-0.9167328	-5.8441716	68.98987278	-0.64171296	-22.7177847
2.83	283	-0.019	-0.986	-0.27	-72.479187	-1.4896908	-6.302538	68.25648654	-0.6016059	-22.75789176
2.84	284	-0.025	-0.963	-0.282	-75.343977	-1.5469866	-6.7609044	67.48872282	-0.55003968	-22.8037284
2.85	285	-0.029	-0.953	-0.31	-75.9742308	-2.1772404	-7.5630456	66.7209591	-0.49847346	-22.8610242
2.86	286	-0.028	-0.948	-0.329	-75.630456	-2.6356068	-8.307891	65.95319538	-0.44117766	-22.92404958
2.87	287	-0.015	-0.929	-0.346	-77.2920342	-3.0366774	-8.7089616	65.1739725	-0.38388186	-22.99280454
2.88	288	-0.013	-0.918	-0.368	-77.1774426	-3.8388186	-8.6516658	64.38902004	-0.33231564	-23.06728908
2.89	289	-0.005	-0.91	-0.384	-75.7450476	-4.870143	-8.5370742	63.62125632	-0.28074942	-23.15323278
2.9	290	0.01	-0.901	-0.389	-74.3126526	-5.7868758	-8.6516658	62.87068134	-0.24064236	-23.25063564
2.91	291	-0.003	-0.901	-0.384	-73.1094408	-6.6463128	-8.4224826	62.12583594	-0.2005353	-23.35376808
2.92	292	0	-0.915	-0.394	-74.7137232	-7.161975	-8.59437	61.36953138	-0.16615782	-23.4626301
2.93	293	0.008	-0.902	-0.413	-77.4066258	-7.7922288	-9.6829902	60.58457892	-0.13178034	-23.58295128
2.94	294	0.02	-0.89	-0.433	-79.7557536	-8.7662574	-10.9434978	59.77670814	-0.0859437	-23.71473162
2.95	295	0.033	-0.899	-0.439	-78.0941754	-10.599723	-11.3445684	58.9860261	-0.04583664	-23.86943028
2.96	296	0.039	-0.917	-0.413	-76.6617804	-12.032118	-10.9434978	58.2125328	-0.02291832	-24.0355881
2.97	297	0.056	-0.893	-0.392	-79.927641	-13.1207382	-10.8289062	57.40466202	-0.01145916	-24.2074755
2.98	298	0.054	-0.876	-0.445	-86.1728832	-14.0947668	-10.6570188	56.52803628	-0.00572958	-24.39082206
2.99	299	0.045	-0.866	-0.481	-85.1415588	-14.4385416	-10.4278356	55.66859928	-0.00572958	-24.57416862
3	300	0.042	-0.886	-0.5	-81.0162612	-14.4958374	-7.3911582	54.84926934	-0.03437748	-24.74032644
3.01	301	0.008	-0.873	-0.487	-81.0162612	-14.9542038	-5.72958	54.0299394	-0.08021412	-24.8950251
3.02	302	-0.026	-0.865	-0.488	-84.797784	-15.6990492	-5.72958	53.1705024	-0.13178034	-25.06118292
3.03	303	-0.054	-0.845	-0.548	-90.4127724	-14.6677248	-6.9900876	52.2537696	-0.17761698	-25.22734074
3.04	304	-0.062	-0.839	-0.595	-90.4127724	-14.2666542	-6.589017	51.3370368	-0.21772404	-25.3820394
3.05	305	-0.059	-0.825	-0.634	-88.1782362	-12.9488508	-5.9014674	50.4489519	-0.26356068	-25.5252789
3.06	306	-0.039	-0.819	-0.66	-86.803137	-11.9748222	-5.3858052	49.56659658	-0.30939732	-25.65705924
3.07	307	-0.011	-0.823	-0.634	-80.787078	-13.0634424	-3.2085648	48.74726664	-0.37815228	-25.78311
3.08	308	0.012	-0.844	-0.629	-78.208767	-14.0947668	-2.005353	47.9565846	-0.46409598	-25.90343118
3.09	309	0.027	-0.846	-0.673	-82.219473	-13.5218088	0.3437748	47.1257955	-0.56722842	-26.00656362
3.1	310	0.028	-0.843	-0.706	-83.07891	-13.2926256	1.6615782	46.28927682	-0.67609044	-26.09250732
3.11	311	0.012	-0.86	-0.758	-78.3233586	-12.9488508	3.0366774	45.4928652	-0.79641162	-26.16699186
3.12	312	-0.024	-0.86	-0.788	-75.343977	-12.032118	4.1252976	44.73083106	-0.9167328	-26.23001724
3.13	313	-0.067	-0.839	-0.811	-74.6564274	-10.9434978	5.0420304	43.9745265	-1.03705398	-26.2701243
3.14	314	-0.087	-0.81	-0.858	-72.479187	-8.1360036	5.9014674	43.24114026	-1.145916	-26.28731304
3.15	315	-0.088	-0.787	-0.883	-67.1506776	-6.0733548	6.1306506	42.55932024	-1.24331886	-26.28731304
3.16	316	-0.089	-0.766	-0.88	-60.1032942	-3.8388186	5.443101	41.95198476	-1.3178034	-26.27585388
3.17	317	-0.085	-0.749	-0.877	-55.4050386	-3.151269	4.2398892	41.39048592	-1.3750992	-26.26439472
3.18	318	-0.076	-0.752	-0.892	-52.3683612	-2.291832	2.6929026	40.85763498	-1.41520626	-26.25866514
3.19	319	-0.065	-0.757	-0.941	-48.5868384	-0.9740286	2.0626488	40.3648911	-1.44385416	-26.25293556
3.2	320	-0.048	-0.768	-0.953	-43.0291458	-0.8021412	2.3491278	39.92371344	-1.47250206	-26.2414764
3.21	321	-0.028	-0.766	-0.906	-36.7839036	-1.6042824	3.6669312	39.55129074	-1.51260912	-26.22428766
3.22	322	-0.018	-0.757	-0.9	-36.0390582	-2.4637194	5.2139178	39.18459762	-1.56990492	-26.20136934
3.23	323	-0.014	-0.721	-0.907	-35.4661002	-3.3804522	6.2452422	38.82363408	-1.63865988	-26.17272144
3.24	324	-0.014	-0.69	-0.899	-31.1116194	-3.3804522	7.1046792	38.50850718	-1.71314442	-26.13834396
3.25	325	-0.023	-0.687	-0.885	-26.2414764	-2.9793816	7.9068204	38.23921692	-1.78762896	-26.0982369
3.26	326	-0.038	-0.684	-0.865	-23.204799	-1.4896908	8.3651868	37.99857456	-1.85638392	-26.0409411
3.27	327	-0.059	-0.679	-0.889	-22.5172494	0.4583664	8.4797784	37.76939136	-1.90795014	-25.97218614
3.28	328	-0.072	-0.674	-0.913	-19.1367972	2.0626488	8.4224826	37.57458564	-1.9480572	-25.89197202
3.29	329	-0.074	-0.681	-0.889	-13.4072172	2.5210152	8.4224826	37.43134614	-1.9767051	-25.8117579
3.3	330	-0.069	-0.703	-0.874	-10.9434978	3.2085648	8.5370742	37.31675454	-2.01108258	-25.7258142
3.31	331	-0.057	-0.707	-0.89	-11.0007936	4.297185	8.4797784	37.20216294	-2.02827132	-25.62841134
3.32	332	-0.047	-0.704	-0.895	-9.6256944	4.5263682	8.4797784	37.10476008	-2.04546006	-25.53673806
3.33	333	-0.038	-0.694	-0.867	-6.5317212	4.6982556	8.1932994	37.03027554	-2.0626488	-25.4393352
3.34	334	-0.033	-0.684	-0.851	-5.2712136	4.6982556	8.307891	36.97297974	-2.07410796	-25.34193234
3.35	335	-0.038	-0.672	-0.863	-6.302538	4.4117766	8.6516658	36.90422478	-2.0912967	-25.25025906
3.36	336	-0.044	-0.661	-0.862	-3.0366774	4.2398892	8.3651868	36.8698473	-2.10848544	-25.1528562
3.37	337	-0.049	-0.655	-0.854	-0.8021412	4.8128472	8.021412	36.85838814	-2.1199446	-25.06118292
3.38	338	-0.058	-0.644	-0.844	0.7448454	5.72958	7.9068204	36.85838814	-2.12567418	-24.96378006
3.39	339	-0.054	-0.633	-0.828	3.437748	6.4744254	8.021412	36.89276562	-2.1199446	-24.86064762
3.4	340	-0.055	-0.638	-0.833	6.016059	6.5317212	8.307891	36.94433184	-2.12567418	-24.7517856
3.41	341	-0.047	-0.633	-0.816	8.7662574	5.7868758	8.880849	37.03027554	-2.13140376	-24.64865316
3.42	342	-0.041	-0.634	-0.786	11.5737516	5.6149884	9.2819196	37.14486714	-2.14286292	-24.53979114
3.43	343	-0.036	-0.641	-0.769	13.178034	5.9014674	9.6256944	37.2709179	-2.15432208	-24.42519954
3.44	344	-0.038	-0.645	-0.756	14.6677248	5.5576926	10.026765	37.4141574	-2.16578124	-24.31060794
3.45	345	-0.041	-0.64	-0.729	16.1001198	5.2712136	10.313244	37.58031522	-2.18869956	-24.19601634
3.46	346	-0.038	-0.622	-0.724	17.3606274	5.0420304	10.4851314	37.75220262	-2.21161788	-24.08142474
3.47	347	-0.037	-0.612	-0.711	18.907614	4.9847346	10.0840608	37.93554918	-2.2345362	-23.97256272
3.48	348	-0.04	-0.598	-0.683	20.912967	4.6409598	9.6829902	38.14754364	-2.25172494	-23.8637007
3.49	349	-0.037	-0.584	-0.676	21.3140376	4.870143	9.1100322	38.3595381	-2.26891368	-23.76629784
3.5	350	-0.043	-0.579	-0.668	22.9756158	5.2712136	8.1932994	38.5887213	-2.28037284	-23.66889498
3.51	351	-0.038	-0.58	-0.66	24.4080108	5.2712136	7.734933	38.83509324	-2.28610242	-23.57149212
3.52	352	-0.045	-0.588	-0.638	26.5279554	5.2139178	7.9641162	39.09865392	-2.291832	-23.47408926
3.53	353	-0.049	-0.611	-0.638	27.6738714	5.5576926	8.1932994	39.37367376	-2.29756158	-23.3766864
3.54	354	-0.052	-0.63	-0.64	27.6738714	5.2139178	8.4797784	39.6486936	-2.30902074	-23.27928354
3.55	355	-0.054	-0.64	-0.634	28.0176462	5.3858052	8.307891	39.9351726	-2.3204799	-23.1761511
3.56	356	-0.048	-0.645	-0.634	28.7051958	5.156622	8.307891	40.2216516	-2.33193906	-23.07874824
3.57	357	-0.045	-0.641	-0.627	30.0229992	5.3285094	9.167328	40.52531934	-2.34339822	-22.9756158
3.58	358	-0.042	-0.641	-0.617	31.1116194	6.0733548	9.2246238	40.83471666	-2.35485738	-22.86675378
3.59	359	-0.042	-0.637	-0.592	31.5699858	6.4744254	8.59437	41.14984356	-2.36058696	-22.75789176
3.6	360	-0.049	-0.642	-0.618	30.366774	7.3911582	8.4797784	41.45924088	-2.36058696	-22.64330016
3.61	361	-0.045	-0.646	-0.616	30.1948866	7.7922288	8.3651868	41.75717904	-2.35485738	-22.52870856
3.62	362	-0.037	-0.654	-0.617	30.5386614	7.448454	7.8495246	42.06084678	-2.3491278	-22.41411696
3.63	363	-0.025	-0.653	-0.618	29.9657034	7.6776372	7.5630456	42.36451452	-2.34339822	-22.30525494
3.64	364	-0.022	-0.65	-0.597	31.3980984	7.448454	7.2192708	42.67391184	-2.33193906	-22.2021225
3.65	365	-0.024	-0.656	-0.605	31.4553942	8.0787078	7.2192708	42.99476832	-2.3204799	-22.09326048
3.66	366	-0.041	-0.664	-0.583	32.0283522	8.59437	7.1046792	43.3156248	-2.30329116	-21.97866888
3.67	367	-0.043	-0.67	-0.595	31.6845774	8.307891	6.6463128	43.6307517	-2.28610242	-21.87553644
3.68	368	-0.047	-0.666	-0.591	31.799169	7.7922288	6.1879464	43.9458786	-2.26891368	-21.772404
3.69	369	-0.045	-0.661	-0.586	31.9137606	6.875496	5.9014674	44.26673508	-2.25745452	-21.68073072
3.7	370	-0.035	-0.648	-0.58	32.372127	5.6722842	5.8441716	44.59332114	-2.25745452	-21.6005166
3.71	371	-0.026	-0.647	-0.572	33.4607472	4.9847346	5.3858052	44.93136636	-2.25745452	-21.52603206
3.72	372	-0.013	-0.647	-0.556	34.091001	4.6982556	4.6409598	45.27514116	-2.25172494	-21.4572771
3.73	373	-0.003	-0.65	-0.548	34.37748	4.297185	3.8961144	45.61891596	-2.24599536	-21.3999813
3.74	374	-0.005	-0.653	-0.543	34.8358464	4.010706	3.437748	45.97414992	-2.24026578	-21.3426855
3.75	375	-0.018	-0.654	-0.524	35.1796212	4.6409598	3.3231564	46.33511346	-2.22880662	-21.2853897
3.76	376	-0.031	-0.655	-0.528	35.0077338	6.016059	2.86479	46.68461784	-2.20015872	-21.22236432
3.77	377	-0.045	-0.648	-0.531	35.1223254	7.2765666	2.578311	47.0398518	-2.16578124	-21.14787978
3.78	378	-0.045	-0.644	-0.508	36.382833	7.6203414	2.1772404	47.40081534	-2.13140376	-21.07339524
3.79	379	-0.06	-0.642	-0.54	35.236917	8.7662574	2.0626488	47.7560493	-2.08556712	-20.99318112
3.8	380	-0.063	-0.639	-0.527	36.2682414	9.167328	1.8334656	48.12274242	-2.0340009	-20.912967
3.81	381	-0.055	-0.651	-0.516	35.809875	9.0527364	1.9480572	48.48370596	-1.98816426	-20.8270233
3.82	382	-0.052	-0.649	-0.54	34.3201842	9.3392154	2.4637194	48.82748076	-1.94232762	-20.7410796
3.83	383	-0.047	-0.653	-0.538	34.5493674	9.2819196	3.2658606	49.17125556	-1.90222056	-20.64367674
3.84	384	-0.038	-0.667	-0.543	34.091001	8.59437	4.0680018	49.51503036	-1.87930224	-20.55200346
3.85	385	-0.034	-0.677	-0.559	33.6899304	8.021412	4.870143	49.85307558	-1.8621135	-20.4546006
3.86	386	-0.028	-0.689	-0.543	33.9764094	6.9900876	5.443101	50.1911208	-1.85638392	-20.3686569
3.87	387	-0.015	-0.695	-0.55	32.1429438	5.443101	5.5003968	50.51770686	-1.85638392	-20.28844278
3.88	388	-0.007	-0.691	-0.548	30.653253	4.5263682	5.443101	50.82710418	-1.86784308	-20.21968782
3.89	389	0.001	-0.691	-0.52	30.366774	3.3804522	4.6982556	51.13077192	-1.87930224	-20.16239202
3.9	390	0.012	-0.695	-0.516	28.934379	2.7501984	3.6096354	51.4229805	-1.88503182	-20.11655538
3.91	391	0.011	-0.705	-0.51	28.074942	2.9793816	2.6929026	51.7094595	-1.88503182	-20.07071874
3.92	392	0.007	-0.722	-0.492	27.6165756	2.86479	1.7761698	51.99020892	-1.87357266	-20.03634126
3.93	393	0	-0.738	-0.489	27.215505	3.151269	1.3750992	52.26522876	-1.8621135	-20.00196378
3.94	394	-0.014	-0.758	-0.47	26.9863218	3.9534102	1.2032118	52.53451902	-1.85065434	-19.96185672
3.95	395	-0.025	-0.774	-0.461	25.6685184	4.5263682	0.8021412	52.80380928	-1.82200644	-19.92174966
3.96	396	-0.036	-0.782	-0.459	24.2934192	5.0420304	0.6302538	53.05018122	-1.79908812	-19.87591302
3.97	397	-0.037	-0.796	-0.444	23.0902074	5.0420304	0.7448454	53.285094	-1.77044022	-19.83007638
3.98	398	-0.043	-0.799	-0.454	20.4546006	5.6722842	1.145916	53.4856293	-1.7475219	-19.77278058
3.99	399	-0.048	-0.796	-0.452	18.6784308	6.0733548	1.6615782	53.67470544	-1.72460358	-19.71548478
4	400	-0.057	-0.792	-0.444	16.6730778	6.8182002	2.291832	53.858052	-1.70741484	-19.64100024
4.01	401	-0.063	-0.792	-0.457	14.4385416	6.3598338	2.7501984	54.0012915	-1.6902261	-19.57224528
4.02	402	-0.059	-0.799	-0.454	12.7769634	5.5576926	3.151269	54.12734226	-1.68449652	-19.5092199
4.03	403	-0.061	-0.811	-0.446	11.4018642	4.1252976	2.6929026	54.24193386	-1.67876694	-19.45765368
4.04	404	-0.056	-0.821	-0.447	9.5111028	3.3231564	2.1199446	54.33933672	-1.67876694	-19.41754662
4.05	405	-0.055	-0.824	-0.452	8.880849	3.151269	1.432395	54.4596579	-1.67876694	-19.38316914
4.06	406	-0.048	-0.829	-0.426	8.4797784	3.151269	0.4010706	54.53987202	-1.6615782	-19.35452124
4.07	407	-0.036	-0.824	-0.414	6.302538	3.0366774	-0.572958	54.6028974	-1.63865988	-19.33160292
4.08	408	-0.028	-0.822	-0.407	3.724227	3.0939732	-1.0886202	54.64300446	-1.61574156	-19.31441418
4.09	409	-0.028	-0.82	-0.408	1.4896908	3.437748	-1.0313244	54.65446362	-1.58709366	-19.29149586
4.1	410	-0.033	-0.826	-0.393	-0.4583664	4.2398892	-0.8021412	54.717489	-1.56417534	-19.26284796
4.11	411	-0.045	-0.819	-0.385	-2.5210152	4.583664	-0.5156622	54.6888411	-1.53552744	-19.22847048
4.12	412	-0.054	-0.814	-0.387	-3.6669312	5.156622	-0.4583664	54.64873404	-1.50114996	-19.18836342
4.13	413	-0.069	-0.808	-0.373	-4.5263682	5.7868758	-0.6875496	54.6028974	-1.4610429	-19.14252678
4.14	414	-0.072	-0.802	-0.375	-5.7868758	6.1879464	-1.2032118	54.53987202	-1.42093584	-19.10241972
4.15	415	-0.07	-0.796	-0.363	-6.4744254	7.2192708	-1.9480572	54.50549454	-1.3750992	-19.0508535
4.16	416	-0.061	-0.788	-0.342	-7.9641162	8.0787078	-2.4637194	54.42528042	-1.31207382	-18.99928728
4.17	417	-0.051	-0.78	-0.339	-9.8548776	8.9954406	-2.5210152	54.32214798	-1.24331886	-18.94199148
4.18	418	-0.043	-0.782	-0.337	-11.4018642	10.313244	-1.9480572	54.2018268	-1.16883432	-18.86750694
4.19	419	-0.037	-0.777	-0.325	-12.2613012	10.6570188	-1.2605076	54.07577604	-1.10007936	-18.78729282
4.2	420	-0.033	-0.769	-0.303	-13.3499214	10.886202	-0.6875496	53.96118444	-1.04278356	-18.7070787
4.21	421	-0.036	-0.762	-0.309	-15.756345	10.7143146	-0.4010706	53.8007562	-0.97975818	-18.621135
4.22	422	-0.034	-0.755	-0.317	-16.5584862	11.45916	-0.1145916	53.6288688	-0.9167328	-18.52946172
4.23	423	-0.033	-0.75	-0.289	-15.6990492	11.9748222	-0.4010706	53.46271098	-0.84797784	-18.43778844
4.24	424	-0.034	-0.74	-0.275	-17.1314442	12.0894138	-1.0313244	53.285094	-0.7734933	-18.34611516
4.25	425	-0.04	-0.72	-0.27	-18.048177	12.4904844	-1.145916	53.12466576	-0.69327918	-18.2487123
4.26	426	-0.046	-0.711	-0.256	-17.475219	13.3499214	-1.3178034	52.9413192	-0.61306506	-18.15130944
4.27	427	-0.047	-0.701	-0.239	-16.615782	13.5791046	-1.6042824	52.7694318	-0.52139178	-18.05390658
4.28	428	-0.046	-0.702	-0.213	-16.7303736	13.4072172	-2.005353	52.5975444	-0.4297185	-17.95650372
4.29	429	-0.052	-0.707	-0.218	-18.2200644	13.2353298	-2.0626488	52.40846826	-0.33804522	-17.86483044
4.3	430	-0.053	-0.709	-0.229	-18.1054728	13.2353298	-1.8907614	52.24804002	-0.2578311	-17.77315716
4.31	431	-0.052	-0.71	-0.219	-16.615782	13.0061466	-1.7761698	52.07615262	-0.16615782	-17.68148388
4.32	432	-0.046	-0.697	-0.204	-15.5844576	13.2353298	-1.718874	51.91572438	-0.08021412	-17.58408102
4.33	433	-0.037	-0.688	-0.203	-15.4125702	12.9488508	-1.5469866	51.75529614	0.00572958	-17.49240774
4.34	434	-0.028	-0.676	-0.204	-14.4958374	12.2613012	-1.718874	51.60632706	0.0859437	-17.40646404
4.35	435	-0.021	-0.673	-0.203	-12.2040054	12.2040054	-2.1199446	51.5089242	0.1718874	-17.32052034
4.36	436	-0.021	-0.66	-0.191	-9.3965112	12.3758928	-2.7501984	51.41152134	0.26929026	-17.24030622
4.37	437	-0.029	-0.649	-0.177	-7.0473834	12.9488508	-3.2085648	51.3370368	0.36669312	-17.1600921
4.38	438	-0.032	-0.639	-0.164	-5.6149884	13.750992	-3.4950438	51.279741	0.47555514	-17.0741484
4.39	439	-0.03	-0.636	-0.145	-4.870143	14.4958374	-3.4950438	51.22817478	0.59014674	-16.98247512
4.4	440	-0.025	-0.633	-0.13	-4.3544808	14.896908	-3.3804522	51.20525646	0.70473834	-16.88507226
4.41	441	-0.022	-0.638	-0.111	-4.2398892	14.4385416	-3.0366774	51.15941982	0.81360036	-16.7876694
4.42	442	-0.013	-0.643	-0.091	-5.2139178	13.2353298	-2.3491278	51.1078536	0.91100322	-16.7017257
4.43	443	-0.008	-0.656	-0.088	-8.021412	12.2040054	-2.005353	51.02763948	0.99694692	-16.615782
4.44	444	0.002	-0.662	-0.101	-11.2872726	11.6310474	-2.0626488	50.91304788	1.08289062	-16.54129746
4.45	445	0.011	-0.66	-0.114	-13.6936962	11.3445684	-2.291832	50.79845628	1.16883432	-16.46108334
4.46	446	0.019	-0.648	-0.116	-15.3552744	11.6310474	-1.8907614	50.64375762	1.24904844	-16.3865988
4.47	447	0.019	-0.639	-0.115	-18.1627686	12.6623718	-1.0886202	50.46041106	1.33499214	-16.29492552
4.48	448	0.025	-0.636	-0.121	-21.4286292	15.2979786	-0.1718874	50.24268702	1.42666542	-16.17460434
4.49	449	0.062	-0.647	-0.093	-27.0436176	20.2827132	0.7448454	49.96766718	1.54125702	-16.0141761
4.5	450	0.084	-0.66	-0.11	-38.674665	24.637194	2.1199446	49.59524448	1.67876694	-15.8136408
4.51	451	0.093	-0.66	-0.184	-48.4722468	21.3713334	3.8388186	49.10823018	1.7761698	-15.62456466
4.52	452	0.097	-0.651	-0.234	-57.1239126	11.6883432	6.2452422	48.5295426	1.79335854	-15.4985139
4.53	453	0.098	-0.69	-0.299	-71.5051584	-1.2605076	9.0527364	47.80761552	1.70741484	-15.44694768
4.54	454	0.102	-0.796	-0.468	-91.9024632	-18.334656	11.9748222	46.87369398	1.4896908	-15.50997306
4.55	455	0.133	-0.946	-0.589	-102.1584114	-37.1276784	14.2666542	45.84236958	1.12872726	-15.68759004
4.56	456	0.129	-1.137	-0.608	-108.4036536	-46.1804148	13.5218088	44.7480198	0.70473834	-15.9282324
4.57	457	0.098	-1.278	-0.583	-122.4411246	-45.8939358	5.5576926	43.51043052	0.33231564	-16.2147114
4.58	458	0.082	-1.282	-0.559	-144.671895	-45.7220484	-4.3544808	42.04365804	0.01718874	-16.56421578
4.59	459	0.048	-1.233	-0.55	-162.0325224	-45.4928652	-11.4018642	40.40499816	-0.25210152	-16.9595568
4.6	460	0.013	-1.154	-0.526	-182.2579398	-41.6540466	-14.896908	38.57726214	-0.49274388	-17.34916824
4.61	461	-0.016	-1.054	-0.51	-196.7537772	-35.0650296	-16.1001198	36.5833683	-0.69327918	-17.69294304
4.62	462	-0.044	-0.965	-0.548	-206.551359	-25.8404058	-15.2406828	34.49780118	-0.83651868	-17.97369246
4.63	463	-0.068	-0.867	-0.594	-208.7858952	-14.6677248	-12.3758928	32.38358616	-0.9167328	-18.15703902
4.64	464	-0.138	-0.926	-0.44	-211.5360936	-4.1825934	-7.9641162	30.23499366	-0.93965112	-18.24298272
4.65	465	-0.116	-1.061	0.023	-241.7309802	-2.2345362	-4.5263682	27.80565174	-0.9740286	-18.29454894
4.66	466	-0.046	-0.934	0.182	-283.5569142	-4.010706	-9.3965112	24.92940258	-1.0026765	-18.3919518
4.67	467	-0.067	-0.619	0.013	-288.1405782	1.432395	-11.172681	22.00731678	-0.98548776	-18.4778955
4.68	468	-0.025	-0.405	0.185	-264.993075	19.3086846	-8.7662574	19.31441418	-0.81360036	-18.4778955
4.69	469	0.01	-0.315	0.484	-273.0717828	29.7365202	-4.2398892	16.53556788	-0.56149884	-18.40914054
4.7	470	0.082	-0.095	0.49	-301.3186122	29.0489706	-3.0366774	13.47597216	-0.3151269	-18.34038558
4.71	471	0.097	0.233	0.244	-302.9801904	20.6837838	-6.0733548	10.3991877	-0.1432395	-18.334656
4.72	472	0.1	0.56	-0.081	-282.0099276	6.8182002	-9.5111028	7.54012728	-0.09740286	-18.39768138
4.73	473	0.24	0.853	-0.238	-268.6027104	-8.6516658	-9.9121734	4.8128472	-0.20626488	-18.48935466
4.74	474	0.327	1.227	-0.403	-270.5507676	-30.0229992	-9.3392154	2.07410796	-0.52712136	-18.58675752
4.75	475	0.223	1.68	-0.633	-259.4353824	-39.6486936	-10.4851314	-0.55576926	-0.9453807	-18.68988996
4.76	476	0.16	2.005	-0.777	-246.2000526	-38.674665	-17.7044022	-3.04813656	-1.36364004	-18.83885904
4.77	477	0.156	1.964	-0.891	-211.135023	-40.0497642	-16.5011904	-5.17954032	-1.79335854	-18.97063938
4.78	478	-0.033	1.764	-0.945	-169.309089	-38.0444112	-6.1879464	-6.89268474	-2.18869956	-18.98782812
4.79	479	-0.3	1.522	-1.282	-129.6030996	-29.7365202	1.0886202	-8.20475856	-2.4923673	-18.93053232
4.8	480	-0.345	1.434	-1.528	-85.1988546	-27.1009134	7.9068204	-9.07565472	-2.75592798	-18.81021114
4.81	481	-0.697	1.477	-2.946	-67.0933818	-28.9916748	12.318597	-9.76320432	-3.03094782	-18.64405332
4.82	482	-1.006	2.51	-3.996	5.7868758	-9.8548776	-9.5111028	-9.69444936	-3.13980984	-18.72426744
4.83	483	-0.541	3.584	-3.996	71.5624542	42.7426668	-5.8441716	-8.97252228	-2.72728008	-18.84458862
4.84	484	-1.042	2.214	-3.996	55.6342218	80.21412	23.8350528	-8.4224826	-1.89649098	-18.71280828
4.85	485	-0.737	1.212	-3.995	55.1185596	118.4304186	29.220858	-7.8781725	-0.6875496	-18.56956878
4.86	486	-0.25	1.245	-3.408	36.3255372	131.6657484	17.0168526	-7.52866812	0.62452422	-18.54092088
4.87	487	0.232	1.34	-2.346	-17.8189938	112.299768	7.1046792	-7.72920342	1.73606274	-18.58675752
4.88	488	0.276	1.214	-1.738	-39.4768062	71.61975	-1.0886202	-8.14173318	2.4350715	-18.66697164
4.89	489	0.283	1.072	-1.281	-59.5303362	59.9314068	-4.5263682	-8.76052782	3.01375908	-18.78156324
4.9	490	0.201	0.866	-1.098	-78.9536124	46.3523022	-0.4010706	-9.58558734	3.46066632	-18.83885904
4.91	491	0.106	0.551	-0.927	-69.7862844	42.7426668	-0.572958	-10.30178484	3.87319608	-18.89615484
4.92	492	0.093	0.176	-0.733	-54.3737142	37.5860448	-6.1879464	-10.86901326	4.22270046	-19.01074644
4.93	493	0.179	0.031	-0.613	-44.3469492	26.6998428	-7.6203414	-11.33310924	4.46334282	-19.12533804
4.94	494	0.204	0.006	-0.54	-28.4760126	18.907614	-4.3544808	-11.6310474	4.63523022	-19.19982258
4.95	495	0.156	0.082	-0.428	-16.5584862	18.621135	-0.286479	-11.8029348	4.81857678	-19.23420006
4.96	496	0.098	0.233	-0.355	-8.1360036	18.6784308	5.3858052	-11.8888785	5.0133825	-19.21128174
4.97	497	0.039	0.392	-0.319	6.0733548	14.037471	11.8602306	-11.82012354	5.17381074	-19.11960846
4.98	498	0.012	0.467	-0.272	15.1260912	10.0840608	14.5531332	-11.65396572	5.30559108	-18.99928728
4.99	499	0.013	0.562	-0.276	16.329303	9.8548776	14.2666542	-11.48207832	5.43164184	-18.8789661
5	500	0.006	0.642	-0.258	22.8037284	10.3705398	11.0007936	-11.29873176	5.55196302	-18.7930224
5.01	501	0.001	0.666	-0.24	29.1062664	9.9694692	8.021412	-11.0007936	5.66655462	-18.7357266
5.02	502	0.02	0.655	-0.273	33.5753388	11.0007936	5.0993262	-10.6570188	5.7868758	-18.7070787
5.03	503	0.054	0.616	-0.359	40.393539	9.3392154	4.1252976	-10.24448904	5.89000824	-18.68416038
5.04	504	0.087	0.554	-0.451	46.409598	4.3544808	4.9274388	-9.7689339	5.94157446	-18.64405332
5.05	505	0.143	0.442	-0.561	46.5814854	-1.145916	6.3598338	-9.31629708	5.9587632	-18.58675752
5.06	506	0.165	0.342	-0.689	41.539455	-5.3285094	7.3338624	-8.88657858	5.91865614	-18.51227298
5.07	507	0.199	0.275	-0.838	33.804522	-6.1306506	7.9641162	-8.5370742	5.8728195	-18.43205886
5.08	508	0.248	0.26	-0.999	24.064236	-7.3911582	7.9068204	-8.2792431	5.8155237	-18.34611516
5.09	509	0.252	0.289	-1.131	13.9801752	-8.0787078	6.4744254	-8.13027402	5.74676874	-18.27163062
5.1	510	0.302	0.314	-1.243	4.4117766	-5.9587632	3.8388186	-8.09016696	5.7009321	-18.23152356
5.11	511	0.323	0.327	-1.335	-0.1145916	-3.8388186	0.1718874	-8.09016696	5.66655462	-18.22579398
5.12	512	0.314	0.315	-1.423	0.4583664	-3.0939732	-3.3231564	-8.09016696	5.63217714	-18.25444188
5.13	513	0.29	0.278	-1.448	3.0366774	-3.0939732	-6.1879464	-8.06151906	5.59207008	-18.31173768
5.14	514	0.256	0.228	-1.42	5.2139178	-2.3491278	-6.3598338	-8.01568242	5.5576926	-18.37476306
5.15	515	0.229	0.182	-1.358	6.016059	-1.9480572	-5.7868758	-7.95838662	5.53477428	-18.42632928
5.16	516	0.206	0.143	-1.267	5.6149884	-1.718874	-4.6409598	-7.9068204	5.51185596	-18.47216592
5.17	517	0.186	0.104	-1.176	3.437748	-1.5469866	-3.4950438	-7.87244292	5.49466722	-18.5065434
5.18	518	0.164	0.067	-1.088	-0.286479	-1.7761698	-2.5210152	-7.8781725	5.4717489	-18.52946172
5.19	519	0.135	0.035	-1.008	-4.5263682	-2.4064236	-1.4896908	-7.92400914	5.44883058	-18.54092088
5.2	520	0.093	0.008	-0.932	-7.2192708	-3.151269	-0.3437748	-7.95265704	5.40872352	-18.5351913
5.21	521	0.058	-0.017	-0.869	-8.1360036	-3.6669312	0.4010706	-8.03287116	5.36861646	-18.52946172
5.22	522	0.036	-0.03	-0.824	-7.7922288	-3.6669312	0.2291832	-8.1073557	5.33423898	-18.51800256
5.23	523	0.028	-0.033	-0.803	-5.7868758	-3.2658606	-0.4010706	-8.17038108	5.2998615	-18.51800256
5.24	524	0.033	-0.03	-0.796	-3.437748	-2.9793816	-0.9167328	-8.20475856	5.2712136	-18.52373214
5.25	525	0.047	-0.02	-0.796	-1.6042824	-2.3491278	-1.3178034	-8.18184024	5.23110654	-18.52946172
5.26	526	0.062	-0.007	-0.81	-0.286479	-1.6042824	-1.2032118	-8.18756982	5.2139178	-18.54092088
5.27	527	0.082	0.011	-0.836	0.6302538	-1.8334656	-1.0313244	-8.18184024	5.19672906	-18.55238004
5.28	528	0.086	0.027	-0.862	2.3491278	-3.3804522	-0.8021412	-8.15892192	5.16235158	-18.55238004
5.29	529	0.093	0.046	-0.886	4.010706	-4.8128472	-0.7448454	-8.11881486	5.11078536	-18.55810962
5.3	530	0.089	0.063	-0.916	5.443101	-5.5576926	-1.145916	-8.03860074	5.05348956	-18.5638392
5.31	531	0.082	0.075	-0.946	6.016059	-5.5576926	-1.8907614	-7.98130494	4.99619376	-18.57529836
5.32	532	0.066	0.085	-0.974	6.0733548	-5.2139178	-2.9793816	-7.91827956	4.94462754	-18.59821668
5.33	533	0.062	0.09	-1.006	5.443101	-4.6409598	-4.2398892	-7.86671334	4.89306132	-18.63832374
5.34	534	0.061	0.091	-1.032	4.6409598	-4.1825934	-5.2712136	-7.8208767	4.84722468	-18.68416038
5.35	535	0.062	0.09	-1.051	3.3804522	-3.9534102	-5.9014674	-7.78076964	4.7841993	-18.7357266
5.36	536	0.064	0.092	-1.063	1.9480572	-3.9534102	-6.0733548	-7.7635809	4.73836266	-18.7930224
5.37	537	0.062	0.1	-1.068	-0.4010706	-4.1825934	-5.5003968	-7.76931048	4.68679644	-18.84458862
5.38	538	0.056	0.117	-1.062	-2.4064236	-4.1825934	-4.6982556	-7.79795838	4.6409598	-18.88469568
5.39	539	0.051	0.136	-1.049	-3.7815228	-4.010706	-3.8388186	-7.83806544	4.59512316	-18.91907316
5.4	540	0.043	0.154	-1.03	-4.1252976	-3.9534102	-3.0939732	-7.9068204	4.5263682	-18.94199148
5.41	541	0.039	0.172	-1.009	-3.9534102	-3.724227	-2.6356068	-7.94692746	4.48626114	-18.9649098
5.42	542	0.034	0.189	-0.988	-3.437748	-3.151269	-2.578311	-7.98130494	4.45188366	-18.98782812
5.43	543	0.032	0.201	-0.965	-2.7501984	-2.4064236	-2.578311	-8.00995284	4.42323576	-19.01074644
5.44	544	0.032	0.208	-0.941	-2.5210152	-1.3178034	-2.8074942	-8.03860074	4.40604702	-19.03939434
5.45	545	0.036	0.217	-0.928	-2.5210152	0.1145916	-2.7501984	-8.17611066	4.3544808	-19.06804224
5.46	546	0.043	0.221	-0.923	-2.2345362	1.2605076	-2.5210152	-8.19902898	4.36593996	-19.09669014
5.47	547	0.051	0.221	-0.924	-1.8907614	1.8907614	-2.1772404	-8.2219473	4.3831287	-19.11960846
5.48	548	0.056	0.216	-0.927	-1.3178034	2.1199446	-1.718874	-8.23913604	4.40031744	-19.1367972
5.49	549	0.062	0.208	-0.936	-0.7448454	2.005353	-1.3178034	-8.24486562	4.41750618	-19.15398594
5.5	550	0.068	0.2	-0.947	-0.1718874	1.718874	-0.9167328	-8.43967134	4.39458786	-19.17690426
5.51	551	0.072	0.192	-0.957	0.2291832	1.3178034	-0.6302538	-8.43394176	4.40604702	-19.18263384
5.52	552	0.074	0.185	-0.969	0.4583664	1.0886202	-0.3437748	-8.43394176	4.41750618	-19.18836342
5.53	553	0.075	0.177	-0.979	0.4583664	0.859437	-0.1718874	-8.42821218	4.42896534	-19.194093
5.54	554	0.074	0.172	-0.988	0.0572958	1.0886202	0.0572958	-8.42821218	4.4404245	-19.194093
5.55	555	0.073	0.167	-0.998	-0.4583664	1.2032118	0.4583664	-8.5084263	4.41750618	-19.194093
5.56	556	0.074	0.16	-1.005	-0.7448454	1.3178034	0.9167328	-8.51988546	4.43469492	-19.18836342
5.57	557	0.075	0.153	-1.008	-1.0886202	1.3750992	1.2605076	-8.53134462	4.44615408	-19.17690426
5.58	558	0.077	0.147	-1.009	-1.0313244	1.3750992	1.6042824	-8.5370742	4.46334282	-19.15971552
5.59	559	0.077	0.142	-1.007	-0.7448454	1.2032118	1.8334656	-8.54280378	4.48053156	-19.14252678
5.6	560	0.079	0.135	-1.002	-0.859437	1.0886202	1.7761698	-8.55426294	4.48053156	-19.12533804
5.61	561	0.082	0.13	-0.992	-1.2032118	0.9167328	1.7761698	-8.5657221	4.49199072	-19.1081493
5.62	562	0.084	0.125	-0.984	-1.3750992	0.6875496	1.6615782	-8.57718126	4.50344988	-19.09096056
5.63	563	0.087	0.122	-0.975	-1.3178034	0.8021412	1.8907614	-8.59437	4.51490904	-19.07377182
5.64	564	0.089	0.119	-0.968	-1.145916	0.9740286	1.9480572	-8.60009958	4.5263682	-19.05658308
5.65	565	0.09	0.119	-0.963	-0.8021412	1.2605076	1.9480572	-8.60009958	4.54928652	-19.03939434
5.66	566	0.09	0.121	-0.959	-0.4010706	1.4896908	1.8334656	-8.60009958	4.56647526	-19.0222056
5.67	567	0.09	0.124	-0.954	-0.4010706	1.4896908	1.5469866	-8.60582916	4.583664	-19.01074644
5.68	568	0.09	0.127	-0.952	-0.8021412	1.4896908	1.2032118	-8.61155874	4.59512316	-18.99928728
5.69	569	0.091	0.133	-0.954	-0.9740286	1.2032118	0.7448454	-8.6230179	4.6123119	-18.9935577
5.7	570	0.09	0.138	-0.958	-0.859437	1.0886202	0.2291832	-8.67458412	4.62950064	-18.9935577
5.71	571	0.09	0.142	-0.963	-0.5156622	1.0313244	0	-8.6803137	4.63523022	-18.9935577
5.72	572	0.09	0.146	-0.967	-0.5156622	1.145916	-0.4583664	-8.68604328	4.64668938	-18.99928728
5.73	573	0.092	0.151	-0.973	-0.572958	1.2605076	-0.8021412	-8.69177286	4.65814854	-19.01074644
5.74	574	0.096	0.155	-0.98	-0.859437	1.0313244	-1.0313244	-8.70323202	4.6696077	-19.0222056
5.75	575	0.101	0.16	-0.985	-1.0886202	0.4583664	-1.2605076	-8.77771656	4.6982556	-19.04512392
5.76	576	0.106	0.164	-0.99	-1.0313244	0.1145916	-1.145916	-8.78917572	4.6982556	-19.05658308
5.77	577	0.109	0.168	-0.99	-0.9740286	-0.4583664	-1.2605076	-8.80063488	4.68679644	-19.06804224
5.78	578	0.107	0.167	-0.989	-0.859437	-1.0313244	-1.145916	-8.81209404	4.67533728	-19.07377182
5.79	579	0.102	0.166	-0.987	-0.8021412	-1.2605076	-1.145916	-8.81782362	4.66387812	-19.08523098
5.8	580	0.098	0.165	-0.984	-0.8021412	-1.3178034	-1.0886202	-8.88657858	4.65814854	-19.10241972
5.81	581	0.095	0.164	-0.98	-0.859437	-1.145916	-1.0886202	-8.89803774	4.64668938	-19.1081493
5.82	582	0.091	0.166	-0.98	-0.6302538	-0.8021412	-1.145916	-8.90376732	4.63523022	-19.11960846
5.83	583	0.089	0.167	-0.977	-0.3437748	-0.6875496	-1.3178034	-8.9094969	4.62950064	-19.13106762
5.84	584	0.09	0.167	-0.968	-0.3437748	-0.4010706	-1.3750992	-8.91522648	4.62377106	-19.14825636
5.85	585	0.091	0.168	-0.968	-0.6302538	-0.2291832	-1.3750992	-9.02981808	4.62950064	-19.17117468
5.86	586	0.093	0.165	-0.971	-0.3437748	-0.0572958	-1.2032118	-9.03554766	4.62950064	-19.18263384
5.87	587	0.094	0.158	-0.963	-0.4010706	-0.1718874	-0.9740286	-9.04127724	4.62377106	-19.18836342
5.88	588	0.092	0.152	-0.96	-1.0886202	-0.7448454	-0.7448454	-9.0527364	4.6123119	-19.19982258
5.89	589	0.089	0.148	-0.962	-1.6042824	-1.145916	-0.5156622	-9.06992514	4.60085274	-19.19982258
5.9	590	0.084	0.15	-0.967	-1.6615782	-1.5469866	-0.4010706	-9.10430262	4.57220484	-19.20555216
5.91	591	0.076	0.149	-0.973	-1.6042824	-1.6615782	-0.4583664	-9.12149136	4.5550161	-19.20555216
5.92	592	0.07	0.152	-0.98	-1.432395	-1.6042824	-0.572958	-9.1386801	4.53782736	-19.21128174
5.93	593	0.066	0.156	-0.986	-0.8021412	-1.4896908	-0.6875496	-9.14440968	4.52063862	-19.21701132
5.94	594	0.066	0.157	-0.988	-0.2291832	-1.0886202	-0.8021412	-9.15013926	4.50917946	-19.2227409
5.95	595	0.067	0.157	-0.989	0	-0.9167328	-0.859437	-9.20743506	4.43469492	-19.22847048
5.96	596	0.07	0.158	-0.988	0	-0.7448454	-0.8021412	-9.20743506	4.42896534	-19.23420006
5.97	597	0.073	0.16	-0.99	-0.1718874	-0.7448454	-0.6875496	-9.20743506	4.41750618	-19.23992964
5.98	598	0.073	0.162	-0.99	0	-0.8021412	-0.572958	-9.20743506	4.4117766	-19.24565922
5.99	599	0.073	0.162	-0.988	0.0572958	-0.6875496	-0.4583664	-9.20743506	4.40031744	-19.2513888
6	600	0.072	0.163	-0.984	0.0572958	-0.3437748	-0.4583664	-9.35067456	4.31437374	-19.26284796
6.01	601	0.071	0.163	-0.982	0.4583664	0.1145916	-0.4583664	-9.35067456	4.31437374	-19.26284796
6.02	602	0.07	0.16	-0.976	0.859437	0.4583664	-0.4010706	-9.3392154	4.32010332	-19.26857754
6.03	603	0.071	0.157	-0.972	0.859437	0.6875496	-0.3437748	-9.32775624	4.3258329	-19.27430712
6.04	604	0.074	0.155	-0.972	1.0886202	1.0313244	-0.286479	-9.32202666	4.33729206	-19.2800367
6.05	605	0.077	0.156	-0.972	1.432395	1.145916	-0.2291832	-9.3392154	4.33729206	-19.28576628
6.06	606	0.082	0.159	-0.972	1.6042824	0.9740286	-0.1145916	-9.32775624	4.34875122	-19.29149586
6.07	607	0.085	0.163	-0.972	1.718874	0.6302538	0.0572958	-9.3105675	4.3544808	-19.29149586
6.08	608	0.088	0.164	-0.97	1.3178034	0.2291832	0.1718874	-9.29337876	4.3544808	-19.28576628
6.09	609	0.088	0.163	-0.969	0.5156622	0	0.1718874	-9.28764918	4.3544808	-19.28576628
6.1	610	0.087	0.16	-0.974	0.1718874	-0.0572958	0.2291832	-9.61996482	4.37739912	-19.3086846
6.11	611	0.085	0.156	-0.976	0.286479	0.1718874	0.286479	-9.61996482	4.37739912	-19.30295502
6.12	612	0.085	0.154	-0.976	0.4583664	0.1718874	0.2291832	-9.61423524	4.3831287	-19.30295502
6.13	613	0.086	0.153	-0.976	0.7448454	0.3437748	0.286479	-9.60277608	4.3831287	-19.30295502
6.14	614	0.086	0.153	-0.975	0.9740286	0.3437748	0.286479	-9.5970465	4.38885828	-19.29722544
6.15	615	0.087	0.152	-0.973	1.145916	0.1718874	0.2291832	-9.60277608	4.40031744	-19.29722544
6.16	616	0.088	0.152	-0.973	1.145916	0.1718874	0.1718874	-9.59131692	4.40031744	-19.29722544
6.17	617	0.087	0.15	-0.977	1.3750992	0	0.1718874	-9.57985776	4.40031744	-19.29722544
6.18	618	0.087	0.149	-0.976	1.6615782	0	0.0572958	-9.56266902	4.40031744	-19.29149586
6.19	619	0.085	0.147	-0.975	1.4896908	0.1145916	0	-9.54548028	4.40031744	-19.29722544
6.2	620	0.086	0.148	-0.977	1.432395	0.4583664	-0.2291832	-9.5397507	4.40604702	-19.29722544
6.21	621	0.087	0.151	-0.975	1.432395	0.572958	-0.1718874	-9.52256196	4.4117766	-19.30295502
6.22	622	0.087	0.153	-0.975	1.3750992	0.5156622	-0.1145916	-9.5111028	4.41750618	-19.30295502
6.23	623	0.087	0.154	-0.977	1.2605076	0.572958	-0.1145916	-9.49964364	4.42323576	-19.3086846
6.24	624	0.088	0.154	-0.977	1.3750992	0.5156622	-0.1145916	-9.4824549	4.42896534	-19.3086846
6.25	625	0.088	0.153	-0.976	1.2605076	0.4583664	-0.2291832	-9.49391406	4.4404245	-19.31441418
6.26	626	0.089	0.153	-0.977	1.3178034	0.4010706	-0.2291832	-9.4824549	4.4404245	-19.31441418
6.27	627	0.09	0.154	-0.974	1.432395	0.1145916	-0.286479	-9.46526616	4.44615408	-19.32014376
6.28	628	0.092	0.157	-0.973	1.3750992	-0.1718874	-0.286479	-9.453807	4.4404245	-19.32014376
6.29	629	0.092	0.159	-0.973	1.3750992	-0.3437748	-0.4010706	-9.43661826	4.43469492	-19.32587334
6.3	630	0.091	0.159	-0.973	1.6042824	-0.572958	-0.4010706	-9.44807742	4.43469492	-19.33160292
6.31	631	0.088	0.156	-0.972	1.4896908	-0.859437	-0.4583664	-9.43088868	4.42896534	-19.3373325
6.32	632	0.085	0.152	-0.971	1.432395	-0.9740286	-0.4583664	-9.41942952	4.41750618	-19.3373325
6.33	633	0.084	0.149	-0.97	1.2032118	-1.0313244	-0.4583664	-9.40797036	4.40604702	-19.34306208
6.34	634	0.082	0.148	-0.973	1.0886202	-0.9740286	-0.5156622	-9.3965112	4.39458786	-19.34879166
6.35	635	0.082	0.149	-0.977	1.2032118	-0.6875496	-0.572958	-9.3965112	4.3831287	-19.35452124
6.36	636	0.083	0.15	-0.979	1.4896908	-0.6875496	-0.572958	-9.37932246	4.37166954	-19.36025082
6.37	637	0.082	0.152	-0.977	1.3178034	-0.6302538	-0.5156622	-9.3678633	4.36593996	-19.36025082
6.38	638	0.082	0.152	-0.976	1.2605076	-0.6302538	-0.4583664	-9.35640414	4.36021038	-19.3659804
6.39	639	0.079	0.152	-0.973	1.2605076	-0.8021412	-0.4010706	-9.34494498	4.34875122	-19.37170998
6.4	640	0.077	0.151	-0.974	1.2032118	-0.9740286	-0.4583664	-9.34494498	4.3258329	-19.37170998
6.41	641	0.076	0.149	-0.975	1.2605076	-0.9167328	-0.572958	-9.33348582	4.31437374	-19.37743956
6.42	642	0.076	0.146	-0.976	1.0886202	-0.3437748	-0.6875496	-9.32202666	4.31437374	-19.38316914
6.43	643	0.077	0.146	-0.979	0.9740286	0.3437748	-0.6302538	-9.31629708	4.31437374	-19.38889872
6.44	644	0.081	0.149	-0.978	1.2032118	0.4583664	-0.4583664	-9.30483792	4.32010332	-19.3946283
6.45	645	0.086	0.152	-0.976	1.3750992	0.4010706	-0.3437748	-9.31629708	4.33156248	-19.40608746
6.46	646	0.088	0.153	-0.973	1.4896908	0.1145916	-0.1718874	-9.30483792	4.33156248	-19.40608746
6.47	647	0.089	0.152	-0.972	1.3750992	0	-0.1145916	-9.28764918	4.33156248	-19.40608746
6.48	648	0.087	0.147	-0.965	1.145916	0	0	-9.27619002	4.33156248	-19.40608746
6.49	649	0.086	0.141	-0.962	0.8021412	-0.1718874	0.0572958	-9.27046044	4.33156248	-19.40608746
6.5	650	0.084	0.136	-0.961	0.5156622	-0.7448454	0.1145916	-9.2532717	4.3258329	-19.40608746
6.51	651	0.082	0.133	-0.965	0.6302538	-0.9740286	0.0572958	-9.24754212	4.32010332	-19.40035788
6.52	652	0.078	0.131	-0.968	0.6302538	-1.145916	-0.1718874	-9.24181254	4.30291458	-19.40035788
6.53	653	0.076	0.134	-0.971	0.3437748	-1.145916	-0.3437748	-9.23608296	4.29145542	-19.40608746
6.54	654	0.078	0.141	-0.977	0.1718874	-0.859437	-0.4583664	-9.23608296	4.28572584	-19.41181704
6.55	655	0.082	0.149	-0.984	0.4583664	-0.5156622	-0.5156622	-9.25900128	4.27426668	-19.41754662
6.56	656	0.085	0.155	-0.988	1.0313244	-0.286479	-0.3437748	-9.24754212	4.2685371	-19.41754662
6.57	657	0.087	0.157	-0.987	1.4896908	-0.3437748	-0.2291832	-9.23035338	4.26280752	-19.4232762
6.58	658	0.086	0.157	-0.985	1.6615782	-0.2291832	-0.1718874	-9.21316464	4.26280752	-19.4232762
6.59	659	0.085	0.154	-0.982	1.3178034	-0.286479	-0.0572958	-9.20170548	4.25707794	-19.4232762
6.6	660	0.085	0.153	-0.98	0.9167328	-0.2291832	-0.0572958	-9.24181254	4.26280752	-19.42900578
6.61	661	0.086	0.151	-0.979	0.8021412	-0.1718874	-0.1145916	-9.23035338	4.26280752	-19.42900578
6.62	662	0.087	0.151	-0.98	1.145916	-0.1145916	-0.1145916	-9.21889422	4.26280752	-19.42900578
6.63	663	0.087	0.152	-0.978	1.432395	-0.1145916	-0.1145916	-9.20743506	4.25707794	-19.42900578
6.64	664	0.088	0.152	-0.978	1.6042824	-0.2291832	-0.1718874	-9.19024632	4.25707794	-19.43473536
6.65	665	0.086	0.15	-0.975	1.6042824	-0.572958	-0.1718874	-9.1959759	4.25134836	-19.43473536
6.66	666	0.082	0.147	-0.969	1.0886202	-0.7448454	-0.4010706	-9.18451674	4.24561878	-19.44046494
6.67	667	0.08	0.147	-0.97	0.572958	-0.7448454	-0.4583664	-9.17878716	4.23415962	-19.44619452
6.68	668	0.079	0.149	-0.973	0.7448454	-0.6302538	-0.5156622	-9.167328	4.22843004	-19.44619452
6.69	669	0.079	0.148	-0.975	0.9740286	-0.572958	-0.6302538	-9.16159842	4.22270046	-19.4519241
6.7	670	0.082	0.146	-0.975	0.859437	-0.3437748	-0.572958	-9.17305758	4.22270046	-19.46338326
6.71	671	0.08	0.146	-0.975	0.8021412	-0.1718874	-0.4010706	-9.167328	4.21697088	-19.46338326
6.72	672	0.081	0.146	-0.978	0.8021412	-0.0572958	-0.2291832	-9.15586884	4.21697088	-19.46911284
6.73	673	0.081	0.145	-0.978	1.0886202	-0.2291832	-0.2291832	-9.14440968	4.21697088	-19.46911284
6.74	674	0.08	0.143	-0.978	1.4896908	-0.572958	-0.2291832	-9.12722094	4.2112413	-19.46911284
6.75	675	0.079	0.14	-0.973	1.5469866	-0.6875496	-0.3437748	-9.11576178	4.19978214	-19.47484242
6.76	676	0.079	0.136	-0.973	1.3178034	-0.7448454	-0.5156622	-9.10430262	4.18832298	-19.480572
6.77	677	0.08	0.132	-0.973	1.2032118	-0.4010706	-0.5156622	-9.09284346	4.18832298	-19.480572
6.78	678	0.081	0.13	-0.976	1.2605076	-0.1718874	-0.5156622	-9.0813843	4.1825934	-19.48630158
6.79	679	0.082	0.131	-0.977	1.432395	0	-0.3437748	-9.06419556	4.1825934	-19.49203116
6.8	680	0.084	0.133	-0.98	1.6042824	0.0572958	-0.2291832	-9.04127724	4.18832298	-19.49776074
6.81	681	0.085	0.136	-0.978	1.5469866	0	-0.1718874	-9.02981808	4.18832298	-19.49776074
6.82	682	0.085	0.141	-0.977	1.2032118	0	-0.1145916	-9.01262934	4.18832298	-19.49776074
6.83	683	0.086	0.144	-0.976	0.1145916	0.286479	0.0572958	-9.01262934	4.19405256	-19.49776074
6.84	684	0.086	0.148	-0.975	-0.0572958	0.3437748	0.1718874	-9.01262934	4.19978214	-19.49776074
6.85	685	0.084	0.148	-0.974	0.0572958	0.1145916	0.1145916	-9.12149136	4.21697088	-19.50349032
6.86	686	0.081	0.146	-0.971	0.2291832	0	0.0572958	-9.11576178	4.21697088	-19.50349032
6.87	687	0.078	0.144	-0.967	0	0	0	-9.11576178	4.21697088	-19.50349032
6.88	688	0.075	0.141	-0.963	-0.2291832	0	0	-9.12149136	4.21697088	-19.50349032
6.89	689	0.076	0.141	-0.961	-0.6302538	0.1718874	-0.0572958	-9.12722094	4.21697088	-19.50349032
6.9	690	0.077	0.141	-0.959	-1.0313244	0.3437748	-0.1145916	-9.15586884	4.2112413	-19.5092199
6.91	691	0.078	0.141	-0.96	-1.2605076	0.4010706	-0.1145916	-9.167328	4.21697088	-19.5092199
6.92	692	0.08	0.141	-0.961	-1.4896908	0.5156622	-0.1145916	-9.18451674	4.21697088	-19.5092199
6.93	693	0.08	0.139	-0.962	-1.6615782	0.572958	-0.1145916	-9.20170548	4.22270046	-19.5092199
6.94	694	0.082	0.136	-0.967	-1.7761698	0.6302538	-0.1718874	-9.21889422	4.22843004	-19.51494948
6.95	695	0.083	0.134	-0.97	-1.718874	0.4583664	-0.1718874	-9.23035338	4.2398892	-19.51494948
6.96	696	0.084	0.136	-0.974	-1.6615782	0.0572958	-0.2291832	-9.24754212	4.2398892	-19.52067906
6.97	697	0.085	0.137	-0.975	-1.8907614	-0.2291832	-0.286479	-9.27046044	4.23415962	-19.52067906
6.98	698	0.085	0.137	-0.977	-2.1772404	-0.4010706	-0.286479	-9.28764918	4.23415962	-19.52640864
6.99	699	0.084	0.139	-0.98	-2.3491278	-0.1718874	-0.2291832	-9.31629708	4.22843004	-19.52640864
7	700	0.083	0.139	-0.982	-2.2345362	0.0572958	-0.1145916	-9.33348582	4.22843004	-19.52640864
7.01	701	0.083	0.138	-0.983	-2.005353	0.1718874	0	-9.35067456	4.22843004	-19.52640864
7.02	702	0.082	0.137	-0.984	-1.9480572	0.286479	0	-9.37359288	4.23415962	-19.52640864
7.03	703	0.081	0.136	-0.984	-1.7761698	0.286479	0	-9.39078162	4.23415962	-19.52640864
7.04	704	0.082	0.139	-0.984	-1.8334656	0.5156622	-0.0572958	-9.40797036	4.2398892	-19.53213822
7.05	705	0.082	0.143	-0.983	-1.718874	0.5156622	-0.286479	-9.43088868	4.24561878	-19.53213822
7.06	706	0.084	0.149	-0.979	-1.5469866	0.2291832	-0.3437748	-9.44807742	4.24561878	-19.5378678
7.07	707	0.086	0.153	-0.975	-1.6042824	0.0572958	-0.3437748	-9.46526616	4.24561878	-19.54359738
7.08	708	0.087	0.154	-0.972	-1.6042824	0.0572958	-0.286479	-9.4824549	4.24561878	-19.54359738
7.09	709	0.087	0.151	-0.97	-1.6042824	0.1718874	-0.2291832	-9.49964364	4.24561878	-19.54932696
7.1	710	0.086	0.147	-0.964	-1.9480572	0.7448454	-0.1145916	-9.52256196	4.26280752	-19.54932696
7.11	711	0.087	0.14	-0.959	-2.578311	0.6302538	0.0572958	-9.54548028	4.2685371	-19.54932696
7.12	712	0.087	0.136	-0.96	-2.9793816	0.0572958	0.1145916	-9.57985776	4.2685371	-19.54932696
7.13	713	0.087	0.135	-0.965	-2.8074942	-0.2291832	0.0572958	-9.60850566	4.2685371	-19.54359738
7.14	714	0.085	0.133	-0.972	-2.578311	-0.4010706	0	-9.63142398	4.26280752	-19.54359738
7.15	715	0.081	0.139	-0.98	-2.578311	-0.3437748	-0.1718874	-9.64861272	4.25134836	-19.54359738
7.16	716	0.08	0.146	-0.987	-2.2345362	-0.5156622	-0.3437748	-9.67153104	4.24561878	-19.54932696
7.17	717	0.08	0.152	-0.99	-1.7761698	-0.5156622	-0.3437748	-9.68871978	4.2398892	-19.54932696
7.18	718	0.081	0.156	-0.99	-1.432395	-0.4010706	-0.4583664	-9.70590852	4.23415962	-19.55505654
7.19	719	0.081	0.157	-0.989	-1.3750992	-0.2291832	-0.3437748	-9.72309726	4.23415962	-19.56078612
7.2	720	0.083	0.157	-0.985	-1.3750992	-0.1145916	-0.1718874	-9.75174516	4.23415962	-19.56078612
7.21	721	0.083	0.154	-0.98	-1.5469866	0	-0.0572958	-9.7689339	4.23415962	-19.56078612
7.22	722	0.083	0.15	-0.977	-2.0626488	0	0	-9.78612264	4.23415962	-19.56078612
7.23	723	0.083	0.146	-0.976	-2.2345362	0.1718874	0	-9.81477054	4.23415962	-19.56078612
7.24	724	0.082	0.146	-0.978	-1.9480572	0.2291832	0	-9.83195928	4.2398892	-19.56078612
7.25	725	0.082	0.148	-0.976	-1.432395	0.1145916	-0.1145916	-9.84341844	4.22843004	-19.56078612
7.26	726	0.082	0.149	-0.974	-1.0886202	0.1718874	-0.1718874	-9.8548776	4.23415962	-19.5665157
7.27	727	0.081	0.149	-0.971	-0.9740286	0.0572958	-0.2291832	-9.86633676	4.23415962	-19.5665157
7.28	728	0.08	0.149	-0.971	-1.2032118	0	-0.286479	-9.87779592	4.23415962	-19.5665157
7.29	729	0.079	0.149	-0.972	-1.4896908	-0.1145916	-0.2291832	-9.89498466	4.22843004	-19.57224528
7.3	730	0.08	0.149	-0.974	-1.5469866	-0.2291832	-0.3437748	-9.90644382	4.21697088	-19.57224528
7.31	731	0.08	0.149	-0.976	-1.6042824	-0.2291832	-0.3437748	-9.92363256	4.21697088	-19.57797486
7.32	732	0.081	0.148	-0.978	-1.6615782	-0.1145916	-0.2291832	-9.9408213	4.21697088	-19.57797486
7.33	733	0.08	0.148	-0.981	-1.6042824	0.0572958	-0.1145916	-9.95801004	4.21697088	-19.57797486
7.34	734	0.082	0.146	-0.98	-1.432395	0.1145916	0	-9.97519878	4.21697088	-19.57797486
7.35	735	0.082	0.144	-0.978	-1.3750992	0.1718874	0.1718874	-9.9694692	4.21697088	-19.57797486
7.36	736	0.083	0.141	-0.974	-1.3750992	0.1718874	0.1718874	-9.98092836	4.22270046	-19.57797486
7.37	737	0.083	0.142	-0.974	-1.4896908	0.2291832	0.1718874	-9.9981171	4.22270046	-19.57224528
7.38	738	0.082	0.143	-0.975	-1.4896908	0.286479	0.0572958	-10.01530584	4.22843004	-19.57224528
7.39	739	0.08	0.142	-0.977	-1.3178034	0.286479	0.0572958	-10.026765	4.22843004	-19.57224528
7.4	740	0.08	0.144	-0.977	-1.145916	0.286479	-0.0572958	-10.01530584	4.22843004	-19.57224528
7.41	741	0.081	0.145	-0.978	-1.0313244	0.4583664	-0.1145916	-10.026765	4.23415962	-19.57224528
7.42	742	0.082	0.146	-0.976	-1.0313244	0.572958	-0.0572958	-10.03822416	4.2398892	-19.57797486
7.43	743	0.084	0.147	-0.974	-1.0886202	0.4583664	0	-10.04968332	4.24561878	-19.57797486
7.44	744	0.084	0.15	-0.972	-1.2605076	0.3437748	0.1145916	-10.06687206	4.24561878	-19.57797486
7.45	745	0.083	0.152	-0.972	-1.4896908	0.2291832	0.0572958	-10.0840608	4.25134836	-19.57224528
7.46	746	0.083	0.153	-0.974	-1.6615782	0.2291832	0	-10.10124954	4.25134836	-19.57224528
7.47	747	0.084	0.155	-0.976	-1.432395	0.2291832	0	-10.1127087	4.25134836	-19.57797486
7.48	748	0.084	0.155	-0.978	-1.145916	0.0572958	0	-10.12416786	4.25707794	-19.57224528
7.49	749	0.084	0.153	-0.979	-0.7448454	-0.0572958	-0.0572958	-10.13562702	4.25134836	-19.57797486
7.5	750	0.082	0.151	-0.978	-0.572958	-0.0572958	-0.1718874	-10.12416786	4.25134836	-19.57797486
7.51	751	0.082	0.15	-0.977	-0.572958	0	-0.286479	-10.12989744	4.25134836	-19.57797486
7.52	752	0.083	0.152	-0.978	-0.8021412	0	-0.286479	-10.1413566	4.25134836	-19.58370444
7.53	753	0.084	0.153	-0.979	-1.0886202	0.1718874	-0.1718874	-10.15281576	4.25134836	-19.58370444
7.54	754	0.086	0.153	-0.982	-0.9167328	0.286479	0	-10.15854534	4.25707794	-19.58370444
7.55	755	0.087	0.153	-0.984	0.3437748	0.1718874	0.2291832	-10.14708618	4.2685371	-19.58370444
7.56	756	0.087	0.151	-0.984	0.859437	0.0572958	0.4010706	-10.13562702	4.27426668	-19.57797486
7.57	757	0.086	0.15	-0.983	0.8021412	0	0.4583664	-10.12989744	4.27426668	-19.57224528
7.58	758	0.084	0.148	-0.984	0.7448454	-0.1145916	0.286479	-10.11843828	4.27426668	-19.57224528
7.59	759	0.084	0.149	-0.985	0.7448454	-0.2291832	0.1145916	-10.1127087	4.2685371	-19.5665157
7.6	760	0.085	0.15	-0.983	0.9740286	-0.2291832	0	-10.09551996	4.27426668	-19.5665157
7.61	761	0.085	0.152	-0.982	1.0313244	-0.2291832	-0.0572958	-10.0840608	4.2685371	-19.5665157
7.62	762	0.084	0.151	-0.98	1.2032118	-0.3437748	0	-10.07260164	4.26280752	-19.5665157
7.63	763	0.082	0.15	-0.975	1.2605076	-0.6302538	0	-10.0554129	4.25707794	-19.5665157
7.64	764	0.079	0.148	-0.971	1.0313244	-0.7448454	-0.0572958	-10.04395374	4.25134836	-19.5665157
7.65	765	0.076	0.147	-0.968	0.859437	-0.5156622	-0.1718874	-10.026765	4.22843004	-19.5665157
7.66	766	0.077	0.146	-0.969	0.859437	-0.1718874	-0.1718874	-10.01530584	4.22843004	-19.5665157
7.67	767	0.077	0.146	-0.97	0.9740286	0.0572958	-0.286479	-10.00957626	4.22843004	-19.57224528
7.68	768	0.08	0.147	-0.971	1.0313244	0.1145916	-0.286479	-9.9981171	4.22843004	-19.57797486
7.69	769	0.081	0.147	-0.97	0.859437	-0.0572958	-0.3437748	-9.98665794	4.22843004	-19.57797486
7.7	770	0.083	0.15	-0.972	0.6875496	-0.2291832	-0.3437748	-9.97519878	4.22843004	-19.58370444
7.71	771	0.082	0.148	-0.974	0.6302538	0	-0.2291832	-9.9694692	4.22843004	-19.58370444
7.72	772	0.083	0.145	-0.973	0.8021412	0.4583664	-0.0572958	-9.96373962	4.22843004	-19.58370444
7.73	773	0.083	0.141	-0.97	0.8021412	0.6302538	0.1145916	-9.95228046	4.2398892	-19.58370444
7.74	774	0.083	0.136	-0.968	0.7448454	0	0.3437748	-9.94655088	4.2398892	-19.58370444
7.75	775	0.081	0.135	-0.965	0.6302538	-0.4583664	0.286479	-9.90071424	4.22843004	-19.57797486
7.76	776	0.077	0.131	-0.968	0.2291832	-0.6302538	0.1718874	-9.89498466	4.22270046	-19.57224528
7.77	777	0.075	0.132	-0.974	-0.3437748	-0.5156622	0	-9.90071424	4.21697088	-19.57224528
7.78	778	0.076	0.136	-0.983	-0.3437748	-0.3437748	-0.1145916	-9.90644382	4.2112413	-19.57224528
7.79	779	0.08	0.142	-0.99	0.2291832	-0.1718874	-0.1718874	-9.90071424	4.2112413	-19.57224528
7.8	780	0.084	0.147	-0.991	0.9167328	-0.0572958	-0.1718874	-9.87779592	4.21697088	-19.57797486
7.81	781	0.085	0.152	-0.989	1.0886202	0	-0.1718874	-9.86633676	4.21697088	-19.57797486
7.82	782	0.084	0.157	-0.983	0.6875496	0.0572958	0	-9.86060718	4.21697088	-19.57797486
7.83	783	0.082	0.158	-0.979	0.3437748	0.1145916	0.1718874	-9.86060718	4.22270046	-19.57797486
7.84	784	0.079	0.159	-0.977	0.0572958	0.286479	0.286479	-9.8548776	4.22270046	-19.57224528
7.85	785	0.078	0.157	-0.978	0.1145916	0.5156622	0.4583664	-9.86633676	4.21697088	-19.57224528
7.86	786	0.08	0.155	-0.98	0.4583664	0.859437	0.4583664	-9.86633676	4.22843004	-19.5665157
7.87	787	0.081	0.154	-0.979	0.859437	0.9167328	0.4583664	-9.8548776	4.2398892	-19.5665157
7.88	788	0.082	0.151	-0.977	1.145916	0.7448454	0.4010706	-9.84341844	4.24561878	-19.56078612
7.89	789	0.081	0.149	-0.975	1.0313244	0.6875496	0.286479	-9.83195928	4.25707794	-19.56078612
7.9	790	0.08	0.15	-0.974	0.8021412	0.6302538	0.1718874	-9.8262297	4.25707794	-19.56078612
7.91	791	0.081	0.147	-0.975	0.6875496	0.6875496	0.0572958	-9.81477054	4.26280752	-19.56078612
7.92	792	0.083	0.148	-0.977	0.6302538	0.572958	0.1145916	-9.80904096	4.2685371	-19.55505654
7.93	793	0.086	0.147	-0.979	0.7448454	0.2291832	0.1718874	-9.80331138	4.27426668	-19.55505654
7.94	794	0.087	0.145	-0.981	0.8021412	0.0572958	0.1718874	-9.79185222	4.27426668	-19.55505654
7.95	795	0.088	0.144	-0.983	0.859437	-0.2291832	0.2291832	-9.7689339	4.28572584	-19.54932696
7.96	796	0.086	0.143	-0.986	0.9167328	-0.286479	0.0572958	-9.76320432	4.27999626	-19.54932696
7.97	797	0.083	0.139	-0.988	1.145916	-0.1145916	0	-9.74601558	4.27999626	-19.54932696
7.98	798	0.084	0.136	-0.99	1.5469866	-0.1145916	-0.1145916	-9.73455642	4.27999626	-19.54932696
7.99	799	0.086	0.133	-0.988	1.8334656	0	-0.2291832	-9.7116381	4.27999626	-19.55505654
8	800	0.087	0.13	-0.983	1.9480572	0.1718874	-0.3437748	-9.66580146	4.29145542	-19.55505654
8.01	801	0.089	0.129	-0.983	1.8334656	-0.0572958	-0.2291832	-9.64861272	4.28572584	-19.56078612
8.02	802	0.086	0.128	-0.985	1.9480572	-0.572958	-0.1718874	-9.6256944	4.27999626	-19.56078612
8.03	803	0.084	0.129	-0.988	2.291832	-0.572958	0.0572958	-9.60277608	4.27426668	-19.56078612
8.04	804	0.081	0.134	-0.99	2.6356068	0.1718874	0.1145916	-9.57985776	4.27999626	-19.55505654
8.05	805	0.082	0.14	-0.985	2.6356068	0.286479	0.1718874	-9.54548028	4.27999626	-19.55505654
8.06	806	0.078	0.148	-0.986	2.2345362	0.1718874	0.3437748	-9.52256196	4.27999626	-19.55505654
8.07	807	0.076	0.153	-0.978	1.718874	-0.1145916	0.7448454	-9.50537322	4.27999626	-19.54359738
8.08	808	0.074	0.156	-0.962	0.572958	-1.432395	1.145916	-9.49391406	4.2685371	-19.53213822
