TimeStamp(s)	FrameCounter	AccX	AccY	AccZ	GyrX	GyrY	GyrZ	EulerX	EulerY	EulerZ
0.01	1	-0.049	-0.976	-0.197	-1.3750992	0.572958	-0.6302538	82.59762528	-3.99351726	-23.9496444
0.02	2	-0.051	-0.975	-0.198	-0.9740286	0.286479	-0.4010706	82.58616612	-3.99351726	-23.94391482
0.03	3	-0.054	-0.978	-0.199	-0.7448454	0.1145916	-0.286479	82.58043654	-3.98778768	-23.94391482
0.04	4	-0.055	-0.982	-0.199	-0.8021412	0.1718874	-0.3437748	82.56897738	-3.9820581	-23.94391482
0.05	5	-0.055	-0.983	-0.197	-0.7448454	0.4010706	-0.4583664	82.41427872	-3.93622146	-23.90380776
0.06	6	-0.053	-0.986	-0.2	-0.572958	0.6302538	-0.5156622	82.40854914	-3.93049188	-23.89807818
0.07	7	-0.053	-0.988	-0.198	-0.3437748	0.4010706	-0.572958	82.40281956	-3.9247623	-23.8923486
0.08	8	-0.054	-0.991	-0.196	-0.1718874	0.1145916	-0.4010706	82.40281956	-3.91903272	-23.8923486
0.09	9	-0.053	-0.99	-0.193	-0.286479	-0.286479	-0.6302538	82.39708998	-3.91330314	-23.89807818
0.1	10	-0.054	-0.99	-0.196	-0.4010706	-0.286479	-0.6302538	82.20228426	-3.85600734	-23.85797112
0.11	11	-0.053	-0.992	-0.193	-0.5156622	-0.286479	-0.6875496	82.20228426	-3.85027776	-23.85797112
0.12	12	-0.056	-0.995	-0.194	-0.6875496	-0.3437748	-0.6302538	82.1908251	-3.84454818	-23.8637007
0.13	13	-0.059	-0.994	-0.198	-0.9167328	-0.3437748	-0.5156622	82.18509552	-3.8388186	-23.86943028
0.14	14	-0.06	-0.995	-0.193	-0.5156622	-0.3437748	-0.5156622	82.17936594	-3.83308902	-23.87515986
0.15	15	-0.057	-0.994	-0.194	-0.6302538	-0.1718874	-0.572958	81.9902898	-3.78725238	-23.8350528
0.16	16	-0.057	-0.992	-0.198	-0.5156622	0.0572958	-0.4583664	81.98456022	-3.7815228	-23.8350528
0.17	17	-0.056	-0.991	-0.194	0.1718874	0.0572958	-0.3437748	81.9902898	-3.77579322	-23.8350528
0.18	18	-0.056	-0.991	-0.187	0.6875496	-0.1718874	-0.4583664	81.99601938	-3.77006364	-23.84078238
0.19	19	-0.057	-0.99	-0.185	0.4583664	-0.2291832	-0.7448454	82.00174896	-3.76433406	-23.84078238
0.2	20	-0.059	-0.994	-0.188	0.1145916	0.1145916	-0.8021412	81.79548408	-3.71849742	-23.80067532
0.21	21	-0.06	-1	-0.188	-0.286479	0.3437748	-0.859437	81.79548408	-3.70703826	-23.80067532
0.22	22	-0.056	-1.007	-0.192	-0.8021412	0.5156622	-0.7448454	81.78402492	-3.70130868	-23.79494574
0.23	23	-0.054	-1.004	-0.193	-0.9740286	0.7448454	-0.5156622	81.77256576	-3.6955791	-23.78921616
0.24	24	-0.056	-0.996	-0.188	-0.7448454	1.0313244	-0.2291832	81.76683618	-3.68984952	-23.777757
0.25	25	-0.056	-0.988	-0.191	-1.0313244	0.9740286	-0.286479	81.66943332	-3.6669312	-23.75483868
0.26	26	-0.055	-0.98	-0.192	-1.0313244	1.0313244	-0.4583664	81.65797416	-3.66120162	-23.74337952
0.27	27	-0.055	-0.978	-0.187	-0.4010706	0.859437	-0.5156622	81.65224458	-3.65547204	-23.73192036
0.28	28	-0.05	-0.976	-0.19	-0.7448454	0.7448454	-0.5156622	81.646515	-3.64401288	-23.72619078
0.29	29	-0.046	-0.976	-0.193	-1.0313244	0.6302538	-0.4010706	81.63505584	-3.64401288	-23.7204612
0.3	30	-0.046	-0.975	-0.193	-0.8021412	0.3437748	-0.2291832	81.5032755	-3.59817624	-23.68608372
0.31	31	-0.047	-0.975	-0.189	-0.6875496	0.0572958	-0.286479	81.49181634	-3.59244666	-23.68608372
0.32	32	-0.046	-0.971	-0.187	-1.0313244	0.2291832	-0.3437748	81.48035718	-3.58671708	-23.68608372
0.33	33	-0.047	-0.966	-0.187	-0.9167328	0.2291832	-0.4583664	81.4746276	-3.5809875	-23.68608372
0.34	34	-0.049	-0.964	-0.185	-0.6875496	0.3437748	-0.4583664	81.46316844	-3.57525792	-23.68035414
0.35	35	-0.05	-0.963	-0.185	-0.9740286	0.5156622	-0.4010706	81.38295432	-3.5523396	-23.65743582
0.36	36	-0.051	-0.965	-0.188	-0.9167328	0.4010706	-0.286479	81.37149516	-3.54661002	-23.65743582
0.37	37	-0.05	-0.964	-0.191	-0.7448454	0.4583664	-0.2291832	81.36576558	-3.54661002	-23.65170624
0.38	38	-0.046	-0.965	-0.19	-0.4010706	0.4010706	-0.3437748	81.360036	-3.54088044	-23.64597666
0.39	39	-0.046	-0.967	-0.19	-0.5156622	0.286479	-0.5156622	81.35430642	-3.53515086	-23.64597666
0.4	40	-0.044	-0.966	-0.189	-0.4583664	0.286479	-0.4583664	81.23398524	-3.48931422	-23.61732876
0.41	41	-0.045	-0.966	-0.192	-0.4583664	0.3437748	-0.572958	81.22825566	-3.47785506	-23.61159918
0.42	42	-0.046	-0.968	-0.198	-0.3437748	0.2291832	-0.4583664	81.22252608	-3.47785506	-23.61159918
0.43	43	-0.046	-0.971	-0.194	-0.3437748	0.0572958	-0.3437748	81.2167965	-3.47212548	-23.61159918
0.44	44	-0.051	-0.976	-0.193	-0.572958	-0.0572958	-0.1718874	81.21106692	-3.47212548	-23.61159918
0.45	45	-0.054	-0.979	-0.196	-0.6875496	-0.0572958	-0.2291832	81.02199078	-3.43201842	-23.58295128
0.46	46	-0.054	-0.983	-0.198	-0.6875496	0	-0.0572958	81.0162612	-3.43201842	-23.58295128
0.47	47	-0.052	-0.989	-0.199	-0.6875496	0	0.0572958	81.00480204	-3.43201842	-23.58295128
0.48	48	-0.051	-0.99	-0.198	-0.6302538	-0.0572958	0	80.99907246	-3.43201842	-23.58295128
0.49	49	-0.05	-0.988	-0.201	-0.9167328	-0.1145916	-0.1145916	80.99334288	-3.43201842	-23.58295128
0.5	50	-0.051	-0.986	-0.203	-0.859437	-0.0572958	-0.3437748	80.82718506	-3.39191136	-23.55430338
0.51	51	-0.051	-0.987	-0.198	-0.5156622	-0.1145916	-0.3437748	80.82145548	-3.39191136	-23.56003296
0.52	52	-0.053	-0.985	-0.196	-0.4583664	-0.1145916	-0.2291832	80.8157259	-3.38618178	-23.56003296
0.53	53	-0.054	-0.983	-0.194	-0.286479	0	-0.1145916	80.80999632	-3.38618178	-23.56003296
0.54	54	-0.054	-0.984	-0.194	-0.1718874	0.1718874	0	80.80999632	-3.38618178	-23.55430338
0.55	55	-0.054	-0.985	-0.198	0	0.1145916	0.4010706	80.58081312	-3.34607472	-23.5199259
0.56	56	-0.056	-0.987	-0.198	0.4583664	0	0.572958	80.5865427	-3.3518043	-23.51419632
0.57	57	-0.056	-0.984	-0.197	0.7448454	-0.1145916	0.6302538	80.59800186	-3.35753388	-23.51419632
0.58	58	-0.055	-0.981	-0.199	0.9167328	-0.286479	0.6875496	80.60373144	-3.36899304	-23.5199259
0.59	59	-0.055	-0.979	-0.198	1.2605076	-0.572958	0.4583664	80.62092018	-3.37472262	-23.52565548
0.6	60	-0.054	-0.98	-0.196	1.4896908	-0.7448454	0.1718874	80.55216522	-3.35753388	-23.51419632
0.61	61	-0.053	-0.981	-0.198	1.145916	-0.4583664	-0.0572958	80.56362438	-3.35753388	-23.5199259
0.62	62	-0.054	-0.985	-0.198	1.2605076	-0.3437748	-0.1718874	80.57508354	-3.35753388	-23.52565548
0.63	63	-0.053	-0.986	-0.196	0.7448454	-0.0572958	0	80.5865427	-3.35753388	-23.52565548
0.64	64	-0.051	-0.982	-0.202	0	0.1718874	0.286479	80.5865427	-3.36326346	-23.52565548
0.65	65	-0.052	-0.979	-0.204	0	0.2291832	0.5156622	80.40319614	-3.32888598	-23.491278
0.66	66	-0.054	-0.976	-0.207	0	0.1718874	0.6875496	80.40319614	-3.34034514	-23.48554842
0.67	67	-0.056	-0.973	-0.207	0.2291832	-0.0572958	0.572958	80.40319614	-3.34607472	-23.48554842
0.68	68	-0.057	-0.975	-0.207	0.3437748	-0.3437748	0.3437748	80.40892572	-3.34607472	-23.491278
0.69	69	-0.056	-0.978	-0.206	0.286479	-0.3437748	0.1145916	80.4146553	-3.3518043	-23.491278
0.7	70	-0.055	-0.983	-0.205	0.2291832	-0.1145916	0.0572958	79.57240704	-3.24294228	-23.3766864
0.71	71	-0.054	-0.986	-0.203	0.1145916	0.1145916	0.1145916	79.57240704	-3.24294228	-23.3766864
0.72	72	-0.053	-0.988	-0.201	0.0572958	0.286479	0.286479	79.57240704	-3.24294228	-23.37095682
0.73	73	-0.055	-0.984	-0.198	0.3437748	0.286479	0.3437748	79.57813662	-3.24867186	-23.36522724
0.74	74	-0.056	-0.985	-0.199	0.3437748	0.1718874	0.286479	79.57813662	-3.24867186	-23.36522724
0.75	75	-0.056	-0.989	-0.199	0.2291832	-0.0572958	0.3437748	79.46354502	-3.2372127	-23.3480385
0.76	76	-0.057	-0.99	-0.196	0.1145916	-0.4583664	0.4010706	79.4692746	-3.24294228	-23.3480385
0.77	77	-0.056	-0.989	-0.199	-0.286479	-0.4010706	0.286479	79.46354502	-3.24294228	-23.35376808
0.78	78	-0.055	-0.988	-0.204	-0.4583664	-0.2291832	0.1718874	79.45781544	-3.24867186	-23.35376808
0.79	79	-0.057	-0.987	-0.206	-0.1145916	0	0.1718874	79.45781544	-3.24867186	-23.35376808
0.8	80	-0.06	-0.985	-0.202	0.1145916	0.0572958	0.286479	79.24582098	-3.24867186	-23.33657934
0.81	81	-0.06	-0.981	-0.201	0.3437748	0	0.1145916	79.25155056	-3.24867186	-23.33657934
0.82	82	-0.058	-0.98	-0.199	0.5156622	0.2291832	-0.1145916	79.25728014	-3.24867186	-23.33084976
0.83	83	-0.056	-0.983	-0.199	0.572958	0.2291832	-0.2291832	79.26300972	-3.24294228	-23.33084976
0.84	84	-0.053	-0.983	-0.201	0.3437748	0	-0.0572958	79.2687393	-3.24294228	-23.33084976
0.85	85	-0.05	-0.987	-0.203	0.6302538	-0.0572958	0	79.1827956	-3.21429438	-23.31366102
0.86	86	-0.051	-0.989	-0.2	0.7448454	-0.1145916	0.1145916	79.18852518	-3.21429438	-23.31366102
0.87	87	-0.054	-0.99	-0.2	0.6302538	-0.0572958	0.286479	79.19998434	-3.22002396	-23.31366102
0.88	88	-0.056	-0.989	-0.198	0.572958	-0.0572958	0.4010706	79.20571392	-3.22575354	-23.31366102
0.89	89	-0.057	-0.988	-0.197	0.5156622	-0.0572958	0.3437748	79.2114435	-3.22575354	-23.31366102
0.9	90	-0.057	-0.986	-0.202	0.2291832	0.1718874	0.1145916	78.98798988	-3.22002396	-23.2907427
0.91	91	-0.057	-0.985	-0.206	0.4010706	0.3437748	-0.0572958	78.99371946	-3.22002396	-23.28501312
0.92	92	-0.057	-0.985	-0.204	0.6875496	0.1145916	-0.0572958	78.99944904	-3.21429438	-23.28501312
0.93	93	-0.053	-0.983	-0.202	0.6302538	-0.1145916	-0.1145916	79.00517862	-3.21429438	-23.28501312
0.94	94	-0.052	-0.978	-0.199	0.859437	-0.2291832	-0.1145916	79.01663778	-3.21429438	-23.2907427
0.95	95	-0.052	-0.978	-0.198	0.7448454	0	-0.0572958	78.9249645	-3.19137606	-23.27355396
0.96	96	-0.055	-0.978	-0.199	0.572958	0.1145916	0.1145916	78.93642366	-3.19710564	-23.27355396
0.97	97	-0.056	-0.98	-0.199	0.4583664	0.286479	0.286479	78.93642366	-3.19710564	-23.26782438
0.98	98	-0.058	-0.98	-0.203	0.4010706	0.4583664	0.2291832	78.94215324	-3.19710564	-23.2620948
0.99	99	-0.057	-0.98	-0.201	0.5156622	0.6302538	0.2291832	78.94788282	-3.20283522	-23.25636522
1	100	-0.058	-0.981	-0.195	0.6875496	0.572958	0.286479	78.91350534	-3.19710564	-23.24490606
1.01	101	-0.057	-0.979	-0.197	0.5156622	0.5156622	0.4010706	78.91923492	-3.20283522	-23.23917648
1.02	102	-0.055	-0.979	-0.201	0	0.3437748	0.3437748	78.91923492	-3.2085648	-23.2334469
1.03	103	-0.053	-0.979	-0.202	0.286479	0.2291832	0.3437748	78.91923492	-3.2085648	-23.2334469
1.04	104	-0.052	-0.979	-0.201	0.5156622	0.1145916	0.3437748	78.9249645	-3.21429438	-23.22771732
1.05	105	-0.052	-0.976	-0.2	0.6302538	-0.0572958	0	78.83329122	-3.19137606	-23.21625816
1.06	106	-0.055	-0.977	-0.202	0.859437	0	-0.1145916	78.8390208	-3.19137606	-23.21625816
1.07	107	-0.056	-0.98	-0.201	0.9167328	0	-0.286479	78.85047996	-3.19137606	-23.21625816
1.08	108	-0.057	-0.984	-0.204	0.7448454	-0.0572958	-0.4010706	78.85620954	-3.18564648	-23.21625816
1.09	109	-0.057	-0.986	-0.208	0.6302538	0	-0.4583664	78.86193912	-3.1799169	-23.21625816
1.1	110	-0.056	-0.985	-0.207	0.572958	0.0572958	-0.3437748	78.781725	-3.17418732	-23.21052858
1.11	111	-0.058	-0.98	-0.203	0.6302538	-0.0572958	-0.1145916	78.78745458	-3.16845774	-23.21052858
1.12	112	-0.062	-0.979	-0.203	0.4583664	-0.2291832	0.0572958	78.79318416	-3.17418732	-23.21052858
1.13	113	-0.06	-0.98	-0.203	0.4010706	-0.0572958	0.2291832	78.79891374	-3.17418732	-23.21052858
1.14	114	-0.058	-0.984	-0.202	0.6875496	0.2291832	0.286479	78.80464332	-3.17418732	-23.21052858
1.15	115	-0.053	-0.989	-0.197	0.9167328	0.2291832	0.4010706	78.77599542	-3.16272816	-23.19906942
1.16	116	-0.05	-0.99	-0.192	0.6875496	0.1718874	0.4583664	78.781725	-3.16845774	-23.19333984
1.17	117	-0.051	-0.988	-0.196	-0.1145916	0.2291832	0.4010706	78.781725	-3.17418732	-23.18761026
1.18	118	-0.052	-0.984	-0.196	-0.286479	0.1718874	0.286479	78.77599542	-3.17418732	-23.18761026
1.19	119	-0.056	-0.984	-0.195	-0.286479	0.1145916	0	78.77599542	-3.17418732	-23.18761026
1.2	120	-0.056	-0.983	-0.2	-0.286479	0	-0.286479	78.6671334	-3.16272816	-23.1761511
1.21	121	-0.057	-0.983	-0.201	0	0.0572958	-0.3437748	78.6671334	-3.16272816	-23.1761511
1.22	122	-0.056	-0.982	-0.2	0.0572958	0.0572958	-0.2291832	78.6671334	-3.15699858	-23.1761511
1.23	123	-0.054	-0.981	-0.2	0.2291832	0	0	78.6671334	-3.15699858	-23.1761511
1.24	124	-0.054	-0.979	-0.198	0.3437748	0	0	78.67286298	-3.15699858	-23.1761511
1.25	125	-0.052	-0.977	-0.193	0.4583664	0	0	78.62702634	-3.13408026	-23.16469194
1.26	126	-0.052	-0.978	-0.196	0.6875496	-0.286479	0	78.63275592	-3.13980984	-23.17042152
1.27	127	-0.056	-0.98	-0.2	0.4010706	-0.3437748	-0.0572958	78.6384855	-3.13980984	-23.17042152
1.28	128	-0.058	-0.981	-0.201	0.1718874	-0.1718874	-0.1145916	78.6384855	-3.13408026	-23.1761511
1.29	129	-0.058	-0.98	-0.202	-0.0572958	0	-0.1718874	78.6384855	-3.13408026	-23.1761511
1.3	130	-0.057	-0.976	-0.206	-0.4583664	-0.0572958	-0.286479	78.55827138	-3.12835068	-23.17042152
1.31	131	-0.056	-0.973	-0.205	-0.286479	-0.0572958	-0.286479	78.5525418	-3.1226211	-23.17042152
1.32	132	-0.054	-0.976	-0.202	-0.0572958	-0.0572958	-0.3437748	78.5525418	-3.11689152	-23.17042152
1.33	133	-0.053	-0.978	-0.203	-0.286479	-0.1718874	-0.286479	78.5525418	-3.11689152	-23.1761511
1.34	134	-0.053	-0.978	-0.203	-0.2291832	-0.4010706	-0.1718874	78.54681222	-3.11689152	-23.18188068
1.35	135	-0.054	-0.979	-0.202	-0.286479	-0.4010706	-0.0572958	78.4665981	-3.10543236	-23.1761511
1.36	136	-0.055	-0.978	-0.203	-0.5156622	-0.3437748	0	78.46086852	-3.10543236	-23.1761511
1.37	137	-0.054	-0.977	-0.201	-0.1718874	-0.4010706	0.0572958	78.46086852	-3.11116194	-23.18188068
1.38	138	-0.057	-0.981	-0.2	-0.1145916	-0.4010706	0.1145916	78.46086852	-3.11116194	-23.18761026
1.39	139	-0.058	-0.981	-0.203	-0.1718874	-0.4010706	0.1145916	78.45513894	-3.11116194	-23.19333984
1.4	140	-0.059	-0.982	-0.203	-0.0572958	-0.4010706	0	78.3520065	-3.11689152	-23.18761026
1.41	141	-0.057	-0.983	-0.203	-0.1718874	-0.4010706	-0.1718874	78.3520065	-3.11689152	-23.19333984
1.42	142	-0.055	-0.983	-0.201	0.0572958	-0.5156622	-0.286479	78.3520065	-3.11116194	-23.19906942
1.43	143	-0.053	-0.983	-0.199	0.0572958	-0.5156622	-0.286479	78.3520065	-3.11116194	-23.204799
1.44	144	-0.051	-0.988	-0.197	0.1145916	-0.6302538	-0.286479	78.35773608	-3.11116194	-23.21052858
1.45	145	-0.052	-0.991	-0.202	-0.3437748	-0.4583664	-0.1145916	78.30044028	-3.0939732	-23.21052858
1.46	146	-0.054	-0.988	-0.203	-0.7448454	-0.6302538	0	78.2947107	-3.09970278	-23.21625816
1.47	147	-0.054	-0.985	-0.202	-0.7448454	-0.572958	-0.1145916	78.28898112	-3.09970278	-23.22198774
1.48	148	-0.056	-0.98	-0.204	-0.9167328	-0.572958	-0.4583664	78.27752196	-3.0939732	-23.22771732
1.49	149	-0.056	-0.978	-0.201	-0.5156622	-0.4583664	-0.4583664	78.27179238	-3.08824362	-23.2334469
1.5	150	-0.056	-0.979	-0.202	-0.1718874	-0.4010706	-0.4583664	78.21449658	-3.08824362	-23.2334469
1.51	151	-0.057	-0.982	-0.201	-0.1145916	-0.3437748	-0.286479	78.208767	-3.08251404	-23.23917648
1.52	152	-0.058	-0.985	-0.2	0	-0.3437748	-0.1145916	78.208767	-3.08251404	-23.24490606
1.53	153	-0.056	-0.983	-0.202	-0.1145916	-0.1145916	0.0572958	78.208767	-3.08251404	-23.24490606
1.54	154	-0.057	-0.979	-0.203	-0.1145916	-0.2291832	0.1145916	78.208767	-3.08251404	-23.24490606
1.55	155	-0.058	-0.977	-0.203	0.1145916	-0.3437748	0.0572958	78.14001204	-3.09970278	-23.25063564
1.56	156	-0.06	-0.977	-0.198	0.4583664	-0.4583664	-0.0572958	78.14574162	-3.09970278	-23.25636522
1.57	157	-0.06	-0.982	-0.198	0.5156622	-0.4583664	-0.2291832	78.1514712	-3.09970278	-23.2620948
1.58	158	-0.059	-0.985	-0.2	0.1145916	-0.1718874	-0.286479	78.1514712	-3.0939732	-23.2620948
1.59	159	-0.056	-0.987	-0.197	0.2291832	0.1145916	-0.2291832	78.1514712	-3.0939732	-23.2620948
1.6	160	-0.055	-0.987	-0.199	0	0.1145916	-0.1718874	78.00250212	-3.0653253	-23.24490606
1.61	161	-0.055	-0.983	-0.202	-0.1145916	0.0572958	0	78.00250212	-3.0653253	-23.23917648
1.62	162	-0.058	-0.979	-0.2	0.1718874	-0.0572958	0.1145916	78.00250212	-3.0653253	-23.24490606
1.63	163	-0.059	-0.978	-0.2	0.0572958	0	0.1718874	78.00250212	-3.0653253	-23.23917648
1.64	164	-0.06	-0.977	-0.2	0.1145916	0.1718874	0.0572958	78.00250212	-3.07105488	-23.23917648
1.65	165	-0.059	-0.978	-0.197	0.1718874	0.286479	0	77.94520632	-3.07678446	-23.2334469
1.66	166	-0.057	-0.98	-0.201	-0.2291832	0.4583664	-0.1145916	77.93947674	-3.07678446	-23.22771732
1.67	167	-0.054	-0.981	-0.202	-0.286479	0.5156622	0	77.93374716	-3.07678446	-23.22198774
1.68	168	-0.053	-0.983	-0.198	0	0.4010706	-0.0572958	77.93374716	-3.07105488	-23.22198774
1.69	169	-0.053	-0.981	-0.197	-0.1145916	0.1145916	-0.1145916	77.93374716	-3.07105488	-23.22198774
1.7	170	-0.052	-0.98	-0.2	-0.1718874	0.0572958	-0.2291832	77.88218094	-3.05386614	-23.21052858
1.71	171	-0.054	-0.979	-0.201	-0.1145916	0.0572958	-0.1145916	77.87645136	-3.04813656	-23.21052858
1.72	172	-0.053	-0.984	-0.197	0.1145916	0.1145916	0	77.88218094	-3.04813656	-23.21052858
1.73	173	-0.053	-0.988	-0.201	0.0572958	0.1718874	0	77.88218094	-3.04813656	-23.204799
1.74	174	-0.052	-0.985	-0.203	-0.2291832	0.3437748	0.0572958	77.87645136	-3.04813656	-23.204799
1.75	175	-0.055	-0.982	-0.203	0.0572958	0	0.1145916	77.635809	-3.07105488	-23.19333984
1.76	176	-0.058	-0.979	-0.206	-0.2291832	0.0572958	0	77.635809	-3.07105488	-23.19333984
1.77	177	-0.057	-0.977	-0.203	-0.1145916	0.1145916	-0.1718874	77.635809	-3.07105488	-23.18761026
1.78	178	-0.055	-0.977	-0.205	0	0.1145916	-0.3437748	77.635809	-3.0653253	-23.18761026
1.79	179	-0.053	-0.977	-0.202	0	0.1718874	-0.3437748	77.635809	-3.0653253	-23.18761026
1.8	180	-0.053	-0.978	-0.2	0	0.1718874	-0.1718874	77.56132446	-3.0366774	-23.1761511
1.81	181	-0.052	-0.981	-0.203	-0.286479	0.1718874	0.0572958	77.55559488	-3.0366774	-23.1761511
1.82	182	-0.052	-0.982	-0.202	-0.1145916	0.1718874	0.2291832	77.55559488	-3.04240698	-23.17042152
1.83	183	-0.052	-0.983	-0.202	0.1145916	0.2291832	0.2291832	77.55559488	-3.04240698	-23.17042152
1.84	184	-0.053	-0.985	-0.203	0.1718874	0.1718874	0.1718874	77.55559488	-3.04813656	-23.16469194
1.85	185	-0.053	-0.989	-0.201	0.3437748	0	0.1145916	77.52694698	-3.03094782	-23.15896236
1.86	186	-0.052	-0.989	-0.205	0.0572958	0	0	77.52694698	-3.03094782	-23.15896236
1.87	187	-0.053	-0.983	-0.202	0.2291832	-0.1145916	0.0572958	77.53267656	-3.03094782	-23.15896236
1.88	188	-0.053	-0.981	-0.201	0.0572958	-0.1145916	0.0572958	77.53267656	-3.0366774	-23.15896236
1.89	189	-0.054	-0.977	-0.203	0	0	0.1145916	77.53267656	-3.0366774	-23.15896236
1.9	190	-0.054	-0.976	-0.205	0.286479	0.1145916	0.1145916	77.49829908	-3.03094782	-23.15323278
1.91	191	-0.053	-0.979	-0.203	0.6875496	0.1718874	0.1718874	77.50975824	-3.03094782	-23.15323278
1.92	192	-0.051	-0.98	-0.201	0.8021412	0.0572958	0.2291832	77.51548782	-3.03094782	-23.1475032
1.93	193	-0.051	-0.979	-0.202	0.9740286	-0.1145916	0.286479	77.52694698	-3.0366774	-23.15323278
1.94	194	-0.054	-0.981	-0.199	1.3178034	-0.3437748	0.2291832	77.53840614	-3.0366774	-23.15323278
1.95	195	-0.053	-0.983	-0.195	1.2032118	-0.2291832	0.286479	77.5498653	-3.0366774	-23.15323278
1.96	196	-0.055	-0.984	-0.196	0.9167328	0	0.3437748	77.56132446	-3.04240698	-23.15323278
1.97	197	-0.055	-0.984	-0.199	0.572958	0.1718874	0.4010706	77.56705404	-3.04240698	-23.1475032
1.98	198	-0.055	-0.985	-0.204	0.286479	0.3437748	0.3437748	77.56705404	-3.04813656	-23.1475032
1.99	199	-0.056	-0.981	-0.203	0.2291832	0.286479	0.3437748	77.57278362	-3.04813656	-23.14177362
2	200	-0.055	-0.977	-0.206	0	0.3437748	0.3437748	77.53267656	-3.05386614	-23.13604404
2.01	201	-0.057	-0.974	-0.211	0	0.286479	0.286479	77.53267656	-3.05959572	-23.13031446
2.02	202	-0.055	-0.973	-0.21	0.572958	0.1718874	0.1718874	77.53840614	-3.05959572	-23.13031446
2.03	203	-0.055	-0.975	-0.206	0.859437	0.1718874	0.0572958	77.5498653	-3.05959572	-23.12458488
2.04	204	-0.055	-0.976	-0.206	0.9740286	0.2291832	0.0572958	77.55559488	-3.05959572	-23.12458488
2.05	205	-0.055	-0.978	-0.207	1.2605076	0.0572958	0.1718874	77.5498653	-3.05959572	-23.1188553
2.06	206	-0.057	-0.982	-0.203	1.5469866	0	0.2291832	77.56705404	-3.05959572	-23.1188553
2.07	207	-0.058	-0.984	-0.197	1.6615782	0	0.4583664	77.58424278	-3.0653253	-23.1188553
2.08	208	-0.06	-0.986	-0.197	1.3750992	0.1145916	0.572958	77.60143152	-3.07105488	-23.1188553
2.09	209	-0.064	-0.989	-0.2	0.9740286	0.3437748	0.6302538	77.6071611	-3.07678446	-23.11312572
2.1	210	-0.061	-0.989	-0.197	0.9740286	0.572958	0.6302538	77.61289068	-3.08824362	-23.10166656
2.11	211	-0.06	-0.99	-0.198	0.8021412	0.859437	0.4583664	77.62434984	-3.08824362	-23.09593698
2.12	212	-0.058	-0.988	-0.203	0.5156622	0.9740286	0.4010706	77.63007942	-3.0939732	-23.08447782
2.13	213	-0.056	-0.986	-0.204	0.4583664	0.9740286	0.3437748	77.63007942	-3.0939732	-23.07301866
2.14	214	-0.052	-0.984	-0.206	0.4010706	0.9740286	0.4010706	77.635809	-3.0939732	-23.0615595
2.15	215	-0.053	-0.978	-0.203	0.6875496	0.7448454	0.286479	77.63007942	-3.0939732	-23.05010034
2.16	216	-0.055	-0.974	-0.199	0.9167328	0.6302538	0.1145916	77.64153858	-3.0939732	-23.04437076
2.17	217	-0.057	-0.974	-0.2	1.2032118	0.4583664	0.1145916	77.65299774	-3.0939732	-23.03864118
2.18	218	-0.059	-0.977	-0.197	1.432395	0.5156622	0.2291832	77.6644569	-3.0939732	-23.0329116
2.19	219	-0.06	-0.981	-0.195	1.3178034	0.6875496	0.1718874	77.67591606	-3.0939732	-23.02718202
2.2	220	-0.059	-0.983	-0.198	1.3178034	0.6875496	0.2291832	77.68164564	-3.09970278	-23.02145244
2.21	221	-0.059	-0.982	-0.196	1.2605076	0.7448454	0.3437748	77.69883438	-3.09970278	-23.00999328
2.22	222	-0.058	-0.982	-0.198	1.2032118	0.8021412	0.5156622	77.71029354	-3.10543236	-22.99853412
2.23	223	-0.057	-0.981	-0.199	1.432395	0.8021412	0.6302538	77.7217527	-3.11116194	-22.99280454
2.24	224	-0.058	-0.979	-0.2	1.5469866	0.859437	0.5156622	77.73894144	-3.11116194	-22.98134538
2.25	225	-0.056	-0.977	-0.199	1.8907614	1.0313244	0.286479	77.7504006	-3.11689152	-22.96988622
2.26	226	-0.056	-0.978	-0.199	2.1772404	1.145916	0.2291832	77.76758934	-3.11689152	-22.95842706
2.27	227	-0.056	-0.977	-0.199	2.3491278	1.145916	0.2291832	77.79050766	-3.11689152	-22.9469679
2.28	228	-0.056	-0.976	-0.197	2.6929026	1.145916	0.1718874	77.81915556	-3.11116194	-22.93550874
2.29	229	-0.057	-0.976	-0.195	2.8074942	0.9167328	0.1718874	77.84780346	-3.11116194	-22.92404958
2.3	230	-0.061	-0.976	-0.196	2.6929026	0.8021412	0.286479	77.87072178	-3.11689152	-22.91259042
2.31	231	-0.061	-0.981	-0.196	3.0939732	0.859437	0.5156622	77.89936968	-3.1226211	-22.90686084
2.32	232	-0.061	-0.983	-0.2	3.0939732	0.859437	0.4583664	77.92801758	-3.1226211	-22.89540168
2.33	233	-0.059	-0.984	-0.199	3.3804522	0.8021412	0.3437748	77.96239506	-3.12835068	-22.88394252
2.34	234	-0.057	-0.982	-0.194	3.6669312	0.9740286	0.1145916	78.00250212	-3.12835068	-22.87248336
2.35	235	-0.053	-0.981	-0.188	3.6669312	1.3178034	-0.0572958	78.0368796	-3.11689152	-22.8610242
2.36	236	-0.054	-0.979	-0.189	3.2658606	1.432395	-0.0572958	78.07125708	-3.11689152	-22.84383546
2.37	237	-0.053	-0.976	-0.195	3.151269	1.5469866	0.1145916	78.09990498	-3.11689152	-22.8323763
2.38	238	-0.051	-0.973	-0.194	3.6096354	1.2032118	0.3437748	78.13428246	-3.11689152	-22.81518756
2.39	239	-0.05	-0.974	-0.188	4.0680018	0.4010706	0.5156622	78.17438952	-3.11689152	-22.80945798
2.4	240	-0.05	-0.978	-0.188	3.7815228	-0.1145916	0.572958	78.208767	-3.1226211	-22.80945798
2.41	241	-0.049	-0.982	-0.188	3.724227	0	0.3437748	78.24887406	-3.1226211	-22.80945798
2.42	242	-0.051	-0.984	-0.19	3.724227	0	0.0572958	78.28898112	-3.1226211	-22.80945798
2.43	243	-0.055	-0.986	-0.192	4.1252976	-0.1145916	-0.1718874	78.32908818	-3.1226211	-22.80945798
2.44	244	-0.056	-0.982	-0.194	4.3544808	-0.1145916	-0.4010706	78.37492482	-3.11689152	-22.81518756
2.45	245	-0.055	-0.977	-0.192	4.6982556	0	-0.4583664	78.41503188	-3.11116194	-22.81518756
2.46	246	-0.053	-0.974	-0.191	5.0420304	0.1145916	-0.4583664	78.4665981	-3.10543236	-22.80945798
2.47	247	-0.053	-0.973	-0.191	4.9274388	0.1145916	-0.1145916	78.51816432	-3.10543236	-22.80945798
2.48	248	-0.054	-0.969	-0.19	4.6409598	0.0572958	0.1718874	78.56400096	-3.10543236	-22.80945798
2.49	249	-0.055	-0.97	-0.184	4.6982556	-0.2291832	0.286479	78.6098376	-3.11116194	-22.80945798
2.5	250	-0.056	-0.973	-0.19	3.9534102	-0.4010706	0.286479	78.6384855	-3.11116194	-22.80945798
2.51	251	-0.056	-0.978	-0.197	4.0680018	-0.2291832	0.3437748	78.67859256	-3.11689152	-22.81518756
2.52	252	-0.052	-0.985	-0.188	4.9847346	-0.1718874	0.4010706	78.73015878	-3.11689152	-22.81518756
2.53	253	-0.051	-0.991	-0.187	4.6982556	-0.4583664	0.286479	78.781725	-3.1226211	-22.81518756
2.54	254	-0.053	-0.993	-0.191	4.6982556	-0.9740286	0.2291832	78.82756164	-3.12835068	-22.82664672
2.55	255	-0.055	-0.994	-0.184	5.0993262	-1.2605076	0.1718874	78.87912786	-3.12835068	-22.83810588
2.56	256	-0.06	-0.991	-0.18	5.0993262	-1.432395	-0.0572958	78.93069408	-3.12835068	-22.84956504
2.57	257	-0.06	-0.985	-0.182	4.9847346	-1.0313244	-0.3437748	78.9822603	-3.12835068	-22.8610242
2.58	258	-0.059	-0.98	-0.182	5.5576926	-0.572958	-0.4583664	79.0395561	-3.1226211	-22.86675378
2.59	259	-0.058	-0.976	-0.182	6.016059	-0.1145916	-0.4010706	79.10258148	-3.11689152	-22.87248336
2.6	260	-0.055	-0.971	-0.179	6.6463128	0.0572958	-0.1145916	79.15987728	-3.11689152	-22.86675378
2.61	261	-0.053	-0.97	-0.179	6.875496	-0.0572958	0	79.23436182	-3.11689152	-22.86675378
2.62	262	-0.053	-0.968	-0.18	6.9327918	-0.1145916	0.1718874	79.30311678	-3.11689152	-22.86675378
2.63	263	-0.056	-0.969	-0.175	7.3911582	-0.2291832	0.2291832	79.37760132	-3.11689152	-22.87248336
2.64	264	-0.06	-0.977	-0.176	7.2765666	-0.2291832	0.1718874	79.45208586	-3.1226211	-22.87248336
2.65	265	-0.061	-0.982	-0.18	7.3911582	-0.0572958	0	79.52084082	-3.1226211	-22.87248336
2.66	266	-0.06	-0.989	-0.187	7.9641162	0	-0.0572958	79.60105494	-3.11689152	-22.87248336
2.67	267	-0.057	-0.99	-0.18	8.4797784	0	-0.2291832	79.68699864	-3.11689152	-22.87248336
2.68	268	-0.056	-0.985	-0.179	8.7662574	-0.286479	-0.286479	79.77867192	-3.11116194	-22.87248336
2.69	269	-0.054	-0.976	-0.178	9.167328	-0.4010706	-0.3437748	79.8703452	-3.10543236	-22.87821294
2.7	270	-0.054	-0.972	-0.176	10.313244	-0.4010706	-0.286479	79.96774806	-3.10543236	-22.87821294
2.71	271	-0.052	-0.974	-0.175	11.0007936	-0.2291832	-0.1145916	80.08233966	-3.09970278	-22.88394252
2.72	272	-0.051	-0.975	-0.172	11.45916	-0.4583664	-0.0572958	80.19693126	-3.09970278	-22.88394252
2.73	273	-0.053	-0.976	-0.171	11.6310474	-0.6875496	0.0572958	80.31725244	-3.09970278	-22.8896721
2.74	274	-0.055	-0.977	-0.166	11.9175264	-0.8021412	0.2291832	80.43757362	-3.10543236	-22.90113126
2.75	275	-0.057	-0.977	-0.159	12.032118	-0.4583664	0.1718874	80.55216522	-3.10543236	-22.90113126
2.76	276	-0.057	-0.976	-0.163	12.0894138	-0.0572958	0.2291832	80.67821598	-3.10543236	-22.90113126
2.77	277	-0.059	-0.971	-0.161	12.5477802	0.2291832	0.1145916	80.80426674	-3.10543236	-22.89540168
2.78	278	-0.059	-0.97	-0.152	13.1207382	0.3437748	0.1718874	80.93604708	-3.10543236	-22.8896721
2.79	279	-0.059	-0.969	-0.157	12.6623718	0.5156622	0.3437748	81.06782742	-3.10543236	-22.88394252
2.8	280	-0.059	-0.967	-0.161	13.0061466	0.5156622	0.572958	81.19387818	-3.11116194	-22.87821294
2.81	281	-0.058	-0.967	-0.156	13.750992	0.286479	0.572958	81.3313881	-3.11689152	-22.87248336
2.82	282	-0.054	-0.969	-0.156	13.8655836	0.3437748	0.2291832	81.46889802	-3.11689152	-22.86675378
2.83	283	-0.05	-0.966	-0.158	14.3812458	0.1145916	0	81.6178671	-3.11689152	-22.86675378
2.84	284	-0.049	-0.966	-0.149	15.4125702	-0.286479	-0.2291832	81.77256576	-3.11116194	-22.86675378
2.85	285	-0.049	-0.968	-0.148	15.9282324	-0.4583664	-0.4010706	81.92726442	-3.10543236	-22.86675378
2.86	286	-0.05	-0.969	-0.147	16.6730778	-0.3437748	-0.286479	82.09915182	-3.09970278	-22.87248336
2.87	287	-0.051	-0.973	-0.14	17.761698	-0.1145916	-0.1718874	82.2767688	-3.09970278	-22.87248336
2.88	288	-0.053	-0.976	-0.136	18.2773602	-0.2291832	0	82.46584494	-3.0939732	-22.87248336
2.89	289	-0.055	-0.978	-0.136	18.6784308	-0.286479	0.2291832	82.65492108	-3.0939732	-22.87248336
2.9	290	-0.057	-0.982	-0.134	19.0222056	-0.2291832	0.4010706	82.84399722	-3.09970278	-22.87248336
2.91	291	-0.055	-0.984	-0.128	19.3086846	-0.2291832	0.4583664	83.03880294	-3.09970278	-22.87248336
2.92	292	-0.053	-0.985	-0.133	19.2513888	-0.1718874	0.286479	83.23360866	-3.10543236	-22.87248336
2.93	293	-0.051	-0.98	-0.127	19.8816426	-0.286479	0.286479	83.43414396	-3.10543236	-22.87248336
2.94	294	-0.048	-0.977	-0.121	20.2254174	-0.4583664	0.1145916	83.64040884	-3.10543236	-22.87248336
2.95	295	-0.048	-0.971	-0.121	20.1681216	-0.572958	0.1718874	83.84094414	-3.10543236	-22.87821294
2.96	296	-0.047	-0.967	-0.115	20.7983754	-0.7448454	0.2291832	84.0529386	-3.10543236	-22.88394252
2.97	297	-0.047	-0.968	-0.111	21.199446	-0.859437	0.2291832	84.27066264	-3.10543236	-22.8896721
2.98	298	-0.048	-0.968	-0.11	21.7151082	-1.2032118	0.3437748	84.49411626	-3.11116194	-22.90113126
2.99	299	-0.05	-0.972	-0.104	22.5172494	-1.3178034	0.4010706	84.72329946	-3.11116194	-22.90686084
3	300	-0.051	-0.974	-0.099	22.8610242	-1.2605076	0.5156622	84.94675308	-3.11689152	-22.91832
3.01	301	-0.052	-0.975	-0.097	23.1475032	-1.145916	0.5156622	85.18739544	-3.1226211	-22.92977916
3.02	302	-0.053	-0.979	-0.091	23.777757	-0.9740286	0.4583664	85.4280378	-3.1226211	-22.93550874
3.03	303	-0.056	-0.986	-0.092	24.5798982	-1.2605076	0.4010706	85.68013932	-3.12835068	-22.9469679
3.04	304	-0.058	-0.984	-0.091	25.0382646	-1.432395	0.286479	85.93224084	-3.12835068	-22.95269748
3.05	305	-0.056	-0.977	-0.081	26.069589	-1.432395	0.0572958	86.19580152	-3.12835068	-22.96415664
3.06	306	-0.054	-0.972	-0.075	26.4706596	-1.432395	-0.286479	86.46509178	-3.1226211	-22.9756158
3.07	307	-0.056	-0.971	-0.081	26.642547	-1.0886202	-0.4583664	86.73438204	-3.11116194	-22.98707496
3.08	308	-0.056	-0.969	-0.067	27.9030546	-1.2605076	-0.4583664	87.02086104	-3.10543236	-22.99853412
3.09	309	-0.059	-0.966	-0.058	28.361421	-1.718874	-0.286479	87.30734004	-3.09970278	-23.00999328
3.1	310	-0.06	-0.964	-0.06	28.3041252	-1.8907614	0	87.59381904	-3.09970278	-23.02718202
3.11	311	-0.058	-0.962	-0.046	29.9657034	-2.0626488	0	87.89748678	-3.0939732	-23.04437076
3.12	312	-0.056	-0.96	-0.043	30.5386614	-1.7761698	-0.1145916	88.21261368	-3.0939732	-23.05582992
3.13	313	-0.056	-0.966	-0.054	30.7105488	-1.4896908	-0.1718874	88.522011	-3.08824362	-23.06728908
3.14	314	-0.057	-0.966	-0.046	32.085648	-1.2605076	-0.1145916	88.84859706	-3.08251404	-23.07874824
3.15	315	-0.059	-0.965	-0.031	33.2888598	-1.3178034	-0.1145916	89.18664228	-3.07678446	-23.0902074
3.16	316	-0.059	-0.963	-0.034	33.5753388	-1.2605076	-0.1718874	89.5246875	-3.07678446	-23.09593698
3.17	317	-0.059	-0.963	-0.04	34.4920716	-0.859437	-0.0572958	89.87419188	-3.07105488	-23.10166656
3.18	318	-0.057	-0.96	-0.019	36.4974246	-1.0886202	0.1145916	90.24661458	-3.07105488	-23.10739614
3.19	319	-0.059	-0.956	-0.018	37.528749	-1.5469866	0.2291832	90.63049644	-3.0653253	-23.1188553
3.2	320	-0.061	-0.954	-0.019	38.6173692	-1.718874	0.286479	91.02010788	-3.0653253	-23.13031446
3.21	321	-0.058	-0.952	-0.006	39.8778768	-1.718874	0.4010706	91.42117848	-3.0653253	-23.1475032
3.22	322	-0.057	-0.951	-0.004	40.7946096	-1.6615782	0.5156622	91.83943782	-3.07105488	-23.15896236
3.23	323	-0.054	-0.951	0.005	41.8832298	-1.9480572	0.6875496	92.26342674	-3.07105488	-23.17042152
3.24	324	-0.058	-0.959	0	42.9145542	-2.2345362	0.572958	92.7046044	-3.07105488	-23.18761026
3.25	325	-0.057	-0.949	0.001	44.0031744	-2.2345362	0.2291832	93.14578206	-3.07105488	-23.204799
3.26	326	-0.057	-0.939	0.021	46.123119	-2.291832	-0.3437748	93.61560762	-3.05959572	-23.22198774
3.27	327	-0.058	-0.932	0.02	46.6387812	-2.2345362	-0.9740286	94.09116276	-3.04813656	-23.23917648
3.28	328	-0.061	-0.921	0.022	47.7274014	-1.9480572	-1.4896908	94.57244748	-3.02521824	-23.25063564
3.29	329	-0.06	-0.917	0.032	48.9306132	-1.8334656	-1.5469866	95.07092094	-3.00229992	-23.2620948
3.3	330	-0.059	-0.921	0.037	50.3630082	-1.6042824	-1.5469866	95.58085356	-2.98511118	-23.27355396
3.31	331	-0.061	-0.922	0.044	51.4516284	-1.6615782	-1.2032118	96.10224534	-2.96792244	-23.27928354
3.32	332	-0.059	-0.92	0.049	52.0818822	-1.8907614	-0.7448454	96.6293667	-2.9507337	-23.2907427
3.33	333	-0.056	-0.919	0.06	53.5142772	-2.291832	-0.5156622	97.1736768	-2.93927454	-23.30793144
3.34	334	-0.051	-0.918	0.064	54.717489	-2.005353	-0.7448454	97.73517564	-2.92781538	-23.3193906
3.35	335	-0.052	-0.911	0.066	55.2331512	-1.4896908	-0.8021412	98.2909449	-2.91062664	-23.32512018
3.36	336	-0.053	-0.905	0.071	57.2958	-1.0886202	-0.859437	98.86963248	-2.89916748	-23.33084976
3.37	337	-0.053	-0.896	0.081	58.728195	-1.0313244	-0.9167328	99.4655088	-2.88197874	-23.33084976
3.38	338	-0.05	-0.886	0.078	59.874111	-0.572958	-0.9167328	100.0728443	-2.87051958	-23.32512018
3.39	339	-0.049	-0.869	0.095	61.5356892	-0.2291832	-1.0313244	100.6973685	-2.85333084	-23.3193906
3.4	340	-0.052	-0.873	0.088	63.0826758	-0.1145916	-1.3178034	101.3333519	-2.8361421	-23.30793144
3.41	341	-0.054	-0.863	0.086	64.6869582	-0.0572958	-1.3178034	101.986524	-2.81895336	-23.30220186
3.42	342	-0.055	-0.848	0.123	68.3538894	-0.8021412	-1.0886202	102.6798032	-2.8074942	-23.29647228
3.43	343	-0.054	-0.855	0.119	70.0154676	-1.145916	-0.7448454	103.3960007	-2.79030546	-23.29647228
3.44	344	-0.054	-0.837	0.138	71.2759752	-1.0886202	-0.6875496	104.1179278	-2.7788463	-23.29647228
3.45	345	-0.062	-0.828	0.145	73.3959198	-0.6875496	-1.0886202	104.8570436	-2.76165756	-23.2907427
3.46	346	-0.071	-0.821	0.142	75.4585686	0.1718874	-1.432395	105.6190777	-2.74446882	-23.27355396
3.47	347	-0.078	-0.821	0.136	77.6931048	1.432395	-1.2032118	106.4097598	-2.73300966	-23.25063564
3.48	348	-0.08	-0.809	0.145	80.3287116	2.3491278	-1.0313244	107.2233601	-2.72728008	-23.21052858
3.49	349	-0.081	-0.784	0.152	82.219473	2.6929026	-0.859437	108.0541492	-2.72728008	-23.17042152
3.5	350	-0.078	-0.757	0.161	84.8550798	2.5210152	-0.9740286	108.9078566	-2.7215505	-23.13604404
3.51	351	-0.076	-0.733	0.177	88.2928278	2.6929026	-1.3750992	109.8016711	-2.71582092	-23.0902074
3.52	352	-0.073	-0.727	0.19	91.5013926	3.151269	-1.5469866	110.7298631	-2.71009134	-23.04437076
3.53	353	-0.076	-0.733	0.193	93.2775624	4.010706	-1.7761698	111.6752438	-2.70436176	-22.98707496
3.54	354	-0.074	-0.726	0.195	95.683986	5.156622	-2.4064236	112.6378132	-2.69863218	-22.91832
3.55	355	-0.07	-0.712	0.208	99.408213	6.4171296	-2.9220858	113.6404897	-2.69863218	-22.83810588
3.56	356	-0.066	-0.698	0.224	103.8199896	7.161975	-3.0366774	114.6890029	-2.69863218	-22.7464326
3.57	357	-0.062	-0.683	0.242	108.2317662	7.2192708	-2.1772404	115.7833526	-2.71009134	-22.6604889
3.58	358	-0.06	-0.659	0.266	112.1278806	7.161975	-0.8021412	116.9178095	-2.73300966	-22.5745452
3.59	359	-0.052	-0.646	0.283	117.5136858	6.875496	0.286479	118.1038325	-2.76738714	-22.50006066
3.6	360	-0.039	-0.647	0.314	123.5870406	6.9327918	0.572958	119.352881	-2.80176462	-22.42557612
3.61	361	-0.034	-0.673	0.357	130.1187618	6.8182002	1.0313244	120.6706844	-2.84760126	-22.35682116
3.62	362	-0.051	-0.739	0.384	137.5672158	6.4171296	2.8074942	122.0629723	-2.90489706	-22.29952536
3.63	363	-0.058	-0.801	0.4	141.9216966	6.7609044	5.2712136	123.5010969	-2.98511118	-22.25368872
3.64	364	-0.063	-0.845	0.406	141.5779218	8.0787078	7.0473834	124.9334919	-3.08824362	-22.20785208
3.65	365	-0.073	-0.885	0.365	137.9682864	10.6570188	7.6203414	126.3200503	-3.21429438	-22.1448267
3.66	366	-0.068	-0.914	0.294	133.6138056	14.3812458	7.6203414	127.6722311	-3.36326346	-22.06461258
3.67	367	-0.112	-0.937	0.231	132.9835518	17.0741484	7.161975	129.0129529	-3.52942128	-21.96148014
3.68	368	-0.066	-0.948	0.194	133.9002846	17.9335854	7.3338624	130.3594042	-3.70703826	-21.85261812
3.69	369	-0.063	-0.853	0.185	131.2646778	16.1001198	7.734933	131.6886667	-3.87319608	-21.76667442
3.7	370	-0.067	-0.709	0.165	133.0981434	15.5844576	7.2192708	133.0179293	-4.03362432	-21.6864603
3.71	371	-0.052	-0.594	0.157	135.8483418	17.5325148	5.8441716	134.3872989	-4.20551172	-21.58332786
3.72	372	-0.026	-0.543	0.121	131.5511568	17.1314442	4.010706	135.7165615	-4.36021038	-21.48019542
3.73	373	0.006	-0.485	0.07	126.05076	14.4385416	2.7501984	136.9827986	-4.48626114	-21.38852214
3.74	374	0.041	-0.281	0.046	120.4357716	11.45916	1.6042824	138.1974696	-4.58939358	-21.30830802
3.75	375	0.056	-0.128	0.035	121.180617	5.9587632	-0.286479	139.4178701	-4.63523022	-21.25101222
3.76	376	0.035	-0.186	0.03	116.0812908	-3.437748	-2.2345362	140.5981636	-4.59512316	-21.23955306
3.77	377	0.03	-0.167	0.041	104.1064686	-12.9488508	-2.578311	141.6581359	-4.48053156	-21.27966012
3.78	378	0.036	-0.156	0.048	98.4914802	-19.8816426	-2.1199446	142.666542	-4.31437374	-21.36560382
3.79	379	0.054	-0.161	0.07	97.8039306	-22.4026578	-3.5523396	143.6692185	-4.11383844	-21.4572771
3.8	380	0.071	-0.186	0.06	99.8092836	-21.6578124	-4.297185	144.6833542	-3.91330314	-21.52603206
3.81	381	0.069	-0.248	0.01	102.1011156	-20.7983754	-2.6356068	145.7318673	-3.72995658	-21.60624618
3.82	382	0.057	-0.335	-0.1	101.127087	-21.4286292	0.6302538	146.7631917	-3.56379876	-21.70937862
3.83	383	0.017	-0.366	-0.196	101.700045	-23.6058696	2.1199446	147.8059753	-3.3804522	-21.83542938
3.84	384	-0.014	-0.323	-0.261	107.2577376	-26.2987722	-0.6302538	148.9060546	-3.15699858	-21.9442914
3.85	385	-0.004	-0.282	-0.294	111.6695142	-31.7418732	-5.5003968	150.0405115	-2.85906042	-22.03596468
3.86	386	0.004	-0.227	-0.289	113.9613462	-39.4768062	-11.3445684	151.2036162	-2.4637194	-22.10471964
3.87	387	0.045	-0.142	-0.281	112.586247	-40.5654264	-16.8449652	152.3495322	-2.0340009	-22.12190838
3.88	388	0.105	-0.021	-0.215	111.2684436	-37.528749	-20.4546006	153.483989	-1.61574156	-22.0875309
3.89	389	0.189	-0.119	0.056	125.9361684	-38.6173692	-16.042824	154.767415	-1.2032118	-22.0875309
3.9	390	0.315	2.635	2.658	1211.920762	-113.159205	-68.8695516	167.0630936	0.0286479	-21.5718687
3.91	391	0.04	-0.539	-0.984	-44.4615408	-60.0459984	-17.4179232	166.6161864	0.65317212	-21.50311374
3.92	392	0.138	-1.485	1.934	46.409598	60.3897732	3.0939732	167.0802824	0.0572958	-21.40571088
3.93	393	-0.124	-2.093	3.843	262.128285	36.2682414	-2.3491278	169.7388075	-0.30939732	-21.29111928
3.94	394	-0.185	-1.265	3.999	282.2391108	27.6738714	2.2345362	172.5978679	-0.61306506	-21.25101222
3.95	395	-0.37	-0.207	3.999	287.8540992	6.875496	2.6356068	175.5199537	-0.7161975	-21.24528264
3.96	396	-0.216	0.155	3.999	273.300966	5.3285094	0.6302538	178.2873409	-0.8021412	-21.2280939
3.97	397	0.07	-0.062	3.901	221.734746	2.005353	4.4690724	-179.4561752	-0.84797784	-21.2567418
3.98	398	-0.114	-0.283	2.664	162.2617056	-12.7769634	-1.0313244	-177.8060561	-0.73911582	-21.2280939
3.99	399	-0.118	-0.266	2.096	132.639777	-37.9298196	-4.3544808	-176.4538753	-0.38388186	-21.1421502
4	400	-0.134	-0.353	2.036	123.8162238	-57.2958	2.4637194	-175.1933677	0.16042824	-21.10204314
4.01	401	0.3	-0.268	1.965	130.4052408	-62.8534926	7.0473834	-173.8583755	0.76776372	-21.0848544
4.02	402	0.133	-0.056	1.673	118.4877144	-51.9099948	6.1879464	-172.6494341	1.27196676	-21.06766566
4.03	403	0.295	0.563	1.423	48.128472	-19.7097552	8.7089616	-172.1624198	1.46677248	-21.11923188
4.04	404	-0.16	0.157	1.028	-11.2872726	-10.1986524	12.4331886	-172.2770114	1.58709366	-21.22236432
4.05	405	-0.042	0.242	1.009	-25.496631	-5.9014674	16.6730778	-172.5119242	1.6615782	-21.38279256
4.06	406	-0.062	0.41	0.907	-26.069589	2.578311	11.0580894	-172.7754849	1.65584862	-21.49738416
4.07	407	0.106	-0.116	0.949	-6.875496	10.8289062	0.859437	-172.8499694	1.55271618	-21.52030248
4.08	408	-0.048	-0.716	0.964	50.706783	11.6310474	-5.0420304	-172.3343072	1.42666542	-21.485925
4.09	409	-0.433	-2.959	1.833	-70.7030172	17.5898106	-12.032118	-173.0562343	1.24331886	-21.3999813
4.1	410	0.106	0.39	0.944	-109.434978	16.8449652	-13.8655836	-174.1391249	1.07716104	-21.29111928
4.11	411	0.037	0.245	0.914	-103.6481022	16.4438946	4.583664	-175.1933677	0.93392154	-21.36560382
4.12	412	0.028	-0.124	0.969	-90.9857304	19.5378678	13.4072172	-176.1215596	0.76203414	-21.52603206
4.13	413	0.075	0.156	0.703	-72.8802576	14.7250206	15.3552744	-176.866405	0.63598338	-21.69218988
4.14	414	0.01	0.22	0.75	-59.7022236	9.3965112	10.0840608	-177.4737405	0.55576926	-21.80678148
4.15	415	0.019	0.799	0.531	-35.236917	9.5683986	16.4438946	-177.6800054	0.47555514	-21.97866888
4.16	416	0.023	0.505	0.647	-9.9121734	5.156622	3.8961144	-177.7831378	0.4297185	-22.01877594
4.17	417	0.028	0.238	0.658	-22.4026578	7.448454	2.5210152	-178.012321	0.35523396	-22.05315342
4.18	418	0.061	0.11	0.701	-26.069589	7.734933	-0.4010706	-178.2758817	0.286479	-22.05315342
4.19	419	0.057	0.126	0.655	-27.3873924	11.5164558	-1.718874	-178.5566311	0.1718874	-22.04742384
4.2	420	0.042	0.228	0.569	-32.4294228	16.4438946	-2.4064236	-178.8774876	0.01718874	-22.0302351
4.21	421	0.026	0.266	0.662	-38.961144	16.7303736	-3.437748	-179.2728286	-0.13750992	-22.00731678
4.22	422	-0.042	0.246	0.715	-41.3675676	18.621135	-3.8388186	-179.6968175	-0.32085648	-21.97866888
4.23	423	-0.056	0.203	0.706	-43.2010332	20.2254174	-2.578311	179.8572458	-0.5156622	-21.96148014
4.24	424	0	0.237	0.748	-41.3675676	18.7930224	-1.432395	179.4332569	-0.69327918	-21.95575056
4.25	425	-0.04	0.185	0.804	-37.9871154	18.8503182	-0.9167328	179.0436454	-0.88235532	-21.95575056
4.26	426	0.009	-0.079	0.884	-34.3201842	18.7930224	-1.2605076	178.694141	-1.0599723	-21.9442914
4.27	427	-0.026	-0.059	1.061	-28.6479	16.5011904	-2.005353	178.4019325	-1.22040054	-21.92710266
4.28	428	-0.053	-0.018	1.135	-26.4133638	13.9801752	-2.4064236	178.1326422	-1.35791046	-21.90418434
4.29	429	0.029	-0.013	1.219	-20.2827132	10.4851314	-0.572958	177.9206477	-1.45531332	-21.89845476
4.3	430	-0.186	-0.126	1.222	-12.0894138	10.7716104	1.0886202	177.7888674	-1.5756345	-21.90991392
4.31	431	-0.02	-0.158	1.266	-2.3491278	5.3858052	1.7761698	177.7602195	-1.62720072	-21.92710266
4.32	432	-0.072	-0.213	1.232	6.4171296	2.005353	0.9740286	177.8289745	-1.65011904	-21.93856182
4.33	433	-0.034	-0.22	1.199	15.9282324	-0.4583664	-0.2291832	177.9894027	-1.64438946	-21.93283224
4.34	434	-0.061	-0.246	1.2	20.626488	-2.7501984	-0.3437748	178.2013972	-1.62147114	-21.92710266
4.35	435	-0.051	-0.185	1.157	21.3713334	-2.9793816	-0.286479	178.3962029	-1.59855282	-21.92710266
4.36	436	-0.062	-0.183	1.095	20.7410796	-2.4637194	-0.4010706	178.6081973	-1.5756345	-21.9156435
4.37	437	-0.04	-0.143	1.028	20.4546006	-0.1718874	0	178.8144622	-1.5756345	-21.9156435
4.38	438	-0.037	-0.16	1.001	18.6784308	2.3491278	0.4010706	179.0035384	-1.59855282	-21.92137308
4.39	439	-0.044	-0.157	0.953	13.0634424	5.0993262	0.1718874	179.1353187	-1.65011904	-21.92137308
4.4	440	-0.035	-0.127	0.895	9.9121734	6.3598338	-0.1145916	179.1983441	-1.718874	-21.9156435
4.41	441	-0.021	-0.114	0.883	6.2452422	7.448454	-0.1145916	179.2613695	-1.79908812	-21.9156435
4.42	442	-0.03	-0.106	0.871	1.2032118	8.3651868	-0.286479	179.2728286	-1.87930224	-21.9156435
4.43	443	-0.043	-0.109	0.863	-2.4064236	9.3392154	-0.4010706	179.2499103	-1.97097552	-21.90991392
4.44	444	-0.028	-0.155	0.885	-5.9014674	9.7975818	-0.5156622	179.1868849	-2.06837838	-21.90991392
4.45	445	-0.037	-0.121	0.881	-7.3338624	9.1100322	-0.5156622	179.0837525	-2.16005166	-21.90418434
4.46	446	-0.036	-0.129	0.897	-7.1046792	8.021412	-0.5156622	179.0092679	-2.2345362	-21.89845476
4.47	447	-0.038	-0.143	0.924	-7.2765666	6.1306506	-0.4010706	178.9347834	-2.29756158	-21.89845476
4.48	448	-0.044	-0.139	0.942	-6.5317212	3.151269	-0.2291832	178.8660284	-2.32620948	-21.89272518
4.49	449	-0.052	-0.14	0.969	-5.5576926	0.4010706	-0.1145916	178.8087326	-2.33193906	-21.89272518
4.5	450	-0.056	-0.139	0.997	-4.7555514	-2.0626488	0	178.6712227	-2.32620948	-21.89272518
4.51	451	-0.063	-0.144	1.02	-3.7815228	-3.6669312	0.1145916	178.6311157	-2.28610242	-21.89272518
4.52	452	-0.057	-0.147	1.042	-2.6929026	-4.6982556	0.1145916	178.6081973	-2.24026578	-21.89272518
4.53	453	-0.055	-0.146	1.053	-1.718874	-4.9274388	0.2291832	178.5910086	-2.19442914	-21.89845476
4.54	454	-0.05	-0.144	1.052	-1.2032118	-4.583664	0.286479	178.5795494	-2.1485925	-21.89845476
4.55	455	-0.028	-0.139	1.047	-1.0313244	-4.010706	0.1145916	178.4592283	-2.13140376	-21.89845476
4.56	456	-0.068	-0.148	1.038	-1.432395	-2.86479	0.0572958	178.4420395	-2.10275586	-21.90418434
4.57	457	-0.059	-0.141	1.027	-1.7761698	-2.3491278	0.1718874	178.4248508	-2.07983754	-21.90418434
4.58	458	-0.047	-0.143	1.009	-2.4064236	-2.1199446	0.0572958	178.4019325	-2.05691922	-21.90418434
4.59	459	-0.048	-0.141	0.998	-3.2085648	-1.8334656	0	178.367555	-2.03973048	-21.90418434
4.6	460	-0.043	-0.134	0.995	-3.9534102	-1.7761698	-0.0572958	178.2300451	-2.02254174	-21.89845476
4.61	461	-0.042	-0.134	0.995	-4.0680018	-2.0626488	-0.1145916	178.189938	-2.005353	-21.89845476
4.62	462	-0.044	-0.132	0.992	-3.7815228	-2.005353	-0.1145916	178.1498309	-1.98243468	-21.89845476
4.63	463	-0.047	-0.133	0.992	-2.8074942	-2.0626488	-0.1145916	178.121183	-1.96524594	-21.89845476
4.64	464	-0.044	-0.134	0.997	-1.8907614	-2.1199446	-0.0572958	178.1039943	-1.94232762	-21.89845476
4.65	465	-0.045	-0.134	1.004	-1.432395	-2.005353	-0.0572958	177.9091886	-1.93659804	-21.89272518
4.66	466	-0.046	-0.134	1.008	-0.6875496	-1.8334656	0	177.903459	-1.9194093	-21.89272518
4.67	467	-0.041	-0.136	1.01	0	-1.6615782	0.0572958	177.903459	-1.90222056	-21.89272518
4.68	468	-0.041	-0.135	1.012	0.1718874	-1.6042824	0	177.903459	-1.88503182	-21.89272518
4.69	469	-0.044	-0.136	1.012	0.2291832	-1.4896908	0.0572958	177.9091886	-1.87357266	-21.89272518
4.7	470	-0.042	-0.135	1.014	0.1145916	-1.432395	0.0572958	177.5826025	-1.87930224	-21.8869956
4.71	471	-0.041	-0.135	1.017	-0.3437748	-1.0886202	0	177.5768729	-1.86784308	-21.8869956
4.72	472	-0.04	-0.135	1.02	-0.9167328	-0.8021412	-0.0572958	177.5711434	-1.8621135	-21.8869956
4.73	473	-0.04	-0.134	1.02	-1.3750992	-0.572958	-0.0572958	177.5539546	-1.85638392	-21.8869956
4.74	474	-0.041	-0.135	1.019	-1.8907614	-0.4583664	-0.0572958	177.5367659	-1.85065434	-21.8869956
4.75	475	-0.041	-0.136	1.019	-2.4637194	-0.5156622	0	177.3648785	-1.85638392	-21.88126602
4.76	476	-0.041	-0.137	1.017	-2.86479	-0.572958	0	177.3362306	-1.84492476	-21.88126602
4.77	477	-0.04	-0.136	1.016	-2.9220858	-0.572958	0	177.3018531	-1.83919518	-21.88126602
4.78	478	-0.04	-0.138	1.015	-2.6929026	-0.5156622	0	177.2789348	-1.8334656	-21.88126602
4.79	479	-0.041	-0.139	1.015	-2.1199446	-0.572958	0	177.2560165	-1.82773602	-21.88126602
4.8	480	-0.041	-0.141	1.016	-1.2605076	-0.286479	0.0572958	176.9007825	-1.85065434	-21.86980686
4.81	481	-0.041	-0.141	1.016	-0.4583664	-0.1718874	0.0572958	176.8950529	-1.85065434	-21.86980686
4.82	482	-0.042	-0.142	1.018	0.4583664	0.1145916	0	176.9007825	-1.85065434	-21.86980686
4.83	483	-0.043	-0.143	1.017	1.4896908	0.286479	0.0572958	176.9122417	-1.85638392	-21.87553644
4.84	484	-0.043	-0.143	1.017	2.0626488	0.3437748	0.0572958	176.93516	-1.85638392	-21.87553644
4.85	485	-0.041	-0.143	1.016	2.4064236	0.4583664	0.1145916	176.8148388	-1.87357266	-21.86980686
4.86	486	-0.042	-0.142	1.013	2.4637194	0.5156622	0.0572958	176.8434867	-1.87930224	-21.86980686
4.87	487	-0.042	-0.141	1.009	2.2345362	0.572958	0.1145916	176.866405	-1.88503182	-21.86980686
4.88	488	-0.042	-0.141	1.006	1.9480572	0.8021412	0.0572958	176.8835938	-1.89649098	-21.86980686
4.89	489	-0.042	-0.14	1.005	1.6042824	1.0313244	0.0572958	176.9007825	-1.90795014	-21.87553644
4.9	490	-0.042	-0.14	1.004	1.0313244	1.3178034	0.0572958	176.7231655	-1.93086846	-21.86980686
4.91	491	-0.042	-0.14	1.001	0.6875496	1.8334656	0.0572958	176.7288951	-1.9480572	-21.86980686
4.92	492	-0.043	-0.14	1.001	0.2291832	2.2345362	0.0572958	176.7346247	-1.97097552	-21.86980686
4.93	493	-0.043	-0.14	1	-0.1718874	2.4064236	0	176.7288951	-1.99389384	-21.86980686
4.94	494	-0.043	-0.141	1.002	-0.5156622	2.6356068	0.0572958	176.7231655	-2.02254174	-21.86980686
4.95	495	-0.044	-0.14	1.003	-0.8021412	2.5210152	0.1145916	176.5913852	-2.05691922	-21.86407728
4.96	496	-0.045	-0.14	1.003	-0.9167328	2.3491278	0.1145916	176.5856556	-2.07983754	-21.86407728
4.97	497	-0.046	-0.141	1.003	-0.8021412	2.1199446	0.1145916	176.5741964	-2.10275586	-21.86407728
4.98	498	-0.045	-0.141	1.002	-0.7448454	1.6615782	0.0572958	176.5684669	-2.11421502	-21.86407728
4.99	499	-0.046	-0.142	1.003	-0.572958	1.3178034	0.1145916	176.5627373	-2.13140376	-21.86980686
5	500	-0.045	-0.143	1.004	-0.4583664	0.7448454	0.1145916	176.2246921	-2.16005166	-21.8583477
5.01	501	-0.047	-0.141	1.008	-0.286479	0.2291832	0.1718874	176.2189625	-2.16578124	-21.8583477
5.02	502	-0.046	-0.141	1.009	-0.2291832	0	0.1145916	176.2189625	-2.16578124	-21.8583477
5.03	503	-0.047	-0.141	1.009	-0.1718874	-0.6302538	0.1718874	176.2132329	-2.16005166	-21.86407728
5.04	504	-0.048	-0.14	1.009	-0.286479	-0.9167328	0.0572958	176.2132329	-2.1485925	-21.86407728
5.05	505	-0.047	-0.139	1.008	-0.1145916	-1.145916	0.0572958	175.9496722	-2.15432208	-21.8583477
5.06	506	-0.048	-0.14	1.011	-0.1718874	-1.3750992	0.0572958	175.9496722	-2.14286292	-21.8583477
5.07	507	-0.046	-0.14	1.011	-0.286479	-1.3178034	0.0572958	175.9439426	-2.12567418	-21.8583477
5.08	508	-0.046	-0.139	1.012	-0.4583664	-1.2605076	0.0572958	175.9382131	-2.11421502	-21.8583477
5.09	509	-0.046	-0.14	1.012	-0.6302538	-1.2032118	0.0572958	175.9324835	-2.10275586	-21.86407728
5.1	510	-0.046	-0.14	1.011	-0.6875496	-0.9740286	0.0572958	175.7262186	-2.11421502	-21.8583477
5.11	511	-0.045	-0.14	1.012	-0.859437	-0.9740286	0	175.720489	-2.10275586	-21.8583477
5.12	512	-0.045	-0.138	1.01	-1.0313244	-0.8021412	0.0572958	175.7090299	-2.09702628	-21.8583477
5.13	513	-0.043	-0.141	1.011	-1.0313244	-0.6302538	0.0572958	175.6975707	-2.0912967	-21.8583477
5.14	514	-0.044	-0.139	1.008	-1.0313244	-0.6302538	0	175.6861115	-2.07983754	-21.8583477
5.15	515	-0.044	-0.14	1.006	-0.859437	-0.4583664	0	175.4110917	-2.09702628	-21.85261812
5.16	516	-0.045	-0.139	1.006	-0.6875496	-0.3437748	0	175.4053621	-2.0912967	-21.85261812
5.17	517	-0.045	-0.14	1.007	-0.4010706	-0.2291832	0.0572958	175.3996325	-2.0912967	-21.85261812
5.18	518	-0.043	-0.14	1.01	-0.2291832	-0.3437748	0.0572958	175.3996325	-2.08556712	-21.85261812
5.19	519	-0.043	-0.142	1.012	0.0572958	-0.3437748	0.0572958	175.3996325	-2.08556712	-21.8583477
5.2	520	-0.043	-0.141	1.009	0.1145916	-0.3437748	0	174.929807	-2.11421502	-21.84115896
5.21	521	-0.042	-0.143	1.008	0.2291832	0	0	174.929807	-2.11421502	-21.84115896
5.22	522	-0.041	-0.143	1.008	0.0572958	0.3437748	0	174.929807	-2.1199446	-21.84115896
5.23	523	-0.043	-0.144	1.009	0.1145916	0	0	174.9355366	-2.1199446	-21.84115896
5.24	524	-0.045	-0.144	1.016	0.1718874	-0.3437748	0	174.9355366	-2.11421502	-21.84115896
5.25	525	-0.045	-0.144	1.02	-0.0572958	-0.4010706	0.0572958	174.6948942	-2.12567418	-21.83542938
5.26	526	-0.043	-0.145	1.014	-0.5156622	-0.4583664	0.0572958	174.6891646	-2.12567418	-21.83542938
5.27	527	-0.044	-0.143	1.009	-0.4583664	-0.1145916	0.0572958	174.683435	-2.1199446	-21.83542938
5.28	528	-0.043	-0.143	1.005	-0.4010706	0	0.0572958	174.683435	-2.1199446	-21.83542938
5.29	529	-0.043	-0.142	1.004	-0.1718874	0.2291832	0.0572958	174.6777055	-2.12567418	-21.83542938
5.3	530	-0.043	-0.141	1.002	-0.1145916	0.4583664	0.0572958	174.4313335	-2.14286292	-21.8296998
5.31	531	-0.043	-0.142	1.005	-0.1145916	0.6302538	0.0572958	174.4313335	-2.1485925	-21.8296998
5.32	532	-0.043	-0.141	1.005	-0.3437748	0.6875496	0.0572958	174.4256039	-2.15432208	-21.8296998
5.33	533	-0.043	-0.143	1.005	-0.4010706	0.7448454	0.0572958	174.4198744	-2.16005166	-21.8296998
5.34	534	-0.044	-0.142	1.006	-0.5156622	0.6875496	0.0572958	174.4141448	-2.17151082	-21.8296998
5.35	535	-0.045	-0.142	1.005	-0.4010706	0.572958	0.1145916	174.2250686	-2.18869956	-21.82397022
5.36	536	-0.045	-0.142	1.005	-0.2291832	0.4583664	0.0572958	174.2250686	-2.19442914	-21.82397022
5.37	537	-0.045	-0.142	1.007	-0.1718874	0.3437748	0.0572958	174.2193391	-2.19442914	-21.82397022
5.38	538	-0.045	-0.142	1.009	-0.0572958	0.286479	0.0572958	174.2193391	-2.20015872	-21.82397022
5.39	539	-0.045	-0.144	1.01	0	0.1145916	0.1145916	174.2193391	-2.20015872	-21.8296998
5.4	540	-0.046	-0.143	1.009	0	0	0.0572958	173.5833557	-2.25745452	-21.80678148
5.41	541	-0.045	-0.143	1.011	0	0	0.1145916	173.5833557	-2.25745452	-21.80678148
5.42	542	-0.046	-0.143	1.009	0	-0.0572958	0.1145916	173.5833557	-2.25745452	-21.81251106
5.43	543	-0.045	-0.143	1.008	0.0572958	0	0.0572958	173.5890853	-2.25745452	-21.81251106
5.44	544	-0.044	-0.143	1.007	0	-0.0572958	0.0572958	173.5890853	-2.25745452	-21.81251106
5.45	545	-0.044	-0.143	1.007	0.0572958	-0.1145916	0.0572958	173.3255246	-2.27464326	-21.8010519
5.46	546	-0.045	-0.142	1.006	0	-0.1145916	0.0572958	173.3255246	-2.26891368	-21.8010519
5.47	547	-0.045	-0.143	1.006	0	-0.1718874	0.0572958	173.3255246	-2.26891368	-21.80678148
5.48	548	-0.045	-0.144	1.005	0	-0.1145916	0.0572958	173.3255246	-2.26891368	-21.80678148
5.49	549	-0.044	-0.143	1.006	0	-0.0572958	0	173.3255246	-2.26891368	-21.80678148
5.5	550	-0.044	-0.144	1.01	0	-0.0572958	0.0572958	172.9817498	-2.28037284	-21.78959274
5.51	551	-0.044	-0.144	1.009	-0.1145916	0	0.0572958	172.9760202	-2.28037284	-21.79532232
5.52	552	-0.045	-0.144	1.011	-0.2291832	0	0.0572958	172.9760202	-2.28037284	-21.79532232
5.53	553	-0.044	-0.144	1.01	-0.286479	-0.0572958	0.0572958	172.9702906	-2.28037284	-21.79532232
5.54	554	-0.044	-0.145	1.01	-0.2291832	-0.2291832	0	172.9702906	-2.27464326	-21.79532232
5.55	555	-0.044	-0.144	1.007	-0.1145916	-0.2291832	0	172.7754849	-2.291832	-21.78959274
5.56	556	-0.044	-0.143	1.007	-0.1145916	-0.286479	0	172.7697553	-2.291832	-21.78959274
5.57	557	-0.043	-0.143	1.007	-0.1145916	-0.2291832	0	172.7697553	-2.28610242	-21.78959274
5.58	558	-0.044	-0.143	1.007	-0.0572958	-0.286479	0	172.7697553	-2.28610242	-21.78959274
5.59	559	-0.044	-0.144	1.01	-0.0572958	-0.2291832	0	172.7697553	-2.28037284	-21.78959274
5.6	560	-0.044	-0.143	1.008	-0.0572958	-0.1718874	0	172.5520313	-2.291832	-21.78386316
5.61	561	-0.044	-0.142	1.006	0.0572958	-0.0572958	-0.0572958	172.5520313	-2.291832	-21.77813358
5.62	562	-0.044	-0.144	1.007	0.1718874	-0.0572958	0	172.5520313	-2.291832	-21.77813358
5.63	563	-0.044	-0.142	1.007	0.1718874	0	-0.0572958	172.5577609	-2.291832	-21.77813358
5.64	564	-0.044	-0.143	1.007	0.2291832	0	0	172.5577609	-2.291832	-21.77813358
5.65	565	-0.044	-0.143	1.008	0.1718874	0.1145916	-0.0572958	172.4087918	-2.30902074	-21.772404
5.66	566	-0.045	-0.144	1.009	0.0572958	0.1145916	-0.0572958	172.4087918	-2.30902074	-21.772404
5.67	567	-0.044	-0.144	1.011	0.1145916	0.1145916	0	172.4087918	-2.31475032	-21.772404
5.68	568	-0.044	-0.143	1.011	0.0572958	0.1145916	0	172.4145214	-2.31475032	-21.772404
5.69	569	-0.045	-0.144	1.01	0.0572958	0.1145916	0	172.4145214	-2.31475032	-21.772404
5.7	570	-0.044	-0.145	1.01	0.1145916	0.0572958	-0.0572958	172.3285777	-2.3204799	-21.76667442
5.71	571	-0.044	-0.144	1.009	0.1718874	0	-0.0572958	172.3285777	-2.32620948	-21.76667442
5.72	572	-0.045	-0.144	1.007	0.1718874	-0.0572958	0	172.3343072	-2.3204799	-21.76667442
5.73	573	-0.044	-0.145	1.006	0.1718874	0	-0.0572958	172.3343072	-2.3204799	-21.76667442
5.74	574	-0.044	-0.144	1.008	0.0572958	0.0572958	0	172.3343072	-2.32620948	-21.76667442
5.75	575	-0.044	-0.145	1.007	0	0.1718874	0	172.2082565	-2.33766864	-21.76094484
5.76	576	-0.045	-0.145	1.008	0	0.0572958	0	172.2025269	-2.33766864	-21.76094484
5.77	577	-0.046	-0.144	1.008	-0.0572958	0	0	172.2025269	-2.33766864	-21.76094484
5.78	578	-0.045	-0.145	1.007	-0.0572958	0	0	172.2025269	-2.33766864	-21.76094484
5.79	579	-0.044	-0.145	1.006	-0.0572958	0	0	172.2025269	-2.33766864	-21.76094484
5.8	580	-0.045	-0.144	1.006	0	0	0	172.0249099	-2.36058696	-21.75521526
5.81	581	-0.045	-0.144	1.006	-0.0572958	0.0572958	0	172.0249099	-2.36058696	-21.75521526
5.82	582	-0.045	-0.145	1.007	-0.0572958	0.0572958	0	172.0249099	-2.36058696	-21.75521526
5.83	583	-0.045	-0.144	1.007	-0.1145916	0	0	172.0191803	-2.36058696	-21.75521526
5.84	584	-0.045	-0.143	1.008	-0.0572958	0	0	172.0191803	-2.36058696	-21.75521526
5.85	585	-0.046	-0.143	1.01	0	-0.2291832	0	171.9446958	-2.3777757	-21.75521526
5.86	586	-0.045	-0.144	1.01	0	-0.1145916	-0.0572958	171.9446958	-2.37204612	-21.75521526
5.87	587	-0.045	-0.144	1.009	0	-0.0572958	0	171.9446958	-2.37204612	-21.75521526
5.88	588	-0.043	-0.144	1.006	0.1718874	0.0572958	0	171.9446958	-2.37204612	-21.75521526
5.89	589	-0.045	-0.145	1.006	0.0572958	0.3437748	0	171.9504254	-2.3777757	-21.75521526
5.9	590	-0.044	-0.145	1.007	0.0572958	0.1718874	0	171.8816704	-2.38350528	-21.74948568
5.91	591	-0.047	-0.146	1.014	0.0572958	-0.286479	0	171.8816704	-2.3777757	-21.74948568
5.92	592	-0.045	-0.146	1.017	-0.2291832	-0.4010706	0	171.8759408	-2.3777757	-21.75521526
5.93	593	-0.045	-0.146	1.016	-0.5156622	-0.3437748	0	171.8702113	-2.37204612	-21.75521526
5.94	594	-0.043	-0.146	1.013	-0.572958	-0.2291832	0	171.8644817	-2.36631654	-21.75521526
5.95	595	-0.045	-0.144	1.007	-0.4010706	-0.286479	0	171.818645	-2.37204612	-21.75521526
5.96	596	-0.044	-0.144	1.008	-0.3437748	-0.2291832	0	171.8129155	-2.37204612	-21.75521526
5.97	597	-0.044	-0.142	1.006	-0.1145916	-0.2291832	0	171.8129155	-2.36631654	-21.75521526
5.98	598	-0.045	-0.143	1.006	0.1145916	-0.1145916	0.0572958	171.8129155	-2.36631654	-21.75521526
5.99	599	-0.045	-0.144	1.006	0.0572958	-0.1145916	0	171.8129155	-2.36631654	-21.75521526
6	600	-0.045	-0.145	1.005	0.1718874	-0.1145916	0	171.7556197	-2.37204612	-21.75521526
6.01	601	-0.043	-0.144	1.005	0.1718874	-0.1145916	0	171.7613492	-2.37204612	-21.75521526
6.02	602	-0.044	-0.145	1.003	0.2291832	-0.0572958	0	171.7613492	-2.37204612	-21.75521526
6.03	603	-0.045	-0.145	1.006	0.286479	-0.0572958	0	171.7670788	-2.37204612	-21.75521526
6.04	604	-0.045	-0.145	1.008	0.2291832	-0.1145916	0	171.7670788	-2.37204612	-21.75521526
6.05	605	-0.044	-0.146	1.008	0.3437748	0	0	171.7384309	-2.37204612	-21.75521526
6.06	606	-0.044	-0.145	1.008	0.3437748	0.0572958	0	171.7441605	-2.37204612	-21.75521526
6.07	607	-0.044	-0.146	1.009	0.286479	0.1145916	0	171.7441605	-2.37204612	-21.75521526
6.08	608	-0.044	-0.145	1.008	0.286479	0.0572958	0	171.7498901	-2.37204612	-21.75521526
6.09	609	-0.044	-0.145	1.009	0.1718874	0.0572958	0.0572958	171.7498901	-2.37204612	-21.75521526
6.1	610	-0.045	-0.145	1.01	0.2291832	0.0572958	0	171.7269718	-2.3777757	-21.75521526
6.11	611	-0.045	-0.145	1.01	0.1718874	0	0	171.7269718	-2.3777757	-21.75521526
6.12	612	-0.044	-0.146	1.007	0.1718874	0.0572958	0	171.7269718	-2.3777757	-21.75521526
6.13	613	-0.044	-0.144	1.006	0.1718874	0.0572958	0	171.7327013	-2.3777757	-21.75521526
6.14	614	-0.044	-0.144	1.005	0.1145916	0.2291832	0.0572958	171.7327013	-2.38350528	-21.75521526
6.15	615	-0.044	-0.145	1.006	0.1718874	0.1718874	0.0572958	171.6754055	-2.38350528	-21.74948568
6.16	616	-0.045	-0.144	1.006	0.1145916	0.1145916	0	171.6754055	-2.38350528	-21.74948568
6.17	617	-0.045	-0.146	1.005	0.1145916	0	0	171.6754055	-2.38350528	-21.74948568
6.18	618	-0.045	-0.146	1.006	0.0572958	0	0	171.6754055	-2.38350528	-21.74948568
6.19	619	-0.045	-0.145	1.008	0.0572958	0.0572958	0	171.6811351	-2.38350528	-21.74948568
6.2	620	-0.044	-0.145	1.009	0.0572958	0	0.0572958	171.6238393	-2.38350528	-21.74948568
6.21	621	-0.044	-0.145	1.011	0	0.0572958	0	171.6238393	-2.38350528	-21.74948568
6.22	622	-0.045	-0.146	1.011	-0.0572958	0.2291832	0	171.6238393	-2.38350528	-21.74948568
6.23	623	-0.044	-0.146	1.01	-0.1145916	0.2291832	0.0572958	171.6238393	-2.38923486	-21.74948568
6.24	624	-0.045	-0.145	1.008	0	0.2291832	0	171.6238393	-2.38923486	-21.74948568
6.25	625	-0.044	-0.144	1.007	0	0.1718874	0	171.5951914	-2.39496444	-21.74948568
6.26	626	-0.044	-0.145	1.007	0	0	0	171.600921	-2.39496444	-21.74948568
6.27	627	-0.045	-0.146	1.006	0	0	0	171.600921	-2.39496444	-21.74948568
6.28	628	-0.045	-0.145	1.007	0	0.0572958	0	171.600921	-2.39496444	-21.74948568
6.29	629	-0.044	-0.144	1.007	0	0.1145916	0	171.600921	-2.39496444	-21.74948568
6.3	630	-0.044	-0.144	1.007	0.1145916	0.1145916	0	171.5780027	-2.39496444	-21.7437561
6.31	631	-0.044	-0.145	1.007	0	0.0572958	0	171.5780027	-2.40069402	-21.7437561
6.32	632	-0.045	-0.145	1.009	0	0.1145916	0	171.5780027	-2.40069402	-21.7437561
6.33	633	-0.045	-0.144	1.009	0	0.1145916	0	171.5780027	-2.40069402	-21.7437561
6.34	634	-0.045	-0.145	1.01	0	0	0	171.5780027	-2.40069402	-21.7437561
6.35	635	-0.045	-0.146	1.011	0.0572958	-0.0572958	0	171.5608139	-2.4064236	-21.7437561
6.36	636	-0.045	-0.146	1.01	0	-0.1718874	0	171.5608139	-2.4064236	-21.7437561
6.37	637	-0.045	-0.144	1.009	0	-0.1718874	0	171.5608139	-2.40069402	-21.7437561
6.38	638	-0.044	-0.145	1.008	0	-0.0572958	0	171.5608139	-2.40069402	-21.7437561
6.39	639	-0.044	-0.145	1.007	-0.0572958	-0.1145916	0	171.5550844	-2.40069402	-21.7437561
6.4	640	-0.046	-0.146	1.007	-0.0572958	0	-0.0572958	171.5436252	-2.39496444	-21.7437561
6.41	641	-0.044	-0.146	1.006	0	-0.0572958	0	171.5436252	-2.39496444	-21.7437561
6.42	642	-0.044	-0.145	1.008	0	-0.0572958	0	171.5436252	-2.39496444	-21.7437561
6.43	643	-0.045	-0.146	1.008	-0.0572958	0	-0.0572958	171.5436252	-2.39496444	-21.7437561
6.44	644	-0.044	-0.145	1.008	-0.0572958	0.0572958	0	171.5378956	-2.39496444	-21.7437561
6.45	645	-0.044	-0.145	1.006	-0.1145916	0	0	171.5035181	-2.40069402	-21.7437561
6.46	646	-0.045	-0.145	1.006	0	-0.0572958	0	171.5035181	-2.40069402	-21.7437561
6.47	647	-0.045	-0.146	1.006	0.0572958	-0.1145916	0	171.5035181	-2.40069402	-21.7437561
6.48	648	-0.044	-0.144	1.007	0.0572958	-0.1145916	0	171.5092477	-2.39496444	-21.7437561
6.49	649	-0.045	-0.144	1.009	0	-0.1145916	0	171.5092477	-2.39496444	-21.7437561
6.5	650	-0.044	-0.145	1.011	0	-0.1718874	0	171.492059	-2.39496444	-21.73802652
6.51	651	-0.044	-0.145	1.012	-0.1145916	-0.1145916	-0.0572958	171.492059	-2.38923486	-21.73802652
6.52	652	-0.045	-0.145	1.008	-0.0572958	0	0	171.492059	-2.38923486	-21.73802652
6.53	653	-0.044	-0.145	1.008	-0.0572958	0.286479	0	171.4863294	-2.39496444	-21.73802652
6.54	654	-0.045	-0.145	1.004	-0.1718874	0.286479	0	171.4863294	-2.40069402	-21.73802652
6.55	655	-0.045	-0.145	1.01	0	-0.1145916	-0.0572958	171.4805998	-2.40069402	-21.73802652
6.56	656	-0.046	-0.147	1.014	0	-0.4010706	-0.0572958	171.4805998	-2.39496444	-21.73802652
6.57	657	-0.045	-0.147	1.015	-0.2291832	-0.3437748	0	171.4748702	-2.38923486	-21.73802652
6.58	658	-0.044	-0.146	1.012	-0.3437748	-0.2291832	0	171.4691407	-2.38923486	-21.73802652
6.59	659	-0.044	-0.145	1.008	-0.3437748	-0.1145916	0	171.4691407	-2.38923486	-21.73802652
6.6	660	-0.043	-0.147	1.01	-0.4583664	0	0	171.4576815	-2.38350528	-21.73802652
6.61	661	-0.044	-0.144	1.007	-0.3437748	0	0	171.4576815	-2.38350528	-21.73802652
6.62	662	-0.045	-0.144	1.006	-0.2291832	0.1145916	0	171.4519519	-2.38350528	-21.73802652
6.63	663	-0.045	-0.144	1.005	-0.1145916	0	0	171.4519519	-2.38350528	-21.73802652
6.64	664	-0.045	-0.144	1.004	-0.0572958	-0.0572958	0	171.4519519	-2.38350528	-21.73802652
6.65	665	-0.045	-0.145	1.004	0	-0.1145916	0	171.4404928	-2.38350528	-21.73802652
6.66	666	-0.044	-0.144	1.005	0.0572958	-0.1718874	0	171.4404928	-2.38350528	-21.73802652
6.67	667	-0.044	-0.145	1.006	0.1718874	-0.1145916	0	171.4462223	-2.3777757	-21.73802652
6.68	668	-0.045	-0.146	1.007	0.1145916	-0.0572958	0	171.4462223	-2.3777757	-21.73802652
6.69	669	-0.044	-0.147	1.009	0.1718874	-0.1145916	0	171.4462223	-2.3777757	-21.73802652
6.7	670	-0.044	-0.145	1.01	0.2291832	0	0	171.4404928	-2.3777757	-21.73229694
6.71	671	-0.045	-0.147	1.01	0.2291832	0	0	171.4462223	-2.3777757	-21.73229694
6.72	672	-0.044	-0.145	1.011	0.2291832	-0.0572958	0	171.4462223	-2.3777757	-21.73229694
6.73	673	-0.045	-0.146	1.009	0.2291832	0	0	171.4462223	-2.3777757	-21.73229694
6.74	674	-0.044	-0.146	1.009	0.1718874	-0.0572958	0	171.4519519	-2.37204612	-21.73229694
6.75	675	-0.044	-0.147	1.008	0.1718874	-0.0572958	0	171.4347632	-2.3777757	-21.73229694
6.76	676	-0.043	-0.146	1.009	0.1145916	-0.0572958	0	171.4347632	-2.37204612	-21.73229694
6.77	677	-0.044	-0.145	1.008	0.1145916	0.0572958	0	171.4404928	-2.3777757	-21.73229694
6.78	678	-0.045	-0.145	1.007	0.1145916	0.1145916	0	171.4404928	-2.3777757	-21.73229694
6.79	679	-0.044	-0.145	1.006	0.0572958	0.1145916	0	171.4404928	-2.3777757	-21.73229694
6.8	680	-0.045	-0.145	1.007	0	0.1145916	0	171.423304	-2.38350528	-21.73229694
6.81	681	-0.044	-0.146	1.008	0	0.1145916	0	171.423304	-2.38923486	-21.73229694
6.82	682	-0.044	-0.147	1.007	0	0.0572958	0	171.423304	-2.38923486	-21.73229694
6.83	683	-0.045	-0.146	1.008	0	0.0572958	0	171.423304	-2.38923486	-21.73229694
6.84	684	-0.045	-0.147	1.007	0	0	0	171.423304	-2.38923486	-21.73229694
6.85	685	-0.044	-0.147	1.007	0	0.0572958	0	171.4061153	-2.38923486	-21.73229694
6.86	686	-0.044	-0.146	1.008	0	0.1145916	0	171.4061153	-2.38923486	-21.73229694
6.87	687	-0.044	-0.146	1.008	0	0.0572958	0	171.4061153	-2.38923486	-21.73229694
6.88	688	-0.044	-0.146	1.007	-0.0572958	0.1145916	0	171.4003857	-2.38923486	-21.73229694
6.89	689	-0.045	-0.145	1.007	0	0.1718874	0	171.4003857	-2.39496444	-21.73229694
6.9	690	-0.045	-0.146	1.006	-0.0572958	0.1718874	0	171.3889265	-2.40069402	-21.73229694
6.91	691	-0.044	-0.145	1.007	-0.0572958	0.1145916	0.0572958	171.3889265	-2.40069402	-21.73229694
6.92	692	-0.044	-0.146	1.01	0	0.0572958	0	171.3889265	-2.4064236	-21.73229694
6.93	693	-0.045	-0.147	1.008	0	0.1718874	0	171.3889265	-2.4064236	-21.73229694
6.94	694	-0.046	-0.147	1.008	0	0.286479	0	171.3889265	-2.41215318	-21.73229694
6.95	695	-0.045	-0.146	1.007	0	0.1145916	0	171.3717378	-2.41215318	-21.73229694
6.96	696	-0.045	-0.144	1.007	0.0572958	0.1145916	0	171.3774674	-2.41788276	-21.73229694
6.97	697	-0.046	-0.145	1.009	0	0	0	171.3774674	-2.41788276	-21.73229694
6.98	698	-0.045	-0.145	1.008	0	0	0	171.3774674	-2.41215318	-21.73229694
6.99	699	-0.044	-0.146	1.01	0.0572958	0	0.0572958	171.3774674	-2.41215318	-21.73229694
7	700	-0.045	-0.146	1.008	0	0	0	171.3602786	-2.4064236	-21.73229694
7.01	701	-0.044	-0.145	1.009	0	0	0.0572958	171.3602786	-2.41215318	-21.73229694
7.02	702	-0.044	-0.146	1.008	0	0	0.0572958	171.3602786	-2.41215318	-21.73229694
7.03	703	-0.044	-0.146	1.008	0	0	0.0572958	171.3602786	-2.41215318	-21.73229694
7.04	704	-0.045	-0.146	1.009	0	-0.0572958	0	171.3602786	-2.41215318	-21.73229694
7.05	705	-0.044	-0.146	1.009	0	-0.0572958	0	171.3602786	-2.40069402	-21.73229694
7.06	706	-0.045	-0.146	1.009	0	-0.0572958	0	171.3602786	-2.40069402	-21.73229694
7.07	707	-0.044	-0.146	1.007	0	-0.0572958	0.0572958	171.3602786	-2.40069402	-21.73229694
7.08	708	-0.044	-0.146	1.006	0.0572958	-0.1145916	0	171.3602786	-2.39496444	-21.73802652
7.09	709	-0.045	-0.146	1.006	0.0572958	-0.0572958	0	171.3660082	-2.39496444	-21.73802652
7.1	710	-0.044	-0.146	1.006	0	-0.0572958	0	171.3430899	-2.40069402	-21.73229694
7.11	711	-0.045	-0.146	1.006	0	-0.0572958	0	171.3430899	-2.40069402	-21.73229694
7.12	712	-0.045	-0.146	1.006	0	0	0	171.3430899	-2.40069402	-21.73802652
7.13	713	-0.045	-0.145	1.008	-0.0572958	-0.0572958	0	171.3430899	-2.39496444	-21.73802652
7.14	714	-0.046	-0.146	1.011	-0.0572958	-0.0572958	0	171.3430899	-2.39496444	-21.73802652
7.15	715	-0.044	-0.146	1.011	-0.1718874	0	0	171.3316307	-2.38923486	-21.73229694
7.16	716	-0.044	-0.146	1.007	-0.1145916	0.0572958	0	171.3316307	-2.38923486	-21.73229694
7.17	717	-0.044	-0.146	1.007	-0.1718874	0.1718874	0	171.3316307	-2.39496444	-21.73229694
7.18	718	-0.045	-0.145	1.006	-0.2291832	0.1718874	0	171.3259012	-2.39496444	-21.73229694
7.19	719	-0.045	-0.148	1.01	0	-0.2291832	0	171.3259012	-2.39496444	-21.73229694
7.2	720	-0.045	-0.148	1.014	-0.0572958	-0.4010706	0	171.3201716	-2.38923486	-21.73229694
7.21	721	-0.045	-0.148	1.011	-0.1718874	-0.4010706	0	171.3201716	-2.38350528	-21.73802652
7.22	722	-0.043	-0.147	1.008	-0.2291832	-0.3437748	0	171.314442	-2.38350528	-21.73802652
7.23	723	-0.044	-0.147	1.005	-0.1145916	-0.1718874	0	171.314442	-2.3777757	-21.73802652
7.24	724	-0.044	-0.146	1.006	0	0	0	171.314442	-2.3777757	-21.73802652
7.25	725	-0.044	-0.145	1.006	0.1145916	0	0.0572958	171.314442	-2.38350528	-21.73802652
7.26	726	-0.044	-0.145	1.005	0.1718874	0	0	171.314442	-2.38350528	-21.73802652
7.27	727	-0.045	-0.145	1.004	0.286479	0	0.0572958	171.3201716	-2.38350528	-21.73802652
7.28	728	-0.045	-0.145	1.002	0.4010706	0	0	171.3259012	-2.38350528	-21.73802652
7.29	729	-0.044	-0.145	1.002	0.5156622	0	0	171.3316307	-2.38350528	-21.73802652
7.3	730	-0.044	-0.147	0.999	0.6302538	-0.0572958	0	171.3316307	-2.38350528	-21.73802652
7.31	731	-0.043	-0.146	0.999	0.7448454	-0.1718874	0	171.3373603	-2.38350528	-21.73802652
7.32	732	-0.043	-0.146	1	0.9740286	-0.1145916	0.0572958	171.3488195	-2.38350528	-21.73802652
7.33	733	-0.044	-0.146	1	1.0313244	-0.2291832	0.0572958	171.3602786	-2.3777757	-21.7437561
7.34	734	-0.044	-0.147	0.994	1.2605076	-0.4010706	0.1145916	171.3717378	-2.3777757	-21.7437561
7.35	735	-0.043	-0.146	0.988	1.6042824	-0.4010706	0.1718874	171.383197	-2.37204612	-21.7437561
7.36	736	-0.043	-0.145	0.988	2.4064236	-0.2291832	0.1718874	171.4118449	-2.37204612	-21.74948568
7.37	737	-0.043	-0.141	0.985	3.0939732	-0.0572958	0.2291832	171.4404928	-2.37204612	-21.74948568
7.38	738	-0.044	-0.141	0.982	3.6096354	0	0.286479	171.4805998	-2.37204612	-21.75521526
