TimeStamp(s)	FrameCounter	AccX	AccY	AccZ	GyrX	GyrY	GyrZ	EulerX	EulerY	EulerZ
0.01	1	-0.095	-0.984	-0.078	-1.0313244	2.8074942	1.6042824	85.10718132	-5.01911208	-55.00969758
0.02	2	-0.095	-0.984	-0.078	-0.5156622	2.6929026	1.5469866	85.09572216	-5.03057124	-54.98104968
0.03	3	-0.095	-0.987	-0.077	-0.0572958	2.5210152	1.3750992	85.09572216	-5.0420304	-54.95240178
0.04	4	-0.096	-0.988	-0.077	0.2291832	2.4064236	1.0886202	85.09572216	-5.05348956	-54.92948346
0.05	5	-0.096	-0.991	-0.081	0.572958	2.5210152	0.6875496	85.084263	-5.06494872	-54.90083556
0.06	6	-0.097	-0.992	-0.082	1.145916	2.7501984	0.4583664	85.09572216	-5.06494872	-54.87218766
0.07	7	-0.095	-0.993	-0.08	2.005353	2.7501984	0.4010706	85.1129109	-5.0706783	-54.84353976
0.08	8	-0.094	-0.996	-0.075	2.578311	2.6356068	0.4010706	85.13582922	-5.0706783	-54.81489186
0.09	9	-0.094	-0.997	-0.072	2.8074942	2.4637194	0.5156622	85.16447712	-5.07640788	-54.79197354
0.1	10	-0.096	-0.999	-0.065	2.9793816	2.4637194	0.4583664	85.18739544	-5.08213746	-54.76905522
0.11	11	-0.097	-1.002	-0.06	2.9793816	2.291832	0.3437748	85.21604334	-5.08213746	-54.74040732
0.12	12	-0.097	-1.007	-0.059	2.4064236	2.3491278	0.1718874	85.23896166	-5.08213746	-54.717489
0.13	13	-0.096	-1.007	-0.06	2.0626488	2.5210152	0.1145916	85.2561504	-5.08213746	-54.69457068
0.14	14	-0.094	-1.009	-0.057	1.718874	2.5210152	0.286479	85.27333914	-5.08213746	-54.66592278
0.15	15	-0.09	-1.01	-0.049	1.2032118	2.4637194	0.2291832	85.29052788	-5.08213746	-54.64300446
0.16	16	-0.087	-1.013	-0.047	0.5156622	1.9480572	0.1718874	85.29625746	-5.08213746	-54.62008614
0.17	17	-0.083	-1.013	-0.05	0	1.6042824	0.0572958	85.29052788	-5.08213746	-54.60862698
0.18	18	-0.082	-1.007	-0.053	-0.0572958	1.2032118	0.0572958	85.29052788	-5.08213746	-54.59716782
0.19	19	-0.084	-1.002	-0.056	-0.1718874	0.8021412	0.2291832	85.29052788	-5.08786704	-54.58570866
0.2	20	-0.086	-0.997	-0.057	-0.3437748	0.7448454	0.4010706	85.2847983	-5.08213746	-54.57997908
0.21	21	-0.089	-0.994	-0.058	-0.5156622	0.5156622	0.4583664	85.27906872	-5.08213746	-54.5742495
0.22	22	-0.093	-0.995	-0.061	-0.7448454	0.4583664	0.3437748	85.26760956	-5.08786704	-54.56851992
0.23	23	-0.094	-0.998	-0.063	-0.8021412	0.286479	0.2291832	85.26187998	-5.09359662	-54.56279034
0.24	24	-0.094	-1.001	-0.065	-0.9740286	0.1718874	0.2291832	85.25042082	-5.09359662	-54.56279034
0.25	25	-0.093	-1.001	-0.067	-1.0886202	0	0	85.2275025	-5.09359662	-54.56279034
0.26	26	-0.092	-1.001	-0.068	-1.2032118	-0.1718874	-0.1145916	85.21031376	-5.09359662	-54.56279034
0.27	27	-0.09	-1.002	-0.069	-1.2605076	-0.1145916	-0.1145916	85.1988546	-5.09359662	-54.56279034
0.28	28	-0.089	-1	-0.072	-1.2605076	-0.2291832	-0.0572958	85.18739544	-5.09359662	-54.56851992
0.29	29	-0.089	-0.996	-0.072	-0.9740286	-0.286479	0	85.17593628	-5.09359662	-54.56851992
0.3	30	-0.091	-0.995	-0.071	-0.572958	-0.4583664	0	85.15301796	-5.09359662	-54.5742495
0.31	31	-0.094	-0.996	-0.069	-0.4583664	-0.4010706	0	85.14728838	-5.09359662	-54.5742495
0.32	32	-0.095	-0.998	-0.071	-0.4583664	-0.2291832	0	85.1415588	-5.09359662	-54.57997908
0.33	33	-0.094	-0.997	-0.07	-0.4010706	-0.0572958	-0.0572958	85.13582922	-5.08786704	-54.57997908
0.34	34	-0.095	-0.996	-0.071	-0.286479	0.0572958	0	85.13582922	-5.08786704	-54.57997908
0.35	35	-0.093	-0.995	-0.071	-0.286479	0.0572958	0.0572958	85.07853342	-5.09359662	-54.5742495
0.36	36	-0.091	-0.995	-0.071	-0.1145916	0.2291832	0.2291832	85.07853342	-5.09359662	-54.5742495
0.37	37	-0.091	-0.994	-0.07	0	0.286479	0.3437748	85.07853342	-5.0993262	-54.56851992
0.38	38	-0.091	-0.994	-0.068	0.1718874	0.286479	0.4010706	85.07853342	-5.10505578	-54.56279034
0.39	39	-0.09	-0.996	-0.068	0.3437748	0.3437748	0.5156622	85.084263	-5.11078536	-54.56279034
0.4	40	-0.09	-0.997	-0.068	0.4583664	0.0572958	0.4010706	85.07853342	-5.0993262	-54.55706076
0.41	41	-0.087	-0.998	-0.069	0.3437748	-0.0572958	0.286479	85.07853342	-5.10505578	-54.55706076
0.42	42	-0.086	-0.997	-0.07	0.3437748	-0.286479	0.4010706	85.084263	-5.11078536	-54.56279034
0.43	43	-0.086	-1	-0.072	0.4583664	-0.6302538	0.4583664	85.08999258	-5.11651494	-54.56851992
0.44	44	-0.089	-1.002	-0.072	0.5156622	-0.7448454	0.4583664	85.09572216	-5.12224452	-54.5742495
0.45	45	-0.089	-1.005	-0.07	0.6302538	-0.859437	0.4010706	85.09572216	-5.11651494	-54.57997908
0.46	46	-0.09	-1.005	-0.072	0.6875496	-0.9167328	0.4583664	85.10145174	-5.12224452	-54.59143824
0.47	47	-0.092	-1.007	-0.074	0.6875496	-1.2032118	0.5156622	85.1129109	-5.1279741	-54.6028974
0.48	48	-0.095	-1.005	-0.076	0.5156622	-1.432395	0.8021412	85.11864048	-5.13943326	-54.61435656
0.49	49	-0.097	-1.005	-0.075	0.1145916	-1.3750992	0.859437	85.11864048	-5.15089242	-54.6315453
0.5	50	-0.101	-1.005	-0.075	-0.1718874	-1.0313244	0.9167328	85.10145174	-5.17381074	-54.63727488
0.51	51	-0.109	-1.004	-0.071	-0.1145916	-0.572958	0.9167328	85.10145174	-5.1852699	-54.64300446
0.52	52	-0.115	-1.007	-0.065	-0.1718874	0.0572958	1.0313244	85.10145174	-5.19099948	-54.64300446
0.53	53	-0.12	-1.007	-0.064	-0.8021412	0.9167328	0.9167328	85.08999258	-5.20245864	-54.6315453
0.54	54	-0.122	-1.004	-0.065	-1.3178034	1.8334656	0.8021412	85.07853342	-5.20818822	-54.61435656
0.55	55	-0.122	-1	-0.068	-1.6042824	2.7501984	0.7448454	85.0556151	-5.23110654	-54.58570866
0.56	56	-0.119	-0.995	-0.07	-1.8334656	3.8388186	0.6302538	85.03269678	-5.23110654	-54.5456016
0.57	57	-0.117	-0.997	-0.065	-1.7761698	4.5263682	0.6875496	85.00977846	-5.23683612	-54.49976496
0.58	58	-0.122	-1.004	-0.06	-1.8334656	5.156622	0.6875496	84.98113056	-5.2425657	-54.44819874
0.59	59	-0.131	-1.009	-0.053	-2.5210152	6.0733548	0.4010706	84.95248266	-5.2425657	-54.38517336
0.6	60	-0.138	-1.013	-0.045	-3.5523396	6.7609044	0.0572958	84.9123756	-5.24829528	-54.32214798
0.61	61	-0.14	-1.011	-0.04	-4.870143	7.2192708	-0.0572958	84.8550798	-5.2425657	-54.24766344
0.62	62	-0.138	-1.006	-0.035	-5.9014674	7.2765666	-0.1718874	84.78632484	-5.23683612	-54.17890848
0.63	63	-0.138	-0.998	-0.03	-6.016059	7.3338624	-0.4010706	84.71756988	-5.23110654	-54.10442394
0.64	64	-0.135	-0.991	-0.024	-6.302538	7.5630456	-0.9167328	84.64881492	-5.2139178	-54.0299394
0.65	65	-0.131	-0.986	-0.018	-7.0473834	7.734933	-1.4896908	84.58005996	-5.20245864	-53.95545486
0.66	66	-0.13	-0.987	-0.014	-7.7922288	7.448454	-1.9480572	84.48838668	-5.17954032	-53.8866999
0.67	67	-0.125	-0.994	-0.013	-8.59437	6.875496	-2.0626488	84.3967134	-5.156622	-53.81794494
0.68	68	-0.123	-1.002	-0.008	-9.453807	6.0733548	-2.005353	84.29358096	-5.1279741	-53.76064914
0.69	69	-0.121	-1.01	-0.005	-10.2559482	5.5003968	-1.9480572	84.18471894	-5.11078536	-53.70908292
0.7	70	-0.123	-1.019	-0.001	-11.1153852	4.870143	-2.005353	84.0815865	-5.08786704	-53.66897586
0.71	71	-0.13	-1.024	0	-12.2613012	4.1825934	-2.1772404	83.94980616	-5.06494872	-53.6288688
0.72	72	-0.138	-1.024	0	-13.5218088	3.724227	-2.5210152	83.80656666	-5.03630082	-53.59449132
0.73	73	-0.145	-1.02	-0.001	-14.8396122	3.6669312	-3.2085648	83.65759758	-5.00765292	-53.56584342
0.74	74	-0.151	-1.018	-0.009	-16.5011904	3.6669312	-4.0680018	83.48571018	-4.96181628	-53.53719552
0.75	75	-0.153	-1.014	-0.016	-18.334656	3.5523396	-4.8128472	83.30236362	-4.92170922	-53.50854762
0.76	76	-0.153	-1.013	-0.028	-19.9962342	3.3804522	-5.2139178	83.09609874	-4.870143	-53.47989972
0.77	77	-0.15	-1.008	-0.041	-20.8556712	3.2658606	-5.3858052	82.88410428	-4.8128472	-53.4569814
0.78	78	-0.147	-1.002	-0.051	-21.3713334	3.3804522	-5.2139178	82.66065066	-4.76128098	-53.43406308
0.79	79	-0.147	-0.993	-0.062	-22.8037284	3.7815228	-4.870143	82.42573788	-4.70971476	-53.40541518
0.8	80	-0.147	-0.983	-0.072	-23.777757	4.297185	-4.7555514	82.18509552	-4.6696077	-53.3710377
0.81	81	-0.15	-0.975	-0.085	-24.064236	4.6409598	-4.4690724	81.93872358	-4.62377106	-53.33093064
0.82	82	-0.149	-0.969	-0.1	-22.6891368	5.2712136	-4.010706	81.7038108	-4.57793442	-53.285094
0.83	83	-0.146	-0.963	-0.109	-21.0275586	5.9587632	-3.5523396	81.48608676	-4.53782736	-53.23352778
0.84	84	-0.14	-0.957	-0.119	-19.4232762	6.0733548	-3.3231564	81.27982188	-4.4977203	-53.18196156
0.85	85	-0.126	-0.95	-0.132	-17.6471064	5.5003968	-3.0366774	81.09647532	-4.4690724	-53.13612492
0.86	86	-0.111	-0.937	-0.147	-15.2406828	4.9274388	-2.7501984	80.93604708	-4.43469492	-53.09028828
0.87	87	-0.097	-0.923	-0.151	-11.45916	4.7555514	-2.291832	80.8157259	-4.4117766	-53.05018122
0.88	88	-0.083	-0.915	-0.158	-7.2765666	4.870143	-1.3178034	80.73551178	-4.38885828	-53.00434458
0.89	89	-0.069	-0.913	-0.154	-4.7555514	5.9014674	0	80.68394556	-4.3831287	-52.94704878
0.9	90	-0.048	-0.914	-0.146	-3.2658606	8.2505952	1.6042824	80.63810892	-4.3831287	-52.86110508
0.91	91	-0.032	-0.924	-0.141	-2.86479	11.172681	3.3231564	80.60373144	-4.40031744	-52.74651348
0.92	92	-0.041	-0.938	-0.148	-4.3544808	13.1207382	5.7868758	80.54643564	-4.4404245	-52.60900356
0.93	93	-0.077	-0.952	-0.132	-6.875496	14.32395	8.59437	80.46049194	-4.50344988	-52.4543049
0.94	94	-0.088	-0.983	-0.103	-8.9381448	14.896908	10.7716104	80.3573595	-4.59512316	-52.29387666
0.95	95	-0.086	-1.027	-0.091	-10.4278356	13.2353298	12.2040054	80.2427679	-4.69252602	-52.14490758
0.96	96	-0.078	-1.05	-0.066	-10.9434978	11.1153852	12.032118	80.11671714	-4.79565846	-52.01312724
0.97	97	-0.056	-1.058	-0.05	-9.167328	9.3392154	10.8289062	80.0135847	-4.89306132	-51.90426522
0.98	98	-0.034	-1.05	-0.037	-6.1306506	6.7036086	9.1100322	79.94482974	-4.97327544	-51.8240511
0.99	99	-0.012	-1.03	-0.017	-2.9220858	4.4117766	6.7609044	79.91045226	-5.03057124	-51.7667553
1	100	0.008	-1.012	0.007	0.1718874	2.1199446	4.6982556	79.99639596	-5.01911208	-51.74956656
1.01	101	0.027	-1.009	0.032	2.6356068	-0.5156622	2.4064236	80.02504386	-5.0420304	-51.74956656
1.02	102	0.024	-1.049	0.043	2.7501984	-2.5210152	-0.1718874	80.05369176	-5.0420304	-51.77248488
1.03	103	0.004	-1.098	0.051	1.7761698	-3.6096354	-3.8388186	80.07661008	-5.0133825	-51.81832152
1.04	104	-0.02	-1.141	0.047	0	-2.9793816	-7.0473834	80.07661008	-4.94462754	-51.85842858
1.05	105	-0.046	-1.149	0.039	-2.0626488	-1.0886202	-9.3392154	80.08806924	-4.84722468	-51.88707648
1.06	106	-0.071	-1.121	0.032	-4.010706	1.145916	-10.9434978	80.04796218	-4.74409224	-51.89280606
1.07	107	-0.083	-1.068	0.015	-5.0993262	3.151269	-11.1153852	79.99066638	-4.62950064	-51.8813469
1.08	108	-0.089	-1.007	0.005	-6.016059	4.2398892	-11.2299768	79.927641	-4.51490904	-51.86415816
1.09	109	-0.081	-0.963	-0.002	-6.5317212	4.9847346	-10.886202	79.85888604	-4.40031744	-51.82978068
1.1	110	-0.068	-0.93	-0.014	-7.8495246	5.72958	-10.4278356	79.79013108	-4.28572584	-51.7954032
1.11	111	-0.043	-0.909	-0.02	-9.1100322	5.6149884	-10.026765	79.69272822	-4.1825934	-51.76102572
1.12	112	-0.022	-0.9	-0.018	-10.026765	4.4117766	-9.5111028	79.58959578	-4.08519054	-51.73237782
1.13	113	-0.003	-0.9	-0.017	-10.7716104	3.0939732	-8.9954406	79.47500418	-3.99351726	-51.72091866
1.14	114	0.007	-0.895	-0.017	-10.313244	1.9480572	-8.0787078	79.37187174	-3.90757356	-51.71518908
1.15	115	0.005	-0.903	-0.014	-8.4797784	1.5469866	-7.0473834	79.30884636	-3.82735944	-51.71518908
1.16	116	0	-0.909	-0.007	-6.1306506	1.2032118	-6.302538	79.24582098	-3.76433406	-51.71518908
1.17	117	-0.004	-0.919	0.006	-3.7815228	0.6302538	-5.6722842	79.20571392	-3.70703826	-51.72091866
1.18	118	-0.007	-0.924	0.017	-2.6929026	0.286479	-5.2139178	79.17706602	-3.65547204	-51.72664824
1.19	119	-0.012	-0.934	0.023	-1.7761698	0.2291832	-4.7555514	79.15987728	-3.6096354	-51.73237782
1.2	120	-0.015	-0.944	0.028	-1.0886202	0.2291832	-3.8961144	79.24582098	-3.54661002	-51.74383698
1.21	121	-0.018	-0.951	0.032	-0.6875496	0	-2.9220858	79.2400914	-3.51796212	-51.74956656
1.22	122	-0.014	-0.951	0.032	-0.3437748	-0.572958	-1.8907614	79.23436182	-3.50077338	-51.76102572
1.23	123	-0.011	-0.952	0.037	-0.4583664	-2.1772404	-0.859437	79.23436182	-3.4950438	-51.78394404
1.24	124	0	-0.955	0.043	-0.859437	-4.5263682	0.2291832	79.22863224	-3.50650296	-51.8240511
1.25	125	0.004	-0.964	0.042	-1.8334656	-6.7036086	1.432395	79.27446888	-3.51223254	-51.89280606
1.26	126	0.007	-0.985	0.041	-2.291832	-8.6516658	2.4064236	79.25728014	-3.54661002	-51.97302018
1.27	127	0.003	-1.013	0.039	-2.86479	-10.1986524	3.2658606	79.23436182	-3.59817624	-52.07042304
1.28	128	-0.009	-1.033	0.036	-3.724227	-11.0580894	3.8388186	79.20571392	-3.64974246	-52.17355548
1.29	129	-0.022	-1.049	0.031	-4.0680018	-11.172681	4.0680018	79.17133644	-3.71276784	-52.27095834
1.3	130	-0.027	-1.056	0.03	-4.583664	-11.4018642	4.1252976	79.16560686	-3.76433406	-52.37982036
1.31	131	-0.029	-1.058	0.027	-4.7555514	-11.9748222	4.297185	79.1254998	-3.82162986	-52.48868238
1.32	132	-0.028	-1.068	0.036	-4.1825934	-12.8342592	4.870143	79.09112232	-3.89038482	-52.60900356
1.33	133	-0.025	-1.079	0.05	-4.1252976	-13.5791046	5.3858052	79.06247442	-3.96486936	-52.72932474
1.34	134	-0.024	-1.102	0.062	-4.9274388	-13.6364004	5.9587632	79.02236736	-4.05081306	-52.8553755
1.35	135	-0.026	-1.134	0.055	-7.161975	-12.6623718	6.1306506	78.9822603	-4.1252976	-52.9699671
1.36	136	-0.031	-1.151	0.05	-9.0527364	-11.2299768	6.0733548	78.8963166	-4.20551172	-53.06736996
1.37	137	-0.035	-1.159	0.054	-9.740286	-10.2559482	5.5576926	78.80464332	-4.27426668	-53.15904324
1.38	138	-0.037	-1.164	0.044	-10.599723	-9.453807	4.9847346	78.70724046	-4.34302164	-53.24498694
1.39	139	-0.038	-1.14	0.051	-8.4224826	-9.740286	4.5263682	78.62702634	-4.40031744	-53.33093064
1.4	140	-0.039	-1.11	0.092	-3.724227	-12.1467096	4.1825934	78.64421508	-4.45761324	-53.44552224
1.41	141	-0.042	-1.091	0.146	1.0886202	-16.042824	3.4950438	78.6671334	-4.52063862	-53.59449132
1.42	142	-0.058	-1.148	-0.003	1.6042824	-18.2773602	2.1772404	78.70151088	-4.57220484	-53.76637872
1.43	143	-0.177	-1.37	-0.14	-10.886202	-2.578311	-3.3231564	78.59264886	-4.54355694	-53.8007562
1.44	144	-0.359	-1.554	-0.051	-15.6417534	23.4339822	-14.32395	78.41503188	-4.36593996	-53.6002209
1.45	145	-0.441	-1.443	-0.141	-25.7258142	37.815228	-20.1681216	78.12855288	-4.10810886	-53.27363484
1.46	146	-0.453	-1.384	-0.092	-17.8189938	38.4454818	-24.1788276	77.91655842	-3.8101707	-52.95277836
1.47	147	-0.319	-1.242	-0.119	-9.9121734	33.3461556	-20.05353	77.79623724	-3.5523396	-52.66629936
1.48	148	-0.119	-1.136	-0.191	2.005353	23.7204612	-9.453807	77.79623724	-3.42055926	-52.46003448
1.49	149	-0.024	-1.124	-0.291	13.178034	22.4026578	-2.9220858	77.91655842	-3.34607472	-52.24231044
1.5	150	0.051	-1.123	-0.331	11.0580894	22.0015872	-4.9847346	78.0082317	-3.24867186	-52.03604556
1.51	151	0.122	-1.103	-0.345	10.1986524	22.7464326	-10.599723	78.0941754	-3.10543236	-51.83551026
1.52	152	0.176	-1.037	-0.419	9.6829902	20.2827132	-12.318597	78.1801191	-2.94500412	-51.66362286
1.53	153	0.163	-0.93	-0.471	7.2765666	12.891555	-12.032118	78.24887406	-2.8074942	-51.56049042
1.54	154	0.116	-0.849	-0.476	5.6149884	6.1879464	-14.32395	78.30616986	-2.65279554	-51.52611294
1.55	155	0.088	-0.823	-0.465	2.5210152	2.005353	-17.4179232	78.27179238	-2.45798982	-51.5375721
1.56	156	0.096	-0.829	-0.444	-0.0572958	-1.8907614	-20.1681216	78.27752196	-2.2631841	-51.60059748
1.57	157	0.1	-0.86	-0.413	-0.5156622	-5.156622	-21.199446	78.27179238	-2.06837838	-51.69227076
1.58	158	0.078	-0.899	-0.384	-2.0626488	-5.5003968	-20.1681216	78.25460364	-1.87930224	-51.78394404
1.59	159	0.042	-0.913	-0.355	-2.1772404	-4.7555514	-16.615782	78.2374149	-1.73033316	-51.86415816
1.6	160	-0.005	-0.928	-0.325	0.572958	-3.724227	-12.3758928	78.208767	-1.61001198	-51.92718354
1.61	161	-0.039	-0.945	-0.305	2.9220858	-2.9220858	-8.307891	78.2374149	-1.53552744	-51.97302018
1.62	162	-0.065	-0.959	-0.281	4.9274388	-2.1772404	-4.010706	78.28898112	-1.50114996	-52.00166808
1.63	163	-0.081	-0.973	-0.255	6.9327918	-1.3750992	0.4583664	78.36346566	-1.50687954	-52.01312724
1.64	164	-0.087	-0.971	-0.229	8.307891	-0.7448454	4.9847346	78.44367978	-1.55271618	-52.00739766
1.65	165	-0.074	-0.942	-0.209	8.7662574	-0.4583664	9.167328	78.52962348	-1.65011904	-51.9959385
1.66	166	-0.058	-0.9	-0.193	8.1360036	-0.6302538	12.5477802	78.6098376	-1.77044022	-51.97302018
1.67	167	-0.045	-0.863	-0.185	7.3338624	-0.8021412	14.610429	78.68432214	-1.91367972	-51.95583144
1.68	168	-0.039	-0.839	-0.177	7.3338624	-0.3437748	14.8396122	78.75880668	-2.0626488	-51.92718354
1.69	169	-0.048	-0.827	-0.164	7.448454	0.1718874	13.750992	78.83329122	-2.19442914	-51.89853564
1.7	170	-0.061	-0.82	-0.154	7.161975	1.5469866	11.6310474	78.90777576	-2.30902074	-51.86415816
1.71	171	-0.075	-0.822	-0.142	6.5317212	3.724227	8.9381448	78.97080114	-2.38923486	-51.80686236
1.72	172	-0.094	-0.821	-0.131	6.1879464	6.1879464	6.6463128	79.02809694	-2.44653066	-51.73237782
1.73	173	-0.11	-0.822	-0.124	6.7609044	9.2246238	5.3285094	79.09112232	-2.48090814	-51.63497496
1.74	174	-0.132	-0.827	-0.115	7.5630456	12.6623718	4.870143	79.15987728	-2.50955604	-51.49746504
1.75	175	-0.154	-0.844	-0.104	8.0787078	16.615782	5.2139178	79.2400914	-2.54393352	-51.32557764
1.76	176	-0.164	-0.855	-0.092	8.3651868	20.9702628	6.0733548	79.30884636	-2.57258142	-51.1078536
1.77	177	-0.163	-0.852	-0.078	9.2819196	23.777757	6.4744254	79.38906048	-2.59549974	-50.86148166
1.78	178	-0.152	-0.843	-0.065	10.3705398	26.069589	6.589017	79.48073376	-2.61841806	-50.59792098
1.79	179	-0.134	-0.841	-0.047	11.0580894	27.4446882	6.2452422	79.57813662	-2.6356068	-50.31717156
1.8	180	-0.111	-0.835	-0.043	11.0580894	28.1322378	5.2139178	79.68126906	-2.65279554	-50.03069256
1.81	181	-0.089	-0.826	-0.038	11.5737516	28.2468294	3.8388186	79.77867192	-2.64706596	-49.74421356
1.82	182	-0.063	-0.82	-0.029	12.8342592	27.215505	2.291832	79.89326352	-2.62414764	-49.4749233
1.83	183	-0.046	-0.816	-0.016	14.896908	26.2414764	0.4010706	80.03077344	-2.58977016	-49.21136262
1.84	184	-0.036	-0.815	0.001	17.3033316	25.2674478	-1.3750992	80.19120168	-2.53820394	-48.96499068
1.85	185	-0.026	-0.82	0.005	19.1367972	24.8663772	-3.0366774	80.3860074	-2.46944898	-48.72434832
1.86	186	-0.018	-0.818	0.016	22.1161788	23.8923486	-4.870143	80.59800186	-2.38923486	-48.49516512
1.87	187	-0.018	-0.813	0.04	25.78311	22.345362	-6.3598338	80.8443738	-2.291832	-48.28890024
1.88	188	-0.022	-0.815	0.055	27.6165756	21.772404	-7.3338624	81.11366406	-2.18869956	-48.08263536
1.89	189	-0.034	-0.836	0.064	29.1635622	21.9442914	-7.7922288	81.40014306	-2.08556712	-47.87637048
1.9	190	-0.042	-0.9	0.054	28.7624916	22.631841	-8.0787078	81.69235164	-1.9767051	-47.65864644
1.91	191	-0.047	-0.975	0.031	24.5798982	22.6891368	-8.1932994	81.932994	-1.86784308	-47.44665198
1.92	192	-0.059	-1.035	0.003	21.199446	22.0015872	-7.8495246	82.13925888	-1.76471064	-47.2403871
1.93	193	-0.059	-1.08	-0.007	18.621135	21.3713334	-6.589017	82.31687586	-1.67303736	-47.03412222
1.94	194	-0.054	-1.105	-0.006	14.037471	20.4546006	-4.1252976	82.45438578	-1.61001198	-46.8393165
1.95	195	-0.048	-1.117	-0.021	8.307891	18.6784308	-1.4896908	82.54032948	-1.5756345	-46.65596994
1.96	196	-0.035	-1.126	-0.027	5.3285094	15.9855282	0.7448454	82.5918957	-1.56990492	-46.4955417
1.97	197	-0.016	-1.149	-0.007	4.6409598	13.9228794	2.0626488	82.63200276	-1.5756345	-46.3523022
1.98	198	0.001	-1.171	0.047	5.3285094	13.0634424	2.9220858	82.68356898	-1.58709366	-46.22052186
1.99	199	-0.004	-1.182	0.119	4.870143	15.756345	3.5523396	82.72367604	-1.61001198	-46.06009362
2	200	-0.033	-1.178	0.167	4.1825934	20.1681216	4.6982556	82.78097184	-1.6329303	-45.85955832
2.01	201	-0.072	-1.168	0.178	6.1879464	22.631841	6.6463128	82.83253806	-1.67876694	-45.62464554
2.02	202	-0.123	-1.333	-0.154	-2.6356068	14.896908	11.4018642	82.80389016	-1.7761698	-45.4642173
2.03	203	-0.001	-1.573	-0.078	-12.032118	-9.1100322	19.3086846	82.68356898	-1.9767051	-45.53297226
2.04	204	0.117	-1.785	-0.125	-22.4026578	-29.6219286	26.4133638	82.47157452	-2.26891368	-45.79653294
2.05	205	0.31	-1.734	-0.372	-42.112413	-35.6952834	32.5440144	82.05904476	-2.62987722	-46.10593026
2.06	206	0.305	-1.544	-0.235	-8.0787078	-24.637194	36.6120162	81.9902898	-3.01948866	-46.30073598
2.07	207	0.143	-1.349	-0.287	2.005353	-11.9175264	27.4446882	82.0189377	-3.30023808	-46.3809501
2.08	208	-0.007	-1.243	-0.591	-1.432395	-14.32395	19.3659804	82.01320812	-3.50650296	-46.4955417
2.09	209	0	-1.261	-0.581	1.7761698	-24.6944898	17.9908812	82.0475856	-3.71276784	-46.71326574
2.1	210	-0.013	-1.198	-0.401	9.6256944	-25.9549974	17.761698	82.15644762	-3.91330314	-46.94244894
2.11	211	-0.087	-1.057	-0.3	9.1100322	-21.3713334	16.2147114	82.26530964	-4.09092012	-47.13152508
2.12	212	-0.152	-0.931	-0.298	8.5370742	-11.3445684	14.3812458	82.3627125	-4.24561878	-47.22319836
2.13	213	-0.153	-0.872	-0.354	3.5523396	-0.4583664	11.9175264	82.39708998	-4.36593996	-47.21746878
2.14	214	-0.182	-0.83	-0.423	1.3750992	11.8602306	10.886202	82.39708998	-4.45761324	-47.08568844
2.15	215	-0.235	-0.837	-0.387	3.437748	17.0168526	13.0634424	82.38563082	-4.59512316	-46.8966123
2.16	216	-0.282	-0.874	-0.337	0.9167328	18.2200644	16.6730778	82.37417166	-4.73836266	-46.69034742
2.17	217	-0.29	-0.908	-0.309	-4.9274388	16.3865988	18.9649098	82.3054167	-4.91025006	-46.50700086
2.18	218	-0.249	-0.936	-0.288	-9.6829902	12.3758928	18.7357266	82.19655468	-5.08213746	-46.35803178
2.19	219	-0.163	-0.949	-0.256	-10.0840608	8.1360036	16.1001198	82.08196308	-5.23110654	-46.26062892
2.2	220	-0.083	-0.94	-0.225	-8.307891	5.5003968	11.9175264	81.96737148	-5.33996856	-46.18614438
2.21	221	-0.04	-0.921	-0.202	-5.3285094	4.297185	6.1879464	81.9043461	-5.39726436	-46.13457816
2.22	222	0.009	-0.913	-0.187	-5.6722842	4.4117766	-0.572958	81.8470503	-5.3858052	-46.0944711
2.23	223	0.052	-0.892	-0.174	-5.0993262	4.4690724	-6.7036086	81.7897545	-5.31705024	-46.06009362
2.24	224	0.094	-0.873	-0.166	-4.6409598	5.2712136	-11.5737516	81.73818828	-5.19672906	-46.02571614
2.25	225	0.106	-0.849	-0.174	-4.6982556	6.0733548	-12.891555	81.6751629	-5.03057124	-45.9798795
2.26	226	0.088	-0.834	-0.178	-4.0680018	6.1879464	-11.8029348	81.62359668	-4.91025006	-45.93977244
2.27	227	0.06	-0.835	-0.17	-4.0680018	5.6149884	-9.6256944	81.57776004	-4.80711762	-45.8939358
2.28	228	0.03	-0.844	-0.155	-5.7868758	4.6409598	-7.7922288	81.51473466	-4.7269035	-45.8652879
2.29	229	0.001	-0.862	-0.145	-8.4797784	3.6096354	-6.8182002	81.42879096	-4.65241896	-45.83664
2.3	230	-0.016	-0.881	-0.133	-10.8289062	2.5210152	-6.3598338	81.31419936	-4.57793442	-45.82518084
2.31	231	-0.034	-0.899	-0.127	-12.891555	1.7761698	-6.1879464	81.18241902	-4.52063862	-45.81372168
2.32	232	-0.047	-0.921	-0.125	-15.0114996	0.8021412	-6.7609044	81.02772036	-4.45188366	-45.81945126
2.33	233	-0.051	-0.928	-0.116	-15.756345	-0.572958	-7.3338624	80.86729212	-4.3831287	-45.83664
2.34	234	-0.043	-0.916	-0.107	-16.7876694	-1.9480572	-7.2765666	80.7011343	-4.31437374	-45.87101748
2.35	235	-0.033	-0.886	-0.097	-16.9595568	-2.9793816	-6.9900876	80.53497648	-4.24561878	-45.91112454
2.36	236	-0.027	-0.851	-0.095	-17.0741484	-3.6096354	-6.589017	80.36881866	-4.18832298	-45.96269076
2.37	237	-0.027	-0.827	-0.104	-17.2460358	-3.6669312	-6.1879464	80.19693126	-4.13675676	-46.0085274
2.38	238	-0.011	-0.825	-0.112	-17.6471064	-3.437748	-6.302538	80.01931428	-4.07946096	-46.05436404
2.39	239	0.007	-0.84	-0.114	-17.5325148	-3.2658606	-6.5317212	79.84742688	-4.02216516	-46.10020068
2.4	240	0.028	-0.871	-0.116	-16.7876694	-2.9220858	-6.0733548	79.68126906	-3.9534102	-46.14603732
2.41	241	0.035	-0.91	-0.116	-15.5844576	-2.1199446	-4.6409598	79.5265704	-3.90757356	-46.17468522
2.42	242	0.027	-0.924	-0.103	-13.5218088	-1.718874	-2.6929026	79.38906048	-3.88465524	-46.19760354
2.43	243	0.01	-0.922	-0.079	-10.7716104	-1.9480572	-0.859437	79.28019846	-3.88465524	-46.22052186
2.44	244	-0.006	-0.916	-0.058	-8.9954406	-2.3491278	0.5156622	79.19425476	-3.89038482	-46.24344018
2.45	245	-0.016	-0.904	-0.05	-7.6776372	-2.86479	1.9480572	79.14268854	-3.90184398	-46.27208808
2.46	246	-0.019	-0.884	-0.048	-5.2712136	-3.8961144	3.6096354	79.09112232	-3.94768062	-46.30073598
2.47	247	-0.023	-0.86	-0.042	-1.8334656	-5.8441716	5.0993262	79.07966316	-4.00497642	-46.3523022
2.48	248	-0.025	-0.827	-0.035	3.0939732	-8.5370742	6.8182002	79.11404064	-4.08519054	-46.42105716
2.49	249	-0.024	-0.796	-0.002	8.59437	-12.2040054	8.1932994	79.2114435	-4.1825934	-46.5241896
2.5	250	-0.016	-0.785	0.034	13.6364004	-16.1574156	8.9954406	79.37760132	-4.29145542	-46.6674291
2.51	251	-0.005	-0.81	0.05	16.329303	-18.4492476	9.2246238	79.56094788	-4.4117766	-46.82785734
2.52	252	0.002	-0.868	0.046	17.0741484	-18.7930224	9.5683986	79.75002402	-4.53209778	-46.99401516
2.53	253	0.009	-0.944	0.029	16.3865988	-18.2200644	10.3705398	79.93337058	-4.65814854	-47.1544434
2.54	254	0.022	-1.016	0.025	15.4125702	-17.7044022	11.0007936	80.10525798	-4.78992888	-47.30914206
2.55	255	0.032	-1.061	0.035	14.32395	-17.1314442	11.8029348	80.28287496	-4.91597964	-47.45811114
2.56	256	0.024	-1.073	0.046	14.4385416	-15.6417534	12.318597	80.4433032	-5.05348956	-47.58989148
2.57	257	-0.011	-1.069	0.064	16.3865988	-12.8342592	12.4331886	80.62092018	-5.19099948	-47.69302392
2.58	258	-0.06	-1.074	0.082	19.6524594	-9.2819196	11.8029348	80.83291464	-5.31705024	-47.76750846
2.59	259	-0.113	-1.109	0.073	20.9702628	-5.2712136	9.9694692	81.0449091	-5.42018268	-47.80188594
2.6	260	-0.174	-1.182	0.071	18.334656	0	7.0473834	81.25117398	-5.49466722	-47.79042678
2.61	261	-0.233	-1.283	0.088	7.1046792	7.3338624	4.1825934	81.31419936	-5.5290447	-47.71021266
2.62	262	-0.281	-1.359	0.016	-10.313244	17.8762896	2.5210152	81.19387818	-5.5290447	-47.53259568
2.63	263	-0.295	-1.371	-0.092	-17.1314442	30.7678446	0	80.98188372	-5.49466722	-47.22892794
2.64	264	-0.278	-1.358	-0.226	-10.4278356	40.4508348	-3.9534102	80.83291464	-5.40299394	-46.8393165
2.65	265	-0.235	-1.322	-0.337	2.4064236	42.97185	-9.1100322	80.80999632	-5.25975444	-46.42678674
2.66	266	-0.167	-1.294	-0.403	10.886202	44.8053156	-13.9801752	80.87875128	-5.06494872	-46.0085274
2.67	267	-0.068	-1.262	-0.454	7.161975	48.0138804	-16.615782	80.90739918	-4.83576552	-45.56162016
2.68	268	-0.002	-1.252	-0.5	5.3285094	48.1857678	-16.9595568	80.91312876	-4.60658232	-45.11471292
2.69	269	0.048	-1.266	-0.565	3.2658606	51.1078536	-14.610429	80.9016696	-4.40031744	-44.6334282
2.7	270	-0.01	-1.236	-0.635	2.9793816	56.0925882	-13.4072172	80.8730217	-4.19405256	-44.10057726
2.71	271	-0.133	-1.099	-0.671	1.2605076	53.6288688	-13.5218088	80.8443738	-3.98778768	-43.59637422
2.72	272	-0.17	-0.935	-0.693	-0.9167328	43.9458786	-13.2926256	80.79853716	-3.80444112	-43.18384446
2.73	273	-0.075	-0.825	-0.674	-2.005353	33.6326346	-13.2926256	80.75270052	-3.62682414	-42.87444714
2.74	274	0.055	-0.797	-0.588	-4.010706	27.2728008	-13.3499214	80.69540472	-3.46066632	-42.6280752
2.75	275	0.151	-0.82	-0.498	-5.2712136	24.8663772	-13.178034	80.58081312	-3.2658606	-42.398892
2.76	276	0.21	-0.878	-0.434	-6.2452422	26.069589	-11.45916	80.500599	-3.1226211	-42.16397922
2.77	277	0.221	-0.952	-0.401	-4.9847346	28.8197874	-6.589017	80.43184404	-3.01948866	-41.89468896
2.78	278	0.164	-1.01	-0.357	-3.0939732	30.3094782	1.0886202	80.38027782	-2.98511118	-41.59102122
2.79	279	0.059	-1.034	-0.341	-0.9167328	32.2002396	8.8235532	80.34590034	-3.03094782	-41.26443516
2.8	280	-0.058	-1.041	-0.328	1.0313244	35.0077338	14.896908	80.32298202	-3.12835068	-40.89201246
2.81	281	-0.166	-1.04	-0.288	2.4064236	37.24227	18.6784308	80.31725244	-3.26013102	-40.49667144
2.82	282	-0.254	-1.02	-0.257	1.8334656	38.101707	20.340009	80.31152286	-3.4091001	-40.08987126
2.83	283	-0.298	-0.977	-0.244	0.2291832	37.4714532	19.5378678	80.28287496	-3.54661002	-39.68880066
2.84	284	-0.297	-0.928	-0.24	-1.2605076	36.5547204	17.0168526	80.2427679	-3.66120162	-39.3049188
2.85	285	-0.259	-0.893	-0.231	-2.4637194	35.7525792	13.750992	80.17401294	-3.76433406	-38.92676652
2.86	286	-0.212	-0.869	-0.217	-3.4950438	35.4088044	10.9434978	80.11098756	-3.82162986	-38.56580298
2.87	287	-0.166	-0.854	-0.209	-4.6409598	35.6952834	9.1100322	80.03650302	-3.86173692	-38.19910986
2.88	288	-0.122	-0.834	-0.199	-5.6149884	36.669312	7.5630456	79.95055932	-3.88465524	-37.82668716
2.89	289	-0.113	-0.815	-0.198	-5.7868758	38.7319608	5.9587632	79.85888604	-3.88465524	-37.43707572
2.9	290	-0.12	-0.802	-0.197	-6.1879464	40.8519054	4.6409598	79.7557536	-3.87892566	-37.03027554
2.91	291	-0.137	-0.805	-0.206	-7.0473834	42.7426668	4.583664	79.64689158	-3.86173692	-36.60055704
2.92	292	-0.156	-0.824	-0.208	-6.1306506	44.3469492	5.5003968	79.54948872	-3.85027776	-36.15937938
2.93	293	-0.17	-0.86	-0.202	-5.443101	45.9512316	7.1046792	79.45781544	-3.85027776	-35.6952834
2.94	294	-0.183	-0.899	-0.195	-5.8441716	47.4982182	9.167328	79.36041258	-3.8674665	-35.21399868
2.95	295	-0.185	-0.92	-0.19	-6.2452422	49.274388	11.1153852	79.25155056	-3.90757356	-34.70979564
2.96	296	-0.175	-0.922	-0.193	-7.161975	50.1911208	11.6310474	79.13695896	-3.94195104	-34.19986302
2.97	297	-0.161	-0.912	-0.193	-8.0787078	50.0765292	11.0007936	79.0109082	-3.97059894	-33.6899304
2.98	298	-0.149	-0.902	-0.193	-9.3392154	49.560867	9.3392154	78.87912786	-3.9820581	-33.19145694
2.99	299	-0.13	-0.895	-0.188	-9.3392154	48.8160216	6.7609044	78.74161794	-3.97059894	-32.69871306
3	300	-0.12	-0.902	-0.174	-8.7089616	48.2430636	3.6669312	78.6098376	-3.93049188	-32.22315792
3.01	301	-0.103	-0.914	-0.166	-8.1360036	47.7274014	0.7448454	78.48951642	-3.85600734	-31.75906194
3.02	302	-0.092	-0.929	-0.148	-6.875496	47.0398518	-1.6615782	78.38638398	-3.75860448	-31.30069554
3.03	303	-0.077	-0.94	-0.134	-5.3285094	46.2377106	-3.5523396	78.2947107	-3.64401288	-30.85951788
3.04	304	-0.072	-0.948	-0.12	-4.5263682	45.9512316	-4.5263682	78.21449658	-3.5236917	-30.41834022
3.05	305	-0.059	-0.946	-0.108	-4.870143	46.4668938	-5.2139178	78.14001204	-3.39191136	-29.97716256
3.06	306	-0.063	-0.937	-0.104	-5.0993262	47.0971476	-6.0733548	78.05406834	-3.24867186	-29.53025532
3.07	307	-0.073	-0.927	-0.103	-5.156622	47.6128098	-6.9327918	77.97385422	-3.0939732	-29.08334808
3.08	308	-0.088	-0.927	-0.1	-4.9847346	48.2430636	-7.9068204	77.88791052	-2.93354496	-28.63071126
3.09	309	-0.103	-0.935	-0.1	-5.0993262	49.1025006	-9.167328	77.8076964	-2.75592798	-28.17234486
3.1	310	-0.123	-0.944	-0.091	-5.443101	49.7327544	-10.9434978	77.73321186	-2.56685184	-27.70824888
3.11	311	-0.139	-0.953	-0.091	-7.0473834	50.420304	-12.7196676	77.635809	-2.3491278	-27.24988248
3.12	312	-0.149	-0.95	-0.09	-9.3392154	51.1078536	-14.037471	77.51548782	-2.1199446	-26.78005692
3.13	313	-0.145	-0.948	-0.095	-11.5164558	51.4516284	-15.2979786	77.37224832	-1.87357266	-26.31596094
3.14	314	-0.132	-0.939	-0.103	-13.9228794	52.5975444	-16.7876694	77.21182008	-1.61574156	-25.8404058
3.15	315	-0.127	-0.936	-0.103	-16.042824	54.0872352	-18.907614	77.0342031	-1.33499214	-25.35912108
3.16	316	-0.116	-0.932	-0.107	-19.0795014	56.0352924	-21.199446	76.82220864	-1.01986524	-24.8663772
3.17	317	-0.104	-0.919	-0.112	-21.4286292	57.9260538	-23.3193906	76.58729586	-0.68182002	-24.36217416
3.18	318	-0.097	-0.919	-0.109	-23.4339822	58.728195	-25.5539268	76.33519434	-0.3151269	-23.85224154
3.19	319	-0.081	-0.925	-0.109	-26.8144344	58.0979412	-27.215505	76.05444492	0.06302538	-23.35949766
3.2	320	-0.061	-0.936	-0.119	-30.653253	57.6395748	-28.1895336	75.7450476	0.44690724	-22.87248336
3.21	321	-0.044	-0.933	-0.108	-33.1742682	57.6968706	-29.220858	75.4012728	0.85370742	-22.39119864
3.22	322	-0.045	-0.937	-0.112	-35.809875	58.4990118	-30.8824362	75.04030926	1.27769634	-21.90418434
3.23	323	-0.059	-0.932	-0.119	-39.4768062	60.7908438	-33.231564	74.64496824	1.73606274	-21.41144046
3.24	324	-0.081	-0.916	-0.129	-42.4561878	62.1086472	-35.9817624	74.22097932	2.22307704	-20.912967
3.25	325	-0.113	-0.903	-0.139	-45.3209778	63.9421128	-39.1330314	73.77407208	2.73873924	-20.40876396
3.26	326	-0.146	-0.889	-0.141	-48.414951	66.6350154	-43.7739912	73.30424652	3.3231564	-19.89883134
3.27	327	-0.175	-0.874	-0.146	-53.1132066	69.3852138	-49.847346	72.78858432	3.97059894	-19.38316914
3.28	328	-0.181	-0.878	-0.143	-58.3271244	73.2240324	-56.3217714	72.2213559	4.6982556	-18.85604778
3.29	329	-0.164	-0.872	-0.13	-60.3897732	77.4066258	-61.592985	71.6483979	5.48893764	-18.31746726
3.3	330	-0.16	-0.841	-0.059	-59.9887026	80.1568242	-65.9474658	71.08689906	6.3311859	-17.76742758
3.31	331	-0.152	-0.831	-0.002	-63.9421128	83.938347	-69.327918	70.49675232	7.22500038	-17.20019916
3.32	332	-0.155	-0.825	0.007	-68.8122558	89.8971102	-71.046792	69.86649852	8.15892192	-16.59286368
3.33	333	-0.151	-0.771	0.035	-70.473834	94.3088868	-72.479187	69.23051514	9.12722094	-15.9568803
3.34	334	-0.141	-0.705	0.094	-71.61975	99.9238752	-75.057498	68.60026134	10.14708618	-15.29224902
3.35	335	-0.131	-0.656	0.15	-72.8802576	105.99723	-79.2973872	67.98719628	11.22424722	-14.58751068
3.36	336	-0.1	-0.618	0.16	-75.1147938	113.1019092	-83.7091638	67.35694248	12.38162238	-13.84266528
3.37	337	-0.053	-0.547	0.174	-71.7916374	119.9201094	-86.3447706	66.78971406	13.59629334	-13.05771282
3.38	338	0.004	-0.48	0.212	-63.8275212	127.1393802	-88.0063488	66.33134766	14.85680094	-12.21546456
3.39	339	0.054	-0.444	0.217	-55.4623344	134.8170174	-89.2668564	65.98757286	16.16887476	-11.31019092
3.4	340	0.025	-0.436	0.21	-44.9199072	140.4893016	-90.6419556	65.79849672	17.51532606	-10.35335106
3.41	341	0.009	-0.39	0.258	-30.5959572	143.4686832	-91.2149136	65.7755784	18.88469568	-9.36213372
3.42	342	0.069	-0.34	0.286	-19.9389384	143.8697538	-88.80849	65.89017	20.23114698	-8.35372764
3.43	343	0.145	-0.272	0.327	-14.1520626	140.5465974	-81.646515	66.0907053	21.50311374	-7.32813282
3.44	344	0.154	-0.234	0.263	-10.3705398	137.0515536	-73.1094408	66.35999556	22.67767764	-6.29107884
3.45	345	0.198	-0.23	0.137	-9.5111028	132.6970728	-66.5777196	66.65793372	23.777757	-5.24829528
3.46	346	0.228	-0.245	0.055	-11.0580894	128.1707046	-61.9367598	66.9501423	24.8090814	-4.22270046
3.47	347	0.191	-0.289	-0.082	-16.4438946	122.613012	-59.1292656	67.19078466	25.79456916	-3.22575354
3.48	348	0.154	-0.344	-0.207	-22.0015872	116.8261362	-57.3530958	67.37413122	26.73422028	-2.26891368
3.49	349	0.167	-0.418	-0.291	-26.069589	110.3517108	-53.9153478	67.51164114	27.6165756	-1.35791046
3.5	350	0.193	-0.559	-0.365	-29.9084076	104.7940182	-49.6181628	67.60331442	28.43017596	-0.47555514
3.51	351	0.227	-0.75	-0.377	-31.9137606	98.9498466	-48.8733174	67.6663398	29.220858	0.34950438
3.52	352	0.259	-0.953	-0.367	-34.37748	94.8818448	-52.5975444	67.68925812	30.03445836	1.12872726
3.53	353	0.329	-1.031	-0.323	-34.1482968	88.9803774	-56.8374336	67.68352854	30.86524746	1.8334656
3.54	354	0.372	-0.988	-0.29	-31.7418732	81.360036	-57.9833496	67.67779896	31.67884782	2.45798982
3.55	355	0.363	-0.874	-0.312	-28.4187168	74.9429064	-55.8061092	67.67779896	32.44088196	3.02521824
3.56	356	0.335	-0.753	-0.336	-22.91832	70.0154676	-50.9359662	67.72936518	33.15134988	3.56952834
3.57	357	0.259	-0.632	-0.357	-14.5531332	67.036086	-44.9199072	67.8668751	33.79879242	4.10810886
3.58	358	0.143	-0.488	-0.378	-3.3231564	65.7755784	-37.8725238	68.14189494	34.37748	4.67533728
3.59	359	0.016	-0.362	-0.351	9.2246238	65.2599162	-31.1689152	68.56588386	34.88741262	5.27694318
3.6	360	-0.123	-0.261	-0.313	16.5011904	68.4111852	-27.215505	69.09300522	35.3515086	5.9301153
3.61	361	-0.245	-0.164	-0.307	19.1367972	76.6044846	-25.6112226	69.7289886	35.8385229	6.7036086
3.62	362	-0.339	-0.053	-0.256	22.1734746	88.1209404	-24.0069402	70.48529316	36.33699636	7.63180056
3.63	363	-0.423	0.047	-0.198	21.7151082	102.3302988	-23.6631654	71.35045974	36.8698473	8.7376095
3.64	364	-0.503	0.105	-0.172	14.610429	121.1233212	-25.6112226	72.29584044	37.45426446	10.0840608
3.65	365	-0.54	0.202	-0.08	3.3231564	141.7498092	-27.2728008	73.28705778	38.0730591	11.6883432
3.66	366	-0.649	0.281	-0.047	-7.1046792	165.4129746	-31.2835068	74.38140756	38.78352702	13.60202292
3.67	367	-0.686	0.337	-0.036	-17.18874	192.7430712	-33.8618178	75.61899684	39.55129074	15.87666618
3.68	368	-0.685	0.344	0.02	-21.0275586	214.286292	-32.8877892	77.04566226	40.3075953	18.4778955
3.69	369	-0.587	0.313	0.027	-15.1260912	227.9799882	-25.78311	78.71297004	40.97222658	21.32549676
3.7	370	-0.556	0.325	0.081	-7.3338624	232.9647228	-15.1260912	80.58081312	41.46497046	24.31633752
3.71	371	-0.485	0.29	0.133	7.9068204	228.7821294	-2.7501984	82.62627318	41.76290862	27.31863744
3.72	372	-0.444	0.247	0.148	24.5226024	221.448267	9.1100322	84.80924316	41.8545819	30.25791198
3.73	373	-0.234	0.065	0.194	39.1330314	221.0471964	15.9855282	87.14118222	41.79155652	33.20864568
3.74	374	-0.005	0.039	0.761	30.9970278	227.9799882	-1.3750992	89.44447338	41.80874526	36.2395935
3.75	375	1.381	0.095	0.587	-29.4500412	258.690537	-61.6502808	91.4154489	42.33013704	39.68307108
3.76	376	2.968	-0.327	0.238	22.8610242	253.3047318	-85.9437	93.95938242	43.0004979	43.1437374
3.77	377	3.687	-0.998	0.604	77.6931048	216.6354198	-89.7825186	96.81271326	43.63648128	46.19760354
3.78	378	3.995	-1.506	1.133	88.3501236	175.898106	-126.5091264	99.52853418	44.59332114	48.85039908
3.79	379	3.996	-2.52	0.711	127.7123382	123.18597	-138.3120612	102.2787326	45.68767092	50.93023662
3.8	380	3.996	-3.967	-0.728	225.5735646	-27.6165756	-86.7458412	104.5361871	46.61586288	50.89012956
3.81	381	3.996	-3.379	-1.105	77.5212174	-286.8227748	-158.5947744	102.7829356	48.89050614	47.39508576
3.82	382	3.996	-0.978	3.313	268.4881188	68.8695516	-331.2843156	107.3723292	51.8813469	49.82442768
3.83	383	3.789	-0.992	3.999	6.3598338	-52.712136	-291.7502136	107.9739351	54.80916228	50.50051812
3.84	384	2.17	-1.618	1.984	-18.2200644	-233.9960472	-318.1062816	105.8711792	58.56203718	48.1857678
3.85	385	0.924	-1.444	-1.313	-0.2291832	-260.8104816	-379.7565624	103.1897358	62.92797714	45.06887628
3.86	386	1.342	0.009	-0.84	-31.7418732	-106.7420754	-403.2478404	102.6225074	67.08765222	44.78812686
3.87	387	1.723	0.998	1.571	-11.2872726	0.9740286	-346.63959	104.6278604	70.42799736	47.0684997
3.88	388	1.565	0.469	0.783	44.977203	-14.5531332	-297.8808642	107.1775235	73.31570568	49.274388
3.89	389	1.346	-0.178	0.023	-20.9702628	16.902261	-272.8998954	110.7527814	75.81953214	53.21060946
3.9	390	1.539	-0.022	0.401	-127.1393802	86.4593622	-250.0388712	116.9808349	77.7217527	60.93981288
3.91	391	1.422	-0.174	0.126	-116.4250656	57.8114622	-223.0525494	123.6271477	79.3260351	68.94403614
3.92	392	1.402	-0.625	-0.126	-75.916935	35.4661002	-232.5063564	132.5595629	80.92458792	78.79891374
3.93	393	1.297	-0.89	0.013	-79.5265704	13.8082878	-243.9655164	144.7635683	82.42573788	91.95402942
3.94	394	1.297	-0.776	0.235	-100.3249458	-0.9740286	-245.512503	161.3850799	83.54873556	109.7271866
3.95	395	1.113	-0.505	0.009	-109.8360486	-0.7448454	-231.4177362	-179.0665637	83.92688784	130.5141028
3.96	396	0.745	0.25	-0.143	-112.1851764	13.6364004	-223.9119864	-160.7032598	83.40549606	150.1379143
3.97	397	0.948	0.677	-0.18	-96.3715356	24.5226024	-193.946283	-148.6195756	82.36844208	163.3044892
3.98	398	1.004	0.515	-0.14	-61.592985	31.8564648	-160.8866064	-141.4919781	81.19960776	171.1425546
3.99	399	0.882	0.737	-0.104	-59.9887026	37.0703826	-124.904844	-137.8536948	80.1281763	175.4569283
4	400	0.814	0.855	-0.067	-35.7525792	37.3568616	-94.0797036	-135.7681277	79.21717308	177.9435661
4.01	401	0.789	0.682	0.028	-12.1467096	30.8251404	-68.5257768	-134.5706455	78.5238939	179.2957469
4.02	402	0.817	0.582	0.077	-11.9748222	25.6112226	-52.0245864	-133.8659071	77.98531338	-179.8515162
4.03	403	0.693	0.563	0.111	-15.5271618	20.6837838	-41.252976	-133.4247295	77.5498653	-179.2327216
4.04	404	0.652	0.537	0.138	-18.7357266	18.5638392	-34.7785506	-133.1726279	77.1774426	-178.7800847
4.05	405	0.605	0.488	0.155	-15.6990492	20.5118964	-29.507337	-133.0293884	76.79929032	-178.4649578
4.06	406	0.638	0.443	0.144	-11.5164558	24.350715	-24.8663772	-133.2012758	76.4612451	-178.5165241
4.07	407	0.619	0.403	0.161	-5.0993262	30.7105488	-25.6685184	-133.4705661	76.07163366	-178.7342481
4.08	408	0.6	0.341	0.177	-3.437748	36.1536498	-28.1322378	-133.7971522	75.630456	-179.0321863
4.09	409	0.541	0.325	0.233	-0.859437	41.9978214	-31.0543236	-134.1695749	75.12625296	-179.404609
4.1	410	0.537	0.407	0.248	-3.4950438	45.7793442	-34.37748	-134.5248088	74.55329496	-179.7254654
4.11	411	0.598	0.424	0.249	0.2291832	45.9512316	-33.4607472	-134.8800428	74.00325528	179.9030824
4.12	412	0.678	0.331	0.279	5.2139178	47.1544434	-25.8977016	-135.3670571	73.49905224	179.3473132
4.13	413	0.713	0.405	0.272	2.6929026	46.982556	-15.9855282	-136.077525	73.06360416	178.5795494
4.14	414	0.773	0.413	0.292	8.9381448	43.7739912	-6.302538	-136.8452887	72.71409978	177.6914645
4.15	415	0.848	0.381	0.365	1.0313244	42.5707794	6.4744254	-137.8880723	72.4218912	176.5913852
4.16	416	0.856	0.385	0.351	3.6096354	38.6173692	12.5477802	-138.9709629	72.22708548	175.4225509
4.17	417	0.886	0.377	0.399	11.6310474	35.6379876	15.0687954	-139.9392619	72.06092766	174.2766349
4.18	418	0.921	0.322	0.425	9.9121734	37.0130868	18.2773602	-141.016423	71.90049942	173.0505047
4.19	419	0.968	0.351	0.427	4.5263682	38.1590028	19.7097552	-142.1795277	71.7343416	171.778538
4.2	420	1.013	0.334	0.425	2.291832	38.5600734	22.4026578	-143.4056578	71.55672462	170.4664642
4.21	421	1.043	0.302	0.402	1.0313244	37.7579322	27.1009134	-144.7291908	71.4192147	169.0627171
4.22	422	1.057	0.279	0.408	-0.0572958	33.2888598	31.3408026	-146.0699125	71.333271	167.6532404
4.23	423	1.076	0.28	0.414	0.4583664	25.0955604	36.4401288	-147.3819863	71.32754142	166.266682
4.24	424	1.108	0.252	0.436	1.0313244	16.6730778	40.680018	-148.6596827	71.40202596	164.9087716
4.25	425	1.126	0.232	0.454	-2.291832	7.734933	45.3209778	-149.9660269	71.5624542	163.5565907
4.26	426	1.125	0.254	0.448	-4.4117766	0.4010706	48.5295426	-151.2838303	71.79736698	162.215869
4.27	427	1.098	0.245	0.438	-2.9793816	-6.589017	51.3943326	-152.5959041	72.09530514	160.8694177
4.28	428	1.08	0.224	0.439	-0.6302538	-13.4072172	53.8007562	-153.8907892	72.4505391	159.5115072
4.29	429	1.104	0.2	0.46	2.7501984	-20.1681216	54.7747848	-155.1398377	72.86306886	158.1707855
4.3	430	1.107	0.174	0.481	3.7815228	-25.3820394	55.0612638	-156.3831565	73.3099761	156.8243342
4.31	431	1.107	0.16	0.485	1.6042824	-30.4813656	53.9726436	-157.6035571	73.79126082	155.5294491
4.32	432	1.114	0.177	0.449	-0.572958	-33.2888598	51.4516284	-158.8067689	74.2840047	154.2804007
4.33	433	1.105	0.161	0.438	2.1199446	-34.0337052	51.6235158	-160.0558173	74.77674858	152.9568677
4.34	434	1.085	0.167	0.425	1.2605076	-33.0023808	50.4775998	-161.3678911	75.25230372	151.5817685
4.35	435	1.047	0.144	0.391	3.0366774	-32.5440144	49.6754586	-162.720072	75.69921096	150.1436439
4.36	436	1.013	0.106	0.377	6.589017	-34.4920716	48.4722468	-164.0607937	76.16330694	148.6883306
4.37	437	1.015	0.091	0.362	5.7868758	-34.7785506	46.6387812	-165.4244338	76.61021418	147.2158285
4.38	438	0.977	0.109	0.334	7.3338624	-36.2682414	44.977203	-166.7880738	77.06858058	145.7318673
4.39	439	0.992	0.09	0.335	14.6677248	-42.7426668	42.9145542	-168.0142039	77.56705404	144.316661
4.4	440	0.977	0.06	0.328	15.5271618	-47.8992888	42.97185	-169.2919003	78.10563456	142.8384294
4.41	441	0.958	0.056	0.32	14.610429	-52.139178	44.0031744	-170.7242953	78.68432214	141.2169583
4.42	442	0.983	0.05	0.305	15.183387	-56.4936588	45.4928652	-172.351496	79.30311678	139.3949518
4.43	443	0.971	0.046	0.288	15.8709366	-61.8221682	47.1544434	-174.2365278	79.96201848	137.3093847
4.44	444	0.973	0.06	0.282	16.615782	-66.749607	48.4722468	-176.4424161	80.65529766	134.8915019
4.45	445	0.988	0.083	0.271	17.3033316	-72.9375534	49.2170922	-179.0035384	81.3886839	132.1011965
4.46	446	1.029	0.069	0.275	20.9702628	-78.781725	51.7381074	177.7602195	82.1621772	128.6176118
4.47	447	1.039	0.049	0.268	23.6631654	-83.9956428	54.0872352	173.6234627	82.94712966	124.1886465
4.48	448	1.088	0.04	0.221	27.3873924	-87.7198698	54.717489	168.3751675	83.72635254	118.6137652
4.49	449	1.053	0.037	0.152	33.5753388	-89.7252228	54.8320806	161.6944772	84.44827962	111.5434634
4.5	450	1.072	0.015	0.149	42.2843004	-88.522011	56.3790672	153.1688621	85.04988552	102.5365637
4.51	451	0.968	-0.025	0.209	33.9191136	-83.365389	57.8114622	142.6608124	85.4566857	91.63317294
4.52	452	0.945	0	0.222	3.6096354	-70.9322004	53.5142772	131.7574217	85.62284352	80.64956808
4.53	453	0.959	0.023	0.117	-25.6685184	-52.5402486	47.3836266	122.4697725	85.57700688	71.58537252
4.54	454	1.072	-0.013	-0.155	-51.7381074	-43.9458786	43.1437374	114.4655492	85.41657864	64.07962272
4.55	455	1.1	-0.034	-0.341	-46.8106686	-50.5348956	52.6548402	105.928475	85.1129109	55.98372618
4.56	456	0.97	-0.109	-0.315	-23.1475032	-59.301153	62.2805346	97.84976724	84.64308534	48.0998241
4.57	457	0.706	-0.212	-0.25	-2.6356068	-59.1292656	67.6663398	91.39253058	84.03574986	41.63112828
4.58	458	0.643	-0.327	-0.184	-7.5630456	-59.301153	64.171296	86.09839866	83.39976648	36.36564426
4.59	459	0.639	-0.338	-0.179	-6.3598338	-57.1239126	54.6601932	81.82986156	82.81534932	32.12575506
4.6	460	0.622	-0.27	-0.057	-4.0680018	-52.998615	36.8984952	78.27752196	82.36844208	28.57914504
4.61	461	0.742	-0.243	-0.039	-6.3598338	-43.1437374	18.3919518	75.44710944	82.1048814	25.78311
4.62	462	0.881	-0.265	-0.092	-1.718874	-36.382833	5.7868758	73.052145	81.9616419	23.37095682
4.63	463	0.939	-0.231	-0.105	8.9954406	-34.4347758	-3.8388186	70.76604258	81.89861652	20.9702628
4.64	464	0.951	-0.238	-0.063	20.1681216	-33.4034514	-10.2559482	68.53723596	81.89288694	18.5065434
4.65	465	0.969	-0.254	-0.009	27.2728008	-31.2835068	-16.042824	66.4344801	81.92153484	16.09439022
4.66	466	1.012	-0.25	0.002	29.793816	-29.8511118	-20.5118964	64.2285918	81.99601938	13.56191586
4.67	467	1.049	-0.219	-0.003	28.934379	-29.3927454	-22.7464326	61.93103022	82.0762335	10.9434978
4.68	468	1.069	-0.19	-0.023	25.0955604	-28.7051958	-23.4339822	59.56471368	82.15071804	8.29643184
4.69	469	1.065	-0.15	-0.035	21.8869956	-27.8457588	-23.0902074	57.19266756	82.21374342	5.66655462
4.7	470	1.023	-0.133	-0.029	18.9649098	-25.5539268	-21.6005166	54.98104968	82.25958006	3.24294228
4.71	471	0.976	-0.137	-0.022	12.7769634	-19.6524594	-18.7357266	53.13039534	82.3054167	1.23758928
4.72	472	0.954	-0.128	-0.025	6.1306506	-15.4125702	-17.2460358	51.50319462	82.35125334	-0.46409598
4.73	473	0.948	-0.123	-0.042	-0.859437	-12.4331886	-16.902261	49.97339676	82.40281956	-1.99389384
4.74	474	0.952	-0.118	-0.065	-7.9641162	-10.2559482	-16.7303736	48.48370596	82.46584494	-3.42055926
4.75	475	0.954	-0.11	-0.095	-13.6936962	-7.6776372	-16.4438946	47.03412222	82.5345999	-4.73836266
4.76	476	0.95	-0.1	-0.114	-16.9595568	-4.2398892	-16.042824	45.7793442	82.61481402	-5.83844202
4.77	477	0.952	-0.085	-0.124	-18.2200644	-1.3178034	-15.469866	44.67926484	82.71221688	-6.7609044
4.78	478	0.947	-0.068	-0.116	-18.4492476	-0.0572958	-14.3812458	43.67658834	82.80961974	-7.58023434
4.79	479	0.952	-0.054	-0.103	-18.7930224	1.432395	-12.7196676	42.8286105	82.9070226	-8.23913604
4.8	480	0.956	-0.053	-0.095	-20.05353	2.6356068	-11.1153852	42.03219888	82.99869588	-8.83501236
4.81	481	0.964	-0.053	-0.09	-20.912967	3.8388186	-9.5683986	41.44778172	83.09036916	-9.20743506
4.82	482	0.962	-0.055	-0.086	-21.4286292	4.6982556	-7.9641162	41.00087448	83.17058328	-9.44234784
4.83	483	0.961	-0.049	-0.083	-21.8296998	5.156622	-6.875496	40.62845178	83.2507974	-9.59131692
4.84	484	0.978	-0.035	-0.075	-21.6578124	5.2139178	-6.1879464	40.30186572	83.32528194	-9.70017894
4.85	485	0.996	-0.032	-0.071	-19.767051	3.8388186	-5.5003968	39.86068806	83.39976648	-9.9408213
4.86	486	1.003	-0.033	-0.059	-17.5325148	1.5469866	-4.4690724	39.47107662	83.43987354	-10.15281576
4.87	487	1.017	-0.039	-0.042	-15.8709366	-1.0886202	-3.8388186	38.9897919	83.4513327	-10.47367224
4.88	488	1.03	-0.044	-0.027	-15.4125702	-3.0366774	-3.5523396	38.4168339	83.4513327	-10.89193158
4.89	489	1.032	-0.047	-0.015	-15.6417534	-4.4117766	-3.3231564	37.7865801	83.43414396	-11.36748672
4.9	490	1.029	-0.047	-0.016	-15.9855282	-4.870143	-2.9793816	37.16205588	83.43414396	-11.8315827
4.91	491	1.02	-0.037	-0.025	-16.042824	-5.5003968	-2.6356068	36.52034292	83.40549606	-12.31286742
4.92	492	1.009	-0.022	-0.037	-15.2979786	-6.9327918	-1.9480572	35.87290038	83.365389	-12.81134088
4.93	493	0.98	0.002	-0.033	-14.610429	-7.2765666	-2.3491278	35.18535078	83.31382278	-13.35565098
4.94	494	0.986	0.017	-0.044	-13.5218088	-6.7609044	-2.4064236	34.53790824	83.27371572	-13.8655836
4.95	495	0.993	0.041	-0.051	-9.740286	-6.1879464	-2.6356068	33.59825712	83.28517488	-14.70783186
4.96	496	0.996	0.047	-0.056	-6.4171296	-5.6149884	-2.4637194	33.0883245	83.2507974	-15.16046868
4.97	497	0.992	0.044	-0.062	-3.151269	-4.5263682	-2.1772404	32.68152432	83.22787908	-15.53862096
4.98	498	0.995	0.036	-0.066	1.432395	-2.8074942	-1.718874	32.44088196	83.21069034	-15.79645206
4.99	499	1.002	0.026	-0.062	6.1879464	-1.3178034	-1.0886202	32.36639742	83.21069034	-15.93396198
5	500	1.007	0.016	-0.057	10.1986524	-0.286479	-0.2291832	32.10283674	83.26225656	-16.29492552
5.01	501	1.01	0.005	-0.055	13.3499214	0.7448454	0.6875496	32.32629036	83.26798614	-16.20898182
5.02	502	1.016	-0.005	-0.054	15.2979786	1.6615782	1.718874	32.68152432	83.27371572	-16.00844652
5.03	503	1.021	-0.016	-0.057	16.6730778	2.2345362	2.9220858	33.16280904	83.2794453	-15.69331962
5.04	504	1.02	-0.024	-0.059	17.3606274	2.86479	3.8388186	33.75295578	83.2794453	-15.28078986
5.05	505	1.02	-0.032	-0.064	17.761698	3.2085648	4.5263682	34.33737294	83.29663404	-14.8682601
5.06	506	1.015	-0.044	-0.067	18.048177	3.0939732	4.9847346	35.02492254	83.29663404	-14.35832748
5.07	507	1.01	-0.057	-0.066	17.3606274	2.8074942	5.2712136	35.71247214	83.29090446	-13.84839486
5.08	508	1.005	-0.068	-0.068	15.9855282	2.005353	5.3285094	36.34272594	83.2794453	-13.3785693
5.09	509	1.002	-0.074	-0.07	14.2093584	1.145916	5.156622	36.8984952	83.25652698	-12.96030996
5.1	510	0.997	-0.076	-0.072	12.4331886	0.2291832	4.9847346	37.3568616	83.23360866	-12.62799432
5.11	511	0.995	-0.078	-0.074	9.3965112	-0.6875496	4.8128472	37.74074346	83.20496076	-12.34151532
5.12	512	0.994	-0.081	-0.076	7.161975	-1.3178034	4.7555514	38.05587036	83.1648537	-12.09514338
5.13	513	0.996	-0.085	-0.075	5.443101	-1.5469866	4.4690724	38.31943104	83.12474664	-11.88314892
5.14	514	0.998	-0.091	-0.076	3.5523396	-1.4896908	4.1252976	38.54861424	83.09036916	-11.6883432
5.15	515	0.998	-0.093	-0.074	0.9740286	-1.3178034	4.1825934	38.83509324	83.06172126	-11.41332336
5.16	516	0.994	-0.088	-0.071	-1.6042824	-1.3750992	4.297185	39.0184398	83.0216142	-11.21278806
5.17	517	0.994	-0.086	-0.069	-3.437748	-1.145916	4.2398892	39.1903272	82.98723672	-11.00652318
5.18	518	0.993	-0.087	-0.066	-4.8128472	-0.9167328	4.0680018	39.33929628	82.95285924	-10.8002583
5.19	519	0.987	-0.087	-0.064	-6.2452422	-0.286479	3.3804522	39.47107662	82.92994092	-10.60545258
5.2	520	0.983	-0.083	-0.066	-6.9327918	0.5156622	2.86479	39.60858654	82.92421134	-10.39345812
5.21	521	0.983	-0.075	-0.067	-7.2192708	0.9167328	2.3491278	39.7346373	82.91848176	-10.1986524
5.22	522	0.988	-0.071	-0.065	-6.7609044	1.145916	1.8334656	39.84349932	82.91275218	-10.02103542
5.23	523	0.989	-0.07	-0.063	-5.9014674	1.3178034	1.3750992	39.9351726	82.91275218	-9.86633676
5.24	524	0.994	-0.072	-0.059	-5.2712136	1.432395	0.9167328	40.01538672	82.91848176	-9.72882684
5.25	525	0.998	-0.073	-0.055	-4.9847346	1.5469866	0.4010706	40.09560084	82.9643184	-9.5970465
5.26	526	1.003	-0.073	-0.05	-4.7555514	1.9480572	-0.0572958	40.14716706	82.98150714	-9.49964364
5.27	527	1.008	-0.069	-0.049	-4.4690724	2.4064236	-0.4583664	40.19873328	82.99869588	-9.40224078
5.28	528	1.011	-0.065	-0.049	-4.1825934	2.6356068	-0.7448454	40.2502995	83.0216142	-9.30483792
5.29	529	1.014	-0.058	-0.049	-3.4950438	2.9793816	-0.9167328	40.31905446	83.0502621	-9.1959759
5.3	530	1.017	-0.056	-0.044	-2.7501984	2.9220858	-1.0313244	40.35916152	83.14193538	-9.12722094
5.31	531	1.02	-0.055	-0.043	-1.8907614	2.6929026	-1.145916	40.41072774	83.17058328	-9.0527364
5.32	532	1.02	-0.054	-0.042	-1.0886202	2.578311	-1.3750992	40.45656438	83.19923118	-8.9954406
5.33	533	1.022	-0.051	-0.042	0.1145916	2.2345362	-1.6615782	40.4794827	83.22787908	-8.97825186
5.34	534	1.021	-0.052	-0.037	1.5469866	1.6042824	-2.005353	40.4508348	83.2507974	-9.01835892
5.35	535	1.02	-0.055	-0.037	2.3491278	0.5156622	-2.5210152	40.32478404	83.34820026	-9.167328
5.36	536	1.021	-0.056	-0.039	2.86479	-0.0572958	-2.86479	40.1643558	83.365389	-9.36213372
5.37	537	1.019	-0.055	-0.042	3.4950438	-0.6875496	-3.0939732	39.95236134	83.38257774	-9.60850566
5.38	538	1.019	-0.052	-0.045	4.1252976	-1.3178034	-3.0939732	39.71744856	83.3940369	-9.88925508
5.39	539	1.017	-0.051	-0.045	4.3544808	-1.718874	-2.9793816	39.45961746	83.39976648	-10.19292282
5.4	540	1.013	-0.05	-0.045	4.4690724	-2.3491278	-2.6356068	39.12157224	83.43987354	-10.57680468
5.41	541	1.011	-0.05	-0.048	4.1825934	-2.9793816	-2.4637194	38.82936366	83.43414396	-10.9148499
5.42	542	1.008	-0.053	-0.049	3.6669312	-3.437748	-2.1199446	38.53715508	83.41695522	-11.25289512
5.43	543	1.007	-0.053	-0.05	3.0366774	-3.724227	-1.718874	38.2449465	83.39976648	-11.57948118
5.44	544	1.001	-0.055	-0.051	2.2345362	-4.010706	-1.3178034	37.9584675	83.38257774	-11.8888785
5.45	545	0.998	-0.054	-0.053	1.2032118	-3.9534102	-0.9167328	37.57458564	83.40549606	-12.28421952
5.46	546	0.997	-0.052	-0.059	0.3437748	-3.9534102	-0.572958	37.32248412	83.37684816	-12.54205062
5.47	547	0.998	-0.051	-0.063	-0.1145916	-4.010706	-0.286479	37.08757134	83.34820026	-12.7769634
5.48	548	0.998	-0.05	-0.064	-0.3437748	-3.724227	-0.0572958	36.88130646	83.31955236	-12.98322828
5.49	549	0.999	-0.048	-0.066	-0.4583664	-3.4950438	0	36.69223032	83.29663404	-13.17230442
5.5	550	0.998	-0.05	-0.07	-0.572958	-3.3231564	0.4583664	36.2395935	83.31955236	-13.61921166
5.51	551	0.998	-0.05	-0.07	-0.8021412	-2.9220858	0.7448454	36.13073148	83.29090446	-13.71661452
5.52	552	0.998	-0.05	-0.068	-0.8021412	-2.7501984	0.9167328	36.04478778	83.26225656	-13.79682864
5.53	553	0.999	-0.049	-0.069	-0.8021412	-2.578311	1.145916	35.9817624	83.23360866	-13.84839486
5.54	554	1.001	-0.048	-0.068	-0.572958	-2.4637194	1.2605076	35.93592576	83.21069034	-13.88850192
5.55	555	1.004	-0.05	-0.069	-0.4010706	-2.4064236	1.3750992	35.59788054	83.23933824	-14.22654714
5.56	556	1.007	-0.053	-0.067	-0.1145916	-2.1772404	1.432395	35.5806918	83.21641992	-14.2380063
5.57	557	1.006	-0.054	-0.067	0.1145916	-2.005353	1.6042824	35.59215096	83.1935016	-14.22654714
5.58	558	1.005	-0.054	-0.066	0.4583664	-1.8334656	1.5469866	35.61506928	83.1648537	-14.21508798
5.59	559	1.004	-0.054	-0.065	0.9167328	-1.718874	1.432395	35.63225802	83.14193538	-14.20362882
5.6	560	1.005	-0.056	-0.063	1.3178034	-2.0626488	1.3750992	35.51766642	83.17631286	-14.32967958
5.61	561	1.005	-0.057	-0.06	1.718874	-2.291832	1.2605076	35.51193684	83.14766496	-14.35832748
5.62	562	1.004	-0.058	-0.057	1.8334656	-2.5210152	1.0313244	35.47755936	83.12474664	-14.41562328
5.63	563	1.004	-0.06	-0.058	1.7761698	-2.5210152	0.7448454	35.42026356	83.10182832	-14.49010782
5.64	564	1.005	-0.063	-0.058	1.8334656	-2.3491278	0.4010706	35.3515086	83.07891	-14.57605152
5.65	565	1.006	-0.065	-0.058	2.005353	-2.3491278	0.1145916	35.2655649	83.11901706	-14.68491354
5.66	566	1.005	-0.064	-0.058	1.8907614	-2.3491278	-0.1718874	35.1509733	83.10182832	-14.81669388
5.67	567	1.003	-0.062	-0.061	1.7761698	-2.578311	-0.286479	35.02492254	83.08463958	-14.96566296
5.68	568	1.003	-0.06	-0.064	1.6615782	-2.8074942	-0.4583664	34.87022388	83.06172126	-15.13755036
5.69	569	1.003	-0.06	-0.066	1.6042824	-2.9220858	-0.5156622	34.70979564	83.04453252	-15.31516734
5.7	570	1.003	-0.06	-0.066	1.3178034	-2.8074942	-0.572958	34.45196454	83.07318042	-15.59018718
5.71	571	1.004	-0.057	-0.068	1.0313244	-2.5210152	-0.6302538	34.29726588	83.05599168	-15.756345
5.72	572	1.005	-0.055	-0.07	0.7448454	-2.291832	-0.5156622	34.15975596	83.03880294	-15.90531408
5.73	573	1.004	-0.053	-0.071	0.5156622	-1.9480572	-0.3437748	34.04516436	83.02734378	-16.01990568
5.74	574	1.003	-0.054	-0.074	0.2291832	-1.5469866	-0.1145916	33.96495024	83.01588462	-16.10584938
5.75	575	1.004	-0.055	-0.076	0	-0.859437	0.0572958	32.96227374	83.19923118	-17.1027963
5.76	576	1.006	-0.057	-0.074	-0.3437748	-0.6302538	0.3437748	32.95654416	83.18777202	-17.10852588
5.77	577	1.009	-0.059	-0.072	-0.6875496	-0.9740286	0.5156622	32.93935542	83.17631286	-17.11425546
5.78	578	1.008	-0.061	-0.07	-0.6302538	-1.0313244	0.6875496	32.93362584	83.1648537	-17.11998504
5.79	579	1.002	-0.066	-0.068	-0.8021412	-0.6875496	0.572958	32.93362584	83.15339454	-17.10852588
5.8	580	0.995	-0.065	-0.07	-1.2605076	-0.1718874	0.4010706	32.78465676	83.22787908	-17.24030622
5.81	581	0.991	-0.059	-0.076	-1.718874	-0.1145916	0.1718874	32.7731976	83.2221495	-17.23457664
5.82	582	0.99	-0.052	-0.081	-1.2605076	-0.5156622	0	32.7445497	83.21641992	-17.25749496
5.83	583	0.991	-0.051	-0.079	-0.286479	-1.2032118	-0.1718874	32.66433558	83.21069034	-17.32624992
5.84	584	0.994	-0.051	-0.077	0.6302538	-1.432395	-0.4010706	32.5726623	83.19923118	-17.42938236
5.85	585	0.997	-0.051	-0.074	1.432395	-1.3178034	-0.6302538	32.23461708	83.23933824	-17.78461632
5.86	586	0.999	-0.052	-0.071	1.9480572	-1.3178034	-0.7448454	32.13721422	83.23360866	-17.89920792
5.87	587	1	-0.053	-0.067	2.1199446	-1.0886202	-0.572958	32.06272968	83.22787908	-17.99661078
5.88	588	1.002	-0.053	-0.065	1.8334656	-0.7448454	-0.3437748	32.01689304	83.22787908	-18.05963616
5.89	589	1.005	-0.053	-0.065	1.4896908	-0.3437748	-0.2291832	31.9997043	83.2221495	-18.09974322
5.9	590	1.009	-0.052	-0.063	1.4896908	-0.1145916	-0.0572958	31.77625068	83.34820026	-18.334656
5.91	591	1.009	-0.055	-0.065	1.5469866	-0.1145916	0.0572958	31.79343942	83.34247068	-18.334656
5.92	592	1.007	-0.055	-0.067	1.5469866	0	0.1145916	31.81635774	83.34247068	-18.32319684
5.93	593	1.004	-0.054	-0.068	1.718874	-0.0572958	0.1145916	31.83927606	83.34247068	-18.31746726
5.94	594	1.001	-0.052	-0.068	1.718874	-0.4010706	0.1718874	31.85073522	83.3367411	-18.32319684
5.95	595	1.003	-0.053	-0.068	1.6042824	-0.6302538	0.1718874	31.63301118	83.40549606	-18.5638392
5.96	596	1.004	-0.054	-0.07	1.4896908	-0.6875496	0.1718874	31.6272816	83.39976648	-18.58102794
5.97	597	1.006	-0.056	-0.071	1.6042824	-0.6875496	0.286479	31.63301118	83.38830732	-18.5924871
5.98	598	1.006	-0.055	-0.071	1.6042824	-0.6875496	0.286479	31.63874076	83.38257774	-18.60394626
5.99	599	1.005	-0.053	-0.071	1.4896908	-0.572958	0.4010706	31.66165908	83.37684816	-18.59821668
6	600	1.004	-0.052	-0.074	1.4896908	-0.4583664	0.6302538	31.40382798	83.41695522	-18.86750694
6.01	601	1.004	-0.053	-0.073	1.4896908	-0.7448454	0.6875496	31.43247588	83.41122564	-18.8503182
6.02	602	1.004	-0.056	-0.07	1.432395	-1.0313244	0.8021412	31.46112378	83.39976648	-18.83885904
6.03	603	1.003	-0.058	-0.068	1.2605076	-0.8021412	0.859437	31.50123084	83.38830732	-18.81594072
6.04	604	1.003	-0.061	-0.068	1.0313244	-0.6302538	0.8021412	31.5413379	83.37684816	-18.78156324
6.05	605	1.002	-0.062	-0.065	0.6875496	-0.5156622	0.8021412	31.55852664	83.45706228	-18.77010408
6.06	606	0.999	-0.063	-0.065	0.286479	-0.572958	0.6875496	31.58717454	83.44560312	-18.74718576
6.07	607	0.999	-0.061	-0.066	0	-0.7448454	0.6302538	31.5986337	83.43414396	-18.7357266
6.08	608	1.001	-0.061	-0.067	-0.2291832	-0.9740286	0.3437748	31.57571538	83.42841438	-18.75864492
6.09	609	1.003	-0.061	-0.069	-0.286479	-0.9740286	0.1718874	31.5413379	83.41695522	-18.7930224
6.1	610	1.003	-0.059	-0.071	-0.1145916	-1.0313244	0	31.07724192	83.52581724	-19.2513888
6.11	611	1.003	-0.058	-0.072	0.1718874	-0.859437	-0.0572958	31.03140528	83.52008766	-19.29722544
6.12	612	1.003	-0.056	-0.07	0.286479	-0.7448454	-0.1145916	30.98556864	83.51435808	-19.34879166
6.13	613	1.005	-0.057	-0.07	0.3437748	-0.9167328	-0.0572958	30.939732	83.5086285	-19.3946283
6.14	614	1.006	-0.058	-0.069	0.4583664	-1.0886202	0	30.89962494	83.49716934	-19.44046494
6.15	615	1.009	-0.059	-0.071	0.5156622	-0.9740286	0.1145916	30.64179384	83.5659243	-19.70402562
6.16	616	1.009	-0.059	-0.07	0.6302538	-1.0313244	0	30.60168678	83.56019472	-19.74986226
6.17	617	1.008	-0.059	-0.07	0.7448454	-1.145916	0	30.55585014	83.54873556	-19.80715806
6.18	618	1.006	-0.059	-0.069	0.7448454	-1.145916	0	30.5100135	83.5372764	-19.85872428
6.19	619	1.004	-0.059	-0.067	0.286479	-1.2605076	0	30.4527177	83.53154682	-19.92174966
6.2	620	1.002	-0.06	-0.065	0	-1.4896908	-0.1145916	30.37823316	83.58884262	-19.9962342
6.21	621	1.002	-0.06	-0.063	-0.286479	-1.4896908	-0.2291832	30.28655988	83.57738346	-20.08790748
6.22	622	1.001	-0.059	-0.066	-0.859437	-1.2032118	-0.2291832	30.20061618	83.5659243	-20.16239202
6.23	623	1.001	-0.058	-0.068	-1.0886202	-1.145916	-0.1718874	30.12040206	83.56019472	-20.23114698
6.24	624	0.999	-0.055	-0.07	-1.145916	-1.4896908	-0.286479	30.01726962	83.54873556	-20.32854984
6.25	625	1	-0.053	-0.071	-1.0886202	-1.718874	-0.286479	29.75943852	83.57165388	-20.5691922
6.26	626	1.001	-0.055	-0.072	-0.9167328	-1.9480572	-0.3437748	29.63338776	83.55446514	-20.68951338
6.27	627	1.002	-0.055	-0.074	-0.6302538	-2.1199446	-0.4010706	29.50160742	83.5372764	-20.81556414
6.28	628	1	-0.055	-0.075	-0.5156622	-2.1199446	-0.4010706	29.3640975	83.52581724	-20.94734448
6.29	629	1	-0.054	-0.075	-0.3437748	-2.1199446	-0.4010706	29.23804674	83.5086285	-21.07339524
6.3	630	1	-0.055	-0.075	-0.1718874	-1.9480572	-0.3437748	29.03178186	83.5372764	-21.27966012
6.31	631	1	-0.058	-0.073	-0.3437748	-1.7761698	-0.286479	28.91719026	83.52008766	-21.38279256
6.32	632	1	-0.057	-0.076	-0.572958	-1.432395	-0.3437748	28.8197874	83.5086285	-21.47446584
6.33	633	1.002	-0.055	-0.078	-0.7448454	-1.2032118	-0.3437748	28.7338437	83.50289892	-21.56040954
6.34	634	1.004	-0.055	-0.08	-0.8021412	-1.2032118	-0.3437748	28.64217042	83.49143976	-21.64062366
6.35	635	1.003	-0.052	-0.083	-0.6302538	-1.3178034	-0.286479	28.22964066	83.5086285	-22.04742384
6.36	636	1.003	-0.049	-0.084	-0.4010706	-1.3178034	-0.2291832	28.14942654	83.49716934	-22.12190838
6.37	637	1.002	-0.05	-0.083	-0.3437748	-1.3750992	-0.1145916	28.074942	83.48571018	-22.19639292
6.38	638	0.999	-0.052	-0.082	-0.286479	-1.2605076	0	28.0176462	83.47425102	-22.24795914
6.39	639	1.001	-0.053	-0.082	-0.3437748	-0.572958	0.1718874	28.00618704	83.46852144	-22.2594183
6.4	640	1.004	-0.056	-0.078	-0.7448454	-0.286479	0.286479	27.88586586	83.5086285	-22.36828032
6.41	641	1.007	-0.058	-0.076	-1.2032118	-0.5156622	0.5156622	27.89732502	83.50289892	-22.345362
6.42	642	1.007	-0.061	-0.074	-1.2032118	-0.6875496	0.5156622	27.89159544	83.49716934	-22.33390284
6.43	643	1.002	-0.065	-0.068	-1.2032118	-0.3437748	0.286479	27.89159544	83.49143976	-22.32244368
6.44	644	0.998	-0.064	-0.071	-1.718874	0.0572958	0.1145916	27.89159544	83.49143976	-22.30525494
6.45	645	0.994	-0.057	-0.079	-2.0626488	0.1145916	-0.0572958	27.65668266	83.51435808	-22.5172494
6.46	646	0.992	-0.05	-0.082	-1.6042824	-0.2291832	-0.3437748	27.60511644	83.51435808	-22.55735646
6.47	647	0.995	-0.048	-0.083	-0.6875496	-1.0313244	-0.4583664	27.51917274	83.5086285	-22.63757058
6.48	648	0.999	-0.05	-0.08	-0.0572958	-1.3178034	-0.6302538	27.41031072	83.49716934	-22.7464326
6.49	649	1.002	-0.053	-0.078	0.2291832	-1.145916	-0.6302538	27.31290786	83.49143976	-22.84383546
6.5	650	1.004	-0.054	-0.077	0.2291832	-0.8021412	-0.572958	27.06080634	83.54873556	-23.10166656
6.51	651	1.004	-0.053	-0.076	0.1718874	-0.6302538	-0.4010706	26.99778096	83.54300598	-23.16469194
6.52	652	1.003	-0.051	-0.076	-0.1145916	-0.5156622	-0.2291832	26.9576739	83.54300598	-23.204799
6.53	653	1.006	-0.05	-0.075	-0.1718874	-0.4583664	-0.0572958	26.92329642	83.5372764	-23.2334469
6.54	654	1.006	-0.049	-0.075	-0.1718874	-0.572958	0.1145916	26.91183726	83.53154682	-23.25063564
6.55	655	1.004	-0.052	-0.077	0	-0.4010706	0.286479	26.53941456	83.60603136	-23.61732876
6.56	656	1.002	-0.053	-0.077	-0.1145916	-0.286479	0.3437748	26.5566033	83.60603136	-23.60014002
6.57	657	1.001	-0.053	-0.078	-0.1145916	-0.4010706	0.3437748	26.56806246	83.60030178	-23.58295128
6.58	658	1.003	-0.054	-0.076	-0.1718874	-0.5156622	0.3437748	26.57379204	83.5945722	-23.5772217
6.59	659	1.004	-0.056	-0.076	-0.286479	-0.6302538	0.286479	26.56806246	83.58311304	-23.58295128
6.6	660	1.007	-0.056	-0.076	-0.3437748	-0.7448454	0.286479	26.44774128	83.6232201	-23.69754288
6.61	661	1.007	-0.055	-0.078	-0.286479	-0.572958	0.2291832	26.43628212	83.61749052	-23.70327246
6.62	662	1.005	-0.052	-0.078	-0.2291832	-0.4583664	0.286479	26.43628212	83.61176094	-23.69754288
6.63	663	1.006	-0.052	-0.078	-0.2291832	-0.2291832	0.4010706	26.45920044	83.61176094	-23.67462456
6.64	664	1.004	-0.052	-0.081	0	-0.286479	0.4010706	26.48211876	83.60603136	-23.65170624
6.65	665	1.004	-0.053	-0.079	0.1145916	-0.4010706	0.4583664	26.28158346	83.64613842	-23.85224154
6.66	666	1.003	-0.054	-0.078	0.286479	-0.7448454	0.5156622	26.2987722	83.63467926	-23.84078238
6.67	667	1.001	-0.055	-0.076	0.4010706	-0.859437	0.4583664	26.30450178	83.6232201	-23.84078238
6.68	668	1.001	-0.058	-0.075	0.4010706	-0.9740286	0.4010706	26.2987722	83.61176094	-23.84651196
6.69	669	0.998	-0.062	-0.072	0.1145916	-1.0313244	0.3437748	26.28731304	83.60603136	-23.8637007
6.7	670	0.999	-0.062	-0.071	-0.3437748	-1.0886202	0.0572958	26.37898632	83.63467926	-23.76629784
6.71	671	1.001	-0.059	-0.077	-0.6302538	-0.9740286	0	26.3274201	83.6232201	-23.81213448
6.72	672	1.002	-0.058	-0.078	-0.6302538	-1.0313244	-0.1145916	26.26439472	83.61749052	-23.8637007
6.73	673	1.003	-0.056	-0.079	-0.4583664	-1.0886202	-0.286479	26.18991018	83.60603136	-23.93818524
6.74	674	1.004	-0.056	-0.08	-0.3437748	-0.9740286	-0.3437748	26.11542564	83.60030178	-24.01266978
6.75	675	1.004	-0.055	-0.079	-0.1718874	-1.0886202	-0.3437748	25.91489034	83.6232201	-24.2074755
6.76	676	1.002	-0.055	-0.079	-0.0572958	-1.0886202	-0.4010706	25.83467622	83.61176094	-24.28768962
6.77	677	1.004	-0.053	-0.079	0	-1.2605076	-0.4010706	25.7544621	83.60030178	-24.37363332
6.78	678	1.003	-0.052	-0.079	-0.1145916	-1.2032118	-0.4010706	25.6685184	83.5945722	-24.45384744
6.79	679	1.004	-0.053	-0.08	-0.1145916	-1.0886202	-0.286479	25.59976344	83.58311304	-24.5226024
6.8	680	1.005	-0.053	-0.08	-0.1145916	-0.9740286	-0.2291832	25.37630982	83.6232201	-24.74032644
6.81	681	1.004	-0.053	-0.081	0	-0.9167328	-0.1145916	25.3247436	83.61749052	-24.79189266
6.82	682	1.003	-0.054	-0.08	0	-0.9167328	-0.1145916	25.27890696	83.61176094	-24.8377293
6.83	683	1.003	-0.054	-0.079	-0.0572958	-1.0886202	-0.0572958	25.23307032	83.60030178	-24.88929552
6.84	684	1.001	-0.052	-0.08	-0.1718874	-1.145916	-0.0572958	25.17577452	83.58884262	-24.94086174
6.85	685	1.001	-0.053	-0.08	-0.3437748	-1.0886202	0	24.9809688	83.61749052	-25.13566746
6.86	686	1.001	-0.052	-0.081	-0.3437748	-0.9740286	0	24.92940258	83.60603136	-25.1815041
6.87	687	1.001	-0.051	-0.084	0	-0.6302538	0	24.90075468	83.60030178	-25.210152
6.88	688	1.003	-0.05	-0.083	0.2291832	-0.1718874	0	24.90075468	83.60030178	-25.21588158
6.89	689	1.003	-0.052	-0.081	0.3437748	-0.3437748	0.1145916	24.8950251	83.5945722	-25.22161116
6.9	690	1.002	-0.053	-0.078	0.286479	-0.2291832	0.2291832	24.79762224	83.65759758	-25.3247436
6.91	691	1.001	-0.055	-0.078	-0.0572958	0	0.286479	24.82054056	83.65759758	-25.2960957
6.92	692	1.001	-0.055	-0.078	-0.286479	0	0.2291832	24.8377293	83.651868	-25.27890696
6.93	693	1.003	-0.054	-0.082	-0.3437748	0	0.2291832	24.85491804	83.651868	-25.25598864
6.94	694	1.002	-0.054	-0.081	-0.1145916	-0.0572958	0.1718874	24.8663772	83.651868	-25.24452948
6.95	695	1.001	-0.054	-0.081	0	-0.0572958	0.1145916	24.5226024	83.74927086	-25.5825747
6.96	696	1.001	-0.054	-0.083	-0.0572958	0.0572958	0.0572958	24.53406156	83.74927086	-25.57111554
6.97	697	1	-0.053	-0.084	0.0572958	0.0572958	0.1145916	24.5512503	83.74927086	-25.55965638
6.98	698	1.001	-0.052	-0.085	0.1718874	0.1718874	0.0572958	24.56843904	83.74927086	-25.54246764
6.99	699	1.001	-0.052	-0.085	0.4010706	0.1145916	0.0572958	24.5798982	83.74927086	-25.53100848
7	700	1.002	-0.055	-0.085	0.6302538	0	0	24.44238828	83.76073002	-25.67424798
7.01	701	1.002	-0.056	-0.084	0.6875496	-0.0572958	0	24.44811786	83.76073002	-25.67997756
7.02	702	1.003	-0.055	-0.083	0.5156622	-0.1718874	0	24.44238828	83.76073002	-25.69143672
7.03	703	1.002	-0.053	-0.083	0.1145916	0.1718874	0.0572958	24.45957702	83.76073002	-25.67997756
7.04	704	1.001	-0.051	-0.083	0	0.3437748	0.0572958	24.48249534	83.7664596	-25.65132966
7.05	705	1.001	-0.053	-0.082	0	0.4583664	0.1718874	24.2647713	83.78937792	-25.8690537
7.06	706	1.003	-0.053	-0.083	-0.0572958	0.572958	0.1145916	24.29914878	83.7951075	-25.82894664
7.07	707	1.005	-0.055	-0.081	0.0572958	0.3437748	0.2291832	24.33925584	83.80083708	-25.78883958
7.08	708	1.007	-0.058	-0.079	-0.4583664	0.1718874	0.3437748	24.37363332	83.80083708	-25.7544621
7.09	709	1.01	-0.061	-0.075	-0.859437	-0.1718874	0.286479	24.38509248	83.7951075	-25.73154378
7.1	710	1.002	-0.066	-0.07	-0.9740286	0.0572958	0.1145916	24.63146442	83.81802582	-25.47944226
7.11	711	1	-0.066	-0.074	-1.7761698	0.9740286	-0.0572958	24.64292358	83.82948498	-25.44506478
