TimeStamp(s)	FrameCounter	AccX	AccY	AccZ	GyrX	GyrY	GyrZ	EulerX	EulerY	EulerZ
0.01	1	-0.069	-1.007	0.012	-0.2291832	-0.9740286	0.2291832	88.21261368	-4.04508348	11.85450102
0.02	2	-0.069	-1.007	0.013	-0.286479	-0.9167328	0.2291832	88.21261368	-4.04508348	11.84304186
0.03	3	-0.069	-1.008	0.013	-0.2291832	-0.859437	0.1145916	88.21261368	-4.05081306	11.83731228
0.04	4	-0.069	-1.008	0.012	-0.4010706	-0.9167328	0.286479	88.2068841	-4.05081306	11.82585312
0.05	5	-0.068	-1.007	0.011	-0.572958	-1.0313244	0.286479	88.25272074	-4.0393539	11.79147564
0.06	6	-0.067	-1.006	0.01	-0.6875496	-1.2032118	0.3437748	88.24699116	-4.04508348	11.78001648
0.07	7	-0.066	-1.006	0.009	-0.6302538	-1.2605076	0.3437748	88.24126158	-4.04508348	11.76855732
0.08	8	-0.067	-1.002	0.007	-0.5156622	-1.2032118	0.286479	88.235532	-4.05081306	11.75709816
0.09	9	-0.07	-0.999	0.008	-0.2291832	-1.0886202	0.286479	88.22980242	-4.05081306	11.745639
0.1	10	-0.072	-0.999	0.01	0	-0.9740286	0.2291832	88.29855738	-4.04508348	11.70553194
0.11	11	-0.072	-1.001	0.009	-0.1145916	-0.859437	0.2291832	88.29855738	-4.05081306	11.69980236
0.12	12	-0.071	-1.003	0.007	-0.0572958	-0.7448454	0.3437748	88.29855738	-4.05081306	11.6883432
0.13	13	-0.07	-1.004	0.01	0	-0.8021412	0.4010706	88.29855738	-4.05654264	11.68261362
0.14	14	-0.07	-1.005	0.01	-0.1145916	-0.9167328	0.5156622	88.29855738	-4.06227222	11.67115446
0.15	15	-0.072	-1.007	0.011	-0.1145916	-0.7448454	0.4010706	88.37304192	-4.05654264	11.6310474
0.16	16	-0.073	-1.006	0.012	-0.286479	-0.5156622	0.3437748	88.37304192	-4.06227222	11.62531782
0.17	17	-0.072	-1.007	0.013	-0.572958	0	0.286479	88.36731234	-4.06227222	11.62531782
0.18	18	-0.069	-1.009	0.014	-0.9167328	0.286479	0.3437748	88.35585318	-4.0680018	11.6310474
0.19	19	-0.068	-1.013	0.015	-0.6875496	0	0.3437748	88.3501236	-4.07373138	11.6310474
0.2	20	-0.067	-1.015	0.014	-0.6875496	-0.2291832	0.3437748	88.4074194	-4.05081306	11.59666992
0.21	21	-0.065	-1.011	0.014	-0.7448454	-0.5156622	0.286479	88.39596024	-4.05654264	11.59094034
0.22	22	-0.066	-1.003	0.014	-0.8021412	-0.572958	0.3437748	88.39023066	-4.05654264	11.58521076
0.23	23	-0.066	-0.999	0.011	-0.9740286	-0.4583664	0.4010706	88.3787715	-4.06227222	11.57948118
0.24	24	-0.068	-0.998	0.009	-1.145916	-0.3437748	0.4583664	88.36731234	-4.0680018	11.57948118
0.25	25	-0.068	-1	0.01	-1.0886202	-0.2291832	0.572958	88.39596024	-4.06227222	11.55656286
0.26	26	-0.068	-1.001	0.009	-0.9167328	-0.1718874	0.6302538	88.39023066	-4.0680018	11.55656286
0.27	27	-0.069	-1.003	0.011	-0.7448454	-0.3437748	0.6302538	88.3787715	-4.07373138	11.55083328
0.28	28	-0.069	-1.003	0.01	-0.5156622	-0.5156622	0.5156622	88.3787715	-4.07946096	11.5451037
0.29	29	-0.069	-1.004	0.01	-0.3437748	-0.6302538	0.4010706	88.37304192	-4.08519054	11.53937412
0.3	30	-0.068	-1.003	0.009	-0.1718874	-0.7448454	0.286479	88.4360673	-4.0680018	11.50499664
0.31	31	-0.069	-1.003	0.008	0	-0.859437	0.286479	88.4360673	-4.0680018	11.49926706
0.32	32	-0.067	-1.002	0.01	0.1718874	-0.859437	0.4010706	88.44179688	-4.07373138	11.4878079
0.33	33	-0.067	-1.002	0.009	0.2291832	-0.8021412	0.4583664	88.44179688	-4.07946096	11.48207832
0.34	34	-0.069	-1.002	0.013	0.286479	-0.7448454	0.5156622	88.44752646	-4.08519054	11.47061916
0.35	35	-0.07	-1.002	0.012	0.2291832	-0.6875496	0.572958	88.51055184	-4.07946096	11.44197126
0.36	36	-0.07	-1.002	0.01	0.1718874	-0.572958	0.572958	88.51055184	-4.08519054	11.43624168
0.37	37	-0.072	-1.002	0.01	0.2291832	-0.3437748	0.4583664	88.51628142	-4.09092012	11.4305121
0.38	38	-0.072	-1.002	0.012	0.286479	-0.2291832	0.4010706	88.51628142	-4.09092012	11.4305121
0.39	39	-0.072	-1.002	0.011	0.2291832	-0.0572958	0.4010706	88.522011	-4.0966497	11.4305121
0.4	40	-0.072	-1.004	0.013	0.1718874	0.0572958	0.4010706	88.63087302	-4.07373138	11.38467546
0.41	41	-0.069	-1.005	0.013	0.1718874	0	0.3437748	88.63087302	-4.07946096	11.38467546
0.42	42	-0.068	-1.006	0.012	0.1145916	0	0.1718874	88.63087302	-4.07946096	11.38467546
0.43	43	-0.067	-1.004	0.013	0.286479	0	0.1718874	88.6366026	-4.08519054	11.38467546
0.44	44	-0.066	-1.003	0.012	0.4583664	-0.1145916	0.1145916	88.64233218	-4.08519054	11.38467546
0.45	45	-0.067	-1.003	0.013	0.572958	-0.0572958	0.0572958	88.7225463	-4.05081306	11.35029798
0.46	46	-0.067	-1.004	0.016	0.4010706	0	0.1145916	88.72827588	-4.05654264	11.35029798
0.47	47	-0.07	-1.006	0.014	0.1718874	0.1145916	0.1718874	88.72827588	-4.05654264	11.35602756
0.48	48	-0.069	-1.007	0.014	0	0.2291832	0.2291832	88.72827588	-4.05654264	11.35602756
0.49	49	-0.069	-1.008	0.012	0	0.1718874	0.3437748	88.72827588	-4.06227222	11.35602756
0.5	50	-0.069	-1.006	0.01	0	0.0572958	0.3437748	88.80849	-4.02789474	11.32737966
0.51	51	-0.068	-1.004	0.008	0.0572958	0.0572958	0.3437748	88.80849	-4.03362432	11.32737966
0.52	52	-0.069	-1.002	0.007	0.2291832	0.1145916	0.2291832	88.81421958	-4.03362432	11.32737966
0.53	53	-0.069	-1	0.007	0.286479	0.2291832	0.1718874	88.81421958	-4.0393539	11.33310924
0.54	54	-0.069	-1.002	0.011	0.2291832	0.5156622	0.1145916	88.81994916	-4.0393539	11.33883882
0.55	55	-0.069	-1.002	0.01	0.0572958	0.859437	0.1145916	88.84859706	-4.02789474	11.33310924
0.56	56	-0.071	-1.004	0.01	0.0572958	0.859437	0.1145916	88.85432664	-4.02789474	11.33883882
0.57	57	-0.071	-1.005	0.011	0.1718874	0.8021412	0.1145916	88.85432664	-4.02789474	11.35029798
0.58	58	-0.071	-1.006	0.012	0.4010706	0.859437	0.1145916	88.85432664	-4.02789474	11.35602756
0.59	59	-0.07	-1.006	0.014	0.3437748	0.9167328	0.1718874	88.86005622	-4.03362432	11.36748672
0.6	60	-0.07	-1.006	0.013	0.4010706	0.9167328	0.2291832	88.88870412	-4.02789474	11.36748672
0.61	61	-0.068	-1.006	0.011	0.5156622	0.9167328	0.2291832	88.8944337	-4.02789474	11.37894588
0.62	62	-0.066	-1.005	0.012	0.572958	0.9167328	0.1718874	88.90016328	-4.03362432	11.38467546
0.63	63	-0.065	-1.005	0.013	0.6875496	0.859437	0.1718874	88.90589286	-4.03362432	11.39613462
0.64	64	-0.065	-1.005	0.012	0.6302538	0.859437	0.2291832	88.91162244	-4.03362432	11.4018642
0.65	65	-0.065	-1.004	0.012	0.7448454	0.6302538	0.2291832	88.93454076	-4.02216516	11.4018642
0.66	66	-0.066	-1.003	0.012	0.9167328	0.4583664	0.1718874	88.94599992	-4.02789474	11.40759378
0.67	67	-0.067	-1.003	0.011	1.2032118	0.2291832	0.1718874	88.95745908	-4.02789474	11.41332336
0.68	68	-0.068	-1.004	0.011	1.3178034	0.1718874	0.1145916	88.97464782	-4.02789474	11.41332336
0.69	69	-0.068	-1.005	0.013	1.3178034	0.2291832	0.1718874	88.98610698	-4.03362432	11.41332336
0.7	70	-0.069	-1.008	0.014	1.2605076	0.1145916	0.1718874	89.02621404	-4.02216516	11.40759378
0.71	71	-0.068	-1.009	0.017	1.0886202	0.1718874	0.286479	89.0376732	-4.02789474	11.40759378
0.72	72	-0.068	-1.008	0.015	0.9167328	0.2291832	0.3437748	89.04913236	-4.03362432	11.41332336
0.73	73	-0.068	-1.007	0.013	0.9167328	0.2291832	0.4010706	89.05486194	-4.03362432	11.41332336
0.74	74	-0.068	-1.006	0.014	0.8021412	0.1145916	0.3437748	89.0663211	-4.0393539	11.41332336
0.75	75	-0.067	-1.005	0.014	0.7448454	0	0.3437748	89.10069858	-4.02216516	11.40759378
0.76	76	-0.067	-1.004	0.015	0.7448454	0.1145916	0.286479	89.10642816	-4.02789474	11.40759378
0.77	77	-0.067	-1.003	0.015	0.8021412	0.0572958	0.286479	89.11788732	-4.02789474	11.40759378
0.78	78	-0.067	-1.004	0.013	0.286479	-0.0572958	0.1145916	89.11788732	-4.03362432	11.40759378
0.79	79	-0.067	-1.005	0.014	0.2291832	-0.286479	0.0572958	89.1236169	-4.03362432	11.4018642
0.8	80	-0.07	-1.007	0.015	0.0572958	-0.2291832	0	89.2382085	-3.97632852	11.35602756
0.81	81	-0.073	-1.006	0.015	-0.1145916	-0.3437748	-0.0572958	89.2382085	-3.97632852	11.35602756
0.82	82	-0.073	-1.007	0.014	-0.4583664	-0.1145916	-0.0572958	89.23247892	-3.97632852	11.35029798
0.83	83	-0.07	-1.008	0.012	-0.859437	0.286479	-0.1145916	89.22674934	-3.97632852	11.35602756
0.84	84	-0.067	-1.01	0.016	-1.2032118	0.5156622	0	89.2095606	-3.97632852	11.36175714
0.85	85	-0.066	-1.011	0.018	-1.145916	0.4010706	0.0572958	89.22674934	-3.95913978	11.35602756
0.86	86	-0.065	-1.01	0.018	-0.859437	0	0	89.21529018	-3.95913978	11.35602756
0.87	87	-0.063	-1.006	0.019	-0.9167328	-0.3437748	0	89.2095606	-3.95913978	11.35029798
0.88	88	-0.062	-1	0.021	-0.9167328	-0.4583664	0	89.19810144	-3.95913978	11.3445684
0.89	89	-0.065	-0.997	0.017	-0.8021412	-0.5156622	0	89.18664228	-3.95913978	11.33883882
0.9	90	-0.065	-1.001	0.017	-0.6875496	-0.4010706	0.1145916	89.20383102	-3.94768062	11.32737966
0.91	91	-0.068	-1.005	0.017	-0.8021412	-0.1718874	0.2291832	89.19237186	-3.94768062	11.32737966
0.92	92	-0.07	-1.008	0.017	-0.7448454	0	0.1718874	89.18664228	-3.9534102	11.32737966
0.93	93	-0.07	-1.007	0.017	-0.859437	-0.1145916	0.1145916	89.17518312	-3.9534102	11.32737966
0.94	94	-0.069	-1.005	0.014	-0.9167328	-0.3437748	0	89.16945354	-3.9534102	11.32165008
0.95	95	-0.068	-1.003	0.012	-0.7448454	-0.4583664	-0.1145916	89.16945354	-3.94195104	11.3159205
0.96	96	-0.066	-1.001	0.013	-0.7448454	-0.7448454	-0.1718874	89.16372396	-3.93622146	11.30446134
0.97	97	-0.065	-1.002	0.015	-0.6302538	-0.9740286	-0.1145916	89.15799438	-3.93622146	11.29873176
0.98	98	-0.066	-1.004	0.017	-0.572958	-0.9167328	-0.0572958	89.1522648	-3.93622146	11.2872726
0.99	99	-0.067	-1.006	0.019	-0.7448454	-0.9167328	0	89.14080564	-3.93622146	11.27581344
1	100	-0.07	-1.009	0.016	-1.145916	-0.9167328	0.1145916	89.1522648	-3.93622146	11.26435428
1.01	101	-0.072	-1.007	0.018	-1.3178034	-0.859437	0.1145916	89.13507606	-3.93622146	11.25289512
1.02	102	-0.073	-1.006	0.015	-1.432395	-0.572958	0.1145916	89.1236169	-3.93622146	11.24716554
1.03	103	-0.075	-1.005	0.016	-1.6042824	-0.1718874	0	89.10642816	-3.93622146	11.24716554
1.04	104	-0.075	-1.008	0.02	-1.718874	0.0572958	0	89.08923942	-3.93622146	11.24716554
1.05	105	-0.073	-1.007	0.019	-2.0626488	0.5156622	-0.0572958	89.07778026	-3.93622146	11.24716554
1.06	106	-0.072	-1.01	0.018	-2.5210152	0.8021412	0	89.05486194	-3.93622146	11.25289512
1.07	107	-0.069	-1.011	0.022	-3.151269	0.7448454	0	89.02048446	-3.93622146	11.2586247
1.08	108	-0.067	-1.011	0.018	-3.6096354	0.8021412	0	88.9803774	-3.93622146	11.27008386
1.09	109	-0.068	-1.007	0.018	-3.724227	0.6875496	0.1145916	88.94599992	-3.94195104	11.27581344
1.1	110	-0.068	-1.006	0.017	-3.7815228	0.6302538	0	88.91735202	-3.93622146	11.27581344
1.11	111	-0.067	-1.001	0.016	-3.6096354	0.7448454	0.0572958	88.87724496	-3.93622146	11.2872726
1.12	112	-0.066	-1.001	0.017	-3.437748	0.859437	0.1145916	88.84286748	-3.94195104	11.29300218
1.13	113	-0.067	-1.002	0.019	-3.3231564	0.9167328	0.1718874	88.80849	-3.94195104	11.30446134
1.14	114	-0.069	-1.005	0.018	-3.4950438	0.9167328	0.2291832	88.77411252	-3.94768062	11.31019092
1.15	115	-0.07	-1.006	0.015	-3.5523396	0.6302538	0.1718874	88.74546462	-3.94768062	11.31019092
1.16	116	-0.069	-1.008	0.012	-3.724227	0.3437748	0.1718874	88.71108714	-3.94768062	11.3159205
1.17	117	-0.067	-1.008	0.013	-3.6669312	0.286479	0.1145916	88.67098008	-3.94768062	11.32165008
1.18	118	-0.066	-1.007	0.012	-3.7815228	0.3437748	0.0572958	88.63087302	-3.9534102	11.32165008
1.19	119	-0.066	-1.007	0.012	-4.0680018	0.4010706	0	88.59076596	-3.9534102	11.32737966
1.2	120	-0.066	-1.004	0.01	-4.2398892	0.286479	0.0572958	88.55638848	-3.94768062	11.32737966
1.21	121	-0.067	-1.004	0.011	-4.1252976	0.3437748	0.1145916	88.51628142	-3.94768062	11.32737966
1.22	122	-0.069	-1.004	0.01	-3.8961144	0.286479	0.1145916	88.47617436	-3.9534102	11.33310924
1.23	123	-0.072	-1.003	0.01	-3.5523396	0.4010706	0.0572958	88.4360673	-3.9534102	11.33310924
1.24	124	-0.073	-1.003	0.008	-3.3231564	0.4583664	0	88.40168982	-3.9534102	11.33883882
1.25	125	-0.073	-1.001	0.009	-3.0939732	0.4583664	0	88.38450108	-3.9534102	11.33883882
1.26	126	-0.072	-1.001	0.009	-2.86479	0.3437748	-0.0572958	88.35585318	-3.9534102	11.3445684
1.27	127	-0.071	-1.001	0.008	-2.6356068	0.3437748	-0.0572958	88.32720528	-3.9534102	11.3445684
1.28	128	-0.069	-1.001	0.008	-2.578311	0.4583664	0	88.30428696	-3.9534102	11.35029798
1.29	129	-0.067	-1.001	0.009	-2.3491278	0.4583664	0	88.28136864	-3.9534102	11.35602756
1.3	130	-0.065	-1.001	0.008	-2.1199446	0.4010706	0	88.28136864	-3.94195104	11.35029798
1.31	131	-0.065	-1.002	0.006	-1.7761698	0.286479	0.0572958	88.2641799	-3.94195104	11.35602756
1.32	132	-0.067	-1.002	0.007	-1.4896908	0.286479	0.0572958	88.24699116	-3.94195104	11.35602756
1.33	133	-0.069	-1.001	0.006	-1.3178034	0.1718874	0	88.235532	-3.94768062	11.35602756
1.34	134	-0.07	-1.001	0.007	-1.145916	0.286479	0	88.22407284	-3.94768062	11.36175714
1.35	135	-0.072	-1.001	0.01	-1.0886202	0.2291832	-0.0572958	88.25272074	-3.94195104	11.35029798
1.36	136	-0.071	-1.003	0.01	-1.0313244	0.3437748	-0.0572958	88.24126158	-3.94195104	11.35602756
1.37	137	-0.07	-1.004	0.009	-1.0313244	0.4583664	-0.0572958	88.22980242	-3.94195104	11.35602756
1.38	138	-0.069	-1.006	0.01	-0.9740286	0.572958	-0.0572958	88.21834326	-3.93622146	11.36175714
1.39	139	-0.07	-1.005	0.012	-1.0313244	0.4583664	-0.1145916	88.2068841	-3.93622146	11.36748672
1.4	140	-0.07	-1.006	0.013	-1.2032118	0.3437748	-0.1718874	88.235532	-3.93049188	11.36175714
1.41	141	-0.069	-1.005	0.008	-1.2032118	0.3437748	-0.286479	88.22407284	-3.9247623	11.36175714
1.42	142	-0.069	-1.003	0.009	-1.2032118	0.4583664	-0.286479	88.21261368	-3.9247623	11.36748672
1.43	143	-0.068	-1.001	0.011	-1.2605076	0.4010706	-0.3437748	88.19542494	-3.91903272	11.3732163
1.44	144	-0.066	-0.998	0.009	-1.3178034	0.572958	-0.1718874	88.18396578	-3.91903272	11.37894588
1.45	145	-0.064	-1.001	0.009	-1.2605076	0.5156622	-0.1145916	88.20115452	-3.90184398	11.3732163
1.46	146	-0.063	-1.003	0.01	-1.3750992	0.286479	0	88.18969536	-3.90184398	11.3732163
1.47	147	-0.064	-1.007	0.009	-1.2032118	0	-0.0572958	88.17250662	-3.90184398	11.3732163
1.48	148	-0.066	-1.009	0.009	-1.2605076	0.0572958	-0.286479	88.16104746	-3.8961144	11.37894588
1.49	149	-0.072	-1.009	0.007	-1.2605076	0.4010706	-0.3437748	88.1495883	-3.8961144	11.37894588
1.5	150	-0.076	-1.009	0.008	-1.2032118	0.859437	-0.3437748	88.16677704	-3.8961144	11.37894588
1.51	151	-0.075	-1.006	0.012	-1.0313244	1.0313244	-0.2291832	88.15531788	-3.8961144	11.39040504
1.52	152	-0.071	-1.002	0.014	-0.9167328	0.8021412	-0.0572958	88.14385872	-3.8961144	11.39613462
1.53	153	-0.067	-1.001	0.017	-1.0313244	0.3437748	0	88.13239956	-3.8961144	11.4018642
1.54	154	-0.064	-0.997	0.018	-1.145916	0.0572958	0.2291832	88.1209404	-3.8961144	11.4018642
1.55	155	-0.066	-0.996	0.015	-1.3750992	0.1718874	0.572958	88.14385872	-3.90184398	11.39040504
1.56	156	-0.07	-0.997	0.013	-1.5469866	0.1718874	0.7448454	88.12666998	-3.90757356	11.39613462
1.57	157	-0.071	-1	0.011	-1.6042824	0.1718874	0.6302538	88.10948124	-3.91330314	11.39613462
1.58	158	-0.071	-1.004	0.01	-1.4896908	0.0572958	0.5156622	88.09802208	-3.91903272	11.39613462
1.59	159	-0.069	-1.004	0.011	-1.432395	-0.2291832	0.3437748	88.08083334	-3.9247623	11.39613462
1.6	160	-0.068	-1.006	0.008	-1.5469866	-0.6302538	0.286479	88.0922925	-3.91903272	11.37894588
1.61	161	-0.068	-1.002	0.007	-1.4896908	-1.145916	0.286479	88.07510376	-3.9247623	11.36748672
1.62	162	-0.067	-1	0.008	-1.5469866	-1.2605076	0.2291832	88.0636446	-3.9247623	11.35602756
1.63	163	-0.07	-1	0.008	-1.718874	-1.432395	0.286479	88.04645586	-3.93049188	11.33883882
1.64	164	-0.071	-1.002	0.009	-1.8334656	-1.432395	0.286479	88.02926712	-3.93049188	11.32737966
1.65	165	-0.074	-1.006	0.009	-2.005353	-1.145916	0.3437748	88.02926712	-3.93622146	11.31019092
1.66	166	-0.076	-1.006	0.008	-2.0626488	-0.9740286	0.286479	88.0063488	-3.94195104	11.29873176
1.67	167	-0.078	-1.006	0.006	-2.291832	-0.8021412	0.2291832	87.98916006	-3.94195104	11.29300218
1.68	168	-0.077	-1.007	0.004	-2.3491278	-0.572958	0.1145916	87.96051216	-3.94195104	11.28154302
1.69	169	-0.076	-1.007	0.004	-2.3491278	-0.4010706	0.1145916	87.93759384	-3.94768062	11.28154302
1.7	170	-0.075	-1.006	0.005	-2.291832	-0.1718874	0.1145916	87.94332342	-3.94768062	11.27008386
1.71	171	-0.073	-1.006	0.003	-2.1772404	0	0.286479	87.9204051	-3.9534102	11.27008386
1.72	172	-0.072	-1.007	0.002	-2.1199446	0.0572958	0.4010706	87.90321636	-3.95913978	11.27008386
1.73	173	-0.071	-1.009	0.005	-2.2345362	0.0572958	0.5156622	87.87456846	-3.96486936	11.27008386
1.74	174	-0.072	-1.008	0.004	-2.6356068	0.1718874	0.5156622	87.85165014	-3.97059894	11.27008386
1.75	175	-0.07	-1.007	0.003	-2.9220858	0.0572958	0.5156622	87.84019098	-3.97059894	11.27008386
1.76	176	-0.072	-1.007	0.002	-3.0366774	0.0572958	0.3437748	87.81154308	-3.97632852	11.27008386
1.77	177	-0.072	-1.004	0	-2.9793816	0.0572958	0.3437748	87.7771656	-3.97632852	11.27008386
1.78	178	-0.072	-1.004	0	-2.9220858	0.1718874	0.2291832	87.7485177	-3.9820581	11.27008386
1.79	179	-0.074	-1.006	0	-3.0939732	0.4583664	0.2291832	87.71414022	-3.9820581	11.27581344
1.8	180	-0.075	-1.007	0	-3.3231564	0.572958	0.2291832	87.69695148	-3.98778768	11.27581344
1.81	181	-0.074	-1.006	0	-3.437748	0.4010706	0.286479	87.662574	-3.98778768	11.28154302
1.82	182	-0.072	-1.005	-0.002	-3.4950438	0.286479	0.3437748	87.62819652	-3.99351726	11.28154302
1.83	183	-0.072	-1.005	-0.001	-3.6096354	0.1145916	0.4010706	87.58808946	-3.99924684	11.2872726
1.84	184	-0.071	-1.005	0	-3.4950438	0	0.4010706	87.55371198	-4.00497642	11.28154302
1.85	185	-0.069	-1.003	0	-3.6096354	0	0.3437748	87.53652324	-3.99924684	11.27581344
1.86	186	-0.069	-1.002	0	-3.6096354	-0.286479	0.3437748	87.50214576	-4.00497642	11.27581344
1.87	187	-0.069	-1.004	-0.001	-3.5523396	-0.1718874	0.286479	87.4620387	-4.010706	11.27008386
1.88	188	-0.069	-1.004	0.001	-3.437748	-0.4583664	0.3437748	87.42766122	-4.010706	11.26435428
1.89	189	-0.07	-1.004	0	-3.3804522	-0.859437	0.4010706	87.39901332	-4.01643558	11.2586247
1.9	190	-0.07	-1.003	0	-3.437748	-1.2032118	0.4010706	87.38182458	-4.01643558	11.24143596
1.91	191	-0.07	-1.002	-0.001	-3.3804522	-1.4896908	0.5156622	87.3474471	-4.02216516	11.22424722
1.92	192	-0.07	-1.002	-0.004	-3.151269	-1.8334656	0.4010706	87.3187992	-4.02789474	11.20705848
1.93	193	-0.07	-1.002	-0.005	-2.8074942	-2.005353	0.286479	87.2901513	-4.03362432	11.18414016
1.94	194	-0.071	-1.001	-0.004	-2.5210152	-2.291832	0.2291832	87.26723298	-4.0393539	11.16122184
1.95	195	-0.07	-1.001	-0.002	-2.005353	-2.6356068	0.2291832	87.26723298	-4.0393539	11.13257394
1.96	196	-0.069	-1.002	-0.002	-1.9480572	-2.8074942	0.286479	87.25004424	-4.0393539	11.10392604
1.97	197	-0.068	-1.002	-0.001	-1.9480572	-2.9793816	0.2291832	87.2328555	-4.04508348	11.07527814
1.98	198	-0.067	-1.001	-0.001	-1.8334656	-3.2085648	0.286479	87.21566676	-4.05081306	11.04090066
1.99	199	-0.068	-1	-0.001	-1.718874	-3.3804522	0.286479	87.19847802	-4.05081306	11.00652318
2	200	-0.067	-1.001	-0.001	-1.7761698	-3.4950438	0.1145916	87.2042076	-4.05081306	10.96641612
2.01	201	-0.069	-1.002	-0.001	-1.7761698	-3.3804522	0.1145916	87.19274844	-4.05081306	10.93203864
2.02	202	-0.071	-1.005	-0.002	-1.8907614	-3.2658606	0.0572958	87.1755597	-4.05081306	10.89766116
2.03	203	-0.07	-1.004	-0.006	-2.005353	-3.0939732	-0.1145916	87.15837096	-4.05081306	10.86901326
2.04	204	-0.071	-1.003	-0.005	-1.7761698	-3.0366774	-0.1145916	87.14118222	-4.05081306	10.84036536
2.05	205	-0.072	-1.002	-0.006	-1.6042824	-2.86479	-0.0572958	87.1469118	-4.05081306	10.80598788
2.06	206	-0.074	-1.001	-0.008	-1.6042824	-2.4064236	-0.1145916	87.12972306	-4.05081306	10.77733998
2.07	207	-0.074	-1	-0.01	-1.3750992	-2.1772404	-0.1718874	87.1182639	-4.05081306	10.76015124
2.08	208	-0.073	-1	-0.014	-1.0886202	-1.8334656	-0.1145916	87.10680474	-4.05081306	10.73723292
2.09	209	-0.073	-0.999	-0.015	-0.5156622	-1.6042824	0	87.10680474	-4.05081306	10.72577376
2.1	210	-0.074	-1	-0.013	-0.1718874	-1.4896908	0.1718874	87.14118222	-4.05081306	10.69712586
2.11	211	-0.076	-1.002	-0.012	0.0572958	-1.2032118	0.0572958	87.1469118	-4.05654264	10.6856667
2.12	212	-0.077	-1.002	-0.012	0.286479	-0.7448454	0	87.1469118	-4.05654264	10.67993712
2.13	213	-0.076	-1.003	-0.01	0.2291832	-0.1718874	0	87.15264138	-4.05654264	10.67420754
2.14	214	-0.074	-1.006	-0.009	0	0.286479	0	87.15264138	-4.05654264	10.67993712
2.15	215	-0.072	-1.01	-0.007	-0.0572958	0.4010706	0	87.2901513	-4.03362432	10.64555964
2.16	216	-0.07	-1.012	-0.008	0.1145916	0.1718874	0	87.2901513	-4.03362432	10.64555964
2.17	217	-0.066	-1.011	-0.006	0.286479	-0.2291832	-0.1145916	87.29588088	-4.03362432	10.64555964
2.18	218	-0.065	-1.006	-0.005	0.4010706	-0.4010706	-0.2291832	87.30161046	-4.02789474	10.63983006
2.19	219	-0.065	-1	-0.007	0.572958	-0.5156622	-0.286479	87.30734004	-4.02789474	10.63410048
2.2	220	-0.067	-0.998	-0.006	0.5156622	-0.3437748	-0.2291832	87.36463584	-4.00497642	10.61691174
2.21	221	-0.067	-1.001	-0.007	0.4583664	-0.286479	-0.0572958	87.37036542	-4.00497642	10.61691174
2.22	222	-0.068	-1.005	-0.008	0.4583664	-0.286479	0	87.376095	-4.00497642	10.61118216
2.23	223	-0.066	-1.007	-0.007	0.5156622	-0.3437748	0.0572958	87.38182458	-4.00497642	10.60545258
2.24	224	-0.067	-1.008	-0.004	0.4583664	-0.6302538	0	87.38755416	-4.00497642	10.599723
2.25	225	-0.066	-1.008	-0.005	0.286479	-0.8021412	0	87.44484996	-3.97632852	10.58253426
2.26	226	-0.065	-1.007	-0.005	-0.0572958	-0.8021412	-0.1145916	87.44484996	-3.97632852	10.5710751
2.27	227	-0.065	-1.006	-0.004	-0.1145916	-0.7448454	-0.3437748	87.44484996	-3.97632852	10.56534552
2.28	228	-0.066	-1.004	-0.004	0	-0.7448454	-0.4010706	87.44484996	-3.97059894	10.55388636
2.29	229	-0.068	-1.004	-0.006	-0.0572958	-0.6302538	-0.3437748	87.44484996	-3.96486936	10.54815678
2.3	230	-0.07	-1.003	-0.007	0.0572958	-0.3437748	-0.2291832	87.50787534	-3.95913978	10.53096804
2.31	231	-0.071	-1.002	-0.005	0.1145916	-0.0572958	-0.1718874	87.50787534	-3.95913978	10.53096804
2.32	232	-0.073	-1.003	-0.003	0.1145916	0.0572958	-0.1145916	87.50787534	-3.9534102	10.53096804
2.33	233	-0.074	-1.004	-0.002	-0.0572958	0.5156622	0	87.50787534	-3.9534102	10.53669762
2.34	234	-0.074	-1.004	-0.002	-0.0572958	1.0313244	-0.1718874	87.50787534	-3.9534102	10.54815678
2.35	235	-0.074	-1.002	-0.003	0	1.432395	-0.2291832	87.53652324	-3.9534102	10.55388636
2.36	236	-0.075	-1.002	-0.004	0.1718874	1.7761698	-0.1718874	87.53652324	-3.9534102	10.5710751
2.37	237	-0.077	-1.001	-0.002	0.3437748	2.1199446	-0.1145916	87.54225282	-3.9534102	10.59399342
2.38	238	-0.076	-1	0	0.4583664	2.5210152	-0.0572958	87.54225282	-3.94768062	10.61691174
2.39	239	-0.075	-1.001	0	0.572958	2.9220858	-0.0572958	87.5479824	-3.94768062	10.64555964
2.4	240	-0.075	-1.003	0	0.4583664	3.151269	-0.0572958	87.57090072	-3.94768062	10.67420754
2.41	241	-0.07	-1.004	0	0.0572958	3.3231564	-0.1145916	87.57090072	-3.94195104	10.70285544
2.42	242	-0.068	-1.002	0.001	0	3.0939732	-0.1718874	87.56517114	-3.94195104	10.73723292
2.43	243	-0.069	-1.004	0	0	3.151269	-0.1718874	87.56517114	-3.93622146	10.76588082
2.44	244	-0.068	-1.002	0.002	0.1145916	3.151269	-0.286479	87.56517114	-3.93622146	10.8002583
2.45	245	-0.07	-1.003	0.003	0.2291832	2.9220858	-0.286479	87.59381904	-3.93049188	10.82317662
2.46	246	-0.069	-1.005	0.004	0.1718874	2.5210152	-0.3437748	87.59381904	-3.9247623	10.84609494
2.47	247	-0.069	-1.006	0.006	0.1718874	2.3491278	-0.3437748	87.59381904	-3.9247623	10.86901326
2.48	248	-0.068	-1.007	0.006	0.3437748	2.1199446	-0.286479	87.59381904	-3.91903272	10.89193158
2.49	249	-0.069	-1.009	0.007	0.2291832	1.9480572	-0.2291832	87.59381904	-3.91330314	10.90912032
2.5	250	-0.071	-1.01	0.005	-0.0572958	2.005353	-0.2291832	87.62819652	-3.91330314	10.92057948
2.51	251	-0.072	-1.012	0.004	-0.4010706	2.1199446	-0.2291832	87.62246694	-3.91330314	10.9434978
2.52	252	-0.071	-1.012	0.002	-0.5156622	2.2345362	-0.1718874	87.61673736	-3.90757356	10.96641612
2.53	253	-0.069	-1.013	0.001	-0.8021412	2.2345362	-0.0572958	87.6052782	-3.90757356	10.98933444
2.54	254	-0.067	-1.011	-0.001	-0.9167328	2.291832	-0.0572958	87.59381904	-3.90757356	11.01225276
2.55	255	-0.068	-1.008	-0.002	-0.9740286	2.3491278	0	87.59954862	-3.90184398	11.0294415
2.56	256	-0.068	-1.004	-0.003	-0.9167328	2.2345362	0	87.58808946	-3.90184398	11.05235982
2.57	257	-0.067	-1.002	-0.003	-0.9740286	2.005353	0	87.5766303	-3.8961144	11.07527814
2.58	258	-0.067	-1.001	-0.004	-0.9740286	1.7761698	-0.0572958	87.56517114	-3.8961144	11.09246688
2.59	259	-0.068	-1.003	-0.005	-0.9740286	1.6615782	-0.1145916	87.55371198	-3.8961144	11.10392604
2.6	260	-0.067	-1.004	-0.005	-0.859437	1.6042824	-0.1718874	87.56517114	-3.89038482	11.1153852
2.61	261	-0.068	-1.002	-0.008	-0.6302538	1.5469866	-0.1718874	87.55944156	-3.88465524	11.13257394
2.62	262	-0.067	-1.003	-0.009	-0.572958	1.4896908	-0.0572958	87.5479824	-3.88465524	11.14976268
2.63	263	-0.067	-1.005	-0.009	-0.4010706	1.4896908	-0.1145916	87.54225282	-3.88465524	11.16122184
2.64	264	-0.066	-1.007	-0.012	-0.4583664	1.718874	-0.1718874	87.53652324	-3.87892566	11.17841058
2.65	265	-0.068	-1.009	-0.013	-0.4010706	1.8334656	-0.286479	87.54225282	-3.87319608	11.19559932
2.66	266	-0.068	-1.01	-0.014	-0.4010706	1.7761698	-0.3437748	87.53652324	-3.8674665	11.21278806
2.67	267	-0.068	-1.012	-0.012	-0.3437748	1.718874	-0.4583664	87.53079366	-3.86173692	11.2299768
2.68	268	-0.068	-1.014	-0.01	-0.5156622	1.4896908	-0.5156622	87.52506408	-3.85600734	11.24716554
2.69	269	-0.066	-1.016	-0.007	-0.9167328	1.2605076	-0.4583664	87.51360492	-3.85027776	11.2586247
2.7	270	-0.066	-1.018	-0.005	-1.3750992	1.0313244	-0.4583664	87.5193345	-3.8388186	11.26435428
2.71	271	-0.068	-1.021	-0.002	-2.1772404	1.0886202	-0.572958	87.49641618	-3.83308902	11.27581344
2.72	272	-0.067	-1.023	-0.005	-3.3231564	1.3750992	-0.5156622	87.4620387	-3.82735944	11.2872726
2.73	273	-0.063	-1.026	-0.01	-4.5263682	1.6615782	-0.5156622	87.41620206	-3.82735944	11.30446134
2.74	274	-0.062	-1.028	-0.011	-5.5576926	1.7761698	-0.4583664	87.35890626	-3.82162986	11.32165008
2.75	275	-0.062	-1.029	-0.014	-6.7036086	1.7761698	-0.4583664	87.2901513	-3.8101707	11.33883882
2.76	276	-0.062	-1.032	-0.016	-7.734933	1.4896908	-0.5156622	87.20993718	-3.80444112	11.35029798
2.77	277	-0.063	-1.035	-0.019	-9.2246238	1.3750992	-0.5156622	87.1182639	-3.79871154	11.36175714
2.78	278	-0.061	-1.036	-0.021	-11.172681	1.6615782	-0.572958	87.0036723	-3.79871154	11.37894588
2.79	279	-0.059	-1.036	-0.027	-12.7769634	1.9480572	-0.5156622	86.87189196	-3.79298196	11.39613462
2.8	280	-0.058	-1.035	-0.03	-13.8082878	1.718874	-0.5156622	86.72865246	-3.7815228	11.41332336
2.81	281	-0.059	-1.032	-0.036	-14.8396122	1.2605076	-0.6302538	86.57968338	-3.77579322	11.42478252
2.82	282	-0.058	-1.025	-0.041	-16.2147114	0.859437	-0.859437	86.41352556	-3.77006364	11.4305121
2.83	283	-0.059	-1.014	-0.049	-17.475219	0.6302538	-1.0886202	86.23590858	-3.75860448	11.4305121
2.84	284	-0.059	-1.012	-0.051	-18.334656	0.572958	-1.2032118	86.04683244	-3.74714532	11.43624168
2.85	285	-0.058	-1.01	-0.056	-20.05353	0.6875496	-1.145916	85.84056756	-3.73568616	11.44197126
2.86	286	-0.06	-1.011	-0.067	-21.5432208	0.5156622	-1.2032118	85.62284352	-3.72995658	11.44197126
2.87	287	-0.059	-1.013	-0.074	-23.0902074	0.4010706	-1.3178034	85.38793074	-3.71849742	11.44197126
2.88	288	-0.059	-1.013	-0.08	-24.5226024	0.2291832	-1.6042824	85.13582922	-3.70130868	11.44197126
2.89	289	-0.059	-1.01	-0.088	-24.923673	-0.1718874	-2.0626488	84.8837277	-3.68411994	11.43624168
2.9	290	-0.061	-1.005	-0.088	-25.3247436	-0.572958	-2.7501984	84.6258966	-3.65547204	11.42478252
2.91	291	-0.062	-1.001	-0.085	-26.1268848	-1.0313244	-3.3231564	84.36233592	-3.62682414	11.40759378
2.92	292	-0.063	-1	-0.087	-27.0436176	-1.5469866	-3.8961144	84.08731608	-3.59244666	11.38467546
2.93	293	-0.064	-1.003	-0.092	-28.2468294	-1.8334656	-4.297185	83.80656666	-3.5523396	11.36175714
2.94	294	-0.062	-1.004	-0.094	-29.1635622	-2.1199446	-4.5263682	83.5086285	-3.51223254	11.33310924
2.95	295	-0.061	-1.006	-0.088	-30.080295	-2.5210152	-4.6409598	83.21069034	-3.47212548	11.29873176
2.96	296	-0.066	-1.006	-0.088	-31.3980984	-2.5210152	-4.583664	82.88983386	-3.43201842	11.26435428
2.97	297	-0.067	-1.005	-0.093	-32.7159018	-1.5469866	-4.4117766	82.5632478	-3.39191136	11.24143596
2.98	298	-0.071	-1.002	-0.099	-33.6326346	-0.1718874	-4.0680018	82.219473	-3.35753388	11.2299768
2.99	299	-0.076	-1.006	-0.104	-34.6066632	1.2605076	-3.5523396	81.86996862	-3.3231564	11.2299768
3	300	-0.078	-0.986	-0.119	-36.0390582	1.6615782	-3.151269	81.5032755	-3.2945085	11.24143596
3.01	301	-0.075	-0.982	-0.125	-33.6899304	1.3750992	-2.9793816	81.1595007	-3.2658606	11.24716554
3.02	302	-0.069	-0.987	-0.131	-33.5753388	1.2605076	-3.151269	80.8157259	-3.2372127	11.25289512
3.03	303	-0.059	-0.979	-0.131	-33.9764094	0.8021412	-3.4950438	80.4719511	-3.2085648	11.25289512
3.04	304	-0.056	-0.975	-0.13	-34.2055926	0.5156622	-3.5523396	80.12244672	-3.17418732	11.24716554
3.05	305	-0.056	-0.978	-0.133	-35.0650296	0.859437	-3.2085648	79.77294234	-3.14553942	11.24716554
3.06	306	-0.057	-0.984	-0.134	-36.1536498	1.2605076	-2.5210152	79.40051964	-3.11689152	11.25289512
3.07	307	-0.061	-0.985	-0.132	-37.1276784	1.4896908	-1.8334656	79.02809694	-3.09970278	11.2586247
3.08	308	-0.06	-0.983	-0.143	-37.8725238	1.6615782	-1.2605076	78.6384855	-3.08824362	11.27008386
3.09	309	-0.058	-0.975	-0.154	-38.4454818	1.6615782	-0.859437	78.24887406	-3.08251404	11.28154302
3.1	310	-0.054	-0.965	-0.16	-38.7892566	1.4896908	-0.572958	77.85353304	-3.07678446	11.2872726
3.11	311	-0.054	-0.953	-0.166	-38.7319608	1.3178034	-0.6875496	77.4639216	-3.07105488	11.29873176
3.12	312	-0.057	-0.943	-0.166	-38.3308902	1.3750992	-1.3178034	77.07431016	-3.05959572	11.30446134
3.13	313	-0.061	-0.94	-0.162	-38.2735944	1.432395	-1.7761698	76.68469872	-3.04240698	11.31019092
3.14	314	-0.06	-0.946	-0.161	-39.0757356	1.5469866	-2.0626488	76.28362812	-3.02521824	11.3159205
3.15	315	-0.06	-0.953	-0.172	-39.8778768	1.432395	-1.8907614	75.88255752	-3.0080295	11.32165008
3.16	316	-0.054	-0.957	-0.182	-39.9924684	1.2032118	-1.3178034	75.47575734	-2.99657034	11.32737966
3.17	317	-0.051	-0.957	-0.185	-39.534102	0.9167328	-0.9740286	75.07468674	-2.99084076	11.33310924
3.18	318	-0.048	-0.957	-0.196	-38.7892566	0.5156622	-0.859437	74.6850753	-2.98511118	11.33310924
3.19	319	-0.048	-0.951	-0.198	-37.815228	0.2291832	-0.9167328	74.30119344	-2.9793816	11.32737966
3.2	320	-0.055	-0.946	-0.2	-36.669312	0	-1.2032118	73.93450032	-2.97365202	11.32165008
3.21	321	-0.06	-0.945	-0.211	-36.2109456	0.5156622	-1.6615782	73.56207762	-2.95646328	11.3159205
3.22	322	-0.059	-0.95	-0.214	-35.6952834	1.2032118	-2.005353	73.20111408	-2.93927454	11.32165008
3.23	323	-0.056	-0.959	-0.216	-35.0650296	1.6615782	-2.1772404	72.84588012	-2.91635622	11.32737966
3.24	324	-0.052	-0.959	-0.216	-34.7785506	2.0626488	-2.005353	72.49064616	-2.89916748	11.33883882
3.25	325	-0.051	-0.952	-0.223	-34.3201842	2.3491278	-1.6042824	72.14687136	-2.88197874	11.35029798
3.26	326	-0.049	-0.944	-0.23	-34.2055926	2.7501984	-1.2605076	71.79736698	-2.86479	11.3732163
3.27	327	-0.049	-0.934	-0.238	-33.8618178	3.0366774	-1.0886202	71.45359218	-2.84760126	11.39613462
3.28	328	-0.048	-0.931	-0.246	-33.2888598	3.151269	-0.9167328	71.11554696	-2.8361421	11.41905294
3.29	329	-0.05	-0.94	-0.251	-32.945085	3.151269	-0.7448454	70.77750174	-2.81895336	11.44197126
3.3	330	-0.053	-0.95	-0.262	-32.945085	3.2085648	-0.572958	70.4451861	-2.8074942	11.47061916
3.31	331	-0.055	-0.959	-0.271	-32.4294228	3.4950438	-0.6302538	70.11287046	-2.79603504	11.49926706
3.32	332	-0.055	-0.959	-0.269	-32.0283522	3.724227	-0.6875496	69.7862844	-2.7788463	11.52791496
3.33	333	-0.049	-0.957	-0.27	-31.8564648	3.724227	-0.8021412	69.45969834	-2.76738714	11.55656286
3.34	334	-0.041	-0.949	-0.281	-31.6845774	3.3804522	-0.4010706	69.13884186	-2.75592798	11.58521076
3.35	335	-0.038	-0.943	-0.289	-30.8824362	3.0939732	-0.1145916	68.82944454	-2.74446882	11.60812908
3.36	336	-0.042	-0.933	-0.295	-30.080295	3.4950438	-0.1718874	68.52004722	-2.73300966	11.64250656
3.37	337	-0.051	-0.927	-0.296	-28.9916748	3.437748	-0.9167328	68.22210906	-2.71582092	11.66542488
3.38	338	-0.06	-0.939	-0.298	-29.220858	3.5523396	-2.0626488	67.9241709	-2.68717302	11.6883432
3.39	339	-0.061	-0.951	-0.312	-29.7365202	3.9534102	-2.6929026	67.62050316	-2.65279554	11.71126152
3.4	340	-0.056	-0.958	-0.319	-29.6219286	3.7815228	-2.6929026	67.32829458	-2.61841806	11.73417984
3.41	341	-0.049	-0.959	-0.327	-28.9916748	3.7815228	-2.2345362	67.03035642	-2.58977016	11.75709816
3.42	342	-0.044	-0.953	-0.333	-28.7051958	3.2085648	-1.3178034	66.73814784	-2.56685184	11.78001648
3.43	343	-0.049	-0.941	-0.334	-28.4760126	3.151269	-0.572958	66.44593926	-2.55539268	11.80866438
3.44	344	-0.047	-0.934	-0.336	-28.1322378	3.3804522	-0.1718874	66.15946026	-2.54393352	11.83731228
3.45	345	-0.041	-0.932	-0.34	-28.1322378	3.3231564	-0.0572958	65.87871084	-2.53247436	11.8602306
3.46	346	-0.038	-0.931	-0.354	-28.074942	3.3804522	0	65.59223184	-2.5210152	11.89460808
3.47	347	-0.037	-0.926	-0.363	-27.5592798	3.3231564	0.4010706	65.31148242	-2.51528562	11.92325598
3.48	348	-0.041	-0.924	-0.364	-27.3300966	2.9220858	0.4583664	65.030733	-2.50955604	11.95190388
3.49	349	-0.043	-0.92	-0.372	-27.5592798	2.291832	0.286479	64.74998358	-2.50955604	11.96909262
3.5	350	-0.049	-0.917	-0.372	-27.4446882	2.0626488	0.0572958	64.47496374	-2.50382646	11.98628136
3.51	351	-0.046	-0.918	-0.382	-27.2728008	2.291832	-0.1145916	64.19421432	-2.49809688	12.0034701
3.52	352	-0.04	-0.925	-0.39	-27.2728008	1.8334656	0	63.91919448	-2.4923673	12.02065884
3.53	353	-0.036	-0.916	-0.387	-26.2414764	0.8021412	0.4583664	63.64990422	-2.49809688	12.02638842
3.54	354	-0.037	-0.907	-0.385	-25.0382646	0	0.6302538	63.3978027	-2.50955604	12.02638842
3.55	355	-0.042	-0.888	-0.393	-24.4653066	-0.5156622	0.4010706	63.15143076	-2.51528562	12.02638842
3.56	356	-0.05	-0.881	-0.4	-24.1788276	-0.9167328	-0.286479	62.90505882	-2.5210152	12.01492926
3.57	357	-0.055	-0.876	-0.395	-23.9496444	-1.6615782	-1.0313244	62.66441646	-2.5210152	11.99201094
3.58	358	-0.06	-0.871	-0.401	-23.9496444	-2.1199446	-1.6042824	62.4237741	-2.5210152	11.96336304
3.59	359	-0.059	-0.865	-0.405	-23.7204612	-2.4637194	-1.8907614	62.18313174	-2.51528562	11.92898556
3.6	360	-0.065	-0.866	-0.401	-23.204799	-2.86479	-2.291832	61.95394854	-2.51528562	11.89460808
3.61	361	-0.073	-0.864	-0.416	-22.9756158	-2.9220858	-3.0366774	61.72476534	-2.50382646	11.84877144
3.62	362	-0.075	-0.865	-0.413	-22.058883	-3.437748	-3.7815228	61.50131172	-2.4923673	11.8029348
3.63	363	-0.077	-0.872	-0.413	-22.0015872	-3.7815228	-4.1252976	61.2778581	-2.47517856	11.745639
3.64	364	-0.07	-0.875	-0.423	-22.91832	-4.297185	-3.724227	61.0486749	-2.4637194	11.6883432
3.65	365	-0.068	-0.876	-0.425	-22.6891368	-4.7555514	-3.2085648	60.83095086	-2.4637194	11.6310474
3.66	366	-0.07	-0.869	-0.413	-22.631841	-4.870143	-2.6929026	60.60176766	-2.4637194	11.5737516
3.67	367	-0.079	-0.852	-0.423	-22.345362	-4.583664	-2.578311	60.37831404	-2.46944898	11.5164558
3.68	368	-0.092	-0.845	-0.433	-21.6005166	-3.724227	-2.9220858	60.16059	-2.4637194	11.47061916
3.69	369	-0.102	-0.836	-0.437	-20.5691922	-3.4950438	-3.8388186	59.95432512	-2.44653066	11.41905294
3.7	370	-0.113	-0.829	-0.426	-18.8503182	-3.5523396	-4.870143	59.77097856	-2.4350715	11.36175714
3.71	371	-0.119	-0.833	-0.418	-18.8503182	-2.6929026	-6.0733548	59.58190242	-2.40069402	11.30446134
3.72	372	-0.115	-0.837	-0.432	-19.3086846	-2.578311	-6.9900876	59.3870967	-2.35485738	11.24716554
3.73	373	-0.105	-0.837	-0.442	-18.4492476	-3.2658606	-7.6203414	59.20375014	-2.30902074	11.17841058
3.74	374	-0.097	-0.84	-0.445	-17.1314442	-3.724227	-7.6776372	59.03186274	-2.2631841	11.10392604
3.75	375	-0.096	-0.859	-0.44	-17.0168526	-3.9534102	-7.1046792	58.8714345	-2.2345362	11.0294415
3.76	376	-0.097	-0.864	-0.446	-16.8449652	-4.0680018	-6.4744254	58.70527668	-2.20015872	10.96068654
3.77	377	-0.106	-0.855	-0.437	-15.1260912	-4.4690724	-5.7868758	58.5563076	-2.1772404	10.89193158
3.78	378	-0.119	-0.854	-0.43	-13.8082878	-4.3544808	-5.6149884	58.41879768	-2.15432208	10.82317662
3.79	379	-0.13	-0.852	-0.436	-14.0947668	-3.2658606	-5.8441716	58.27555818	-2.1199446	10.76588082
3.8	380	-0.132	-0.851	-0.45	-13.5791046	-2.005353	-6.2452422	58.14950742	-2.10275586	10.7143146
3.81	381	-0.134	-0.851	-0.452	-13.2353298	-1.0886202	-6.8182002	58.01772708	-2.05118964	10.66847796
3.82	382	-0.135	-0.857	-0.434	-13.4072172	-0.4010706	-7.5057498	57.88021716	-1.99389384	10.62264132
3.83	383	-0.125	-0.856	-0.47	-14.6677248	-0.4010706	-8.021412	57.73124808	-1.93086846	10.57680468
3.84	384	-0.11	-0.849	-0.472	-13.2353298	-1.2032118	-8.4224826	57.59946774	-1.8621135	10.51950888
3.85	385	-0.095	-0.856	-0.456	-11.4018642	-2.1772404	-8.3651868	57.4963353	-1.82200644	10.4564835
3.86	386	-0.091	-0.855	-0.471	-11.4018642	-3.6669312	-7.6203414	57.3817437	-1.7761698	10.38199896
3.87	387	-0.094	-0.862	-0.458	-10.2559482	-4.9274388	-6.7609044	57.28434084	-1.7475219	10.30751442
3.88	388	-0.101	-0.872	-0.478	-10.5424272	-5.3285094	-6.1306506	57.17547882	-1.72460358	10.2273003
3.89	389	-0.112	-0.862	-0.48	-9.8548776	-5.72958	-5.8441716	57.07807596	-1.70741484	10.14708618
3.9	390	-0.123	-0.851	-0.461	-8.9381448	-5.8441716	-6.3598338	57.00359142	-1.70741484	10.06114248
3.91	391	-0.128	-0.856	-0.491	-10.7716104	-5.9014674	-7.0473834	56.8947294	-1.67876694	9.9694692
3.92	392	-0.129	-0.858	-0.485	-11.8029348	-5.9014674	-7.5630456	56.7801378	-1.65011904	9.87779592
3.93	393	-0.132	-0.854	-0.459	-11.2872726	-6.0733548	-9.0527364	56.67127578	-1.6042824	9.78039306
3.94	394	-0.128	-0.862	-0.483	-12.891555	-6.0733548	-10.886202	56.53949544	-1.5469866	9.66580146
3.95	395	-0.117	-0.862	-0.475	-13.2926256	-5.6149884	-12.605076	56.41917426	-1.4896908	9.55120986
3.96	396	-0.111	-0.863	-0.488	-13.2926256	-5.5576926	-13.750992	56.28739392	-1.4037471	9.4251591
3.97	397	-0.108	-0.861	-0.506	-13.6364004	-5.9014674	-14.2093584	56.15561358	-1.32353298	9.29910834
3.98	398	-0.108	-0.861	-0.472	-12.7196676	-5.72958	-14.7250206	56.02956282	-1.2318597	9.167328
3.99	399	-0.114	-0.87	-0.498	-12.891555	-6.4171296	-15.183387	55.89778248	-1.14018642	9.02981808
4	400	-0.119	-0.875	-0.49	-12.2040054	-6.302538	-15.183387	55.78892046	-1.07143146	8.89230816
4.01	401	-0.119	-0.859	-0.474	-11.0580894	-5.6149884	-15.6417534	55.68005844	-0.9740286	8.75479824
4.02	402	-0.115	-0.856	-0.48	-11.4018642	-4.7555514	-16.1001198	55.56546684	-0.86516658	8.6230179
4.03	403	-0.107	-0.852	-0.483	-12.2040054	-4.4690724	-16.5011904	55.44514566	-0.75630456	8.49696714
4.04	404	-0.097	-0.841	-0.465	-11.5164558	-4.6982556	-16.5584862	55.33055406	-0.64744254	8.35945722
4.05	405	-0.099	-0.83	-0.481	-11.0007936	-5.2139178	-16.329303	55.22742162	-0.56149884	8.22767688
4.06	406	-0.105	-0.842	-0.493	-9.740286	-6.0733548	-16.1001198	55.13001876	-0.46409598	8.08443738
4.07	407	-0.11	-0.845	-0.473	-8.1932994	-6.0733548	-16.1574156	55.04980464	-0.36669312	7.94119788
4.08	408	-0.119	-0.83	-0.476	-6.9900876	-5.9587632	-16.2720072	54.9753201	-0.26356068	7.79795838
4.09	409	-0.129	-0.813	-0.46	-5.2712136	-6.016059	-16.902261	54.92375388	-0.16042824	7.65471888
4.1	410	-0.135	-0.826	-0.469	-3.9534102	-6.7609044	-17.9908812	54.90083556	-0.07448454	7.49429064
4.11	411	-0.143	-0.855	-0.455	-2.1199446	-7.5630456	-19.2513888	54.87791724	0.03437748	7.32240324
4.12	412	-0.135	-0.874	-0.402	-1.3178034	-6.4171296	-20.4546006	54.86645808	0.16615782	7.15051584
4.13	413	-0.119	-0.885	-0.434	-1.6615782	-6.2452422	-21.8296998	54.84926934	0.30939732	6.97289886
4.14	414	-0.109	-0.889	-0.427	0	-5.2712136	-21.7151082	54.84353976	0.45263682	6.80674104
4.15	415	-0.12	-0.891	-0.417	2.005353	-3.5523396	-21.0848544	54.89510598	0.57868758	6.65777196
4.16	416	-0.147	-0.882	-0.42	3.9534102	-1.5469866	-20.5691922	54.93521304	0.73911582	6.52599162
4.17	417	-0.177	-0.873	-0.424	6.0733548	0.2291832	-20.5118964	54.99250884	0.90527364	6.41140002
4.18	418	-0.195	-0.872	-0.432	7.5057498	1.432395	-20.7983754	55.06699338	1.08289062	6.30826758
4.19	419	-0.191	-0.881	-0.438	9.453807	2.1199446	-20.8556712	55.16439624	1.26623718	6.20513514
4.2	420	-0.174	-0.891	-0.43	11.3445684	2.291832	-21.2567418	55.29617658	1.42666542	6.10773228
4.21	421	-0.161	-0.89	-0.417	12.0894138	2.6356068	-22.0015872	55.41649776	1.62147114	6.00459984
4.22	422	-0.148	-0.889	-0.408	11.0580894	3.8388186	-22.8610242	55.52535978	1.8334656	5.90719698
4.23	423	-0.125	-0.887	-0.428	9.740286	4.3544808	-23.6631654	55.61703306	2.05118964	5.8155237
4.24	424	-0.106	-0.886	-0.445	9.5111028	3.3231564	-23.3193906	55.70870634	2.2631841	5.71239126
4.25	425	-0.113	-0.873	-0.438	10.599723	0.9167328	-22.0015872	55.82902752	2.42361234	5.59779966
4.26	426	-0.132	-0.861	-0.414	11.8029348	-0.572958	-21.0275586	55.94361912	2.59549974	5.4717489
4.27	427	-0.147	-0.859	-0.402	11.4018642	-0.9740286	-20.1681216	56.05821072	2.75592798	5.3571573
4.28	428	-0.174	-0.861	-0.394	11.2872726	0.4010706	-19.1367972	56.16707274	2.91635622	5.25402486
4.29	429	-0.19	-0.862	-0.39	10.9434978	1.5469866	-18.4492476	56.27020518	3.08251404	5.16808116
4.3	430	-0.197	-0.851	-0.404	11.6310474	1.145916	-17.1314442	56.4077151	3.1799169	5.08213746
4.31	431	-0.202	-0.831	-0.392	13.0634424	1.0313244	-15.2979786	56.53376586	3.31742682	5.00765292
4.32	432	-0.197	-0.806	-0.389	13.6364004	1.432395	-12.891555	56.67127578	3.43201842	4.95035712
4.33	433	-0.19	-0.789	-0.4	15.3552744	1.0313244	-10.026765	56.82024486	3.5236917	4.90452048
4.34	434	-0.186	-0.782	-0.379	17.5325148	1.145916	-6.9327918	56.99786184	3.59244666	4.88160216
4.35	435	-0.188	-0.771	-0.363	18.8503182	2.0626488	-4.583664	57.20412672	3.59817624	4.87587258
4.36	436	-0.2	-0.755	-0.364	20.4546006	4.1825934	-3.437748	57.41612118	3.65547204	4.89306132
4.37	437	-0.213	-0.74	-0.34	23.0902074	7.2192708	-3.437748	57.65103396	3.724227	4.93316838
4.38	438	-0.219	-0.726	-0.301	24.1788276	11.0007936	-4.4117766	57.8974059	3.81590028	5.00765292
4.39	439	-0.225	-0.713	-0.317	24.1788276	15.3552744	-5.3858052	58.14950742	3.94195104	5.11078536
4.4	440	-0.22	-0.702	-0.321	25.7258142	19.0222056	-6.0733548	58.42452726	4.0680018	5.2425657
4.41	441	-0.213	-0.698	-0.319	27.6165756	22.4026578	-6.4171296	58.71100626	4.2398892	5.40872352
4.42	442	-0.21	-0.704	-0.3	28.1322378	26.5852512	-7.448454	59.00894442	4.43469492	5.59779966
4.43	443	-0.211	-0.709	-0.295	27.3873924	30.1948866	-8.59437	59.301153	4.65814854	5.8155237
4.44	444	-0.206	-0.72	-0.309	28.074942	31.3408026	-9.2246238	59.59909116	4.89306132	6.0447069
4.45	445	-0.184	-0.722	-0.3	29.507337	31.226211	-9.2246238	59.92567722	5.10505578	6.2738901
4.46	446	-0.147	-0.711	-0.299	29.1635622	31.0543236	-8.9954406	60.23507454	5.3285094	6.5030733
4.47	447	-0.111	-0.694	-0.33	28.9916748	29.3927454	-8.880849	60.55020144	5.54623344	6.72079734
4.48	448	-0.079	-0.679	-0.325	30.4240698	28.1895336	-8.7089616	60.87105792	5.7582279	6.92706222
4.49	449	-0.073	-0.657	-0.319	30.939732	28.7624916	-8.7089616	61.20337356	5.97022236	7.13905668
4.5	450	-0.1	-0.639	-0.323	31.9137606	31.4553942	-9.5683986	61.55287794	6.18221682	7.37396946
4.51	451	-0.145	-0.63	-0.302	32.8877892	35.0650296	-11.4018642	61.9081119	6.4457775	7.63753014
4.52	452	-0.201	-0.622	-0.304	33.0596766	39.3049188	-13.2926256	62.26907544	6.73798608	7.92400914
4.53	453	-0.247	-0.614	-0.32	34.0337052	43.4875122	-15.6417534	62.64722772	7.07030172	8.24486562
4.54	454	-0.26	-0.591	-0.311	36.2109456	47.2117392	-17.9908812	63.0540279	7.43126526	8.58864042
4.55	455	-0.262	-0.569	-0.31	38.2162986	51.7381074	-19.767051	63.4837464	7.81514712	8.97252228
4.56	456	-0.278	-0.547	-0.296	40.7373138	57.582279	-22.0015872	63.94784238	8.2505952	9.40224078
4.57	457	-0.311	-0.538	-0.284	42.8572584	63.598338	-24.8090814	64.44631584	8.7376095	9.87779592
4.58	458	-0.324	-0.522	-0.24	45.2063862	69.9581718	-27.9030546	64.9734372	9.27046044	10.3991877
4.59	459	-0.3	-0.502	-0.186	44.977203	75.2866812	-30.5959572	65.5177473	9.84914802	10.9721457
4.6	460	-0.236	-0.455	-0.195	45.2063862	75.630456	-32.7731976	66.0620574	10.4278356	11.53937412
4.61	461	-0.147	-0.412	-0.177	46.9252602	76.776372	-33.6326346	66.64074498	11.02371192	12.12379128
4.62	462	-0.076	-0.388	-0.148	48.70143	79.7557536	-33.518043	67.24235088	11.62531782	12.74258592
4.63	463	-0.037	-0.353	-0.139	50.706783	83.0216142	-34.3201842	67.88406384	12.23838288	13.40148762
4.64	464	0.007	-0.316	-0.135	53.3423898	87.1469118	-35.809875	68.56588386	12.87436626	14.10049638
4.65	465	-0.001	-0.266	-0.121	55.3477428	92.4181254	-38.2735944	69.28208136	13.53326796	14.84534178
4.66	466	-0.035	-0.219	-0.119	57.9260538	97.2309726	-42.8572584	70.0441155	14.24946546	15.63602382
4.67	467	-0.001	-0.163	-0.079	60.2178858	100.1530584	-48.5295426	70.8462567	15.01722918	16.44962418
4.68	468	0.061	-0.091	-0.076	61.2492102	103.8772854	-53.3996856	71.68277538	15.83082954	17.29760202
4.69	469	0.119	-0.023	-0.082	63.884817	105.7680468	-57.2385042	72.55940112	16.6730778	18.16849818
4.7	470	0.125	0.02	-0.057	68.9841432	107.6588082	-61.0773228	73.49905224	17.54970354	19.06804224
4.71	471	0.088	0.031	-0.018	74.2553568	112.299768	-65.89017	74.53037664	18.46643634	20.01342294
4.72	472	0.068	0.009	0.069	77.5785132	117.0553194	-70.9322004	75.630456	19.4232762	21.02182902
4.73	473	0.032	-0.023	0.16	75.9742308	121.180617	-75.1720896	76.7477241	20.40876396	22.0875309
4.74	474	-0.04	-0.053	0.164	74.771019	130.4052408	-75.5731602	77.91082884	21.39425172	23.27928354
4.75	475	-0.113	-0.102	0.16	75.5158644	139.6871604	-75.343977	79.1541477	22.36828032	24.59708694
4.76	476	-0.169	-0.12	0.172	73.911582	144.3281202	-76.776372	80.42611446	23.33657934	25.98937488
4.77	477	-0.182	-0.04	0.095	71.333271	148.6253052	-80.0422326	81.72099954	24.31633752	27.45614736
4.78	478	-0.105	0.072	-0.011	74.48454	153.6673356	-82.8497268	83.11328748	25.30182528	29.01459312
4.79	479	0.04	0.182	-0.094	81.9902898	156.1883508	-85.2561504	84.6258966	26.2701243	30.63606426
4.8	480	0.12	0.315	-0.06	98.3768886	163.5222132	-89.2095606	86.38487766	27.25561206	32.38358616
4.81	481	0.278	0.491	0.186	111.2684436	184.2632928	-109.7787528	88.43033772	28.38433932	34.40039832
4.82	482	0.902	0.277	0.28	130.8063114	208.0983456	-137.50992	90.87686838	29.71933146	36.76671486
4.83	483	1.812	-0.449	0.386	155.1570264	210.9631356	-141.9789924	93.68436258	30.9970278	39.27054132
4.84	484	2.385	-1.37	0.34	160.714719	196.4672982	-124.7329566	96.55488216	32.01689304	41.68842408
4.85	485	2.918	-2.142	0.363	142.380063	165.6994536	-104.0491728	99.10454526	32.77892718	43.79117994
4.86	486	3.476	-2.667	0.362	114.1905294	130.347945	-99.7519878	101.1901124	33.50085426	45.52724268
4.87	487	3.982	-3.282	0.308	107.0858502	104.564835	-129.6603954	103.13244	34.51498992	47.08568844
4.88	488	3.996	-3.947	0.965	132.353298	107.7733998	-211.135023	105.5732411	36.26251182	49.01082732
4.89	489	3.362	-3.999	1.639	238.9807818	108.7474284	-234.626301	109.3031977	38.14754364	51.20525646
4.9	490	1.158	-3.515	1.566	151.547391	-12.318597	-184.6070676	111.2913619	39.91798386	51.92145396
4.91	491	0.593	-0.188	2.118	35.6379876	-37.815228	-282.9839562	112.2768497	42.67391184	52.86110508
4.92	492	1.921	0.973	2.064	200.4207084	-46.696077	-320.1116346	115.1817467	45.78507378	54.1158831
4.93	493	2.046	-0.246	0.251	89.094969	-142.8957252	-302.521824	116.1729641	49.13687808	54.21901554
4.94	494	1.707	0.056	1.518	164.6108334	-59.301153	-276.9106014	118.7971117	51.85842858	55.43941608
4.95	495	1.067	-0.631	1.706	156.8186046	-44.4615408	-234.7981884	121.4900143	54.10442394	56.82024486
4.96	496	0.602	-0.885	0.525	47.6128098	-37.528749	-222.0785208	123.2489954	56.16707274	58.36723146
4.97	497	0.616	-0.511	0.798	114.4770084	-25.6685184	-217.2656736	126.0163825	58.09221162	60.28664076
4.98	498	0.607	-0.467	0.884	122.326533	-27.788463	-216.9791946	129.133274	59.97151386	62.46961074
4.99	499	0.728	-0.403	0.793	117.9147564	-34.4347758	-225.2297898	132.5481037	61.88519358	65.0020851
5	500	0.815	-0.435	0.798	103.6481022	-39.4195104	-249.1794342	136.5072435	63.91919448	68.2679457
5.01	501	0.898	-0.639	0.639	106.7993712	-53.9153478	-260.5812984	141.0737188	66.02767992	72.11249388
5.02	502	1.051	-0.301	0.759	94.9964364	-53.858052	-269.2329642	146.459524	68.0387625	76.90815234
5.03	503	0.78	-0.242	0.591	88.2928278	-49.0452048	-258.7478328	152.5271492	69.7576365	82.4486562
5.04	504	0.877	-0.163	0.578	77.0055552	-41.4248634	-243.1060794	159.104707	71.10981738	88.59076596
5.05	505	0.988	0.177	0.203	69.7862844	-49.3889796	-233.4230892	166.1234425	72.26719254	95.23707876
5.06	506	0.963	0.259	0.53	85.3134462	-43.7166954	-217.6094484	173.6349219	73.06360416	102.1985185
5.07	507	1.171	0.423	0.333	126.910197	-66.9787902	-203.686569	-178.258693	73.78553124	109.2974681
5.08	508	1.279	0.331	0.369	82.9643184	-50.8786704	-183.919518	-170.8560756	74.10065814	116.1213979
5.09	509	1.504	0.498	0.671	60.3324774	-40.6227222	-158.995845	-164.4675939	74.1407652	122.1202681
5.1	510	1.316	0.262	0.769	-4.0680018	-39.1330314	-141.807105	-159.351079	74.0548215	127.483155
5.11	511	1.291	0.483	0.934	-13.6364004	-23.0902074	-140.5465974	-154.7158487	73.71677628	132.4507009
5.12	512	1.151	0.039	0.786	-11.6310474	-19.7097552	-133.1554392	-150.5561737	73.27559862	136.9140437
5.13	513	1.13	0.124	0.684	-59.3584488	1.3178034	-125.5350978	-147.7028428	72.62815608	140.5294087
5.14	514	1.101	0.264	0.514	-74.3126526	13.5791046	-109.434978	-145.8579181	71.9348769	143.2566887
5.15	515	1.035	0.307	0.434	-85.4853336	18.8503182	-88.522011	-144.8838895	71.28743436	145.2047459
5.16	516	1.029	0.487	0.284	-88.0063488	24.2361234	-65.2599162	-144.6661654	70.7316651	146.3850394
5.17	517	0.987	0.619	0.116	-68.6403684	25.9549974	-40.1643558	-144.8781599	70.3019466	146.9007016
5.18	518	0.925	0.705	0.044	-35.236917	20.912967	-15.756345	-145.2276643	70.05557466	146.9121608
5.19	519	0.774	0.72	0.146	-33.6899304	19.9962342	1.8907614	-145.9381322	69.90660558	146.5282789
5.2	520	0.725	0.656	0.038	-11.8029348	12.891555	19.9962342	-146.4423352	69.89514642	146.0871013
5.21	521	0.714	0.514	0.153	12.8342592	8.7089616	34.663959	-147.2387468	70.0154676	145.1073431
5.22	522	0.705	0.426	0.241	18.048177	5.6149884	44.977203	-148.178398	70.20454374	143.9041313
5.23	523	0.712	0.381	0.256	18.3919518	3.2658606	52.3683612	-149.2842069	70.4451861	142.5347617
5.24	524	0.715	0.376	0.265	23.3193906	3.724227	55.9779966	-150.4587708	70.69155804	141.0336117
5.25	525	0.705	0.362	0.313	24.1788276	3.7815228	56.6655462	-151.6390643	70.90928208	139.5210026
5.26	526	0.663	0.335	0.337	21.1421502	1.145916	56.8374336	-152.8881127	71.1613836	137.974016
5.27	527	0.673	0.312	0.341	20.7983754	-3.2658606	57.3530958	-154.1371612	71.44213302	136.432759
5.28	528	0.693	0.258	0.386	20.1681216	-6.1879464	54.8320806	-155.3231842	71.72861202	134.9659865
5.29	529	0.766	0.251	0.436	13.0634424	-9.0527364	48.70143	-156.4118044	72.00936144	133.6711014
5.3	530	0.812	0.267	0.452	4.9274388	-12.605076	41.252976	-157.3342668	72.2500038	132.6455066
5.31	531	0.884	0.292	0.43	-0.7448454	-14.5531332	33.8618178	-158.136408	72.51356448	131.8089879
5.32	532	0.939	0.275	0.412	-0.286479	-17.475219	27.6165756	-158.7380139	72.77139558	131.1787341
5.33	533	0.99	0.156	0.425	1.0313244	-18.6784308	28.5906042	-159.351079	73.04641542	130.5198324
5.34	534	1.006	0.091	0.419	-3.3231564	-20.912967	33.6326346	-160.1646793	73.35581274	129.7005025
5.35	535	0.977	0.166	0.44	-8.2505952	-27.4446882	36.6120162	-161.069953	73.71677628	128.8410655
5.36	536	0.998	0.205	0.489	-8.6516658	-38.2162986	39.3622146	-161.9924153	74.198061	127.9644397
5.37	537	1.038	0.211	0.41	-13.3499214	-41.1956802	43.544808	-163.1326018	74.71945278	126.9216562
5.38	538	1.08	0.18	0.328	-11.45916	-44.0604702	50.8213746	-164.5535376	75.27522204	125.5637457
5.39	539	1.127	0.11	0.253	1.5469866	-51.1078536	58.441716	-166.1635496	75.90547584	123.8735196
5.4	540	1.079	0.12	0.261	15.3552744	-58.2698286	61.4783934	-167.8193982	76.6044846	121.9999469
5.41	541	1.027	0.111	0.287	25.6112226	-64.0567044	63.02538	-169.5841088	77.33787084	119.9086502
5.42	542	1.101	0.11	0.354	34.7212548	-67.6663398	61.9367598	-171.4061153	78.0941754	117.674114
5.43	543	1.149	0.136	0.406	41.9405256	-69.7862844	59.301153	-173.2796879	78.85047996	115.3192567
5.44	544	1.175	0.124	0.445	44.1750618	-68.75496	57.868758	-175.3537959	79.57813662	112.7352161
5.45	545	1.171	0.124	0.425	45.4928652	-69.5571012	56.9520252	-177.6914645	80.28860454	109.8876148
5.46	546	1.137	0.064	0.445	49.9046418	-67.895523	58.2125328	179.5192006	80.96469498	106.5358105
5.47	547	1.115	-0.034	0.44	47.6128098	-61.9367598	56.6655462	176.3450132	81.55484172	102.8287723
5.48	548	1.035	-0.092	0.367	39.247623	-54.144531	52.8840234	172.9015357	82.03612644	98.94411702
5.49	549	1.029	-0.117	0.285	28.4187168	-49.7900502	46.5814854	169.4064919	82.45438578	95.111028
5.5	550	0.993	-0.237	0.18	18.621135	-45.7220484	42.7426668	165.6135099	82.79816058	91.09459242
5.51	551	0.898	-0.349	0.107	13.5791046	-41.1383844	35.9817624	162.1643027	83.09609874	87.47349786
5.52	552	0.794	-0.335	0.051	10.2559482	-38.2162986	25.78311	159.2708648	83.37111858	84.44827962
5.53	553	0.742	-0.303	0.084	14.9542038	-37.528749	11.5164558	157.385833	83.67478632	82.3913604
5.54	554	0.816	-0.252	0.115	15.6990492	-36.2682414	-2.3491278	156.5493143	84.01856112	81.3886839
5.55	555	0.891	-0.164	0.106	12.032118	-33.9191136	-12.3758928	156.4748298	84.37379508	81.18241902
5.56	556	0.935	-0.103	0.106	11.2299768	-30.2521824	-16.5584862	157.0363286	84.7118403	81.62932626
5.57	557	0.939	-0.057	0.099	4.4117766	-27.8457588	-15.8136408	157.6035571	85.03269678	82.15071804
5.58	558	0.904	-0.008	0.085	-5.9587632	-26.2987722	-12.4904844	157.8155515	85.31917578	82.4200083
5.59	559	0.876	0.006	0.072	-13.0634424	-25.2674478	-7.9068204	157.4717767	85.58846604	82.20801384
5.6	560	0.857	0.016	0.08	-14.9542038	-24.1215318	-5.2712136	156.88163	85.8291084	81.76683618
5.61	561	0.889	-0.032	0.069	-14.5531332	-24.4653066	-4.5263682	156.0164634	86.07548034	81.03917952
5.62	562	0.917	-0.061	0.061	-12.8342592	-26.1841806	-6.2452422	155.202863	86.33904102	80.35162992
5.63	563	0.941	-0.084	0.06	-8.3651868	-26.7571386	-9.2819196	154.7502262	86.61979044	79.9849368
5.64	564	0.963	-0.098	0.069	-5.9014674	-25.5539268	-12.2040054	154.8361699	86.90626944	80.1281763
5.65	565	0.963	-0.088	0.078	-6.302538	-22.91832	-15.0687954	155.558097	87.16983012	80.91312876
5.66	566	0.963	-0.059	0.082	-7.9068204	-19.194093	-17.5325148	157.345726	87.41620206	82.78097184
5.67	567	0.952	-0.033	0.083	-10.5424272	-14.8396122	-18.5638392	160.0443581	87.62246694	85.58846604
5.68	568	0.942	-0.012	0.074	-14.1520626	-11.2872726	-17.9335854	163.29303	87.78862476	88.9803774
5.69	569	0.944	0.009	0.062	-17.0168526	-8.7089616	-16.5584862	166.7880738	87.91467552	92.6473086
5.7	570	0.948	0.025	0.063	-18.4492476	-7.3911582	-14.5531332	170.4607346	88.01207838	96.50904552
5.71	571	0.956	0.031	0.07	-19.194093	-7.1046792	-12.7196676	173.6807585	88.10375166	99.9238752
5.72	572	0.961	0.038	0.078	-19.8816426	-6.5317212	-10.7716104	176.6085739	88.1782362	103.0579555
5.73	573	0.964	0.03	0.082	-20.9702628	-5.2139178	-8.9381448	179.1639666	88.235532	105.8253426
5.74	574	0.965	0.018	0.081	-21.9442914	-3.9534102	-7.161975	-178.7227889	88.27563906	108.1572817
5.75	575	0.974	0.001	0.09	-22.2307704	-3.437748	-6.016059	-176.8721346	88.29855738	110.2313896
5.76	576	0.979	-0.005	0.092	-22.2307704	-3.4950438	-5.5576926	-175.1647198	88.33293486	112.1679877
5.77	577	0.976	0.002	0.091	-20.9702628	-2.4064236	-6.0733548	-173.2338513	88.3501236	114.3108506
5.78	578	0.973	0.008	0.093	-17.4179232	-0.4583664	-7.2765666	-170.9248306	88.3501236	116.8032179
5.79	579	0.98	0.028	0.111	-14.2093584	1.2032118	-8.2505952	-168.3923562	88.3214757	119.4789317
5.8	580	0.989	0.044	0.125	-9.740286	3.0939732	-9.3392154	-165.3098422	88.235532	122.6588486
5.81	581	1.006	0.063	0.141	-6.1306506	5.5003968	-9.6256944	-162.9779031	88.16104746	125.0538131
5.82	582	1.026	0.08	0.148	-4.9274388	8.021412	-8.5370742	-161.3793503	88.05791502	126.7039321
5.83	583	1.046	0.082	0.147	-3.8388186	10.1413566	-6.7036086	-160.6230457	87.94332342	127.5060733
5.84	584	1.052	0.075	0.144	-2.6356068	11.5164558	-4.8128472	-160.5428316	87.82300224	127.6149353
5.85	585	1.055	0.061	0.14	-1.7761698	12.318597	-2.578311	-160.783474	87.65684442	127.3857521
5.86	586	1.053	0.049	0.137	-1.145916	11.8029348	0	-161.7689617	87.5479824	126.4117235
5.87	587	1.038	0.04	0.13	-0.859437	11.2872726	1.2032118	-162.8919594	87.44484996	125.3059146
5.88	588	1.028	0.032	0.117	-0.3437748	10.6570188	1.8334656	-164.0092275	87.3474471	124.1943761
5.89	589	1.02	0.029	0.109	0.5156622	9.5111028	2.0626488	-165.0176336	87.26723298	123.1745108
5.9	590	1.011	0.03	0.104	1.8334656	7.734933	2.291832	-165.6306986	87.16410054	122.5385275
5.91	591	0.999	0.036	0.11	2.6929026	6.4171296	2.9220858	-166.5187835	87.11253432	121.6275242
5.92	592	0.998	0.037	0.119	2.7501984	5.7868758	3.9534102	-167.5329192	87.0609681	120.5847407
5.93	593	1.001	0.033	0.13	2.291832	5.0420304	5.3285094	-168.736131	87.02659062	119.352881
5.94	594	0.997	0.022	0.142	0.4010706	3.724227	7.1046792	-170.2200922	87.0036723	117.8631902
5.95	595	0.99	0.012	0.145	-1.6042824	2.7501984	8.0787078	-171.8415634	86.94064692	116.2531782
5.96	596	0.983	0.007	0.143	-2.9793816	2.6929026	8.5370742	-173.5260599	86.92345818	114.5973296
5.97	597	0.98	0.004	0.142	-3.8961144	2.9220858	8.5370742	-175.2105564	86.90626944	112.9529401
5.98	598	0.979	0.001	0.136	-4.583664	2.6929026	8.4224826	-176.8549459	86.88335112	111.3486577
5.99	599	0.98	-0.002	0.132	-4.0680018	2.3491278	7.8495246	-178.367555	86.86616238	109.8761557
6	600	0.982	-0.009	0.134	-2.8074942	1.718874	7.0473834	-179.6968175	86.79740742	108.5698114
6.01	601	0.981	-0.013	0.137	-1.9480572	1.0313244	5.9014674	179.2212624	86.78594826	107.5155687
6.02	602	0.985	-0.013	0.135	-1.432395	1.3178034	4.010706	178.4821466	86.7744891	106.787912
6.03	603	0.991	-0.013	0.134	-0.9740286	1.718874	2.5210152	178.0237802	86.75730036	106.3410048
6.04	604	0.996	-0.011	0.136	-0.7448454	2.0626488	1.3178034	177.7831378	86.73438204	106.106092
6.05	605	1.002	-0.008	0.139	-0.572958	2.5210152	0.4583664	178.0008619	86.56822422	106.3238161
6.06	606	1.007	-0.004	0.14	-0.6302538	2.9220858	0	177.9951323	86.53957632	106.3238161
6.07	607	1.011	0	0.143	-0.9740286	3.3804522	-0.2291832	178.0352393	86.50519884	106.3696527
6.08	608	1.014	0.002	0.143	-1.2032118	3.724227	-0.3437748	178.081076	86.47082136	106.4326781
6.09	609	1.017	0.004	0.144	-1.0313244	3.9534102	-0.286479	178.1269126	86.4307143	106.4842443
6.1	610	1.017	0.003	0.147	-1.2605076	4.2398892	-0.3437748	178.5337128	86.29893396	106.9025036
6.11	611	1.016	0	0.149	-1.718874	4.1825934	-0.2291832	178.5509015	86.2588269	106.9368811
6.12	612	1.014	0.001	0.149	-2.2345362	4.3544808	-0.4583664	178.5967382	86.21299026	107.0056361
6.13	613	1.01	0.002	0.149	-2.4637194	4.5263682	-0.5156622	178.6425748	86.16715362	107.0801206
6.14	614	1.004	0.002	0.149	-2.8074942	4.1825934	-0.6302538	178.7056002	86.12704656	107.1717939
6.15	615	1.003	0.003	0.15	-2.9793816	3.4950438	-0.572958	179.0379158	86.01818454	107.5270279
6.16	616	1.001	0.004	0.15	-3.0939732	2.8074942	-0.5156622	179.0722933	85.98953664	107.5900532
6.17	617	0.999	0.005	0.147	-2.9793816	2.1199446	-0.3437748	179.0894821	85.9723479	107.6416195
6.18	618	0.995	0.007	0.144	-2.3491278	1.2605076	-0.1145916	179.0780229	85.95515916	107.6588082
6.19	619	0.995	0.007	0.148	-1.8907614	0.9740286	0.0572958	179.0379158	85.94942958	107.6358899
6.2	620	0.993	0.004	0.157	-1.7761698	0.3437748	0.2291832	179.5764964	85.73743512	108.1744704
6.21	621	0.989	0.001	0.162	-2.1199446	-0.1718874	0.2291832	179.5192006	85.73743512	108.1400929
6.22	622	0.992	0	0.16	-2.6929026	-0.4583664	0.0572958	179.4790935	85.7431647	108.1286338
6.23	623	0.995	0	0.157	-2.9220858	-0.9167328	-0.1718874	179.4733639	85.74889428	108.1515521
6.24	624	0.997	0.003	0.156	-2.8074942	-1.3750992	-0.572958	179.5249301	85.76608302	108.2317662
6.25	625	1.001	0.004	0.155	-2.4064236	-1.6042824	-0.859437	179.9489191	85.68013932	108.6729439
6.26	626	1.005	0.004	0.154	-2.0626488	-1.8907614	-1.145916	-179.9030824	85.70305764	108.8333721
6.27	627	1.006	0.006	0.153	-2.1199446	-2.005353	-1.2605076	-179.7541133	85.72024638	109.0109891
6.28	628	1.007	0.008	0.15	-2.0626488	-2.0626488	-1.2032118	-179.5994147	85.7431647	109.1828765
6.29	629	1.008	0.009	0.147	-1.9480572	-2.1772404	-1.2032118	-179.4504456	85.76608302	109.3547639
6.3	630	1.01	0.011	0.145	-1.432395	-2.4064236	-1.0313244	-178.8889468	85.70305764	109.9219923
6.31	631	1.009	0.011	0.144	-1.0313244	-2.578311	-0.8021412	-178.7800847	85.73170554	110.0423135
6.32	632	1.007	0.012	0.146	-0.9167328	-2.5210152	-0.572958	-178.694141	85.75462386	110.1397163
6.33	633	1.009	0.011	0.145	-0.6875496	-2.2345362	-0.286479	-178.6483044	85.77754218	110.1912826
6.34	634	1.011	0.011	0.142	-0.572958	-2.3491278	0	-178.6425748	85.8004605	110.2027417
6.35	635	1.005	0.013	0.141	-0.5156622	-2.4637194	0.4010706	-178.0696168	85.69732806	110.7699701
6.36	636	1.002	0.012	0.143	-0.572958	-2.2345362	0.8021412	-178.1670197	85.72024638	110.6782969
6.37	637	1.001	0.009	0.139	-0.8021412	-2.2345362	1.145916	-178.3159888	85.7431647	110.5350574
6.38	638	0.998	0.007	0.138	-0.9167328	-2.4064236	1.3750992	-178.4936057	85.7718126	110.36317
6.39	639	0.995	0.005	0.137	-0.6875496	-2.578311	1.3750992	-178.6769523	85.79473092	110.1912826
6.4	640	0.995	0.003	0.138	-0.5156622	-2.8074942	1.432395	-178.6081973	85.7431647	110.2543079
6.41	641	0.995	0.003	0.139	-0.572958	-2.86479	1.3750992	-178.7858143	85.7718126	110.0881501
6.42	642	0.994	0.001	0.139	-0.7448454	-2.8074942	1.2605076	-178.9462426	85.8004605	109.9334515
6.43	643	0.992	0.001	0.14	-1.2032118	-2.578311	1.2032118	-179.1066708	85.8291084	109.7844824
6.44	644	0.992	0	0.136	-1.6042824	-2.4064236	1.0313244	-179.2556399	85.85202672	109.6469725
6.45	645	0.99	-0.001	0.134	-1.5469866	-2.4064236	0.859437	-179.2212624	85.8004605	109.6985387
6.46	646	0.991	0	0.135	-1.432395	-2.4637194	0.4583664	-179.2900174	85.82337882	109.6412429
6.47	647	0.992	-0.001	0.135	-1.2032118	-2.3491278	0.0572958	-179.3014765	85.84629714	109.6412429
6.48	648	0.993	-0.001	0.134	-1.2605076	-2.1199446	-0.1145916	-179.2842878	85.86921546	109.6698908
6.49	649	0.995	0	0.131	-1.432395	-1.9480572	-0.286479	-179.2441807	85.8864042	109.721457
6.5	650	0.997	0.002	0.13	-1.4896908	-1.4896908	-0.4583664	-178.7800847	85.81191966	110.1970121
6.51	651	0.999	0.004	0.127	-1.2032118	-1.3178034	-0.5156622	-178.7113298	85.8291084	110.2829558
6.52	652	0.998	0.006	0.127	-0.8021412	-1.2605076	-0.4583664	-178.6425748	85.84056756	110.3574404
6.53	653	0.999	0.006	0.129	-0.572958	-1.0886202	-0.4010706	-178.5795494	85.85202672	110.4261953
6.54	654	1.002	0.004	0.131	-0.6302538	-0.9740286	-0.3437748	-178.5337128	85.8577563	110.4777616
6.55	655	1.005	0.003	0.135	-1.0313244	-0.7448454	-0.286479	-178.0466985	85.7145168	110.9647759
6.56	656	1.006	0.002	0.141	-1.6042824	-0.572958	-0.1718874	-178.0295098	85.72024638	110.9934238
6.57	657	1.004	0.002	0.141	-2.1772404	-0.3437748	-0.0572958	-178.0409689	85.72597596	111.0106125
6.58	658	1.001	0.001	0.141	-2.86479	0	-0.0572958	-178.0581577	85.72597596	111.0163421
6.59	659	0.996	0	0.142	-3.6096354	0.1145916	-0.1718874	-178.0753464	85.72597596	111.0392604
6.6	660	0.993	0.002	0.137	-3.8388186	0.1718874	-0.286479	-177.8404336	85.64576184	111.3085507
6.61	661	0.992	0.007	0.128	-3.2085648	0.1145916	-0.4010706	-177.8232449	85.64003226	111.3601169
6.62	662	0.993	0.009	0.125	-2.005353	0.1718874	-0.4010706	-177.7888674	85.64003226	111.4116831
6.63	663	0.994	0.008	0.126	-0.9740286	0.1145916	-0.4010706	-177.7487603	85.64003226	111.4689789
6.64	664	0.995	0.005	0.131	-0.286479	0.2291832	-0.3437748	-177.7029237	85.63430268	111.5148155
6.65	665	0.997	0.005	0.135	-0.286479	0.1718874	-0.3437748	-176.6658697	85.30198704	112.5289512
6.66	666	1	0.006	0.136	-0.5156622	0.1145916	-0.4010706	-176.6200331	85.29625746	112.5805174
6.67	667	1.003	0.008	0.136	-0.572958	0.1718874	-0.3437748	-176.5913852	85.29625746	112.6148949
6.68	668	1.003	0.009	0.136	-0.6302538	0.1145916	-0.1718874	-176.5741964	85.29625746	112.6378132
6.69	669	1.003	0.01	0.139	-0.6875496	0.2291832	0	-176.5856556	85.29052788	112.6378132
6.7	670	1.006	0.007	0.138	-0.5156622	0.3437748	0.1718874	-175.829351	85.03842636	113.376929
6.71	671	1.007	0.008	0.139	-0.572958	0.286479	0.2291832	-175.8694581	85.03842636	113.3425516
6.72	672	1.004	0.008	0.139	-0.6302538	0.2291832	0.4583664	-175.9382131	85.03269678	113.2795262
6.73	673	1.003	0.007	0.136	-0.6875496	0.4010706	0.572958	-176.0184272	85.03269678	113.2050416
6.74	674	1.004	0.007	0.136	-0.286479	0.4583664	0.7448454	-176.11583	85.0269672	113.1133684
6.75	675	1.002	0.006	0.137	-0.1145916	0.286479	0.9167328	-175.7777848	84.86653896	113.4399544
6.76	676	1	0.006	0.136	-0.1145916	0.2291832	1.0313244	-175.898106	84.86653896	113.3196332
6.77	677	0.999	0.004	0.138	-0.0572958	0.286479	1.0886202	-176.0241568	84.86653896	113.1935825
6.78	678	0.997	0.004	0.136	-0.1145916	0.4010706	1.0886202	-176.1559371	84.86080938	113.0618021
6.79	679	0.998	0.004	0.136	-0.2291832	0.4010706	1.2032118	-176.2991766	84.8550798	112.9242922
6.8	680	0.996	0.002	0.138	-0.1718874	0.286479	1.2032118	-176.1903146	84.7118403	113.0216951
6.81	681	0.999	0.002	0.137	0	0.0572958	1.0886202	-176.3163653	84.7118403	112.9013739
6.82	682	0.999	0.003	0.14	0.1718874	-0.286479	1.0313244	-176.4194978	84.71756988	112.7925119
6.83	683	0.998	0	0.145	0.0572958	-0.286479	0.9740286	-176.5226302	84.71756988	112.6836499
6.84	684	0.996	-0.001	0.146	-0.6875496	-0.0572958	1.0313244	-176.6429514	84.71756988	112.5747878
6.85	685	0.995	-0.001	0.144	-1.2032118	0.1145916	0.859437	-176.6601401	84.61443744	112.5633287
6.86	686	0.996	-0.001	0.139	-1.3750992	0.1145916	0.6302538	-176.7460838	84.61443744	112.4888441
6.87	687	0.998	0	0.139	-1.145916	-0.1718874	0.3437748	-176.7919205	84.61443744	112.4544667
6.88	688	1	0	0.138	-0.9167328	-0.2291832	0.1145916	-176.8205684	84.62016702	112.4372779
6.89	689	0.999	-0.001	0.139	-0.8021412	-0.2291832	0	-176.8205684	84.62016702	112.4487371
6.9	690	1.002	0	0.14	-0.859437	-0.1718874	-0.2291832	-176.6143035	84.49984584	112.655002
6.91	691	1.002	0.001	0.139	-1.0313244	-0.4010706	-0.286479	-176.5913852	84.50557542	112.6893794
6.92	692	1.003	0.001	0.142	-1.2605076	-0.572958	-0.3437748	-176.5627373	84.511305	112.7294865
6.93	693	1.005	0.002	0.142	-1.4896908	-0.8021412	-0.4010706	-176.5283598	84.51703458	112.7753231
6.94	694	1.004	0.003	0.139	-1.432395	-0.7448454	-0.4010706	-176.4939823	84.52276416	112.8268894
6.95	695	1.005	0.003	0.14	-1.3750992	-0.8021412	-0.286479	-176.3049062	84.4540092	113.0216951
6.96	696	1.003	0.005	0.141	-1.3178034	-0.7448454	-0.2291832	-176.2877174	84.46546836	113.0560726
6.97	697	1.002	0.003	0.141	-1.3750992	-0.6302538	-0.1145916	-176.2819879	84.47119794	113.0732613
6.98	698	0.999	0.004	0.138	-1.432395	-0.6302538	0	-176.2877174	84.47692752	113.0847205
6.99	699	1	0.003	0.137	-1.2032118	-0.572958	-0.0572958	-176.2877174	84.4826571	113.0961796
7	700	1.001	0.002	0.138	-0.9740286	-0.6875496	0	-176.0986413	84.39098382	113.2852558
7.01	701	1.001	0.002	0.139	-0.859437	-0.9740286	-0.0572958	-176.0929117	84.40244298	113.3081741
7.02	702	0.999	0.004	0.137	-0.8021412	-1.0886202	-0.1145916	-176.075723	84.41390214	113.3310924
7.03	703	0.999	0.006	0.137	-0.6302538	-1.145916	-0.0572958	-176.0642638	84.4253613	113.3482811
7.04	704	0.998	0.005	0.137	-0.4583664	-1.2032118	0	-176.0528047	84.43682046	113.3597403
7.05	705	0.996	0.004	0.138	-0.572958	-1.0886202	0	-175.829351	84.35660634	113.5889235
7.06	706	0.995	0.005	0.135	-0.7448454	-1.0313244	0	-175.829351	84.3680655	113.5946531
7.07	707	0.996	0.005	0.135	-0.5156622	-0.9740286	0.1145916	-175.8350806	84.37952466	113.5946531
7.08	708	0.999	0.004	0.135	-0.4010706	-1.0313244	0.2291832	-175.8579989	84.38525424	113.5774643
7.09	709	0.998	0.002	0.135	-0.4010706	-1.0886202	0.1718874	-175.8694581	84.3967134	113.5660052
7.1	710	1	0.002	0.134	-0.3437748	-1.0313244	0.1718874	-175.6402749	84.32222886	113.7951884
7.11	711	1.001	0.003	0.136	-0.286479	-1.0886202	0.1145916	-175.6460045	84.33368802	113.7894588
7.12	712	1	0.006	0.134	-0.4583664	-1.145916	0.2291832	-175.6631932	84.34514718	113.7779996
7.13	713	0.998	0.006	0.132	-0.6302538	-0.859437	0.3437748	-175.6975707	84.35660634	113.7493517
7.14	714	0.999	0.007	0.132	-0.5156622	-0.572958	0.5156622	-175.7548665	84.36233592	113.7035151
7.15	715	1.001	0.005	0.133	-0.3437748	-0.6875496	0.6302538	-175.542872	84.29931054	113.90978
7.16	716	1.006	0.004	0.135	-0.4583664	-0.5156622	0.6875496	-175.611627	84.30504012	113.841025
7.17	717	1.008	0.001	0.142	-0.5156622	-0.4583664	0.8021412	-175.6975707	84.3107697	113.7665405
7.18	718	1.006	-0.001	0.145	-0.9740286	-0.859437	0.859437	-175.7835144	84.31649928	113.6863264
7.19	719	1.001	-0.003	0.143	-1.6615782	-0.7448454	0.6875496	-175.8694581	84.32795844	113.623301
7.2	720	0.999	-0.003	0.141	-2.578311	-0.2291832	0.4583664	-175.9439426	84.2821218	113.5660052
7.21	721	0.994	-0.002	0.136	-3.0366774	0	0.2291832	-176.006968	84.2821218	113.5373573
7.22	722	0.99	0.003	0.128	-2.6356068	-0.3437748	0	-176.0356159	84.28785138	113.5316277
7.23	723	0.992	0.005	0.126	-1.6615782	-0.572958	-0.0572958	-176.0413455	84.29358096	113.5488164
7.24	724	0.995	0.005	0.127	-0.859437	-0.4583664	-0.0572958	-176.0356159	84.29931054	113.5602756
7.25	725	0.995	0.003	0.13	-0.2291832	-0.286479	0	-175.5314129	84.11596398	114.0530195
7.26	726	0.997	0.001	0.135	-0.2291832	-0.1145916	-0.0572958	-175.5314129	84.11596398	114.0587491
7.27	727	1	0	0.138	-0.6302538	-0.2291832	-0.1145916	-175.5199537	84.11596398	114.0759378
7.28	728	1.002	0.001	0.138	-0.9167328	-0.4010706	-0.1718874	-175.5084946	84.12169356	114.0988561
7.29	729	1.002	0.003	0.136	-1.0313244	-0.4010706	-0.1718874	-175.4970354	84.12742314	114.1217744
7.3	730	1.003	0.006	0.135	-1.2032118	-0.1145916	0	-175.1761789	84.05866818	114.4426309
7.31	731	1.004	0.005	0.135	-1.0313244	0	0.1718874	-175.2048268	84.05866818	114.4254422
7.32	732	1.002	0.004	0.133	-0.9740286	0	0.2291832	-175.2449339	84.05866818	114.3967943
7.33	733	1.004	0.003	0.135	-0.9740286	-0.1145916	0.4010706	-175.2907705	84.05866818	114.3566872
7.34	734	1.001	0.002	0.136	-1.0313244	-0.286479	0.4583664	-175.3423367	84.06439776	114.3165802
7.35	735	1.001	0.002	0.136	-1.0313244	-0.2291832	0.4010706	-175.2449339	84.00710196	114.4254422
7.36	736	1.002	0.003	0.134	-0.9167328	-0.1145916	0.3437748	-175.2850409	84.00710196	114.3910647
7.37	737	0.999	0.003	0.134	-0.7448454	-0.0572958	0.4010706	-175.3366072	84.00710196	114.3509576
7.38	738	0.997	0.003	0.135	-0.6302538	-0.0572958	0.4583664	-175.3881734	84.00710196	114.305121
7.39	739	0.998	0.003	0.135	-0.572958	-0.0572958	0.4010706	-175.43401	84.01283154	114.2592844
7.4	740	0.999	0.001	0.136	-0.6302538	-0.1718874	0.4583664	-175.3595255	83.94407658	114.3394985
7.41	741	0.999	0.002	0.136	-0.8021412	-0.286479	0.4583664	-175.4110917	83.94980616	114.2936618
7.42	742	1	0.002	0.137	-0.859437	-0.572958	0.4583664	-175.4626579	83.95553574	114.2535548
7.43	743	1	0.002	0.135	-0.6302538	-0.859437	0.4583664	-175.502765	83.9669949	114.2191773
7.44	744	0.998	0.003	0.138	-0.4583664	-0.8021412	0.4583664	-175.5486016	83.97272448	114.1790702
7.45	745	0.997	0	0.14	-0.7448454	-0.572958	0.4010706	-175.5371425	83.92115826	114.196259
7.46	746	0.997	-0.001	0.141	-1.145916	-0.572958	0.3437748	-175.5715199	83.92688784	114.1676111
7.47	747	0.996	0	0.14	-1.3750992	-0.572958	0.1145916	-175.5944383	83.93261742	114.1618815
7.48	748	0.997	0	0.139	-1.432395	-0.572958	-0.0572958	-175.6001678	83.938347	114.1733407
7.49	749	0.999	0	0.135	-1.5469866	-0.572958	-0.2291832	-175.5887087	83.94407658	114.2019886
7.5	750	1.002	0.001	0.135	-1.3750992	-0.572958	-0.2291832	-175.502765	83.91542868	114.2936618
7.51	751	1.001	0.001	0.132	-1.3750992	-0.6302538	-0.1718874	-175.4913058	83.92115826	114.3223097
7.52	752	0.999	0.003	0.131	-1.3178034	-0.4010706	-0.1145916	-175.4913058	83.92688784	114.3337689
7.53	753	1	0	0.134	-1.0886202	-0.3437748	-0.1145916	-175.4855762	83.92688784	114.3509576
7.54	754	1.001	0	0.137	-1.145916	-0.4583664	-0.1145916	-175.4798467	83.93261742	114.3681464
7.55	755	1.001	-0.001	0.137	-1.5469866	-0.4583664	-0.286479	-175.4454692	83.89823994	114.4197126
7.56	756	1.001	0	0.135	-1.718874	-0.4583664	-0.3437748	-175.4225509	83.90396952	114.4598197
7.57	757	1.003	0	0.134	-1.6615782	-0.572958	-0.4010706	-175.3996325	83.9096991	114.4999267
7.58	758	1.003	0.001	0.133	-1.5469866	-0.8021412	-0.4010706	-175.3652551	83.92115826	114.5514929
7.59	759	1.002	0.003	0.133	-1.3750992	-0.8021412	-0.4010706	-175.3308776	83.92688784	114.5973296
7.6	760	1.001	0.005	0.134	-1.3750992	-0.6302538	-0.286479	-175.1876381	83.89823994	114.7577578
7.61	761	0.998	0.003	0.136	-1.3750992	-0.5156622	-0.286479	-175.1704493	83.90396952	114.7864057
7.62	762	0.999	0.002	0.135	-1.5469866	-0.4010706	-0.2291832	-175.1532606	83.90396952	114.8150536
7.63	763	1.001	0.002	0.135	-1.4896908	-0.4010706	-0.3437748	-175.1303423	83.9096991	114.8551607
7.64	764	1.001	0.003	0.134	-0.2291832	-0.1718874	-0.5156622	-175.0845056	83.9096991	114.9067269
7.65	765	1.001	0.004	0.134	-0.1718874	-0.286479	-0.4583664	-174.7865675	83.83521456	115.1989355
7.66	766	1.001	0.006	0.133	0	-0.2291832	-0.3437748	-174.75219	83.84094414	115.233313
7.67	767	1.001	0.005	0.133	0.2291832	-0.2291832	-0.2291832	-174.7178125	83.84094414	115.2619609
7.68	768	1	0.004	0.134	0.2291832	-0.4583664	-0.0572958	-174.7063534	83.84667372	115.27342
7.69	769	0.999	0.002	0.135	0.1145916	-0.5156622	0	-174.6948942	83.8524033	115.2848792
7.7	770	1	0.002	0.136	0.0572958	-0.3437748	-0.0572958	-174.5803026	83.72062296	115.3880116
7.71	771	1	0.003	0.134	0.0572958	-0.286479	-0.0572958	-174.574573	83.72635254	115.3994708
7.72	772	0.998	0.003	0.131	0	-0.2291832	-0.1145916	-174.5573843	83.72635254	115.4109299
7.73	773	0.997	0.002	0.13	0.1145916	-0.1718874	0	-174.5516547	83.73208212	115.4166595
7.74	774	0.999	0.003	0.129	0.4010706	-0.1145916	0.1145916	-174.5573843	83.73208212	115.4052004
7.75	775	0.997	0.004	0.128	0.4583664	-0.0572958	0.2291832	-174.3052828	83.69197506	115.6515723
7.76	776	0.998	0.005	0.128	0.572958	-0.1718874	0.3437748	-174.3224715	83.69770464	115.6229244
7.77	777	1.001	0.004	0.132	0.9167328	-0.1718874	0.4583664	-174.356849	83.69770464	115.5828173
7.78	778	1.004	0.001	0.136	0.572958	-0.0572958	0.4583664	-174.3912265	83.69770464	115.5369807
7.79	779	1.006	0.001	0.137	0	0.286479	0.5156622	-174.4427927	83.69770464	115.4854145
7.8	780	1.005	0.002	0.141	-0.4010706	0.4010706	0.5156622	-174.4886293	83.64040884	115.4453074
7.81	781	1.003	-0.006	0.139	-0.4010706	0.0572958	0.7448454	-174.5631139	83.64040884	115.3765525
7.82	782	1	0.002	0.141	-0.9167328	0.1145916	0.4583664	-174.6146801	83.64040884	115.3307158
7.83	783	0.998	-0.002	0.138	-1.145916	0.7448454	0.286479	-174.6662463	83.63467926	115.2906088
7.84	784	0.995	0	0.134	-1.8907614	0.6875496	0	-174.6948942	83.62894968	115.2791496
7.85	785	0.991	0.002	0.127	-1.2605076	0.5156622	-0.2291832	-174.643328	83.61176094	115.3479046
7.86	786	0.997	0.001	0.127	-0.1145916	0	-0.4583664	-174.6032209	83.61176094	115.3880116
7.87	787	1.001	0.003	0.13	0.4010706	0.0572958	-0.4583664	-174.5573843	83.61176094	115.4338483
7.88	788	1.001	0.002	0.134	0.4583664	0.1718874	-0.4010706	-174.5115476	83.60603136	115.4682257
7.89	789	1.001	0.003	0.131	0.3437748	0.1145916	-0.4010706	-174.4714406	83.60603136	115.5026032
7.9	790	0.999	0.004	0.131	0.2291832	-0.2291832	-0.3437748	-174.288094	83.5659243	115.6859498
7.91	791	1.001	0.004	0.134	0.1718874	-0.1718874	-0.3437748	-174.247987	83.5659243	115.7203273
7.92	792	1.002	0.004	0.134	0.0572958	0	-0.286479	-174.2250686	83.5659243	115.7489752
7.93	793	1.003	0.004	0.134	-0.1145916	0.1718874	0	-174.2250686	83.5659243	115.7432456
7.94	794	1.002	0.004	0.133	-0.3437748	0.4583664	0.1718874	-174.2537165	83.56019472	115.7203273
7.95	795	1.003	0.004	0.133	-0.2291832	0.4010706	0.1718874	-174.0818291	83.5086285	115.8922147
7.96	796	1.003	0.003	0.131	-0.2291832	0.286479	0.1718874	-174.1047475	83.5086285	115.8692963
7.97	797	1.001	0.002	0.132	-0.2291832	0	0.1145916	-174.1276658	83.5086285	115.8521076
7.98	798	1	0.003	0.132	0	0	0.1145916	-174.1333954	83.5086285	115.8406484
7.99	799	1.001	0.004	0.132	0.1718874	0.2291832	0.1145916	-174.1505841	83.50289892	115.8291893
8	800	1.002	0.004	0.133	0.1718874	0.5156622	0.2291832	-174.0417221	83.46279186	115.9323217
8.01	801	1.001	0.002	0.134	-0.0572958	0.6875496	0.286479	-174.0760996	83.45706228	115.8922147
8.02	802	0.999	0.002	0.134	-0.286479	0.572958	0.3437748	-174.1219362	83.4513327	115.8521076
8.03	803	0.999	0.002	0.133	-0.4010706	0.3437748	0.4010706	-174.1677728	83.44560312	115.8120005
8.04	804	1	0.002	0.131	-0.286479	0.1145916	0.4010706	-174.2078799	83.44560312	115.7776231
8.05	805	0.999	0.002	0.13	-0.1145916	0	0.3437748	-174.0130742	83.41695522	115.9666992
8.06	806	0.998	0.004	0.128	0.1718874	-0.1145916	0.3437748	-174.0417221	83.41695522	115.9380513
8.07	807	1	0.003	0.131	0.4010706	-0.1145916	0.3437748	-174.07037	83.41695522	115.9036738
8.08	808	1	0.001	0.136	0.286479	-0.1145916	0.4010706	-174.0990179	83.41695522	115.8692963
8.09	809	0.998	-0.001	0.136	-0.286479	-0.1145916	0.286479	-174.1276658	83.4226848	115.8406484
8.1	810	0.999	0	0.131	-0.7448454	-0.1145916	0.1718874	-174.0875587	83.41122564	115.8922147
8.11	811	0.999	0.003	0.13	-0.5156622	0	0.0572958	-174.0990179	83.41122564	115.8807555
8.12	812	1.001	0.004	0.131	-0.1718874	-0.0572958	0	-174.1047475	83.41122564	115.8807555
8.13	813	1.005	0.001	0.13	0.1145916	-0.1718874	0.0572958	-174.110477	83.41122564	115.8750259
8.14	814	1.005	0	0.134	0	-0.3437748	0	-174.1047475	83.41695522	115.8750259
8.15	815	1.006	-0.001	0.132	-0.6302538	-0.3437748	-0.1145916	-174.1563137	83.41695522	115.8349189
8.16	816	1.008	-0.001	0.127	-0.572958	-0.4010706	-0.3437748	-174.1276658	83.41695522	115.8692963
