TimeStamp(s)	FrameCounter	AccX	AccY	AccZ	GyrX	GyrY	GyrZ	EulerX	EulerY	EulerZ
0.01	1	0.047	-0.995	0.139	1.145916	-2.1199446	0.3437748	95.00216598	2.15432208	-29.15210304
0.02	2	0.056	-0.994	0.15	-0.1718874	0	0.4010706	95.00216598	2.1485925	-29.15210304
0.03	3	0.056	-0.996	0.148	-0.0572958	0.1718874	0.4010706	95.00216598	2.1485925	-29.14637346
0.04	4	0.056	-0.997	0.148	0.1145916	0.2291832	0.4583664	95.00216598	2.14286292	-29.14637346
0.05	5	0.055	-0.997	0.149	0.286479	0.1145916	0.4583664	95.3115633	2.32620948	-29.0203227
0.06	6	0.055	-0.998	0.15	0.4583664	0.0572958	0.5156622	95.31729288	2.3204799	-29.01459312
0.07	7	0.056	-0.998	0.15	0.4583664	0.0572958	0.4583664	95.32302246	2.31475032	-29.01459312
0.08	8	0.055	-0.999	0.15	0.3437748	0.0572958	0.4010706	95.32875204	2.30902074	-29.01459312
0.09	9	0.055	-1.001	0.152	0	0.0572958	0.4010706	95.32875204	2.30329116	-29.01459312
0.1	10	0.054	-1.001	0.152	-0.5156622	0.2291832	0.3437748	95.5120986	2.4064236	-28.934379
0.11	11	0.053	-0.999	0.152	-0.6302538	0.4583664	0.3437748	95.50636902	2.4064236	-28.934379
0.12	12	0.052	-0.998	0.155	-0.1718874	0.6875496	0.286479	95.50063944	2.40069402	-28.92864942
0.13	13	0.05	-1	0.154	0.1145916	0.8021412	0.2291832	95.50636902	2.39496444	-28.91719026
0.14	14	0.05	-0.999	0.152	0.0572958	1.0313244	0.1718874	95.50636902	2.39496444	-28.9057311
0.15	15	0.049	-0.997	0.149	0.1145916	1.145916	0.2291832	95.6553381	2.4637194	-28.83697614
0.16	16	0.049	-0.998	0.147	0	1.0313244	0.0572958	95.6553381	2.4637194	-28.82551698
0.17	17	0.048	-0.998	0.146	0	0.859437	0	95.6553381	2.45798982	-28.8197874
0.18	18	0.049	-1.001	0.142	0	0.572958	0	95.6553381	2.45798982	-28.81405782
0.19	19	0.049	-1.004	0.145	-0.2291832	0.7448454	-0.1145916	95.6553381	2.45798982	-28.80259866
0.2	20	0.05	-1.006	0.149	-0.9740286	1.0886202	-0.1145916	95.72409306	2.49809688	-28.7624916
0.21	21	0.05	-1.003	0.149	-1.4896908	1.0886202	0	95.70690432	2.49809688	-28.75103244
0.22	22	0.047	-1.002	0.149	-1.5469866	1.0313244	0.1145916	95.69544516	2.49809688	-28.74530286
0.23	23	0.046	-1.004	0.152	-1.5469866	1.145916	0.2291832	95.67825642	2.4923673	-28.7338437
0.24	24	0.046	-1.005	0.148	-1.8334656	1.145916	0.286479	95.66106768	2.48663772	-28.72238454
0.25	25	0.048	-1.007	0.146	-2.4637194	0.6875496	0.2291832	95.683986	2.50382646	-28.69373664
0.26	26	0.048	-1.014	0.149	-3.8388186	0.0572958	0.2291832	95.64387894	2.50382646	-28.69373664
0.27	27	0.051	-1.017	0.151	-5.9014674	-0.859437	0.2291832	95.58085356	2.49809688	-28.7051958
0.28	28	0.055	-1.021	0.157	-7.6776372	-1.6042824	0.572958	95.50636902	2.49809688	-28.72238454
0.29	29	0.061	-1.02	0.166	-7.9068204	-1.718874	1.145916	95.4261549	2.48663772	-28.73957328
0.3	30	0.067	-1.02	0.167	-6.9900876	-1.7761698	1.7761698	95.38604784	2.4923673	-28.74530286
0.31	31	0.066	-1.016	0.172	-6.1879464	-1.8334656	2.3491278	95.32302246	2.46944898	-28.76822118
0.32	32	0.058	-1.005	0.174	-6.016059	-1.8907614	2.7501984	95.25999708	2.44653066	-28.7911395
0.33	33	0.049	-0.998	0.163	-5.72958	-2.1772404	2.7501984	95.20270128	2.41788276	-28.81405782
0.34	34	0.04	-0.994	0.149	-5.443101	-2.8074942	2.578311	95.14540548	2.39496444	-28.8484353
0.35	35	0.036	-1.001	0.143	-5.156622	-3.724227	2.2345362	95.111028	2.3777757	-28.88281278
0.36	36	0.035	-1.003	0.134	-5.2139178	-4.2398892	1.8334656	95.0537322	2.36631654	-28.92864942
0.37	37	0.037	-1.001	0.127	-5.156622	-4.4117766	1.4896908	95.00216598	2.35485738	-28.96875648
0.38	38	0.04	-0.999	0.122	-4.1825934	-4.1252976	1.2605076	94.95632934	2.3491278	-29.01459312
0.39	39	0.041	-1.002	0.12	-4.1252976	-4.010706	0.9740286	94.91622228	2.34339822	-29.05470018
0.4	40	0.038	-0.999	0.123	-5.156622	-3.9534102	0.9167328	94.87038564	2.33766864	-29.08907766
0.41	41	0.036	-0.994	0.124	-6.3598338	-3.7815228	1.0886202	94.80736026	2.33193906	-29.12918472
0.42	42	0.034	-0.991	0.119	-7.3338624	-3.724227	1.2605076	94.73287572	2.3204799	-29.16929178
0.43	43	0.033	-0.992	0.118	-7.6203414	-3.8961144	1.3750992	94.6526616	2.31475032	-29.20939884
0.44	44	0.031	-0.995	0.117	-7.8495246	-4.010706	1.3750992	94.57244748	2.30329116	-29.2495059
0.45	45	0.029	-1.001	0.112	-7.9641162	-4.010706	1.3178034	94.49223336	2.291832	-29.29534254
0.46	46	0.03	-1.002	0.111	-8.1932994	-4.1252976	0.9167328	94.41201924	2.28610242	-29.3354496
0.47	47	0.029	-1.005	0.12	-8.6516658	-4.4117766	0.7448454	94.32034596	2.28037284	-29.38128624
0.48	48	0.029	-1.009	0.118	-9.2819196	-4.4690724	0.4583664	94.2229431	2.28037284	-29.42712288
0.49	49	0.03	-1.011	0.118	-9.6829902	-4.3544808	0.1145916	94.12554024	2.28037284	-29.47295952
0.5	50	0.031	-1.005	0.113	-9.9121734	-4.0680018	0	94.03386696	2.28610242	-29.507337
0.51	51	0.031	-1.001	0.113	-9.167328	-3.8961144	-0.0572958	93.9364641	2.291832	-29.54744406
0.52	52	0.032	-1.001	0.115	-9.1100322	-3.6669312	-0.1145916	93.84479082	2.291832	-29.58755112
0.53	53	0.032	-0.998	0.113	-8.880849	-3.4950438	-0.1718874	93.75311754	2.29756158	-29.6219286
0.54	54	0.032	-0.999	0.11	-8.880849	-3.4950438	-0.2291832	93.66144426	2.30329116	-29.65630608
0.55	55	0.032	-0.998	0.106	-9.1100322	-3.8388186	-0.286479	93.58123014	2.30902074	-29.69641314
0.56	56	0.034	-0.996	0.103	-8.6516658	-4.1252976	-0.3437748	93.48955686	2.3204799	-29.7365202
0.57	57	0.033	-0.996	0.102	-7.8495246	-4.5263682	-0.4010706	93.40934274	2.32620948	-29.78235684
0.58	58	0.031	-0.997	0.101	-7.3911582	-4.870143	-0.6302538	93.3348582	2.33766864	-29.82819348
0.59	59	0.031	-0.995	0.1	-6.875496	-5.0420304	-0.6875496	93.26037366	2.3491278	-29.8797597
0.6	60	0.032	-0.991	0.096	-6.7609044	-4.9847346	-0.6302538	93.20307786	2.36058696	-29.92559634
0.61	61	0.026	-0.99	0.099	-6.5317212	-5.3285094	-0.572958	93.1343229	2.36631654	-29.98289214
0.62	62	0.027	-0.992	0.098	-6.2452422	-5.6149884	-0.4583664	93.06556794	2.3777757	-30.03445836
0.63	63	0.024	-0.99	0.096	-6.0733548	-5.9587632	-0.5156622	93.00254256	2.38350528	-30.09748374
0.64	64	0.024	-0.993	0.096	-5.6149884	-6.1306506	-0.4583664	92.94524676	2.39496444	-30.15477954
0.65	65	0.024	-0.994	0.095	-4.9274388	-6.4744254	-0.4583664	92.9051397	2.40069402	-30.21780492
0.66	66	0.023	-0.995	0.098	-4.4117766	-6.589017	-0.286479	92.85930306	2.4064236	-30.28655988
0.67	67	0.025	-0.995	0.096	-3.8961144	-6.6463128	-0.1718874	92.819196	2.41788276	-30.34958526
0.68	68	0.026	-0.995	0.098	-3.6669312	-6.5317212	-0.3437748	92.77908894	2.42361234	-30.41834022
0.69	69	0.027	-0.993	0.097	-3.6096354	-6.6463128	-0.5156622	92.73898188	2.4350715	-30.4813656
0.7	70	0.028	-0.993	0.095	-3.3804522	-6.9327918	-0.7448454	92.71606356	2.44653066	-30.54439098
0.71	71	0.033	-0.992	0.095	-2.9220858	-7.2765666	-0.6302538	92.68741566	2.45798982	-30.61887552
0.72	72	0.038	-0.99	0.096	-2.1772404	-7.8495246	-0.4010706	92.65876776	2.46944898	-30.69336006
0.73	73	0.044	-0.99	0.098	-1.145916	-8.5370742	-0.286479	92.6473086	2.47517856	-30.77930376
0.74	74	0.049	-0.991	0.097	-0.3437748	-9.167328	-0.0572958	92.64157902	2.48090814	-30.87097704
0.75	75	0.05	-0.991	0.099	0.2291832	-10.1986524	0.2291832	92.66449734	2.49809688	-30.96265032
0.76	76	0.048	-0.992	0.102	0.286479	-11.0007936	0.4583664	92.66449734	2.50382646	-31.07151234
0.77	77	0.046	-0.993	0.104	0.1145916	-11.745639	0.859437	92.65876776	2.50382646	-31.19183352
0.78	78	0.042	-0.991	0.106	0.286479	-12.3758928	1.2605076	92.65876776	2.49809688	-31.3121547
0.79	79	0.041	-0.991	0.11	0.9167328	-12.891555	1.7761698	92.66449734	2.48663772	-31.44393504
0.8	80	0.041	-0.992	0.113	1.718874	-12.8342592	2.1199446	92.69887482	2.48090814	-31.56425622
0.81	81	0.041	-0.995	0.115	2.6356068	-12.4331886	2.0626488	92.72179314	2.46944898	-31.69030698
0.82	82	0.041	-0.992	0.114	3.437748	-12.032118	1.6615782	92.75617062	2.4637194	-31.80489858
0.83	83	0.043	-0.986	0.109	3.437748	-11.0580894	0.859437	92.78481852	2.4637194	-31.91949018
0.84	84	0.044	-0.978	0.111	3.3804522	-10.599723	0.0572958	92.819196	2.46944898	-32.02262262
0.85	85	0.046	-0.977	0.111	3.437748	-10.3705398	-0.572958	92.87076222	2.4923673	-32.1142959
0.86	86	0.048	-0.981	0.112	3.6096354	-10.1413566	-0.9740286	92.9051397	2.50955604	-32.21742834
0.87	87	0.051	-0.984	0.113	4.0680018	-10.026765	-1.0886202	92.94524676	2.53247436	-32.3148312
0.88	88	0.055	-0.988	0.113	4.583664	-9.6829902	-1.3178034	92.98535382	2.5496631	-32.40650448
0.89	89	0.064	-0.989	0.113	5.0420304	-9.2246238	-1.5469866	93.03692004	2.57258142	-32.49817776
0.9	90	0.068	-0.989	0.112	5.2712136	-9.167328	-1.6615782	93.105675	2.61268848	-32.57839188
0.91	91	0.074	-0.993	0.11	5.3858052	-9.0527364	-2.005353	93.15724122	2.64133638	-32.67006516
0.92	92	0.079	-0.999	0.109	5.5576926	-9.0527364	-2.2345362	93.20880744	2.66998428	-32.75600886
0.93	93	0.083	-1.001	0.109	5.9587632	-8.9381448	-2.291832	93.26610324	2.70436176	-32.84195256
0.94	94	0.089	-1.003	0.11	6.0733548	-8.8235532	-2.4064236	93.32912862	2.73300966	-32.92789626
0.95	95	0.095	-1.003	0.11	6.2452422	-8.9381448	-2.4064236	93.40361316	2.79030546	-33.00811038
0.96	96	0.104	-1.006	0.11	6.2452422	-9.5111028	-2.5210152	93.46090896	2.82468294	-33.09978366
0.97	97	0.11	-1.012	0.11	5.9014674	-10.1986524	-2.6356068	93.51820476	2.85906042	-33.19718652
0.98	98	0.117	-1.02	0.11	5.2139178	-11.2872726	-2.7501984	93.56977098	2.8934379	-33.30604854
0.99	99	0.121	-1.021	0.11	4.5263682	-12.7196676	-3.0939732	93.60987804	2.93927454	-33.42636972
1	100	0.127	-1.022	0.114	4.1825934	-13.9801752	-3.4950438	93.65571468	3.0080295	-33.55815006
1.01	101	0.13	-1.025	0.116	3.8961144	-15.469866	-4.0680018	93.69009216	3.0653253	-33.70711914
1.02	102	0.13	-1.026	0.123	3.8388186	-17.1314442	-4.6982556	93.72446964	3.12835068	-33.87327696
1.03	103	0.129	-1.026	0.133	4.1825934	-18.5638392	-5.5576926	93.75884712	3.20283522	-34.05089394
1.04	104	0.13	-1.024	0.142	4.0680018	-19.8243468	-6.4744254	93.7932246	3.28304934	-34.23997008
1.05	105	0.13	-1.02	0.147	3.9534102	-20.5691922	-7.3911582	93.83906124	3.39191136	-34.4347758
1.06	106	0.132	-1.013	0.149	4.297185	-21.0275586	-7.9068204	93.87343872	3.48931422	-34.6353111
1.07	107	0.136	-1.005	0.154	4.7555514	-21.2567418	-8.3651868	93.91354578	3.59244666	-34.8358464
1.08	108	0.139	-1.001	0.159	4.583664	-21.199446	-8.5370742	93.94792326	3.70130868	-35.04211128
1.09	109	0.142	-1.002	0.161	4.1825934	-20.7983754	-8.7089616	93.98230074	3.8101707	-35.236917
1.1	110	0.144	-1.001	0.16	3.7815228	-20.2827132	-8.7089616	94.02813738	3.93049188	-35.42599314
1.11	111	0.143	-1	0.155	3.3231564	-19.3086846	-8.880849	94.0510557	4.0393539	-35.6093397
1.12	112	0.14	-0.996	0.154	2.9220858	-17.8762896	-8.8235532	94.06824444	4.14248634	-35.77549752
1.13	113	0.137	-0.991	0.156	2.4637194	-16.7303736	-8.7089616	94.08543318	4.24561878	-35.93592576
1.14	114	0.134	-0.984	0.158	2.1772404	-15.9282324	-8.59437	94.09689234	4.34875122	-36.09062442
1.15	115	0.133	-0.976	0.155	1.9480572	-15.3552744	-8.1360036	94.12554024	4.46334282	-36.22240476
1.16	116	0.136	-0.97	0.147	1.7761698	-14.896908	-7.6776372	94.1369994	4.5550161	-36.36564426
1.17	117	0.141	-0.972	0.144	1.3750992	-14.6677248	-7.2192708	94.14272898	4.6409598	-36.50315418
1.18	118	0.148	-0.977	0.147	1.2032118	-15.0687954	-6.9900876	94.14272898	4.7269035	-36.64639368
1.19	119	0.152	-0.989	0.151	0.859437	-15.4125702	-6.9900876	94.14272898	4.8128472	-36.79536276
1.2	120	0.153	-0.998	0.149	0.5156622	-15.183387	-7.2192708	94.15991772	4.92170922	-36.93287268
1.21	121	0.151	-1	0.144	0.286479	-14.32395	-7.448454	94.15418814	5.0133825	-37.06465302
1.22	122	0.145	-0.999	0.139	0.0572958	-13.464513	-7.9068204	94.14272898	5.10505578	-37.19643336
1.23	123	0.142	-0.996	0.141	0.4583664	-12.4904844	-8.2505952	94.14272898	5.19672906	-37.31102496
1.24	124	0.139	-0.99	0.145	0.7448454	-12.4904844	-8.1360036	94.1369994	5.28840234	-37.43134614
1.25	125	0.141	-0.989	0.147	0.8021412	-12.6623718	-7.734933	94.15991772	5.40299394	-37.54020816
1.26	126	0.148	-0.983	0.148	0.8021412	-12.8342592	-6.9900876	94.15991772	5.48320806	-37.66052934
1.27	127	0.156	-0.98	0.148	1.0886202	-13.1207382	-6.0733548	94.15991772	5.5576926	-37.7865801
1.28	128	0.165	-0.983	0.154	1.8334656	-13.750992	-5.5003968	94.1656473	5.62644756	-37.91836044
1.29	129	0.171	-0.987	0.163	1.432395	-14.6677248	-4.9274388	94.17137688	5.68947294	-38.05587036
1.3	130	0.166	-0.985	0.158	1.3178034	-15.469866	-4.583664	94.1942952	5.77541664	-38.19910986
1.31	131	0.166	-0.984	0.158	1.5469866	-16.042824	-4.297185	94.20002478	5.83844202	-38.35380852
1.32	132	0.165	-0.984	0.159	1.3178034	-16.902261	-4.010706	94.1942952	5.89000824	-38.51423676
1.33	133	0.165	-0.984	0.163	1.3178034	-18.1627686	-3.3804522	94.1942952	5.94730404	-38.69185374
1.34	134	0.168	-0.982	0.168	1.2605076	-19.767051	-2.578311	94.18856562	5.99314068	-38.88665946
1.35	135	0.171	-0.978	0.173	1.0886202	-21.6578124	-1.6042824	94.20575436	6.05043648	-39.08719476
1.36	136	0.172	-0.977	0.177	0.9167328	-23.1475032	-0.7448454	94.1942952	6.08481396	-39.31637796
1.37	137	0.172	-0.975	0.178	0.6875496	-24.4653066	-0.0572958	94.18283604	6.10773228	-39.55702032
1.38	138	0.169	-0.981	0.178	0.1145916	-25.7258142	0.8021412	94.15991772	6.12492102	-39.81485142
1.39	139	0.165	-0.987	0.179	-0.3437748	-26.8144344	1.5469866	94.13126982	6.13638018	-40.0784121
1.4	140	0.158	-0.991	0.179	-1.3178034	-27.2728008	2.2345362	94.11408108	6.15356892	-40.34197278
1.41	141	0.149	-0.996	0.179	-2.291832	-27.6165756	2.9220858	94.06251486	6.15356892	-40.61699262
1.42	142	0.14	-0.996	0.175	-3.151269	-27.6738714	3.6096354	94.00521906	6.14210976	-40.89774204
1.43	143	0.134	-0.997	0.173	-3.7815228	-27.3300966	4.2398892	93.94219368	6.1306506	-41.17276188
1.44	144	0.128	-0.992	0.171	-4.3544808	-26.4706596	4.6982556	93.87343872	6.10773228	-41.43632256
1.45	145	0.123	-0.984	0.168	-4.870143	-25.496631	5.0420304	93.81614292	6.08481396	-41.68842408
1.46	146	0.117	-0.981	0.164	-5.6149884	-24.637194	5.443101	93.7359288	6.05616606	-41.93479602
1.47	147	0.116	-0.979	0.159	-6.4171296	-23.6631654	5.72958	93.6499851	6.02178858	-42.17543838
1.48	148	0.117	-0.981	0.159	-6.875496	-23.1475032	5.9014674	93.55831182	5.98168152	-42.41035116
1.49	149	0.123	-0.985	0.162	-7.3338624	-22.9756158	6.0733548	93.46090896	5.94157446	-42.63953436
1.5	150	0.129	-0.988	0.161	-7.5630456	-22.6891368	6.1879464	93.38069484	5.90719698	-42.86298798
1.51	151	0.14	-0.987	0.161	-7.7922288	-22.2880662	6.0733548	93.28329198	5.86708992	-43.09217118
1.52	152	0.145	-0.988	0.162	-7.9641162	-22.1161788	5.8441716	93.18015954	5.82698286	-43.3156248
1.53	153	0.146	-0.991	0.159	-8.2505952	-22.4599536	5.5003968	93.0770271	5.7868758	-43.53907842
1.54	154	0.145	-0.999	0.154	-8.880849	-22.6891368	5.2139178	92.96816508	5.75249832	-43.76826162
1.55	155	0.146	-1.003	0.154	-9.2819196	-22.9756158	4.9847346	92.87076222	5.73530958	-43.99171524
1.56	156	0.154	-0.997	0.159	-9.3392154	-23.6631654	5.0420304	92.75617062	5.7009321	-44.2323576
1.57	157	0.161	-0.989	0.167	-9.167328	-24.8663772	5.443101	92.64157902	5.66655462	-44.48445912
1.58	158	0.169	-0.985	0.173	-9.2819196	-26.2987722	5.8441716	92.52125784	5.62644756	-44.7480198
1.59	159	0.168	-0.986	0.174	-9.2819196	-27.3300966	6.016059	92.40666624	5.58061092	-45.02303964
1.6	160	0.167	-0.983	0.175	-8.8235532	-27.9030546	6.0733548	92.31499296	5.5576926	-45.2923299
1.61	161	0.164	-0.978	0.179	-8.880849	-28.3041252	6.302538	92.20040136	5.51185596	-45.5788089
1.62	162	0.154	-0.973	0.184	-8.021412	-28.7051958	6.2452422	92.09726892	5.46601932	-45.8652879
1.63	163	0.151	-0.961	0.191	-6.9900876	-29.0489706	6.6463128	91.99986606	5.42018268	-46.15749648
1.64	164	0.149	-0.949	0.197	-6.016059	-29.5646328	7.2192708	91.91392236	5.36288688	-46.45543464
1.65	165	0.153	-0.941	0.199	-5.443101	-29.9657034	7.9068204	91.86235614	5.32277982	-46.74764322
1.66	166	0.154	-0.941	0.2	-4.7555514	-30.3094782	8.4224826	91.79360118	5.25402486	-47.05131096
1.67	167	0.155	-0.946	0.2	-4.1252976	-30.5959572	8.8235532	91.72484622	5.1852699	-47.3549787
1.68	168	0.153	-0.949	0.2	-3.2085648	-30.5959572	8.9954406	91.66755042	5.11078536	-47.66437602
1.69	169	0.149	-0.953	0.199	-2.4064236	-30.3094782	9.167328	91.62171378	5.03630082	-47.96804376
1.7	170	0.141	-0.952	0.197	-1.7761698	-30.0229992	9.2246238	91.61025462	4.97900502	-48.26025234
1.71	171	0.137	-0.941	0.191	-1.432395	-29.1635622	9.3392154	91.57587714	4.8987909	-48.55246092
1.72	172	0.136	-0.929	0.184	-0.8021412	-28.1322378	9.740286	91.54722924	4.81857678	-48.83321034
1.73	173	0.136	-0.919	0.183	0.2291832	-26.9863218	10.1413566	91.5300405	4.73263308	-49.1025006
1.74	174	0.139	-0.918	0.186	1.432395	-26.0122932	10.5424272	91.5300405	4.6409598	-49.36606128
1.75	175	0.144	-0.917	0.187	1.8907614	-25.210152	11.0580894	91.5586884	4.56647526	-49.60670364
1.76	176	0.149	-0.915	0.186	2.0626488	-25.0955604	11.745639	91.56441798	4.46334282	-49.85880516
1.77	177	0.151	-0.914	0.179	2.5210152	-25.6685184	12.605076	91.57587714	4.34875122	-50.11663626
1.78	178	0.149	-0.921	0.172	3.437748	-26.5852512	13.5218088	91.59306588	4.23415962	-50.38592652
1.79	179	0.144	-0.938	0.173	5.2712136	-25.78311	13.6364004	91.63317294	4.10810886	-50.64375762
1.8	180	0.134	-0.959	0.17	6.0733548	-24.7517856	13.2353298	91.7019279	4.010706	-50.88439998
1.81	181	0.118	-0.993	0.139	5.0993262	-24.350715	12.032118	91.74203496	3.90184398	-51.13077192
1.82	182	0.093	-1.041	0.103	2.291832	-23.5485738	9.6829902	91.75349412	3.82162986	-51.3656847
1.83	183	0.065	-1.112	0.082	-1.5469866	-21.3140376	5.9014674	91.72484622	3.77579322	-51.57767916
1.84	184	0.037	-1.178	0.089	-5.2712136	-18.3919518	1.0313244	91.66182084	3.77579322	-51.76102572
1.85	185	0.006	-1.219	0.095	-6.7036086	-15.9855282	-3.8961144	91.5873363	3.8101707	-51.92145396
1.86	186	-0.046	-1.251	0.07	-9.3392154	-13.8655836	-7.6776372	91.48420386	3.8961144	-52.05896388
1.87	187	-0.055	-1.266	0.063	-12.9488508	-8.4797784	-10.313244	91.34669394	3.99924684	-52.139178
1.88	188	-0.043	-1.264	0.079	-13.8082878	-1.8334656	-11.5164558	91.20345444	4.11383844	-52.15636674
1.89	189	-0.007	-1.226	0.082	-12.5477802	6.8182002	-10.7716104	91.08313326	4.21697088	-52.08761178
1.9	190	0.051	-1.176	0.07	-9.167328	14.2093584	-8.2505952	90.99718956	4.29145542	-51.94437228
1.91	191	0.123	-1.122	0.06	-4.1825934	19.194093	-4.4117766	90.96854166	4.3258329	-51.75529614
1.92	192	0.189	-1.074	0.065	0	20.626488	0	90.98000082	4.32010332	-51.54903126
1.93	193	0.239	-1.032	0.06	1.8907614	19.3659804	4.4117766	91.0143783	4.2685371	-51.35995512
1.94	194	0.265	-0.993	0.041	2.291832	16.5584862	8.8235532	91.04875578	4.17113424	-51.1937973
1.95	195	0.263	-0.962	0.023	2.4064236	11.0007936	13.9228794	91.07740368	4.08519054	-51.0792057
1.96	196	0.236	-0.941	0.012	2.578311	5.443101	17.475219	91.10605158	3.91330314	-51.02763948
1.97	197	0.2	-0.93	0.01	2.291832	0	19.8816426	91.1289699	3.71276784	-51.03336906
1.98	198	0.163	-0.92	0.013	2.2345362	-4.7555514	20.5691922	91.15188822	3.51223254	-51.08493528
1.99	199	0.128	-0.91	0.017	2.005353	-8.3651868	19.5378678	91.16907696	3.3231564	-51.17087898
2	200	0.079	-0.895	0.012	0.9167328	-10.7716104	17.0168526	91.16907696	3.16272816	-51.28547058
2.01	201	0.028	-0.882	-0.003	-0.7448454	-12.8342592	13.9801752	91.15188822	3.02521824	-51.41725092
2.02	202	-0.021	-0.872	-0.019	-0.3437748	-14.1520626	10.4851314	91.14615864	2.92781538	-51.55476084
2.03	203	-0.06	-0.884	-0.022	1.7761698	-14.610429	6.016059	91.1576178	2.87624916	-51.70372992
2.04	204	-0.074	-0.899	-0.015	2.5210152	-14.2666542	2.7501984	91.18053612	2.85333084	-51.84696942
2.05	205	-0.076	-0.905	-0.008	2.4064236	-13.6364004	0	91.17480654	2.81322378	-51.9959385
2.06	206	-0.064	-0.919	-0.007	1.9480572	-13.0634424	-1.8334656	91.19199528	2.8361421	-52.12198926
2.07	207	-0.039	-0.947	-0.009	1.7761698	-13.2926256	-2.4064236	91.20345444	2.87051958	-52.2537696
2.08	208	-0.01	-0.991	-0.003	1.718874	-14.0947668	-0.6302538	91.22064318	2.88197874	-52.39127952
2.09	209	0.018	-1.038	-0.001	1.2605076	-14.7823164	2.8074942	91.22637276	2.85906042	-52.5402486
2.1	210	0.05	-1.075	-0.003	1.0313244	-15.756345	8.1360036	91.22064318	2.79030546	-52.70067684
2.11	211	0.072	-1.085	0	1.2032118	-17.2460358	12.318597	91.22637276	2.67571386	-52.87256424
2.12	212	0.077	-1.083	0.007	2.3491278	-17.6471064	15.0687954	91.2435615	2.53820394	-53.05018122
2.13	213	0.069	-1.071	0.015	2.8074942	-17.5325148	16.329303	91.26647982	2.38350528	-53.2277982
2.14	214	0.055	-1.056	0.022	1.9480572	-17.0741484	15.9282324	91.28366856	2.2345362	-53.3996856
2.15	215	0.034	-1.045	0.026	1.6042824	-16.4438946	14.0947668	91.29512772	2.09702628	-53.56584342
2.16	216	0.014	-1.04	0.033	1.0886202	-15.3552744	11.45916	91.3008573	1.99389384	-53.72054208
2.17	217	-0.003	-1.041	0.04	0	-13.3499214	8.880849	91.3008573	1.90795014	-53.858052
2.18	218	-0.02	-1.047	0.042	-0.6875496	-10.7143146	6.8182002	91.28939814	1.85065434	-53.96691402
2.19	219	-0.033	-1.055	0.048	-2.005353	-7.3338624	6.6463128	91.26647982	1.78762896	-54.04139856
2.2	220	-0.041	-1.063	0.051	-2.0626488	-4.3544808	7.7922288	91.2435615	1.67303736	-54.09296478
2.21	221	-0.042	-1.067	0.048	-1.7761698	-1.5469866	10.1986524	91.22637276	1.56990492	-54.11015352
2.22	222	-0.04	-1.064	0.05	-0.6302538	0.6875496	13.0634424	91.22064318	1.44385416	-54.10442394
2.23	223	-0.032	-1.061	0.047	-0.0572958	2.9793816	16.042824	91.22064318	1.28342592	-54.08150562
2.24	224	-0.019	-1.057	0.041	0.1145916	4.8128472	18.621135	91.22064318	1.09434978	-54.03566898
2.25	225	-0.012	-1.047	0.046	0.1718874	6.2452422	20.4546006	91.22637276	0.88235532	-53.98410276
2.26	226	-0.016	-1.035	0.058	0.2291832	7.2192708	21.199446	91.22637276	0.66463128	-53.9153478
2.27	227	-0.025	-1.012	0.061	-0.1145916	7.6776372	20.626488	91.22637276	0.4583664	-53.84659284
2.28	228	-0.041	-0.989	0.054	-1.0313244	7.7922288	19.5378678	91.2149136	0.2578311	-53.7721083
2.29	229	-0.046	-0.971	0.044	-1.718874	7.9641162	18.2773602	91.19772486	0.07448454	-53.69762376
2.3	230	-0.049	-0.965	0.039	-2.8074942	8.1360036	16.902261	91.16334738	-0.10313244	-53.62313922
2.31	231	-0.044	-0.964	0.043	-4.4117766	8.2505952	15.5844576	91.11751074	-0.26356068	-53.5429251
2.32	232	-0.039	-0.965	0.043	-6.302538	8.1932994	14.2093584	91.05448536	-0.40680018	-53.46844056
2.33	233	-0.034	-0.968	0.041	-8.59437	8.021412	12.7769634	90.96281208	-0.53858052	-53.39395602
2.34	234	-0.029	-0.969	0.04	-10.6570188	7.3338624	11.2299768	90.85395006	-0.6589017	-53.32520106
2.35	235	-0.028	-0.974	0.042	-12.0894138	6.4744254	10.1413566	90.73362888	-0.76203414	-53.26217568
2.36	236	-0.032	-0.975	0.048	-12.7196676	5.72958	9.5111028	90.60184854	-0.86516658	-53.21060946
2.37	237	-0.038	-0.976	0.055	-12.7196676	4.9274388	9.2819196	90.4700682	-0.95683986	-53.16477282
2.38	238	-0.046	-0.979	0.064	-12.605076	4.2398892	9.0527364	90.34401744	-1.04851314	-53.12466576
2.39	239	-0.052	-0.982	0.069	-12.4331886	4.010706	8.8235532	90.2122371	-1.14018642	-53.0845587
2.4	240	-0.055	-0.99	0.074	-12.0894138	4.010706	8.4224826	90.10910466	-1.2318597	-53.04445164
2.41	241	-0.057	-0.992	0.085	-12.032118	4.1825934	7.7922288	89.9830539	-1.31207382	-53.00434458
2.42	242	-0.059	-0.995	0.088	-11.9748222	4.3544808	6.6463128	89.86273272	-1.38082878	-52.96423752
2.43	243	-0.062	-0.996	0.089	-11.9175264	4.5263682	5.5003968	89.73668196	-1.43812458	-52.91840088
2.44	244	-0.063	-0.993	0.091	-11.8029348	4.2398892	4.4117766	89.61636078	-1.48396122	-52.87829382
2.45	245	-0.062	-0.988	0.098	-11.4018642	4.3544808	3.3231564	89.53041708	-1.52979786	-52.83818676
2.46	246	-0.062	-0.983	0.103	-10.9434978	4.6409598	2.4064236	89.42155506	-1.55844576	-52.79235012
2.47	247	-0.062	-0.973	0.107	-10.4851314	5.3285094	1.432395	89.31269304	-1.56990492	-52.7407839
2.48	248	-0.062	-0.963	0.106	-10.1413566	5.9587632	0.3437748	89.20383102	-1.5756345	-52.6834881
2.49	249	-0.062	-0.955	0.112	-9.9121734	6.9327918	-0.7448454	89.10069858	-1.56990492	-52.61473314
2.5	250	-0.059	-0.949	0.119	-9.9121734	8.2505952	-2.1772404	89.0376732	-1.55844576	-52.52878944
2.51	251	-0.055	-0.949	0.119	-9.9694692	9.5683986	-3.3804522	88.93454076	-1.52406828	-52.43711616
2.52	252	-0.05	-0.943	0.113	-9.8548776	10.1986524	-4.1252976	88.82567874	-1.48396122	-52.3397133
2.53	253	-0.046	-0.935	0.106	-9.453807	10.7716104	-4.7555514	88.72827588	-1.43812458	-52.23658086
2.54	254	-0.044	-0.927	0.097	-8.6516658	11.45916	-5.2139178	88.6366026	-1.39228794	-52.12198926
2.55	255	-0.047	-0.919	0.095	-7.5057498	11.745639	-5.5003968	88.58503638	-1.34072172	-52.00739766
2.56	256	-0.054	-0.917	0.095	-6.016059	12.0894138	-5.72958	88.51628142	-1.28342592	-51.88707648
2.57	257	-0.063	-0.915	0.098	-4.4117766	12.2040054	-5.9014674	88.47044478	-1.22613012	-51.7667553
2.58	258	-0.068	-0.918	0.105	-1.6042824	12.7769634	-6.0733548	88.44752646	-1.16883432	-51.64643412
2.59	259	-0.066	-0.922	0.114	1.145916	13.9228794	-6.2452422	88.45325604	-1.10580894	-51.5089242
2.6	260	-0.061	-0.926	0.121	2.6356068	15.5271618	-6.589017	88.51628142	-1.04851314	-51.35422554
2.61	261	-0.055	-0.932	0.118	3.437748	17.475219	-7.1046792	88.54492932	-0.9740286	-51.18233814
2.62	262	-0.048	-0.937	0.107	4.297185	18.7930224	-7.7922288	88.5793068	-0.89954406	-50.99899158
2.63	263	-0.04	-0.941	0.121	6.0733548	19.9389384	-8.4797784	88.6366026	-0.81360036	-50.79845628
2.64	264	-0.03	-0.949	0.134	7.5057498	21.0275586	-9.167328	88.71108714	-0.72192708	-50.5921914
2.65	265	-0.02	-0.952	0.142	8.1360036	21.0275586	-9.3392154	88.81994916	-0.6302538	-50.38019694
2.66	266	-0.018	-0.953	0.158	9.5111028	20.9702628	-9.167328	88.91162244	-0.53858052	-50.17393206
2.67	267	-0.026	-0.955	0.179	11.5164558	21.3713334	-8.9381448	89.02048446	-0.45263682	-49.9619376
2.68	268	-0.036	-0.96	0.194	13.0061466	22.631841	-8.9381448	89.14653522	-0.36096354	-49.73848398
2.69	269	-0.045	-0.968	0.182	13.0634424	25.210152	-9.2246238	89.27831556	-0.27501984	-49.49211204
2.7	270	-0.054	-0.987	0.147	12.032118	27.5592798	-9.453807	89.41582548	-0.18907614	-49.2170922
2.71	271	-0.068	-1.016	0.109	10.4278356	28.074942	-8.8235532	89.51322834	-0.10886202	-48.93634278
2.72	272	-0.079	-1.051	0.105	8.9381448	27.0436176	-7.3338624	89.59917204	-0.04010706	-48.66705252
2.73	273	-0.055	-1.113	0.106	5.3858052	29.0489706	-5.7868758	89.65073826	0.00572958	-48.38057352
2.74	274	0.001	-1.162	0.08	-0.6302538	30.8251404	-2.5210152	89.64500868	0.0286479	-48.07690578
2.75	275	0.073	-1.213	0.026	-4.7555514	28.5906042	3.5523396	89.58771288	0	-47.79615636
2.76	276	0.122	-1.282	-0.027	-2.86479	25.3247436	9.5683986	89.55906498	-0.09740286	-47.54405484
2.77	277	0.155	-1.35	-0.057	1.0886202	24.8663772	14.1520626	89.56479456	-0.24637194	-47.2976829
2.78	278	0.187	-1.376	-0.052	2.9220858	26.1268848	16.6730778	89.58771288	-0.41825934	-47.03412222
2.79	279	0.19	-1.344	-0.048	2.8074942	24.4653066	17.761698	89.61636078	-0.59587632	-46.79347986
2.8	280	0.151	-1.279	-0.058	4.297185	20.1108258	17.8762896	89.64500868	-0.76776372	-46.59294456
2.81	281	0.066	-1.204	-0.066	7.6776372	15.2406828	16.7303736	89.71949322	-0.93392154	-46.4382459
2.82	282	-0.028	-1.154	-0.062	10.9434978	11.45916	12.9488508	89.82835524	-1.06570188	-46.3236543
2.83	283	-0.113	-1.101	-0.042	13.4072172	8.7089616	6.8182002	89.96586516	-1.13445684	-46.2377106
2.84	284	-0.18	-1.048	-0.023	14.2666542	8.1360036	0.9740286	90.10337508	-1.145916	-46.1517669
2.85	285	-0.206	-1.001	-0.007	15.0114996	9.5683986	-4.6982556	90.240885	-1.15164558	-46.0658232
2.86	286	-0.198	-0.964	0.011	16.1574156	12.6623718	-9.3965112	90.40131324	-1.0599723	-45.93977244
2.87	287	-0.168	-0.928	0.027	16.2720072	17.5898106	-12.7196676	90.56174148	-0.93965112	-45.76215546
2.88	288	-0.128	-0.9	0.036	15.4125702	23.4339822	-14.4958374	90.71071056	-0.8021412	-45.52724268
2.89	289	-0.078	-0.871	0.035	13.8655836	28.7624916	-14.8396122	90.8424909	-0.66463128	-45.24076368
2.9	290	-0.037	-0.846	0.027	11.5737516	33.1169724	-13.8655836	90.95135292	-0.5443101	-44.90844804
2.91	291	0.006	-0.832	0.009	8.8235532	36.3255372	-11.8602306	91.03156704	-0.44117766	-44.5474845
2.92	292	0.041	-0.832	-0.005	6.1306506	38.3308902	-9.2819196	91.08886284	-0.36669312	-44.16360264
2.93	293	0.076	-0.844	-0.018	3.4950438	39.6486936	-5.8441716	91.11751074	-0.32658606	-43.76826162
2.94	294	0.11	-0.863	-0.033	1.5469866	40.10706	-1.6042824	91.12324032	-0.32658606	-43.3729206
2.95	295	0.141	-0.895	-0.043	-0.5156622	39.3049188	2.291832	91.100322	-0.3437748	-42.98330916
2.96	296	0.162	-0.905	-0.05	-3.6669312	37.815228	6.1879464	91.05448536	-0.41825934	-42.61088646
2.97	297	0.18	-0.921	-0.039	-5.5576926	33.9764094	9.167328	90.99145998	-0.52712136	-42.27857082
2.98	298	0.184	-0.951	-0.033	-6.4171296	28.3041252	11.3445684	90.91697544	-0.65317212	-42.00355098
2.99	299	0.176	-0.986	-0.028	-6.4171296	22.4026578	12.2040054	90.84822048	-0.78495246	-41.78582694
3	300	0.164	-1.016	-0.024	-5.9014674	17.5898106	11.745639	90.76800636	-0.86516658	-41.60820996
3.01	301	0.148	-1.04	-0.019	-4.4690724	13.2926256	10.026765	90.72216972	-0.9740286	-41.47642962
3.02	302	0.132	-1.05	-0.003	-1.9480572	9.1100322	7.1046792	90.6992514	-1.04851314	-41.39048592
3.03	303	0.119	-1.049	0.006	-0.3437748	5.5003968	3.724227	90.69352182	-1.0886202	-41.33319012
3.04	304	0.105	-1.047	0.019	1.2032118	1.6615782	0.7448454	90.70498098	-1.09434978	-41.31600138
3.05	305	0.103	-1.057	0.037	3.0366774	-2.86479	-1.2605076	90.74508804	-1.0026765	-41.33319012
3.06	306	0.089	-1.081	0.05	5.3285094	-8.307891	-2.7501984	90.80238384	-0.96829902	-41.41340424
3.07	307	0.076	-1.101	0.064	6.016059	-11.6310474	-4.1252976	90.8711388	-0.92246238	-41.52799584
3.08	308	0.067	-1.115	0.082	5.3285094	-12.4904844	-5.5576926	90.9284346	-0.859437	-41.6540466
3.09	309	0.06	-1.115	0.091	4.0680018	-11.0580894	-7.3911582	90.97427124	-0.78495246	-41.75717904
3.1	310	0.053	-1.103	0.093	2.4064236	-7.3911582	-9.1100322	91.02010788	-0.66463128	-41.825934
3.11	311	0.04	-1.076	0.089	1.5469866	-2.5210152	-10.6570188	91.03729662	-0.55576926	-41.84885232
3.12	312	0.024	-1.046	0.087	2.1199446	2.4637194	-11.9748222	91.05448536	-0.43544808	-41.82020442
3.13	313	0.008	-1.024	0.092	2.9220858	6.875496	-12.8342592	91.08313326	-0.30939732	-41.74571988
3.14	314	0	-1.003	0.095	2.1199446	10.7716104	-13.0634424	91.10605158	-0.18907614	-41.63685786
3.15	315	0.004	-0.983	0.094	0.1718874	14.2093584	-12.5477802	91.12324032	-0.06302538	-41.49361836
3.16	316	0.02	-0.971	0.091	-1.8334656	16.6730778	-11.5164558	91.100322	0.04010706	-41.32746054
3.17	317	0.04	-0.962	0.084	-4.2398892	17.9335854	-10.0840608	91.05448536	0.13178034	-41.14411398
3.18	318	0.065	-0.959	0.073	-6.4171296	18.048177	-8.7089616	90.9857304	0.21199446	-40.966497
3.19	319	0.093	-0.956	0.059	-8.1360036	16.7876694	-7.448454	90.8997867	0.27501984	-40.80033918
3.2	320	0.122	-0.953	0.048	-9.9694692	13.9801752	-6.0733548	90.80811342	0.3724227	-40.65709968
3.21	321	0.147	-0.948	0.039	-11.4018642	9.5683986	-4.297185	90.68779224	0.40680018	-40.55969682
3.22	322	0.164	-0.947	0.036	-12.7196676	4.010706	-2.6356068	90.5560119	0.43544808	-40.52531934
3.23	323	0.168	-0.948	0.037	-13.3499214	-1.718874	-1.432395	90.42423156	0.44690724	-40.54250808
3.24	324	0.167	-0.949	0.044	-12.4904844	-6.589017	-0.6875496	90.2981808	0.45263682	-40.60553346
3.25	325	0.17	-0.948	0.056	-11.4018642	-11.0580894	0	90.20077794	0.52139178	-40.7086659
3.26	326	0.163	-0.951	0.073	-10.313244	-14.896908	0.5156622	90.0976455	0.5156622	-40.85763498
3.27	327	0.154	-0.946	0.091	-8.9381448	-17.7044022	1.0313244	90.00597222	0.50993262	-41.03525196
3.28	328	0.137	-0.948	0.11	-7.3911582	-19.767051	1.4896908	89.93148768	0.49847346	-41.23005768
3.29	329	0.117	-0.946	0.13	-5.6722842	-20.626488	2.1199446	89.87419188	0.4870143	-41.43632256
3.3	330	0.101	-0.943	0.14	-4.4690724	-20.5691922	3.0366774	89.87419188	0.49274388	-41.63112828
3.31	331	0.088	-0.938	0.139	-4.010706	-19.767051	4.1252976	89.83408482	0.4583664	-41.825934
3.32	332	0.074	-0.938	0.139	-3.6096354	-18.7357266	5.2139178	89.79970734	0.41252976	-42.00928056
3.33	333	0.059	-0.937	0.138	-2.7501984	-18.1054728	6.4171296	89.77105944	0.34950438	-42.19262712
3.34	334	0.049	-0.936	0.138	-1.5469866	-17.761698	7.734933	89.7538707	0.27501984	-42.36451452
3.35	335	0.044	-0.933	0.137	-0.7448454	-17.475219	9.1100322	89.78824818	0.21199446	-42.53067234
3.36	336	0.041	-0.927	0.139	0.1145916	-17.3606274	10.2559482	89.79397776	0.10886202	-42.70255974
3.37	337	0.037	-0.915	0.137	1.4896908	-17.3033316	11.2299768	89.8111665	0.00572958	-42.87444714
3.38	338	0.037	-0.904	0.142	3.0366774	-16.9595568	11.8029348	89.84554398	-0.10313244	-43.04060496
3.39	339	0.04	-0.897	0.154	4.6409598	-16.5011904	12.032118	89.8971102	-0.21772404	-43.20676278
3.4	340	0.044	-0.895	0.155	5.443101	-17.3606274	12.4331886	89.98878348	-0.32085648	-43.3729206
3.41	341	0.055	-0.894	0.158	6.4171296	-18.4492476	12.891555	90.05753844	-0.44117766	-43.55053758
3.42	342	0.071	-0.901	0.166	7.5630456	-19.3086846	13.4072172	90.13775256	-0.572958	-43.7453433
3.43	343	0.087	-0.914	0.168	8.4797784	-20.2827132	13.8655836	90.22942584	-0.69900876	-43.9458786
3.44	344	0.103	-0.925	0.164	8.8235532	-21.2567418	14.037471	90.3268287	-0.8307891	-44.15214348
3.45	345	0.116	-0.939	0.172	9.8548776	-23.0329116	14.1520626	90.46433862	-0.93392154	-44.3755971
3.46	346	0.118	-0.946	0.179	11.2299768	-25.8404058	14.0947668	90.59038938	-1.06570188	-44.6334282
3.47	347	0.12	-0.945	0.187	12.7196676	-28.5333084	13.6364004	90.7278993	-1.19175264	-44.91417762
3.48	348	0.121	-0.943	0.202	14.6677248	-30.5386614	13.0634424	90.88832754	-1.30634424	-45.21784536
3.49	349	0.117	-0.951	0.204	15.5844576	-34.0337052	12.318597	91.06021494	-1.40947668	-45.55589058
3.5	350	0.106	-0.98	0.183	14.32395	-37.9298196	11.1153852	91.23783192	-1.48396122	-45.9225837
3.51	351	0.084	-1.025	0.163	12.2613012	-39.1903272	8.4224826	91.38107142	-1.5469866	-46.31219514
3.52	352	0.051	-1.097	0.162	11.4018642	-39.0184398	4.1825934	91.51285176	-1.56417534	-46.696077
3.53	353	0.004	-1.191	0.15	9.9694692	-39.4768062	-0.7448454	91.62744336	-1.53552744	-47.08568844
3.54	354	-0.044	-1.271	0.133	5.72958	-37.6433406	-8.4797784	91.7019279	-1.42666542	-47.45811114
3.55	355	-0.097	-1.364	0.111	3.0366774	-33.1742682	-16.615782	91.74776454	-1.24904844	-47.77896762
3.56	356	-0.151	-1.484	0.096	1.718874	-25.8404058	-26.8144344	91.77068286	-0.96829902	-48.02533956
3.57	357	-0.203	-1.601	0.067	2.6356068	-15.9855282	-38.7319608	91.79933076	-0.572958	-48.16857906
3.58	358	-0.244	-1.625	0.026	6.016059	-6.9900876	-47.7846972	91.86235614	-0.09167328	-48.22014528
3.59	359	-0.236	-1.531	-0.005	12.7196676	0.7448454	-49.4462754	91.99413648	0.38961144	-48.19149738
3.6	360	-0.139	-1.357	0.001	21.199446	8.1932994	-43.7166954	92.20040136	0.81360036	-48.09409452
3.61	361	0.023	-1.147	0.018	27.1009134	15.1260912	-33.3461556	92.4754212	1.14018642	-47.9279367
3.62	362	0.157	-1.003	0.024	27.9030546	18.621135	-15.469866	92.7619002	1.28342592	-47.73313098
3.63	363	0.268	-0.932	0.025	23.777757	15.8709366	-0.859437	93.00827214	1.27769634	-47.57270274
3.64	364	0.309	-0.921	0.025	19.5378678	10.0840608	9.453807	93.20307786	1.18029348	-47.47529988
3.65	365	0.304	-0.947	0.018	16.615782	3.9534102	16.1574156	93.3635061	1.0886202	-47.43519282
3.66	366	0.275	-0.97	0.001	13.464513	-2.4064236	19.9389384	93.50101602	0.89381448	-47.4695703
3.67	367	0.228	-0.965	-0.008	8.9954406	-9.5683986	21.8296998	93.5926893	0.6875496	-47.57843232
3.68	368	0.159	-0.947	-0.012	3.8961144	-16.7303736	22.4599536	93.63279636	0.48128472	-47.76177888
3.69	369	0.085	-0.898	-0.027	-2.6356068	-22.8037284	21.8869956	93.60987804	0.286479	-47.99669166
3.7	370	0.003	-0.858	-0.062	-9.9121734	-30.4240698	19.480572	93.48955686	0.10886202	-48.31754814
3.71	371	-0.074	-0.845	-0.08	-13.464513	-34.4920716	15.5844576	93.35777652	-0.01145916	-48.66705252
3.72	372	-0.136	-0.847	-0.093	-15.4125702	-35.6952834	10.6570188	93.20307786	-0.0859437	-49.02801606
3.73	373	-0.161	-0.864	-0.092	-15.9855282	-34.3201842	4.870143	93.0483792	-0.10886202	-49.37179086
3.74	374	-0.152	-0.886	-0.095	-15.3552744	-31.4553942	-1.2032118	92.89368054	-0.07448454	-49.68118818
3.75	375	-0.125	-0.908	-0.091	-13.9228794	-28.1322378	-6.7609044	92.72752272	-0.01145916	-49.9619376
3.76	376	-0.101	-0.929	-0.077	-13.750992	-24.350715	-11.1153852	92.5900128	0.1145916	-50.20257996
3.77	377	-0.094	-0.946	-0.048	-14.32395	-20.912967	-13.9228794	92.4467733	0.26356068	-50.40311526
3.78	378	-0.091	-0.968	-0.028	-14.4958374	-16.042824	-14.8396122	92.29780422	0.42398892	-50.55781392
3.79	379	-0.093	-0.986	-0.012	-14.3812458	-12.605076	-13.750992	92.15456472	0.56722842	-50.6781351
3.8	380	-0.083	-1.017	0.003	-13.6364004	-8.8235532	-11.0007936	91.99986606	0.64744254	-50.76980838
3.81	381	-0.078	-1.044	0.019	-11.45916	-4.6409598	-6.8182002	91.87954488	0.72192708	-50.80991544
3.82	382	-0.073	-1.061	0.027	-9.0527364	-0.286479	-1.9480572	91.7878716	0.73911582	-50.81564502
3.83	383	-0.074	-1.067	0.032	-7.1046792	4.5263682	2.578311	91.71911664	0.71046792	-50.76980838
3.84	384	-0.082	-1.073	0.032	-4.870143	9.5683986	5.9014674	91.66755042	0.64744254	-50.6781351
3.85	385	-0.092	-1.076	0.039	-3.0939732	14.2666542	7.9641162	91.62744336	0.52712136	-50.54635476
3.86	386	-0.092	-1.085	0.049	-1.8334656	19.7097552	9.453807	91.61025462	0.41825934	-50.35727862
3.87	387	-0.086	-1.088	0.057	-1.6615782	22.631841	10.4278356	91.59306588	0.30366774	-50.133825
3.88	388	-0.069	-1.082	0.059	-1.9480572	24.2934192	11.2872726	91.57014756	0.17761698	-49.89891222
3.89	389	-0.054	-1.068	0.062	-2.1199446	24.2361234	12.318597	91.54722924	0.04010706	-49.66399944
3.9	390	-0.036	-1.048	0.061	-2.5210152	22.7464326	13.5791046	91.51858134	-0.10313244	-49.4462754
3.91	391	-0.019	-1.023	0.051	-2.7501984	19.9962342	14.5531332	91.48420386	-0.2578311	-49.25146968
3.92	392	-0.003	-1.001	0.035	-2.86479	16.8449652	15.1260912	91.45555596	-0.41825934	-49.09104144
3.93	393	0.008	-0.984	0.023	-2.8074942	13.2353298	15.5271618	91.42117848	-0.57868758	-48.96499068
3.94	394	0.015	-0.973	0.024	-3.9534102	8.880849	15.3552744	91.38107142	-0.73911582	-48.87904698
3.95	395	0.014	-0.962	0.02	-5.6722842	5.9587632	14.7250206	91.31231646	-0.87662574	-48.82175118
3.96	396	0.005	-0.95	0.024	-8.307891	3.7815228	13.8082878	91.22637276	-1.01986524	-48.79310328
3.97	397	-0.009	-0.947	0.029	-11.4018642	2.8074942	12.7769634	91.11178116	-1.145916	-48.76445538
3.98	398	-0.027	-0.946	0.032	-14.037471	2.6929026	11.2872726	90.96854166	-1.2605076	-48.74153706
3.99	399	-0.05	-0.952	0.026	-15.6417534	2.9793816	9.453807	90.80811342	-1.35791046	-48.71861874
4	400	-0.077	-0.959	0.027	-16.7876694	3.8961144	7.6776372	90.63622602	-1.45531332	-48.68424126
4.01	401	-0.098	-0.97	0.028	-17.2460358	5.6149884	5.8441716	90.45860904	-1.5183387	-48.63267504
4.02	402	-0.108	-0.98	0.033	-17.3033316	9.0527364	4.0680018	90.27526248	-1.56417534	-48.54673134
4.03	403	-0.116	-0.984	0.038	-16.902261	12.2040054	2.9220858	90.0976455	-1.59855282	-48.42641016
4.04	404	-0.12	-0.987	0.042	-16.5011904	15.2979786	2.291832	89.9257581	-1.62720072	-48.27744108
4.05	405	-0.122	-0.987	0.05	-15.756345	18.2773602	1.5469866	89.76532986	-1.67303736	-48.0998241
4.06	406	-0.124	-0.981	0.056	-14.896908	20.5691922	0.5156622	89.60490162	-1.68449652	-47.8992888
4.07	407	-0.122	-0.974	0.064	-14.1520626	22.6891368	-0.7448454	89.45020296	-1.68449652	-47.67583518
4.08	408	-0.115	-0.963	0.077	-13.4072172	24.5226024	-2.1772404	89.30696346	-1.66730778	-47.43519282
4.09	409	-0.099	-0.958	0.087	-12.8342592	26.2414764	-3.7815228	89.16372396	-1.6329303	-47.17736172
4.1	410	-0.077	-0.957	0.09	-11.1153852	27.7311672	-5.156622	89.05486194	-1.59282324	-46.90234188
4.11	411	-0.054	-0.958	0.085	-10.313244	28.074942	-6.4171296	88.94027034	-1.52979786	-46.62732204
4.12	412	-0.036	-0.965	0.086	-9.740286	27.9030546	-7.3911582	88.83140832	-1.4610429	-46.3523022
4.13	413	-0.022	-0.967	0.084	-9.9121734	26.9863218	-8.2505952	88.71681672	-1.38082878	-46.08874152
4.14	414	-0.011	-0.964	0.081	-10.026765	25.3247436	-8.7662574	88.6079547	-1.29488508	-45.84236958
4.15	415	-0.002	-0.96	0.08	-10.1413566	23.4339822	-9.2819196	88.51628142	-1.19748222	-45.6074568
4.16	416	0.003	-0.958	0.073	-10.313244	21.9442914	-9.9694692	88.40168982	-1.10007936	-45.39546234
4.17	417	0.004	-0.957	0.071	-10.599723	19.9389384	-10.7716104	88.28709822	-0.99121734	-45.20065662
4.18	418	0.008	-0.958	0.085	-10.2559482	18.334656	-12.032118	88.1782362	-0.87662574	-45.02876922
4.19	419	0.007	-0.957	0.082	-9.6256944	18.048177	-13.0634424	88.07510376	-0.7448454	-44.85115224
4.2	420	0.004	-0.95	0.081	-8.880849	18.2773602	-13.9228794	88.0063488	-0.6016059	-44.67353526
4.21	421	-0.002	-0.948	0.084	-7.9641162	18.7357266	-14.5531332	87.9204051	-0.45263682	-44.49591828
4.22	422	-0.011	-0.951	0.086	-7.161975	19.0222056	-15.0687954	87.84019098	-0.30366774	-44.31257172
4.23	423	-0.022	-0.953	0.089	-6.3598338	19.194093	-15.4125702	87.77143602	-0.14896908	-44.12922516
4.24	424	-0.032	-0.956	0.096	-5.2712136	19.6524594	-15.5271618	87.71414022	0	-43.94014902
4.25	425	-0.037	-0.962	0.106	-4.1825934	20.4546006	-15.3552744	87.70268106	0.14896908	-43.73961372
4.26	426	-0.035	-0.961	0.104	-3.0939732	21.772404	-14.5531332	87.66830358	0.29793816	-43.53334884
4.27	427	-0.031	-0.955	0.103	-2.1199446	23.0329116	-13.5218088	87.64538526	0.43544808	-43.30989522
4.28	428	-0.027	-0.951	0.097	-0.572958	24.350715	-12.7769634	87.6339261	0.56722842	-43.06925286
4.29	429	-0.022	-0.948	0.1	1.5469866	25.78311	-12.1467096	87.65111484	0.6875496	-42.82288092
4.3	430	-0.015	-0.95	0.11	4.2398892	27.4446882	-11.745639	87.72559938	0.80787078	-42.54786108
4.31	431	-0.01	-0.955	0.124	6.302538	29.3354496	-11.2872726	87.78862476	0.92246238	-42.26138208
4.32	432	-0.012	-0.952	0.14	8.4224826	31.1116194	-10.886202	87.87456846	1.03705398	-41.95771434
4.33	433	-0.011	-0.943	0.151	10.599723	32.658606	-10.6570188	87.98343048	1.145916	-41.63685786
4.34	434	-0.011	-0.926	0.159	12.9488508	33.9764094	-10.7143146	88.1209404	1.25477802	-41.30454222
4.35	435	-0.013	-0.909	0.169	15.2406828	35.0077338	-10.9434978	88.30428696	1.36364004	-40.95503784
4.36	436	-0.018	-0.901	0.173	17.8762896	36.4401288	-11.3445684	88.4933631	1.47823164	-40.5940743
4.37	437	-0.024	-0.903	0.171	19.1367972	36.8984952	-11.1153852	88.68816882	1.58709366	-40.23311076
4.38	438	-0.026	-0.909	0.175	19.194093	35.4661002	-10.0840608	88.88870412	1.6902261	-39.8778768
4.39	439	-0.028	-0.932	0.175	19.480572	35.236917	-8.7089616	89.094969	1.77044022	-39.52837242
4.4	440	-0.024	-0.975	0.144	18.7357266	34.7212548	-6.3598338	89.31269304	1.82200644	-39.18459762
4.41	441	-0.018	-1.041	0.111	17.0741484	32.4867186	-3.151269	89.49031002	1.85065434	-38.85801156
4.42	442	0.001	-1.112	0.104	15.1260912	29.3354496	1.145916	89.65073826	1.8334656	-38.56580298
4.43	443	0.039	-1.181	0.105	11.9748222	26.929026	5.2712136	89.77678902	1.7761698	-38.29651272
4.44	444	0.092	-1.224	0.082	6.302538	23.0329116	9.740286	89.84554398	1.67876694	-38.0730591
4.45	445	0.147	-1.262	0.024	-0.286479	16.7876694	15.2406828	89.8398144	1.53552744	-37.9011717
4.46	446	0.185	-1.327	-0.03	-2.2345362	5.3285094	21.5432208	89.82262566	1.3178034	-37.84960548
4.47	447	0.227	-1.399	-0.051	0	-4.583664	26.8717302	89.82262566	1.05424272	-37.89544212
4.48	448	0.259	-1.417	-0.065	4.3544808	-10.1986524	29.1062664	89.86273272	0.76776372	-37.99857456
4.49	449	0.256	-1.341	-0.061	8.880849	-14.8396122	29.3354496	89.954406	0.47555514	-38.14181406
4.5	450	0.204	-1.235	-0.05	11.5164558	-19.8243468	28.1322378	90.0689976	0.22345362	-38.33661978
4.51	451	0.101	-1.131	-0.051	11.5164558	-25.210152	25.7258142	90.18931878	-0.01718874	-38.5887213
4.52	452	-0.016	-1.056	-0.041	13.0061466	-28.934379	21.0275586	90.3268287	-0.21772404	-38.8752003
4.53	453	-0.118	-1.009	-0.018	15.6990492	-30.5959572	13.8655836	90.49298652	-0.3437748	-39.17313846
4.54	454	-0.191	-0.986	0	20.340009	-29.4500412	4.9847346	90.70498098	-0.38388186	-39.46534704
4.55	455	-0.217	-0.973	0.014	23.6058696	-25.0955604	-3.3231564	90.93989376	-0.37815228	-39.71744856
4.56	456	-0.21	-0.97	0.027	24.2361234	-18.9649098	-9.5111028	91.19199528	-0.26929026	-39.89506554
4.57	457	-0.177	-0.962	0.037	22.9756158	-11.5737516	-13.6936962	91.42690806	-0.12605076	-40.00392756
4.58	458	-0.142	-0.95	0.035	19.194093	-2.8074942	-16.4438946	91.62171378	0.03437748	-40.02684588
4.59	459	-0.102	-0.923	0.026	15.183387	3.6096354	-16.9595568	91.77641244	0.2005353	-39.98100924
4.6	460	-0.061	-0.897	0.009	10.7716104	8.8235532	-15.6417534	91.8738153	0.33804522	-39.89506554
4.61	461	-0.02	-0.882	-0.008	5.7868758	13.6936962	-13.464513	91.9311111	0.46409598	-39.75182604
4.62	462	0.02	-0.87	-0.031	-0.1145916	17.4179232	-10.1413566	91.92538152	0.55576926	-39.57420906
4.63	463	0.059	-0.875	-0.048	-5.2139178	19.6524594	-6.016059	91.8738153	0.6016059	-39.37940334
4.64	464	0.088	-0.892	-0.061	-8.9381448	20.7410796	-1.7761698	91.78214202	0.60733548	-39.17886804
4.65	465	0.108	-0.913	-0.073	-12.7196676	20.1681216	2.7501984	91.62171378	0.59014674	-38.98406232
4.66	466	0.12	-0.931	-0.085	-16.902261	17.5898106	6.9327918	91.44982638	0.5156622	-38.81217492
4.67	467	0.132	-0.953	-0.085	-19.3086846	14.4385416	9.3392154	91.24929108	0.41252976	-38.674665
4.68	468	0.147	-0.991	-0.078	-19.5378678	10.1986524	10.1413566	91.04875578	0.30366774	-38.57726214
4.69	469	0.155	-1.016	-0.063	-17.8762896	5.5003968	8.880849	90.8711388	0.21199446	-38.52569592
4.7	470	0.157	-1.044	-0.049	-15.3552744	1.2605076	6.1879464	90.68206266	0.21772404	-38.51423676
4.71	471	0.15	-1.063	-0.039	-11.2872726	-2.9793816	2.5210152	90.56747106	0.18907614	-38.54288466
4.72	472	0.142	-1.069	-0.036	-7.0473834	-7.734933	-1.3750992	90.49298652	0.20626488	-38.62309878
4.73	473	0.135	-1.065	-0.024	-3.0939732	-12.4331886	-4.9274388	90.46433862	0.2578311	-38.74341996
4.74	474	0.126	-1.056	-0.004	0.8021412	-18.5065434	-7.3338624	90.47579778	0.33804522	-38.92676652
4.75	475	0.117	-1.053	0.012	2.9220858	-22.5172494	-8.880849	90.50444568	0.46409598	-39.14449056
4.76	476	0.107	-1.057	0.03	4.9274388	-24.9809688	-10.1413566	90.5560119	0.572958	-39.3908625
4.77	477	0.097	-1.07	0.052	6.7609044	-25.7258142	-11.2872726	90.62476686	0.69900876	-39.64296402
4.78	478	0.087	-1.077	0.073	7.2765666	-25.1528562	-12.4904844	90.6992514	0.8307891	-39.88933596
4.79	479	0.083	-1.079	0.088	5.9014674	-23.4339822	-13.6936962	90.7565472	0.97975818	-40.11851916
4.8	480	0.081	-1.07	0.097	3.9534102	-20.912967	-14.4385416	90.813843	1.145916	-40.31905446
4.81	481	0.082	-1.048	0.099	1.6615782	-17.5325148	-14.896908	90.83103174	1.30061466	-40.49094186
4.82	482	0.089	-1.026	0.094	-1.6615782	-13.1207382	-14.7250206	90.813843	1.45531332	-40.61699262
4.83	483	0.093	-1.003	0.079	-3.8388186	-9.8548776	-14.2666542	90.76800636	1.59855282	-40.71439548
4.84	484	0.097	-0.986	0.061	-5.5576926	-7.5057498	-13.464513	90.71071056	1.73606274	-40.78888002
4.85	485	0.098	-0.97	0.047	-6.7609044	-6.6463128	-12.605076	90.64768518	1.8907614	-40.84617582
4.86	486	0.097	-0.96	0.037	-8.1360036	-7.0473834	-11.6310474	90.56174148	2.01108258	-40.91493078
4.87	487	0.097	-0.955	0.029	-9.5683986	-8.7089616	-10.4278356	90.46433862	2.11421502	-41.00087448
4.88	488	0.101	-0.952	0.022	-10.886202	-11.172681	-9.2246238	90.34974702	2.21161788	-41.11546608
4.89	489	0.11	-0.949	0.017	-12.4331886	-14.32395	-7.9068204	90.21796668	2.291832	-41.25870558
4.9	490	0.116	-0.95	0.013	-13.2353298	-18.8503182	-6.8182002	90.08045676	2.38923486	-41.44205214
4.91	491	0.124	-0.953	0.018	-13.5791046	-22.5172494	-6.2452422	89.93148768	2.45798982	-41.66550576
4.92	492	0.136	-0.958	0.02	-14.037471	-25.7258142	-5.9014674	89.7825186	2.5210152	-41.92333686
4.93	493	0.149	-0.965	0.023	-14.32395	-28.7051958	-5.72958	89.62781994	2.58404058	-42.20981586
4.94	494	0.154	-0.972	0.025	-14.3812458	-31.3408026	-5.5576926	89.47312128	2.64133638	-42.51921318
4.95	495	0.155	-0.981	0.029	-13.8082878	-33.6899304	-5.2139178	89.32988178	2.7215505	-42.85152882
4.96	496	0.149	-0.993	0.037	-13.0634424	-35.5806918	-4.583664	89.1809127	2.77311672	-43.20676278
4.97	497	0.133	-1.007	0.048	-12.2613012	-36.8411994	-3.6669312	89.04340278	2.81322378	-43.5734559
4.98	498	0.112	-1.011	0.06	-10.8289062	-38.2162986	-2.5210152	88.9230816	2.84187168	-43.95733776
4.99	499	0.093	-1.008	0.075	-10.0840608	-38.388186	-1.2605076	88.80276042	2.85333084	-44.33549004
5	500	0.075	-0.998	0.083	-9.8548776	-37.4714532	0	88.71108714	2.86479	-44.70218316
5.01	501	0.061	-0.985	0.087	-10.1413566	-36.669312	0.9740286	88.59076596	2.85333084	-45.06887628
5.02	502	0.045	-0.973	0.089	-9.8548776	-35.7525792	1.8907614	88.48190394	2.8361421	-45.42411024
5.03	503	0.034	-0.966	0.09	-9.5111028	-34.7785506	2.4637194	88.37304192	2.8074942	-45.76788504
5.04	504	0.027	-0.963	0.092	-9.453807	-34.0337052	3.0366774	88.2641799	2.7788463	-46.10593026
5.05	505	0.033	-0.965	0.094	-9.2246238	-33.3461556	3.8388186	88.18396578	2.73873924	-46.43251632
5.06	506	0.046	-0.97	0.095	-9.453807	-33.0596766	4.870143	88.07510376	2.68717302	-46.75910238
5.07	507	0.065	-0.969	0.082	-10.5424272	-32.3148312	6.016059	87.95478258	2.62414764	-47.07995886
5.08	508	0.088	-0.961	0.076	-11.8602306	-30.4240698	7.0473834	87.82873182	2.5496631	-47.37789702
5.09	509	0.107	-0.955	0.078	-12.891555	-29.1635622	7.734933	87.68549232	2.46944898	-47.66437602
5.1	510	0.118	-0.95	0.076	-14.5531332	-29.5646328	8.2505952	87.55371198	2.40069402	-47.95085502
5.11	511	0.122	-0.942	0.072	-15.5271618	-30.5959572	8.3651868	87.38755416	2.30902074	-48.25452276
5.12	512	0.122	-0.94	0.082	-15.8136408	-31.7418732	7.8495246	87.21566676	2.22307704	-48.56392008
5.13	513	0.12	-0.944	0.094	-16.1001198	-32.945085	7.2192708	87.04377936	2.14286292	-48.89050614
5.14	514	0.12	-0.939	0.09	-16.042824	-34.2628884	6.5317212	86.87189196	2.06837838	-49.22855136
5.15	515	0.12	-0.93	0.086	-15.1260912	-35.1223254	6.1306506	86.74011162	2.01681216	-49.56659658
5.16	516	0.116	-0.925	0.098	-12.9488508	-36.2109456	5.9014674	86.59687212	1.9480572	-49.92756012
5.17	517	0.106	-0.926	0.105	-10.4278356	-37.24227	5.5576926	86.4880101	1.87930224	-50.28852366
5.18	518	0.094	-0.931	0.105	-9.0527364	-37.4714532	5.156622	86.38487766	1.81627686	-50.66094636
5.19	519	0.088	-0.938	0.115	-7.2765666	-36.4401288	4.3544808	86.30466354	1.75898106	-51.01618032
5.2	520	0.082	-0.952	0.134	-5.0993262	-36.096354	3.6669312	86.29320438	1.72460358	-51.3656847
5.21	521	0.077	-0.967	0.133	-3.9534102	-36.096354	3.151269	86.24736774	1.67876694	-51.72091866
5.22	522	0.072	-0.988	0.103	-4.6982556	-35.9817624	2.7501984	86.19580152	1.63865988	-52.07615262
5.23	523	0.065	-1.021	0.076	-6.9327918	-35.236917	1.7761698	86.12131698	1.6042824	-52.425657
5.24	524	0.045	-1.068	0.069	-8.7089616	-32.5440144	0	86.02391412	1.59282324	-52.74651348
5.25	525	0.022	-1.121	0.074	-10.1986524	-28.3041252	-2.9220858	85.93797042	1.6042824	-53.0272629
5.26	526	-0.01	-1.174	0.044	-13.5218088	-24.8663772	-6.1306506	85.8004605	1.65584862	-53.27936442
5.27	527	-0.05	-1.224	-0.037	-21.485925	-22.9756158	-9.740286	85.57700688	1.73606274	-53.5142772
5.28	528	-0.093	-1.294	-0.096	-28.361421	-15.469866	-15.3552744	85.2847983	1.87930224	-53.6861646
5.29	529	-0.158	-1.425	-0.108	-30.653253	-6.1879464	-24.2934192	84.9696714	2.11421502	-53.76637872
5.3	530	-0.21	-1.53	-0.107	-34.8931422	8.307891	-36.096354	84.61443744	2.4637194	-53.72054208
5.31	531	-0.195	-1.478	-0.13	-38.674665	19.480572	-38.1590028	84.23055558	2.85333084	-53.571573
5.32	532	-0.111	-1.286	-0.169	-40.7946096	27.215505	-30.1375908	83.8237554	3.16845774	-53.33666022
5.33	533	0.019	-1.072	-0.186	-42.5707794	27.4446882	-16.5011904	83.39976648	3.3518043	-53.0845587
5.34	534	0.14	-0.941	-0.19	-41.539455	23.777757	-2.86479	82.98723672	3.39764094	-52.86110508
5.35	535	0.234	-0.893	-0.176	-42.5134836	19.0795014	8.1932994	82.55751822	3.36326346	-52.66629936
5.36	536	0.299	-0.881	-0.177	-49.3889796	13.3499214	15.5271618	82.05904476	3.22002396	-52.51733028
5.37	537	0.317	-0.861	-0.187	-51.3370368	2.6929026	20.340009	81.54338256	3.01375908	-52.46576406
5.38	538	0.293	-0.881	-0.178	-45.4355694	-12.5477802	22.4026578	81.07928658	2.7788463	-52.56316692
5.39	539	0.252	-0.915	-0.157	-47.4982182	-24.6944898	21.5432208	80.59227228	2.52674478	-52.77516138
5.4	540	0.225	-0.917	-0.096	-53.285094	-34.8358464	19.1367972	80.04796218	2.30329116	-53.09028828
5.41	541	0.204	-0.886	-0.045	-58.6708992	-40.7946096	14.896908	79.44635628	2.0912967	-53.46844056
5.42	542	0.178	-0.885	-0.076	-63.3691548	-43.258329	9.8548776	78.79318416	1.9194093	-53.87524074
5.43	543	0.146	-0.904	-0.12	-66.6923112	-47.0398518	5.0993262	78.10563456	1.78762896	-54.33360714
5.44	544	0.103	-0.925	-0.108	-69.1560306	-52.139178	1.2032118	77.39516664	1.67303736	-54.84353976
5.45	545	0.049	-0.946	-0.046	-69.3852138	-58.6708992	-2.4637194	76.69615788	1.5756345	-55.42222734
5.46	546	0.014	-0.961	-0.073	-74.0834694	-63.1399716	-4.870143	75.93985332	1.48396122	-56.05248114
5.47	547	-0.003	-0.929	-0.131	-78.3806544	-62.3378304	-6.4171296	75.13198254	1.39801752	-56.67700536
5.48	548	-0.013	-0.921	-0.158	-76.9482594	-61.5356892	-6.8182002	74.34703008	1.31207382	-57.29007042
5.49	549	-0.016	-0.922	-0.147	-73.7969904	-61.0773228	-6.7609044	73.59072552	1.22040054	-57.90313548
5.5	550	-0.01	-0.944	-0.15	-72.0208206	-58.8427866	-6.6463128	72.86306886	1.12299768	-58.48755264
5.51	551	-0.019	-0.963	-0.174	-69.327918	-55.4623344	-6.8182002	72.15833052	1.02559482	-59.0433219
5.52	552	-0.037	-0.987	-0.196	-65.7182826	-51.4516284	-7.3338624	71.48796966	0.9453807	-59.5589841
5.53	553	-0.055	-1.013	-0.22	-61.1346186	-45.550161	-8.3651868	70.86917502	0.88235532	-60.0173505
5.54	554	-0.075	-1.053	-0.253	-56.3217714	-36.669312	-8.9381448	70.29621702	0.84797784	-60.40123236
5.55	555	0.03	-0.766	-0.525	-27.2728008	19.9389384	18.7930224	61.05440448	0.03437748	-59.1006177
5.56	556	-0.011	-0.728	-0.538	-23.2620948	21.3713334	16.9595568	60.78511422	-0.02291832	-58.83705702
5.57	557	-0.059	-0.709	-0.54	-19.1367972	21.6005166	14.8396122	60.5903085	-0.05156622	-58.57922592
5.58	558	-0.104	-0.68	-0.527	-15.9282324	21.3713334	12.7769634	60.42415068	-0.06875496	-58.3271244
5.59	559	-0.121	-0.65	-0.505	-10.3705398	21.2567418	11.1153852	60.31528866	-0.06875496	-58.09221162
5.6	560	-0.095	-0.633	-0.493	-5.2712136	21.6005166	10.026765	60.25799286	-0.05156622	-57.85156926
5.61	561	-0.051	-0.628	-0.489	-2.3491278	23.0329116	8.6516658	60.20069706	-0.03437748	-57.6109269
5.62	562	-0.022	-0.628	-0.465	-2.3491278	24.4653066	6.4744254	60.17204916	0.02291832	-57.37028454
5.63	563	0	-0.628	-0.491	0.2291832	26.0122932	4.1252976	60.17204916	0.10886202	-57.11818302
5.64	564	0	-0.667	-0.466	3.4950438	26.6998428	1.432395	60.20642664	0.21772404	-56.87754066
5.65	565	-0.003	-0.7	-0.475	3.2658606	26.7571386	-0.5156622	60.23507454	0.34950438	-56.64835746
5.66	566	0.004	-0.732	-0.473	3.0939732	26.4133638	-0.4583664	60.24080412	0.47555514	-56.42490384
5.67	567	0.023	-0.747	-0.475	2.86479	26.4706596	1.2605076	60.26945202	0.59014674	-56.18426148
5.68	568	0.049	-0.758	-0.464	3.9534102	26.8144344	3.2658606	60.30955908	0.6875496	-55.93788954
5.69	569	0.08	-0.761	-0.458	4.9847346	26.929026	4.9274388	60.3611253	0.76776372	-55.67432886
5.7	570	0.101	-0.752	-0.458	6.9327918	26.7571386	5.5576926	60.42988026	0.84797784	-55.41649776
5.71	571	0.121	-0.746	-0.466	8.7662574	25.78311	5.2712136	60.5043648	0.95111028	-55.15866666
5.72	572	0.136	-0.741	-0.485	10.2559482	23.3193906	4.0680018	60.60749724	1.02559482	-54.93521304
5.73	573	0.147	-0.738	-0.504	11.5737516	18.9649098	2.6929026	60.72781842	1.0886202	-54.75759606
5.74	574	0.157	-0.747	-0.512	12.605076	13.6936962	1.5469866	60.85959876	1.14018642	-54.62581572
5.75	575	0.161	-0.772	-0.515	12.891555	8.1932994	1.2605076	60.9913791	1.16883432	-54.5456016
5.76	576	0.164	-0.8	-0.529	11.6883432	3.8961144	1.6615782	61.04294532	1.27769634	-54.49976496
5.77	577	0.165	-0.835	-0.54	10.9434978	-0.4010706	2.3491278	61.15180734	1.25477802	-54.49403538
5.78	578	0.155	-0.867	-0.547	10.026765	-5.0420304	3.151269	61.25493978	1.20894138	-54.52268328
5.79	579	0.138	-0.893	-0.553	8.4797784	-10.026765	3.9534102	61.34088348	1.12872726	-54.59143824
5.8	580	0.126	-0.903	-0.546	6.302538	-13.6364004	4.4117766	61.40390886	1.0313244	-54.6888411
5.81	581	0.129	-0.898	-0.545	4.6982556	-15.3552744	4.5263682	61.4210976	0.9740286	-54.79770312
5.82	582	0.155	-0.878	-0.555	3.3804522	-16.7876694	4.6409598	61.46120466	0.859437	-54.92375388
5.83	583	0.186	-0.857	-0.562	3.151269	-20.340009	4.2398892	61.48985256	0.72765666	-55.08418212
5.84	584	0.198	-0.847	-0.567	3.8961144	-24.637194	3.437748	61.52995962	0.59014674	-55.28471742
5.85	585	0.188	-0.854	-0.561	5.0420304	-28.5333084	2.7501984	61.58725542	0.43544808	-55.52535978
5.86	586	0.169	-0.872	-0.552	5.5576926	-31.3980984	2.0626488	61.6216329	0.32085648	-55.78892046
5.87	587	0.141	-0.895	-0.549	6.3598338	-33.7472262	1.5469866	61.69038786	0.16042824	-56.08112904
5.88	588	0.112	-0.912	-0.542	6.589017	-35.4088044	1.3178034	61.7648724	-0.00572958	-56.38479678
5.89	589	0.082	-0.918	-0.54	6.4171296	-35.9817624	1.6042824	61.83362736	-0.17761698	-56.6941941
5.9	590	0.065	-0.916	-0.533	6.0733548	-35.5806918	2.0626488	61.90238232	-0.34950438	-56.99786184
5.91	591	0.057	-0.907	-0.521	5.5576926	-34.3201842	2.6929026	61.95394854	-0.50993262	-57.29007042
5.92	592	0.064	-0.891	-0.516	4.4117766	-34.2055926	3.3231564	62.00551476	-0.6875496	-57.57654942
5.93	593	0.075	-0.871	-0.51	3.6096354	-35.8671708	4.010706	62.0513514	-0.88235532	-57.87448758
5.94	594	0.083	-0.858	-0.505	3.0366774	-37.8725238	4.4117766	62.09145846	-1.08289062	-58.18961448
5.95	595	0.084	-0.848	-0.504	2.6356068	-40.6227222	4.4690724	62.13156552	-1.30061466	-58.53338928
5.96	596	0.078	-0.848	-0.487	2.5210152	-41.9978214	3.8961144	62.16021342	-1.49542038	-58.88289366
5.97	597	0.07	-0.857	-0.47	2.291832	-41.539455	2.9220858	62.20032048	-1.70168526	-59.23812762
5.98	598	0.06	-0.873	-0.464	2.4064236	-40.3362432	1.718874	62.24042754	-1.8907614	-59.587632
5.99	599	0.047	-0.885	-0.467	1.6042824	-39.0184398	-0.4010706	62.27480502	-2.05691922	-59.93713638
6	600	0.042	-0.891	-0.465	0.8021412	-38.0444112	-2.291832	62.29772334	-2.2058883	-60.28664076
6.01	601	0.042	-0.884	-0.465	0.0572958	-37.1276784	-3.7815228	62.31491208	-2.30902074	-60.63041556
6.02	602	0.048	-0.877	-0.463	0.0572958	-37.1276784	-4.4690724	62.33210082	-2.42934192	-60.97991994
6.03	603	0.054	-0.868	-0.457	0.3437748	-37.9871154	-4.1825934	62.35501914	-2.55539268	-61.3351539
6.04	604	0.058	-0.857	-0.46	0.4583664	-39.820581	-3.2085648	62.38366704	-2.70436176	-61.7075766
6.05	605	0.053	-0.851	-0.475	0.1718874	-43.1437374	-2.0626488	62.41231494	-2.87051958	-62.09718804
6.06	606	0.043	-0.86	-0.475	-0.3437748	-46.0085274	-1.0313244	62.4237741	-3.0366774	-62.5097178
6.07	607	0.03	-0.882	-0.486	-0.286479	-46.6387812	-1.2032118	62.452422	-3.23148312	-62.93370672
6.08	608	0.025	-0.91	-0.476	0.286479	-44.6334282	-2.3491278	62.48679948	-3.40337052	-63.3405069
6.09	609	0.019	-0.935	-0.464	-0.0572958	-41.4248634	-3.4950438	62.51544738	-3.54661002	-63.72438876
6.1	610	0.015	-0.943	-0.458	-0.0572958	-39.1330314	-4.4117766	62.5383657	-3.67839036	-64.09681146
6.11	611	0.022	-0.938	-0.458	0.4010706	-38.1590028	-4.9847346	62.57274318	-3.77579322	-64.457775
6.12	612	0.035	-0.916	-0.462	1.145916	-38.7892566	-5.156622	62.61285024	-3.8961144	-64.82446812
6.13	613	0.053	-0.889	-0.442	3.0939732	-39.6486936	-4.8128472	62.67587562	-4.02216516	-65.2026204
6.14	614	0.068	-0.879	-0.429	5.443101	-39.9351726	-4.1252976	62.7675489	-4.1539455	-65.5750431
6.15	615	0.08	-0.876	-0.422	6.016059	-40.8519054	-3.4950438	62.85922218	-4.297185	-65.95892496
6.16	616	0.079	-0.87	-0.419	5.6722842	-41.9978214	-3.0366774	62.95662504	-4.4117766	-66.34280682
6.17	617	0.073	-0.857	-0.413	6.0733548	-42.685371	-3.437748	63.0540279	-4.56074568	-66.74387742
6.18	618	0.068	-0.846	-0.413	9.0527364	-42.7426668	-4.6409598	63.18580824	-4.70398518	-67.14494802
6.19	619	0.064	-0.854	-0.406	13.0061466	-42.2270046	-5.8441716	63.35196606	-4.82430636	-67.5517482
6.2	620	0.054	-0.879	-0.373	13.178034	-41.8832298	-6.8182002	63.52958304	-4.93889796	-67.95854838
6.21	621	0.045	-0.899	-0.355	8.59437	-40.7946096	-7.6776372	63.66709296	-5.00765292	-68.3538894
6.22	622	0.045	-0.895	-0.395	5.9587632	-40.5081306	-8.307891	63.7702254	-5.0993262	-68.75496
6.23	623	0.042	-0.886	-0.397	6.016059	-41.0237928	-8.3651868	63.86762826	-5.19099948	-69.16176018
6.24	624	0.039	-0.878	-0.373	7.1046792	-40.7373138	-7.8495246	63.98221986	-5.28840234	-69.56283078
6.25	625	0.036	-0.876	-0.364	7.7922288	-40.6227222	-6.875496	64.10827062	-5.39153478	-69.96390138
6.26	626	0.042	-0.871	-0.356	7.6776372	-40.3362432	-6.1306506	64.23432138	-5.4717489	-70.34778324
6.27	627	0.051	-0.868	-0.365	7.3338624	-39.534102	-5.6149884	64.34891298	-5.58061092	-70.7316651
6.28	628	0.059	-0.857	-0.378	5.9587632	-39.9924684	-5.443101	64.457775	-5.68947294	-71.12127654
6.29	629	0.06	-0.839	-0.374	4.6982556	-41.3102718	-5.72958	64.54944828	-5.80406454	-71.51661756
6.3	630	0.06	-0.822	-0.367	3.8388186	-41.7113424	-6.302538	64.63539198	-5.91292656	-71.92341774
6.31	631	0.061	-0.815	-0.367	2.9220858	-41.9978214	-7.1046792	64.70987652	-5.97595194	-72.33021792
6.32	632	0.063	-0.813	-0.361	1.718874	-43.2010332	-8.021412	64.77863148	-6.07908438	-72.75993642
6.33	633	0.065	-0.816	-0.321	2.0626488	-43.9458786	-9.0527364	64.85311602	-6.17075766	-73.20111408
6.34	634	0.072	-0.836	-0.293	1.2032118	-42.8572584	-9.6829902	64.9161414	-6.25097178	-73.63083258
6.35	635	0.091	-0.841	-0.329	-2.1772404	-43.6021038	-9.9694692	64.95051888	-6.3311859	-74.07201024
6.36	636	0.114	-0.84	-0.353	-3.2658606	-46.2377106	-9.8548776	64.97916678	-6.37702254	-74.53037664
6.37	637	0.13	-0.838	-0.36	-4.1252976	-47.7274014	-9.2819196	64.99635552	-6.48588456	-75.00593178
6.38	638	0.132	-0.834	-0.368	-5.156622	-49.1025006	-8.4797784	65.0020851	-6.60047616	-75.4872165
6.39	639	0.125	-0.83	-0.358	-5.3858052	-50.7640788	-8.1360036	65.01354426	-6.72652692	-75.98568996
6.4	640	0.114	-0.833	-0.358	-5.2712136	-51.7954032	-8.307891	65.02500342	-6.85830726	-76.49562258
6.41	641	0.101	-0.839	-0.358	-5.2139178	-53.9153478	-8.6516658	65.04792174	-6.94998054	-77.02274394
6.42	642	0.094	-0.849	-0.342	-5.0993262	-55.1185596	-9.2246238	65.07084006	-7.08749046	-77.56705404
6.43	643	0.098	-0.859	-0.331	-5.7868758	-55.0612638	-10.026765	65.08229922	-7.21354122	-78.11136414
6.44	644	0.108	-0.855	-0.341	-7.8495246	-54.5456016	-10.599723	65.08229922	-7.32813282	-78.65567424
6.45	645	0.124	-0.844	-0.339	-9.6829902	-55.1758554	-10.9434978	65.0593809	-7.448454	-79.2114435
6.46	646	0.141	-0.834	-0.334	-11.0580894	-57.0666168	-10.7143146	65.030733	-7.5343977	-79.77294234
6.47	647	0.15	-0.829	-0.324	-11.9175264	-60.0459984	-10.1986524	64.99635552	-7.6776372	-80.36881866
6.48	648	0.148	-0.83	-0.32	-13.9228794	-63.3691548	-9.9694692	64.95051888	-7.83806544	-80.9876133
6.49	649	0.151	-0.82	-0.332	-15.2406828	-66.5777196	-9.9694692	64.89322308	-8.01568242	-81.64078542
6.5	650	0.171	-0.827	-0.365	-16.6730778	-67.609044	-10.4851314	64.82446812	-8.18756982	-82.3054167
6.51	651	0.188	-0.838	-0.347	-17.0741484	-70.9894962	-10.7716104	64.76717232	-8.33080932	-82.99869588
6.52	652	0.194	-0.839	-0.308	-17.4179232	-77.0055552	-9.5683986	64.70987652	-8.55426294	-83.74927086
6.53	653	0.205	-0.832	-0.274	-18.2200644	-83.4799806	-8.9381448	64.6583103	-8.80636446	-84.55141206
6.54	654	0.199	-0.794	-0.277	-21.5432208	-85.5426294	-9.3392154	64.57809618	-9.06419556	-85.37647158
6.55	655	0.184	-0.751	-0.294	-25.210152	-84.5686008	-10.599723	64.46350458	-9.3105675	-86.2015311
6.56	656	0.145	-0.722	-0.295	-28.3041252	-83.651868	-12.318597	64.32026508	-9.51683238	-87.01513146
6.57	657	0.097	-0.704	-0.289	-30.9970278	-83.5945722	-14.1520626	64.15983684	-9.72882684	-87.84592056
6.58	658	0.056	-0.692	-0.269	-32.8877892	-85.8291084	-15.2406828	63.98221986	-9.94655088	-88.69962798
6.59	659	0.023	-0.681	-0.257	-34.2628884	-88.235532	-15.2406828	63.7988733	-10.17573408	-89.57625372
6.6	660	0.009	-0.667	-0.25	-35.2942128	-90.9857304	-14.32395	63.60979716	-10.4278356	-90.4700682
6.61	661	0.008	-0.646	-0.221	-34.6066632	-94.3088868	-12.1467096	63.44363934	-10.70858502	-91.39253058
6.62	662	0.027	-0.626	-0.209	-33.0023808	-95.8558734	-9.740286	63.29467026	-11.02371192	-92.30926338
6.63	663	0.041	-0.607	-0.208	-32.8304934	-94.9964364	-8.9381448	63.15143076	-11.35029798	-93.2202666
6.64	664	0.041	-0.582	-0.194	-33.3461556	-93.5640414	-9.2819196	63.00819126	-11.66542488	-94.11981066
6.65	665	0.038	-0.551	-0.205	-34.2628884	-92.246238	-10.313244	62.8534926	-11.96909262	-95.00789556
6.66	666	0.032	-0.52	-0.216	-34.7212548	-92.1889422	-11.45916	62.70452352	-12.25557162	-95.90171004
6.67	667	0.025	-0.506	-0.224	-33.6899304	-92.7046044	-12.4904844	62.5670136	-12.5477802	-96.80698368
6.68	668	0.017	-0.507	-0.247	-32.8877892	-91.9024632	-12.8342592	62.44096284	-12.8342592	-97.71225732
6.69	669	0.017	-0.505	-0.261	-32.7159018	-90.1835892	-12.2040054	62.32064166	-13.1207382	-98.59461264
6.7	670	0.026	-0.505	-0.289	-33.3461556	-88.1209404	-10.7716104	62.18886132	-13.41867636	-99.44832006
6.71	671	0.043	-0.51	-0.307	-34.3201842	-87.662574	-9.3392154	62.04562182	-13.70515536	-100.2905683
6.72	672	0.068	-0.523	-0.313	-34.7212548	-89.2668564	-8.4224826	61.9081119	-14.02601184	-101.1500053
6.73	673	0.087	-0.536	-0.288	-35.8671708	-93.4494498	-8.59437	61.77633156	-14.36978664	-102.0438198
6.74	674	0.107	-0.544	-0.291	-37.6433406	-96.1996482	-9.167328	61.64455122	-14.71929102	-102.9662822
6.75	675	0.12	-0.539	-0.277	-39.4195104	-98.9498466	-9.453807	61.50131172	-15.08598414	-103.923122
6.76	676	0.144	-0.522	-0.286	-40.9092012	-103.0178484	-9.8548776	61.35234264	-15.4412181	-104.9086098
6.77	677	0.161	-0.507	-0.312	-40.5654264	-106.570188	-10.5424272	61.23202146	-15.83082954	-105.9399342
6.78	678	0.14	-0.484	-0.297	-39.1903272	-111.0392604	-12.605076	61.15180734	-16.23190014	-107.0170952
6.79	679	0.096	-0.451	-0.302	-41.3102718	-111.72681	-13.9801752	61.05440448	-16.62151158	-108.1171746
6.8	680	0.073	-0.437	-0.311	-43.0291458	-112.013289	-13.9801752	60.95127204	-17.01112302	-109.217254
6.81	681	0.066	-0.442	-0.276	-41.8832298	-113.5029798	-12.032118	60.86532834	-17.41219362	-110.3173333
6.82	682	0.04	-0.449	-0.254	-39.9924684	-115.5656286	-8.0787078	60.80803254	-17.8762896	-111.4231423
6.83	683	0.024	-0.427	-0.236	-37.6433406	-116.9407278	-2.6929026	60.78511422	-18.3919518	-112.517492
6.84	684	0.019	-0.389	-0.217	-36.2109456	-117.169911	3.9534102	60.77365506	-18.97063938	-113.5831939
6.85	685	0.014	-0.365	-0.185	-35.1223254	-113.5029798	11.6883432	60.7621959	-19.5951636	-114.5801408
6.86	686	0.025	-0.353	-0.171	-37.7006364	-104.0491728	22.6891368	60.68198178	-20.26552446	-115.4338483
6.87	687	0.016	-0.335	-0.193	-33.804522	-96.1996482	33.0596766	60.60749724	-20.9989107	-116.1615049
6.88	688	0.023	-0.322	-0.19	-26.1268848	-86.4020664	43.7739912	60.56739018	-21.77813358	-116.7459221
6.89	689	0.067	-0.317	-0.234	-20.1108258	-81.3027402	54.2018268	60.5616606	-22.62611142	-117.2329364
6.9	690	0.098	-0.301	-0.245	-19.3086846	-81.8184024	64.457775	60.54447186	-23.56576254	-117.6683845
6.91	691	0.13	-0.26	-0.243	-16.6730778	-84.6831924	73.7396946	60.55020144	-24.57416862	-118.0809142
6.92	692	0.178	-0.215	-0.219	-8.0787078	-86.0009958	81.932994	60.6476043	-25.67997756	-118.4762552
6.93	693	0.187	-0.194	-0.216	0	-86.1155874	88.6938984	60.8194917	-26.84881188	-118.8372188
6.94	694	0.096	-0.22	-0.265	15.1260912	-87.5479824	92.532717	61.15753692	-28.05202368	-119.2039119
6.95	695	-0.012	-0.194	-0.3	27.4446882	-94.9964364	92.0743506	61.66746954	-29.2781538	-119.6565487
6.96	696	-0.119	-0.135	-0.293	39.1903272	-104.564835	91.2722094	62.34928956	-30.53293182	-120.2237771
6.97	697	-0.269	-0.112	-0.277	60.733548	-114.3624168	87.376095	63.36342522	-31.78770984	-120.9514338
6.98	698	-0.483	-0.169	-0.217	93.4494498	-125.0194356	77.5785132	64.82446812	-32.97946248	-121.8796258
6.99	699	-0.562	-0.239	-0.207	119.0033766	-139.6871604	65.4318036	66.71522952	-34.091001	-123.0828376
7	700	-0.566	-0.277	-0.241	138.7704276	-159.282324	54.144531	69.01852068	-35.1223254	-124.618365
7.01	701	-0.63	-0.363	-0.216	159.5115072	-184.9508424	43.4875122	71.79736698	-36.09062442	-126.5606926
7.02	702	-0.614	-0.482	0.146	187.0134912	-216.578124	45.0344988	75.15490086	-37.04746428	-128.9613866
7.03	703	-0.639	-0.734	0.177	193.2587334	-233.5376808	57.582279	78.77599542	-38.0444112	-131.6313709
7.04	704	-0.615	-1.102	0.32	207.0097254	-245.2833198	75.916935	82.71221688	-39.09292434	-134.5248088
7.05	705	-0.61	-1.486	0.405	220.302351	-264.420117	98.835255	87.0609681	-40.21019244	-137.7734807
7.06	706	-0.886	-1.599	0.514	223.2244368	-287.2811412	124.4464776	91.79360118	-41.37329718	-141.4805189
7.07	707	-1.311	-1.591	0.787	230.042637	-313.6372092	150.6306582	97.02470772	-42.52494276	-145.749056
7.08	708	-1.78	-1.657	1.175	252.2161116	-322.9191288	162.0325224	102.7829356	-43.4588643	-150.3670975
7.09	709	-2.209	-2.427	1.45	280.6921242	-297.4224978	94.0224078	108.5411635	-43.47605304	-154.5325022
7.1	710	-3.022	-3.734	1.609	279.1451376	-203.113611	-61.9367598	112.8841852	-42.12960174	-156.7097426
7.11	711	-2.605	-1.782	1.927	125.8788726	-167.3610318	38.388186	115.6515723	-41.75144946	-158.9041717
7.12	712	-2.438	0.569	2.11	217.8959274	-199.675863	140.6038932	119.9945939	-42.02073972	-162.0497111
7.13	713	-2.485	-0.853	1.463	354.4318188	-144.385416	122.9567868	125.2314301	-42.24419334	-164.4733235
7.14	714	-2.43	-0.53	2.413	248.7783636	-151.83387	162.6627762	129.7119616	-42.5707794	-167.3381135
7.15	715	-2.062	0.328	2.544	201.967695	-194.1181704	183.060081	134.1695749	-42.60515688	-170.8446164
7.16	716	-1.411	0.164	1.902	315.0123084	-205.5200346	163.1211426	139.6757012	-42.1983567	-174.2193391
7.17	717	-1.018	-0.147	1.688	306.4179384	-181.7995734	139.9736394	144.7177316	-41.60820996	-177.0669403
7.18	718	-0.931	-0.298	1.815	177.7888674	-177.2159094	118.029348	148.1898571	-40.77169128	-179.5650372
7.19	719	-0.756	0.146	1.425	176.5856556	-218.4115896	110.3517108	151.6677122	-39.43669914	177.8690815
7.2	720	-0.695	-0.158	1.283	200.9936664	-205.118964	93.678633	155.0768123	-38.02722246	175.7262186
7.21	721	-0.523	-0.363	1.259	220.4742384	-162.8919594	74.6564274	158.2968362	-36.83546982	174.1505841
7.22	722	-0.539	-0.187	1.249	186.1540542	-156.0737592	71.1613836	161.0413051	-35.63225802	172.7411074
7.23	723	-0.526	-0.357	1.307	154.5267726	-108.0598788	57.0666168	163.2070863	-34.79573934	171.7327013
7.24	724	-0.492	-0.232	1.267	137.796399	-73.625103	42.8572584	165.011904	-34.21705176	171.0336926
7.25	725	-0.367	-0.099	1.216	130.5771282	-46.9252602	39.9351726	166.662023	-33.87327696	170.4664642
7.26	726	-0.448	-0.174	0.961	117.9720522	-39.9351726	36.382833	168.1517138	-33.56960922	169.9565315
7.27	727	-0.535	-0.209	0.875	118.9460808	-62.9680842	29.507337	169.6184863	-33.02529912	169.5038947
7.28	728	-0.529	-0.26	0.901	112.013289	-92.6473086	19.8243468	170.9649376	-32.16013254	169.1372016
7.29	729	-0.458	-0.296	1.024	114.4197126	-114.5916	20.2827132	172.3400368	-31.07724192	168.7590493
7.3	730	-0.539	-0.03	1.161	112.013289	-128.1134088	20.3973048	173.6807585	-29.8511118	168.3980858
7.31	731	-0.402	-0.157	1.197	92.8764918	-140.3174142	18.7357266	174.7922971	-28.49320134	168.0829589
7.32	732	-0.751	0.248	1.156	98.0904096	-135.218088	24.0069402	175.9611314	-27.1868571	167.7449137
7.33	733	-0.582	0.204	1.228	94.5953658	-134.4159468	21.0275586	177.0669403	-25.88051286	167.4698938
7.34	734	-0.654	0.086	1.408	118.888785	-127.3112676	18.1054728	178.3732846	-24.64292358	167.2636289
7.35	735	-0.469	0.194	1.383	106.6847796	-134.0148762	14.2093584	179.5306597	-23.33084976	167.1375782
7.36	736	-0.404	0.391	1.374	106.856667	-123.3578574	13.464513	-179.3129357	-22.12190838	167.0344457
7.37	737	-0.355	0.385	1.3	102.3302988	-123.1286742	19.9962342	-178.2071267	-20.912967	166.8912062
7.38	738	-0.226	0.318	1.272	88.2928278	-131.6084526	19.8816426	-177.2502869	-19.61235234	166.7823442
7.39	739	-0.381	0.244	1.225	79.6984578	-125.191323	18.4492476	-176.402309	-18.38049264	166.7021301
7.4	740	-0.377	0.208	1.252	63.7702254	-113.732163	16.1001198	-175.7262186	-17.25749496	166.6505639
7.41	741	-0.345	0.159	1.217	47.9565846	-105.8253426	12.9488508	-175.216286	-16.2147114	166.6391047
7.42	742	-0.298	0.146	1.085	9.6256944	-94.6526616	-6.8182002	-175.1532606	-15.29224902	166.8167217
7.43	743	-0.288	0.097	1.127	18.3919518	-83.5945722	-1.432395	-174.9871028	-14.47291908	166.9313133
7.44	744	-0.211	0.25	0.965	8.8235532	-73.911582	-7.1046792	-174.9240774	-13.750992	167.0917415
7.45	745	-0.139	0.124	0.944	5.6149884	-64.6869582	-5.3285094	-174.8896999	-13.12646778	167.2235219
7.46	746	-0.22	0.155	0.91	-3.3804522	-54.8893764	-3.6669312	-174.9126182	-12.58215768	167.3151952
7.47	747	-0.116	0.051	0.905	-5.0420304	-48.0711762	-1.3750992	-174.9756436	-12.11233212	167.3839501
7.48	748	-0.126	0.214	0.854	-6.4744254	-34.7212548	5.3285094	-175.0329394	-11.76282774	167.372491
7.49	749	-0.14	0.076	0.853	-10.313244	-32.3148312	4.1252976	-175.1303423	-11.44197126	167.3667614
7.5	750	-0.161	0.068	0.856	-17.0741484	-24.1215318	3.0939732	-175.3022297	-11.2013289	167.3610318
7.51	751	-0.145	0.087	0.885	-18.9649098	-12.032118	1.718874	-175.4798467	-11.06954856	167.3495726
7.52	752	-0.171	0.108	0.926	-22.91832	-0.5156622	2.8074942	-175.7033003	-11.0580894	167.3209247
7.53	753	-0.135	0.13	1.007	-28.361421	5.3285094	4.4117766	-175.9840497	-11.10392604	167.2693585
7.54	754	-0.087	0.104	1.046	-35.236917	6.6463128	6.016059	-176.3278245	-11.16122184	167.2006036
7.55	755	-0.132	0.049	1.018	-41.8832298	2.0626488	7.5057498	-176.7403543	-11.172681	167.1203894
7.56	756	-0.185	0.07	1.074	-42.0551172	-2.9220858	7.2192708	-177.1414249	-11.13257394	167.0401753
7.57	757	-0.184	-0.019	1.072	-37.7579322	-6.5317212	5.9014674	-177.5138476	-11.0580894	166.9828795
7.58	758	-0.179	-0.002	1.044	-31.5699858	-11.1153852	4.3544808	-177.8232449	-10.9434978	166.9427725
7.59	759	-0.164	0.002	1.034	-26.642547	-14.3812458	3.3804522	-178.0868056	-10.79452872	166.9141246
7.6	760	-0.165	0.005	1.03	-21.8869956	-17.3033316	2.7501984	-178.3045296	-10.62264132	166.8969358
7.61	761	-0.181	0.008	1.036	-16.7876694	-18.7930224	2.4064236	-178.4821466	-10.43356518	166.8854767
7.62	762	-0.182	0.011	1.045	-11.5164558	-18.2773602	2.1772404	-178.5910086	-10.25021862	166.8740175
7.63	763	-0.182	-0.001	1.044	-7.2192708	-15.183387	1.718874	-178.6597636	-10.10124954	166.8625583
7.64	764	-0.168	0.009	1.029	-3.6096354	-11.5164558	1.9480572	-178.694141	-9.98665794	166.8453696
7.65	765	-0.171	0.018	1.024	-0.8021412	-8.7089616	2.1199446	-178.6998706	-9.89498466	166.8281809
7.66	766	-0.158	0.013	1.028	0.7448454	-6.7036086	2.1772404	-178.6998706	-9.78612264	166.8109921
7.67	767	-0.155	0.003	1.031	1.8334656	-5.2139178	2.0626488	-178.6769523	-9.73455642	166.7938034
7.68	768	-0.158	0.015	1.023	3.151269	-5.156622	2.1772404	-178.6368452	-9.6829902	166.7766146
7.69	769	-0.16	0.015	1.016	4.297185	-5.9587632	2.4064236	-178.5910086	-9.61996482	166.7536963
7.7	770	-0.175	0.012	1.001	4.9847346	-7.448454	2.8074942	-178.5337128	-9.54548028	166.730778
7.71	771	-0.161	0.017	0.99	5.3285094	-9.7975818	2.9220858	-178.4821466	-9.44807742	166.7078597
7.72	772	-0.143	0.023	0.986	5.72958	-11.8602306	3.0366774	-178.4191212	-9.33348582	166.6849414
7.73	773	-0.164	0.027	0.983	5.2712136	-13.6936962	3.3804522	-178.3618254	-9.1959759	166.6562935
7.74	774	-0.158	0.036	0.985	2.9220858	-17.4179232	3.8961144	-178.3217183	-9.0240885	166.6276456
7.75	775	-0.13	0.035	0.995	0.3437748	-22.0015872	4.1825934	-178.3102592	-8.80636446	166.5989977
7.76	776	-0.166	0.034	1.006	-0.3437748	-24.7517856	4.6982556	-178.3159888	-8.55999252	166.5703498
7.77	777	-0.144	0.026	1.017	-0.4583664	-28.0176462	4.9274388	-178.3102592	-8.28497268	166.5359723
7.78	778	-0.127	0.032	1.016	-0.4010706	-28.9916748	4.9274388	-178.3102592	-7.9927641	166.5015948
7.79	779	-0.148	0.022	1.018	-1.4896908	-29.2781538	5.0993262	-178.3159888	-7.7062851	166.4672173
7.8	780	-0.124	0.032	1.003	-1.9480572	-30.5959572	4.9274388	-178.3274479	-7.40261736	166.4328398
7.81	781	-0.127	0.026	1.008	-1.9480572	-30.5959572	4.7555514	-178.3446367	-7.09322004	166.4041919
7.82	782	-0.089	0.026	1.004	-2.1772404	-30.3094782	4.6982556	-178.3560958	-6.7895523	166.375544
7.83	783	-0.119	0.025	1.02	-1.0886202	-30.1948866	4.870143	-178.3618254	-6.49161414	166.3411666
7.84	784	-0.099	0.025	1.035	-0.0572958	-31.4553942	4.8128472	-178.3503662	-6.18221682	166.3125187
7.85	785	-0.089	0.02	1.041	0.572958	-31.9137606	4.6982556	-178.3389071	-5.86136034	166.2838708
7.86	786	-0.093	0.024	1.021	0.6875496	-31.799169	4.583664	-178.3045296	-5.55196302	166.2494933
7.87	787	-0.07	0.025	0.991	0.9167328	-32.0283522	4.010706	-178.2873409	-5.23110654	166.226575
7.88	788	-0.075	0.009	1.007	1.0886202	-30.9970278	4.3544808	-178.2701521	-4.9274388	166.1979271
7.89	789	-0.063	0.069	1.037	1.9480572	-32.7159018	4.3544808	-178.2415042	-4.60085274	166.1750087
7.9	790	-0.054	-0.006	1.081	3.9534102	-32.7731976	4.1252976	-178.1956676	-4.27426668	166.1520904
7.91	791	-0.043	0.019	1.065	5.0993262	-34.1482968	4.4690724	-178.1498309	-3.9247623	166.1291721
7.92	792	-0.031	0.022	1.032	6.1306506	-32.8304934	3.4950438	-178.081076	-3.60390582	166.1177129
7.93	793	-0.046	0.039	1.017	5.6722842	-32.8877892	3.437748	-178.0180506	-3.27731976	166.1005242
7.94	794	-0.052	0.06	1.007	2.2345362	-36.8984952	3.9534102	-177.9894027	-2.91062664	166.089065
7.95	795	-0.004	0.042	1.001	2.2345362	-39.4195104	4.6409598	-177.9550252	-2.5210152	166.0661467
7.96	796	-0.033	0.063	1	0.286479	-40.9092012	5.2712136	-177.9435661	-2.11421502	166.0374988
7.97	797	-0.008	-0.022	0.976	-0.6875496	-40.0497642	5.156622	-177.9435661	-1.718874	166.0088509
7.98	798	0.024	0.044	0.996	3.8388186	-35.9817624	2.8074942	-177.903459	-1.36364004	166.0031213
7.99	799	0.01	-0.03	1	4.9274388	-32.0283522	2.4637194	-177.8461632	-1.04278356	166.0031213
8	800	-0.007	-0.025	0.995	6.9900876	-28.7624916	2.4064236	-177.7716787	-0.76203414	165.9973918
8.01	801	0.016	0.042	1	10.0840608	-26.4133638	2.4064236	-177.6456279	-0.49274388	165.9859326
8.02	802	0.023	0.013	0.986	11.2872726	-19.3659804	1.4896908	-177.5253067	-0.30366774	165.9859326
8.03	803	0.019	0.021	0.968	10.0840608	-15.8136408	1.2605076	-177.4221743	-0.14896908	165.9859326
8.04	804	-0.006	0.041	0.981	9.3965112	-13.5791046	1.2605076	-177.3247714	-0.01718874	165.9859326
8.05	805	0.025	0.036	0.996	8.1932994	-9.8548776	1.0886202	-177.2388277	0.07448454	165.980203
8.06	806	0.015	0.033	0.995	6.302538	-5.2139178	0.6875496	-177.1929911	0.1432395	165.980203
8.07	807	0.029	0.045	0.991	4.6409598	-1.9480572	0.4583664	-177.1471544	0.16615782	165.9744734
8.08	808	0.005	0.049	0.983	2.005353	1.0886202	0.4010706	-177.1242361	0.15469866	165.9744734
8.09	809	0.024	0.039	0.987	-0.9167328	3.151269	0.286479	-177.1356953	0.12032118	165.9687439
8.1	810	0.024	0.039	0.983	-3.2658606	4.1825934	0.2291832	-177.1700728	0.08021412	165.9572847
8.11	811	0.026	0.048	0.982	-5.3285094	4.870143	0.1718874	-177.2273686	0.05156622	165.9515551
8.12	812	0.013	0.038	0.987	-7.3338624	5.72958	0.1718874	-177.3018531	0	165.9458255
8.13	813	0.018	0.042	0.993	-8.3651868	5.9014674	0.1145916	-177.3877968	-0.0572958	165.940096
8.14	814	0.028	0.037	0.998	-9.5683986	5.72958	0.2291832	-177.4851997	-0.10886202	165.9343664
8.15	815	0.02	0.044	1.005	-9.9694692	5.9014674	0.1718874	-177.5883321	-0.16615782	165.9286368
8.16	816	0.022	0.043	1.011	-10.5424272	6.3598338	0	-177.7029237	-0.21199446	165.9229072
8.17	817	0.02	0.041	1.022	-10.9434978	6.6463128	0.0572958	-177.8117857	-0.27501984	165.9171776
8.18	818	0.019	0.039	1.029	-11.172681	7.0473834	-0.1145916	-177.9263773	-0.3437748	165.9114481
8.19	819	0.017	0.04	1.033	-10.886202	6.9900876	-0.286479	-178.0409689	-0.41252976	165.9057185
8.2	820	0.017	0.037	1.041	-10.1413566	6.9327918	-0.4010706	-178.1441014	-0.48128472	165.9057185
8.21	821	0.013	0.036	1.046	-8.7662574	6.7609044	-0.6302538	-178.2357746	-0.52139178	165.9114481
8.22	822	0.016	0.035	1.047	-6.8182002	6.875496	-0.7448454	-178.3045296	-0.59014674	165.9114481
8.23	823	0.013	0.032	1.044	-5.0993262	7.2765666	-0.859437	-178.3560958	-0.66463128	165.9171776
8.24	824	0.012	0.032	1.039	-3.6669312	7.734933	-1.0313244	-178.3962029	-0.73911582	165.9229072
8.25	825	0.009	0.031	1.03	-2.6356068	8.307891	-1.145916	-178.4248508	-0.81932994	165.9286368
8.26	826	0.004	0.028	1.024	-1.8334656	8.9381448	-1.2605076	-178.4534987	-0.8880849	165.9343664
8.27	827	0.002	0.026	1.02	-0.9740286	9.3965112	-1.3178034	-178.4649578	-0.97975818	165.9458255
8.28	828	0.003	0.019	1.018	0	9.6829902	-1.2605076	-178.4649578	-1.07716104	165.9515551
8.29	829	-0.005	0.031	1.015	0.9167328	10.2559482	-1.2032118	-178.4592283	-1.18029348	165.9572847
8.3	830	-0.008	0.03	1.014	1.5469866	10.4278356	-1.145916	-178.4420395	-1.28342592	165.9687439
8.31	831	-0.007	0.028	1.014	2.1199446	10.6570188	-1.145916	-178.4248508	-1.36936962	165.9744734
8.32	832	-0.012	0.028	1.017	2.4064236	11.1153852	-1.0313244	-178.4019325	-1.48396122	165.9744734
8.33	833	-0.014	0.029	1.019	2.578311	11.3445684	-1.0886202	-178.3790141	-1.59282324	165.980203
8.34	834	-0.017	0.031	1.02	2.578311	11.6883432	-0.9740286	-178.3560958	-1.71314442	165.9859326
8.35	835	-0.019	0.031	1.02	2.4637194	11.6310474	-0.9167328	-178.3331775	-1.82773602	165.9859326
8.36	836	-0.022	0.031	1.02	2.3491278	11.5737516	-0.7448454	-178.3102592	-1.93086846	165.9916622
8.37	837	-0.025	0.03	1.018	2.2345362	11.172681	-0.572958	-178.2873409	-2.03973048	165.9916622
8.38	838	-0.029	0.03	1.02	2.005353	10.4851314	-0.572958	-178.2701521	-2.14286292	165.9916622
8.39	839	-0.029	0.032	1.018	1.6042824	9.8548776	-0.4010706	-178.2529634	-2.24026578	165.9859326
8.4	840	-0.033	0.028	1.016	1.3178034	8.880849	-0.286479	-178.2415042	-2.33193906	165.9859326
8.41	841	-0.033	0.026	1.017	1.3750992	8.021412	-0.2291832	-178.2472338	-2.39496444	165.9859326
8.42	842	-0.03	0.027	1.018	1.145916	7.2765666	-0.1718874	-178.2357746	-2.46944898	165.9859326
8.43	843	-0.033	0.026	1.016	0.9740286	6.1879464	-0.0572958	-178.2243155	-2.52674478	165.980203
8.44	844	-0.037	0.027	1.018	0.9740286	5.2139178	0	-178.2128563	-2.578311	165.980203
8.45	845	-0.03	0.029	1.023	0.9740286	4.4117766	0.0572958	-178.2071267	-2.62414764	165.9744734
8.46	846	-0.027	0.03	1.027	0.8021412	3.2085648	0.0572958	-178.2185859	-2.578311	165.9744734
8.47	847	-0.034	0.029	1.024	0.8021412	2.291832	0	-178.2128563	-2.60122932	165.9744734
8.48	848	-0.038	0.028	1.026	0.9740286	1.8907614	0.0572958	-178.2013972	-2.62414764	165.9687439
8.49	849	-0.03	0.031	1.023	1.0886202	1.5469866	0.1718874	-178.189938	-2.6356068	165.9687439
8.5	850	-0.024	0.032	1.015	0.9167328	0.9167328	0.0572958	-178.1784788	-2.64706596	165.9687439
8.51	851	-0.038	0.027	1.01	0.6302538	0.286479	0.0572958	-178.2701521	-2.56112226	165.980203
8.52	852	-0.032	0.031	1.013	0.286479	0.3437748	0.0572958	-178.2701521	-2.56685184	165.9744734
8.53	853	-0.022	0.032	1.011	0.1145916	0.0572958	0	-178.2644225	-2.56685184	165.9744734
8.54	854	-0.036	0.028	1.007	-0.1145916	-0.4583664	0	-178.2644225	-2.56112226	165.9744734
8.55	855	-0.03	0.03	1.012	-0.4010706	-0.2291832	-0.0572958	-178.2701521	-2.56112226	165.980203
8.56	856	-0.028	0.03	1.009	-0.5156622	-0.286479	0	-178.3102592	-2.41215318	165.980203
8.57	857	-0.023	0.032	1.004	-0.7448454	-0.572958	-0.0572958	-178.3159888	-2.4064236	165.980203
8.58	858	-0.037	0.029	1.006	-1.145916	-0.8021412	-0.0572958	-178.3274479	-2.40069402	165.980203
8.59	859	-0.03	0.03	1.011	-1.3178034	-0.286479	-0.0572958	-178.3446367	-2.39496444	165.980203
8.6	860	-0.026	0.029	1.011	-1.432395	-0.3437748	0	-178.3560958	-2.39496444	165.980203
8.61	861	-0.02	0.031	1.011	-1.432395	-0.6302538	0	-178.3904733	-2.29756158	165.9859326
8.62	862	-0.037	0.029	1.017	-1.5469866	-0.7448454	0	-178.407662	-2.291832	165.9859326
8.63	863	-0.03	0.032	1.023	-1.4896908	-0.286479	0	-178.4191212	-2.28610242	165.9859326
8.64	864	-0.026	0.03	1.022	-1.2605076	-0.5156622	0	-178.4363099	-2.28037284	165.980203
8.65	865	-0.028	0.03	1.023	-1.145916	-0.5156622	0	-178.4477691	-2.28037284	165.980203
8.66	866	-0.027	0.03	1.021	-0.9740286	-0.1145916	0	-178.4821466	-2.1772404	165.9859326
8.67	867	-0.028	0.032	1.019	-0.859437	0.2291832	0	-178.4878762	-2.1772404	165.9859326
8.68	868	-0.027	0.031	1.016	-0.9740286	0.5156622	0	-178.4993353	-2.18296998	165.9859326
8.69	869	-0.03	0.033	1.015	-0.9740286	0.5156622	0	-178.5107945	-2.18869956	165.980203
8.7	870	-0.031	0.031	1.015	-1.0886202	0.572958	0.1145916	-178.5222536	-2.19442914	165.980203
8.71	871	-0.03	0.03	1.017	-0.9167328	0.4583664	0.1145916	-178.5566311	-2.13140376	165.980203
8.72	872	-0.03	0.03	1.018	-0.8021412	0.3437748	0.1145916	-178.5623607	-2.13713334	165.980203
8.73	873	-0.029	0.029	1.018	-0.6875496	0.1145916	0.1145916	-178.5738199	-2.13713334	165.980203
8.74	874	-0.029	0.028	1.016	-0.6302538	0.1145916	0.1145916	-178.5795494	-2.13713334	165.9744734
8.75	875	-0.03	0.028	1.016	-0.6302538	0	0.0572958	-178.585279	-2.13713334	165.9744734
8.76	876	-0.029	0.029	1.017	-0.572958	-0.0572958	0.0572958	-178.6139269	-2.05691922	165.9744734
8.77	877	-0.03	0.028	1.016	-0.6302538	-0.0572958	0.1145916	-178.6196565	-2.05691922	165.9744734
8.78	878	-0.03	0.027	1.016	-0.6302538	-0.1718874	0.0572958	-178.6253861	-2.05691922	165.9744734
8.79	879	-0.031	0.028	1.018	-0.6302538	-0.1145916	0.0572958	-178.6311157	-2.05118964	165.9744734
8.8	880	-0.031	0.029	1.018	-0.572958	-0.0572958	0.0572958	-178.6368452	-2.05118964	165.9687439
8.81	881	-0.03	0.029	1.017	-0.5156622	0	0.0572958	-178.6597636	-1.98816426	165.9687439
8.82	882	-0.03	0.029	1.017	-0.3437748	0.0572958	0.1145916	-178.6654931	-1.98816426	165.9687439
8.83	883	-0.03	0.029	1.018	-0.1145916	0	0	-178.6654931	-1.98816426	165.9687439
8.84	884	-0.03	0.029	1.019	0.0572958	-0.1145916	0.0572958	-178.6654931	-1.98816426	165.9687439
8.85	885	-0.029	0.027	1.02	0.2291832	-0.1145916	0.0572958	-178.6654931	-1.98243468	165.9687439
8.86	886	-0.029	0.028	1.02	0.4583664	-0.1145916	0.0572958	-178.6769523	-1.93086846	165.9687439
8.87	887	-0.03	0.029	1.019	0.6302538	0.0572958	0.0572958	-178.6712227	-1.93086846	165.9687439
8.88	888	-0.031	0.03	1.018	0.6875496	0.286479	0	-178.6654931	-1.93659804	165.9687439
8.89	889	-0.03	0.029	1.017	0.6302538	0.4010706	0	-178.6597636	-1.94232762	165.9687439
8.9	890	-0.029	0.03	1.014	0.4583664	0.4583664	0	-178.654034	-1.9480572	165.9630143
8.91	891	-0.03	0.03	1.013	0.1718874	0.4583664	0	-178.6483044	-1.90222056	165.9630143
8.92	892	-0.029	0.03	1.014	0.0572958	0.4010706	0	-178.6425748	-1.90795014	165.9630143
8.93	893	-0.03	0.031	1.014	0	0.1718874	0	-178.6425748	-1.91367972	165.9630143
8.94	894	-0.03	0.029	1.013	-0.0572958	0.1718874	0	-178.6483044	-1.91367972	165.9630143
8.95	895	-0.03	0.028	1.015	-0.1718874	0.1718874	0	-178.6483044	-1.91367972	165.9630143
8.96	896	-0.028	0.027	1.015	-0.1718874	0.286479	0	-178.6769523	-1.87930224	165.9687439
8.97	897	-0.028	0.028	1.017	-0.286479	0.5156622	-0.0572958	-178.6769523	-1.88503182	165.9687439
8.98	898	-0.029	0.028	1.018	-0.1718874	0.6875496	0	-178.6826819	-1.8907614	165.9687439
8.99	899	-0.028	0.028	1.018	0	0.7448454	-0.0572958	-178.6826819	-1.90222056	165.9687439
9	900	-0.029	0.029	1.018	0	0.7448454	0	-178.6826819	-1.90795014	165.9687439
9.01	901	-0.03	0.028	1.015	0	0.9167328	-0.1145916	-178.6826819	-1.8907614	165.9687439
9.02	902	-0.029	0.029	1.011	0.1145916	0.859437	-0.1145916	-178.6826819	-1.90222056	165.9687439
9.03	903	-0.029	0.029	1.015	0.0572958	0.9167328	0	-178.6826819	-1.91367972	165.9687439
9.04	904	-0.03	0.029	1.021	-0.1718874	0.8021412	0	-178.6826819	-1.9194093	165.9687439
9.05	905	-0.03	0.032	1.022	-0.3437748	0.8021412	0	-178.6884115	-1.92513888	165.9687439
9.06	906	-0.031	0.031	1.022	-0.286479	0.8021412	0	-178.6826819	-1.9194093	165.9687439
9.07	907	-0.031	0.03	1.021	0	0.7448454	0	-178.6826819	-1.92513888	165.9687439
9.08	908	-0.031	0.029	1.018	0	0.6875496	-0.0572958	-178.6826819	-1.93086846	165.9687439
9.09	909	-0.032	0.029	1.015	0	0.6302538	-0.0572958	-178.6826819	-1.93659804	165.9687439
9.1	910	-0.031	0.029	1.015	-0.0572958	0.6302538	0	-178.6826819	-1.94232762	165.9687439
9.11	911	-0.031	0.029	1.015	-0.0572958	0.572958	-0.0572958	-178.694141	-1.93086846	165.9687439
9.12	912	-0.032	0.03	1.015	0	0.3437748	0	-178.694141	-1.93086846	165.9687439
9.13	913	-0.032	0.031	1.015	0	0.286479	0	-178.694141	-1.93659804	165.9687439
9.14	914	-0.033	0.03	1.014	-0.1718874	-0.1145916	0	-178.694141	-1.93086846	165.9687439
9.15	915	-0.032	0.03	1.014	-0.3437748	-0.1145916	0	-178.6998706	-1.93086846	165.9687439
9.16	916	-0.032	0.031	1.016	-0.286479	0	0	-178.6884115	-1.9194093	165.9687439
9.17	917	-0.031	0.031	1.017	-0.1718874	0	0	-178.694141	-1.9194093	165.9687439
9.18	918	-0.032	0.03	1.016	-0.1718874	0	0	-178.694141	-1.9194093	165.9630143
9.19	919	-0.032	0.03	1.017	-0.1718874	-0.0572958	0	-178.694141	-1.9194093	165.9630143
9.2	920	-0.032	0.029	1.018	-0.0572958	-0.1145916	0.0572958	-178.6998706	-1.9194093	165.9630143
9.21	921	-0.032	0.03	1.017	0.1145916	-0.1718874	0.0572958	-178.6826819	-1.91367972	165.9630143
9.22	922	-0.032	0.029	1.017	0.2291832	-0.286479	0.0572958	-178.6826819	-1.90795014	165.9630143
9.23	923	-0.032	0.029	1.017	0.4010706	-0.3437748	0.1145916	-178.6769523	-1.90222056	165.9630143
9.24	924	-0.032	0.03	1.019	0.3437748	-0.5156622	0.0572958	-178.6712227	-1.89649098	165.9630143
9.25	925	-0.031	0.03	1.019	0.4010706	-0.7448454	0.1718874	-178.6654931	-1.8907614	165.9572847
9.26	926	-0.031	0.03	1.017	0.3437748	-0.6302538	0.0572958	-178.6654931	-1.87930224	165.9572847
9.27	927	-0.032	0.029	1.015	0.286479	-0.7448454	0.1145916	-178.6654931	-1.87357266	165.9572847
9.28	928	-0.031	0.03	1.016	0.1718874	-0.859437	0.0572958	-178.6597636	-1.8621135	165.9572847
9.29	929	-0.031	0.03	1.017	0.1145916	-0.859437	0.0572958	-178.6597636	-1.85638392	165.9572847
9.3	930	-0.031	0.03	1.017	0.1145916	-0.8021412	0.1145916	-178.6597636	-1.85065434	165.9572847
9.31	931	-0.031	0.03	1.016	0.1718874	-0.7448454	0.0572958	-178.654034	-1.8334656	165.9572847
9.32	932	-0.031	0.029	1.016	0.1718874	-0.7448454	0.0572958	-178.6483044	-1.82200644	165.9515551
9.33	933	-0.031	0.031	1.016	0.1145916	-0.8021412	0.0572958	-178.6483044	-1.81627686	165.9515551
9.34	934	-0.03	0.03	1.017	0.1145916	-0.5156622	0.0572958	-178.6483044	-1.81054728	165.9515551
9.35	935	-0.03	0.03	1.018	0	-0.4583664	0	-178.6483044	-1.8048177	165.9515551
9.36	936	-0.03	0.031	1.018	-0.0572958	-0.4010706	0	-178.654034	-1.78189938	165.9515551
9.37	937	-0.03	0.03	1.018	-0.1145916	-0.3437748	0	-178.654034	-1.7761698	165.9515551
9.38	938	-0.03	0.031	1.016	-0.1718874	-0.3437748	0	-178.654034	-1.7761698	165.9515551
9.39	939	-0.03	0.03	1.016	-0.1718874	-0.3437748	-0.0572958	-178.654034	-1.77044022	165.9515551
9.4	940	-0.029	0.03	1.017	-0.1718874	-0.2291832	0	-178.6597636	-1.76471064	165.9515551
9.41	941	-0.029	0.03	1.016	-0.1145916	-0.286479	0	-178.6597636	-1.75325148	165.9515551
9.42	942	-0.03	0.031	1.016	-0.1718874	0	0	-178.6654931	-1.75325148	165.9515551
9.43	943	-0.032	0.03	1.016	-0.1145916	0	0	-178.6654931	-1.75325148	165.9515551
9.44	944	-0.029	0.03	1.015	-0.0572958	0.0572958	0	-178.6654931	-1.75325148	165.9515551
9.45	945	-0.03	0.031	1.015	-0.1145916	0.3437748	0	-178.6654931	-1.75898106	165.9572847
9.46	946	-0.03	0.031	1.018	-0.2291832	0.572958	-0.0572958	-178.6654931	-1.75898106	165.9572847
9.47	947	-0.031	0.031	1.017	-0.1718874	0.572958	-0.1145916	-178.6712227	-1.76471064	165.9572847
9.48	948	-0.031	0.031	1.018	-0.0572958	0.572958	0	-178.6712227	-1.77044022	165.9572847
9.49	949	-0.031	0.03	1.016	0	0.4583664	0	-178.6712227	-1.7761698	165.9572847
9.5	950	-0.031	0.031	1.017	0	0.4583664	-0.0572958	-178.6712227	-1.78189938	165.9572847
9.51	951	-0.031	0.031	1.016	0.0572958	0.3437748	-0.0572958	-178.6597636	-1.78189938	165.9572847
9.52	952	-0.031	0.031	1.016	0.0572958	0.4010706	-0.0572958	-178.6597636	-1.78762896	165.9572847
9.53	953	-0.03	0.031	1.015	0.1718874	0.4010706	0	-178.654034	-1.78762896	165.9572847
9.54	954	-0.031	0.031	1.014	0.1145916	0.3437748	0	-178.654034	-1.79335854	165.9572847
9.55	955	-0.031	0.031	1.015	0.0572958	0.4010706	0	-178.654034	-1.79908812	165.9572847
9.56	956	-0.031	0.031	1.016	0	0.3437748	0	-178.6425748	-1.81054728	165.9572847
9.57	957	-0.032	0.031	1.016	0.0572958	0.3437748	0	-178.6425748	-1.81054728	165.9572847
9.58	958	-0.032	0.032	1.016	0.2291832	0.286479	0	-178.6425748	-1.81627686	165.9572847
9.59	959	-0.032	0.032	1.019	0.2291832	0.1718874	0	-178.6368452	-1.81627686	165.9572847
9.6	960	-0.032	0.032	1.018	0	0.1718874	0	-178.6368452	-1.82200644	165.9572847
9.61	961	-0.032	0.032	1.017	0	0.1718874	0	-178.6311157	-1.79908812	165.9572847
9.62	962	-0.033	0.031	1.013	0.1145916	0.0572958	0	-178.6311157	-1.8048177	165.9572847
9.63	963	-0.032	0.03	1.014	0.2291832	0.1145916	0	-178.6311157	-1.8048177	165.9572847
9.64	964	-0.031	0.031	1.019	-0.0572958	0	0	-178.6311157	-1.8048177	165.9572847
9.65	965	-0.032	0.033	1.021	-0.3437748	-0.1718874	0.0572958	-178.6311157	-1.79908812	165.9515551
9.66	966	-0.031	0.032	1.021	-0.1718874	-0.3437748	0	-178.6253861	-1.78762896	165.9515551
9.67	967	-0.031	0.032	1.021	0	-0.4010706	0	-178.6253861	-1.78762896	165.9515551
9.68	968	-0.031	0.032	1.017	0	-0.4010706	0	-178.6253861	-1.78189938	165.9515551
9.69	969	-0.03	0.031	1.015	-0.1145916	-0.1718874	0	-178.6253861	-1.78189938	165.9515551
9.7	970	-0.031	0.032	1.015	-0.2291832	-0.0572958	0	-178.6311157	-1.7761698	165.9515551
9.71	971	-0.031	0.033	1.015	-0.2291832	0	-0.0572958	-178.6196565	-1.77044022	165.9515551
9.72	972	-0.031	0.032	1.016	-0.2291832	-0.0572958	-0.0572958	-178.6196565	-1.77044022	165.9515551
9.73	973	-0.031	0.032	1.016	-0.2291832	-0.0572958	0	-178.6196565	-1.77044022	165.9515551
9.74	974	-0.032	0.032	1.017	-0.1718874	-0.1145916	-0.0572958	-178.6253861	-1.77044022	165.9515551
9.75	975	-0.031	0.032	1.017	-0.0572958	-0.1145916	0	-178.6253861	-1.76471064	165.9515551
9.76	976	-0.031	0.031	1.015	0	-0.1145916	0	-178.6081973	-1.7475219	165.9515551
9.77	977	-0.031	0.032	1.013	0	-0.1718874	0	-178.6081973	-1.74179232	165.9515551
9.78	978	-0.031	0.032	1.013	0	-0.1145916	0	-178.6081973	-1.74179232	165.9515551
9.79	979	-0.032	0.032	1.014	0	-0.1145916	0	-178.6024678	-1.74179232	165.9515551
9.8	980	-0.031	0.033	1.016	0	-0.1145916	0	-178.6024678	-1.73606274	165.9515551
9.81	981	-0.032	0.033	1.017	0.0572958	-0.1145916	0	-178.5738199	-1.76471064	165.9515551
9.82	982	-0.031	0.033	1.018	0.1145916	-0.1145916	0.0572958	-178.5738199	-1.75898106	165.9515551
9.83	983	-0.032	0.032	1.017	0.1145916	-0.1145916	0	-178.5680903	-1.75898106	165.9515551
9.84	984	-0.032	0.032	1.019	0.1145916	-0.1145916	0.0572958	-178.5680903	-1.75898106	165.9458255
9.85	985	-0.031	0.033	1.019	0.0572958	-0.0572958	0	-178.5680903	-1.75898106	165.9458255
9.86	986	-0.031	0.032	1.018	0	0.1145916	0	-178.5738199	-1.75325148	165.9458255
9.87	987	-0.031	0.032	1.016	0.0572958	0.1145916	0	-178.5680903	-1.75325148	165.9458255
9.88	988	-0.03	0.032	1.016	0.0572958	0.1145916	0	-178.5680903	-1.75325148	165.9458255
9.89	989	-0.031	0.032	1.017	0	0.1145916	0	-178.5680903	-1.75898106	165.9458255
9.9	990	-0.031	0.032	1.016	0	0	0	-178.5680903	-1.75898106	165.9458255
9.91	991	-0.031	0.031	1.017	0	0.0572958	0	-178.5795494	-1.75325148	165.9515551
9.92	992	-0.031	0.031	1.017	0	0.1145916	0	-178.5795494	-1.75898106	165.9458255
9.93	993	-0.03	0.032	1.017	-0.1145916	0.1718874	0	-178.5795494	-1.75898106	165.9458255
9.94	994	-0.032	0.032	1.017	-0.1145916	0.2291832	0	-178.5795494	-1.75898106	165.9458255
9.95	995	-0.031	0.032	1.017	-0.1145916	0.2291832	-0.0572958	-178.5795494	-1.76471064	165.9515551
9.96	996	-0.031	0.032	1.018	-0.0572958	0.1718874	-0.0572958	-178.5795494	-1.76471064	165.9515551
9.97	997	-0.031	0.033	1.019	-0.1718874	0.1718874	0	-178.5795494	-1.76471064	165.9515551
9.98	998	-0.032	0.033	1.019	-0.1718874	0.1145916	0	-178.5795494	-1.77044022	165.9515551
9.99	999	-0.031	0.033	1.016	-0.1145916	0.1145916	-0.0572958	-178.585279	-1.77044022	165.9515551
10	1000	-0.032	0.033	1.014	-0.1718874	0.0572958	0	-178.585279	-1.77044022	165.9515551
10.01	1001	-0.032	0.032	1.015	-0.1718874	0	0	-178.585279	-1.7761698	165.9515551
10.02	1002	-0.032	0.033	1.015	-0.286479	0	0	-178.585279	-1.7761698	165.9515551
10.03	1003	-0.032	0.033	1.016	-0.1718874	0	0	-178.585279	-1.7761698	165.9515551
10.04	1004	-0.032	0.033	1.016	-0.1145916	0	0	-178.5910086	-1.7761698	165.9515551
10.05	1005	-0.032	0.033	1.017	0	0	-0.0572958	-178.5910086	-1.7761698	165.9515551
10.06	1006	-0.032	0.033	1.017	0	0	0	-178.5623607	-1.7761698	165.9515551
10.07	1007	-0.032	0.033	1.018	0	0.0572958	0	-178.5623607	-1.7761698	165.9515551
10.08	1008	-0.032	0.032	1.018	0	0.0572958	0	-178.5623607	-1.7761698	165.9515551
10.09	1009	-0.033	0.032	1.019	0	0	0	-178.5623607	-1.7761698	165.9515551
10.1	1010	-0.033	0.034	1.019	0	0	0	-178.5623607	-1.7761698	165.9515551
10.11	1011	-0.032	0.032	1.016	0	-0.0572958	0	-178.5623607	-1.77044022	165.9515551
10.12	1012	-0.032	0.033	1.017	0	0	0	-178.5623607	-1.77044022	165.9515551
10.13	1013	-0.032	0.033	1.017	-0.0572958	-0.1145916	0	-178.5680903	-1.76471064	165.9515551
10.14	1014	-0.032	0.032	1.017	0	-0.1718874	0	-178.5680903	-1.76471064	165.9515551
10.15	1015	-0.031	0.033	1.015	0	-0.1718874	0.0572958	-178.5623607	-1.76471064	165.9515551
10.16	1016	-0.031	0.033	1.016	0.0572958	-0.1145916	0.0572958	-178.5566311	-1.75898106	165.9458255
10.17	1017	-0.032	0.032	1.016	0	-0.0572958	0	-178.5566311	-1.75898106	165.9458255
10.18	1018	-0.032	0.032	1.018	0	-0.0572958	0.0572958	-178.5566311	-1.75898106	165.9458255
10.19	1019	-0.032	0.032	1.017	0	0	0.0572958	-178.5566311	-1.75898106	165.9458255
10.2	1020	-0.031	0.032	1.016	0	0.0572958	0	-178.5566311	-1.75898106	165.9458255
10.21	1021	-0.032	0.033	1.018	0	0	0	-178.5394424	-1.7761698	165.9458255
10.22	1022	-0.032	0.033	1.018	0	0	0	-178.5394424	-1.77044022	165.9458255
10.23	1023	-0.032	0.033	1.018	-0.0572958	-0.1718874	0	-178.5394424	-1.77044022	165.9458255
10.24	1024	-0.032	0.032	1.015	-0.1145916	-0.286479	0	-178.5394424	-1.77044022	165.9458255
10.25	1025	-0.032	0.031	1.012	-0.0572958	-0.3437748	0	-178.5394424	-1.76471064	165.9458255
10.26	1026	-0.031	0.032	1.013	0	-0.286479	0	-178.5337128	-1.75898106	165.9458255
10.27	1027	-0.031	0.033	1.019	-0.1145916	-0.286479	0	-178.5394424	-1.75325148	165.9458255
10.28	1028	-0.031	0.034	1.025	-0.4583664	-0.3437748	0	-178.5394424	-1.75325148	165.9458255
10.29	1029	-0.032	0.033	1.024	-0.4583664	-0.2291832	0	-178.545172	-1.7475219	165.9458255
10.3	1030	-0.031	0.032	1.023	-0.1145916	-0.1145916	0	-178.5509015	-1.7475219	165.9458255
10.31	1031	-0.032	0.032	1.019	0	-0.0572958	0	-178.5566311	-1.74179232	165.9458255
10.32	1032	-0.031	0.031	1.015	0	-0.0572958	0	-178.5566311	-1.74179232	165.9458255
10.33	1033	-0.032	0.032	1.014	-0.0572958	0.0572958	0	-178.5566311	-1.74179232	165.9458255
10.34	1034	-0.032	0.033	1.013	0	0.1718874	0	-178.5623607	-1.74179232	165.9458255
10.35	1035	-0.032	0.034	1.012	-0.0572958	0.0572958	-0.0572958	-178.5623607	-1.74179232	165.9458255
10.36	1036	-0.032	0.033	1.013	-0.0572958	0	-0.0572958	-178.545172	-1.75325148	165.9458255
10.37	1037	-0.031	0.033	1.016	-0.1145916	0	0	-178.545172	-1.75325148	165.9515551
