TimeStamp(s)	FrameCounter	AccX	AccY	AccZ	GyrX	GyrY	GyrZ	EulerX	EulerY	EulerZ
0.01	1	-0.001	-1.006	0.035	0.572958	0.3437748	0.1145916	90.48152736	-0.00572958	-26.33314968
0.02	2	0	-1.005	0.037	0.7448454	0.6302538	0.2291832	90.48725694	-0.01145916	-26.3274201
0.03	3	0	-1.007	0.035	0.572958	0.572958	0	90.49298652	-0.01145916	-26.32169052
0.04	4	0	-1.008	0.036	0.5156622	0.5156622	0	90.4987161	-0.01145916	-26.31596094
0.05	5	0.001	-1.008	0.035	0.6302538	0.572958	-0.1718874	90.51017526	0	-26.31596094
0.06	6	0.003	-1.008	0.036	0.8021412	0.572958	-0.1718874	90.52163442	0	-26.31023136
0.07	7	0.004	-1.006	0.035	1.0313244	0.6875496	-0.0572958	90.53309358	0.00572958	-26.30450178
0.08	8	0.007	-1.005	0.035	0.9167328	1.0886202	0.1145916	90.53882316	0	-26.29304262
0.09	9	0.008	-1.005	0.037	1.0313244	1.2032118	0.4010706	90.55028232	0	-26.28158346
0.1	10	0.009	-1.004	0.039	0.859437	1.145916	0.572958	90.56747106	0.00572958	-26.27585388
0.11	11	0.008	-1.003	0.039	0.9740286	0.859437	0.7448454	90.57893022	0	-26.26439472
0.12	12	0.007	-1.003	0.04	1.0886202	0.4583664	0.859437	90.59038938	-0.00572958	-26.25866514
0.13	13	0.006	-1.004	0.04	1.2605076	0	0.859437	90.60184854	-0.01145916	-26.25866514
0.14	14	0.006	-1.005	0.042	1.3178034	-0.3437748	0.6875496	90.6133077	-0.02291832	-26.26439472
0.15	15	0.006	-1.005	0.043	1.432395	-0.572958	0.5156622	90.6419556	-0.01145916	-26.27585388
0.16	16	0.005	-1.006	0.045	1.5469866	-0.6875496	0.4010706	90.65914434	-0.01718874	-26.28158346
0.17	17	0.004	-1.009	0.044	1.6615782	-0.6875496	0.2291832	90.67633308	-0.01718874	-26.28731304
0.18	18	0.001	-1.009	0.043	1.5469866	-0.859437	0.1145916	90.69352182	-0.01718874	-26.2987722
0.19	19	0	-1.008	0.044	1.6615782	-0.8021412	0.1718874	90.71071056	-0.01718874	-26.30450178
0.2	20	-0.001	-1.003	0.044	1.6615782	-0.6875496	0.2291832	90.73362888	-0.01718874	-26.31596094
0.21	21	-0.003	-1.002	0.045	1.7761698	-0.4583664	0.3437748	90.75081762	-0.02291832	-26.32169052
0.22	22	-0.002	-1.004	0.045	1.7761698	-0.1718874	0.4010706	90.77373594	-0.02291832	-26.32169052
0.23	23	-0.001	-1.005	0.044	1.718874	-0.0572958	0.3437748	90.79092468	-0.0286479	-26.32169052
0.24	24	-0.001	-1.005	0.042	1.5469866	0.1145916	0.1718874	90.80238384	-0.0286479	-26.32169052
0.25	25	0	-1.005	0.04	1.432395	0.3437748	0.1145916	90.82530216	-0.02291832	-26.32169052
0.26	26	0.001	-1.007	0.04	1.3178034	0.4583664	0	90.83676132	-0.02291832	-26.31596094
0.27	27	0.001	-1.007	0.039	1.3750992	0.572958	0	90.85395006	-0.02291832	-26.31023136
0.28	28	0.003	-1.007	0.04	1.4896908	0.6302538	0.0572958	90.86540922	-0.02291832	-26.30450178
0.29	29	0.004	-1.006	0.038	1.5469866	0.6302538	0.286479	90.88259796	-0.0286479	-26.29304262
0.3	30	0.004	-1.005	0.039	1.6042824	0.6302538	0.4583664	90.8997867	-0.02291832	-26.29304262
0.31	31	0.005	-1.005	0.04	1.718874	0.572958	0.572958	90.91697544	-0.0286479	-26.28731304
0.32	32	0.006	-1.004	0.041	1.718874	0.5156622	0.6302538	90.93416418	-0.03437748	-26.28158346
0.33	33	0.006	-1.004	0.041	1.6615782	0.5156622	0.4583664	90.95135292	-0.04010706	-26.27585388
0.34	34	0.005	-1.003	0.04	1.7761698	0.4010706	0.286479	90.97427124	-0.04010706	-26.2701243
0.35	35	0.004	-1.005	0.04	1.9480572	0	0.2291832	90.99145998	-0.03437748	-26.27585388
0.36	36	0.002	-1.008	0.039	1.9480572	-0.2291832	0.1718874	91.0143783	-0.03437748	-26.27585388
0.37	37	0.001	-1.01	0.038	1.7761698	-0.3437748	0	91.03156704	-0.03437748	-26.28158346
0.38	38	0.001	-1.013	0.037	1.6615782	-0.4010706	-0.0572958	91.04875578	-0.0286479	-26.28731304
0.39	39	0.001	-1.013	0.036	1.4896908	-0.3437748	-0.1718874	91.06594452	-0.0286479	-26.28731304
0.4	40	0	-1.015	0.036	1.4896908	-0.1145916	-0.3437748	91.0716741	-0.01718874	-26.29304262
0.41	41	-0.001	-1.016	0.035	1.145916	0.4010706	-0.3437748	91.08313326	-0.01718874	-26.28731304
0.42	42	-0.003	-1.014	0.032	0.7448454	1.0886202	-0.4010706	91.08886284	-0.01145916	-26.27585388
0.43	43	-0.004	-1.014	0.03	0.5156622	1.7761698	-0.572958	91.09459242	-0.00572958	-26.25866514
0.44	44	-0.004	-1.013	0.028	0.0572958	2.4637194	-0.572958	91.09459242	0	-26.23574682
0.45	45	-0.001	-1.01	0.027	-0.286479	2.9220858	-0.3437748	91.08313326	0	-26.20709892
0.46	46	0.003	-1.01	0.023	-0.4010706	3.2085648	-0.1145916	91.07740368	0	-26.17272144
0.47	47	0.008	-1.009	0.021	-0.4010706	3.151269	0.1145916	91.0716741	0	-26.14407354
0.48	48	0.015	-1.008	0.019	-0.4583664	3.0366774	0.4010706	91.06594452	-0.00572958	-26.11542564
0.49	49	0.019	-1.007	0.016	-0.6875496	2.8074942	0.7448454	91.06021494	-0.01145916	-26.08677774
0.5	50	0.021	-1.006	0.014	-0.6875496	2.578311	0.9740286	91.03156704	-0.00572958	-26.069589
0.51	51	0.019	-1.005	0.012	-0.7448454	2.4637194	0.9740286	91.02583746	-0.01718874	-26.0409411
0.52	52	0.018	-1.007	0.011	-0.9167328	2.2345362	0.7448454	91.0143783	-0.02291832	-26.02375236
0.53	53	0.015	-1.007	0.008	-1.0313244	2.0626488	0.572958	91.00291914	-0.03437748	-26.00083404
0.54	54	0.011	-1.006	0.006	-1.0313244	1.7761698	0.3437748	90.99145998	-0.03437748	-25.9836453
0.55	55	0.009	-1.007	0.008	-1.145916	1.6042824	0.2291832	90.94562334	-0.02291832	-25.97218614
0.56	56	0.009	-1.009	0.01	-1.3178034	1.6042824	0	90.93416418	-0.02291832	-25.9549974
0.57	57	0.009	-1.009	0.01	-1.5469866	1.3178034	-0.1145916	90.91697544	-0.02291832	-25.94353824
0.58	58	0.01	-1.01	0.011	-1.6615782	1.0886202	-0.1145916	90.8997867	-0.02291832	-25.93207908
0.59	59	0.011	-1.009	0.01	-1.9480572	0.9740286	-0.1145916	90.88259796	-0.02291832	-25.92061992
0.6	60	0.014	-1.01	0.008	-2.3491278	1.145916	-0.0572958	90.83103174	-0.00572958	-25.91489034
0.61	61	0.013	-1.01	0.01	-2.6356068	1.432395	0	90.80811342	-0.00572958	-25.90343118
0.62	62	0.014	-1.012	0.007	-3.0366774	1.5469866	0.1718874	90.77373594	-0.01145916	-25.88624244
0.63	63	0.014	-1.015	0.004	-3.5523396	1.718874	0.2291832	90.73935846	-0.01145916	-25.8690537
0.64	64	0.014	-1.016	0	-4.1252976	1.8907614	0.4583664	90.69352182	-0.01718874	-25.85186496
0.65	65	0.013	-1.016	-0.002	-4.9847346	2.2345362	0.6875496	90.63049644	-0.01718874	-25.83467622
0.66	66	0.014	-1.015	-0.006	-5.72958	2.578311	0.9167328	90.57320064	-0.0286479	-25.80602832
0.67	67	0.017	-1.012	-0.011	-6.302538	2.6356068	1.0886202	90.51017526	-0.04010706	-25.78311
0.68	68	0.02	-1.012	-0.014	-6.8182002	2.8074942	1.4896908	90.43569072	-0.0572958	-25.7544621
0.69	69	0.027	-1.01	-0.013	-6.9900876	2.5210152	1.8907614	90.36693576	-0.08021412	-25.73154378
0.7	70	0.032	-1.005	-0.012	-7.6203414	1.8334656	2.4064236	90.27526248	-0.09167328	-25.72008462
0.71	71	0.036	-1.001	-0.011	-7.6776372	0.9740286	2.7501984	90.20077794	-0.12032118	-25.70862546
0.72	72	0.032	-0.999	-0.012	-7.6776372	-0.1718874	3.2085648	90.12056382	-0.15469866	-25.71435504
0.73	73	0.026	-1	-0.013	-8.1360036	-1.4896908	3.6669312	90.0403497	-0.18907614	-25.7258142
0.74	74	0.016	-0.998	-0.01	-8.4224826	-3.0366774	3.8961144	89.954406	-0.2291832	-25.76019168
0.75	75	0.009	-0.994	-0.002	-7.9068204	-4.297185	3.724227	89.8684623	-0.26356068	-25.80602832
0.76	76	0.004	-0.99	0.003	-7.3338624	-5.2712136	3.151269	89.79397776	-0.29220858	-25.85759454
0.77	77	0.001	-0.983	0.006	-7.3911582	-5.6722842	2.3491278	89.71949322	-0.3151269	-25.91489034
0.78	78	-0.008	-0.978	0.004	-7.6203414	-5.9014674	1.5469866	89.64500868	-0.33231564	-25.97218614
0.79	79	-0.014	-0.973	0.002	-7.8495246	-5.6149884	0.7448454	89.56479456	-0.33804522	-26.02948194
0.8	80	-0.016	-0.97	0.001	-8.021412	-4.9274388	0	89.48458044	-0.33804522	-26.08104816
0.81	81	-0.015	-0.97	0	-7.9641162	-4.0680018	-0.3437748	89.40436632	-0.33804522	-26.12115522
0.82	82	-0.014	-0.971	0.001	-7.9641162	-3.4950438	-0.1145916	89.3241522	-0.33231564	-26.1555327
0.83	83	-0.009	-0.971	0	-7.9641162	-3.3804522	0.286479	89.24393808	-0.33804522	-26.18991018
0.84	84	-0.003	-0.967	0	-8.2505952	-3.6669312	1.0313244	89.15799438	-0.34950438	-26.23001724
0.85	85	-0.001	-0.966	0	-8.021412	-4.0680018	1.5469866	89.07778026	-0.36096354	-26.2701243
0.86	86	0	-0.963	0.004	-7.448454	-4.8128472	1.8907614	89.00329572	-0.38388186	-26.32169052
0.87	87	-0.005	-0.962	0.002	-7.161975	-5.3285094	2.0626488	88.92881118	-0.4010706	-26.37325674
0.88	88	-0.011	-0.964	0.003	-6.7036086	-5.5003968	1.8334656	88.8657858	-0.41825934	-26.43055254
0.89	89	-0.016	-0.965	0.007	-5.5003968	-6.1306506	1.2605076	88.80849	-0.43544808	-26.48784834
0.9	90	-0.021	-0.968	0.008	-4.8128472	-6.1306506	0.4583664	88.76265336	-0.44117766	-26.55087372
0.91	91	-0.027	-0.98	0.003	-4.1825934	-5.6722842	0	88.7225463	-0.44117766	-26.60816952
0.92	92	-0.029	-0.99	0.004	-3.724227	-4.9274388	-0.5156622	88.68243924	-0.43544808	-26.65973574
0.93	93	-0.026	-0.99	0.01	-3.2085648	-4.4690724	-0.572958	88.65379134	-0.4297185	-26.6998428
0.94	94	-0.026	-0.985	0.012	-2.8074942	-4.0680018	-0.1718874	88.62514344	-0.4297185	-26.74567944
0.95	95	-0.021	-0.98	0.007	-2.0626488	-3.8388186	0.4010706	88.6079547	-0.44117766	-26.78005692
0.96	96	-0.012	-0.981	0.008	-1.3178034	-3.724227	1.0886202	88.59649554	-0.44690724	-26.82016398
0.97	97	-0.009	-0.983	0.011	-1.4896908	-3.8961144	2.2345362	88.5793068	-0.46982556	-26.85454146
0.98	98	-0.009	-0.989	0.01	-2.2345362	-4.3544808	3.0939732	88.55638848	-0.50420304	-26.9003781
0.99	99	-0.013	-0.995	0.011	-3.3231564	-4.4117766	3.3231564	88.522011	-0.53858052	-26.94048516
1	100	-0.017	-0.999	0.013	-4.1252976	-4.1825934	3.3804522	88.48763352	-0.572958	-26.9863218
1.01	101	-0.017	-0.996	0.016	-4.2398892	-4.0680018	3.5523396	88.44752646	-0.60733548	-27.02642886
1.02	102	-0.015	-0.995	0.009	-3.6096354	-4.2398892	4.010706	88.41314898	-0.64744254	-27.06653592
1.03	103	-0.009	-0.992	0	-2.6929026	-3.8961144	4.583664	88.38450108	-0.69327918	-27.1009134
1.04	104	-0.002	-0.987	-0.012	-2.3491278	-3.8388186	5.3285094	88.36158276	-0.7448454	-27.14102046
1.05	105	0.003	-0.979	-0.017	-1.8907614	-3.5523396	6.302538	88.33866444	-0.8021412	-27.17539794
1.06	106	0	-0.977	-0.012	-1.3750992	-4.0680018	6.8182002	88.32720528	-0.87089616	-27.215505
1.07	107	-0.003	-0.979	-0.004	-0.9740286	-4.9847346	6.8182002	88.31574612	-0.93965112	-27.26134164
1.08	108	-0.012	-0.983	-0.002	-1.0313244	-5.9014674	6.3598338	88.31001654	-1.0026765	-27.31863744
1.09	109	-0.019	-0.992	-0.002	-1.3750992	-6.3598338	5.5576926	88.29855738	-1.0599723	-27.38166282
1.1	110	-0.026	-0.997	-0.006	-2.5210152	-6.6463128	4.6409598	88.26990948	-1.10580894	-27.4446882
1.11	111	-0.03	-0.99	-0.013	-3.724227	-6.7036086	3.9534102	88.235532	-1.145916	-27.51344316
1.12	112	-0.031	-0.977	-0.023	-4.4117766	-6.4744254	3.4950438	88.19542494	-1.18029348	-27.57646854
1.13	113	-0.029	-0.967	-0.021	-4.583664	-5.72958	3.2085648	88.1495883	-1.21467096	-27.63376434
1.14	114	-0.033	-0.961	-0.023	-5.2139178	-4.870143	3.151269	88.09802208	-1.24331886	-27.67960098
1.15	115	-0.035	-0.964	-0.029	-5.9014674	-3.724227	3.0366774	88.0349967	-1.27769634	-27.71397846
1.16	116	-0.037	-0.969	-0.028	-6.4171296	-2.9220858	2.9220858	87.96624174	-1.31207382	-27.74262636
1.17	117	-0.036	-0.966	-0.026	-6.7036086	-2.578311	3.151269	87.90321636	-1.34072172	-27.77127426
1.18	118	-0.036	-0.959	-0.024	-7.2765666	-2.6929026	3.437748	87.82873182	-1.3750992	-27.79992216
1.19	119	-0.037	-0.951	-0.023	-8.4224826	-2.8074942	3.6096354	87.74278812	-1.41520626	-27.82284048
1.2	120	-0.032	-0.954	-0.007	-9.5683986	-2.4637194	3.3804522	87.65111484	-1.44958374	-27.85148838
1.21	121	-0.024	-0.973	-0.002	-11.5164558	-1.718874	3.151269	87.53079366	-1.48396122	-27.86867712
1.22	122	-0.017	-0.999	-0.016	-12.4904844	-1.145916	2.86479	87.4047429	-1.51260912	-27.88013628
1.23	123	-0.01	-1.022	-0.027	-12.4904844	-0.572958	2.6929026	87.27869214	-1.54125702	-27.88586586
1.24	124	-0.008	-1.039	-0.02	-11.5737516	-0.572958	2.6929026	87.16410054	-1.56990492	-27.89159544
1.25	125	-0.01	-1.04	-0.017	-11.745639	-0.4583664	2.9220858	87.04377936	-1.59282324	-27.89732502
1.26	126	-0.017	-1.03	-0.03	-11.2872726	-0.4583664	3.8388186	86.92918776	-1.6329303	-27.9030546
1.27	127	-0.022	-1.023	-0.031	-9.6829902	-0.2291832	4.583664	86.8317849	-1.67876694	-27.9030546
1.28	128	-0.029	-1.016	-0.039	-9.3392154	-0.4010706	5.2712136	86.74011162	-1.73606274	-27.9030546
1.29	129	-0.034	-1.008	-0.045	-9.3392154	-0.859437	5.6149884	86.64270876	-1.79335854	-27.90878418
1.3	130	-0.034	-1.012	-0.044	-8.4224826	-0.6875496	5.2712136	86.55676506	-1.84492476	-27.91451376
1.31	131	-0.035	-1.021	-0.035	-7.9068204	-0.4010706	4.3544808	86.47655094	-1.8907614	-27.92024334
1.32	132	-0.038	-1.025	-0.034	-7.9641162	0.3437748	3.3804522	86.39633682	-1.92513888	-27.91451376
1.33	133	-0.043	-1.02	-0.04	-7.5630456	0.4010706	2.5210152	86.3161227	-1.9480572	-27.90878418
1.34	134	-0.045	-1.012	-0.042	-6.875496	0.286479	1.7761698	86.24736774	-1.96524594	-27.9030546
1.35	135	-0.045	-1.011	-0.042	-7.0473834	0.1718874	1.0886202	86.17861278	-1.98243468	-27.9030546
1.36	136	-0.038	-1.006	-0.036	-7.6203414	-0.1718874	0.3437748	86.09839866	-1.98816426	-27.9030546
1.37	137	-0.027	-0.99	-0.047	-7.9068204	0.9167328	0	86.01818454	-1.98816426	-27.89732502
1.38	138	-0.019	-0.977	-0.062	-7.1046792	1.6615782	0.0572958	85.9437	-1.98816426	-27.88013628
1.39	139	-0.015	-0.975	-0.072	-6.4171296	2.0626488	0.286479	85.88067462	-1.98816426	-27.86294754
1.4	140	-0.022	-0.978	-0.072	-6.302538	1.6615782	0.4010706	85.80619008	-1.98816426	-27.8457588
1.41	141	-0.029	-0.989	-0.074	-7.2765666	1.718874	0.0572958	85.73170554	-1.98816426	-27.82857006
1.42	142	-0.032	-0.993	-0.075	-9.5111028	1.718874	0	85.6285731	-1.98816426	-27.81138132
1.43	143	-0.033	-0.991	-0.072	-10.886202	1.0886202	0.3437748	85.51971108	-1.99389384	-27.80565174
1.44	144	-0.032	-0.988	-0.075	-11.2872726	0.572958	0.6302538	85.40511948	-1.99962342	-27.79992216
1.45	145	-0.028	-0.976	-0.079	-11.1153852	0.2291832	1.0313244	85.2847983	-2.005353	-27.79419258
1.46	146	-0.026	-0.967	-0.083	-10.599723	0.3437748	1.2032118	85.17593628	-2.02254174	-27.79419258
1.47	147	-0.029	-0.965	-0.08	-9.9121734	0.7448454	1.0886202	85.07280384	-2.0340009	-27.78273342
1.48	148	-0.029	-0.974	-0.088	-9.6256944	1.5469866	0.9167328	84.97540098	-2.03973048	-27.77127426
1.49	149	-0.028	-0.995	-0.098	-9.6256944	1.2605076	0.6875496	84.87799812	-2.04546006	-27.7598151
1.5	150	-0.026	-1.02	-0.084	-9.453807	0.286479	0.4583664	84.78059526	-2.04546006	-27.75408552
1.51	151	-0.024	-1.034	-0.062	-9.453807	-0.4010706	0.286479	84.6831924	-2.05118964	-27.7598151
1.52	152	-0.022	-1.03	-0.063	-10.2559482	-0.6302538	0.2291832	84.58005996	-2.05691922	-27.77127426
1.53	153	-0.02	-1.019	-0.073	-10.3705398	-0.6875496	0.5156622	84.47119794	-2.0626488	-27.77700384
1.54	154	-0.019	-1.009	-0.084	-9.2819196	-0.859437	1.0313244	84.37952466	-2.07410796	-27.78273342
1.55	155	-0.019	-1.009	-0.089	-8.5370742	-1.2605076	1.6042824	84.28785138	-2.08556712	-27.79992216
1.56	156	-0.021	-1.014	-0.089	-8.1360036	-1.4896908	1.718874	84.20763726	-2.10275586	-27.81138132
1.57	157	-0.021	-1.015	-0.081	-7.6776372	-1.8334656	1.6042824	84.12742314	-2.1199446	-27.82857006
1.58	158	-0.027	-1.014	-0.061	-6.9900876	-2.3491278	1.432395	84.05866818	-2.13713334	-27.85148838
1.59	159	-0.027	-1.014	-0.067	-6.6463128	-2.1199446	1.3178034	83.9956428	-2.15432208	-27.8744067
1.6	160	-0.026	-1.012	-0.091	-7.5057498	-1.8907614	1.432395	83.91542868	-2.16578124	-27.89159544
1.61	161	-0.019	-1.013	-0.088	-7.6203414	-2.0626488	1.6615782	83.84094414	-2.18296998	-27.91451376
1.62	162	-0.017	-1.014	-0.091	-7.9641162	-2.0626488	1.6615782	83.76073002	-2.20015872	-27.9317025
1.63	163	-0.024	-1.006	-0.106	-8.2505952	-2.291832	1.5469866	83.67478632	-2.22307704	-27.95462082
1.64	164	-0.038	-0.998	-0.115	-7.7922288	-2.6929026	1.2605076	83.60030178	-2.2345362	-27.98326872
1.65	165	-0.051	-0.996	-0.109	-6.2452422	-2.4637194	0.6302538	83.52581724	-2.25172494	-28.00618704
1.66	166	-0.057	-1.003	-0.109	-4.9274388	-1.3750992	-0.0572958	83.47425102	-2.25172494	-28.0176462
1.67	167	-0.058	-1.009	-0.109	-4.9847346	-0.9167328	-0.7448454	83.4226848	-2.24599536	-28.02910536
1.68	168	-0.051	-1.012	-0.092	-5.156622	-0.859437	-0.9167328	83.37111858	-2.24026578	-28.04056452
1.69	169	-0.042	-1.003	-0.093	-6.1306506	-1.2032118	-0.6302538	83.31382278	-2.2345362	-28.05202368
1.7	170	-0.037	-0.997	-0.091	-7.448454	-1.6615782	-0.286479	83.23933824	-2.22880662	-28.074942
1.71	171	-0.034	-0.993	-0.101	-8.6516658	-1.3178034	-0.0572958	83.15339454	-2.22880662	-28.08640116
1.72	172	-0.033	-0.989	-0.124	-9.6829902	-0.6875496	0.286479	83.0502621	-2.2345362	-28.09213074
1.73	173	-0.035	-0.996	-0.135	-9.7975818	-0.2291832	0.859437	82.95285924	-2.24599536	-28.09786032
1.74	174	-0.033	-1.012	-0.115	-9.9121734	-0.6875496	1.5469866	82.85545638	-2.2631841	-28.1035899
1.75	175	-0.024	-1.019	-0.117	-11.0580894	-0.6875496	1.718874	82.7351352	-2.27464326	-28.10931948
1.76	176	-0.024	-1.015	-0.11	-11.8029348	-0.572958	1.432395	82.6205436	-2.291832	-28.11504906
1.77	177	-0.025	-1.008	-0.111	-11.45916	-1.2032118	0.3437748	82.50022242	-2.29756158	-28.12650822
1.78	178	-0.03	-0.992	-0.118	-10.313244	-1.7761698	-0.8021412	82.39708998	-2.291832	-28.14942654
1.79	179	-0.036	-0.979	-0.111	-9.453807	-2.1199446	-1.6042824	82.3054167	-2.28037284	-28.17234486
1.8	180	-0.04	-0.973	-0.108	-9.0527364	-1.6615782	-2.005353	82.21374342	-2.2631841	-28.1895336
1.81	181	-0.043	-0.976	-0.109	-9.5111028	-0.9167328	-2.4064236	82.11634056	-2.24026578	-28.20672234
1.82	182	-0.047	-0.983	-0.102	-10.5424272	0.4010706	-2.6929026	82.00747854	-2.21161788	-28.20672234
1.83	183	-0.051	-0.986	-0.107	-10.1413566	1.5469866	-2.578311	81.9043461	-2.18869956	-28.19526318
1.84	184	-0.055	-0.997	-0.099	-9.9121734	2.005353	-2.2345362	81.80121366	-2.16005166	-28.17807444
1.85	185	-0.055	-1.001	-0.086	-9.8548776	2.1199446	-1.7761698	81.71526996	-2.1485925	-28.1608857
1.86	186	-0.053	-0.989	-0.095	-9.3965112	2.9793816	-1.2032118	81.6178671	-2.13140376	-28.1322378
1.87	187	-0.054	-0.97	-0.106	-8.8235532	4.4690724	-0.6302538	81.52619382	-2.1199446	-28.09213074
1.88	188	-0.051	-0.961	-0.111	-7.8495246	6.4744254	-0.286479	81.44025012	-2.11421502	-28.02910536
1.89	189	-0.049	-0.961	-0.125	-7.3911582	7.9641162	0.2291832	81.360036	-2.10275586	-27.94889124
1.9	190	-0.051	-0.963	-0.119	-6.9900876	8.7089616	0.9167328	81.29128104	-2.10848544	-27.86294754
1.91	191	-0.056	-0.979	-0.118	-7.161975	9.0527364	1.6042824	81.21106692	-2.11421502	-27.77127426
1.92	192	-0.049	-1.003	-0.137	-8.7089616	9.3965112	2.0626488	81.11939364	-2.12567418	-27.67960098
1.93	193	-0.039	-1.015	-0.146	-10.313244	9.9121734	2.578311	81.01053162	-2.13713334	-27.57646854
1.94	194	-0.034	-1.005	-0.142	-10.7143146	9.6829902	3.2085648	80.89594002	-2.16005166	-27.47906568
1.95	195	-0.035	-0.987	-0.134	-10.6570188	9.1100322	3.6669312	80.78134842	-2.18296998	-27.3873924
1.96	196	-0.039	-0.964	-0.116	-10.8289062	8.9381448	4.3544808	80.66675682	-2.21734746	-27.28998954
1.97	197	-0.042	-0.946	-0.126	-11.3445684	9.453807	4.9274388	80.54643564	-2.25172494	-27.19258668
1.98	198	-0.04	-0.938	-0.144	-8.9954406	11.0580894	4.9274388	80.44903278	-2.28610242	-27.07799508
1.99	199	-0.044	-0.95	-0.135	-7.8495246	11.8029348	4.8128472	80.36308908	-2.3204799	-26.95194432
2	200	-0.054	-0.974	-0.132	-8.7089616	12.4331886	4.3544808	80.2714158	-2.3491278	-26.82589356
2.01	201	-0.068	-1	-0.125	-9.2819196	13.8082878	3.437748	80.16828336	-2.36058696	-26.68265406
2.02	202	-0.066	-1.008	-0.123	-9.6829902	15.8709366	2.6929026	80.06515092	-2.36631654	-26.52222582
2.03	203	-0.061	-1.002	-0.137	-9.167328	17.7044022	2.1772404	79.96201848	-2.36631654	-26.35033842
2.04	204	-0.057	-0.997	-0.132	-8.021412	18.907614	1.718874	79.8703452	-2.35485738	-26.16126228
2.05	205	-0.051	-0.995	-0.132	-6.9900876	19.3659804	1.5469866	79.79013108	-2.34339822	-25.96645656
2.06	206	-0.053	-0.987	-0.142	-7.161975	19.7097552	1.9480572	79.70418738	-2.33193906	-25.77165084
2.07	207	-0.054	-0.993	-0.151	-7.0473834	19.1367972	2.4064236	79.62397326	-2.33193906	-25.5825747
2.08	208	-0.047	-1.008	-0.16	-6.5317212	19.2513888	2.8074942	79.54948872	-2.33193906	-25.38776898
2.09	209	-0.046	-1.018	-0.171	-6.0733548	19.480572	2.86479	79.47500418	-2.32620948	-25.19296326
2.1	210	-0.036	-1.027	-0.179	-4.7555514	19.7097552	2.6929026	79.4119788	-2.3204799	-24.99815754
2.11	211	-0.024	-1.035	-0.154	-3.8388186	19.9389384	1.9480572	79.36614216	-2.30902074	-24.79762224
2.12	212	-0.016	-1.037	-0.139	-4.6409598	18.9649098	1.0313244	79.30884636	-2.291832	-24.61427568
2.13	213	-0.012	-1.035	-0.151	-6.3598338	17.475219	0.286479	79.23436182	-2.26891368	-24.44238828
2.14	214	-0.007	-1.036	-0.153	-7.6203414	16.042824	-0.2291832	79.14841812	-2.24026578	-24.28768962
2.15	215	0	-1.042	-0.169	-9.6256944	15.3552744	-0.859437	79.0395561	-2.20015872	-24.13872054
2.16	216	0.007	-1.032	-0.184	-12.2040054	14.9542038	-1.6042824	78.90777576	-2.16005166	-23.99548104
2.17	217	0.012	-1.026	-0.19	-12.891555	14.32395	-2.4637194	78.77026584	-2.11421502	-23.8637007
2.18	218	0.014	-1.03	-0.186	-13.3499214	13.750992	-3.3804522	78.63275592	-2.0626488	-23.73764994
2.19	219	0.002	-1.036	-0.186	-15.1260912	12.6623718	-4.1252976	78.47232768	-1.99962342	-23.62305834
2.2	220	-0.011	-1.038	-0.202	-15.2406828	11.172681	-4.7555514	78.31189944	-1.93086846	-23.52565548
2.21	221	-0.019	-1.044	-0.188	-15.9282324	9.9694692	-5.3285094	78.14574162	-1.8621135	-23.43971178
2.22	222	-0.018	-1.043	-0.192	-17.475219	8.4797784	-5.6149884	77.96239506	-1.79335854	-23.37095682
2.23	223	-0.01	-1.041	-0.216	-19.3659804	8.9954406	-6.016059	77.76185976	-1.72460358	-23.29647228
2.24	224	0.006	-1.028	-0.209	-18.5638392	9.5111028	-6.4171296	77.56705404	-1.64438946	-23.22198774
2.25	225	0.008	-1.011	-0.23	-18.621135	10.7143146	-7.3911582	77.37224832	-1.5469866	-23.13604404
2.26	226	0.001	-0.994	-0.237	-19.8816426	10.4278356	-8.0787078	77.16598344	-1.44958374	-23.05582992
2.27	227	-0.006	-0.991	-0.225	-20.626488	9.5683986	-8.3651868	76.95398898	-1.35218088	-22.98134538
2.28	228	-0.006	-0.996	-0.238	-22.1734746	9.1100322	-8.4224826	76.72480578	-1.25477802	-22.91259042
2.29	229	-0.009	-1.002	-0.242	-23.2620948	8.7662574	-8.307891	76.48416342	-1.16310474	-22.84956504
2.3	230	0.001	-1.014	-0.244	-23.2620948	8.8235532	-8.0787078	76.24352106	-1.06570188	-22.78653966
2.31	231	0.02	-1.035	-0.242	-23.2620948	9.0527364	-8.0787078	76.0028787	-0.96829902	-22.7177847
2.32	232	0.035	-1.066	-0.224	-23.7204612	9.1100322	-8.6516658	75.76223634	-0.87089616	-22.65475932
2.33	233	0.035	-1.087	-0.231	-24.9809688	7.6203414	-9.3392154	75.50440524	-0.76203414	-22.6031931
2.34	234	0.031	-1.087	-0.247	-27.0436176	7.0473834	-9.9694692	75.2293854	-0.65317212	-22.56308604
2.35	235	0.035	-1.077	-0.263	-28.0176462	7.5630456	-10.2559482	74.9429064	-0.53858052	-22.52297898
2.36	236	0.04	-1.066	-0.278	-26.8144344	8.0787078	-10.1413566	74.66788656	-0.42398892	-22.47141276
2.37	237	0.046	-1.065	-0.261	-25.1528562	8.9954406	-9.6829902	74.41005546	-0.30939732	-22.41411696
2.38	238	0.052	-1.069	-0.262	-24.1788276	9.2246238	-8.7662574	74.16368352	-0.20626488	-22.35109158
2.39	239	0.064	-1.075	-0.27	-24.1788276	9.6829902	-7.6776372	73.91731158	-0.1145916	-22.27660704
2.4	240	0.087	-1.08	-0.29	-24.064236	9.5683986	-6.8182002	73.67093964	-0.01718874	-22.20785208
2.41	241	0.103	-1.093	-0.298	-24.064236	7.8495246	-6.5317212	73.4245677	0.0572958	-22.15628586
2.42	242	0.104	-1.101	-0.328	-24.637194	6.4744254	-6.5317212	73.17246618	0.13750992	-22.1161788
2.43	243	0.099	-1.115	-0.342	-25.8977016	4.4117766	-6.302538	72.9089055	0.20626488	-22.09326048
2.44	244	0.093	-1.122	-0.35	-26.1841806	3.0939732	-6.1879464	72.63961524	0.26929026	-22.08180132
2.45	245	0.083	-1.112	-0.347	-26.1841806	2.4064236	-6.2452422	72.37605456	0.33804522	-22.08180132
2.46	246	0.071	-1.111	-0.276	-25.496631	-0.7448454	-6.016059	72.11249388	0.38961144	-22.11044922
2.47	247	0.036	-1.15	-0.189	-27.3873924	0.6875496	-6.016059	71.83747404	0.44690724	-22.12190838
2.48	248	-0.001	-1.166	-0.189	-33.6899304	9.2819196	-6.9900876	71.49369924	0.53858052	-22.058883
2.49	249	-0.005	-1.113	-0.144	-33.6326346	11.45916	-9.0527364	71.14992444	0.65317212	-21.98439846
2.5	250	0.005	-1.073	-0.102	-32.6013102	12.7196676	-11.3445684	70.84052712	0.79068204	-21.89845476
2.51	251	0.004	-1.045	-0.097	-30.8251404	15.2979786	-13.464513	70.52540022	0.96256944	-21.8010519
2.52	252	0.006	-1.019	-0.089	-31.1689152	15.2979786	-14.896908	70.21027332	1.145916	-21.70937862
2.53	253	0.032	-0.981	-0.099	-33.5753388	11.9748222	-15.183387	69.86649852	1.3178034	-21.65208282
2.54	254	0.049	-0.95	-0.117	-32.2002396	11.3445684	-14.037471	69.53991246	1.48396122	-21.59478702
2.55	255	0.075	-0.945	-0.05	-27.1009134	7.2765666	-13.1207382	69.2992701	1.6329303	-21.57759828
2.56	256	0.086	-0.941	-0.016	-23.5485738	-0.4010706	-12.891555	69.05862774	1.75325148	-21.6291645
2.57	257	0.07	-0.891	-0.03	-21.6578124	-7.3338624	-12.891555	68.83517412	1.84492476	-21.7437561
2.58	258	0.061	-0.817	-0.039	-22.1734746	-8.1932994	-14.037471	68.60599092	1.94232762	-21.86980686
2.59	259	0.055	-0.715	-0.08	-23.8923486	-6.7036086	-14.7250206	68.35961898	2.05691922	-21.99012804
2.6	260	0.035	-0.658	-0.085	-22.0015872	-4.1252976	-15.469866	68.14762452	2.18296998	-22.0875309
2.61	261	-0.011	-0.638	-0.094	-16.7876694	-0.8021412	-17.18874	67.97000754	2.33766864	-22.15628586
2.62	262	-0.057	-0.646	-0.135	-10.7143146	3.437748	-18.5065434	67.86114552	2.51528562	-22.19639292
2.63	263	-0.109	-0.659	-0.162	-5.156622	4.0680018	-17.1314442	67.80384972	2.68717302	-22.22504082
2.64	264	-0.156	-0.697	-0.144	0.1718874	-2.4637194	-13.0634424	67.80384972	2.80176462	-22.29379578
2.65	265	-0.162	-0.763	-0.135	8.6516658	-8.59437	-5.6149884	67.91271174	2.79603504	-22.39119864
2.66	266	-0.092	-0.8	-0.147	12.6623718	-7.2765666	0.4010706	68.0387625	2.76738714	-22.45422402
2.67	267	0	-0.778	-0.139	17.18874	-4.297185	5.156622	68.2106499	2.70436176	-22.47141276
2.68	268	0.076	-0.77	-0.131	22.2880662	-1.3750992	7.6203414	68.4398331	2.6356068	-22.4599536
2.69	269	0.094	-0.796	-0.131	25.9549974	1.0886202	8.0787078	68.70339378	2.56685184	-22.41411696
2.7	270	0.042	-0.835	-0.136	28.1322378	0.5156622	7.5057498	69.0127911	2.49809688	-22.37973948
2.71	271	-0.06	-0.878	-0.13	30.8824362	-1.8334656	6.4744254	69.327918	2.4350715	-22.3740099
2.72	272	-0.152	-0.919	-0.113	34.37748	-3.8961144	6.9900876	69.67742238	2.36058696	-22.37973948
2.73	273	-0.176	-0.935	-0.088	40.2789474	-5.443101	10.599723	70.08422256	2.25172494	-22.39119864
2.74	274	-0.146	-0.944	-0.086	49.6754586	-5.0420304	16.8449652	70.59415518	2.07983754	-22.37973948
2.75	275	-0.09	-0.963	-0.07	60.2751816	-3.9534102	22.631841	71.2186794	1.85638392	-22.33963242
2.76	276	-0.044	-0.974	-0.039	65.4890994	-4.4117766	26.6998428	71.88904026	1.59855282	-22.29379578
2.77	277	-0.039	-0.976	-0.018	65.89017	-7.1046792	29.507337	72.55940112	1.30634424	-22.26514788
2.78	278	-0.051	-0.965	-0.046	64.9161414	-6.3598338	31.7418732	73.21830282	0.99694692	-22.2307704
2.79	279	-0.074	-0.947	-0.067	65.4318036	-6.3598338	33.0596766	73.8829341	0.67036086	-22.19066334
2.8	280	-0.109	-0.951	-0.04	67.2652692	-6.302538	33.9191136	74.58194286	0.33231564	-22.15628586
2.81	281	-0.139	-0.967	-0.024	71.1613836	-2.86479	34.3201842	75.30386994	0.00572958	-22.0875309
2.82	282	-0.163	-0.95	-0.015	73.7396946	-0.4583664	35.7525792	76.05444492	-0.32658606	-22.0015872
2.83	283	-0.212	-0.936	-0.011	78.8963166	1.2032118	38.2162986	76.85658612	-0.6875496	-21.89272518
2.84	284	-0.244	-0.914	0.002	84.9696714	4.5263682	40.8519054	77.71602312	-1.06570188	-21.74948568
2.85	285	-0.249	-0.883	0.014	89.0376732	5.0420304	43.3729206	78.62129676	-1.47823164	-21.60624618
2.86	286	-0.226	-0.867	-0.004	93.2775624	2.9220858	44.2896534	79.56667746	-1.89649098	-21.485925
2.87	287	-0.162	-0.858	-0.04	97.975818	3.2085648	42.5707794	80.5578948	-2.29756158	-21.3713334
2.88	288	-0.088	-0.854	-0.072	102.4448904	5.3285094	38.2162986	81.5892192	-2.65852512	-21.25101222
2.89	289	-0.023	-0.853	-0.086	107.9452872	6.4744254	34.0337052	82.6778394	-2.97365202	-21.13069104
2.9	290	0.018	-0.843	-0.067	111.3830352	4.870143	30.7678446	83.80656666	-3.26013102	-21.03328818
2.91	291	0.023	-0.827	-0.034	112.4716554	0.4583664	29.6219286	84.94675308	-3.54088044	-20.99318112
2.92	292	0	-0.802	-0.018	113.159205	-4.2398892	29.8511118	86.09266908	-3.83308902	-20.9989107
2.93	293	-0.019	-0.766	-0.01	113.2165008	-7.161975	31.1689152	87.25004424	-4.13102718	-21.03901776
2.94	294	-0.011	-0.735	-0.011	115.164558	-8.307891	32.5440144	88.42460814	-4.44615408	-21.09631356
2.95	295	0.042	-0.717	-0.023	119.748222	-8.5370742	32.658606	89.64500868	-4.7555514	-21.16506852
2.96	296	0.096	-0.702	-0.016	115.6802202	-7.734933	31.226211	90.82530216	-5.05348956	-21.23382348
2.97	297	0.138	-0.674	-0.003	99.8665794	-7.2192708	27.6738714	91.8451674	-5.31705024	-21.29684886
2.98	298	0.171	-0.611	-0.008	87.3187992	-9.9121734	23.3193906	92.74471146	-5.53477428	-21.39425172
2.99	299	0.182	-0.564	0.018	80.1568242	-13.464513	19.194093	93.57550056	-5.70666168	-21.53176164
3	300	0.159	-0.565	0.057	73.9688778	-16.5011904	15.5844576	94.34326428	-5.83271244	-21.69791946
3.01	301	0.103	-0.595	0.068	61.0773228	-16.902261	13.5218088	94.98497724	-5.94157446	-21.86980686
3.02	302	0.049	-0.642	0.055	44.4615408	-13.9228794	12.4331886	95.4548028	-6.0447069	-22.01304636
3.03	303	-0.016	-0.658	0.043	30.7678446	-9.5683986	12.4331886	95.77565928	-6.15356892	-22.1161788
3.04	304	-0.097	-0.653	0.056	24.7517856	-3.8388186	13.8082878	96.03349038	-6.28534926	-22.16774502
3.05	305	-0.157	-0.678	0.047	22.631841	3.5523396	15.0687954	96.256944	-6.4457775	-22.1448267
3.06	306	-0.171	-0.728	0.034	19.480572	10.9434978	16.8449652	96.44602014	-6.62339448	-22.05315342
3.07	307	-0.177	-0.758	0.048	11.6883432	18.4492476	18.8503182	96.543423	-6.83538894	-21.89272518
3.08	308	-0.193	-0.771	0.042	3.4950438	24.923673	18.621135	96.54915258	-7.05311298	-21.66354198
3.09	309	-0.218	-0.775	0.006	-4.297185	28.1895336	15.4125702	96.46893846	-7.2479187	-21.40571088
3.1	310	-0.264	-0.803	-0.008	-13.4072172	26.5279554	10.6570188	96.2855919	-7.40834694	-21.15360936
3.11	311	-0.289	-0.859	0.038	-18.7930224	24.2934192	5.9587632	96.06213828	-7.50002022	-20.91869658
3.12	312	-0.294	-0.941	0.078	-27.9603504	23.3766864	4.010706	95.7412818	-7.57450476	-20.69524296
3.13	313	-0.299	-1.022	0.126	-40.0497642	24.350715	4.1825934	95.30010414	-7.6489893	-20.46605976
3.14	314	-0.309	-1.07	0.177	-47.7846972	29.3927454	3.0366774	94.77298278	-7.71201468	-20.18531034
3.15	315	-0.285	-1.132	0.194	-55.003968	39.3622146	-0.7448454	94.1656473	-7.75785132	-19.7956989
3.16	316	-0.262	-1.248	0.169	-62.1086472	51.9099948	-8.7089616	93.45517938	-7.72347384	-19.28576628
3.17	317	-0.267	-1.476	0.13	-66.6350154	62.1086472	-21.6578124	92.68741566	-7.5630456	-18.66124206
3.18	318	-0.317	-1.798	0.051	-76.6044846	65.7755784	-35.6952834	91.8165195	-7.25937786	-18.00234036
3.19	319	-0.383	-2.137	-0.03	-93.4494498	65.7755784	-46.6387812	90.77946552	-6.83538894	-17.34343866
3.2	320	-0.364	-2.462	-0.133	-122.4984204	64.171296	-47.555514	89.45020296	-6.39421128	-16.71891444
3.21	321	-0.232	-2.602	-0.368	-161.574156	60.8481396	-39.3622146	87.74278812	-6.016059	-16.14022686
3.22	322	0.007	-2.382	-0.434	-142.666542	57.5249832	-27.1009134	86.230179	-5.74676874	-15.59591676
3.23	323	0.206	-2.235	-0.421	-80.8443738	46.123119	-12.8342592	85.35928284	-5.60352924	-15.1547391
3.24	324	0.25	-2.18	-0.436	-34.6066632	29.2781538	-1.6042824	84.97540098	-5.57488134	-14.87398968
3.25	325	0.184	-2.106	-0.251	-38.4454818	13.6936962	2.4637194	84.5686008	-5.59207008	-14.73647976
3.26	326	0.079	-1.961	-0.054	-53.1705024	-1.2605076	-0.4583664	84.03574986	-5.59207008	-14.75939808
3.27	327	-0.024	-1.776	-0.113	-60.6189564	-17.4179232	-7.0473834	83.43987354	-5.54623344	-14.94274464
3.28	328	-0.028	-1.685	-0.227	-51.7954032	-23.491278	-15.5271618	82.94140008	-5.4144531	-15.20057574
3.29	329	0.015	-1.627	-0.193	-48.5868384	-24.9809688	-21.7151082	82.4773041	-5.23110654	-15.48132516
3.3	330	0.045	-1.517	-0.168	-59.8168152	-28.1322378	-23.3193906	81.89861652	-5.03630082	-15.79645206
3.31	331	0.038	-1.369	-0.188	-73.7969904	-33.3461556	-21.4286292	81.1881486	-4.870143	-16.16314518
3.32	332	0	-1.222	-0.197	-83.5372764	-39.3622146	-17.8762896	80.38027782	-4.7555514	-16.5871341
3.33	333	-0.02	-1.115	-0.166	-89.7825186	-43.544808	-13.8082878	79.50938166	-4.69252602	-17.0455005
3.34	334	-0.046	-0.999	-0.135	-97.5174516	-45.4355694	-10.886202	78.56400096	-4.6696077	-17.52105564
3.35	335	-0.051	-0.863	-0.079	-101.3562702	-45.8939358	-8.0787078	77.58424278	-4.68106686	-17.99661078
3.36	336	-0.078	-0.742	-0.031	-107.6015124	-42.2270046	-4.4117766	76.53572964	-4.73263308	-18.42632928
3.37	337	-0.134	-0.623	0	-112.9873176	-34.0337052	-2.86479	75.42419112	-4.78992888	-18.77583366
3.38	338	-0.169	-0.521	0.022	-112.7008386	-25.2674478	-4.3544808	74.30119344	-4.8128472	-19.03939434
3.39	339	-0.184	-0.458	0.04	-110.5235982	-19.0222056	-7.8495246	73.20111408	-4.80138804	-19.2513888
3.4	340	-0.177	-0.422	0.058	-109.148499	-15.8136408	-11.5164558	72.11822346	-4.74982182	-19.44619452
3.41	341	-0.159	-0.4	0.038	-111.2111478	-13.464513	-14.5531332	71.00668494	-4.66387812	-19.62954108
3.42	342	-0.128	-0.398	-0.002	-112.4716554	-10.8289062	-16.902261	69.88368726	-4.5550161	-19.80142848
3.43	343	-0.086	-0.421	-0.037	-112.5289512	-8.7662574	-18.334656	68.74923042	-4.42323576	-19.95612714
3.44	344	-0.042	-0.464	-0.039	-114.9353748	-8.021412	-19.0795014	67.59758484	-4.28572584	-20.1108258
3.45	345	0.002	-0.512	-0.025	-121.3525044	-7.2765666	-19.3086846	66.38291388	-4.14821592	-20.25979488
3.46	346	0.028	-0.534	0	-129.3166206	-6.6463128	-18.907614	65.08229922	-4.02216516	-20.40876396
3.47	347	0.041	-0.536	0.01	-136.1921166	-5.3285094	-17.4179232	63.7129296	-3.90184398	-20.5405443
3.48	348	0.048	-0.535	-0.023	-139.801752	-4.7555514	-15.2979786	62.29772334	-3.80444112	-20.66086548
3.49	349	0.026	-0.544	-0.076	-141.2914428	-5.72958	-12.318597	60.8767875	-3.73568616	-20.78118666
3.5	350	0.011	-0.564	-0.113	-142.0362882	-7.161975	-9.7975818	59.45012208	-3.70130868	-20.90150784
3.51	351	-0.003	-0.584	-0.143	-142.666542	-8.2505952	-8.3651868	58.0119975	-3.68984952	-21.02182902
3.52	352	-0.006	-0.595	-0.154	-143.525979	-9.2246238	-8.1932994	56.56241376	-3.68984952	-21.15360936
3.53	353	-0.011	-0.61	-0.173	-145.1302614	-9.2819196	-9.6256944	55.10137086	-3.67839036	-21.29111928
3.54	354	-0.018	-0.632	-0.187	-145.3594446	-7.5057498	-12.1467096	53.63459838	-3.6382833	-21.4286292
3.55	355	-0.04	-0.656	-0.206	-145.1875572	-4.8128472	-14.5531332	52.17928506	-3.56952834	-21.56040954
3.56	356	-0.048	-0.653	-0.242	-143.1822042	-1.432395	-16.2147114	50.7354309	-3.47212548	-21.68073072
3.57	357	-0.087	-0.671	-0.252	-137.223441	1.7761698	-17.1314442	49.34314296	-3.3518043	-21.77813358
3.58	358	-0.1	-0.679	-0.242	-141.2914428	-0.7448454	-16.8449652	47.91647754	-3.24867186	-21.89845476
3.59	359	-0.108	-0.597	-0.347	-143.0103168	-4.6982556	-14.2666542	46.47262338	-3.19137606	-22.03596468
3.6	360	-0.096	-0.544	-0.402	-132.353298	-9.453807	-11.172681	45.14336082	-3.19710564	-22.18493376
3.61	361	-0.045	-0.542	-0.395	-126.5664222	-12.0894138	-8.0787078	43.87139406	-3.24294228	-22.33390284
3.62	362	0.01	-0.555	-0.374	-127.5404508	-11.172681	-6.2452422	42.58223856	-3.2945085	-22.4599536
3.63	363	0.066	-0.582	-0.351	-129.6603954	-12.605076	-5.2139178	41.27589432	-3.36899304	-22.58600436
3.64	364	0.098	-0.637	-0.287	-131.1500862	-15.0687954	-5.2712136	39.95809092	-3.46066632	-22.72924386
3.65	365	0.089	-0.722	-0.21	-139.2860898	-18.621135	-4.870143	38.57153256	-3.58671708	-22.8896721
3.66	366	0.077	-0.792	-0.147	-150.3441792	-19.6524594	-4.5263682	37.05892344	-3.72995658	-23.05010034
3.67	367	0.056	-0.803	-0.121	-156.3602382	-17.475219	-3.4950438	35.48328894	-3.8674665	-23.18188068
3.68	368	0.029	-0.815	-0.052	-159.4542114	-13.2926256	-1.9480572	33.87327696	-3.9820581	-23.27928354
3.69	369	-0.012	-0.784	0.034	-171.6582168	-7.7922288	0.1145916	32.13721422	-4.07373138	-23.3193906
3.7	370	-0.052	-0.68	0.119	-183.7476306	0.286479	2.7501984	30.29228946	-4.11383844	-23.29647228
3.71	371	-0.123	-0.481	0.102	-198.6445386	6.2452422	5.3858052	28.26974772	-4.11383844	-23.21625816
3.72	372	-0.27	-0.168	-0.222	-199.8477504	19.3659804	7.5057498	26.23001724	-4.00497642	-23.05010034
3.73	373	-0.46	0.173	-0.622	-166.8453696	35.0077338	5.5576926	24.51687282	-3.74714532	-22.83810588
3.74	374	-0.645	0.477	-0.892	-112.4143596	49.274388	-2.0626488	23.35949766	-3.31169724	-22.64330016
3.75	375	-0.789	0.828	-1.031	-52.7694318	65.0880288	-15.2406828	22.79226924	-2.68144344	-22.51151982
3.76	376	-0.752	1.23	-1.093	-3.8388186	83.7091638	-26.2987722	22.73497344	-1.82773602	-22.41411696
3.77	377	-0.516	1.215	-1.004	3.2085648	83.1935016	-31.51269	22.75789176	-0.95683986	-22.36255074
3.78	378	-0.367	0.699	-0.945	-55.290447	64.3431834	-26.8717302	22.18493376	-0.28074942	-22.345362
3.79	379	-0.139	0.372	-1.097	-95.7412818	43.9458786	-18.1627686	21.21090516	0.16615782	-22.33963242
3.8	380	0.253	0.26	-1.145	-88.6938984	15.2979786	-9.5111028	20.2827132	0.3437748	-22.36828032
3.81	381	0.623	0.363	-1.222	-77.1201468	-9.2246238	-4.0680018	19.49776074	0.26356068	-22.43703528
3.82	382	0.974	0.519	-1.297	-72.2500038	-20.912967	5.7868758	18.77010408	0.04010706	-22.45422402
3.83	383	1.275	0.611	-1.391	-51.3370368	-19.6524594	11.4018642	18.2487123	-0.17761698	-22.40838738
3.84	384	1.098	0.345	-1.397	-17.2460358	-26.5279554	6.0733548	18.0768249	-0.44690724	-22.44276486
3.85	385	0.707	0.119	-1.652	-12.2040054	-46.123119	1.6615782	17.95650372	-0.88235532	-22.58027478
3.86	386	0.316	-0.058	-1.979	5.5576926	-63.8275212	4.2398892	18.02525868	-1.4896908	-22.7464326
3.87	387	-0.09	-0.41	-2.51	17.6471064	-71.9635248	12.3758928	18.2200644	-2.19442914	-22.87248336
3.88	388	-0.247	-0.719	-3.17	4.9274388	-63.4837464	17.18874	18.2773602	-2.8361421	-22.92404958
3.89	389	-0.405	-0.793	-3.567	-27.2728008	-46.4668938	19.7097552	18.00806994	-3.33461556	-22.8896721
3.9	390	-0.387	-0.554	-3.862	-50.3630082	-18.3919518	3.724227	17.49813732	-3.5236917	-22.91259042
3.91	391	-0.468	-0.24	-3.84	-55.1758554	11.8029348	-2.1772404	16.93663848	-3.41482968	-22.89540168
3.92	392	-0.887	-0.213	-3.329	-71.5051584	11.9175264	-11.2299768	16.2147114	-3.28304934	-22.96415664
3.93	393	-0.609	-0.103	-2.567	-68.0674104	16.6730778	-20.7410796	15.5271618	-3.07678446	-23.10739614
3.94	394	-0.203	0.059	-1.923	-43.831287	33.3461556	-25.7258142	15.08598414	-2.69863218	-23.25636522
3.95	395	-0.067	0.274	-1.377	-38.8465524	47.1544434	-21.3713334	14.66199522	-2.20015872	-23.32512018
3.96	396	0.022	0.448	-1.116	-41.6540466	46.696077	-14.610429	14.23227672	-1.72460358	-23.33657934
3.97	397	0.118	0.463	-0.884	-42.9145542	30.3094782	-5.7868758	13.79109906	-1.42666542	-23.31366102
3.98	398	0.176	0.345	-0.706	-44.1750618	12.7196676	6.7609044	13.33846224	-1.32926256	-23.21052858
3.99	399	0.276	0.151	-0.634	-44.2323576	1.4896908	22.4599536	12.88582542	-1.36936962	-22.98707496
4	400	0.313	-0.015	-0.613	-46.0658232	-5.443101	36.8984952	12.4045407	-1.4896908	-22.64330016
4.01	401	0.246	-0.105	-0.638	-44.404245	-8.0787078	42.2843004	11.9461743	-1.6615782	-22.24795914
4.02	402	0.141	-0.135	-0.65	-33.4034514	-6.8182002	35.523396	11.59666992	-1.8048177	-21.9156435
4.03	403	0.013	-0.092	-0.645	-15.0687954	-3.3231564	19.8816426	11.43624168	-1.87930224	-21.73229694
4.04	404	-0.119	-0.009	-0.631	-0.0572958	-1.4896908	1.2605076	11.43624168	-1.89649098	-21.72083778
4.05	405	-0.191	0.096	-0.605	9.0527364	-1.718874	-14.2666542	11.50499664	-1.90795014	-21.8583477
4.06	406	-0.217	0.194	-0.565	15.8709366	-2.3491278	-22.9756158	11.67688404	-1.87930224	-22.09326048
4.07	407	-0.186	0.266	-0.543	22.4599536	-2.6929026	-23.0902074	11.91179682	-1.85638392	-22.32244368
4.08	408	-0.141	0.268	-0.55	23.777757	-1.8907614	-15.2979786	12.15816876	-1.83919518	-22.47714234
4.09	409	-0.107	0.232	-0.602	21.3713334	0.572958	-5.8441716	12.3758928	-1.81627686	-22.53443814
4.1	410	-0.069	0.152	-0.656	22.0015872	3.9534102	0.6875496	12.56496894	-1.78189938	-22.5172494
4.11	411	-0.034	0.061	-0.71	23.8923486	6.3598338	3.3231564	12.8056113	-1.72460358	-22.47141276
4.12	412	-0.022	0	-0.772	24.8090814	6.4744254	2.7501984	13.05198324	-1.66730778	-22.4313057
4.13	413	0.005	-0.029	-0.859	24.9809688	4.1252976	0.9167328	13.30981434	-1.62720072	-22.40838738
4.14	414	0.023	-0.056	-0.971	23.6631654	0.9740286	-0.4010706	13.54472712	-1.61001198	-22.41411696
4.15	415	0.025	-0.115	-1.134	22.058883	-1.7761698	-0.6302538	13.750992	-1.61574156	-22.42557612
4.16	416	0.051	-0.208	-1.272	21.4286292	-3.437748	-0.1718874	13.96871604	-1.64438946	-22.43703528
4.17	417	0.06	-0.313	-1.386	20.05353	-2.8074942	0	14.17498092	-1.67303736	-22.44849444
4.18	418	0.04	-0.388	-1.458	16.7876694	-1.6615782	-0.6875496	14.34686832	-1.68449652	-22.4599536
4.19	419	0	-0.424	-1.481	12.2040054	-1.4896908	-2.3491278	14.47291908	-1.6902261	-22.4886015
4.2	420	-0.04	-0.414	-1.438	6.4171296	-1.8907614	-5.0993262	14.54167404	-1.69595568	-22.54016772
4.21	421	-0.055	-0.363	-1.352	0.2291832	-3.151269	-7.734933	14.54740362	-1.70741484	-22.62611142
4.22	422	-0.055	-0.297	-1.242	-3.3804522	-5.0420304	-9.2246238	14.51302614	-1.73033316	-22.72924386
4.23	423	-0.058	-0.226	-1.117	-3.9534102	-7.2192708	-8.880849	14.47864866	-1.7761698	-22.8323763
4.24	424	-0.059	-0.174	-1.036	-2.0626488	-8.6516658	-6.4744254	14.46145992	-1.84492476	-22.91832
4.25	425	-0.066	-0.14	-0.969	0.8021412	-9.167328	-3.151269	14.39843454	-1.9480572	-22.96988622
4.26	426	-0.073	-0.136	-0.922	3.0366774	-8.2505952	-0.3437748	14.43281202	-2.02827132	-22.99853412
4.27	427	-0.074	-0.154	-0.888	4.297185	-6.7609044	1.8334656	14.47864866	-2.09702628	-22.99853412
4.28	428	-0.071	-0.181	-0.862	4.2398892	-4.583664	3.0939732	14.51875572	-2.14286292	-22.98134538
4.29	429	-0.06	-0.204	-0.845	3.437748	-1.9480572	3.4950438	14.5531332	-2.17151082	-22.95269748
4.3	430	-0.044	-0.222	-0.836	3.2085648	0.1718874	3.0939732	14.5817811	-2.18296998	-22.91832
4.31	431	-0.022	-0.241	-0.824	4.3544808	1.5469866	2.0626488	14.62761774	-2.17151082	-22.89540168
4.32	432	-0.006	-0.26	-0.818	7.3338624	1.8334656	0.1145916	14.6963727	-2.15432208	-22.8896721
4.33	433	0.008	-0.269	-0.815	9.453807	0.8021412	-1.6042824	14.79377556	-2.14286292	-22.90113126
4.34	434	0.021	-0.266	-0.818	10.7143146	-1.0886202	-3.2658606	14.90836716	-2.14286292	-22.94123832
4.35	435	0.033	-0.255	-0.828	11.3445684	-3.2658606	-4.8128472	15.02295876	-2.14286292	-22.99853412
4.36	436	0.042	-0.246	-0.847	11.0580894	-5.5003968	-6.016059	15.14327994	-2.1772404	-23.07301866
4.37	437	0.055	-0.24	-0.871	10.4851314	-7.9068204	-6.9327918	15.25214196	-2.22880662	-23.16469194
4.38	438	0.065	-0.247	-0.897	9.3392154	-10.0840608	-7.2765666	15.34954482	-2.30902074	-23.2620948
4.39	439	0.068	-0.264	-0.924	7.9068204	-11.8602306	-7.3911582	15.4412181	-2.40069402	-23.36522724
4.4	440	0.057	-0.284	-0.948	6.3598338	-12.9488508	-7.0473834	15.50997306	-2.47517856	-23.47408926
4.41	441	0.026	-0.296	-0.975	5.9587632	-12.7769634	-6.9327918	15.57872802	-2.578311	-23.58295128
4.42	442	-0.008	-0.305	-1.004	6.4744254	-11.8029348	-6.7036086	15.64748298	-2.66998428	-23.68035414
4.43	443	-0.044	-0.31	-1.03	6.589017	-10.1986524	-6.7609044	15.72196752	-2.74446882	-23.777757
4.44	444	-0.069	-0.304	-1.052	5.9587632	-8.2505952	-6.875496	15.7849929	-2.8074942	-23.8637007
4.45	445	-0.085	-0.293	-1.066	5.0420304	-7.1046792	-6.9327918	15.83082954	-2.86479	-23.9496444
4.46	446	-0.08	-0.279	-1.07	3.6669312	-6.8182002	-6.9327918	15.87666618	-2.90489706	-24.04131768
4.47	447	-0.067	-0.263	-1.052	2.2345362	-7.161975	-6.7609044	15.90531408	-2.95646328	-24.12726138
4.48	448	-0.052	-0.25	-1.031	0.1718874	-8.0787078	-5.9014674	15.91104366	-3.01375908	-24.2074755
4.49	449	-0.043	-0.239	-1.007	-0.9167328	-9.453807	-5.0420304	15.90531408	-3.0939732	-24.28196004
4.5	450	-0.04	-0.234	-0.985	-1.0886202	-10.4851314	-4.1252976	15.8709366	-3.17418732	-24.350715
4.51	451	-0.044	-0.236	-0.959	-0.9740286	-11.172681	-3.4950438	15.86520702	-3.27159018	-24.41946996
4.52	452	-0.054	-0.24	-0.941	-1.2605076	-11.1153852	-2.9793816	15.85947744	-3.36899304	-24.48249534
4.53	453	-0.07	-0.242	-0.927	-1.8907614	-10.0840608	-2.4064236	15.8422887	-3.45493674	-24.53406156
4.54	454	-0.086	-0.244	-0.914	-2.1772404	-8.021412	-2.0626488	15.82509996	-3.5236917	-24.5798982
4.55	455	-0.103	-0.242	-0.902	-2.0626488	-5.3285094	-1.8334656	15.77926332	-3.61536498	-24.60281652
4.56	456	-0.122	-0.24	-0.899	-1.0886202	-1.4896908	-1.6042824	15.76780416	-3.62682414	-24.62573484
4.57	457	-0.133	-0.236	-0.898	0.2291832	1.2032118	-0.9740286	15.76780416	-3.6096354	-24.63146442
4.58	458	-0.14	-0.231	-0.9	1.718874	3.2085648	-0.4010706	15.7849929	-3.57525792	-24.62573484
4.59	459	-0.138	-0.224	-0.909	3.4950438	5.0420304	0.1718874	15.81937038	-3.52942128	-24.6085461
4.6	460	-0.132	-0.215	-0.92	5.5576926	6.9900876	0.6875496	15.8422887	-3.50650296	-24.57416862
4.61	461	-0.123	-0.212	-0.926	6.9900876	9.1100322	1.145916	15.91104366	-3.42055926	-24.53406156
4.62	462	-0.116	-0.209	-0.928	6.9900876	11.2872726	1.8334656	15.97406904	-3.31742682	-24.48249534
4.63	463	-0.118	-0.203	-0.939	6.3598338	13.0634424	2.8074942	16.03709442	-3.20283522	-24.41946996
4.64	464	-0.122	-0.198	-0.955	5.5576926	14.610429	4.010706	16.08293106	-3.07105488	-24.33925584
4.65	465	-0.124	-0.197	-0.97	5.6722842	14.7250206	5.0993262	16.10584938	-2.97365202	-24.24185298
4.66	466	-0.124	-0.198	-0.985	5.9014674	14.32395	6.0733548	16.1574156	-2.85333084	-24.13872054
4.67	467	-0.119	-0.204	-0.992	5.9587632	13.9228794	6.9327918	16.2147114	-2.73873924	-24.02985852
4.68	468	-0.106	-0.206	-0.999	5.5003968	13.6936962	7.5057498	16.26054804	-2.62987722	-23.91526692
4.69	469	-0.09	-0.208	-1.002	5.0993262	13.4072172	7.734933	16.30638468	-2.52674478	-23.80067532
4.7	470	-0.076	-0.211	-1.007	4.4117766	13.1207382	7.734933	16.31784384	-2.4350715	-23.68608372
4.71	471	-0.062	-0.209	-1.004	3.5523396	12.8342592	7.6203414	16.34649174	-2.33193906	-23.5772217
4.72	472	-0.053	-0.207	-0.994	2.3491278	13.1207382	7.5630456	16.36368048	-2.2345362	-23.4626301
4.73	473	-0.048	-0.204	-0.984	1.6615782	13.750992	7.5630456	16.37513964	-2.12567418	-23.3480385
4.74	474	-0.049	-0.2	-0.974	1.718874	14.610429	7.5630456	16.3865988	-2.005353	-23.2334469
4.75	475	-0.052	-0.201	-0.965	2.291832	15.3552744	7.448454	16.37513964	-1.8907614	-23.11312572
4.76	476	-0.056	-0.207	-0.96	2.6929026	15.756345	7.2765666	16.39232838	-1.76471064	-22.99280454
4.77	477	-0.052	-0.213	-0.958	2.8074942	15.5844576	7.2765666	16.4152467	-1.63865988	-22.87821294
4.78	478	-0.037	-0.218	-0.956	3.0939732	14.7823164	7.5630456	16.4438946	-1.5183387	-22.75789176
4.79	479	-0.019	-0.223	-0.955	3.6669312	13.9228794	7.9641162	16.47827208	-1.40947668	-22.63757058
4.8	480	0	-0.225	-0.956	4.6409598	12.4331886	8.1932994	16.49546082	-1.30634424	-22.52297898
4.81	481	0.015	-0.225	-0.96	5.0993262	11.172681	8.021412	16.54129746	-1.22613012	-22.41411696
4.82	482	0.024	-0.223	-0.959	5.5003968	9.9121734	7.5057498	16.59859326	-1.15164558	-22.31098452
4.83	483	0.027	-0.222	-0.957	5.3858052	8.9381448	6.7609044	16.65015948	-1.0886202	-22.21931124
4.84	484	0.028	-0.219	-0.953	5.2712136	8.2505952	5.8441716	16.7017257	-1.02559482	-22.13909712
4.85	485	0.024	-0.221	-0.951	5.0993262	7.8495246	4.870143	16.71318486	-0.95111028	-22.07034216
4.86	486	0.028	-0.224	-0.946	5.443101	7.5057498	3.8961144	16.76475108	-0.8880849	-22.00731678
4.87	487	0.028	-0.231	-0.942	5.8441716	7.1046792	3.0366774	16.82204688	-0.8307891	-21.95575056
4.88	488	0.032	-0.241	-0.939	6.589017	5.8441716	2.1199446	16.89080184	-0.77922288	-21.92137308
4.89	489	0.037	-0.248	-0.941	7.2192708	5.0993262	1.4896908	16.9595568	-0.73338624	-21.8869956
4.9	490	0.048	-0.256	-0.948	7.5057498	4.5263682	0.8021412	16.99966386	-0.65317212	-21.86980686
4.91	491	0.064	-0.264	-0.958	7.448454	4.1252976	0.1718874	17.0741484	-0.61306506	-21.8583477
4.92	492	0.074	-0.27	-0.97	7.0473834	4.010706	-0.3437748	17.14863294	-0.572958	-21.84688854
4.93	493	0.076	-0.27	-0.975	6.4171296	3.8961144	-0.859437	17.21165832	-0.53285094	-21.84115896
4.94	494	0.07	-0.269	-0.977	5.8441716	3.724227	-1.3750992	17.26895412	-0.49274388	-21.84688854
4.95	495	0.065	-0.263	-0.978	5.3285094	3.3804522	-1.6042824	17.2746837	-0.40680018	-21.85261812
4.96	496	0.068	-0.259	-0.978	5.0993262	1.7761698	-1.6042824	17.32624992	-0.38388186	-21.86407728
4.97	497	0.077	-0.259	-0.981	5.0420304	-0.286479	-1.2605076	17.37781614	-0.38388186	-21.87553644
4.98	498	0.088	-0.259	-0.981	5.0420304	-2.8074942	-0.6875496	17.42938236	-0.40680018	-21.89272518
4.99	499	0.096	-0.262	-0.979	4.870143	-5.2139178	-0.2291832	17.48094858	-0.45263682	-21.9156435
5	500	0.092	-0.265	-0.978	4.010706	-7.6203414	0.2291832	17.48094858	-0.46409598	-21.9442914
5.01	501	0.078	-0.266	-0.976	2.6356068	-9.9694692	0.5156622	17.50959648	-0.56149884	-21.96720972
5.02	502	0.056	-0.265	-0.975	1.0886202	-11.6883432	0.7448454	17.52678522	-0.67036086	-22.0015872
5.03	503	0.029	-0.263	-0.983	0.5156622	-13.0061466	0.6302538	17.5325148	-0.79641162	-22.03596468
5.04	504	0.011	-0.265	-0.983	0.286479	-14.6677248	0.2291832	17.53824438	-0.93392154	-22.08180132
5.05	505	0.007	-0.264	-0.983	0.3437748	-15.8136408	-0.2291832	17.51532606	-1.07143146	-22.13336754
5.06	506	0.012	-0.26	-0.98	0.6875496	-16.3865988	-0.8021412	17.52678522	-1.22040054	-22.19639292
5.07	507	0.013	-0.259	-0.97	0.7448454	-16.7876694	-1.3750992	17.53824438	-1.3750992	-22.26514788
5.08	508	0.005	-0.259	-0.96	0	-16.902261	-1.9480572	17.54397396	-1.52979786	-22.33963242
5.09	509	-0.003	-0.259	-0.957	-0.9740286	-16.615782	-2.6356068	17.5325148	-1.67303736	-22.41984654
5.1	510	-0.018	-0.259	-0.948	-1.8334656	-15.9855282	-3.151269	17.49813732	-1.81627686	-22.50006066
5.11	511	-0.029	-0.257	-0.936	-2.005353	-15.5844576	-3.6669312	17.48094858	-1.9480572	-22.58600436
5.12	512	-0.04	-0.255	-0.928	-1.0886202	-15.2406828	-3.8388186	17.475219	-2.07983754	-22.67194806
5.13	513	-0.049	-0.257	-0.923	-0.4010706	-14.2666542	-3.9534102	17.475219	-2.20015872	-22.75216218
5.14	514	-0.052	-0.261	-0.926	-0.2291832	-12.9488508	-4.2398892	17.48094858	-2.30902074	-22.83810588
5.15	515	-0.054	-0.264	-0.934	-0.1718874	-11.9175264	-4.6409598	17.45803026	-2.41788276	-22.91832
5.16	516	-0.052	-0.266	-0.938	-0.6302538	-11.45916	-5.2712136	17.45803026	-2.50955604	-23.0042637
5.17	517	-0.051	-0.268	-0.943	-1.0313244	-11.3445684	-5.72958	17.45230068	-2.59549974	-23.09593698
5.18	518	-0.047	-0.267	-0.944	-1.145916	-11.2872726	-6.0733548	17.4465711	-2.68144344	-23.19333984
5.19	519	-0.048	-0.267	-0.937	-0.9740286	-11.5164558	-6.2452422	17.44084152	-2.77311672	-23.28501312
5.2	520	-0.052	-0.266	-0.932	-0.9740286	-11.745639	-6.3598338	17.4179232	-2.87051958	-23.38241598
5.21	521	-0.057	-0.262	-0.93	-0.7448454	-10.7716104	-6.3598338	17.41219362	-2.9507337	-23.47981884
5.22	522	-0.059	-0.264	-0.929	-0.572958	-10.3705398	-6.3598338	17.41219362	-3.03094782	-23.57149212
5.23	523	-0.069	-0.263	-0.923	-0.6302538	-11.2299768	-6.1879464	17.41219362	-3.11689152	-23.66889498
5.24	524	-0.086	-0.269	-0.916	-1.2032118	-13.5218088	-5.443101	17.40646404	-3.22575354	-23.76629784
5.25	525	-0.104	-0.269	-0.9	-2.3491278	-15.6990492	-4.4690724	17.38354572	-3.3804522	-23.85224154
5.26	526	-0.114	-0.276	-0.894	-2.578311	-14.1520626	-4.0680018	17.3606274	-3.50077338	-23.93818524
5.27	527	-0.123	-0.289	-0.918	-2.6356068	-11.1153852	-4.1252976	17.34343866	-3.59244666	-24.01266978
5.28	528	-0.127	-0.295	-0.936	-2.0626488	-7.9641162	-4.1825934	17.32624992	-3.65547204	-24.08142474
5.29	529	-0.134	-0.302	-0.95	-0.6875496	-6.4744254	-4.4690724	17.32052034	-3.70130868	-24.14445012
5.3	530	-0.142	-0.305	-0.952	1.2605076	-5.5576926	-4.583664	17.3319795	-3.79871154	-24.20174592
5.31	531	-0.142	-0.309	-0.952	2.86479	-4.297185	-4.4117766	17.36635698	-3.82162986	-24.25331214
5.32	532	-0.131	-0.308	-0.952	3.6096354	-3.0939732	-3.7815228	17.40646404	-3.8388186	-24.29914878
5.33	533	-0.121	-0.306	-0.951	3.0366774	-2.6356068	-2.578311	17.44084152	-3.85600734	-24.33352626
5.34	534	-0.116	-0.3	-0.943	2.005353	-1.8907614	-1.3750992	17.46375984	-3.87319608	-24.35644458
5.35	535	-0.121	-0.292	-0.94	1.0886202	-0.6302538	-0.4583664	17.3033316	-4.22843004	-24.31633752
5.36	536	-0.126	-0.285	-0.942	0.5156622	0.9740286	0.2291832	17.30906118	-4.22270046	-24.31060794
5.37	537	-0.131	-0.28	-0.946	0.0572958	2.1772404	0.4583664	17.30906118	-4.19978214	-24.2934192
5.38	538	-0.13	-0.275	-0.946	0.0572958	3.437748	0.7448454	17.30906118	-4.17113424	-24.27623046
5.39	539	-0.126	-0.271	-0.946	0.1145916	4.8128472	0.859437	17.30906118	-4.13102718	-24.25331214
5.4	540	-0.121	-0.268	-0.949	0.4010706	6.302538	0.9740286	17.26322454	-4.1252976	-24.21893466
5.41	541	-0.113	-0.268	-0.955	0.7448454	7.6776372	1.0886202	17.26895412	-4.05654264	-24.1788276
5.42	542	-0.105	-0.267	-0.962	0.9167328	8.9954406	1.3178034	17.2746837	-3.97632852	-24.13872054
5.43	543	-0.095	-0.264	-0.968	0.859437	9.7975818	1.718874	17.2746837	-3.88465524	-24.0928839
5.44	544	-0.088	-0.26	-0.967	0.6875496	10.026765	2.2345362	17.28041328	-3.79871154	-24.0355881
5.45	545	-0.08	-0.252	-0.967	0.572958	9.9694692	2.6356068	17.24030622	-3.724227	-23.9782923
5.46	546	-0.074	-0.243	-0.968	0.6302538	9.8548776	2.9220858	17.24030622	-3.6382833	-23.91526692
5.47	547	-0.068	-0.236	-0.966	0.6875496	9.6256944	3.151269	17.24030622	-3.55806918	-23.85797112
5.48	548	-0.059	-0.229	-0.966	0.5156622	9.6829902	3.3231564	17.24030622	-3.47785506	-23.79494574
5.49	549	-0.054	-0.227	-0.965	0.4010706	9.6256944	3.4950438	17.24030622	-3.39764094	-23.72619078
5.5	550	-0.046	-0.226	-0.962	0.1718874	9.740286	3.6669312	17.18301042	-3.31169724	-23.65743582
5.51	551	-0.036	-0.222	-0.965	0.1718874	10.3705398	3.7815228	17.18301042	-3.22575354	-23.58868086
5.52	552	-0.025	-0.22	-0.961	0.1718874	11.2872726	3.7815228	17.17728084	-3.13408026	-23.5199259
5.53	553	-0.023	-0.217	-0.969	0.286479	10.886202	4.010706	17.17728084	-3.04240698	-23.44544136
5.54	554	-0.03	-0.216	-0.96	0.1145916	8.4797784	4.2398892	17.17155126	-2.97365202	-23.3766864
5.55	555	-0.037	-0.217	-0.945	0.2291832	7.6203414	4.4690724	17.11425546	-2.91635622	-23.30793144
5.56	556	-0.041	-0.224	-0.945	0.0572958	7.8495246	4.4117766	17.10852588	-2.85333084	-23.23917648
5.57	557	-0.038	-0.233	-0.948	-0.0572958	8.4797784	3.9534102	17.1027963	-2.78457588	-23.1761511
5.58	558	-0.033	-0.242	-0.961	0	9.1100322	3.2658606	17.1027963	-2.71009134	-23.11312572
5.59	559	-0.022	-0.249	-0.972	0.4583664	8.9381448	2.1772404	17.1027963	-2.62987722	-23.06728908
5.6	560	-0.011	-0.25	-0.978	1.7761698	8.1932994	1.145916	17.06841882	-2.53820394	-23.02718202
5.61	561	-0.001	-0.251	-0.979	2.4064236	7.3911582	0.8021412	17.09133714	-2.46944898	-22.99853412
5.62	562	0.008	-0.25	-0.975	2.1772404	6.4171296	0.859437	17.10852588	-2.41215318	-22.96988622
5.63	563	0.009	-0.245	-0.969	1.3178034	5.3285094	1.2605076	17.11998504	-2.36631654	-22.94123832
5.64	564	0.004	-0.241	-0.965	0.6875496	4.870143	1.6615782	17.12571462	-2.3204799	-22.90686084
5.65	565	-0.004	-0.237	-0.966	0.3437748	4.6409598	1.718874	17.03404134	-2.25745452	-22.87248336
5.66	566	-0.014	-0.235	-0.964	-0.0572958	4.297185	1.718874	17.02831176	-2.21734746	-22.84383546
5.67	567	-0.018	-0.236	-0.964	-0.1718874	3.724227	1.718874	17.02831176	-2.18869956	-22.81518756
5.68	568	-0.017	-0.237	-0.963	0	3.2085648	1.5469866	17.02258218	-2.16578124	-22.79226924
5.69	569	-0.014	-0.238	-0.961	0.2291832	2.6929026	1.3178034	17.02831176	-2.14286292	-22.76935092
5.7	570	-0.011	-0.239	-0.961	0.286479	2.1199446	0.859437	16.83350604	-2.06837838	-22.75216218
5.71	571	-0.009	-0.24	-0.96	0.3437748	1.5469866	0.4010706	16.83923562	-2.05691922	-22.74070302
5.72	572	-0.008	-0.242	-0.96	0.5156622	0.8021412	0	16.8449652	-2.04546006	-22.74070302
5.73	573	-0.008	-0.246	-0.959	0.4583664	0.3437748	-0.286479	16.85069478	-2.04546006	-22.74070302
5.74	574	-0.011	-0.249	-0.958	0.2291832	-0.0572958	-0.6302538	16.85069478	-2.03973048	-22.7464326
5.75	575	-0.014	-0.251	-0.958	0.1145916	-0.4010706	-0.8021412	16.61005242	-1.98816426	-22.75216218
5.76	576	-0.018	-0.254	-0.956	0.1145916	-0.6875496	-1.0313244	16.61005242	-1.99389384	-22.76362134
5.77	577	-0.021	-0.252	-0.956	0.1145916	-0.9740286	-1.0313244	16.61005242	-1.99962342	-22.78081008
5.78	578	-0.024	-0.249	-0.958	0.1718874	-1.2605076	-0.9167328	16.615782	-2.01108258	-22.79226924
5.79	579	-0.027	-0.249	-0.962	0.2291832	-1.3750992	-0.859437	16.615782	-2.01681216	-22.8037284
5.8	580	-0.032	-0.248	-0.964	0.286479	-1.4896908	-0.7448454	16.44962418	-2.03973048	-22.80945798
5.81	581	-0.035	-0.249	-0.965	0.1718874	-1.6615782	-0.6875496	16.45535376	-2.05118964	-22.82091714
5.82	582	-0.038	-0.248	-0.966	0.1718874	-1.6615782	-0.8021412	16.45535376	-2.0626488	-22.8323763
5.83	583	-0.04	-0.249	-0.965	0.0572958	-1.4896908	-1.0313244	16.46108334	-2.07410796	-22.84956504
5.84	584	-0.04	-0.249	-0.964	0.0572958	-1.2032118	-1.2605076	16.46108334	-2.08556712	-22.86675378
5.85	585	-0.038	-0.249	-0.961	0	-1.0313244	-1.432395	16.31211426	-2.10848544	-22.87248336
5.86	586	-0.038	-0.25	-0.96	0	-0.859437	-1.5469866	16.31211426	-2.11421502	-22.8896721
5.87	587	-0.039	-0.252	-0.959	0	-0.572958	-1.3750992	16.31211426	-2.11421502	-22.90686084
5.88	588	-0.04	-0.253	-0.958	0.1145916	-0.4010706	-1.2032118	16.31784384	-2.11421502	-22.91832
5.89	589	-0.042	-0.252	-0.957	0.1718874	-0.4010706	-0.9740286	16.31784384	-2.11421502	-22.92977916
5.9	590	-0.044	-0.251	-0.958	0.1145916	-0.4010706	-0.6875496	16.01990568	-2.20015872	-22.91832
5.91	591	-0.046	-0.248	-0.958	0	-0.4010706	-0.3437748	16.01990568	-2.20015872	-22.92404958
5.92	592	-0.048	-0.249	-0.956	-0.0572958	-0.4583664	0	16.01990568	-2.2058883	-22.92977916
5.93	593	-0.05	-0.248	-0.956	-0.4583664	-0.286479	0	16.01990568	-2.21161788	-22.92977916
5.94	594	-0.05	-0.246	-0.955	-0.572958	-0.2291832	0.1145916	16.00844652	-2.21161788	-22.92977916
5.95	595	-0.05	-0.247	-0.955	-0.4583664	0.0572958	0.2291832	15.67613088	-2.33193906	-22.90113126
5.96	596	-0.05	-0.247	-0.956	-0.2291832	0.3437748	0.286479	15.67613088	-2.33193906	-22.89540168
5.97	597	-0.05	-0.248	-0.956	-0.0572958	0.572958	0.4010706	15.6704013	-2.32620948	-22.8896721
5.98	598	-0.051	-0.248	-0.958	0.1718874	0.8021412	0.572958	15.67613088	-2.3204799	-22.88394252
5.99	599	-0.05	-0.247	-0.96	0.3437748	0.9740286	0.8021412	15.67613088	-2.31475032	-22.87248336
6	600	-0.051	-0.247	-0.958	0.6302538	1.432395	0.859437	15.59591676	-2.33766864	-22.85529462
6.01	601	-0.049	-0.246	-0.959	0.6875496	1.6615782	0.9167328	15.60164634	-2.32620948	-22.83810588
6.02	602	-0.05	-0.246	-0.958	0.7448454	2.0626488	0.859437	15.6131055	-2.30902074	-22.82664672
6.03	603	-0.049	-0.246	-0.959	0.8021412	2.2345362	0.859437	15.61883508	-2.28610242	-22.80945798
6.04	604	-0.049	-0.245	-0.957	0.9167328	2.4064236	0.9740286	15.62456466	-2.26891368	-22.79226924
6.05	605	-0.048	-0.246	-0.959	1.0313244	2.4637194	0.9740286	15.57299844	-2.2631841	-22.7750805
6.06	606	-0.045	-0.247	-0.961	1.0886202	2.4637194	1.2032118	15.5844576	-2.24599536	-22.75216218
6.07	607	-0.042	-0.246	-0.961	1.0313244	2.4064236	1.3178034	15.59591676	-2.22307704	-22.73497344
6.08	608	-0.039	-0.245	-0.961	0.9740286	2.5210152	1.432395	15.60164634	-2.2058883	-22.71205512
6.09	609	-0.036	-0.244	-0.959	0.9167328	2.4064236	1.4896908	15.6131055	-2.18869956	-22.6891368
6.1	610	-0.033	-0.243	-0.958	0.9167328	2.4064236	1.3750992	15.5558097	-2.16578124	-22.66621848
6.11	611	-0.03	-0.242	-0.958	0.9167328	2.4637194	1.2032118	15.56153928	-2.1485925	-22.64902974
6.12	612	-0.03	-0.241	-0.959	0.9167328	2.5210152	0.9740286	15.57299844	-2.12567418	-22.631841
6.13	613	-0.029	-0.242	-0.962	0.9740286	2.578311	0.8021412	15.57872802	-2.10275586	-22.61465226
6.14	614	-0.031	-0.241	-0.962	1.0886202	2.5210152	0.6302538	15.59018718	-2.07983754	-22.6031931
6.15	615	-0.033	-0.243	-0.963	0.7448454	2.3491278	0.572958	15.51570264	-2.06837838	-22.58600436
6.16	616	-0.033	-0.241	-0.961	0.6875496	2.291832	0.5156622	15.5271618	-2.04546006	-22.5745452
6.17	617	-0.032	-0.239	-0.962	0.7448454	2.2345362	0.572958	15.53289138	-2.02254174	-22.56308604
6.18	618	-0.029	-0.239	-0.964	1.0886202	2.1772404	0.4010706	15.54435054	-2.005353	-22.55162688
6.19	619	-0.026	-0.24	-0.963	1.2605076	2.1772404	0.3437748	15.5558097	-1.98816426	-22.54016772
6.2	620	-0.022	-0.24	-0.961	1.0313244	2.1199446	0.2291832	15.469866	-1.95378678	-22.52870856
6.21	621	-0.017	-0.241	-0.963	0.8021412	2.1199446	0.1145916	15.48132516	-1.93086846	-22.52297898
6.22	622	-0.015	-0.242	-0.963	0.8021412	1.718874	0.0572958	15.48705474	-1.91367972	-22.5172494
6.23	623	-0.014	-0.244	-0.96	0.6875496	1.0313244	0.1145916	15.49278432	-1.90795014	-22.51151982
6.24	624	-0.017	-0.243	-0.957	0.5156622	0.572958	0.0572958	15.4985139	-1.90222056	-22.51151982
6.25	625	-0.019	-0.242	-0.956	0.5156622	0.3437748	0	15.28078986	-1.8621135	-22.50006066
6.26	626	-0.022	-0.243	-0.957	0.7448454	0.3437748	0	15.29224902	-1.85638392	-22.50006066
6.27	627	-0.022	-0.245	-0.956	0.9167328	0.1718874	0	15.30370818	-1.85638392	-22.50006066
6.28	628	-0.023	-0.245	-0.954	1.0886202	0	0	15.31516734	-1.85638392	-22.50006066
6.29	629	-0.023	-0.246	-0.954	1.0886202	-0.0572958	-0.0572958	15.32089692	-1.85638392	-22.50006066
6.3	630	-0.026	-0.245	-0.955	1.0313244	0	-0.1145916	15.16046868	-1.85638392	-22.49433108
6.31	631	-0.026	-0.244	-0.954	0.7448454	0.1718874	-0.1145916	15.17192784	-1.85638392	-22.49433108
6.32	632	-0.026	-0.244	-0.957	0.3437748	0.1145916	-0.1718874	15.17765742	-1.85065434	-22.49433108
6.33	633	-0.026	-0.244	-0.959	0.1145916	0.2291832	-0.1718874	15.17765742	-1.85065434	-22.50006066
6.34	634	-0.028	-0.246	-0.963	0.2291832	0.2291832	-0.1145916	15.17765742	-1.84492476	-22.50006066
6.35	635	-0.031	-0.247	-0.966	0.3437748	0.2291832	-0.1145916	14.94847422	-1.88503182	-22.4886015
6.36	636	-0.034	-0.25	-0.968	0.4583664	0.286479	-0.1145916	14.9542038	-1.87930224	-22.4886015
6.37	637	-0.035	-0.251	-0.969	0.4010706	0.4583664	-0.1145916	14.95993338	-1.87930224	-22.4886015
6.38	638	-0.034	-0.25	-0.969	0.286479	0.5156622	-0.0572958	14.95993338	-1.87357266	-22.4886015
6.39	639	-0.034	-0.249	-0.967	0.1718874	0.6302538	-0.0572958	14.96566296	-1.8621135	-22.4886015
6.4	640	-0.033	-0.248	-0.964	-0.2291832	0.7448454	0	14.84534178	-1.88503182	-22.47714234
6.41	641	-0.035	-0.248	-0.962	-0.572958	0.9740286	0.1718874	14.8396122	-1.87357266	-22.47714234
6.42	642	-0.036	-0.247	-0.962	-0.7448454	1.145916	0.2291832	14.82815304	-1.8621135	-22.47141276
6.43	643	-0.037	-0.245	-0.962	-0.8021412	1.3750992	0.2291832	14.82242346	-1.85065434	-22.4599536
6.44	644	-0.037	-0.244	-0.963	-0.7448454	1.6615782	0.1145916	14.8109643	-1.8334656	-22.45422402
6.45	645	-0.037	-0.242	-0.963	-0.572958	1.8334656	0.0572958	14.7250206	-1.83919518	-22.44849444
6.46	646	-0.035	-0.241	-0.963	-0.5156622	2.005353	0	14.71929102	-1.82200644	-22.44276486
6.47	647	-0.032	-0.241	-0.962	-0.6302538	2.291832	0	14.71356144	-1.79908812	-22.43703528
6.48	648	-0.03	-0.239	-0.963	-0.4583664	2.3491278	0	14.70783186	-1.7761698	-22.42557612
6.49	649	-0.031	-0.239	-0.965	-0.2291832	2.3491278	0	14.70210228	-1.75325148	-22.41984654
6.5	650	-0.031	-0.24	-0.965	-0.0572958	2.1199446	0.0572958	14.60469942	-1.7475219	-22.40838738
6.51	651	-0.032	-0.242	-0.964	-0.0572958	1.9480572	0	14.60469942	-1.73033316	-22.4026578
6.52	652	-0.031	-0.241	-0.962	-0.1145916	1.718874	0.0572958	14.60469942	-1.71314442	-22.39692822
6.53	653	-0.031	-0.242	-0.961	0	1.7761698	0.1718874	14.60469942	-1.69595568	-22.39119864
6.54	654	-0.03	-0.243	-0.96	0.286479	1.8334656	0.1718874	14.60469942	-1.67876694	-22.38546906
6.55	655	-0.031	-0.243	-0.958	0.4010706	2.0626488	0.1718874	14.55886278	-1.67876694	-22.3740099
6.56	656	-0.031	-0.243	-0.958	0.5156622	2.3491278	0.1718874	14.56459236	-1.65584862	-22.36828032
6.57	657	-0.031	-0.243	-0.958	0.6302538	2.4637194	0.1718874	14.57032194	-1.6329303	-22.35682116
6.58	658	-0.03	-0.243	-0.958	0.5156622	2.7501984	0.1145916	14.57605152	-1.61001198	-22.345362
6.59	659	-0.029	-0.241	-0.959	0.4583664	2.9220858	0.1718874	14.57605152	-1.58136408	-22.33963242
6.6	660	-0.027	-0.241	-0.959	0.4010706	3.0939732	0.286479	14.54167404	-1.55844576	-22.32244368
6.61	661	-0.024	-0.24	-0.96	0.3437748	3.0939732	0.3437748	14.54167404	-1.52979786	-22.31098452
6.62	662	-0.023	-0.239	-0.96	0.286479	3.2085648	0.4583664	14.54740362	-1.50114996	-22.29952536
6.63	663	-0.022	-0.237	-0.964	0.572958	2.86479	0.4583664	14.54740362	-1.47250206	-22.2880662
6.64	664	-0.023	-0.235	-0.967	0.9740286	2.3491278	0.4583664	14.55886278	-1.45531332	-22.27660704
6.65	665	-0.022	-0.234	-0.969	1.0886202	2.005353	0.3437748	14.50156698	-1.44385416	-22.26514788
6.66	666	-0.022	-0.235	-0.97	1.145916	1.718874	0.2291832	14.51302614	-1.42666542	-22.25368872
6.67	667	-0.022	-0.237	-0.97	1.0313244	1.718874	0.2291832	14.5244853	-1.40947668	-22.24795914
6.68	668	-0.021	-0.238	-0.968	0.859437	1.8907614	0.1145916	14.53021488	-1.39228794	-22.24222956
6.69	669	-0.023	-0.239	-0.967	0.9740286	1.8907614	0.0572958	14.54167404	-1.3750992	-22.23649998
6.7	670	-0.026	-0.239	-0.964	1.145916	2.005353	0	14.4958374	-1.36936962	-22.22504082
6.71	671	-0.025	-0.238	-0.963	1.432395	1.9480572	0	14.50729656	-1.3464513	-22.21931124
6.72	672	-0.024	-0.236	-0.963	1.6615782	1.8907614	0	14.5244853	-1.32926256	-22.21931124
6.73	673	-0.025	-0.236	-0.964	1.7761698	1.8334656	-0.0572958	14.54167404	-1.31207382	-22.21358166
6.74	674	-0.024	-0.236	-0.963	1.6615782	1.9480572	-0.1718874	14.55886278	-1.29488508	-22.20785208
6.75	675	-0.02	-0.239	-0.958	1.2605076	2.005353	-0.286479	14.5244853	-1.27196676	-22.2021225
6.76	676	-0.017	-0.24	-0.957	0.6875496	2.0626488	-0.286479	14.53021488	-1.24904844	-22.2021225
6.77	677	-0.014	-0.24	-0.956	0.572958	1.9480572	-0.286479	14.53594446	-1.2318597	-22.2021225
6.78	678	-0.012	-0.242	-0.953	0.8021412	1.5469866	-0.286479	14.54740362	-1.21467096	-22.19639292
6.79	679	-0.014	-0.244	-0.953	1.0313244	1.2605076	-0.2291832	14.5531332	-1.2032118	-22.19639292
6.8	680	-0.017	-0.243	-0.954	1.145916	1.3178034	-0.0572958	14.51302614	-1.19748222	-22.19066334
6.81	681	-0.021	-0.244	-0.956	1.2032118	1.3750992	0	14.5244853	-1.18602306	-22.19066334
6.82	682	-0.024	-0.243	-0.959	1.3750992	1.4896908	-0.1145916	14.54167404	-1.16883432	-22.18493376
6.83	683	-0.026	-0.243	-0.959	1.6615782	1.4896908	-0.1145916	14.55886278	-1.15737516	-22.18493376
6.84	684	-0.026	-0.243	-0.962	2.005353	1.432395	-0.1145916	14.57605152	-1.14018642	-22.17920418
6.85	685	-0.023	-0.241	-0.963	2.291832	1.4896908	-0.1145916	14.55886278	-1.13445684	-22.17920418
6.86	686	-0.021	-0.237	-0.965	2.5210152	1.4896908	-0.1145916	14.5817811	-1.12299768	-22.1734746
6.87	687	-0.02	-0.233	-0.968	2.7501984	1.2032118	-0.1145916	14.610429	-1.11153852	-22.1734746
6.88	688	-0.018	-0.233	-0.97	2.86479	0.9740286	-0.2291832	14.6390769	-1.10007936	-22.1734746
6.89	689	-0.018	-0.235	-0.971	2.8074942	0.8021412	-0.3437748	14.6677248	-1.0886202	-22.1734746
6.9	690	-0.015	-0.238	-0.971	2.9793816	0.6875496	-0.4010706	14.65053606	-1.08289062	-22.1734746
6.91	691	-0.016	-0.24	-0.971	2.9220858	0.572958	-0.3437748	14.67918396	-1.07716104	-22.17920418
6.92	692	-0.017	-0.243	-0.969	2.578311	0.5156622	-0.2291832	14.70783186	-1.07143146	-22.17920418
6.93	693	-0.017	-0.244	-0.965	2.4637194	0.5156622	-0.1718874	14.73075018	-1.06570188	-22.17920418
6.94	694	-0.018	-0.244	-0.96	2.4064236	0.6302538	-0.1145916	14.7536685	-1.0599723	-22.17920418
6.95	695	-0.018	-0.244	-0.96	2.5210152	0.8021412	0	14.73075018	-1.0599723	-22.1734746
6.96	696	-0.017	-0.244	-0.958	2.6356068	1.0886202	0	14.75939808	-1.04851314	-22.1734746
6.97	697	-0.019	-0.243	-0.956	2.8074942	1.0313244	0	14.78804598	-1.03705398	-22.16774502
6.98	698	-0.02	-0.244	-0.955	2.8074942	1.0886202	-0.0572958	14.81669388	-1.02559482	-22.16774502
6.99	699	-0.018	-0.243	-0.954	2.6356068	1.145916	-0.0572958	14.84534178	-1.01413566	-22.16201544
7	700	-0.017	-0.245	-0.952	2.1772404	1.3178034	-0.0572958	14.82242346	-1.00840608	-22.16201544
7.01	701	-0.016	-0.248	-0.951	1.6615782	1.3750992	0	14.8396122	-0.99694692	-22.15628586
7.02	702	-0.015	-0.25	-0.949	1.3178034	1.5469866	0	14.85107136	-0.97975818	-22.15055628
7.03	703	-0.016	-0.251	-0.948	1.145916	1.6042824	0	14.86253052	-0.96256944	-22.15055628
7.04	704	-0.017	-0.253	-0.952	1.145916	1.5469866	0	14.87398968	-0.95111028	-22.1448267
7.05	705	-0.017	-0.254	-0.954	1.2032118	1.432395	0	14.8396122	-0.95111028	-22.13909712
7.06	706	-0.017	-0.255	-0.955	1.145916	1.432395	0	14.85107136	-0.93392154	-22.13336754
7.07	707	-0.016	-0.256	-0.955	1.2032118	1.3750992	0.0572958	14.8682601	-0.92246238	-22.12763796
7.08	708	-0.017	-0.256	-0.957	1.145916	1.3750992	-0.0572958	14.87971926	-0.90527364	-22.12190838
7.09	709	-0.017	-0.256	-0.958	1.2032118	1.3750992	-0.1145916	14.89117842	-0.89381448	-22.12190838
7.1	710	-0.018	-0.254	-0.96	1.2605076	1.3750992	-0.2291832	14.85680094	-0.89381448	-22.12190838
7.11	711	-0.019	-0.254	-0.961	1.3178034	1.2605076	-0.3437748	14.8682601	-0.88235532	-22.12190838
7.12	712	-0.019	-0.253	-0.962	1.2605076	1.2605076	-0.3437748	14.88544884	-0.87089616	-22.12190838
7.13	713	-0.018	-0.252	-0.961	0.9740286	1.3178034	-0.3437748	14.89117842	-0.85370742	-22.1161788
7.14	714	-0.017	-0.251	-0.963	0.9167328	1.3750992	-0.286479	14.90263758	-0.84224826	-22.1161788
7.15	715	-0.014	-0.249	-0.962	0.8021412	1.432395	-0.286479	14.84534178	-0.83651868	-22.1161788
7.16	716	-0.011	-0.249	-0.96	0.572958	1.5469866	-0.2291832	14.85107136	-0.81932994	-22.11044922
7.17	717	-0.012	-0.246	-0.959	0.5156622	1.5469866	-0.1718874	14.85680094	-0.8021412	-22.11044922
7.18	718	-0.012	-0.245	-0.958	0.572958	1.6615782	-0.1718874	14.86253052	-0.78495246	-22.11044922
7.19	719	-0.014	-0.245	-0.957	0.6302538	1.6615782	-0.1718874	14.8682601	-0.7734933	-22.10471964
7.2	720	-0.016	-0.246	-0.956	0.4583664	1.7761698	-0.1145916	14.80523472	-0.7734933	-22.09899006
