TimeStamp(s)	FrameCounter	AccX	AccY	AccZ	GyrX	GyrY	GyrZ	EulerX	EulerY	EulerZ
0.01	1	0.016	-1.002	0.074	0.572958	0.7448454	-0.1718874	101.7172337	3.57525792	-44.82823392
0.02	2	0	-1.01	0	0.4583664	1.2032118	-0.0572958	101.7229633	3.57525792	-44.81677476
0.03	3	0.001	-1.01	0	0.5156622	1.145916	-0.0572958	101.7286929	3.56952834	-44.8053156
0.04	4	0	-1.009	0	0.572958	1.2032118	0	101.7344225	3.56952834	-44.79385644
0.05	5	0	-1.009	0	0.6875496	1.2032118	0	101.2760561	3.437748	-44.7766677
0.06	6	0	-1.009	0	0.6302538	1.2605076	-0.0572958	101.2817857	3.437748	-44.76520854
0.07	7	-0.001	-1.009	0	0.6875496	1.0886202	-0.0572958	101.2932448	3.437748	-44.75374938
0.08	8	-0.002	-1.008	0	0.8021412	1.0886202	-0.0572958	101.2989744	3.437748	-44.74229022
0.09	9	-0.002	-1.008	0	0.9740286	1.0886202	-0.1145916	101.3104336	3.43201842	-44.73083106
0.1	10	-0.003	-1.009	0	1.0886202	1.0886202	-0.2291832	100.94947	3.32888598	-44.7193719
0.11	11	-0.001	-1.008	-0.001	1.0886202	0.9740286	-0.1718874	100.9609292	3.32888598	-44.70791274
0.12	12	0	-1.009	-0.002	1.2605076	0.9740286	-0.2291832	100.9781179	3.32888598	-44.69645358
0.13	13	-0.001	-1.008	-0.003	1.3750992	1.0886202	-0.2291832	100.9895771	3.32888598	-44.68499442
0.14	14	-0.001	-1.009	-0.001	1.2605076	1.0313244	-0.1718874	101.0010362	3.32888598	-44.67353526
0.15	15	0	-1.006	-0.001	1.0313244	0.9740286	-0.1145916	100.5885065	3.21429438	-44.6620761
0.16	16	0	-1.007	0	0.9740286	0.8021412	-0.0572958	100.5942361	3.21429438	-44.65634652
0.17	17	0	-1.009	-0.001	0.9740286	0.6302538	-0.1145916	100.6056952	3.21429438	-44.64488736
0.18	18	-0.001	-1.009	0	0.9167328	0.3437748	-0.2291832	100.6171544	3.21429438	-44.64488736
0.19	19	-0.001	-1.01	0.001	0.6875496	0.286479	-0.2291832	100.622884	3.22002396	-44.63915778
0.2	20	0	-1.011	0.002	0.6302538	0.286479	-0.2291832	99.96398226	3.04240698	-44.62769862
0.21	21	-0.001	-1.009	0.002	0.6875496	0.1718874	-0.1145916	99.96971184	3.04240698	-44.62769862
0.22	22	-0.001	-1.011	0.003	0.6302538	0.1145916	-0.1145916	99.97544142	3.04240698	-44.62769862
0.23	23	-0.003	-1.009	0.005	0.5156622	0.0572958	-0.1145916	99.981171	3.04240698	-44.62769862
0.24	24	-0.004	-1.008	0.006	0.6302538	0.2291832	-0.1145916	99.98690058	3.04240698	-44.62196904
0.25	25	-0.004	-1.008	0.004	0.9167328	0.3437748	-0.2291832	99.5514525	2.91635622	-44.61050988
0.26	26	-0.004	-1.006	0.005	1.145916	0.3437748	-0.286479	99.56291166	2.91635622	-44.6047803
0.27	27	-0.005	-1.009	0.007	1.3178034	0.4010706	-0.3437748	99.5801004	2.9220858	-44.59905072
0.28	28	-0.004	-1.009	0.008	1.3750992	0.5156622	-0.4010706	99.59155956	2.9220858	-44.59332114
0.29	29	-0.005	-1.01	0.008	1.3178034	0.6302538	-0.4010706	99.6087483	2.92781538	-44.58759156
0.3	30	-0.007	-1.008	0.009	1.3178034	0.5156622	-0.4010706	99.30508056	2.82468294	-44.57040282
0.31	31	-0.006	-1.007	0.008	1.3750992	0.4583664	-0.3437748	99.31653972	2.83041252	-44.56467324
0.32	32	-0.005	-1.009	0.008	1.432395	0.4583664	-0.3437748	99.33372846	2.83041252	-44.55894366
0.33	33	-0.005	-1.008	0.008	1.3178034	0.3437748	-0.3437748	99.34518762	2.8361421	-44.55894366
0.34	34	-0.004	-1.01	0.01	1.145916	0.3437748	-0.4583664	99.35664678	2.84187168	-44.55321408
0.35	35	-0.002	-1.01	0.011	1.0313244	0.2291832	-0.4010706	98.94411702	2.7215505	-44.54175492
0.36	36	-0.001	-1.011	0.01	1.2605076	0	-0.4583664	98.96130576	2.72728008	-44.54175492
0.37	37	0	-1.009	0.009	1.6042824	-0.2291832	-0.3437748	98.9784945	2.73300966	-44.54175492
0.38	38	0.001	-1.01	0.007	1.718874	-0.6302538	-0.3437748	98.99568324	2.73873924	-44.5474845
0.39	39	0	-1.009	0.007	1.6615782	-1.0313244	-0.286479	99.01287198	2.74446882	-44.55894366
0.4	40	-0.001	-1.008	0.007	1.6042824	-1.0886202	-0.3437748	98.81233668	2.68717302	-44.56467324
0.41	41	-0.002	-1.008	0.006	1.718874	-1.145916	-0.3437748	98.82952542	2.6929026	-44.5761324
0.42	42	-0.005	-1.007	0.007	1.6615782	-1.0313244	-0.4010706	98.84671416	2.69863218	-44.58759156
0.43	43	-0.005	-1.006	0.008	1.6042824	-1.0313244	-0.5156622	98.8639029	2.71009134	-44.59332114
0.44	44	-0.007	-1.006	0.008	1.718874	-1.0886202	-0.6302538	98.88109164	2.71582092	-44.6047803
0.45	45	-0.007	-1.006	0.009	1.6615782	-1.0313244	-0.8021412	98.70920424	2.6642547	-44.61050988
0.46	46	-0.008	-1.006	0.011	1.5469866	-0.859437	-0.9740286	98.72639298	2.67571386	-44.61623946
0.47	47	-0.007	-1.005	0.011	1.8334656	-0.8021412	-0.9740286	98.74358172	2.68717302	-44.62196904
0.48	48	-0.004	-1.008	0.01	2.005353	-0.6875496	-0.9740286	98.76077046	2.69863218	-44.62769862
0.49	49	-0.002	-1.008	0.01	2.1199446	-0.572958	-1.0313244	98.78368878	2.71009134	-44.6334282
0.5	50	0	-1.01	0.011	2.005353	-0.5156622	-1.0313244	98.6060718	2.66998428	-44.6334282
0.51	51	0.001	-1.009	0.011	1.8334656	-0.3437748	-0.859437	98.62326054	2.67571386	-44.6334282
0.52	52	0.001	-1.008	0.009	1.8907614	-0.2291832	-0.7448454	98.64044928	2.68717302	-44.6334282
0.53	53	0.001	-1.009	0.009	1.718874	-0.286479	-0.7448454	98.65763802	2.6929026	-44.63915778
0.54	54	0	-1.008	0.009	1.6042824	-0.572958	-0.8021412	98.67482676	2.70436176	-44.63915778
0.55	55	0	-1.009	0.011	1.6042824	-1.0313244	-0.9740286	98.52585768	2.66998428	-44.64488736
0.56	56	0	-1.011	0.013	1.718874	-1.4896908	-1.0886202	98.54304642	2.68144344	-44.6620761
0.57	57	0.001	-1.012	0.013	1.6042824	-1.718874	-1.3178034	98.56023516	2.69863218	-44.67353526
0.58	58	0.002	-1.013	0.014	1.4896908	-1.8907614	-1.432395	98.5774239	2.71582092	-44.690724
0.59	59	0.003	-1.013	0.015	1.3750992	-2.005353	-1.6042824	98.58888306	2.73873924	-44.70791274
0.6	60	0.003	-1.012	0.016	1.3750992	-2.0626488	-1.7761698	98.4914802	2.72728008	-44.72510148
0.61	61	0.002	-1.012	0.017	1.3178034	-2.1199446	-1.9480572	98.50866894	2.7501984	-44.74229022
0.62	62	0.002	-1.013	0.02	1.3178034	-2.1199446	-2.0626488	98.5201281	2.7788463	-44.75947896
0.63	63	0.002	-1.013	0.019	1.3178034	-2.0626488	-2.1772404	98.53158726	2.80176462	-44.7766677
0.64	64	0.004	-1.014	0.019	1.3178034	-2.2345362	-2.291832	98.54304642	2.83041252	-44.79385644
0.65	65	0.005	-1.014	0.02	1.3750992	-2.1199446	-2.4637194	98.45710272	2.83041252	-44.81104518
0.66	66	0.007	-1.016	0.018	1.6615782	-2.2345362	-2.6356068	98.47429146	2.85906042	-44.82823392
0.67	67	0.008	-1.015	0.019	1.718874	-2.4064236	-2.6929026	98.4914802	2.8934379	-44.85115224
0.68	68	0.008	-1.014	0.017	1.718874	-2.578311	-2.8074942	98.50866894	2.9220858	-44.86834098
0.69	69	0.007	-1.014	0.017	1.5469866	-2.6356068	-2.9220858	98.5201281	2.95646328	-44.8912593
0.7	70	0.006	-1.012	0.019	1.2605076	-2.8074942	-2.9793816	98.44564356	2.96792244	-44.91417762
0.71	71	0.007	-1.013	0.022	1.145916	-3.0939732	-3.151269	98.45137314	3.00229992	-44.93709594
0.72	72	0.007	-1.012	0.021	1.2605076	-3.437748	-3.2658606	98.46856188	3.04240698	-44.96574384
0.73	73	0.008	-1.014	0.021	1.2605076	-3.5523396	-3.3804522	98.48002104	3.08251404	-44.99439174
0.74	74	0.009	-1.015	0.021	1.145916	-3.6096354	-3.437748	98.4914802	3.1226211	-45.02876922
0.75	75	0.009	-1.014	0.022	0.9740286	-3.437748	-3.6669312	98.41699566	3.13980984	-45.05741712
0.76	76	0.009	-1.014	0.022	0.7448454	-3.2085648	-4.010706	98.42272524	3.18564648	-45.08033544
0.77	77	0.008	-1.011	0.022	0.6875496	-3.0366774	-4.4690724	98.42845482	3.2372127	-45.10325376
0.78	78	0.01	-1.011	0.021	0.6875496	-3.151269	-4.8128472	98.4341844	3.28877892	-45.12617208
0.79	79	0.012	-1.012	0.019	0.9167328	-3.437748	-5.0993262	98.44564356	3.34607472	-45.15481998
0.8	80	0.015	-1.013	0.016	1.0313244	-3.8388186	-5.2712136	98.38834776	3.38618178	-45.18346788
0.81	81	0.015	-1.013	0.016	0.9740286	-3.6096354	-5.443101	98.39980692	3.44920716	-45.21211578
0.82	82	0.012	-1.017	0.019	0.572958	-2.9793816	-5.8441716	98.4055365	3.51223254	-45.22930452
0.83	83	0.004	-1.02	0.026	-0.1718874	-2.1772404	-6.4744254	98.39980692	3.57525792	-45.24076368
0.84	84	0	-1.02	0.029	-0.4583664	-1.0886202	-6.9900876	98.39407734	3.64974246	-45.24649326
0.85	85	0.001	-1.017	0.025	-0.286479	0.1145916	-7.5057498	98.3195928	3.68984952	-45.22930452
0.86	86	0.005	-1.015	0.018	-0.0572958	1.3750992	-7.7922288	98.3195928	3.76433406	-45.2063862
0.87	87	0.009	-1.015	0.017	-0.5156622	2.8074942	-7.9641162	98.31386322	3.8388186	-45.16627914
0.88	88	0.012	-1.014	0.024	-1.432395	4.5263682	-7.9641162	98.30240406	3.91330314	-45.10898334
0.89	89	0.015	-1.012	0.032	-2.291832	6.4171296	-7.9068204	98.28521532	3.97632852	-45.0344988
0.9	90	0.02	-1.011	0.033	-3.3231564	8.1360036	-7.734933	98.22218994	4.02789474	-44.9485551
0.91	91	0.025	-1.011	0.025	-4.1825934	9.167328	-7.448454	98.18781246	4.08519054	-44.84542266
0.92	92	0.031	-1.011	0.017	-4.297185	9.5111028	-7.1046792	98.1477054	4.14248634	-44.74229022
0.93	93	0.038	-1.011	0.018	-4.0680018	10.1986524	-6.7036086	98.11332792	4.18832298	-44.6334282
0.94	94	0.047	-1.015	0.022	-4.1825934	11.0007936	-6.4171296	98.07895044	4.23415962	-44.5188366
0.95	95	0.056	-1.016	0.025	-4.4690724	11.172681	-6.0733548	98.01019548	4.27426668	-44.404245
0.96	96	0.067	-1.017	0.027	-4.6982556	10.8289062	-5.8441716	97.97008842	4.31437374	-44.2896534
0.97	97	0.07	-1.017	0.025	-4.9847346	10.2559482	-5.8441716	97.92425178	4.3544808	-44.18079138
0.98	98	0.07	-1.019	0.018	-5.3858052	9.8548776	-6.1306506	97.87841514	4.40031744	-44.07765894
0.99	99	0.067	-1.016	0.015	-5.7868758	9.453807	-6.589017	97.82111934	4.44615408	-43.9745265
1	100	0.06	-1.014	0.016	-6.016059	9.5111028	-6.7609044	97.74090522	4.49199072	-43.87139406
1.01	101	0.055	-1.013	0.017	-5.9014674	8.9954406	-6.6463128	97.68360942	4.54355694	-43.7739912
1.02	102	0.052	-1.015	0.016	-5.6149884	8.4224826	-6.302538	97.6320432	4.59512316	-43.6880475
1.03	103	0.054	-1.018	0.02	-5.2712136	7.6203414	-5.9587632	97.58620656	4.6409598	-43.6021038
1.04	104	0.056	-1.014	0.025	-5.2139178	6.4744254	-5.6722842	97.53464034	4.68679644	-43.53334884
1.05	105	0.058	-1.012	0.027	-5.0420304	5.2712136	-5.5003968	97.45442622	4.7269035	-43.47605304
1.06	106	0.064	-1.01	0.029	-4.9847346	4.1825934	-5.2712136	97.40286	4.77274014	-43.4302164
1.07	107	0.069	-1.011	0.032	-5.0993262	2.86479	-5.2139178	97.35702336	4.81857678	-43.39583892
1.08	108	0.075	-1.013	0.032	-5.443101	2.005353	-5.0420304	97.29972756	4.86441342	-43.36719102
1.09	109	0.078	-1.012	0.034	-5.72958	1.0886202	-4.870143	97.24243176	4.91025006	-43.35000228
1.1	110	0.079	-1.009	0.035	-6.302538	0.2291832	-4.7555514	97.13356974	4.9560867	-43.35000228
1.11	111	0.077	-1.006	0.034	-6.3598338	-0.2291832	-4.583664	97.07054436	5.00192334	-43.3442727
1.12	112	0.071	-1.005	0.035	-6.4171296	-0.6302538	-4.4690724	97.0017894	5.04775998	-43.3442727
1.13	113	0.065	-1.006	0.038	-6.6463128	-1.2605076	-4.4690724	96.93303444	5.09359662	-43.35573186
1.14	114	0.063	-1.004	0.041	-6.6463128	-1.718874	-4.297185	96.86427948	5.13943326	-43.36719102
1.15	115	0.061	-1.004	0.041	-6.589017	-2.2345362	-4.1252976	96.76114704	5.17381074	-43.38437976
1.16	116	0.064	-1.003	0.04	-6.7609044	-2.6356068	-3.8961144	96.69239208	5.2139178	-43.40729808
1.17	117	0.063	-1.001	0.039	-6.9900876	-2.9793816	-3.5523396	96.61790754	5.25402486	-43.43594598
1.18	118	0.064	-1.002	0.039	-6.7609044	-2.9220858	-3.2658606	96.54915258	5.28840234	-43.4588643
1.19	119	0.062	-1.002	0.04	-6.589017	-2.8074942	-3.0366774	96.47466804	5.32277982	-43.4875122
1.2	120	0.061	-0.998	0.041	-6.9327918	-2.7501984	-2.7501984	96.3715356	5.34569814	-43.51043052
1.21	121	0.062	-0.996	0.04	-7.6203414	-2.4064236	-2.3491278	96.29132148	5.36861646	-43.53334884
1.22	122	0.063	-0.997	0.038	-7.734933	-2.0626488	-2.0626488	96.21110736	5.39153478	-43.55626716
1.23	123	0.064	-0.998	0.034	-8.021412	-1.8907614	-1.8334656	96.12516366	5.4144531	-43.5734559
1.24	124	0.063	-1	0.032	-8.1932994	-1.8334656	-1.6042824	96.04494954	5.43164184	-43.59064464
1.25	125	0.064	-1.001	0.027	-8.7662574	-2.005353	-1.0313244	95.9131692	5.43164184	-43.61356296
1.26	126	0.063	-1.006	0.026	-8.9954406	-2.2345362	-0.6302538	95.81576634	5.443101	-43.63648128
1.27	127	0.06	-1.011	0.025	-9.1100322	-2.6356068	-0.286479	95.72409306	5.44883058	-43.6593996
1.28	128	0.06	-1.013	0.022	-9.3965112	-2.9793816	-0.0572958	95.6266902	5.45456016	-43.69377708
1.29	129	0.06	-1.014	0.022	-9.6829902	-3.3231564	-0.0572958	95.52355776	5.45456016	-43.72815456
1.3	130	0.059	-1.013	0.022	-9.740286	-3.7815228	-0.0572958	95.38604784	5.44883058	-43.76826162
1.31	131	0.059	-1.01	0.022	-9.5683986	-4.7555514	0	95.28864498	5.45456016	-43.81409826
1.32	132	0.062	-1.009	0.022	-9.5683986	-5.8441716	0.3437748	95.18551254	5.45456016	-43.87139406
1.33	133	0.068	-1.008	0.023	-9.453807	-7.1046792	0.8021412	95.0823801	5.45456016	-43.9458786
1.34	134	0.073	-1.006	0.021	-9.3392154	-8.307891	1.3178034	94.97924766	5.44883058	-44.0318223
1.35	135	0.077	-1.007	0.018	-9.453807	-9.9121734	1.718874	94.8531969	5.443101	-44.12922516
1.36	136	0.077	-1.009	0.018	-9.5683986	-11.4018642	1.9480572	94.75006446	5.43164184	-44.24954634
1.37	137	0.078	-1.007	0.018	-9.9694692	-12.7769634	2.2345362	94.63547286	5.42591226	-44.3755971
1.38	138	0.078	-1.006	0.018	-10.5424272	-14.2093584	2.4064236	94.51515168	5.4144531	-44.5188366
1.39	139	0.074	-1.004	0.016	-10.6570188	-15.469866	2.578311	94.3948305	5.40299394	-44.67926484
1.4	140	0.071	-1.002	0.014	-10.9434978	-15.9855282	2.7501984	94.25732058	5.39153478	-44.83969308
1.41	141	0.068	-0.999	0.014	-10.886202	-16.3865988	2.8074942	94.13126982	5.38007562	-45.0058509
1.42	142	0.063	-0.996	0.016	-10.8289062	-16.3865988	2.86479	94.01094864	5.36288688	-45.17200872
1.43	143	0.058	-0.995	0.015	-10.599723	-16.329303	2.9220858	93.89062746	5.35142772	-45.33816654
1.44	144	0.054	-0.992	0.014	-10.5424272	-16.042824	3.0939732	93.77030628	5.33423898	-45.49859478
1.45	145	0.052	-0.992	0.015	-10.4278356	-15.5271618	3.2658606	93.63852594	5.30559108	-45.65902302
1.46	146	0.051	-0.993	0.019	-10.4851314	-15.0114996	3.4950438	93.51820476	5.28267276	-45.8079921
1.47	147	0.051	-0.992	0.018	-10.5424272	-14.2093584	3.8388186	93.40361316	5.25975444	-45.9512316
1.48	148	0.052	-0.993	0.019	-10.599723	-13.8082878	4.1252976	93.28329198	5.22537696	-46.0944711
1.49	149	0.052	-0.996	0.022	-10.4278356	-13.6936962	4.297185	93.1629708	5.19672906	-46.23198102
1.5	150	0.055	-0.997	0.029	-10.4851314	-13.6936962	4.6409598	93.04264962	5.156622	-46.37522052
1.51	151	0.059	-1.001	0.036	-10.313244	-14.0947668	4.9847346	92.92232844	5.11651494	-46.51846002
1.52	152	0.065	-1.006	0.033	-9.8548776	-14.4958374	5.3285094	92.81346642	5.0706783	-46.66169952
1.53	153	0.067	-1.011	0.021	-9.2819196	-13.9228794	5.6722842	92.71033398	5.02484166	-46.80493902
1.54	154	0.064	-1.013	0.014	-9.0527364	-12.7196676	5.9587632	92.60720154	4.97327544	-46.93671936
1.55	155	0.054	-1.009	0.009	-9.3965112	-11.0007936	6.0733548	92.49260994	4.91597964	-47.05131096
1.56	156	0.04	-1.003	0.013	-9.2246238	-9.3965112	6.0733548	92.3894775	4.85868384	-47.14871382
1.57	157	0.028	-0.995	0.016	-9.167328	-8.1360036	6.0733548	92.29207464	4.80711762	-47.22892794
1.58	158	0.024	-0.991	0.014	-9.0527364	-6.8182002	6.1879464	92.19467178	4.74409224	-47.30341248
1.59	159	0.025	-0.988	0.012	-8.4224826	-6.1879464	6.3598338	92.1029985	4.68679644	-47.36643786
1.6	160	0.032	-0.984	0.016	-7.9068204	-6.0733548	6.589017	92.01132522	4.6123119	-47.42946324
1.61	161	0.044	-0.985	0.021	-7.3911582	-6.2452422	6.8182002	91.9311111	4.54928652	-47.4982182
1.62	162	0.056	-0.986	0.022	-7.1046792	-6.5317212	7.2765666	91.85089698	4.48053156	-47.56697316
1.63	163	0.066	-0.991	0.022	-6.9900876	-6.3598338	7.3911582	91.77641244	4.4117766	-47.62999854
1.64	164	0.068	-0.994	0.02	-6.7609044	-5.6722842	7.3338624	91.7019279	4.33729206	-47.69302392
1.65	165	0.065	-0.996	0.024	-6.3598338	-5.2712136	7.0473834	91.62744336	4.2685371	-47.74459014
1.66	166	0.06	-0.994	0.026	-5.5576926	-4.6409598	6.6463128	91.57014756	4.20551172	-47.79615636
1.67	167	0.051	-0.994	0.017	-4.2398892	-3.724227	6.302538	91.52431092	4.14248634	-47.83626342
1.68	168	0.037	-1.007	0.006	-3.6096354	-3.0366774	5.6149884	91.48420386	4.09092012	-47.8706409
1.69	169	0.016	-1.033	-0.004	-4.2398892	-2.2345362	4.297185	91.43836722	4.05081306	-47.89355922
1.7	170	-0.004	-1.059	-0.011	-4.9274388	0.6875496	1.718874	91.3581531	3.98778768	-47.88210006
1.71	171	-0.022	-1.078	-0.024	-4.6409598	6.0733548	-1.145916	91.31804604	3.99924684	-47.82480426
1.72	172	-0.034	-1.082	-0.032	-3.5523396	10.026765	-3.3804522	91.28366856	4.02789474	-47.72167182
1.73	173	-0.034	-1.066	-0.043	-3.2658606	12.9488508	-4.6982556	91.26075024	4.0680018	-47.59562106
1.74	174	-0.023	-1.041	-0.056	-3.0939732	14.8396122	-4.8128472	91.23783192	4.10810886	-47.44665198
1.75	175	-0.001	-1.017	-0.065	-1.7761698	14.8396122	-4.1825934	91.19772486	4.1252976	-47.2976829
1.76	176	0.023	-0.999	-0.062	-0.286479	14.2666542	-2.86479	91.20345444	4.14821592	-47.1544434
1.77	177	0.049	-0.987	-0.051	0.5156622	13.5218088	-1.5469866	91.2149136	4.1539455	-47.02266306
1.78	178	0.07	-0.979	-0.049	0.572958	12.2613012	-0.0572958	91.22637276	4.1539455	-46.90234188
1.79	179	0.091	-0.972	-0.058	0.2291832	9.9694692	1.2605076	91.23783192	4.13102718	-46.79920944
1.8	180	0.104	-0.972	-0.076	0.2291832	6.9900876	1.6615782	91.1576178	4.14248634	-46.74191364
1.81	181	0.114	-0.98	-0.097	0.9167328	3.6096354	1.432395	91.16907696	4.13102718	-46.70753616
1.82	182	0.119	-0.997	-0.102	1.0313244	0.0572958	0.7448454	91.18053612	4.11956802	-46.70753616
1.83	183	0.12	-1.011	-0.102	0.5156622	-2.6356068	-0.286479	91.1862657	4.1252976	-46.73045448
1.84	184	0.117	-1.02	-0.117	0.1145916	-4.583664	-1.2605076	91.18053612	4.14248634	-46.77629112
1.85	185	0.115	-1.039	-0.137	-0.2291832	-6.1306506	-2.3491278	91.09459242	4.18832298	-46.84504608
1.86	186	0.113	-1.073	-0.148	-1.145916	-6.9327918	-3.0939732	91.07740368	4.22270046	-46.91380104
1.87	187	0.108	-1.114	-0.159	-2.86479	-7.7922288	-3.3804522	91.0430262	4.25707794	-46.99401516
1.88	188	0.101	-1.144	-0.163	-4.6409598	-7.6203414	-2.8074942	90.99145998	4.29145542	-47.0684997
1.89	189	0.093	-1.166	-0.166	-6.0733548	-7.6776372	-0.8021412	90.92270502	4.30291458	-47.14298424
1.9	190	0.081	-1.169	-0.166	-6.9900876	-9.167328	2.4064236	90.81957258	4.27999626	-47.2403871
1.91	191	0.068	-1.158	-0.172	-6.1306506	-12.1467096	6.8182002	90.75081762	4.21697088	-47.36070828
1.92	192	0.051	-1.132	-0.163	-3.7815228	-15.0114996	11.2299768	90.70498098	4.10810886	-47.50967736
1.93	193	0.032	-1.098	-0.14	-0.859437	-16.8449652	14.3812458	90.68779224	3.97632852	-47.68156476
1.94	194	0.014	-1.068	-0.123	2.4637194	-17.3033316	15.8709366	90.6992514	3.82162986	-47.85345216
1.95	195	-0.006	-1.038	-0.106	4.6982556	-16.5584862	15.3552744	90.72216972	3.6669312	-48.01960998
1.96	196	-0.015	-1.018	-0.104	6.2452422	-15.4125702	13.2353298	90.77373594	3.54088044	-48.17430864
1.97	197	-0.02	-1.002	-0.107	6.9900876	-15.469866	10.8289062	90.83676132	3.437748	-48.3290073
1.98	198	-0.027	-0.981	-0.102	7.0473834	-15.0687954	8.4224826	90.90551628	3.36326346	-48.47797638
1.99	199	-0.036	-0.967	-0.101	7.0473834	-13.5218088	6.4171296	90.96854166	3.30596766	-48.6154863
2	200	-0.046	-0.962	-0.1	6.3598338	-12.4331886	5.6149884	90.99718956	3.23148312	-48.73580748
2.01	201	-0.06	-0.948	-0.094	4.583664	-11.9748222	5.5576926	91.03729662	3.1799169	-48.85612866
2.02	202	-0.069	-0.934	-0.09	2.8074942	-10.1413566	5.7868758	91.06021494	3.12835068	-48.9592611
2.03	203	-0.08	-0.914	-0.088	0.9740286	-8.307891	6.1306506	91.06594452	3.07105488	-49.03947522
2.04	204	-0.085	-0.9	-0.089	-0.9740286	-6.0733548	6.3598338	91.05448536	3.0080295	-49.1025006
2.05	205	-0.086	-0.898	-0.094	-2.4064236	-3.6096354	6.4171296	90.9857304	2.89916748	-49.13687808
2.06	206	-0.09	-0.893	-0.105	-5.8441716	-0.5156622	5.8441716	90.92270502	2.84187168	-49.14260766
2.07	207	-0.082	-0.911	-0.124	-8.2505952	1.4896908	4.9847346	90.8424909	2.79030546	-49.1311485
2.08	208	-0.067	-0.943	-0.122	-9.6829902	3.151269	4.1252976	90.74508804	2.7501984	-49.1025006
2.09	209	-0.047	-0.971	-0.115	-11.2299768	5.0420304	4.1825934	90.63049644	2.70436176	-49.05093438
2.1	210	-0.032	-0.992	-0.111	-11.4018642	6.016059	5.6722842	90.48152736	2.62414764	-48.99363858
2.11	211	-0.026	-0.992	-0.114	-10.1413566	6.589017	8.0787078	90.3841245	2.54393352	-48.9306132
2.12	212	-0.028	-0.984	-0.121	-8.3651868	6.4171296	10.4851314	90.2981808	2.4350715	-48.86758782
2.13	213	-0.037	-0.976	-0.12	-7.0473834	6.1879464	12.2613012	90.22942584	2.30902074	-48.81029202
2.14	214	-0.051	-0.977	-0.108	-5.2139178	6.016059	12.891555	90.17785962	2.18296998	-48.75299622
2.15	215	-0.061	-0.973	-0.099	-4.8128472	6.016059	12.4904844	90.0976455	2.02827132	-48.68997084
2.16	216	-0.064	-0.969	-0.094	-4.4690724	5.7868758	11.0580894	90.05180886	1.9194093	-48.63267504
2.17	217	-0.064	-0.963	-0.08	-4.4690724	5.6722842	9.2246238	90.0117018	1.82200644	-48.58110882
2.18	218	-0.059	-0.961	-0.078	-5.0420304	4.9847346	7.448454	89.96013558	1.7475219	-48.5295426
2.19	219	-0.054	-0.965	-0.078	-5.2139178	4.010706	6.4744254	89.90856936	1.67876694	-48.48943554
2.2	220	-0.047	-0.968	-0.072	-5.156622	3.2658606	6.016059	89.81689608	1.59282324	-48.45505806
2.21	221	-0.037	-0.972	-0.066	-5.156622	2.5210152	5.72958	89.76532986	1.53552744	-48.43213974
2.22	222	-0.028	-0.973	-0.061	-5.3858052	2.0626488	5.443101	89.71376364	1.47823164	-48.40922142
2.23	223	-0.022	-0.968	-0.056	-6.016059	1.7761698	4.9847346	89.65073826	1.42666542	-48.39203268
2.24	224	-0.025	-0.96	-0.054	-6.302538	1.718874	4.2398892	89.58771288	1.38655836	-48.38057352
2.25	225	-0.036	-0.954	-0.049	-6.2452422	2.0626488	3.0939732	89.4960396	1.3178034	-48.35192562
2.26	226	-0.054	-0.954	-0.046	-5.9014674	2.578311	1.718874	89.43301422	1.30061466	-48.3290073
2.27	227	-0.07	-0.959	-0.044	-5.9014674	3.437748	0.4583664	89.37571842	1.29488508	-48.29462982
2.28	228	-0.085	-0.966	-0.039	-6.1306506	4.5263682	-0.5156622	89.31269304	1.30061466	-48.24879318
2.29	229	-0.098	-0.976	-0.04	-6.3598338	5.443101	-1.3178034	89.24966766	1.31207382	-48.19722696
2.3	230	-0.104	-0.985	-0.047	-6.4744254	6.302538	-1.718874	89.15799438	1.27769634	-48.128472
2.31	231	-0.101	-0.986	-0.058	-6.4744254	7.2765666	-1.7761698	89.094969	1.29488508	-48.05971704
2.32	232	-0.091	-0.982	-0.065	-6.3598338	8.2505952	-1.6615782	89.02621404	1.30634424	-47.97950292
2.33	233	-0.078	-0.972	-0.067	-6.3598338	9.5111028	-1.6615782	88.96318866	1.32353298	-47.88782964
2.34	234	-0.064	-0.962	-0.069	-5.8441716	11.172681	-1.9480572	88.90589286	1.34072172	-47.77323804
2.35	235	-0.054	-0.955	-0.07	-5.3858052	12.605076	-2.4637194	88.83140832	1.3464513	-47.64718728
2.36	236	-0.043	-0.952	-0.063	-5.0420304	13.6364004	-3.151269	88.7798421	1.3750992	-47.51540694
2.37	237	-0.032	-0.947	-0.054	-4.6409598	14.5531332	-3.7815228	88.73400546	1.40947668	-47.37216744
2.38	238	-0.019	-0.944	-0.044	-3.9534102	15.469866	-4.4690724	88.69962798	1.45531332	-47.22319836
2.39	239	-0.01	-0.944	-0.04	-3.3231564	15.756345	-5.2712136	88.6652505	1.50687954	-47.0684997
2.4	240	-0.006	-0.944	-0.039	-2.8074942	15.8136408	-5.9587632	88.63087302	1.55844576	-46.91380104
2.41	241	-0.003	-0.94	-0.031	-2.5210152	15.6990492	-6.7609044	88.6079547	1.62720072	-46.75910238
2.42	242	-0.005	-0.936	-0.021	-2.3491278	16.1001198	-7.1046792	88.58503638	1.69595568	-46.59867414
2.43	243	-0.004	-0.932	-0.013	-1.718874	16.7303736	-7.1046792	88.56784764	1.76471064	-46.4382459
2.44	244	-0.005	-0.929	-0.006	-0.572958	16.7876694	-6.9900876	88.56784764	1.8334656	-46.27208808
2.45	245	-0.009	-0.93	0.008	0.6302538	16.8449652	-7.161975	88.5793068	1.89649098	-46.10593026
2.46	246	-0.015	-0.925	0.023	1.3178034	16.4438946	-7.8495246	88.59649554	1.97097552	-45.94550202
2.47	247	-0.027	-0.909	0.043	2.1772404	16.2720072	-8.880849	88.61941386	2.0626488	-45.78507378
2.48	248	-0.034	-0.897	0.056	4.6409598	16.329303	-10.3705398	88.67098008	2.16578124	-45.62464554
2.49	249	-0.052	-0.887	0.078	7.6203414	16.5011904	-12.2613012	88.7511942	2.28610242	-45.4642173
2.5	250	-0.073	-0.878	0.086	10.9434978	20.2254174	-15.5271618	88.87724496	2.42361234	-45.263682
2.51	251	-0.089	-0.869	0.069	13.1207382	23.1475032	-17.8189938	89.02048446	2.60122932	-45.0344988
2.52	252	-0.103	-0.893	0.031	14.2666542	30.7678446	-19.3659804	89.17518312	2.79030546	-44.73083106
2.53	253	-0.061	-1.023	-0.251	3.724227	47.841993	-18.5065434	89.22674934	2.96792244	-44.25527592
2.54	254	-0.003	-1.203	-0.51	-4.8128472	35.1796212	-8.5370742	89.19237186	3.04813656	-43.91150112
2.55	255	0.049	-1.455	-0.194	3.8961144	13.5218088	5.0993262	89.2382085	2.99657034	-43.7739912
2.56	256	0.135	-1.563	0.002	9.3965112	12.8342592	18.4492476	89.33561136	2.81322378	-43.64221086
2.57	257	0.246	-1.481	-0.223	1.8907614	14.037471	27.3873924	89.36425926	2.53820394	-43.50470094
2.58	258	0.215	-1.259	-0.367	-8.5370742	12.318597	30.653253	89.27831556	2.22880662	-43.37865018
2.59	259	0.024	-1.162	-0.302	4.4117766	8.8235532	25.9549974	89.32988178	1.97097552	-43.2869769
2.6	260	-0.14	-1.166	-0.212	13.6936962	10.1986524	12.8342592	89.45020296	1.82200644	-43.18384446
2.61	261	-0.224	-1.131	-0.176	12.605076	13.750992	-3.6669312	89.57625372	1.85638392	-43.04633454
2.62	262	-0.229	-1.08	-0.148	13.750992	14.4958374	-18.7357266	89.71949322	2.03973048	-42.90309504
2.63	263	-0.186	-1.085	-0.113	14.4958374	16.9595568	-27.501984	89.87419188	2.30902074	-42.73120764
2.64	264	-0.137	-1.124	-0.125	9.5111028	21.5432208	-28.7624916	89.97732432	2.58977016	-42.5134836
2.65	265	-0.084	-1.134	-0.154	6.2452422	26.642547	-23.0902074	90.02889054	2.80176462	-42.24992292
2.66	266	-0.034	-1.129	-0.171	4.8128472	33.1742682	-11.6883432	90.09191592	2.91062664	-41.92333686
2.67	267	0.023	-1.078	-0.177	1.4896908	35.0077338	0.0572958	90.12056382	2.89916748	-41.57383248
2.68	268	0.057	-0.994	-0.175	-0.0572958	34.0337052	8.5370742	90.13202298	2.80176462	-41.23578726
2.69	269	0.078	-0.927	-0.173	1.4896908	30.366774	13.9228794	90.1549413	2.65852512	-40.9378491
2.7	270	0.099	-0.89	-0.178	-0.0572958	24.637194	16.615782	90.13202298	2.49809688	-40.69720674
2.71	271	0.134	-0.868	-0.194	-5.0993262	17.6471064	17.761698	90.08618634	2.31475032	-40.52531934
2.72	272	0.165	-0.868	-0.198	-9.3965112	10.4278356	17.3606274	89.99451306	2.13713334	-40.4221869
2.73	273	0.185	-0.894	-0.19	-12.032118	4.870143	14.6677248	89.87419188	1.98816426	-40.37635026
2.74	274	0.179	-0.914	-0.189	-18.048177	-1.145916	9.5111028	89.69084532	1.8907614	-40.38780942
2.75	275	0.148	-0.932	-0.177	-20.3973048	-4.3544808	3.8961144	89.4387438	1.87930224	-40.43937564
2.76	276	0.092	-0.963	-0.158	-21.199446	-6.3598338	-2.1199446	89.22101976	1.89649098	-40.50240102
2.77	277	0.038	-0.979	-0.152	-20.912967	-7.448454	-8.2505952	89.0090253	1.98243468	-40.58261514
2.78	278	0.005	-0.977	-0.146	-18.1054728	-7.0473834	-13.178034	88.81994916	2.10848544	-40.65709968
2.79	279	0.009	-0.963	-0.135	-14.6677248	-5.0993262	-15.2979786	88.67098008	2.2631841	-40.7086659
2.8	280	0.004	-0.984	-0.122	-11.745639	-2.7501984	-15.6990492	88.522011	2.41215318	-40.74304338
2.81	281	0	-1.029	-0.107	-9.1100322	-1.0886202	-15.0687954	88.43033772	2.56112226	-40.76023212
2.82	282	-0.001	-1.054	-0.097	-6.9900876	2.578311	-14.0947668	88.35585318	2.69863218	-40.7373138
2.83	283	0.003	-1.035	-0.091	-8.3651868	5.0993262	-13.0061466	88.27563906	2.83041252	-40.69147716
2.84	284	0.014	-0.997	-0.088	-8.6516658	6.8182002	-11.5737516	88.18969536	2.94500412	-40.62845178
2.85	285	0.019	-0.957	-0.092	-8.59437	8.6516658	-10.313244	88.08083334	3.0366774	-40.54250808
2.86	286	0.019	-0.932	-0.1	-9.5683986	10.6570188	-9.453807	87.98916006	3.13408026	-40.44510522
2.87	287	0.023	-0.915	-0.109	-12.6623718	12.0894138	-8.7662574	87.86883888	3.22002396	-40.32478404
2.88	288	0.032	-0.905	-0.115	-15.6990492	12.032118	-8.1360036	87.71414022	3.30023808	-40.21019244
2.89	289	0.046	-0.916	-0.129	-16.3865988	11.5737516	-8.307891	87.5479824	3.38618178	-40.10133042
2.9	290	0.068	-0.931	-0.128	-17.9335854	9.2246238	-8.4224826	87.35317668	3.47212548	-40.01538672
2.91	291	0.084	-0.943	-0.129	-19.194093	6.5317212	-8.59437	87.15837096	3.55806918	-39.95809092
2.92	292	0.099	-0.963	-0.138	-18.334656	4.1252976	-8.8235532	86.9750244	3.64401288	-39.92371344
2.93	293	0.113	-0.973	-0.144	-18.2773602	2.1199446	-8.7662574	86.78594826	3.72995658	-39.91225428
2.94	294	0.119	-0.972	-0.141	-17.7044022	0.0572958	-8.7662574	86.60833128	3.81590028	-39.91798386
2.95	295	0.121	-0.965	-0.123	-17.0741484	-2.4637194	-8.4797784	86.41352556	3.91330314	-39.95236134
2.96	296	0.123	-0.953	-0.098	-15.5271618	-5.0993262	-8.0787078	86.25309732	3.98778768	-40.00965714
2.97	297	0.122	-0.949	-0.074	-13.9228794	-7.6203414	-7.734933	86.10412824	4.06227222	-40.08987126
2.98	298	0.122	-0.949	-0.064	-12.2613012	-11.0580894	-6.9327918	85.9723479	4.1252976	-40.20446286
2.99	299	0.12	-0.96	-0.056	-10.313244	-13.6364004	-5.9587632	85.86348588	4.17686382	-40.34770236
3	300	0.114	-0.973	-0.058	-9.1100322	-15.5271618	-5.2139178	85.75462386	4.23415962	-40.50240102
3.01	301	0.107	-0.972	-0.063	-7.6203414	-16.5011904	-4.8128472	85.66868016	4.27426668	-40.67428842
3.02	302	0.098	-0.966	-0.063	-4.0680018	-17.7044022	-4.1825934	85.61711394	4.30864416	-40.8519054
3.03	303	0.086	-0.961	-0.057	-0.859437	-18.5638392	-3.151269	85.59419562	4.3258329	-41.04098154
3.04	304	0.076	-0.96	-0.048	1.8334656	-19.3659804	-1.8907614	85.5999252	4.33729206	-41.23005768
3.05	305	0.07	-0.952	-0.047	4.3544808	-19.5378678	-0.572958	85.63430268	4.33729206	-41.4248634
3.06	306	0.068	-0.943	-0.044	6.4744254	-19.1367972	0.7448454	85.69159848	4.32010332	-41.61393954
3.07	307	0.065	-0.935	-0.04	7.5057498	-19.0795014	1.6615782	85.75462386	4.29145542	-41.80301568
3.08	308	0.063	-0.926	-0.035	7.9641162	-18.9649098	2.4637194	85.82337882	4.26280752	-41.98636224
3.09	309	0.06	-0.915	-0.032	8.307891	-18.1054728	2.9793816	85.89786336	4.22270046	-42.16397922
3.1	310	0.056	-0.907	-0.023	9.8548776	-17.18874	3.2085648	85.99526622	4.1825934	-42.33013704
3.11	311	0.053	-0.904	-0.01	11.5737516	-16.329303	3.2085648	86.09839866	4.14821592	-42.49056528
3.12	312	0.05	-0.907	-0.01	13.6364004	-15.756345	3.2658606	86.230179	4.10810886	-42.63953436
3.13	313	0.045	-0.925	-0.014	15.756345	-16.042824	3.3231564	86.37914808	4.07373138	-42.79423302
3.14	314	0.038	-0.955	-0.023	17.8762896	-16.5011904	3.2085648	86.55676506	4.03362432	-42.95466126
3.15	315	0.03	-0.998	-0.038	18.8503182	-15.2979786	2.578311	86.73438204	3.99924684	-43.10363034
3.16	316	0.021	-1.053	-0.063	19.5951636	-13.6364004	1.0886202	86.92918776	3.98778768	-43.23541068
3.17	317	0.013	-1.123	-0.088	20.2827132	-11.6310474	-1.2032118	87.12972306	3.99351726	-43.35000228
3.18	318	0.008	-1.194	-0.107	20.1681216	-7.9068204	-4.1825934	87.32452878	4.0393539	-43.4302164
3.19	319	0.009	-1.265	-0.12	20.1681216	-3.2658606	-6.8182002	87.53079366	4.10810886	-43.4588643
3.2	320	0.023	-1.307	-0.149	19.194093	1.8907614	-7.9068204	87.7198698	4.1825934	-43.44167556
3.21	321	0.059	-1.319	-0.242	17.1314442	3.0939732	-6.2452422	87.8917572	4.24561878	-43.41302766
3.22	322	0.09	-1.307	-0.358	14.2093584	-1.0886202	-1.8334656	88.0349967	4.2685371	-43.42448682
3.23	323	0.101	-1.304	-0.396	14.0947668	-7.6203414	2.3491278	88.1782362	4.24561878	-43.49897136
3.24	324	0.094	-1.298	-0.372	13.750992	-14.8396122	5.5576926	88.30428696	4.18832298	-43.64221086
3.25	325	0.076	-1.281	-0.324	11.9748222	-22.0015872	8.307891	88.40168982	4.10810886	-43.8599349
3.26	326	0.073	-1.254	-0.292	10.1413566	-27.1009134	10.4851314	88.48763352	4.00497642	-44.12349558
3.27	327	0.091	-1.219	-0.308	9.9121734	-32.4867186	12.605076	88.57357722	3.87892566	-44.43862248
3.28	328	0.112	-1.192	-0.291	11.2872726	-38.0444112	14.5531332	88.6652505	3.73568616	-44.81104518
3.29	329	0.131	-1.165	-0.256	11.8029348	-42.1697088	15.6417534	88.76838294	3.58671708	-45.22930452
3.3	330	0.125	-1.116	-0.244	9.8548776	-46.696077	15.183387	88.82567874	3.44347758	-45.68767092
3.31	331	0.101	-1.053	-0.219	10.1413566	-49.847346	13.4072172	88.90589286	3.31742682	-46.1804148
3.32	332	0.068	-0.995	-0.198	10.599723	-51.279741	10.9434978	88.99183656	3.21429438	-46.68461784
3.33	333	0.031	-0.936	-0.208	9.9694692	-51.852699	8.307891	89.07205068	3.13408026	-47.19455046
3.34	334	-0.011	-0.878	-0.207	9.3965112	-51.0505578	5.9587632	89.14653522	3.08251404	-47.6987535
3.35	335	-0.046	-0.834	-0.186	9.167328	-47.9565846	4.010706	89.20383102	3.0366774	-48.16857906
3.36	336	-0.075	-0.806	-0.181	7.6203414	-42.1697088	2.2345362	89.26112682	3.01948866	-48.5868384
3.37	337	-0.093	-0.796	-0.193	4.4117766	-35.1223254	0.2291832	89.2955043	3.02521824	-48.93634278
3.38	338	-0.105	-0.81	-0.183	-1.0886202	-26.929026	-1.2032118	89.27258598	3.04240698	-49.19990346
3.39	339	-0.132	-0.834	-0.17	-5.9587632	-21.0848544	-2.4064236	89.20383102	3.0653253	-49.41189792
3.4	340	-0.147	-0.86	-0.18	-10.2559482	-16.5011904	-3.0366774	89.04913236	3.05386614	-49.57232616
3.41	341	-0.159	-0.897	-0.184	-12.8342592	-13.2353298	-2.4064236	88.91162244	3.07678446	-49.70983608
3.42	342	-0.157	-0.944	-0.184	-13.0061466	-10.313244	-0.0572958	88.7798421	3.08251404	-49.81296852
3.43	343	-0.135	-0.979	-0.186	-12.891555	-8.1360036	4.1252976	88.64233218	3.0366774	-49.89318264
3.44	344	-0.099	-1	-0.187	-11.1153852	-6.1306506	9.8548776	88.52774058	2.93927454	-49.95047844
3.45	345	-0.062	-0.993	-0.183	-9.2246238	-4.1825934	15.469866	88.39023066	2.76165756	-49.9905855
3.46	346	-0.049	-0.975	-0.173	-6.2452422	-3.2658606	18.4492476	88.3214757	2.57258142	-50.0192334
3.47	347	-0.042	-0.959	-0.151	-3.6669312	-2.2345362	18.6784308	88.28709822	2.38923486	-50.03642214
3.48	348	-0.045	-0.946	-0.135	-1.9480572	-2.005353	17.2460358	88.2641799	2.21734746	-50.05361088
3.49	349	-0.052	-0.939	-0.125	-0.859437	-2.6929026	15.2406828	88.25845032	2.06837838	-50.0765292
3.5	350	-0.055	-0.938	-0.116	-0.9167328	-3.437748	13.3499214	88.2068841	1.90222056	-50.1051771
3.51	351	-0.05	-0.949	-0.111	-1.7761698	-3.6669312	11.8029348	88.18396578	1.78189938	-50.13955458
3.52	352	-0.047	-0.96	-0.11	-3.724227	-4.010706	10.8289062	88.1495883	1.67303736	-50.17393206
3.53	353	-0.047	-0.96	-0.11	-5.9014674	-4.3544808	10.313244	88.08656292	1.56990492	-50.2197687
3.54	354	-0.053	-0.954	-0.107	-7.9068204	-4.8128472	10.1413566	88.0063488	1.46677248	-50.26560534
3.55	355	-0.059	-0.953	-0.107	-8.8235532	-4.9847346	10.4278356	87.88602762	1.34072172	-50.3057124
3.56	356	-0.069	-0.938	-0.104	-9.2819196	-4.870143	10.5424272	87.79435434	1.2318597	-50.35727862
3.57	357	-0.078	-0.925	-0.102	-8.6516658	-5.0420304	10.0840608	87.70268106	1.13445684	-50.40311526
3.58	358	-0.088	-0.924	-0.095	-7.448454	-4.9847346	9.2246238	87.62819652	1.03705398	-50.4489519
3.59	359	-0.098	-0.922	-0.088	-6.7036086	-4.5263682	8.2505952	87.55944156	0.95683986	-50.48905896
3.6	360	-0.104	-0.918	-0.082	-6.4744254	-3.724227	7.2765666	87.47349786	0.83651868	-50.52343644
3.61	361	-0.106	-0.924	-0.072	-6.1306506	-2.6356068	6.2452422	87.41047248	0.7734933	-50.54635476
3.62	362	-0.104	-0.934	-0.072	-4.8128472	-0.9167328	5.6149884	87.35890626	0.7161975	-50.55208434
3.63	363	-0.102	-0.942	-0.075	-4.2398892	0.1718874	5.2139178	87.3187992	0.66463128	-50.55208434
3.64	364	-0.098	-0.948	-0.067	-3.437748	1.3178034	4.6982556	87.28442172	0.61879464	-50.5348956
3.65	365	-0.093	-0.955	-0.051	-2.86479	2.6356068	4.2398892	87.23858508	0.50993262	-50.50051812
3.66	366	-0.086	-0.955	-0.051	-2.8074942	4.3544808	3.8961144	87.20993718	0.46982556	-50.46041106
3.67	367	-0.084	-0.947	-0.062	-2.7501984	5.0420304	3.4950438	87.18128928	0.43544808	-50.40884484
3.68	368	-0.084	-0.934	-0.063	-2.578311	5.2712136	3.151269	87.15264138	0.40680018	-50.35154904
3.69	369	-0.086	-0.922	-0.068	-1.9480572	5.2712136	2.86479	87.13545264	0.37815228	-50.29998282
3.7	370	-0.087	-0.913	-0.069	-1.0313244	5.3285094	2.2345362	87.09534558	0.29793816	-50.24268702
3.71	371	-0.087	-0.908	-0.068	-0.1145916	5.72958	1.432395	87.09534558	0.286479	-50.18539122
3.72	372	-0.085	-0.903	-0.07	0.9740286	6.4171296	0.2291832	87.10107516	0.286479	-50.11663626
3.73	373	-0.08	-0.897	-0.067	2.2345362	6.8182002	-0.6302538	87.12399348	0.29220858	-50.05361088
3.74	374	-0.073	-0.888	-0.062	3.8388186	6.7036086	-1.432395	87.16410054	0.30939732	-49.98485592
3.75	375	-0.066	-0.882	-0.04	6.589017	6.1879464	-1.718874	87.22712592	0.30939732	-49.92183054
3.76	376	-0.06	-0.877	-0.019	8.9381448	6.589017	-2.2345362	87.3187992	0.33231564	-49.85880516
3.77	377	-0.051	-0.873	-0.014	10.4851314	6.9327918	-2.9220858	87.42766122	0.36096354	-49.7900502
3.78	378	-0.045	-0.878	-0.024	11.6310474	6.2452422	-3.5523396	87.54225282	0.4010706	-49.72702482
3.79	379	-0.04	-0.9	-0.011	13.0634424	5.3858052	-4.3544808	87.67403316	0.44690724	-49.6754586
3.8	380	-0.032	-0.929	0.006	13.6364004	4.9847346	-5.3858052	87.82300224	0.49274388	-49.62389238
3.81	381	-0.028	-0.951	0.014	13.1207382	5.3285094	-6.7609044	87.95478258	0.56149884	-49.57232616
3.82	382	-0.023	-0.97	0.011	12.605076	6.1879464	-8.2505952	88.08083334	0.64171296	-49.50930078
3.83	383	-0.022	-0.992	-0.006	11.45916	8.1360036	-9.5683986	88.20115452	0.73911582	-49.42908666
3.84	384	-0.023	-1.013	-0.026	10.026765	10.8289062	-10.599723	88.29855738	0.84797784	-49.32595422
3.85	385	-0.031	-1.044	-0.051	8.021412	14.2093584	-11.5164558	88.37304192	0.95111028	-49.1884443
3.86	386	-0.044	-1.07	-0.079	5.3285094	18.2773602	-12.2040054	88.42460814	1.07716104	-49.00509774
3.87	387	-0.061	-1.091	-0.075	5.0993262	21.4286292	-12.2040054	88.48190394	1.19748222	-48.79883286
3.88	388	-0.081	-1.103	-0.06	7.161975	25.6685184	-11.9175264	88.55638848	1.3178034	-48.54673134
3.89	389	-0.1	-1.111	-0.088	9.6829902	32.4867186	-11.0580894	88.65952092	1.42666542	-48.22587486
3.9	390	-0.12	-1.117	-0.139	11.0580894	38.6173692	-9.0527364	88.75692378	1.49542038	-47.841993
3.91	391	-0.134	-1.137	-0.162	11.5164558	41.1383844	-6.8182002	88.88297454	1.56417534	-47.43519282
3.92	392	-0.137	-1.162	-0.175	9.9694692	41.0810886	-4.583664	88.98610698	1.6042824	-47.02839264
3.93	393	-0.129	-1.189	-0.207	6.2452422	41.0237928	-2.8074942	89.06059152	1.6329303	-46.62159246
3.94	394	-0.094	-1.211	-0.257	-0.1145916	42.398892	-1.8334656	89.06059152	1.64438946	-46.20333312
3.95	395	-0.058	-1.222	-0.271	-2.578311	42.2270046	-1.3178034	89.02048446	1.65011904	-45.78507378
3.96	396	-0.016	-1.231	-0.286	-4.010706	41.1956802	-0.8021412	88.98610698	1.65011904	-45.3782736
3.97	397	0.031	-1.202	-0.295	-7.3911582	42.0551172	-0.2291832	88.91735202	1.65011904	-44.96574384
3.98	398	0.073	-1.144	-0.286	-11.1153852	44.1750618	-0.6875496	88.80849	1.65011904	-44.53029576
3.99	399	0.095	-1.09	-0.292	-12.8342592	45.4928652	-2.291832	88.68816882	1.67303736	-44.07765894
4	400	0.103	-1.029	-0.291	-12.9488508	44.5761324	-3.6096354	88.52774058	1.71314442	-43.64221086
4.01	401	0.104	-0.965	-0.281	-12.3758928	40.680018	-3.2658606	88.4074194	1.7475219	-43.24114026
4.02	402	0.103	-0.915	-0.253	-11.9748222	32.372127	-1.2032118	88.2928278	1.75898106	-42.92028378
4.03	403	0.095	-0.895	-0.227	-12.3758928	24.0069402	1.2032118	88.16677704	1.7475219	-42.685371
4.04	404	0.094	-0.907	-0.212	-13.6364004	16.4438946	3.6096354	88.0349967	1.70741484	-42.52494276
4.05	405	0.097	-0.942	-0.209	-15.6990492	10.026765	5.2712136	87.82300224	1.67303736	-42.4275399
4.06	406	0.1	-0.983	-0.216	-18.3919518	4.8128472	6.016059	87.63965568	1.61574156	-42.37597368
4.07	407	0.108	-1.026	-0.221	-20.340009	1.0886202	5.443101	87.4333908	1.55844576	-42.36451452
4.08	408	0.102	-1.064	-0.202	-21.1421502	-0.0572958	3.4950438	87.21566676	1.52406828	-42.3702441
4.09	409	0.085	-1.094	-0.192	-21.3713334	0	0	86.99794272	1.5183387	-42.3702441
4.1	410	0.076	-1.101	-0.192	-20.5691922	1.2605076	-3.0939732	86.75730036	1.55844576	-42.36451452
4.11	411	0.067	-1.089	-0.187	-19.3086846	2.9793816	-5.5003968	86.56249464	1.61574156	-42.33586662
4.12	412	0.056	-1.07	-0.182	-17.5325148	4.8128472	-7.448454	86.38487766	1.6902261	-42.29575956
4.13	413	0.053	-1.052	-0.166	-15.2979786	6.9327918	-8.9954406	86.230179	1.7761698	-42.23273418
4.14	414	0.045	-1.038	-0.152	-13.6936962	9.3965112	-10.0840608	86.09266908	1.87930224	-42.15252006
4.15	415	0.033	-1.035	-0.143	-12.4331886	11.0580894	-10.2559482	85.94942958	1.98816426	-42.04938762
4.16	416	0.022	-1.03	-0.126	-12.0894138	12.2040054	-9.2819196	85.8291084	2.08556712	-41.93479602
4.17	417	0.013	-1.019	-0.119	-12.1467096	13.6364004	-7.2765666	85.70305764	2.16005166	-41.80874526
4.18	418	0.002	-1.001	-0.118	-12.7769634	15.2979786	-5.443101	85.57700688	2.22307704	-41.65977618
4.19	419	0.003	-0.988	-0.114	-13.4072172	16.4438946	-4.0680018	85.44522654	2.26891368	-41.50507752
4.2	420	0.013	-0.975	-0.108	-14.4385416	17.8762896	-3.151269	85.29052788	2.30329116	-41.32746054
4.21	421	0.03	-0.959	-0.118	-15.5271618	19.0795014	-2.4064236	85.1415588	2.33766864	-41.14411398
4.22	422	0.052	-0.947	-0.137	-15.6417534	18.9649098	-1.7761698	84.98686014	2.36631654	-40.96076742
4.23	423	0.068	-0.934	-0.143	-15.1260912	17.6471064	-1.3178034	84.83789106	2.38923486	-40.78888002
4.24	424	0.084	-0.925	-0.14	-14.9542038	15.9855282	-1.0313244	84.68892198	2.4064236	-40.63418136
4.25	425	0.095	-0.928	-0.132	-14.5531332	15.1260912	-0.6302538	84.52849374	2.44080108	-40.48521228
4.26	426	0.106	-0.92	-0.141	-15.0114996	14.2093584	-0.6302538	84.37952466	2.45226024	-40.34770236
4.27	427	0.111	-0.911	-0.15	-14.1520626	12.2613012	-0.4583664	84.23628516	2.4637194	-40.23311076
4.28	428	0.121	-0.896	-0.145	-12.4904844	9.6256944	0.1145916	84.11596398	2.46944898	-40.1357079
4.29	429	0.129	-0.875	-0.127	-9.6256944	6.7036086	0.8021412	84.01856112	2.46944898	-40.07268252
4.3	430	0.145	-0.857	-0.113	-6.7036086	2.9793816	1.718874	83.93261742	2.50382646	-40.04403462
4.31	431	0.159	-0.834	-0.112	-3.6096354	-1.0313244	2.86479	83.89251036	2.47517856	-40.0497642
4.32	432	0.164	-0.813	-0.115	0.5156622	-5.156622	4.0680018	83.89823994	2.42934192	-40.10133042
4.33	433	0.157	-0.806	-0.104	6.3598338	-10.0840608	5.5003968	83.96126532	2.37204612	-40.1930037
4.34	434	0.137	-0.805	-0.061	13.2926256	-15.2979786	6.302538	84.09304566	2.29756158	-40.3362432
4.35	435	0.118	-0.809	-0.028	18.1054728	-17.8762896	6.8182002	84.27639222	2.22880662	-40.50240102
4.36	436	0.109	-0.813	-0.036	21.4286292	-18.334656	7.3338624	84.48838668	2.1485925	-40.67428842
4.37	437	0.105	-0.828	-0.055	24.4080108	-18.1054728	7.734933	84.73475862	2.0626488	-40.84617582
4.38	438	0.093	-0.858	-0.071	26.5279554	-17.6471064	7.8495246	85.00404888	1.9767051	-41.01233364
4.39	439	0.076	-0.893	-0.074	27.6165756	-17.9335854	7.9641162	85.27906872	1.88503182	-41.17849146
4.4	440	0.054	-0.945	-0.077	28.4760126	-20.05353	8.6516658	85.55981814	1.79908812	-41.3675676
4.41	441	0.023	-0.992	-0.102	26.2987722	-24.7517856	10.3705398	85.82337882	1.68449652	-41.60248038
4.42	442	-0.008	-1.039	-0.125	23.9496444	-30.2521824	12.7196676	86.06402118	1.5469866	-41.88895938
4.43	443	-0.024	-1.078	-0.154	21.3713334	-31.7418732	15.0114996	86.27601564	1.38655836	-42.19262712
4.44	444	-0.022	-1.109	-0.193	17.761698	-32.6013102	17.18874	86.45363262	1.20894138	-42.50202444
4.45	445	-0.027	-1.163	-0.26	15.2979786	-33.0023808	18.4492476	86.59114254	1.00840608	-42.81715134
4.46	446	-0.052	-1.245	-0.302	15.3552744	-32.8304934	17.18874	86.7458412	0.8307891	-43.12654866
4.47	447	-0.093	-1.333	-0.316	14.2093584	-30.0229992	12.9488508	86.8890807	0.69327918	-43.41875724
4.48	448	-0.125	-1.421	-0.338	11.8029348	-23.1475032	6.1306506	87.00940188	0.6302538	-43.64221086
4.49	449	-0.136	-1.453	-0.374	8.2505952	-16.5584862	-1.6042824	87.09534558	0.64171296	-43.80836868
4.5	450	-0.125	-1.391	-0.39	4.297185	-13.2353298	-3.6669312	87.1182639	0.67036086	-43.94014902
4.51	451	-0.075	-1.232	-0.358	1.6615782	-13.178034	1.145916	87.13545264	0.65317212	-44.06619978
4.52	452	-0.009	-1.064	-0.311	2.0626488	-13.750992	9.6829902	87.15837096	0.55576926	-44.19798012
4.53	453	0.038	-0.96	-0.264	4.4690724	-15.0114996	17.0741484	87.2042076	0.38388186	-44.34121962
4.54	454	0.054	-0.919	-0.236	7.5630456	-15.8709366	21.199446	87.28442172	0.1718874	-44.48445912
4.55	455	0.044	-0.891	-0.229	7.1046792	-16.615782	21.8869956	87.32452878	-0.03437748	-44.63915778
4.56	456	0.018	-0.862	-0.203	4.010706	-16.615782	20.05353	87.36463584	-0.23491278	-44.79385644
4.57	457	-0.011	-0.843	-0.196	-0.4583664	-15.8709366	16.4438946	87.36463584	-0.40680018	-44.94282552
4.58	458	-0.043	-0.834	-0.189	-4.9847346	-14.4958374	11.2872726	87.3187992	-0.52139178	-45.08606502
4.59	459	-0.073	-0.843	-0.186	-7.6203414	-13.464513	6.875496	87.24431466	-0.59014674	-45.21784536
4.6	460	-0.104	-0.874	-0.193	-9.6829902	-12.8342592	3.5523396	87.09534558	-0.66463128	-45.33816654
4.61	461	-0.13	-0.93	-0.196	-10.9434978	-12.2613012	1.6042824	86.98648356	-0.68182002	-45.45848772
4.62	462	-0.147	-0.998	-0.197	-12.032118	-11.45916	1.432395	86.86616238	-0.69900876	-45.57307932
4.63	463	-0.148	-1.052	-0.206	-12.891555	-10.5424272	3.4950438	86.74011162	-0.73911582	-45.67621176
4.64	464	-0.128	-1.081	-0.199	-12.4904844	-10.313244	7.5057498	86.61406086	-0.81932994	-45.7793442
4.65	465	-0.102	-1.072	-0.193	-11.5737516	-10.3705398	12.9488508	86.47082136	-0.96256944	-45.87101748
4.66	466	-0.089	-1.038	-0.204	-11.5164558	-10.6570188	18.4492476	86.35622976	-1.15164558	-45.96842034
4.67	467	-0.101	-1.006	-0.217	-11.5164558	-11.2872726	21.1421502	86.24163816	-1.36936962	-46.07155278
4.68	468	-0.123	-0.972	-0.218	-10.9434978	-11.8602306	22.6891368	86.13850572	-1.59855282	-46.17468522
4.69	469	-0.139	-0.958	-0.206	-9.6256944	-12.318597	22.8610242	86.04110286	-1.82773602	-46.28354724
4.7	470	-0.149	-0.955	-0.199	-9.5683986	-11.9175264	22.2307704	85.92078168	-2.07983754	-46.3809501
4.71	471	-0.147	-0.964	-0.197	-9.1100322	-11.4018642	21.0848544	85.83483798	-2.291832	-46.48408254
4.72	472	-0.139	-0.978	-0.174	-8.7662574	-10.4278356	19.7097552	85.74889428	-2.4923673	-46.57002624
4.73	473	-0.126	-0.989	-0.161	-9.0527364	-9.5111028	18.2200644	85.66295058	-2.68144344	-46.65596994
4.74	474	-0.114	-0.989	-0.159	-10.2559482	-9.5683986	17.18874	85.56554772	-2.85333084	-46.73618406
4.75	475	-0.113	-0.979	-0.154	-10.7143146	-9.9694692	16.7303736	85.43949696	-3.04240698	-46.82212776
4.76	476	-0.12	-0.968	-0.143	-11.1153852	-9.740286	16.4438946	85.33063494	-3.2085648	-46.90807146
4.77	477	-0.128	-0.946	-0.145	-12.3758928	-8.9381448	16.1001198	85.21031376	-3.37472262	-46.982556
4.78	478	-0.142	-0.924	-0.141	-13.0634424	-7.6776372	15.2406828	85.084263	-3.53515086	-47.05131096
4.79	479	-0.156	-0.91	-0.131	-12.7196676	-5.9014674	13.6936962	84.95821224	-3.67266078	-47.0971476
4.8	480	-0.169	-0.896	-0.118	-13.464513	-3.6669312	11.3445684	84.80924316	-3.82162986	-47.1257955
4.81	481	-0.179	-0.89	-0.12	-14.3812458	-0.8021412	8.4797784	84.66027408	-3.90757356	-47.1257955
4.82	482	-0.189	-0.89	-0.137	-14.0947668	1.4896908	5.8441716	84.51703458	-3.96486936	-47.10860676
4.83	483	-0.196	-0.896	-0.138	-12.605076	3.3804522	3.9534102	84.38525424	-4.00497642	-47.07422928
4.84	484	-0.2	-0.901	-0.125	-11.2872726	5.6722842	2.9793816	84.26493306	-4.03362432	-47.0112039
4.85	485	-0.202	-0.904	-0.12	-10.599723	8.307891	2.578311	84.13315272	-4.10237928	-46.9252602
4.86	486	-0.198	-0.908	-0.124	-9.5683986	11.3445684	2.578311	84.0242907	-4.11956802	-46.8106686
4.87	487	-0.19	-0.915	-0.132	-8.59437	14.7250206	2.5210152	83.92688784	-4.13675676	-46.66169952
4.88	488	-0.177	-0.919	-0.128	-7.9068204	18.7357266	2.1772404	83.82948498	-4.14248634	-46.47835296
4.89	489	-0.161	-0.913	-0.13	-7.448454	23.1475032	1.3178034	83.73208212	-4.13675676	-46.24916976
4.9	490	-0.146	-0.908	-0.117	-5.8441716	26.4706596	0.5156622	83.64613842	-4.14248634	-45.98560908
4.91	491	-0.129	-0.906	-0.097	-5.3858052	28.5906042	-0.4010706	83.5659243	-4.11383844	-45.70485966
4.92	492	-0.117	-0.909	-0.081	-4.870143	29.9084076	-1.6615782	83.49143976	-4.07373138	-45.4069215
4.93	493	-0.103	-0.917	-0.076	-4.010706	30.080295	-2.8074942	83.42841438	-4.01643558	-45.11471292
4.94	494	-0.094	-0.93	-0.066	-2.6356068	29.4500412	-3.9534102	83.37684816	-3.9534102	-44.82823392
4.95	495	-0.093	-0.942	-0.054	-1.8907614	28.361421	-5.0420304	83.34247068	-3.88465524	-44.55321408
4.96	496	-0.099	-0.95	-0.063	-1.8907614	26.7571386	-5.7868758	83.30236362	-3.80444112	-44.29538298
4.97	497	-0.108	-0.962	-0.081	-2.9220858	25.0382646	-6.7036086	83.2507974	-3.71849742	-44.0604702
4.98	498	-0.112	-0.989	-0.108	-5.3285094	24.6944898	-7.5057498	83.18204244	-3.62109456	-43.82555742
4.99	499	-0.106	-1.03	-0.143	-7.2192708	24.1215318	-7.734933	83.09036916	-3.5236917	-43.59637422
5	500	-0.094	-1.072	-0.166	-9.453807	22.8610242	-7.161975	82.9643184	-3.437748	-43.37865018
5.01	501	-0.081	-1.119	-0.174	-11.2299768	21.3140376	-5.5576926	82.83826764	-3.36326346	-43.17811488
5.02	502	-0.06	-1.155	-0.154	-12.2613012	19.0222056	-3.0939732	82.69502814	-3.31169724	-42.99476832
5.03	503	-0.034	-1.162	-0.137	-12.7196676	16.1001198	-0.572958	82.55751822	-3.2945085	-42.83434008
5.04	504	-0.016	-1.099	-0.15	-16.3865988	12.9488508	1.9480572	82.37990124	-3.30023808	-42.70828932
5.05	505	-0.022	-1.038	-0.15	-17.5325148	9.3392154	2.86479	82.1908251	-3.31169724	-42.61088646
5.06	506	-0.045	-0.995	-0.13	-16.2147114	6.589017	1.3178034	82.0189377	-3.31742682	-42.54786108
5.07	507	-0.074	-0.966	-0.128	-16.5584862	5.3858052	-2.005353	81.8470503	-3.2945085	-42.50202444
5.08	508	-0.1	-0.957	-0.144	-17.2460358	5.156622	-6.2452422	81.66943332	-3.22575354	-42.46191738
5.09	509	-0.113	-0.968	-0.161	-18.4492476	6.1306506	-10.1413566	81.48035718	-3.1226211	-42.41608074
5.1	510	-0.113	-0.981	-0.179	-21.3140376	7.448454	-12.4904844	81.2454444	-3.00229992	-42.35878494
5.11	511	-0.102	-1.003	-0.188	-24.8090814	8.1360036	-13.0634424	80.9876133	-2.86479	-42.30148914
5.12	512	-0.076	-1.026	-0.169	-29.1062664	7.448454	-11.745639	80.68967514	-2.74446882	-42.24992292
5.13	513	-0.048	-1.043	-0.16	-33.6899304	3.6669312	-8.9381448	80.34590034	-2.65279554	-42.23273418
5.14	514	-0.019	-1.067	-0.174	-34.8358464	-0.1145916	-6.4171296	79.99066638	-2.59549974	-42.24992292
5.15	515	0.01	-1.006	-0.232	-43.831287	-1.2032118	-3.0939732	79.53229998	-2.56112226	-42.26711166
5.16	516	0.024	-0.98	-0.248	-40.5654264	-4.3544808	-1.2605076	79.1254998	-2.55539268	-42.31867788
5.17	517	0.03	-0.988	-0.218	-37.24227	-8.59437	-1.5469866	78.7530771	-2.56112226	-42.41035116
5.18	518	0.03	-0.988	-0.186	-37.9298196	-11.0007936	-3.4950438	78.37492482	-2.5496631	-42.52494276
5.19	519	0.038	-0.984	-0.188	-36.4974246	-14.4385416	-5.3858052	78.0082317	-2.52674478	-42.685371
5.2	520	0.056	-0.933	-0.202	-40.680018	-17.4179232	-5.6722842	77.60143152	-2.4923673	-42.86871756
5.21	521	0.054	-0.939	-0.187	-41.0237928	-20.5691922	-6.1879464	77.20036092	-2.47517856	-43.0864416
5.22	522	0.04	-0.923	-0.174	-42.3415962	-22.8037284	-6.4744254	76.78210158	-2.45798982	-43.32708396
5.23	523	0.013	-0.909	-0.202	-43.6021038	-25.1528562	-6.3598338	76.35238308	-2.45226024	-43.59064464
5.24	524	-0.025	-0.918	-0.192	-42.4561878	-27.8457588	-5.9014674	75.93985332	-2.45798982	-43.87712364
5.25	525	-0.06	-0.927	-0.164	-42.4561878	-30.0229992	-5.443101	75.53305314	-2.48090814	-44.18079138
5.26	526	-0.088	-0.936	-0.181	-42.97185	-30.3094782	-5.0993262	75.1147938	-2.50382646	-44.4901887
5.27	527	-0.097	-0.923	-0.197	-43.6021038	-28.8197874	-4.5263682	74.6850753	-2.53247436	-44.78239728
5.28	528	-0.089	-0.917	-0.17	-40.6227222	-25.78311	-4.3544808	74.28973428	-2.55539268	-45.04595796
5.29	529	-0.087	-0.902	-0.127	-35.9817624	-24.637194	-5.0420304	73.9402299	-2.57258142	-45.30378906
5.3	530	-0.111	-0.87	-0.109	-31.0543236	-22.9756158	-6.589017	73.6537509	-2.578311	-45.54443142
5.31	531	-0.138	-0.825	-0.085	-24.5226024	-20.9702628	-8.59437	73.41883812	-2.55539268	-45.76788504
5.32	532	-0.159	-0.786	-0.069	-16.2147114	-18.5065434	-10.2559482	73.26413946	-2.50382646	-45.9798795
5.33	533	-0.175	-0.75	-0.039	-9.6829902	-13.4072172	-10.4278356	73.17819576	-2.44080108	-46.13457816
5.34	534	-0.192	-0.719	-0.03	-5.3285094	-6.8182002	-9.5111028	73.12662954	-2.37204612	-46.22625144
5.35	535	-0.222	-0.717	-0.035	-1.2032118	-2.4637194	-7.9641162	73.16100702	-2.36058696	-46.27208808
5.36	536	-0.27	-0.779	-0.074	3.2085648	3.2085648	-7.0473834	73.18965492	-2.28037284	-46.26062892
5.37	537	-0.255	-0.816	-0.113	11.0580894	14.610429	-6.9900876	73.29851694	-2.1772404	-46.14030774
5.38	538	-0.226	-0.817	-0.063	18.2200644	19.6524594	-5.9587632	73.47040434	-2.06837838	-45.96842034
5.39	539	-0.225	-0.84	-0.037	25.9549974	26.4706596	-4.5263682	73.72250586	-1.95378678	-45.72777798
5.4	540	-0.224	-0.835	-0.073	34.2055926	32.3148312	-1.8907614	74.07201024	-1.87930224	-45.41838066
5.41	541	-0.229	-0.837	-0.094	42.2270046	36.8984952	0.7448454	74.48454	-1.79335854	-45.05741712
5.42	542	-0.2	-0.849	-0.126	49.1597964	42.2270046	1.8907614	74.96582472	-1.70741484	-44.64488736
5.43	543	-0.145	-0.875	-0.117	56.2644756	46.5814854	2.1772404	75.5158644	-1.61574156	-44.18652096
5.44	544	-0.081	-0.889	-0.134	62.5670136	49.9046418	2.4064236	76.13465904	-1.52406828	-43.6880475
5.45	545	-0.027	-0.871	-0.108	71.333271	53.3423898	2.86479	76.84512696	-1.432395	-43.16092614
5.46	546	0.026	-0.831	-0.082	77.9795838	54.8320806	3.2085648	77.61289068	-1.35218088	-42.61661604
5.47	547	0.08	-0.776	-0.085	83.5945722	53.8007562	3.4950438	78.44367978	-1.28342592	-42.07803552
5.48	548	0.128	-0.705	-0.095	89.8398144	50.0765292	3.7815228	79.33749426	-1.22613012	-41.57383248
5.49	549	0.168	-0.634	-0.083	97.0590852	46.4668938	3.437748	80.30579328	-1.18602306	-41.10400692
5.5	550	0.219	-0.574	-0.078	105.0804972	40.966497	2.6356068	81.360036	-1.12872726	-40.68574758
5.51	551	0.266	-0.52	-0.049	112.0705848	34.091001	1.6042824	82.48303368	-1.09434978	-40.3362432
5.52	552	0.297	-0.453	-0.017	116.9407278	26.8717302	-0.0572958	83.66332716	-1.0599723	-40.06122336
5.53	553	0.313	-0.378	0	122.3838288	17.3033316	-3.0366774	84.90091644	-1.00840608	-39.8778768
5.54	554	0.308	-0.303	-0.002	124.1599986	8.7662574	-5.7868758	86.15569446	-0.93392154	-39.78047394
5.55	555	0.286	-0.229	0.011	125.8215768	1.432395	-8.6516658	87.4333908	-0.81360036	-39.7632852
5.56	556	0.245	-0.158	0.031	126.910197	-2.4637194	-11.5164558	88.7225463	-0.69327918	-39.77474436
5.57	557	0.21	-0.091	0.015	126.05076	-3.4950438	-14.2666542	90.00024264	-0.53858052	-39.79766268
5.58	558	0.178	-0.029	-0.031	123.0713784	-2.7501984	-15.8136408	91.24929108	-0.3724227	-39.80912184
5.59	559	0.116	-0.004	-0.035	117.3990942	-1.5469866	-16.615782	92.44104372	-0.19480572	-39.80339226
5.6	560	0.014	-0.036	-0.042	113.0446134	0.0572958	-17.4179232	93.57550056	-0.01718874	-39.78047394
5.61	561	-0.071	-0.141	-0.11	99.0644382	2.5210152	-16.7303736	94.58390664	0.14896908	-39.72890772
5.62	562	-0.08	-0.275	-0.188	76.776372	4.8128472	-15.4125702	95.35739994	0.30366774	-39.66015276
5.63	563	-0.026	-0.384	-0.251	50.133825	6.0733548	-13.5791046	95.86733256	0.4297185	-39.57993864
5.64	564	0.063	-0.45	-0.279	28.3041252	8.7089616	-11.172681	96.15381156	0.53285094	-39.4768062
5.65	565	0.115	-0.507	-0.281	11.45916	12.0894138	-8.8235532	96.22256652	0.61879464	-39.35075544
5.66	566	0.058	-0.556	-0.29	-6.9327918	13.8082878	-7.0473834	96.15381156	0.67036086	-39.20751594
5.67	567	-0.049	-0.595	-0.137	-16.9595568	13.5791046	-5.9014674	95.98192416	0.71046792	-39.07000602
5.68	568	-0.236	-0.699	0.037	-23.5485738	13.6936962	-6.1879464	95.7412818	0.75057498	-38.9324961
5.69	569	-0.345	-0.895	0.168	-47.2117392	0.572958	-5.9014674	95.25999708	0.80787078	-38.92103694
5.7	570	-0.26	-1.002	0.29	-89.0376732	-2.1772404	-2.291832	94.37191218	0.80787078	-38.95541442
5.71	571	-0.252	-1.139	0.315	-132.926256	3.9534102	5.5576926	93.02546088	0.73911582	-38.9324961
5.72	572	-0.291	-1.481	0.326	-143.6405706	6.1306506	16.5584862	91.56441798	0.55576926	-38.89811862
5.73	573	-0.262	-2.157	0.389	-127.0247886	5.443101	30.653253	90.27526248	0.24064236	-38.86374114
5.74	574	-0.205	-3.096	0.478	-128.629071	3.5523396	40.2789474	88.96891824	-0.16615782	-38.84082282
5.75	575	-0.252	-3.801	0.444	-174.5230068	31.3980984	7.448454	87.19274844	-0.25210152	-38.54861424
5.76	576	-0.409	-3.816	-0.439	-236.345175	66.9214944	-36.955791	84.78632484	0.1145916	-37.94127876
5.77	577	-0.197	-2.786	-1.125	-257.6592126	61.4210976	-37.9871154	82.16790678	0.52139178	-37.40269824
5.78	578	0.037	-1.767	-0.946	-157.9645206	46.3523022	-18.6784308	80.5578948	0.7448454	-36.99016848
5.79	579	0.305	-1.644	-0.537	-83.4226848	40.680018	-3.8961144	79.71564654	0.8307891	-36.60628662
5.8	580	0.414	-1.724	-0.567	-126.1080558	30.3094782	7.9068204	78.43222062	0.79641162	-36.30834846
5.81	581	0.425	-1.701	-0.667	-163.6368048	11.2299768	14.0947668	76.77064242	0.6589017	-36.1822977
5.82	582	0.512	-1.798	-0.508	-160.1990568	-2.5210152	11.745639	75.1434417	0.52712136	-36.19375686
5.83	583	0.527	-1.955	-0.236	-172.5749496	-5.9587632	0.6875496	73.3959198	0.4870143	-36.2682414
5.84	584	0.391	-1.881	-0.149	-224.026578	-11.45916	-10.5424272	71.12127654	0.52712136	-36.42866964
5.85	585	0.254	-1.583	-0.134	-241.2726138	-22.1734746	-16.3865988	68.68047546	0.58441716	-36.70941906
5.86	586	0.213	-1.377	-0.021	-222.9952536	-20.7983754	-16.902261	66.41729136	0.64171296	-36.9844389
5.87	587	0.126	-1.271	0.038	-213.140376	-18.9649098	-18.6784308	64.25151012	0.71046792	-37.24799958
5.88	588	0.065	-1.234	0.068	-216.291645	-18.1627686	-18.7357266	62.05708098	0.7734933	-37.51156026
5.89	589	0.037	-1.201	0.074	-214.0571088	-21.9442914	-17.5898106	59.87984058	0.8021412	-37.79803926
5.9	590	0.024	-1.144	0.224	-203.7438648	-24.5798982	-16.6730778	57.8401101	0.79641162	-38.10743658
5.91	591	0.031	-1.036	0.449	-195.8943402	-19.5378678	-12.891555	55.85194584	0.77922288	-38.35380852
5.92	592	-0.085	-0.903	0.739	-190.2793518	-19.0222056	-7.1046792	53.92107738	0.71046792	-38.5600734
5.93	593	-0.234	-0.708	0.74	-202.1968782	-13.6364004	-1.0313244	51.86988774	0.61306506	-38.68612416
5.94	594	-0.352	-0.462	0.665	-205.5200346	-12.1467096	1.5469866	49.78432062	0.49847346	-38.77779744
5.95	595	-0.352	-0.153	0.78	-212.6247138	-17.761698	7.3911582	47.65291686	0.286479	-38.86947072
5.96	596	-0.343	0.165	0.758	-227.8081008	-18.9649098	18.1627686	45.34389612	0	-38.89238904
5.97	597	-0.299	0.502	0.673	-232.5636522	-19.480572	27.3873924	42.98903874	-0.35523396	-38.84082282
5.98	598	-0.195	0.744	0.516	-237.1473162	-20.5118964	25.1528562	40.58261514	-0.69900876	-38.79498618
5.99	599	-0.084	0.75	0.391	-216.3489408	-22.0015872	17.18874	38.388186	-1.0026765	-38.81217492
6	600	0.089	0.609	0.302	-187.4718576	-26.0122932	8.8235532	36.48023586	-1.27769634	-38.9038482
6.01	601	0.179	0.473	0.189	-154.3548852	-31.51269	3.724227	34.9217901	-1.56990492	-39.05854686
6.02	602	0.223	0.377	-0.106	-120.3784758	-43.0864416	5.2139178	33.71284872	-1.95951636	-39.26481174
6.03	603	0.193	0.407	-0.545	-86.4593622	-62.0513514	11.9748222	32.85341172	-2.54393352	-39.51691326
6.04	604	0.222	0.5	-1.03	-59.014674	-83.7091638	18.8503182	32.28045372	-3.33461556	-39.82631058
6.05	605	0.22	0.692	-1.466	-21.3140376	-109.2630906	27.1582092	32.085648	-4.37739912	-40.1930037
6.06	606	0.307	0.922	-1.847	40.1643558	-133.0981434	36.8984952	32.54974398	-5.66082504	-40.6227222
6.07	607	0.836	0.993	-1.72	102.1011156	-135.4472712	53.4569814	33.64409376	-7.04165382	-40.9378491
6.08	608	1.698	0.647	-1.395	125.4205062	-109.721457	66.0047616	34.94470842	-8.27351352	-41.03525196
6.09	609	1.09	0.307	-1.246	35.9244666	-87.376095	68.5830726	35.31713112	-9.35640414	-41.00087448
6.1	610	0.3	0.264	-1.358	-33.0596766	-83.5372764	64.1140002	34.96762674	-10.38199896	-40.97222658
6.11	611	-0.149	0.281	-1.5	-36.382833	-88.7511942	54.7747848	34.62385194	-11.40759378	-41.04671112
6.12	612	-0.488	0.172	-1.255	-34.37748	-82.792431	48.2430636	34.30299546	-12.3472449	-41.13265482
6.13	613	-0.599	0.11	-1.049	-37.4141574	-70.6457214	43.4302164	33.9477615	-13.16084526	-41.18995062
6.14	614	-0.575	0	-1.116	-36.4974246	-70.7030172	47.6128098	33.59252754	-13.99736394	-41.20140978
6.15	615	-0.498	-0.056	-1.164	-26.2987722	-89.094969	66.463128	33.30031896	-15.0974433	-41.14984356
6.16	616	-0.367	-0.196	-1.111	-17.4179232	-92.7619002	91.0430262	33.07113576	-16.35222132	-40.9092012
6.17	617	-0.246	-0.276	-1.085	-23.491278	-73.338624	108.4036536	32.69298348	-17.53824438	-40.393539
6.18	618	-0.26	-0.293	-1.233	-41.0237928	-52.2537696	113.1019092	32.07418884	-18.57529836	-39.70025982
6.19	619	-0.572	-0.285	-1.648	-55.1758554	-37.9298196	102.5021862	31.29496596	-19.43473536	-39.00125106
6.2	620	-1.155	-0.431	-1.886	-57.2958	-26.1268848	82.4486562	30.5100135	-20.08790748	-38.40537474
6.21	621	-1.286	-0.532	-1.872	-61.0773228	-2.4064236	62.2232388	29.70214272	-20.4259527	-37.84960548
6.22	622	-1.173	-0.453	-2.005	-65.030733	20.912967	43.831287	28.85416488	-20.47178934	-37.3282137
6.23	623	-1.008	-0.403	-2.151	-69.7862844	49.9619376	32.8304934	27.94316166	-20.21395824	-36.76098528
6.24	624	-0.807	-0.44	-2.221	-88.9803774	84.511305	29.507337	26.7857865	-19.62954108	-36.05051736
6.25	625	-0.727	-0.405	-2.174	-118.888785	125.5923936	34.4920716	25.25598864	-18.69561954	-35.11659582
6.26	626	-0.989	-0.312	-2.401	-125.8215768	138.5985402	66.1193532	23.56576254	-17.75596842	-33.85035864
6.27	627	-1.45	0.027	-2.434	-119.9774052	97.4601558	103.0178484	21.9156435	-17.29187244	-32.44088196
6.28	628	-0.954	-0.199	-2.063	-123.2432658	40.9092012	100.2103542	20.32282026	-17.29760202	-31.30069554
6.29	629	-0.42	-0.489	-1.944	-118.6596018	15.5844576	87.7771656	18.83885904	-17.46375984	-30.37823316
6.3	630	-0.216	-0.59	-1.794	-98.3768886	7.1046792	75.8023434	17.60699934	-17.64137682	-29.59901028
6.31	631	-0.377	-0.32	-1.576	-60.9054354	-16.6730778	69.5571012	16.79339898	-18.01379952	-28.95729732
6.32	632	-0.457	-0.21	-1.482	-45.3209778	-26.0122932	48.0138804	16.2147114	-18.40341096	-28.55622672
6.33	633	-0.612	0.072	-1.364	-49.1597964	-26.7571386	27.1582092	15.65894214	-18.7357266	-28.36715058
6.34	634	-0.772	0.367	-1.204	-40.2216516	-30.4813656	21.772404	15.2120349	-19.08523098	-28.23537024
6.35	635	-0.667	0.6	-0.979	-27.215505	-36.2682414	25.6112226	14.82815304	-19.52640864	-28.06348284
6.36	636	-0.54	0.661	-0.841	-23.6631654	-28.1322378	28.0176462	14.5244853	-19.86445386	-27.85721796
6.37	637	-0.548	0.622	-0.919	-17.3606274	-12.9488508	25.7258142	14.27238378	-20.05353	-27.62803476
6.38	638	-0.583	0.56	-0.986	-13.750992	0	21.6578124	14.05465974	-20.1108258	-27.41031072
6.39	639	-0.529	0.478	-1.01	-15.0114996	11.6310474	18.7357266	13.82547654	-20.04780042	-27.18112752
6.4	640	-0.52	0.294	-1.003	-6.4744254	19.4232762	20.1681216	13.59056376	-19.94466798	-26.88891894
6.41	641	-0.508	0.114	-0.916	5.6149884	22.631841	23.3766864	13.53899754	-19.78423974	-26.5852512
6.42	642	-0.437	0.043	-0.885	10.1413566	18.907614	23.3193906	13.54472712	-19.65818898	-26.2987722
6.43	643	-0.35	0.068	-0.817	15.8136408	16.7876694	21.485925	13.61348208	-19.54359738	-26.02948194
6.44	644	-0.29	0.139	-0.773	19.2513888	17.475219	20.1108258	13.7223441	-19.4232762	-25.77738042
6.45	645	-0.27	0.215	-0.812	20.7983754	17.761698	19.9962342	13.76245116	-19.30295502	-25.496631
6.46	646	-0.263	0.269	-0.89	24.1788276	16.3865988	20.8556712	13.91714982	-19.194093	-25.2387999
6.47	647	-0.285	0.272	-0.922	27.6165756	14.4385416	21.3713334	14.11195554	-19.10241972	-24.9809688
6.48	648	-0.31	0.248	-0.913	27.215505	12.2040054	18.907614	14.31249084	-19.03366476	-24.7517856
6.49	649	-0.298	0.201	-0.902	26.4133638	8.880849	14.2093584	14.53021488	-18.97636896	-24.58562778
6.5	650	-0.328	0.177	-0.904	23.777757	7.1046792	10.0840608	14.60469942	-18.94199148	-24.41946996
6.51	651	-0.307	0.19	-0.905	20.912967	4.3544808	6.6463128	14.78804598	-18.91334358	-24.33925584
6.52	652	-0.331	0.206	-0.934	19.6524594	5.6149884	3.4950438	14.97139254	-18.86750694	-24.28768962
6.53	653	-0.365	0.203	-0.918	18.1054728	8.307891	0.4583664	15.14327994	-18.78729282	-24.25904172
6.54	654	-0.404	0.17	-0.951	16.1001198	11.9748222	-2.5210152	15.30370818	-18.66697164	-24.24758256
6.55	655	-0.406	0.118	-0.98	16.4438946	14.7823164	-5.5003968	15.37819272	-18.52946172	-24.22466424
6.56	656	-0.401	0.06	-0.981	16.1574156	16.3865988	-8.1360036	15.55008012	-18.35184474	-24.25904172
6.57	657	-0.395	0.016	-0.992	13.8655836	19.5378678	-10.0840608	15.70477878	-18.13985028	-24.29914878
6.58	658	-0.367	-0.016	-1.009	12.4331886	23.204799	-11.2299768	15.83655912	-17.88774876	-24.34498542
6.59	659	-0.347	-0.044	-1.007	11.8029348	27.1582092	-12.2040054	15.96833946	-17.59554018	-24.3793629
6.6	660	-0.352	-0.056	-0.991	10.4278356	31.4553942	-13.4072172	16.03136484	-17.26895412	-24.40228122
6.61	661	-0.373	-0.047	-0.969	7.0473834	35.0077338	-14.4385416	16.11157896	-16.902261	-24.4366587
6.62	662	-0.391	-0.048	-0.95	5.0993262	39.4768062	-16.6730778	16.16887476	-16.47827208	-24.47676576
6.63	663	-0.394	-0.068	-0.932	5.8441716	43.544808	-19.767051	16.23762972	-16.0141761	-24.53979114
6.64	664	-0.368	-0.1	-0.909	6.4171296	48.0711762	-23.2620948	16.31784384	-15.4985139	-24.62000526
6.65	665	-0.284	-0.158	-0.88	5.72958	54.7747848	-28.0176462	16.3865988	-14.90263758	-24.71740812
6.66	666	-0.267	-0.208	-0.868	4.1252976	59.7595194	-30.5386614	16.44962418	-14.25519504	-24.83199972
6.67	667	-0.224	-0.249	-0.866	3.8388186	59.7595194	-31.2835068	16.50691998	-13.60202292	-24.94659132
6.68	668	-0.185	-0.299	-0.878	3.3804522	57.9260538	-30.653253	16.5584862	-12.97176912	-25.0669125
6.69	669	-0.142	-0.356	-0.916	0.286479	52.425657	-27.8457588	16.58140452	-12.39881112	-25.17004494
6.7	670	-0.111	-0.421	-0.968	-2.9220858	44.9199072	-22.4599536	16.57567494	-11.90033766	-25.25025906
6.71	671	-0.105	-0.484	-0.994	-4.1825934	36.6120162	-15.1260912	16.53556788	-11.51072622	-25.28463654
6.72	672	-0.08	-0.519	-0.994	-4.6409598	25.5539268	-7.7922288	16.48400166	-11.24716554	-25.27890696
6.73	673	-0.082	-0.498	-0.996	-8.1932994	12.605076	-0.8021412	16.39232838	-11.12684436	-25.25025906
6.74	674	-0.1	-0.451	-0.999	-11.45916	4.5263682	2.1199446	16.26627762	-11.09246688	-25.210152
6.75	675	-0.137	-0.389	-0.994	-13.1207382	-2.2345362	1.7761698	16.1574156	-11.09819646	-25.210152
6.76	676	-0.169	-0.329	-0.963	-12.318597	-6.5317212	-1.2032118	16.042824	-11.15549226	-25.2387999
6.77	677	-0.18	-0.28	-0.918	-11.9748222	-8.7089616	-6.1879464	15.93969156	-11.22424722	-25.3247436
6.78	678	-0.182	-0.24	-0.897	-13.4072172	-8.307891	-10.8289062	15.82509996	-11.27581344	-25.45652394
6.79	679	-0.157	-0.201	-0.906	-13.750992	-5.6722842	-13.6936962	15.71623794	-11.29300218	-25.60549302
6.8	680	-0.158	-0.179	-0.913	-13.6936962	-2.5210152	-14.5531332	15.57299844	-11.27008386	-25.74873252
6.81	681	-0.169	-0.168	-0.922	-13.9801752	3.0939732	-13.5791046	15.45267726	-11.20705848	-25.8690537
6.82	682	-0.177	-0.165	-0.938	-13.8655836	7.161975	-11.8602306	15.3266265	-11.10965562	-25.96072698
6.83	683	-0.184	-0.159	-0.956	-12.2613012	12.1467096	-9.9121734	15.2120349	-10.96641612	-26.02375236
6.84	684	-0.178	-0.149	-0.956	-8.7662574	16.2147114	-8.1360036	15.1260912	-10.79452872	-26.05812984
6.85	685	-0.163	-0.139	-0.958	-5.6722842	19.194093	-6.9900876	15.01722918	-10.59399342	-26.05812984
6.86	686	-0.149	-0.122	-0.941	-2.291832	21.7151082	-6.6463128	14.99431086	-10.3705398	-26.06385942
6.87	687	-0.135	-0.109	-0.932	-0.572958	22.8610242	-6.7036086	14.9828517	-10.13562702	-26.06385942
6.88	688	-0.111	-0.092	-0.942	-0.286479	23.777757	-6.589017	14.97712212	-9.88925508	-26.05812984
6.89	689	-0.086	-0.074	-0.965	-0.6875496	24.5798982	-6.0733548	14.96566296	-9.64288314	-26.04667068
6.9	690	-0.064	-0.067	-0.999	-1.3750992	25.7258142	-4.9847346	14.8682601	-9.35640414	-26.00656362
6.91	691	-0.054	-0.075	-1.03	-2.9220858	27.4446882	-4.4690724	14.82815304	-9.0813843	-25.97218614
6.92	692	-0.054	-0.097	-1.048	-3.3804522	28.2468294	-4.6982556	14.78804598	-8.80063488	-25.93780866
6.93	693	-0.071	-0.133	-1.057	-2.9220858	27.6165756	-5.3858052	14.74793892	-8.52561504	-25.91489034
6.94	694	-0.095	-0.175	-1.059	-1.5469866	25.7258142	-6.0733548	14.7250206	-8.26778394	-25.90343118
6.95	695	-0.102	-0.209	-1.063	0.5156622	21.199446	-5.72958	14.70210228	-8.03287116	-25.89197202
6.96	696	-0.099	-0.229	-1.074	2.1199446	15.0114996	-3.151269	14.71929102	-7.88390208	-25.88051286
6.97	697	-0.097	-0.224	-1.062	2.86479	7.6203414	0.4010706	14.74793892	-7.81514712	-25.85759454
6.98	698	-0.1	-0.2	-1.046	3.4950438	2.1199446	4.3544808	14.77658682	-7.80368796	-25.8117579
6.99	699	-0.095	-0.163	-1.033	4.6409598	-4.6982556	8.307891	14.81669388	-7.86671334	-25.74300294
7	700	-0.097	-0.132	-0.987	6.7036086	-13.0061466	11.45916	14.82815304	-8.00995284	-25.66278882
7.01	701	-0.087	-0.11	-0.935	8.021412	-20.8556712	13.0061466	14.90263758	-8.23913604	-25.59403386
7.02	702	-0.071	-0.093	-0.916	7.2192708	-25.2674478	13.1207382	14.97139254	-8.51415588	-25.53673806
7.03	703	-0.039	-0.083	-0.91	6.1306506	-25.8977016	11.6883432	15.02868834	-8.78917572	-25.50236058
7.04	704	-0.041	-0.084	-0.905	4.7555514	-25.78311	9.5111028	15.08025456	-9.05846598	-25.47944226
7.05	705	-0.051	-0.091	-0.921	2.8074942	-23.491278	6.9327918	15.05160666	-9.26473086	-25.47371268
7.06	706	-0.061	-0.106	-0.908	2.0626488	-23.9496444	4.4690724	15.08025456	-9.50537322	-25.496631
7.07	707	-0.06	-0.136	-0.906	1.8907614	-23.7204612	2.3491278	15.11463204	-9.73455642	-25.54246764
7.08	708	-0.042	-0.176	-0.915	1.145916	-23.6058696	0.8021412	15.13755036	-9.96373962	-25.60549302
7.09	709	-0.016	-0.217	-0.927	0.0572958	-22.8610242	-0.2291832	15.1547391	-10.17573408	-25.6685184
7.1	710	-0.002	-0.247	-0.947	-1.3750992	-21.8296998	-1.2032118	15.14327994	-10.30751442	-25.74873252
7.11	711	-0.004	-0.253	-0.957	-3.0366774	-19.3659804	-2.7501984	15.13182078	-10.47940182	-25.82894664
7.12	712	-0.021	-0.235	-0.958	-3.8388186	-16.7876694	-5.3858052	15.10890246	-10.6283709	-25.93207908
7.13	713	-0.032	-0.212	-0.941	-4.297185	-14.8396122	-8.1360036	15.09171372	-10.74869208	-26.05240026
7.14	714	-0.043	-0.201	-0.936	-5.7868758	-14.3812458	-10.1986524	15.05733624	-10.8575541	-26.19563976
7.15	715	-0.063	-0.191	-0.96	-7.6776372	-13.178034	-11.2872726	14.9828517	-10.9148499	-26.33887926
7.16	716	-0.086	-0.195	-0.969	-9.0527364	-11.5164558	-11.9748222	14.91982632	-10.99506402	-26.48784834
7.17	717	-0.122	-0.192	-0.956	-10.0840608	-10.0840608	-12.2613012	14.84534178	-11.0580894	-26.63681742
7.18	718	-0.162	-0.191	-0.962	-10.0840608	-7.2192708	-12.032118	14.77085724	-11.09819646	-26.77432734
7.19	719	-0.209	-0.192	-0.977	-11.45916	-5.5003968	-11.6883432	14.67918396	-11.12111478	-26.90610768
7.2	720	-0.252	-0.179	-0.984	-12.605076	-4.3544808	-11.4018642	14.53594446	-11.16695142	-27.0149697
7.21	721	-0.276	-0.176	-0.976	-12.4904844	-3.0366774	-11.0007936	14.43281202	-11.172681	-27.13529088
7.22	722	-0.276	-0.169	-0.966	-12.5477802	-1.718874	-11.0580894	14.32967958	-11.16122184	-27.2441529
7.23	723	-0.265	-0.163	-0.971	-11.1153852	-0.9740286	-11.2299768	14.2380063	-11.1440331	-27.3587445
7.24	724	-0.257	-0.161	-0.967	-9.5111028	-0.3437748	-11.0007936	14.15779218	-11.12111478	-27.46760652
7.25	725	-0.252	-0.157	-0.958	-8.4797784	0.3437748	-10.4278356	14.03174142	-11.13257394	-27.55355022
7.26	726	-0.246	-0.153	-0.963	-7.5057498	1.0886202	-9.9121734	13.97444562	-11.09819646	-27.65095308
7.27	727	-0.238	-0.15	-0.968	-6.6463128	1.0886202	-9.3965112	13.9228794	-11.06381898	-27.73689678
7.28	728	-0.234	-0.147	-0.976	-5.2139178	0.9740286	-8.5370742	13.88277234	-11.03517108	-27.8171109
7.29	729	-0.229	-0.141	-0.976	-3.5523396	-0.2291832	-7.3911582	13.85985402	-11.01798234	-27.89159544
7.3	730	-0.229	-0.137	-0.972	-1.9480572	-2.0626488	-6.0733548	13.71661452	-11.06954856	-27.92597292
7.31	731	-0.227	-0.132	-0.979	-0.0572958	-4.2398892	-4.5263682	13.72807368	-11.09819646	-27.98326872
7.32	732	-0.234	-0.128	-0.975	1.3750992	-6.8182002	-2.6929026	13.750992	-11.15549226	-28.02910536
7.33	733	-0.25	-0.128	-0.963	2.3491278	-9.0527364	-0.7448454	13.7796399	-11.24143596	-28.05775326
7.34	734	-0.275	-0.136	-0.952	1.9480572	-10.0840608	1.0313244	13.8082878	-11.33883882	-28.074942
7.35	735	-0.302	-0.139	-0.959	2.1772404	-10.026765	2.6356068	13.750992	-11.52791496	-28.05775326
7.36	736	-0.323	-0.14	-0.958	3.3231564	-9.1100322	4.1252976	13.78536948	-11.61958824	-28.04056452
7.37	737	-0.344	-0.135	-0.95	4.2398892	-7.448454	5.5003968	13.81974696	-11.70553194	-28.00618704
7.38	738	-0.35	-0.124	-0.948	4.870143	-5.2139178	6.016059	13.8655836	-11.76855732	-27.9603504
7.39	739	-0.346	-0.118	-0.948	5.2712136	-3.3804522	6.016059	13.90569066	-11.81439396	-27.90878418
7.4	740	-0.33	-0.115	-0.943	5.8441716	-0.3437748	5.3285094	13.83120612	-11.9461743	-27.82857006
7.41	741	-0.297	-0.118	-0.943	6.2452422	2.6929026	4.3544808	13.88277234	-11.92898556	-27.77700384
7.42	742	-0.261	-0.118	-0.945	6.6463128	5.2139178	3.6669312	13.94006814	-11.88314892	-27.72543762
7.43	743	-0.226	-0.123	-0.939	6.7609044	6.6463128	3.2085648	13.99736394	-11.82585312	-27.67960098
7.44	744	-0.203	-0.124	-0.931	6.5317212	7.6203414	2.9793816	14.05465974	-11.76282774	-27.62803476
7.45	745	-0.175	-0.125	-0.936	6.7036086	8.307891	2.9793816	14.037471	-11.67688404	-27.5592798
7.46	746	-0.158	-0.13	-0.943	6.9327918	8.1932994	3.0939732	14.0947668	-11.60812908	-27.50771358
7.47	747	-0.152	-0.137	-0.942	6.5317212	7.5630456	3.2658606	14.14633302	-11.53937412	-27.45041778
7.48	748	-0.144	-0.143	-0.946	5.3858052	6.875496	3.0939732	14.19216966	-11.48207832	-27.40458114
7.49	749	-0.137	-0.15	-0.963	4.297185	6.1306506	2.7501984	14.22654714	-11.4305121	-27.3587445
7.5	750	-0.134	-0.162	-0.968	4.010706	5.2712136	2.0626488	14.15779218	-11.32737966	-27.30717828
7.51	751	-0.131	-0.176	-0.974	3.9534102	4.4117766	0.9740286	14.19789924	-11.2872726	-27.28425996
7.52	752	-0.131	-0.187	-0.977	4.010706	3.6669312	0.1718874	14.23227672	-11.24716554	-27.2728008
7.53	753	-0.134	-0.197	-0.981	4.297185	3.151269	-0.4010706	14.27811336	-11.21851764	-27.26707122
7.54	754	-0.139	-0.201	-0.98	4.1252976	2.6356068	-0.572958	14.31822042	-11.18986974	-27.26707122
7.55	755	-0.141	-0.2	-0.973	3.6669312	2.6356068	-0.4010706	14.24373588	-11.0867373	-27.2441529
7.56	756	-0.135	-0.192	-0.969	3.0939732	3.3804522	-0.1718874	14.27238378	-11.05235982	-27.23269374
7.57	757	-0.13	-0.185	-0.964	2.1772404	4.010706	0	14.28957252	-11.01225276	-27.22123458
7.58	758	-0.129	-0.176	-0.956	1.6042824	4.7555514	0	14.30676126	-10.96641612	-27.20977542
7.59	759	-0.122	-0.168	-0.966	1.0313244	5.9014674	0	14.31249084	-10.90912032	-27.19258668
7.6	760	-0.12	-0.16	-0.974	0.859437	6.7609044	-0.1718874	14.16925134	-10.76588082	-27.14675004
7.61	761	-0.125	-0.16	-0.964	0.7448454	7.0473834	-0.4583664	14.16925134	-10.69712586	-27.13529088
7.62	762	-0.127	-0.162	-0.958	0.1718874	7.3911582	-0.8021412	14.16925134	-10.62264132	-27.11810214
7.63	763	-0.126	-0.174	-0.95	-0.4583664	7.9068204	-1.0886202	14.16352176	-10.5424272	-27.11237256
7.64	764	-0.134	-0.18	-0.951	-1.0886202	8.9381448	-0.9740286	14.14633302	-10.4564835	-27.09518382
7.65	765	-0.142	-0.182	-0.961	-0.8021412	9.9694692	-0.572958	14.04893016	-10.33616232	-27.06080634
7.66	766	-0.153	-0.177	-0.964	-0.5156622	10.599723	0.0572958	14.037471	-10.23302988	-27.02642886
7.67	767	-0.163	-0.167	-0.967	0	10.599723	0.7448454	14.03174142	-10.13562702	-26.99205138
7.68	768	-0.169	-0.159	-0.976	0.9167328	9.7975818	1.2605076	14.03174142	-10.04395374	-26.95194432
7.69	769	-0.186	-0.155	-0.976	1.718874	8.307891	1.6615782	14.04320058	-9.9694692	-26.91756684
7.7	770	-0.192	-0.154	-0.974	1.8907614	7.2192708	1.9480572	13.9515273	-9.92936214	-26.85454146
7.71	771	-0.193	-0.155	-0.97	1.6042824	6.4171296	2.1772404	13.95725688	-9.87206634	-26.8144344
7.72	772	-0.196	-0.152	-0.967	1.7761698	5.2712136	2.578311	13.96871604	-9.8262297	-26.77432734
7.73	773	-0.197	-0.149	-0.966	2.291832	4.3544808	3.0939732	13.98590478	-9.79185222	-26.73422028
7.74	774	-0.198	-0.151	-0.962	2.6929026	3.2085648	3.437748	14.00309352	-9.7689339	-26.69411322
7.75	775	-0.199	-0.151	-0.96	2.6929026	1.8334656	3.4950438	13.87704276	-9.81477054	-26.62535826
7.76	776	-0.199	-0.153	-0.962	2.86479	0.8021412	3.437748	13.89996108	-9.81477054	-26.59098078
7.77	777	-0.193	-0.156	-0.96	3.0366774	-0.1145916	3.2085648	13.92860898	-9.82050012	-26.5566033
7.78	778	-0.188	-0.158	-0.96	3.0939732	-0.859437	2.8074942	13.95725688	-9.83768886	-26.53368498
7.79	779	-0.183	-0.159	-0.961	3.151269	-1.2032118	2.4064236	13.98590478	-9.8548776	-26.51076666
7.8	780	-0.177	-0.163	-0.958	3.2085648	-1.3178034	1.8907614	13.85412444	-9.88925508	-26.46493002
7.81	781	-0.167	-0.168	-0.968	2.8074942	-1.6042824	1.2032118	13.88277234	-9.9121734	-26.45920044
7.82	782	-0.157	-0.172	-0.971	2.4064236	-2.3491278	0.572958	13.90569066	-9.93509172	-26.45920044
7.83	783	-0.144	-0.172	-0.97	2.4064236	-2.3491278	0.1145916	13.93433856	-9.95801004	-26.46493002
7.84	784	-0.134	-0.172	-0.973	2.7501984	-2.4064236	-0.1145916	13.96298646	-9.98092836	-26.4706596
7.85	785	-0.13	-0.171	-0.98	2.86479	-2.6929026	-0.1718874	13.8369357	-9.9408213	-26.45347086
7.86	786	-0.129	-0.169	-0.982	2.6929026	-3.3804522	-0.3437748	13.8655836	-9.9694692	-26.46493002
7.87	787	-0.13	-0.17	-0.975	2.4637194	-4.1825934	-0.4583664	13.8942315	-10.00957626	-26.48211876
7.88	788	-0.127	-0.171	-0.978	1.8334656	-4.7555514	-0.6302538	13.91714982	-10.0554129	-26.4993075
7.89	789	-0.124	-0.169	-0.978	1.432395	-5.5003968	-0.7448454	13.94006814	-10.10124954	-26.52222582
7.9	790	-0.123	-0.166	-0.98	1.432395	-6.302538	-0.859437	13.84839486	-10.10697912	-26.5279554
7.91	791	-0.125	-0.168	-0.978	1.3750992	-7.161975	-1.0886202	13.87131318	-10.17573408	-26.5566033
7.92	792	-0.124	-0.173	-0.977	1.432395	-7.6203414	-1.4896908	13.88850192	-10.24448904	-26.59671036
7.93	793	-0.122	-0.177	-0.979	1.4896908	-8.0787078	-1.6615782	13.91142024	-10.313244	-26.63108784
7.94	794	-0.124	-0.181	-0.968	1.6042824	-8.4224826	-1.6615782	13.94006814	-10.39345812	-26.6711949
7.95	795	-0.129	-0.18	-0.964	1.432395	-8.021412	-1.6615782	13.88277234	-10.42210602	-26.69411322
7.96	796	-0.132	-0.177	-0.96	1.2605076	-7.3911582	-1.432395	13.90569066	-10.49086098	-26.7284907
7.97	797	-0.135	-0.17	-0.956	1.0886202	-7.1046792	-1.2605076	13.9228794	-10.55388636	-26.76286818
7.98	798	-0.142	-0.164	-0.949	0.7448454	-6.2452422	-1.145916	13.93433856	-10.61118216	-26.79151608
7.99	799	-0.146	-0.167	-0.949	0.4583664	-5.5576926	-0.9167328	13.94579772	-10.66274838	-26.8144344
8	800	-0.15	-0.169	-0.953	0.1145916	-4.8128472	-0.7448454	13.79682864	-10.66274838	-26.80297524
8.01	801	-0.157	-0.174	-0.952	0.1718874	-4.583664	-0.4583664	13.80255822	-10.70285544	-26.82016398
8.02	802	-0.167	-0.179	-0.946	-0.2291832	-4.0680018	-0.2291832	13.80255822	-10.7429625	-26.83162314
8.03	803	-0.173	-0.179	-0.947	-0.572958	-3.6096354	-0.0572958	13.79682864	-10.77733998	-26.8430823
8.04	804	-0.182	-0.179	-0.947	-0.6302538	-3.0939732	0.0572958	13.79109906	-10.80598788	-26.85454146
8.05	805	-0.198	-0.178	-0.944	-0.7448454	-2.6356068	0.4010706	13.58483418	-10.89766116	-26.8144344
8.06	806	-0.206	-0.176	-0.945	-0.7448454	-2.2345362	0.5156622	13.57337502	-10.92057948	-26.8144344
8.07	807	-0.216	-0.174	-0.947	-0.6302538	-2.1772404	0.4583664	13.56764544	-10.9434978	-26.8144344
8.08	808	-0.221	-0.172	-0.951	-0.1718874	-2.0626488	0.4010706	13.56764544	-10.96641612	-26.8144344
8.09	809	-0.224	-0.173	-0.956	0	-1.8334656	0.3437748	13.56764544	-10.98360486	-26.8144344
8.1	810	-0.227	-0.175	-0.957	0.2291832	-1.9480572	0.4583664	13.30981434	-11.16122184	-26.7571386
8.11	811	-0.229	-0.178	-0.956	0.2291832	-2.0626488	0.6302538	13.30981434	-11.17841058	-26.7571386
8.12	812	-0.229	-0.182	-0.954	0.4010706	-1.8334656	0.6875496	13.31554392	-11.2013289	-26.7571386
8.13	813	-0.229	-0.185	-0.946	0.4583664	-1.432395	0.7448454	13.3212735	-11.21278806	-26.75140902
8.14	814	-0.226	-0.188	-0.949	0.5156622	-0.9167328	0.8021412	13.3212735	-11.22424722	-26.74567944
8.15	815	-0.23	-0.185	-0.946	0.286479	-0.9740286	0.9167328	13.05198324	-11.43624168	-26.67692448
8.16	816	-0.229	-0.183	-0.943	0.0572958	-0.6875496	1.145916	13.05198324	-11.44770084	-26.6711949
8.17	817	-0.224	-0.182	-0.944	-0.286479	0	1.145916	13.04625366	-11.44770084	-26.65973574
8.18	818	-0.22	-0.179	-0.949	-0.2291832	0.572958	1.145916	13.04052408	-11.44770084	-26.64827658
8.19	819	-0.217	-0.178	-0.949	-0.2291832	1.145916	1.0886202	13.0347945	-11.43624168	-26.63108784
8.2	820	-0.212	-0.176	-0.956	-0.0572958	1.3750992	1.0313244	12.77123382	-11.50499664	-26.5566033
8.21	821	-0.207	-0.176	-0.956	0.1718874	1.0313244	0.8021412	12.77123382	-11.49926706	-26.55087372
8.22	822	-0.198	-0.176	-0.954	0.3437748	0.8021412	0.7448454	12.77123382	-11.49353748	-26.53941456
8.23	823	-0.187	-0.174	-0.955	0.2291832	1.3750992	0.5156622	12.77123382	-11.48207832	-26.5279554
8.24	824	-0.181	-0.173	-0.959	0.3437748	1.3178034	0.3437748	12.7769634	-11.47061916	-26.52222582
8.25	825	-0.182	-0.171	-0.959	0.6302538	1.0886202	0.1718874	12.4904844	-11.41332336	-26.45347086
8.26	826	-0.179	-0.17	-0.956	0.5156622	1.432395	0	12.49621398	-11.4018642	-26.45347086
8.27	827	-0.18	-0.17	-0.956	0.1145916	1.6615782	0	12.49621398	-11.38467546	-26.44774128
8.28	828	-0.18	-0.168	-0.957	0	1.6615782	-0.0572958	12.49621398	-11.36748672	-26.4420117
8.29	829	-0.176	-0.165	-0.96	-0.1145916	1.8334656	0	12.49621398	-11.35029798	-26.4420117
8.3	830	-0.175	-0.163	-0.964	-0.286479	2.1772404	-0.0572958	12.27276036	-11.28154302	-26.39044548
8.31	831	-0.175	-0.165	-0.963	-0.286479	2.8074942	-0.2291832	12.26703078	-11.25289512	-26.3847159
8.32	832	-0.172	-0.171	-0.963	-0.2291832	3.2085648	-0.4010706	12.26703078	-11.21851764	-26.37898632
8.33	833	-0.169	-0.174	-0.961	-0.286479	3.2085648	-0.572958	12.2613012	-11.18986974	-26.37898632
8.34	834	-0.164	-0.176	-0.958	-0.3437748	3.3231564	-0.572958	12.25557162	-11.15549226	-26.37325674
8.35	835	-0.161	-0.173	-0.959	-0.3437748	3.3804522	-0.4583664	12.12379128	-11.06381898	-26.34460884
8.36	836	-0.155	-0.169	-0.962	-0.0572958	3.0939732	-0.3437748	12.12379128	-11.0294415	-26.33887926
8.37	837	-0.153	-0.166	-0.96	0.1718874	2.7501984	-0.1718874	12.12379128	-11.00652318	-26.33887926
8.38	838	-0.153	-0.161	-0.96	0	2.4637194	-0.0572958	12.12379128	-10.97787528	-26.33314968
8.39	839	-0.154	-0.162	-0.959	-0.1718874	2.1772404	-0.1145916	12.1180617	-10.96068654	-26.3274201
8.4	840	-0.166	-0.164	-0.956	-0.4010706	2.291832	-0.3437748	11.95763346	-10.89193158	-26.29304262
8.41	841	-0.168	-0.166	-0.96	-0.572958	2.6356068	-0.286479	11.9461743	-10.86328368	-26.28731304
8.42	842	-0.172	-0.167	-0.959	-0.4010706	2.7501984	-0.4010706	11.9461743	-10.83463578	-26.28731304
8.43	843	-0.174	-0.171	-0.959	-0.3437748	2.7501984	-0.4583664	11.94044472	-10.80598788	-26.28158346
8.44	844	-0.172	-0.173	-0.959	-0.6875496	2.5210152	-0.5156622	11.92898556	-10.78306956	-26.28158346
8.45	845	-0.169	-0.175	-0.965	-0.6875496	2.0626488	-0.572958	11.79147564	-10.73150334	-26.25866514
8.46	846	-0.171	-0.175	-0.962	-0.5156622	1.8334656	-0.5156622	11.78574606	-10.70858502	-26.25866514
8.47	847	-0.172	-0.176	-0.961	-0.4583664	2.005353	-0.572958	11.78001648	-10.69139628	-26.25866514
8.48	848	-0.173	-0.173	-0.953	-0.286479	1.6615782	-0.6302538	11.78001648	-10.67420754	-26.26439472
8.49	849	-0.171	-0.173	-0.955	-0.286479	1.6042824	-0.6302538	11.7742869	-10.6570188	-26.26439472
8.5	850	-0.165	-0.173	-0.955	-0.4583664	1.4896908	-0.572958	11.6310474	-10.58826384	-26.23574682
8.51	851	-0.17	-0.172	-0.949	-0.286479	1.0886202	-0.572958	11.6310474	-10.57680468	-26.2414764
8.52	852	-0.177	-0.174	-0.95	-0.6875496	1.0886202	-0.4583664	11.62531782	-10.56534552	-26.2414764
8.53	853	-0.175	-0.174	-0.952	-0.9740286	1.0886202	-0.572958	11.61385866	-10.55388636	-26.24720598
8.54	854	-0.17	-0.177	-0.955	-0.9167328	1.145916	-0.6875496	11.6023995	-10.5424272	-26.25293556
8.55	855	-0.166	-0.179	-0.958	-0.4583664	1.145916	-0.8021412	11.47061916	-10.49086098	-26.23001724
8.56	856	-0.165	-0.183	-0.966	-0.1145916	0.9740286	-0.859437	11.47061916	-10.47940182	-26.23574682
8.57	857	-0.166	-0.184	-0.973	0.1145916	0.5156622	-0.8021412	11.47634874	-10.47367224	-26.2414764
8.58	858	-0.165	-0.182	-0.973	0.572958	0	-0.572958	11.48207832	-10.47367224	-26.24720598
8.59	859	-0.166	-0.182	-0.968	0.9740286	-0.2291832	-0.4583664	11.49353748	-10.47367224	-26.25293556
8.6	860	-0.168	-0.178	-0.964	0.9740286	-0.4583664	-0.286479	11.32737966	-10.45075392	-26.22428766
8.61	861	-0.17	-0.174	-0.96	0.9740286	-0.4583664	-0.1145916	11.33883882	-10.45075392	-26.22428766
8.62	862	-0.175	-0.169	-0.954	0.8021412	-0.1718874	0	11.35029798	-10.4564835	-26.22428766
8.63	863	-0.174	-0.166	-0.953	0.7448454	-0.1718874	0.0572958	11.35602756	-10.4564835	-26.22428766
8.64	864	-0.169	-0.168	-0.95	0.4583664	-0.1718874	0	11.36175714	-10.4564835	-26.22428766
8.65	865	-0.165	-0.17	-0.949	0.4010706	0	0	10.9148499	-10.35908064	-26.13261438
8.66	866	-0.163	-0.172	-0.951	0.4583664	0.1145916	-0.0572958	10.9148499	-10.35908064	-26.13834396
8.67	867	-0.161	-0.174	-0.956	0.7448454	0.1718874	0	10.92630906	-10.35335106	-26.13261438
8.68	868	-0.161	-0.175	-0.957	0.8021412	0.1145916	0.1145916	10.93203864	-10.35335106	-26.13261438
8.69	869	-0.162	-0.175	-0.955	0.8021412	0.1145916	0.1145916	10.9434978	-10.35335106	-26.13261438
8.7	870	-0.162	-0.176	-0.96	0.6302538	0.1718874	0.1718874	10.7716104	-10.29605526	-26.09250732
8.71	871	-0.164	-0.176	-0.958	0.5156622	0.1145916	0.286479	10.7716104	-10.29605526	-26.09250732
8.72	872	-0.163	-0.174	-0.962	0.1145916	0.1718874	0.3437748	10.7716104	-10.29605526	-26.08677774
8.73	873	-0.163	-0.173	-0.961	0.286479	0.3437748	0.3437748	10.77733998	-10.29032568	-26.08104816
8.74	874	-0.168	-0.173	-0.962	0.1718874	0.572958	0.4010706	10.77733998	-10.2845961	-26.07531858
8.75	875	-0.175	-0.174	-0.962	0.1145916	0.6875496	0.4583664	10.60545258	-10.30178484	-26.03521152
8.76	876	-0.179	-0.175	-0.961	-0.1718874	0.8021412	0.286479	10.60545258	-10.29605526	-26.03521152
8.77	877	-0.181	-0.174	-0.96	-0.5156622	0.9740286	0.2291832	10.59399342	-10.2845961	-26.02948194
8.78	878	-0.18	-0.172	-0.96	-0.3437748	1.3178034	0.0572958	10.59399342	-10.27313694	-26.02375236
8.79	879	-0.183	-0.172	-0.958	-0.286479	1.3750992	0.0572958	10.58826384	-10.26167778	-26.01802278
8.8	880	-0.186	-0.17	-0.957	-0.0572958	1.6615782	0	10.49659056	-10.29605526	-26.00083404
8.81	881	-0.186	-0.171	-0.959	0.2291832	2.4637194	0	10.49659056	-10.26740736	-25.99510446
8.82	882	-0.184	-0.174	-0.962	0.6302538	2.9220858	0.0572958	10.50232014	-10.24448904	-25.98937488
8.83	883	-0.18	-0.177	-0.961	0.5156622	3.0939732	0	10.50804972	-10.21011156	-25.9836453
8.84	884	-0.177	-0.177	-0.961	0.286479	3.151269	0.0572958	10.50804972	-10.18146366	-25.97218614
8.85	885	-0.175	-0.178	-0.965	0.286479	3.2085648	0.1145916	10.46794266	-10.15281576	-25.96072698
8.86	886	-0.173	-0.178	-0.963	0.1145916	2.7501984	0.0572958	10.46794266	-10.12989744	-25.94926782
8.87	887	-0.169	-0.176	-0.958	0	2.6356068	0.1145916	10.46221308	-10.10124954	-25.94353824
8.88	888	-0.162	-0.173	-0.959	-0.1718874	2.8074942	0.1718874	10.46221308	-10.07833122	-25.93780866
8.89	889	-0.165	-0.17	-0.96	0.0572958	3.2085648	0.2291832	10.46221308	-10.04395374	-25.9263495
8.9	890	-0.171	-0.171	-0.962	0	3.3804522	0.2291832	10.41064686	-10.02103542	-25.90916076
8.91	891	-0.174	-0.171	-0.963	-0.4010706	3.437748	0	10.40491728	-9.98665794	-25.90343118
8.92	892	-0.173	-0.171	-0.961	-0.6875496	3.724227	-0.1718874	10.39345812	-9.95228046	-25.8977016
8.93	893	-0.172	-0.173	-0.958	-1.0313244	3.724227	-0.4583664	10.38199896	-9.9121734	-25.89197202
8.94	894	-0.169	-0.173	-0.957	-1.3178034	4.1825934	-0.6302538	10.3705398	-9.87206634	-25.89197202
8.95	895	-0.16	-0.172	-0.959	-1.3178034	4.583664	-0.7448454	10.33043274	-9.82050012	-25.88051286
8.96	896	-0.152	-0.173	-0.966	-1.0313244	4.9847346	-0.7448454	10.31897358	-9.7689339	-25.88051286
8.97	897	-0.146	-0.172	-0.982	-0.2291832	4.4690724	-0.572958	10.313244	-9.72309726	-25.87478328
8.98	898	-0.136	-0.173	-0.995	0.6875496	3.0939732	-0.4583664	10.31897358	-9.69444936	-25.87478328
8.99	899	-0.126	-0.173	-0.981	1.3750992	1.8907614	-0.4010706	10.33616232	-9.67153104	-25.87478328
9	900	-0.118	-0.171	-0.979	1.6042824	1.145916	-0.572958	10.29605526	-9.57412818	-25.86332412
9.01	901	-0.121	-0.168	-0.98	1.6042824	0.9740286	-0.6302538	10.313244	-9.56266902	-25.8690537
9.02	902	-0.127	-0.161	-0.964	1.5469866	0.9740286	-0.6302538	10.33043274	-9.55120986	-25.87478328
9.03	903	-0.134	-0.15	-0.963	1.3178034	1.0313244	-0.7448454	10.3418919	-9.5397507	-25.88051286
9.04	904	-0.139	-0.146	-0.955	1.3178034	1.6615782	-0.859437	10.35908064	-9.52256196	-25.88624244
9.05	905	-0.143	-0.147	-0.968	1.432395	2.4637194	-1.145916	10.313244	-9.47672532	-25.88051286
9.06	906	-0.142	-0.151	-0.962	1.4896908	2.8074942	-1.5469866	10.33043274	-9.44807742	-25.89197202
9.07	907	-0.139	-0.155	-0.963	0.9167328	3.6669312	-1.8907614	10.3418919	-9.40797036	-25.90343118
9.08	908	-0.144	-0.157	-0.972	0.8021412	4.9847346	-2.2345362	10.34762148	-9.35640414	-25.91489034
9.09	909	-0.146	-0.161	-0.978	1.2605076	5.5003968	-2.3491278	10.36481022	-9.29910834	-25.9263495
9.1	910	-0.149	-0.162	-0.971	1.8334656	5.7868758	-2.1772404	10.35908064	-9.23608296	-25.93207908
9.11	911	-0.151	-0.16	-0.968	2.3491278	7.734933	-2.291832	10.38199896	-9.15586884	-25.93780866
9.12	912	-0.137	-0.154	-0.964	2.9793816	10.7143146	-2.6929026	10.41637644	-9.04700682	-25.94353824
9.13	913	-0.125	-0.145	-0.963	3.8388186	13.5218088	-2.86479	10.45075392	-8.9094969	-25.94353824
9.14	914	-0.098	-0.133	-0.964	4.9274388	17.18874	-3.2085648	10.50232014	-8.7376095	-25.94353824
9.15	915	-0.102	-0.123	-0.966	5.9587632	20.626488	-3.6096354	10.5424272	-8.52561504	-25.93207908
9.16	916	-0.127	-0.118	-0.965	7.1046792	22.5745452	-4.0680018	10.60545258	-8.29643184	-25.9263495
9.17	917	-0.16	-0.131	-0.975	9.0527364	23.0902074	-4.2398892	10.69712586	-8.06724864	-25.92061992
9.18	918	-0.198	-0.157	-0.941	10.1986524	23.1475032	-3.3231564	10.79452872	-7.83233586	-25.90343118
9.19	919	-0.244	-0.177	-0.912	7.8495246	24.6944898	-2.291832	10.86901326	-7.5916935	-25.87478328
9.2	920	-0.274	-0.196	-0.918	7.2765666	25.8977016	-1.2605076	10.93203864	-7.36823988	-25.82894664
9.21	921	-0.271	-0.211	-0.903	6.875496	26.2987722	-1.145916	10.99506402	-7.11040878	-25.78311
9.22	922	-0.242	-0.223	-0.92	3.3231564	27.5592798	-1.432395	11.01798234	-6.84111852	-25.73727336
9.23	923	-0.214	-0.22	-0.948	1.4896908	27.8457588	-1.718874	11.02371192	-6.57182826	-25.6971663
9.24	924	-0.177	-0.23	-0.961	1.3750992	25.6685184	-1.718874	11.0294415	-6.31972674	-25.65705924
9.25	925	-0.129	-0.254	-0.966	1.145916	20.9702628	-1.0313244	11.05235982	-6.11919144	-25.62841134
9.26	926	-0.101	-0.276	-0.969	1.2032118	14.8396122	-0.2291832	11.06381898	-5.97022236	-25.59403386
