TimeStamp(s)	FrameCounter	AccX	AccY	AccZ	GyrX	GyrY	GyrZ	EulerX	EulerY	EulerZ
0.01	1	0.038	-1.019	0.101	-0.7448454	2.6929026	-2.2345362	102.9204455	-12.26703078	128.1592454
0.02	2	0.009	-1.013	0.062	-1.7761698	-1.432395	0.0572958	102.9032568	-12.2613012	128.1477863
0.03	3	0.008	-1.013	0.065	-2.4637194	-1.718874	0	102.8860681	-12.2613012	128.1305975
0.04	4	0.01	-1.01	0.067	-2.8074942	-1.8334656	-0.0572958	102.8574202	-12.25557162	128.1076792
0.05	5	0.01	-1.009	0.064	-2.4637194	-1.8907614	-0.1718874	102.341758	-11.78001648	128.2509187
0.06	6	0.01	-1.008	0.062	-1.8334656	-1.9480572	-0.2291832	102.3302988	-11.76855732	128.2280004
0.07	7	0.011	-1.006	0.06	-1.3178034	-1.9480572	-0.2291832	102.3188396	-11.76282774	128.2108117
0.08	8	0.011	-1.007	0.061	-0.9740286	-1.7761698	-0.2291832	102.3131101	-11.75709816	128.1936229
0.09	9	0.012	-1.005	0.06	-0.9167328	-1.6615782	-0.1718874	102.3073805	-11.75136858	128.1764342
0.1	10	0.012	-1.004	0.058	-0.6302538	-1.5469866	-0.2291832	101.3161631	-10.79452872	128.4629132
0.11	11	0.014	-1.006	0.055	-0.5156622	-1.3750992	-0.2291832	101.3161631	-10.78879914	128.451454
0.12	12	0.013	-1.007	0.056	-0.8021412	-1.432395	-0.286479	101.3104336	-10.78306956	128.4342653
0.13	13	0.011	-1.009	0.06	-1.6042824	-1.718874	-0.4010706	101.2932448	-10.7716104	128.4170765
0.14	14	0.01	-1.005	0.062	-2.2345362	-1.7761698	-0.4010706	101.2760561	-10.76588082	128.3998878
0.15	15	0.011	-1.003	0.063	-2.1772404	-1.5469866	-0.286479	100.8234193	-10.30178484	128.5087498
0.16	16	0.013	-1.005	0.059	-1.5469866	-1.3178034	-0.286479	100.8119601	-10.29605526	128.4915611
0.17	17	0.015	-1.006	0.054	-1.0313244	-1.2032118	-0.286479	100.8062305	-10.29032568	128.4801019
0.18	18	0.015	-1.006	0.056	-0.572958	-1.0313244	-0.286479	100.8005009	-10.2845961	128.4743723
0.19	19	0.014	-1.005	0.056	-0.1718874	-0.9167328	-0.1718874	100.8005009	-10.27886652	128.4629132
0.2	20	0.015	-1.005	0.056	0.0572958	-0.9740286	-0.1145916	99.51707502	-8.9094969	128.7894992
0.21	21	0.015	-1.007	0.058	0.1145916	-0.9167328	0	99.51707502	-8.90376732	128.7837697
0.22	22	0.015	-1.006	0.058	0	-0.7448454	-0.0572958	99.5228046	-8.90376732	128.7723105
0.23	23	0.014	-1.006	0.059	0.0572958	-0.572958	0	99.5228046	-8.89803774	128.7665809
0.24	24	0.014	-1.005	0.059	0.1718874	-0.5156622	0.0572958	99.52853418	-8.89803774	128.7608513
0.25	25	0.014	-1.007	0.06	0.1145916	-0.5156622	0	98.27948574	-7.43126526	129.0358712
0.26	26	0.015	-1.006	0.059	0.1718874	-0.6875496	0	98.28521532	-7.42553568	129.024412
0.27	27	0.016	-1.007	0.059	0.4583664	-0.9740286	0	98.2909449	-7.42553568	129.0186824
0.28	28	0.019	-1.008	0.06	0.4583664	-0.9740286	0	98.29667448	-7.42553568	129.0072233
0.29	29	0.019	-1.008	0.063	0.286479	-0.6875496	0.1718874	98.30240406	-7.42553568	129.0014937
0.3	30	0.018	-1.005	0.062	0.3437748	-0.4010706	0.3437748	97.53464034	-6.44004792	129.1390036
0.31	31	0.016	-1.005	0.061	0.572958	0	0.572958	97.54036992	-6.4457775	129.133274
0.32	32	0.012	-1.006	0.06	0.8021412	0.286479	0.6875496	97.55182908	-6.45723666	129.1390036
0.33	33	0.009	-1.003	0.058	1.0886202	0.4583664	0.8021412	97.56328824	-6.46296624	129.1390036
0.34	34	0.004	-1.002	0.058	1.5469866	0.7448454	0.8021412	97.5747474	-6.4744254	129.1504628
0.35	35	0.001	-1.001	0.06	1.6615782	0.9167328	0.6875496	97.3455642	-6.21086472	129.2077586
0.36	36	0.001	-1.004	0.058	1.9480572	1.2032118	0.5156622	97.36848252	-6.2165943	129.2192177
0.37	37	0.002	-1.005	0.054	2.1772404	1.2605076	0.4583664	97.38567126	-6.22232388	129.2306769
0.38	38	0.002	-1.007	0.055	2.3491278	1.145916	0.4010706	97.40858958	-6.22805346	129.2421361
0.39	39	0.003	-1.008	0.057	2.4064236	0.8021412	0.4010706	97.4315079	-6.23378304	129.2535952
0.4	40	0.002	-1.008	0.06	2.578311	0.7448454	0.286479	97.24816134	-6.016059	129.3051614
0.41	41	0.005	-1.008	0.062	2.9793816	0.8021412	0.286479	97.28253882	-6.016059	129.310891
0.42	42	0.006	-1.012	0.063	3.437748	0.6302538	0.1718874	97.3169163	-6.02178858	129.3166206
0.43	43	0.005	-1.011	0.057	3.7815228	0.2291832	0.0572958	97.35129378	-6.02178858	129.3223502
0.44	44	0.004	-1.008	0.057	4.6409598	-0.9167328	0.1145916	97.40286	-6.02178858	129.310891
0.45	45	0.001	-1.008	0.065	6.0733548	-2.1772404	0.0572958	97.38567126	-5.9301153	129.3051614
0.46	46	0	-1.01	0.07	7.5630456	-3.0366774	0	97.46588538	-5.92438572	129.2765135
0.47	47	0	-1.013	0.074	9.3392154	-3.7815228	-0.0572958	97.56901782	-5.91865614	129.2421361
0.48	48	0.002	-1.02	0.078	9.9694692	-4.0680018	-0.1145916	97.67215026	-5.90719698	129.202029
0.49	49	0.005	-1.02	0.081	10.0840608	-4.1252976	-0.0572958	97.78101228	-5.9014674	129.1619219
0.5	50	0.008	-1.017	0.082	9.5111028	-3.8961144	0	97.8325785	-5.82125328	129.133274
0.51	51	0.006	-1.01	0.087	8.5370742	-3.5523396	-0.1145916	97.92425178	-5.8155237	129.0988966
0.52	52	0	-1.004	0.09	7.5630456	-2.9793816	-0.2291832	98.0044659	-5.80979412	129.0702487
0.53	53	-0.004	-1.004	0.085	6.9327918	-2.4637194	-0.286479	98.07895044	-5.79833496	129.0473303
0.54	54	-0.006	-1.004	0.083	6.589017	-2.291832	-0.2291832	98.1477054	-5.79260538	129.024412
0.55	55	-0.007	-1.006	0.084	6.0733548	-2.1199446	-0.0572958	98.12478708	-5.69520252	129.024412
0.56	56	-0.008	-1.005	0.083	5.5003968	-2.005353	0.0572958	98.18208288	-5.68947294	129.0014937
0.57	57	-0.004	-1.008	0.078	5.0993262	-2.005353	0.4010706	98.2336491	-5.68947294	128.984305
0.58	58	0	-1.008	0.076	5.0420304	-2.2345362	0.859437	98.2909449	-5.69520252	128.9613866
0.59	59	0.001	-1.009	0.076	4.9847346	-2.5210152	1.3178034	98.34251112	-5.70666168	128.9327387
0.6	60	0	-1.01	0.08	4.4690724	-2.8074942	1.6042824	98.30813364	-5.62071798	128.9212796
0.61	61	-0.002	-1.008	0.083	4.0680018	-2.6356068	1.718874	98.35397028	-5.63217714	128.8926317
0.62	62	-0.004	-1.009	0.081	3.3804522	-2.6929026	1.8334656	98.38834776	-5.64936588	128.8639838
0.63	63	-0.005	-1.007	0.079	2.7501984	-3.2658606	2.005353	98.42272524	-5.66082504	128.8296063
0.64	64	-0.006	-1.005	0.078	2.4637194	-4.297185	2.1772404	98.45137314	-5.67801378	128.7837697
0.65	65	-0.007	-1.009	0.083	2.1199446	-5.3858052	2.4637194	98.4055365	-5.62071798	128.7436626
0.66	66	-0.008	-1.01	0.086	1.5469866	-6.4171296	2.7501984	98.42845482	-5.63217714	128.6806372
0.67	67	-0.011	-1.006	0.088	1.2032118	-7.2765666	2.9220858	98.45137314	-5.64936588	128.6004231
0.68	68	-0.014	-1.008	0.088	1.2605076	-7.9641162	3.0366774	98.47429146	-5.66655462	128.520209
0.69	69	-0.019	-1.009	0.091	0.9167328	-8.4224826	3.2658606	98.4914802	-5.68374336	128.4342653
0.7	70	-0.02	-1.007	0.089	0.8021412	-8.880849	3.3804522	98.45137314	-5.65509546	128.3540512
0.71	71	-0.021	-1.007	0.087	1.0313244	-9.7975818	3.6096354	98.47429146	-5.67801378	128.2509187
0.72	72	-0.022	-1.008	0.09	0.9167328	-10.8289062	3.8388186	98.49720978	-5.69520252	128.1420567
0.73	73	-0.025	-1.005	0.092	0.6302538	-11.6310474	3.8961144	98.5201281	-5.71239126	128.0217355
0.74	74	-0.029	-1.004	0.088	0.6875496	-12.6623718	3.8388186	98.54304642	-5.72958	127.8899552
0.75	75	-0.029	-1.006	0.093	1.2605076	-13.2353298	3.9534102	98.53158726	-5.71239126	127.7639044
0.76	76	-0.027	-1.007	0.097	1.7761698	-13.464513	4.1252976	98.56596474	-5.72958	127.6263945
0.77	77	-0.028	-1.006	0.102	2.291832	-13.6364004	4.4117766	98.6060718	-5.74676874	127.483155
0.78	78	-0.031	-1.001	0.098	2.578311	-14.0947668	4.7555514	98.64617886	-5.76968706	127.3399155
0.79	79	-0.034	-0.996	0.098	2.9220858	-14.32395	5.0420304	98.6920155	-5.79833496	127.1909464
0.8	80	-0.039	-0.994	0.095	3.0939732	-14.1520626	5.0993262	98.70920424	-5.79833496	127.0534365
0.81	81	-0.042	-0.991	0.094	3.4950438	-13.750992	5.2712136	98.76077046	-5.82698286	126.910197
0.82	82	-0.047	-0.991	0.092	3.7815228	-13.3499214	5.5003968	98.81806626	-5.85563076	126.7726871
0.83	83	-0.05	-0.991	0.094	3.7815228	-12.8342592	5.9014674	98.86963248	-5.89000824	126.6409067
0.84	84	-0.049	-0.989	0.095	3.7815228	-12.2613012	6.302538	98.92692828	-5.9301153	126.5091264
0.85	85	-0.045	-0.99	0.095	3.724227	-12.1467096	6.5317212	98.94411702	-5.95303362	126.3888052
0.86	86	-0.042	-0.99	0.097	3.6096354	-12.4904844	6.875496	98.99568324	-5.99887026	126.2570249
0.87	87	-0.041	-0.991	0.098	3.3804522	-13.0061466	7.2192708	99.04724946	-6.0447069	126.119515
0.88	88	-0.041	-0.993	0.101	3.0939732	-13.2926256	7.3911582	99.09881568	-6.09054354	125.9762755
0.89	89	-0.044	-0.993	0.1	2.6356068	-13.5791046	7.448454	99.13892274	-6.14210976	125.833036
0.9	90	-0.048	-0.993	0.101	2.4637194	-13.8655836	7.448454	99.1503819	-6.17075766	125.695526
0.91	91	-0.052	-0.995	0.105	2.005353	-13.8655836	7.3911582	99.19048896	-6.2165943	125.546557
0.92	92	-0.054	-0.994	0.102	1.6042824	-13.6936962	7.161975	99.22486644	-6.26243094	125.4033175
0.93	93	-0.054	-0.997	0.095	1.5469866	-13.2926256	7.161975	99.25924392	-6.302538	125.260078
0.94	94	-0.051	-0.999	0.094	1.718874	-13.2926256	7.1046792	99.2936214	-6.34837464	125.1168385
0.95	95	-0.049	-1	0.097	1.718874	-13.2926256	7.1046792	99.2936214	-6.37129296	124.9850581
0.96	96	-0.048	-0.998	0.099	1.6042824	-13.2926256	7.161975	99.32799888	-6.4171296	124.8418186
0.97	97	-0.045	-0.997	0.096	1.3750992	-13.3499214	7.3911582	99.35664678	-6.46296624	124.7043087
0.98	98	-0.043	-0.995	0.092	1.0886202	-13.464513	7.5057498	99.39102426	-6.51453246	124.5553396
0.99	99	-0.042	-0.995	0.092	0.5156622	-13.5791046	7.6203414	99.41394258	-6.5603691	124.4121001
1	100	-0.042	-0.994	0.094	-0.4583664	-13.4072172	7.734933	99.38529468	-6.589017	124.2803198
1.01	101	-0.043	-0.992	0.091	-1.8907614	-13.0634424	7.8495246	99.38529468	-6.64058322	124.1370803
1.02	102	-0.045	-0.993	0.091	-3.7815228	-12.8342592	7.9068204	99.36237636	-6.69214944	123.9995704
1.03	103	-0.042	-0.992	0.096	-5.7868758	-12.7196676	8.1360036	99.3222693	-6.74944524	123.8563309
1.04	104	-0.043	-0.99	0.1	-8.0787078	-12.891555	8.4797784	99.25924392	-6.80674104	123.7188209
1.05	105	-0.04	-0.994	0.094	-9.6829902	-12.6623718	8.8235532	99.15611148	-6.85257768	123.581311
1.06	106	-0.038	-0.994	0.09	-9.9121734	-12.3758928	9.2819196	99.07016778	-6.92133264	123.4438011
1.07	107	-0.035	-0.994	0.09	-9.5111028	-12.0894138	9.453807	98.99568324	-6.9900876	123.3120208
1.08	108	-0.034	-1	0.088	-9.6829902	-11.6310474	9.453807	98.91546912	-7.06457214	123.1802404
1.09	109	-0.034	-0.998	0.089	-10.4851314	-11.2872726	9.453807	98.82379584	-7.13905668	123.0541897
1.1	110	-0.032	-0.997	0.094	-11.0007936	-11.0580894	9.2246238	98.70920424	-7.18489332	122.9281389
1.11	111	-0.026	-0.996	0.095	-10.7143146	-9.8548776	8.880849	98.61180138	-7.25364828	122.8192769
1.12	112	-0.019	-0.995	0.09	-9.3965112	-7.9068204	8.2505952	98.53158726	-7.32240324	122.7276036
1.13	113	-0.011	-1.002	0.086	-7.6203414	-5.9587632	7.3911582	98.4628323	-7.38542862	122.6588486
1.14	114	-0.005	-1.009	0.086	-6.2452422	-4.3544808	6.0733548	98.4055365	-7.43699484	122.6015528
1.15	115	-0.001	-1.008	0.089	-5.9014674	-3.5523396	4.6409598	98.30813364	-7.39688778	122.5614458
1.16	116	0	-1.013	0.089	-5.5003968	-3.4950438	3.6669312	98.25656742	-7.42553568	122.5213387
1.17	117	0.002	-1.023	0.09	-5.0420304	-3.5523396	3.0939732	98.21073078	-7.448454	122.4812317
1.18	118	0.005	-1.031	0.093	-5.2712136	-3.7815228	2.3491278	98.16489414	-7.46564274	122.4411246
1.19	119	0.004	-1.036	0.093	-5.5003968	-4.2398892	1.432395	98.11332792	-7.4771019	122.395288
1.2	120	0.001	-1.047	0.09	-5.7868758	-4.8128472	0.4010706	98.01019548	-7.37969904	122.3494513
1.21	121	0.001	-1.058	0.088	-6.1306506	-5.2139178	-1.2032118	97.95289968	-7.35678072	122.2978851
1.22	122	0.008	-1.062	0.09	-6.302538	-5.6722842	-3.437748	97.89560388	-7.31667366	122.2463189
1.23	123	0.02	-1.063	0.091	-5.72958	-5.156622	-6.016059	97.84403766	-7.2479187	122.2004822
1.24	124	0.033	-1.061	0.085	-5.3858052	-4.7555514	-8.2505952	97.79247144	-7.15624542	122.1661048
1.25	125	0.047	-1.053	0.085	-5.156622	-4.4690724	-10.3705398	97.72371648	-6.97862844	122.1317273
1.26	126	0.061	-1.044	0.094	-4.7555514	-4.2398892	-12.0894138	97.67787984	-6.85257768	122.1030794
1.27	127	0.072	-1.033	0.102	-4.870143	-4.1252976	-13.178034	97.6320432	-6.71506776	122.0801611
1.28	128	0.084	-1.02	0.107	-5.156622	-4.1252976	-13.6936962	97.58047698	-6.57182826	122.0572427
1.29	129	0.095	-1.005	0.112	-5.3858052	-4.6982556	-13.5218088	97.52891076	-6.43431834	122.0285948
1.3	130	0.101	-0.994	0.114	-5.3285094	-5.6149884	-13.0634424	97.47734454	-6.2165943	121.9770286
1.31	131	0.103	-0.983	0.12	-5.72958	-6.4744254	-12.4331886	97.42004874	-6.07908438	121.9254624
1.32	132	0.099	-0.978	0.127	-6.3598338	-7.0473834	-11.9175264	97.36275294	-5.95303362	121.8738962
1.33	133	0.095	-0.973	0.129	-7.2765666	-6.8182002	-11.5164558	97.29399798	-5.82698286	121.82233
1.34	134	0.089	-0.971	0.122	-7.448454	-6.016059	-11.45916	97.22524302	-5.70666168	121.7764933
1.35	135	0.087	-0.971	0.118	-6.7609044	-4.8128472	-11.5164558	97.16221764	-5.51185596	121.7249271
1.36	136	0.085	-0.969	0.116	-6.8182002	-3.724227	-11.9175264	97.09346268	-5.39153478	121.7020088
1.37	137	0.077	-0.982	0.115	-6.5317212	-3.0939732	-12.3758928	97.0304373	-5.25975444	121.6905496
1.38	138	0.071	-0.997	0.116	-6.302538	-2.9220858	-12.8342592	96.96741192	-5.13370368	121.6733609
1.39	139	0.068	-1.008	0.117	-6.2452422	-2.6356068	-13.1207382	96.90438654	-5.00192334	121.6619017
1.4	140	0.074	-1.019	0.124	-5.9014674	-2.5210152	-13.0061466	96.84709074	-4.79565846	121.6389834
1.41	141	0.084	-1.029	0.125	-5.5576926	-2.7501984	-12.891555	96.78979494	-4.66387812	121.6275242
1.42	142	0.099	-1.023	0.128	-4.9274388	-2.578311	-12.605076	96.73822872	-4.53782736	121.6160651
1.43	143	0.104	-1.038	0.122	-4.1825934	-2.291832	-12.318597	96.69812166	-4.4117766	121.6046059
1.44	144	0.109	-1.022	0.132	-0.572958	-1.3750992	-11.45916	96.69239208	-4.297185	121.6046059
1.45	145	0.105	-0.984	0.122	-6.0733548	-1.145916	-11.172681	96.63509628	-4.0966497	121.5874172
1.46	146	0.1	-0.984	0.127	-4.1252976	-1.0886202	-9.8548776	96.59498922	-3.99351726	121.5874172
1.47	147	0.097	-0.998	0.136	-2.578311	-1.145916	-8.5370742	96.56634132	-3.90757356	121.5874172
1.48	148	0.095	-0.988	0.135	-4.870143	-1.3178034	-7.734933	96.5147751	-3.83308902	121.5816876
1.49	149	0.1	-0.985	0.131	-5.6149884	-1.718874	-7.0473834	96.46320888	-3.75860448	121.5702284
1.5	150	0.106	-0.989	0.126	-5.6149884	-2.1772404	-6.4744254	96.41164266	-3.57525792	121.5301214
1.51	151	0.111	-0.993	0.12	-5.9014674	-2.6356068	-6.302538	96.35434686	-3.51223254	121.5129326
1.52	152	0.116	-1.001	0.114	-6.7036086	-3.4950438	-5.8441716	96.29132148	-3.44920716	121.4785552
1.53	153	0.118	-1.011	0.107	-6.9900876	-4.9847346	-4.9847346	96.22256652	-3.39191136	121.4384481
1.54	154	0.119	-1.014	0.103	-7.6203414	-7.6776372	-3.2658606	96.14808198	-3.3518043	121.3639636
1.55	155	0.121	-0.999	0.101	-9.2819196	-10.1986524	-1.9480572	96.0564087	-3.24294228	121.249372
1.56	156	0.121	-0.992	0.103	-10.886202	-12.318597	-0.5156622	95.95327626	-3.22575354	121.1290508
1.57	157	0.116	-0.992	0.111	-10.886202	-14.4958374	0.6875496	95.8558734	-3.21429438	120.9858113
1.58	158	0.112	-0.992	0.116	-11.8029348	-16.6730778	1.8907614	95.74701138	-3.21429438	120.8196535
1.59	159	0.109	-0.99	0.119	-12.7769634	-18.334656	3.3231564	95.63241978	-3.22575354	120.6305773
1.6	160	0.106	-0.994	0.124	-13.0634424	-19.5378678	4.870143	95.51782818	-3.2085648	120.4243124
1.61	161	0.106	-0.979	0.128	-13.5791046	-20.340009	6.016059	95.397507	-3.24294228	120.212318
1.62	162	0.099	-0.979	0.122	-13.5791046	-20.6837838	6.589017	95.27145624	-3.28304934	120.0003235
1.63	163	0.092	-0.985	0.124	-13.3499214	-21.0275586	7.0473834	95.15113506	-3.32888598	119.7883291
1.64	164	0.083	-0.988	0.126	-13.464513	-21.2567418	7.734933	95.03081388	-3.38618178	119.570605
1.65	165	0.077	-0.981	0.124	-14.037471	-21.3713334	8.4224826	94.9104927	-3.41482968	119.3414218
1.66	166	0.074	-0.979	0.123	-13.6364004	-21.6005166	9.1100322	94.79017152	-3.47785506	119.1179682
1.67	167	0.075	-0.979	0.123	-13.0634424	-21.7151082	9.5683986	94.67557992	-3.5523396	118.8945146
1.68	168	0.068	-0.975	0.125	-12.6623718	-21.7151082	10.1413566	94.56098832	-3.62682414	118.671061
1.69	169	0.073	-0.982	0.129	-11.8029348	-21.8296998	11.5737516	94.45785588	-3.724227	118.4418778
1.7	170	0.065	-0.973	0.126	-12.2613012	-22.0015872	12.3758928	94.3661826	-3.79298196	118.206965
1.71	171	0.07	-0.976	0.126	-12.5477802	-22.058883	13.0634424	94.25732058	-3.90184398	117.9777818
1.72	172	0.075	-0.98	0.135	-11.4018642	-21.8869956	13.9801752	94.15991772	-4.02216516	117.7485986
1.73	173	0.075	-0.971	0.134	-12.605076	-21.199446	14.3812458	94.04532612	-4.14248634	117.525145
1.74	174	0.076	-0.969	0.127	-11.8029348	-20.340009	14.6677248	93.94792326	-4.2685371	117.3131505
1.75	175	0.069	-0.97	0.131	-10.1986524	-19.6524594	14.6677248	93.87343872	-4.36021038	117.0954265
1.76	176	0.057	-0.972	0.133	-8.7089616	-19.0795014	14.6677248	93.80468376	-4.49199072	116.8948912
1.77	177	0.05	-0.967	0.13	-6.9900876	-18.048177	14.7250206	93.75311754	-4.61804148	116.705815
1.78	178	0.045	-0.948	0.129	-7.1046792	-17.4179232	14.9542038	93.69582174	-4.7555514	116.5224685
1.79	179	0.04	-0.952	0.136	-4.6409598	-17.6471064	15.756345	93.66717384	-4.89306132	116.3391219
1.8	180	0.042	-0.943	0.144	-3.6096354	-17.9335854	16.2720072	93.67290342	-5.00192334	116.132857
1.81	181	0.043	-0.936	0.152	-3.2658606	-17.7044022	17.0168526	93.66144426	-5.156622	115.9495105
1.82	182	0.046	-0.939	0.164	-2.5210152	-16.9595568	17.8762896	93.6499851	-5.31705024	115.7661639
1.83	183	0.052	-0.949	0.177	-3.6669312	-15.8709366	18.5638392	93.63279636	-5.48893764	115.6000061
1.84	184	0.059	-0.957	0.188	-4.4117766	-14.32395	19.3086846	93.60414846	-5.66655462	115.4453074
1.85	185	0.074	-0.94	0.195	-6.1306506	-12.9488508	19.8243468	93.59841888	-5.80406454	115.2791496
1.86	186	0.078	-0.925	0.189	-5.2139178	-10.8289062	20.626488	93.55831182	-5.99887026	115.1588284
1.87	187	0.077	-0.936	0.183	-2.4064236	-9.3392154	21.1421502	93.54685266	-6.19940556	115.0499664
1.88	188	0.053	-0.976	0.113	-3.4950438	-10.7716104	20.626488	93.52393434	-6.39421128	114.9296452
1.89	189	0	-1.06	-0.054	-9.3965112	-11.6883432	16.2147114	93.44372022	-6.54890994	114.8035945
1.9	190	-0.064	-1.209	-0.083	-2.6929026	-1.6615782	4.870143	93.39788358	-6.589017	114.7864057
1.91	191	-0.164	-1.346	0.034	-5.0420304	9.2819196	-6.2452422	93.3348582	-6.5317212	114.8838086
1.92	192	-0.23	-1.284	-0.012	-15.8136408	22.8610242	-10.4851314	93.14578206	-6.45150708	115.1129918
1.93	193	-0.221	-1.129	-0.062	-13.0634424	31.6845774	-6.7609044	92.97389466	-6.40567044	115.4338483
1.94	194	-0.133	-1.007	0.012	-0.6302538	33.4607472	0.9740286	92.92232844	-6.4457775	115.7604343
1.95	195	-0.014	-0.967	0.008	2.86479	31.5699858	5.9014674	92.89941012	-6.49161414	116.0698316
1.96	196	0.091	-0.978	0.001	5.9014674	26.1268848	8.9954406	92.92805802	-6.60047616	116.3276627
1.97	197	0.145	-0.993	0.01	6.4744254	18.907614	11.745639	92.96816508	-6.7322565	116.5110093
1.98	198	0.151	-1.024	0.008	4.2398892	11.2872726	13.6364004	93.00254256	-6.875496	116.6141417
1.99	199	0.137	-1.084	0.003	0.2291832	5.0420304	13.464513	92.99681298	-7.01300592	116.6542488
2	200	0.12	-1.16	-0.004	-4.010706	0.7448454	11.6883432	92.93951718	-7.0760313	116.6485192
2.01	201	0.102	-1.276	-0.018	-5.9014674	-1.6615782	9.6829902	92.88222138	-7.16770458	116.6256009
2.02	202	0.081	-1.368	-0.034	-6.3598338	-4.297185	9.8548776	92.82492558	-7.26510744	116.5797643
2.03	203	0.068	-1.343	-0.059	-11.9175264	-4.8128472	12.2613012	92.71033398	-7.37969904	116.5224685
2.04	204	0.054	-1.319	-0.093	-9.5111028	-4.2398892	15.2406828	92.62439028	-7.52866812	116.4709022
2.05	205	0.038	-1.272	-0.116	-6.6463128	-3.724227	18.334656	92.53844658	-7.68909636	116.4307952
2.06	206	0.015	-1.207	-0.125	-6.4744254	-4.6409598	21.1421502	92.48115078	-7.89536124	116.3734994
2.07	207	-0.026	-1.182	-0.122	-3.6669312	-6.7609044	22.1734746	92.45823246	-8.11308528	116.2932853
2.08	208	-0.068	-1.175	-0.106	-1.8907614	-9.453807	21.3140376	92.45250288	-8.31935016	116.1901528
2.09	209	-0.1	-1.153	-0.09	-2.2345362	-11.1153852	19.9389384	92.4467733	-8.5084263	116.0698316
2.1	210	-0.104	-1.11	-0.086	-2.2345362	-11.1153852	19.0222056	92.40666624	-8.67458412	115.9609696
2.11	211	-0.094	-1.064	-0.091	-1.5469866	-10.7143146	18.6784308	92.40666624	-8.8522011	115.846378
2.12	212	-0.087	-1.012	-0.088	-1.145916	-9.740286	17.9908812	92.41239582	-9.0240885	115.737516
2.13	213	-0.09	-0.955	-0.079	-1.0886202	-8.1360036	17.0168526	92.4181254	-9.19024632	115.6515723
2.14	214	-0.105	-0.891	-0.07	-2.2345362	-5.8441716	15.1260912	92.40666624	-9.33348582	115.5828173
2.15	215	-0.123	-0.833	-0.07	-3.0366774	-3.2085648	12.7196676	92.33791128	-9.46526616	115.559899
2.16	216	-0.142	-0.801	-0.076	-2.86479	-0.4010706	10.3705398	92.30926338	-9.5683986	115.5541694
2.17	217	-0.16	-0.787	-0.067	-4.4690724	2.9793816	7.9068204	92.25769716	-9.64861272	115.5770878
2.18	218	-0.173	-0.773	-0.07	-7.3911582	8.9954406	5.9014674	92.16602388	-9.7116381	115.668761
2.19	219	-0.176	-0.776	-0.066	-8.9381448	13.3499214	4.9274388	92.05143228	-9.7689339	115.7948118
2.2	220	-0.169	-0.806	-0.052	-9.0527364	17.18874	4.583664	91.9024632	-9.83768886	115.9781584
2.21	221	-0.156	-0.855	-0.05	-9.2246238	19.8816426	5.0993262	91.77641244	-9.90071424	116.1729641
2.22	222	-0.137	-0.913	-0.052	-11.0007936	20.912967	6.5317212	91.62744336	-9.97519878	116.379229
2.23	223	-0.129	-0.96	-0.056	-13.6364004	21.772404	8.5370742	91.4440968	-10.07833122	116.596953
2.24	224	-0.12	-0.989	-0.065	-14.7250206	22.345362	11.2299768	91.25502066	-10.1986524	116.814677
2.25	225	-0.115	-0.994	-0.077	-14.32395	22.058883	14.32395	91.0430262	-10.3418919	117.0381307
2.26	226	-0.118	-0.98	-0.082	-12.0894138	21.485925	16.4438946	90.88259796	-10.51950888	117.2501251
2.27	227	-0.12	-0.963	-0.094	-10.0840608	20.2827132	16.7876694	90.73935846	-10.69139628	117.4506604
2.28	228	-0.129	-0.955	-0.09	-6.7609044	18.907614	16.4438946	90.63049644	-10.86328368	117.6397366
2.29	229	-0.142	-0.95	-0.081	-5.6722842	18.048177	15.0687954	90.53882316	-11.02371192	117.8173535
2.3	230	-0.143	-0.954	-0.074	-4.9274388	17.9908812	13.1207382	90.42423156	-11.14976268	118.0064297
2.31	231	-0.141	-0.956	-0.065	-5.156622	18.2200644	11.172681	90.33255828	-11.27008386	118.1897762
2.32	232	-0.14	-0.95	-0.059	-4.9847346	18.2200644	9.453807	90.240885	-11.36748672	118.3731228
2.33	233	-0.142	-0.95	-0.057	-5.2139178	17.3606274	8.3651868	90.1549413	-11.45916	118.5450102
2.34	234	-0.147	-0.95	-0.054	-5.8441716	15.6417534	7.734933	90.05753844	-11.53937412	118.6997089
2.35	235	-0.149	-0.951	-0.048	-6.8182002	14.1520626	8.0787078	89.93721726	-11.60812908	118.8486779
2.36	236	-0.144	-0.961	-0.049	-7.6203414	13.0634424	8.8235532	89.82835524	-11.69980236	118.9804583
2.37	237	-0.14	-0.966	-0.055	-8.6516658	12.2040054	9.453807	89.71949322	-11.79720522	119.106509
2.38	238	-0.132	-0.967	-0.058	-8.7089616	11.8602306	9.8548776	89.60490162	-11.90033766	119.2211006
2.39	239	-0.126	-0.964	-0.052	-8.3651868	11.9175264	10.026765	89.49031002	-12.0034701	119.3414218
2.4	240	-0.125	-0.957	-0.044	-8.59437	12.4904844	9.7975818	89.35852968	-12.07795464	119.4732022
2.41	241	-0.127	-0.958	-0.04	-8.021412	13.2926256	8.8235532	89.24966766	-12.16962792	119.6049825
2.42	242	-0.135	-0.956	-0.033	-7.3911582	13.6936962	7.5630456	89.14080564	-12.24984204	119.7424924
2.43	243	-0.145	-0.957	-0.024	-6.0733548	13.9801752	6.3598338	89.04913236	-12.31286742	119.8857319
2.44	244	-0.153	-0.965	-0.021	-5.0420304	13.2926256	5.6149884	88.96318866	-12.37016322	120.0232418
2.45	245	-0.16	-0.971	-0.013	-4.583664	13.178034	4.8128472	88.88297454	-12.39881112	120.1550222
2.46	246	-0.16	-0.959	-0.018	-4.9847346	13.178034	4.5263682	88.80276042	-12.44464776	120.2868025
2.47	247	-0.159	-0.947	-0.017	-5.2139178	12.891555	4.1825934	88.71681672	-12.48475482	120.4185829
2.48	248	-0.151	-0.944	-0.01	-5.443101	13.8082878	3.4950438	88.63087302	-12.52486188	120.5560928
2.49	249	-0.141	-0.94	-0.002	-4.9847346	14.3812458	2.86479	88.54492932	-12.55350978	120.7050619
2.5	250	-0.138	-0.943	0.009	-3.437748	14.5531332	1.9480572	88.4933631	-12.53059146	120.8368422
2.51	251	-0.142	-0.952	0.017	-2.005353	14.32395	1.145916	88.4360673	-12.5477802	120.9858113
2.52	252	-0.147	-0.953	0.016	-2.578311	13.9228794	0.5156622	88.3787715	-12.5477802	121.1233212
2.53	253	-0.154	-0.957	0.007	-3.724227	14.2666542	-0.2291832	88.30428696	-12.5477802	121.2722903
2.54	254	-0.157	-0.969	0.006	-4.583664	15.4125702	-1.2605076	88.22407284	-12.53632104	121.4269889
2.55	255	-0.158	-0.966	0.01	-5.156622	16.6730778	-2.005353	88.14385872	-12.4904844	121.5816876
2.56	256	-0.16	-0.966	0.013	-3.6669312	17.5898106	-2.6356068	88.06937418	-12.4618365	121.7593046
2.57	257	-0.159	-0.971	0.015	-3.0366774	18.2773602	-2.9220858	87.99488964	-12.4331886	121.9426511
2.58	258	-0.157	-0.979	0.017	-2.1199446	19.3659804	-3.3231564	87.92613468	-12.39881112	122.1374569
2.59	259	-0.154	-0.975	0.015	-2.6929026	20.1108258	-3.6669312	87.85165014	-12.35870406	122.3437217
2.6	260	-0.148	-0.975	0.021	-1.0886202	20.340009	-3.8961144	87.81727266	-12.28421952	122.5327979
2.61	261	-0.138	-0.97	0.023	-1.145916	20.2254174	-4.1252976	87.75997686	-12.24411246	122.7333332
2.62	262	-0.131	-0.975	0.023	-0.7448454	20.1108258	-4.4117766	87.70268106	-12.19827582	122.9338685
2.63	263	-0.128	-0.984	0.027	0	20.05353	-5.0420304	87.662574	-12.1467096	123.1344038
2.64	264	-0.128	-0.982	0.03	0.286479	19.6524594	-5.5003968	87.61673736	-12.0894138	123.3349391
2.65	265	-0.135	-0.969	0.028	0.6875496	19.0222056	-5.9587632	87.61100778	-11.99201094	123.5068265
2.66	266	-0.141	-0.964	0.031	1.4896908	18.5638392	-6.302538	87.58235988	-11.92898556	123.6959026
2.67	267	-0.143	-0.962	0.034	1.5469866	18.8503182	-6.7609044	87.55944156	-11.8602306	123.8792492
2.68	268	-0.148	-0.96	0.037	1.3750992	19.4232762	-7.2765666	87.53079366	-11.78001648	124.0740549
2.69	269	-0.151	-0.961	0.037	1.4896908	19.9389384	-7.7922288	87.50214576	-11.69980236	124.2745902
2.7	270	-0.156	-0.964	0.036	1.718874	20.5118964	-8.1932994	87.50214576	-11.6023995	124.4636663
2.71	271	-0.157	-0.968	0.038	1.6042824	20.9702628	-8.6516658	87.47349786	-11.51072622	124.6756608
2.72	272	-0.153	-0.97	0.039	1.2605076	21.6005166	-9.0527364	87.43912038	-11.41905294	124.8876553
2.73	273	-0.144	-0.973	0.04	1.2605076	21.772404	-9.2246238	87.4047429	-11.32165008	125.1053793
2.74	274	-0.131	-0.98	0.045	1.7761698	21.485925	-9.2819196	87.38182458	-11.22424722	125.3173738
2.75	275	-0.116	-0.99	0.046	1.718874	20.912967	-9.2819196	87.38755416	-11.09819646	125.5064499
2.76	276	-0.102	-1	0.051	1.0313244	20.340009	-9.2819196	87.35317668	-11.0007936	125.7069852
2.77	277	-0.094	-1.007	0.055	0	19.480572	-9.3392154	87.31306962	-10.90339074	125.9017909
2.78	278	-0.089	-1.011	0.057	-1.2605076	18.907614	-9.6829902	87.26723298	-10.80598788	126.0851375
2.79	279	-0.09	-1.015	0.055	-2.1772404	18.7930224	-10.0840608	87.2042076	-10.70285544	126.268484
2.8	280	-0.093	-1.022	0.052	-2.2345362	19.0222056	-10.2559482	87.1755597	-10.55961594	126.4403714
2.81	281	-0.1	-1.041	0.038	-2.0626488	18.5065434	-10.1986524	87.1182639	-10.4564835	126.623718
2.82	282	-0.112	-1.066	0.033	-2.3491278	17.1314442	-9.740286	87.0609681	-10.35335106	126.7898758
2.83	283	-0.117	-1.1	0.017	-3.437748	15.6417534	-8.6516658	86.99794272	-10.26740736	126.9388449
2.84	284	-0.122	-1.137	-0.016	-6.2452422	12.6623718	-7.1046792	86.90626944	-10.19292282	127.0648957
2.85	285	-0.117	-1.175	-0.044	-10.599723	7.8495246	-5.0993262	86.78594826	-10.11843828	127.1336506
2.86	286	-0.104	-1.216	-0.055	-15.8136408	1.7761698	-2.4637194	86.61979044	-10.09551996	127.1508394
2.87	287	-0.081	-1.242	-0.057	-21.0848544	-4.9847346	0.286479	86.41925514	-10.10124954	127.0992731
2.88	288	-0.055	-1.245	-0.067	-25.1528562	-11.3445684	2.1772404	86.18434236	-10.12989744	126.9846815
2.89	289	-0.036	-1.227	-0.083	-25.4393352	-16.1001198	2.9793816	85.95515916	-10.1700045	126.8185237
2.9	290	-0.038	-1.206	-0.082	-20.8556712	-18.4492476	2.3491278	85.77754218	-10.17573408	126.6294476
2.91	291	-0.06	-1.206	-0.1	-16.5011904	-17.5898106	0.4583664	85.64576184	-10.19292282	126.4518306
2.92	292	-0.092	-1.217	-0.125	-14.2666542	-16.1001198	-2.1772404	85.53117024	-10.18146366	126.2856728
2.93	293	-0.117	-1.219	-0.114	-13.464513	-13.8082878	-4.4117766	85.42230822	-10.1413566	126.1424333
2.94	294	-0.128	-1.201	-0.099	-14.2093584	-11.6883432	-5.9014674	85.30198704	-10.09551996	126.0221121
2.95	295	-0.131	-1.176	-0.096	-14.4958374	-9.8548776	-6.5317212	85.1702067	-10.02103542	125.9132501
2.96	296	-0.122	-1.156	-0.11	-13.178034	-7.5057498	-6.2452422	85.04988552	-9.96373962	125.833036
2.97	297	-0.109	-1.129	-0.119	-10.5424272	-4.9274388	-5.7868758	84.95248266	-9.9121734	125.7757402
2.98	298	-0.106	-1.102	-0.125	-7.8495246	-1.9480572	-6.016059	84.87799812	-9.84914802	125.7528218
2.99	299	-0.114	-1.075	-0.12	-6.4744254	-0.6302538	-6.7609044	84.81497274	-9.78612264	125.7356331
3	300	-0.122	-1.039	-0.106	-4.6982556	1.3750992	-7.9068204	84.7404882	-9.67153104	125.7470923
3.01	301	-0.132	-1	-0.109	-2.6929026	4.6409598	-9.2246238	84.70611072	-9.57985776	125.7871993
3.02	302	-0.136	-0.964	-0.114	0.5156622	8.8235532	-10.7716104	84.70038114	-9.46526616	125.8616839
3.03	303	-0.133	-0.934	-0.136	3.2085648	14.1520626	-12.4904844	84.70611072	-9.33348582	125.9934642
3.04	304	-0.126	-0.899	-0.153	5.0420304	19.1367972	-14.32395	84.72902904	-9.17878716	126.1768108
3.05	305	-0.113	-0.852	-0.163	6.7036086	23.6058696	-16.3865988	84.73475862	-9.00117018	126.405994
3.06	306	-0.095	-0.813	-0.195	7.7922288	29.3927454	-18.1054728	84.76340652	-8.80063488	126.6867434
3.07	307	-0.067	-0.777	-0.213	7.8495246	32.8304934	-18.7930224	84.79205442	-8.59437	126.9961407
3.08	308	-0.037	-0.766	-0.232	7.2765666	34.8931422	-18.5065434	84.81497274	-8.38810512	127.3284563
3.09	309	-0.009	-0.779	-0.262	6.8182002	35.4661002	-17.0741484	84.8264319	-8.1932994	127.6665016
3.1	310	0.012	-0.79	-0.277	5.2712136	33.9764094	-15.0114996	84.78632484	-8.00422326	128.0102764
3.11	311	0.031	-0.811	-0.279	0.3437748	29.6219286	-12.4331886	84.74621778	-7.86098376	128.2910258
3.12	312	0.055	-0.845	-0.278	-4.4690724	23.8923486	-9.0527364	84.66600366	-7.75785132	128.520209
3.13	313	0.082	-0.894	-0.271	-8.0787078	17.7044022	-4.6982556	84.55714164	-7.70055552	128.6920964
3.14	314	0.102	-0.941	-0.281	-11.0007936	11.3445684	-0.6302538	84.43109088	-7.68336678	128.806688
3.15	315	0.11	-0.974	-0.288	-12.891555	6.2452422	2.0626488	84.17898936	-7.5916935	128.8926317
3.16	316	0.099	-1.004	-0.289	-12.6623718	1.3178034	3.7815228	84.04720902	-7.63180056	128.9098204
3.17	317	0.075	-1.021	-0.289	-11.172681	-3.9534102	4.583664	83.94407658	-7.6776372	128.8697134
3.18	318	0.049	-1.032	-0.282	-8.7662574	-9.2246238	4.5263682	83.86386246	-7.72920342	128.7837697
3.19	319	0.027	-1.034	-0.272	-6.1306506	-13.1207382	2.6929026	83.8237554	-7.76931048	128.6577189
3.2	320	0.013	-1.027	-0.26	-2.9793816	-15.3552744	-0.4010706	83.73208212	-7.71201468	128.520209
3.21	321	-0.003	-1.032	-0.235	1.2032118	-16.5584862	-4.6409598	83.77218918	-7.6776372	128.3483216
3.22	322	-0.014	-1.033	-0.223	3.724227	-16.9595568	-8.7662574	83.83521456	-7.60315266	128.1707046
3.23	323	-0.013	-1.034	-0.209	5.3858052	-16.7876694	-11.5737516	83.91542868	-7.50002022	127.9930876
3.24	324	0	-1.031	-0.197	6.5317212	-15.8709366	-13.5218088	84.00710196	-7.37969904	127.8212002
3.25	325	0.014	-1.008	-0.196	6.7036086	-13.8655836	-14.8396122	84.05866818	-7.20208206	127.6779607
3.26	326	0.023	-0.983	-0.19	7.5630456	-11.5164558	-15.6990492	84.15607104	-7.05311298	127.5461804
3.27	327	0.022	-0.96	-0.185	8.1932994	-8.6516658	-16.2147114	84.2534739	-6.89841432	127.4487775
3.28	328	0.018	-0.941	-0.18	8.59437	-5.3858052	-16.4438946	84.34514718	-6.73798608	127.3800226
3.29	329	0.013	-0.924	-0.172	8.59437	-2.6929026	-15.9855282	84.43682046	-6.58328742	127.3341859
3.3	330	0.013	-0.917	-0.165	8.59437	0	-15.1260912	84.48838668	-6.3884817	127.3284563
3.31	331	0.015	-0.917	-0.157	8.6516658	0.9740286	-13.8655836	84.57433038	-6.25097178	127.3284563
3.32	332	0.016	-0.923	-0.144	8.0787078	1.145916	-12.3758928	84.66027408	-6.12492102	127.3284563
3.33	333	0.017	-0.923	-0.138	7.2765666	0.9167328	-11.0580894	84.72902904	-6.016059	127.3284563
3.34	334	0.019	-0.926	-0.142	6.9327918	1.0886202	-10.313244	84.80351358	-5.90719698	127.3341859
3.35	335	0.025	-0.932	-0.138	6.7036086	1.0886202	-9.9121734	84.83216148	-5.74103916	127.3399155
3.36	336	0.035	-0.942	-0.132	6.4171296	0.3437748	-9.8548776	84.89518686	-5.6436363	127.3341859
3.37	337	0.045	-0.952	-0.13	5.9587632	-0.7448454	-9.6829902	84.95821224	-5.54623344	127.3169972
3.38	338	0.055	-0.965	-0.124	5.5003968	-1.8907614	-9.6256944	85.01550804	-5.44883058	127.2940789
3.39	339	0.065	-0.973	-0.117	5.443101	-2.9793816	-9.5111028	85.07280384	-5.3571573	127.2539718
3.4	340	0.072	-0.977	-0.107	5.9014674	-4.2398892	-8.9954406	85.12437006	-5.17954032	127.196676
3.41	341	0.074	-0.976	-0.097	6.589017	-5.3285094	-8.5370742	85.19312502	-5.0993262	127.1393802
3.42	342	0.071	-0.974	-0.09	7.0473834	-5.8441716	-8.1932994	85.27333914	-5.01911208	127.0763548
3.43	343	0.065	-0.975	-0.083	7.3911582	-6.3598338	-7.734933	85.35355326	-4.94462754	127.0075999
3.44	344	0.059	-0.979	-0.073	7.2192708	-7.161975	-7.3338624	85.43376738	-4.87587258	126.9331153
3.45	345	0.055	-0.981	-0.061	6.8182002	-7.9068204	-6.9900876	85.51971108	-4.74409224	126.8357125
3.46	346	0.05	-0.985	-0.053	6.016059	-8.9954406	-6.5317212	85.58846604	-4.68106686	126.7440392
3.47	347	0.052	-0.986	-0.046	4.9847346	-9.6256944	-5.9014674	85.64576184	-4.62950064	126.6466363
3.48	348	0.055	-0.988	-0.045	4.0680018	-10.1986524	-5.156622	85.69732806	-4.583664	126.5377743
3.49	349	0.059	-0.994	-0.042	3.151269	-10.9434978	-4.2398892	85.7431647	-4.54355694	126.4289123
3.5	350	0.065	-0.997	-0.04	1.9480572	-11.8602306	-3.3804522	85.78900134	-4.42323576	126.2914024
3.51	351	0.064	-1	-0.035	1.2605076	-13.0634424	-2.5210152	85.81191966	-4.40604702	126.159622
3.52	352	0.065	-1.002	-0.031	0.572958	-13.9228794	-1.8334656	85.8291084	-4.39458786	126.0221121
3.53	353	0.065	-1.001	-0.027	-0.286479	-14.1520626	-1.2605076	85.84056756	-4.38885828	125.8788726
3.54	354	0.066	-1	-0.021	-1.5469866	-14.5531332	-0.6875496	85.83483798	-4.3831287	125.7356331
3.55	355	0.066	-1.002	-0.015	-2.5210152	-14.896908	-0.286479	85.8577563	-4.30291458	125.5637457
3.56	356	0.069	-0.993	-0.006	-3.7815228	-15.0114996	0.0572958	85.8291084	-4.30864416	125.4147766
3.57	357	0.07	-0.988	-0.006	-5.3285094	-15.0687954	0.572958	85.78900134	-4.32010332	125.2658075
3.58	358	0.07	-0.986	0	-5.9014674	-15.183387	1.145916	85.7431647	-4.34302164	125.1168385
3.59	359	0.072	-0.984	0.002	-6.4171296	-15.5844576	1.7761698	85.69159848	-4.36593996	124.9621398
3.6	360	0.071	-0.979	0.009	-6.9327918	-16.1001198	2.6356068	85.66868016	-4.33729206	124.7845228
3.61	361	0.069	-0.972	0.018	-7.448454	-16.8449652	3.8388186	85.60565478	-4.3831287	124.618365
3.62	362	0.066	-0.97	0.03	-7.448454	-18.1054728	5.0993262	85.54835898	-4.44615408	124.440748
3.63	363	0.066	-0.965	0.038	-7.3911582	-18.9649098	6.2452422	85.49106318	-4.51490904	124.2574015
3.64	364	0.069	-0.958	0.04	-7.161975	-19.8243468	7.3911582	85.43376738	-4.60085274	124.0683253
3.65	365	0.075	-0.95	0.042	-6.2452422	-20.6837838	8.5370742	85.4280378	-4.64668938	123.8506013
3.66	366	0.075	-0.943	0.041	-5.156622	-21.8869956	9.6256944	85.39366032	-4.74982182	123.6386068
3.67	367	0.075	-0.933	0.039	-3.8961144	-23.3193906	10.5424272	85.37647158	-4.870143	123.4151532
3.68	368	0.066	-0.928	0.045	-2.6356068	-24.5798982	11.0580894	85.37647158	-4.99046418	123.1802404
3.69	369	0.054	-0.924	0.057	-1.8334656	-24.8090814	11.0007936	85.38220116	-5.11651494	122.9453276
3.7	370	0.042	-0.925	0.058	-1.2605076	-24.1788276	10.5424272	85.4280378	-5.19099948	122.6932261
3.71	371	0.037	-0.926	0.055	-1.0313244	-23.3766864	10.1986524	85.44522654	-5.30559108	122.4697725
3.72	372	0.032	-0.921	0.061	-1.0313244	-23.3193906	10.026765	85.4566857	-5.4144531	122.2463189
3.73	373	0.028	-0.916	0.07	-0.859437	-23.8923486	10.1986524	85.47387444	-5.5290447	122.0171357
3.74	374	0.026	-0.914	0.081	-0.6302538	-24.7517856	10.4278356	85.49106318	-5.6436363	121.7764933
3.75	375	0.025	-0.915	0.086	0.1145916	-25.3820394	10.7716104	85.56554772	-5.72385042	121.5129326
3.76	376	0.025	-0.916	0.098	0.9167328	-25.4393352	11.3445684	85.60565478	-5.84990118	121.2722903
3.77	377	0.027	-0.921	0.116	1.6615782	-25.5539268	12.2040054	85.65149142	-5.98168152	121.0259183
3.78	378	0.035	-0.92	0.135	2.3491278	-25.7258142	13.1207382	85.70305764	-6.12492102	120.7795464
3.79	379	0.045	-0.917	0.152	3.3231564	-26.2414764	14.2093584	85.7718126	-6.27961968	120.5331745
3.8	380	0.057	-0.917	0.156	3.6096354	-26.4133638	15.3552744	85.89213378	-6.39994086	120.2581546
3.81	381	0.066	-0.922	0.139	5.0993262	-26.2414764	16.2147114	85.97807748	-6.57182826	120.0060531
3.82	382	0.065	-0.944	0.111	8.0787078	-26.2414764	16.2720072	86.09266908	-6.74371566	119.7596812
3.83	383	0.049	-0.985	0.094	9.7975818	-26.2414764	15.2979786	86.22444942	-6.9041439	119.5075796
3.84	384	0.018	-1.05	0.06	10.313244	-24.5798982	13.1207382	86.36195934	-7.04165382	119.2726669
3.85	385	-0.03	-1.136	0.014	9.1100322	-20.9702628	8.59437	86.49373968	-7.11040878	119.0606724
3.86	386	-0.094	-1.237	-0.021	8.307891	-16.2720072	2.9793816	86.59687212	-7.14478626	118.9002442
3.87	387	-0.155	-1.343	-0.097	5.156622	-13.0634424	-3.2658606	86.67135666	-7.11613836	118.7684638
3.88	388	-0.222	-1.438	-0.216	-0.3437748	-9.5111028	-9.9121734	86.67708624	-7.02446508	118.671061
3.89	389	-0.291	-1.538	-0.331	-5.8441716	-3.3804522	-17.475219	86.62552002	-6.85257768	118.6252243
3.9	390	-0.357	-1.654	-0.401	-10.313244	4.8128472	-26.2987722	86.51092842	-6.59474658	118.6596018
3.91	391	-0.384	-1.772	-0.469	-13.5218088	13.0634424	-33.2888598	86.35622976	-6.25670136	118.7684638
3.92	392	-0.312	-1.807	-0.523	-17.8762896	19.194093	-32.0283522	86.15569446	-5.93584488	118.9403512
3.93	393	-0.121	-1.663	-0.426	-18.334656	21.9442914	-15.2406828	85.9437	-5.77541664	119.1466161
3.94	394	0.092	-1.429	-0.361	-17.5325148	22.0015872	4.5263682	85.7431647	-5.8155237	119.3643401
3.95	395	0.264	-1.278	-0.331	-14.4958374	16.7303736	18.5065434	85.55408856	-5.95303362	119.5419571
3.96	396	0.329	-1.164	-0.308	-10.026765	5.0993262	26.2987722	85.44522654	-6.2165943	119.6107121
3.97	397	0.291	-1.058	-0.283	-7.7922288	-10.1986524	31.1116194	85.37647158	-6.52599162	119.5362275
3.98	398	0.211	-0.943	-0.253	-7.2192708	-24.8090814	32.8304934	85.33063494	-6.86976642	119.3127739
3.99	399	0.143	-0.848	-0.21	-6.0733548	-35.7525792	32.2002396	85.3134462	-7.20781164	118.9804583
4	400	0.095	-0.766	-0.162	-6.5317212	-42.9145542	30.0229992	85.29625746	-7.5057498	118.5793877
4.01	401	0.067	-0.691	-0.139	-8.7089616	-46.409598	26.0122932	85.27333914	-7.78649922	118.1324804
4.02	402	0.044	-0.654	-0.134	-11.9175264	-47.3836266	22.2307704	85.22177292	-8.03287116	117.6798436
4.03	403	0.008	-0.644	-0.15	-16.4438946	-45.9512316	18.334656	85.12437006	-8.24486562	117.2329364
4.04	404	-0.059	-0.662	-0.166	-20.6837838	-42.3415962	13.464513	84.98113056	-8.40529386	116.8204066
4.05	405	-0.139	-0.715	-0.185	-22.8037284	-36.7266078	8.4224826	84.78059526	-8.51988546	116.4651727
4.06	406	-0.218	-0.797	-0.192	-21.772404	-31.1689152	4.583664	84.60870786	-8.58864042	116.1557753
4.07	407	-0.283	-0.891	-0.189	-20.2254174	-27.0436176	3.2085648	84.44827962	-8.64020664	115.8864851
4.08	408	-0.322	-0.983	-0.206	-18.2773602	-23.5485738	5.72958	84.29931054	-8.71469118	115.6573019
4.09	409	-0.308	-1.031	-0.227	-15.3552744	-19.9389384	13.2353298	84.17898936	-8.86366026	115.4682257
4.1	410	-0.25	-1.017	-0.247	-11.6310474	-15.6417534	21.3713334	84.04147944	-9.10430262	115.3479046
4.11	411	-0.196	-0.967	-0.252	-6.8182002	-12.3758928	27.3300966	83.98991322	-9.38505204	115.2505017
4.12	412	-0.177	-0.911	-0.242	-2.86479	-8.880849	29.9657034	83.97272448	-9.68871978	115.1932059
4.13	413	-0.185	-0.869	-0.234	-0.3437748	-5.72958	29.7365202	83.97272448	-9.98665794	115.164558
4.14	414	-0.199	-0.851	-0.223	1.9480572	-4.0680018	27.4446882	83.9956428	-10.26167778	115.1530988
4.15	415	-0.204	-0.87	-0.209	3.0366774	-3.4950438	24.8090814	83.97845406	-10.52523846	115.164558
4.16	416	-0.198	-0.906	-0.195	2.1199446	-3.0366774	22.631841	84.00137238	-10.74869208	115.1588284
4.17	417	-0.182	-0.93	-0.186	-0.286479	-2.291832	20.7410796	84.00137238	-10.95495696	115.1530988
4.18	418	-0.168	-0.955	-0.186	-1.718874	-1.5469866	19.8816426	83.98418364	-11.15549226	115.1588284
4.19	419	-0.155	-0.966	-0.182	-4.6982556	-1.2032118	20.1681216	83.93261742	-11.35602756	115.1702876
4.2	420	-0.138	-0.963	-0.176	-7.9641162	-0.859437	20.5118964	83.81802582	-11.53937412	115.1874763
4.21	421	-0.133	-0.951	-0.166	-11.172681	-0.3437748	20.1108258	83.69770464	-11.73990942	115.2046651
4.22	422	-0.13	-0.936	-0.157	-13.0634424	0.3437748	19.2513888	83.5659243	-11.92898556	115.2275834
4.23	423	-0.137	-0.922	-0.158	-14.5531332	0.6875496	18.048177	83.41122564	-12.11233212	115.2562313
4.24	424	-0.149	-0.923	-0.155	-14.4385416	1.2605076	16.6730778	83.25652698	-12.27276036	115.2848792
4.25	425	-0.16	-0.924	-0.156	-14.8396122	2.0626488	15.4125702	83.07318042	-12.41027028	115.3307158
4.26	426	-0.166	-0.934	-0.157	-13.464513	2.0626488	14.3812458	82.92994092	-12.55350978	115.3650933
4.27	427	-0.173	-0.945	-0.154	-12.891555	1.718874	13.5218088	82.792431	-12.68529012	115.3994708
4.28	428	-0.177	-0.939	-0.158	-13.1207382	1.2605076	12.8342592	82.6491915	-12.81134088	115.4281187
4.29	429	-0.18	-0.921	-0.157	-12.318597	1.145916	12.4331886	82.51741116	-12.93739164	115.4567666
4.3	430	-0.185	-0.908	-0.157	-11.745639	1.2032118	12.4331886	82.36844208	-13.04625366	115.4911441
4.31	431	-0.191	-0.911	-0.139	-10.886202	2.0626488	12.318597	82.25385048	-13.16657484	115.5255215
4.32	432	-0.192	-0.916	-0.122	-11.1153852	4.0680018	12.032118	82.12207014	-13.28689602	115.5828173
4.33	433	-0.193	-0.913	-0.121	-11.1153852	6.589017	11.4018642	81.9902898	-13.39002846	115.6630315
4.34	434	-0.198	-0.915	-0.125	-10.7143146	9.3965112	10.313244	81.85850946	-13.48170174	115.7718935
4.35	435	-0.2	-0.909	-0.117	-11.4018642	11.9748222	9.0527364	81.70954038	-13.5504567	115.9036738
4.36	436	-0.2	-0.91	-0.109	-11.9748222	15.183387	7.3911582	81.54338256	-13.6077525	116.0698316
4.37	437	-0.197	-0.9	-0.116	-12.891555	17.5898106	5.72958	81.36576558	-13.64785956	116.2531782
4.38	438	-0.189	-0.906	-0.122	-12.318597	18.2773602	4.297185	81.19387818	-13.6650483	116.4422543
4.39	439	-0.174	-0.923	-0.119	-11.4018642	18.8503182	2.9220858	81.03344994	-13.67650746	116.6370601
4.4	440	-0.154	-0.933	-0.116	-11.45916	18.621135	1.9480572	80.8730217	-13.64212998	116.8204066
4.41	441	-0.137	-0.94	-0.108	-11.172681	17.5898106	1.6042824	80.71832304	-13.6364004	116.9980236
4.42	442	-0.117	-0.95	-0.108	-11.9748222	15.4125702	1.9480572	80.5578948	-13.6364004	117.1584518
4.43	443	-0.105	-0.959	-0.117	-13.4072172	12.4904844	2.4064236	80.3860074	-13.64212998	117.2845026
4.44	444	-0.098	-0.962	-0.122	-15.2406828	9.5683986	2.578311	80.20839042	-13.65358914	117.3819055
4.45	445	-0.1	-0.962	-0.119	-16.615782	7.5630456	2.005353	80.03650302	-13.6077525	117.4449308
4.46	446	-0.109	-0.958	-0.123	-17.9908812	6.4744254	0.9740286	79.83596772	-13.6077525	117.5136858
4.47	447	-0.116	-0.952	-0.128	-19.2513888	5.7868758	-0.4583664	79.62970284	-13.59629334	117.5709816
4.48	448	-0.116	-0.959	-0.12	-19.194093	5.9587632	-2.4064236	79.41770838	-13.56764544	117.6225478
4.49	449	-0.113	-0.968	-0.119	-19.2513888	6.875496	-4.6409598	79.2114435	-13.51034964	117.6798436
4.5	450	-0.103	-0.975	-0.127	-19.0795014	6.4171296	-6.6463128	79.02236736	-13.39002846	117.7142211
4.51	451	-0.086	-0.992	-0.122	-19.8243468	4.6982556	-7.2765666	78.8103729	-13.30981434	117.7485986
4.52	452	-0.057	-1.009	-0.153	-22.058883	1.718874	-7.2765666	78.58691928	-13.24105938	117.7485986
4.53	453	-0.027	-1.018	-0.178	-25.4393352	-2.4064236	-6.8182002	78.34054734	-13.178034	117.7084915
4.54	454	-0.002	-1.018	-0.171	-29.3927454	-5.9587632	-6.1879464	78.05979792	-13.13219736	117.6282774
4.55	455	0.011	-1.008	-0.175	-32.1429438	-9.0527364	-5.443101	77.76758934	-13.04052408	117.5136858
4.56	456	0.006	-1.028	-0.162	-28.074942	-12.891555	-4.1825934	77.51548782	-13.02906492	117.3761759
4.57	457	-0.004	-0.989	-0.162	-30.4813656	-16.8449652	-3.5523396	77.24619756	-13.02906492	117.1928293
4.58	458	-0.029	-0.971	-0.16	-29.2781538	-19.8816426	-3.724227	76.99982562	-13.0347945	116.9865644
4.59	459	-0.038	-0.965	-0.148	-27.788463	-20.5118964	-4.4690724	76.76491284	-13.0347945	116.7688404
4.6	460	-0.033	-0.969	-0.161	-27.3300966	-21.6578124	-5.5576926	76.55864796	-12.98322828	116.528198
4.61	461	-0.015	-0.978	-0.179	-27.7311672	-23.491278	-6.302538	76.33519434	-12.97176912	116.2760965
4.62	462	0.011	-0.983	-0.182	-29.1062664	-26.2414764	-6.2452422	76.10601114	-12.97176912	115.9953471
4.63	463	0.041	-0.994	-0.199	-29.220858	-30.366774	-5.443101	75.88255752	-12.98322828	115.6802202
4.64	464	0.077	-0.992	-0.209	-29.8511118	-36.3255372	-2.9793816	75.67056306	-13.0347945	115.3077975
4.65	465	0.102	-0.994	-0.195	-30.7105488	-45.0344988	-0.4010706	75.47575734	-13.08636072	114.8494311
4.66	466	0.128	-0.958	-0.176	-32.7159018	-53.3996856	2.578311	75.26949246	-13.22960022	114.3223097
4.67	467	0.127	-0.955	-0.194	-33.0596766	-60.2178858	4.1252976	75.08041632	-13.41294678	113.7378926
4.68	468	0.109	-0.959	-0.19	-28.1895336	-68.4111852	2.9220858	74.96009514	-13.60202292	113.0618021
4.69	469	0.082	-0.932	-0.176	-28.934379	-75.916935	1.9480572	74.85123312	-13.79682864	112.3169567
4.7	470	0.045	-0.894	-0.155	-29.6219286	-82.4486562	1.0886202	74.76528942	-13.97444562	111.4918972
4.71	471	0.015	-0.88	-0.153	-27.9603504	-87.7771656	0.3437748	74.70799362	-14.18644008	110.6210011
4.72	472	0	-0.881	-0.142	-25.8404058	-92.0170548	-0.286479	74.6850753	-14.40416412	109.7042683
4.73	473	0.001	-0.884	-0.126	-23.0902074	-95.2256196	-0.572958	74.69653446	-14.62188816	108.7588876
4.74	474	0.003	-0.884	-0.11	-21.0848544	-98.0904096	-0.5156622	74.74810068	-14.85107136	107.7791294
4.75	475	0.009	-0.877	-0.106	-19.9389384	-100.840608	-0.3437748	74.8283148	-15.05733624	106.7649937
4.76	476	0.012	-0.884	-0.093	-15.756345	-103.2470316	-0.9740286	74.95436556	-15.28651944	105.7279397
4.77	477	0.014	-0.887	-0.098	-12.605076	-105.424272	-1.0313244	75.12052338	-15.51570264	104.673697
4.78	478	0	-0.904	-0.069	-6.6463128	-108.9193158	-1.2605076	75.36116574	-15.75061542	103.5850768
4.79	479	0.011	-0.908	-0.035	-2.1199446	-111.9559932	-0.9167328	75.66483348	-15.99125778	102.4563496
4.8	480	-0.001	-0.904	-0.024	-1.5469866	-115.0499664	-0.286479	76.0028787	-16.20898182	101.2875152
4.81	481	-0.037	-0.925	-0.031	2.9793816	-114.4197126	-0.9167328	76.3753014	-16.43816502	100.1358697
4.82	482	-0.05	-0.951	-0.041	6.1306506	-113.7894588	-2.0626488	76.78210158	-16.6444299	98.98422408
4.83	483	-0.071	-1	-0.05	7.734933	-114.7061916	-3.724227	77.21182008	-16.83350604	97.81538976
4.84	484	-0.053	-1.067	-0.083	11.4018642	-113.6748672	-6.589017	77.68164564	-16.98247512	96.64655544
4.85	485	-0.027	-1.106	-0.108	6.4744254	-109.3776822	-7.3911582	78.10563456	-17.07987798	95.5120986
4.86	486	-0.033	-1.165	-0.155	2.1199446	-104.7367224	-6.8182002	78.45513894	-17.19446958	94.42920798
4.87	487	-0.037	-1.227	-0.232	3.6096354	-104.7367224	-6.9900876	78.82756164	-17.3033316	93.34631736
4.88	488	-0.024	-1.295	-0.357	6.7036086	-109.2057948	-7.448454	79.25155056	-17.40646404	92.2175901
4.89	489	0.01	-1.327	-0.387	10.1413566	-114.7061916	-8.4797784	79.72137612	-17.49813732	91.02583746
4.9	490	0.042	-1.31	-0.426	14.2093584	-121.5243918	-9.2819196	80.25422706	-17.5611627	89.76532986
4.91	491	0.082	-1.263	-0.433	16.1574156	-126.2799432	-10.0840608	80.83291464	-17.62991766	88.45325604
4.92	492	0.124	-1.2	-0.446	13.9801752	-130.5771282	-10.7143146	81.40587264	-17.68721346	87.09534558
4.93	493	0.165	-1.127	-0.43	9.6829902	-132.926256	-11.6310474	81.94445316	-17.72732052	85.70878722
4.94	494	0.206	-1.074	-0.41	5.2139178	-133.9575804	-13.0634424	82.44292662	-17.73877968	84.30504012
4.95	495	0.244	-1.027	-0.37	0.3437748	-133.499214	-16.7876694	82.87264512	-17.66429514	82.9070226
4.96	496	0.257	-0.978	-0.283	-9.3392154	-133.3846224	-22.058883	83.2221495	-17.57262186	81.49754592
4.97	497	0.215	-0.898	-0.224	-22.91832	-138.5412444	-28.5906042	83.44560312	-17.41219362	80.03077344
4.98	498	0.109	-0.775	-0.11	-28.7051958	-140.4320058	-36.096354	83.61749052	-17.17728084	78.54108264
4.99	499	-0.04	-0.608	-0.075	-29.793816	-143.4113874	-43.3156248	83.78364834	-16.86788352	77.01128478
5	500	-0.125	-0.479	0.041	-27.501984	-141.2914428	-50.5348956	83.96126532	-16.48400166	75.49294608
5.01	501	-0.165	-0.393	0.211	-19.1367972	-132.1241148	-55.1185596	84.18471894	-16.03709442	74.07773982
5.02	502	-0.185	-0.374	0.377	-15.469866	-118.0866438	-54.8320806	84.38525424	-15.57872802	72.81150264
5.03	503	-0.19	-0.346	0.443	-24.637194	-105.710751	-52.3110654	84.44827962	-15.13755036	71.6770458
5.04	504	-0.266	-0.291	0.467	-35.9817624	-96.4861272	-48.4722468	84.36233592	-14.73075018	70.63999182
5.05	505	-0.362	-0.212	0.471	-42.6280752	-89.7825186	-42.5134836	84.21909642	-14.4098937	69.68315196
5.06	506	-0.479	-0.118	0.436	-42.685371	-83.365389	-35.4661002	84.01283154	-14.1234147	68.78933748
5.07	507	-0.553	-0.021	0.415	-32.658606	-80.3287116	-26.4706596	83.89823994	-13.92860898	67.94135964
5.08	508	-0.525	0.07	0.373	-20.7983754	-77.5785132	-18.048177	83.89251036	-13.8082878	67.13348886
5.09	509	-0.351	0.153	0.212	-8.9954406	-72.9375534	-14.32395	83.98991322	-13.72807368	66.3771843
5.1	510	-0.087	0.208	0.032	2.9793816	-68.9841432	-13.5791046	84.19044852	-13.64785956	65.67244596
5.11	511	0.27	0.209	-0.042	5.0420304	-70.473834	-12.0894138	84.41963172	-13.5791046	64.9447893
5.12	512	0.695	0.25	0.114	2.3491278	-67.036086	-13.4072172	84.61443744	-13.48743132	64.25151012
5.13	513	0.783	0.179	0.29	-10.026765	-66.8641986	-7.734933	84.6831924	-13.45878342	63.56396052
5.14	514	0.333	0.005	0.268	-53.4569814	-85.2561504	5.5576926	84.35660634	-13.57337502	62.69879394
5.15	515	-0.066	-0.112	-0.02	-84.5686008	-92.1889422	18.6784308	83.71489338	-13.84839486	61.77633156
5.16	516	-0.198	-0.19	-0.292	-95.8558734	-69.7862844	28.5906042	82.91848176	-14.19789924	61.09451154
5.17	517	-0.205	-0.308	-0.416	-107.3723292	-33.9764094	31.1116194	81.91007568	-14.54740362	60.77938464
5.18	518	-0.281	-0.417	-0.649	-123.9881112	12.3758928	27.2728008	80.60946102	-14.81669388	60.9340833
5.19	519	-0.508	-0.578	-0.828	-119.175264	72.8229618	18.2773602	79.19998434	-14.896908	61.69038786
5.2	520	-0.897	-1.077	-1.01	-114.878079	106.9139628	13.9228794	77.73321186	-14.8682601	62.78473764
5.21	521	-1.33	-1.565	-1.169	-129.0301416	100.7833122	24.923673	76.14038862	-14.9255559	63.83898036
5.22	522	-1.519	-2.006	-1.027	-141.234147	67.2079734	51.3943326	74.49026958	-15.28651944	64.6296624
5.23	523	-1.074	-2.397	-1.006	-144.5000076	19.7097552	92.9337876	72.90317592	-16.14022686	65.08229922
5.24	524	-0.365	-2.471	-0.734	-145.7605152	-5.0993262	135.1034964	71.32181184	-17.4465711	65.44899234
5.25	525	0.216	-2.221	-0.508	-100.26765	16.2147114	151.6046868	70.09568172	-18.8216703	66.1193532
5.26	526	0.265	-1.876	-0.477	-79.1254998	36.7839036	145.1875572	68.99560236	-20.06498916	67.0074381
5.27	527	-0.001	-1.642	-0.683	-91.0430262	31.6272816	135.1034964	67.77520182	-21.21663474	67.8382272
5.28	528	-0.069	-1.571	-0.68	-57.9833496	16.615782	122.7276036	66.93868314	-22.29379578	68.50285848
5.29	529	0.11	-1.598	-0.31	-50.2484166	7.9068204	94.9391406	66.24540396	-23.13604404	68.97841362
5.3	530	0.382	-1.4	-0.017	-115.451037	1.2032118	83.938347	64.9447893	-23.87515986	69.34510674
5.31	531	0.541	-1.389	0.034	-154.412181	-20.6837838	86.0009958	63.30039984	-24.7517856	69.53418288
5.32	532	0.638	-1.279	0.181	-192.4565922	-33.518043	86.803137	61.31223558	-25.68570714	69.63158574
5.33	533	0.663	-1.337	0.178	-217.3229694	-48.7587258	107.2577376	59.0719698	-26.86600062	69.7289886
5.34	534	0.596	-1.19	0.214	-242.5331214	-54.0872352	121.6389834	56.53376586	-28.19526318	69.91806474
5.35	535	0.439	-1.072	0.226	-253.3047318	-72.4218912	137.5672158	53.90388864	-29.72506104	70.09568172
5.36	536	0.225	-0.999	0.234	-251.242083	-79.0109082	152.1776448	51.20525646	-31.42101672	70.41080862
5.37	537	0.101	-0.758	0.314	-251.3566746	-76.5471888	175.7835144	48.33473688	-33.2602119	71.02960326
5.38	538	-0.017	-0.39	0.306	-248.090814	-74.8856106	195.951636	45.30951864	-35.2082691	71.95779522
5.39	539	-0.168	-0.082	0.235	-237.3764994	-71.6770458	207.8118666	42.1983567	-37.17351504	73.17246618
5.4	540	-0.454	0.148	0.111	-217.4948568	-73.6823988	207.1816128	39.1616793	-39.11011308	74.53037664
5.41	541	-0.78	0.296	-0.116	-198.7018344	-69.7862844	194.2900578	36.24532308	-40.8519054	75.9455829
5.42	542	-1.093	0.453	-0.366	-178.4191212	-67.7236356	175.4397396	33.53523174	-42.41608074	77.3206821
5.43	543	-1.227	0.564	-0.564	-152.2922364	-61.9940556	156.417534	31.09443066	-43.77972078	78.64994466
5.44	544	-1.127	0.599	-0.777	-124.5610692	-60.2178858	140.0309352	28.9630269	-45.0058509	79.8989931
5.45	545	-0.887	0.542	-0.803	-72.5364828	-69.9581718	121.9254624	27.45614736	-46.19760354	80.97042456
5.46	546	-0.518	0.496	-0.836	-25.3820394	-75.4012728	101.2416786	26.63681742	-47.31487164	81.75537702
5.47	547	-0.159	0.449	-0.768	8.7662574	-80.3287116	82.3913604	26.34460884	-48.3863031	82.28822796
5.48	548	0.056	0.494	-0.639	15.6417534	-92.0743506	68.9841432	26.30450178	-49.49211204	82.57470696
5.49	549	0.166	0.626	-0.557	11.4018642	-111.2111478	61.5356892	26.39617506	-50.7354309	82.6205436
5.5	550	0.225	0.726	-0.503	9.9121734	-141.7498092	66.4058322	26.5279554	-52.2537696	82.57470696
5.51	551	0.138	0.789	-0.379	7.5630456	-182.4298272	81.646515	26.80297524	-54.20755638	82.35698292
5.52	552	-0.12	0.789	-0.217	6.302538	-221.2190838	102.9605526	27.09518382	-56.59679124	82.12207014
5.53	553	-0.416	0.716	-0.195	4.6982556	-258.5759454	136.936962	27.20977542	-59.46158124	82.08196308
5.54	554	-0.685	0.658	-0.136	7.734933	-277.88463	156.8186046	27.22123458	-62.58420234	82.20228426
5.55	555	-0.869	0.559	-0.141	17.8762896	-284.7028302	161.2303812	27.28425996	-65.79276714	82.37990124
5.56	556	-0.804	0.488	-0.021	24.637194	-286.192521	157.2196752	27.54782064	-68.98987278	82.41427872
5.57	557	-0.766	0.325	0.127	29.0489706	-290.6042976	148.1669388	28.21245192	-72.17551926	82.06477434
5.58	558	-1.081	-0.002	0.109	36.096354	-295.8755112	136.9942578	29.63911734	-75.34970658	81.01053162
5.59	559	-1.614	-0.155	0.118	39.0184398	-300.80295	132.8116644	32.085648	-78.53535306	78.94215324
5.6	560	-2.882	-0.182	-0.115	22.1161788	-291.8648052	139.5725688	35.31713112	-81.66370374	75.93412374
5.61	561	-3.468	-0.015	-0.243	7.3911582	-235.7149212	149.1982632	37.40269824	-84.37952466	73.9402299
5.62	562	-3.196	0.533	-0.142	-9.8548776	-190.2793518	182.7163062	32.56120314	-86.94064692	78.7244292
5.63	563	-3.715	1.611	-0.467	-68.2965936	-80.21412	252.8463654	-26.14980312	-88.02353754	136.7994521
5.64	564	-3.185	1.53	0.487	-118.315827	-44.977203	267.6286818	-70.46810442	-86.21871984	179.977567
5.65	565	-3.016	1.347	1.826	6.8182002	-258.0029874	218.1251106	-102.6511553	-84.19044852	-147.6168991
5.66	566	-3.121	1.28	-0.242	137.4526242	-236.345175	162.8346636	-115.2447721	-81.9616419	-133.4934844
5.67	567	-2.962	1.108	-0.377	34.6066632	-106.7420754	95.970465	-118.3272862	-80.66675682	-130.0041702
5.68	568	-3.024	1.279	-0.478	25.2674478	-52.998615	72.0781164	-118.7856526	-79.80159024	-129.270784
5.69	569	-2.02	0.581	0.594	97.3455642	-76.7190762	34.37748	-120.4586899	-79.15987728	-126.554963
5.7	570	-1.432	0.525	0.093	46.6387812	-70.760313	11.6310474	-122.6645782	-78.70724046	-123.8047646
5.71	571	-1.204	0.681	-0.04	25.3820394	-64.4004792	3.3231564	-124.9564102	-78.34627692	-121.1978057
5.72	572	-1.04	0.414	0.314	37.0703826	-69.5571012	-0.9740286	-127.2940789	-77.96812464	-118.4132299
5.73	573	-0.793	0.254	0.465	10.7143146	-76.6044846	1.3750992	-129.9182265	-77.50402866	-115.6114652
5.74	574	-0.755	0.353	0.422	-6.1306506	-79.1254998	13.9801752	-132.2272472	-76.89669318	-113.2909853
5.75	575	-0.578	0.338	0.474	-16.4438946	-74.8856106	23.9496444	-134.0950903	-76.1747661	-111.5262747
5.76	576	-0.683	0.304	0.544	-22.1734746	-75.343977	28.074942	-135.682184	-75.46429818	-110.1110684
5.77	577	-0.692	0.337	0.493	-26.356068	-72.3645954	31.226211	-137.0114465	-74.73664152	-109.0052595
5.78	578	-0.689	0.385	0.511	-31.2835068	-77.4639216	37.0130868	-138.2490358	-73.93450032	-108.0369605
5.79	579	-0.611	0.421	0.523	-37.8725238	-85.8864042	43.4302164	-139.4694364	-73.0234971	-107.1488756
5.8	580	-0.587	0.426	0.526	-35.7525792	-91.7305758	48.128472	-140.5809749	-71.98644312	-106.3410048
5.81	581	-0.533	0.378	0.512	-36.8984952	-92.3608296	51.1078536	-141.5378147	-70.96657788	-105.7164806
5.82	582	-0.452	0.406	0.514	-41.9978214	-92.1316464	54.3164184	-142.3915222	-69.92379432	-105.246655
5.83	583	-0.441	0.436	0.53	-39.0184398	-94.4807742	55.5196302	-143.170745	-68.85809244	-104.8283957
5.84	584	-0.441	0.453	0.521	-35.523396	-100.0384668	54.43101	-143.9556975	-67.7522835	-104.3528405
5.85	585	-0.468	0.514	0.502	-40.4508348	-102.3302988	51.1078536	-144.7979458	-66.60063792	-103.8543671
5.86	586	-0.468	0.575	0.498	-33.231564	-99.5801004	47.6701056	-145.5599799	-65.53493604	-103.3730824
5.87	587	-0.471	0.588	0.571	-25.6685184	-100.0957626	44.690724	-146.2589887	-64.47496374	-102.8746089
5.88	588	-0.402	0.624	0.625	-25.78311	-106.570188	44.9199072	-146.9809157	-63.36342522	-102.3474875
5.89	589	-0.514	0.686	0.602	-21.3140376	-113.445684	47.4409224	-147.6398174	-62.17740216	-101.8318253
5.9	590	-0.653	0.586	0.581	-13.750992	-115.1072622	44.5761324	-148.2070459	-60.9627312	-101.3104336
5.91	591	-0.685	0.536	0.579	-12.891555	-109.5495696	42.685371	-148.7341672	-59.82827436	-100.840608
5.92	592	-0.745	0.494	0.595	-11.0580894	-104.6794266	42.1697088	-149.1638857	-58.73965416	-100.4509966
5.93	593	-0.801	0.51	0.618	-11.6883432	-101.2416786	43.3729206	-149.5363084	-57.6682227	-100.1415992
5.94	594	-0.861	0.507	0.637	-8.59437	-97.116381	42.2843004	-149.8342466	-56.6368983	-99.87230898
5.95	595	-0.944	0.513	0.624	-10.9434978	-89.1522648	36.0390582	-150.1321847	-55.69724718	-99.62020746
5.96	596	-0.97	0.623	0.599	-6.0733548	-77.1201468	30.1375908	-150.3842863	-54.90083556	-99.3795651
5.97	597	-1.007	0.603	0.648	-2.5210152	-73.6823988	18.7357266	-150.6994132	-54.17890848	-99.0071424
5.98	598	-1.046	0.583	0.63	-4.870143	-67.3798608	4.4117766	-151.15205	-53.58876174	-98.49720978
5.99	599	-1.054	0.597	0.658	-6.875496	-66.1193532	-8.4224826	-151.7536559	-53.06164038	-97.82684892
6	600	-1.058	0.512	0.702	-11.745639	-66.176649	-24.637194	-152.5672562	-52.60327398	-96.93876402
6.01	601	-1.032	0.458	0.714	-36.382833	-71.3905668	-39.3049188	-153.8105751	-52.15063716	-95.82149592
6.02	602	-1.013	0.392	0.711	-44.0031744	-71.6770458	-48.3576552	-155.2143222	-51.72091866	-94.5953658
6.03	603	-0.992	0.308	0.68	-48.7587258	-70.6457214	-52.998615	-156.6868243	-51.30265932	-93.34058778
6.04	604	-0.958	0.26	0.669	-44.5188366	-68.6976642	-52.712136	-158.067653	-50.8786704	-92.1316464
6.05	605	-0.997	0.073	0.947	-68.5830726	-71.2759752	-52.9413192	-159.7005833	-50.40884484	-90.92270502
6.06	606	-0.857	0.214	0.571	-120.1492926	-60.8481396	-50.7640788	-161.7345842	-49.99631508	-89.85127356
6.07	607	-0.834	0.204	0.625	-100.840608	-59.9314068	-44.1750618	-163.470647	-49.55513742	-88.91162244
6.08	608	-0.841	0.175	0.704	-88.6938984	-57.4103916	-39.4768062	-164.9947153	-49.10823018	-88.08083334
6.09	609	-0.806	0.184	0.658	-71.3905668	-51.7954032	-35.523396	-166.2609524	-48.69570042	-87.35317668
6.1	610	-0.803	0.184	0.701	-63.4837464	-45.4928652	-34.091001	-167.3954093	-48.3290073	-86.6885454
6.11	611	-0.805	0.194	0.721	-58.6136034	-40.5654264	-33.6326346	-168.449652	-48.00242124	-86.0582916
6.12	612	-0.802	0.172	0.734	-56.3790672	-35.4088044	-34.3201842	-169.4695172	-47.71594224	-85.45095612
6.13	613	-0.782	0.188	0.756	-51.1651494	-29.6792244	-33.9191136	-170.4148979	-47.48675904	-84.87799812
6.14	614	-0.797	0.14	0.75	-49.6181628	-24.4080108	-34.37748	-171.3259012	-47.2976829	-84.31649928
6.15	615	-0.778	0.136	0.771	-46.3523022	-19.767051	-33.4034514	-172.173879	-47.13725466	-83.7951075
6.16	616	-0.804	0.145	0.782	-40.7946096	-14.8396122	-32.372127	-172.9531019	-47.02839264	-83.29663404
6.17	617	-0.785	0.155	0.79	-13.8082878	-13.464513	-33.1742682	-173.4630345	-46.93671936	-82.78670142
6.18	618	-0.788	0.057	0.742	-32.4294228	-7.448454	-29.6219286	-174.110477	-46.89088272	-82.35125334
6.19	619	-0.794	0.116	0.767	-9.8548776	-5.8441716	-27.9603504	-174.5115476	-46.86223482	-81.932994
6.2	620	-0.767	0.095	0.716	-19.9962342	-0.5156622	-22.7464326	-174.8954295	-46.86223482	-81.646515
6.21	621	-0.771	0.052	0.733	-3.2658606	0.859437	-20.05353	-175.1360719	-46.88515314	-81.360036
6.22	622	-0.762	0.111	0.728	-10.4278356	4.870143	-14.2666542	-175.3881734	-46.94817852	-81.1595007
6.23	623	-0.779	0.026	0.732	5.2139178	5.7868758	-12.9488508	-175.4683875	-47.0112039	-80.98188372
6.24	624	-0.774	0.078	0.711	-6.016059	7.9068204	-7.448454	-175.6001678	-47.0971476	-80.88448086
6.25	625	-0.795	0.049	0.699	8.307891	7.734933	-4.5263682	-175.5715199	-47.21746878	-80.82718506
6.26	626	-0.772	0.091	0.69	-1.2605076	13.464513	-2.1772404	-175.5944383	-47.34924912	-80.8157259
6.27	627	-0.755	0.144	0.694	11.0007936	13.178034	-0.0572958	-175.4683875	-47.48102946	-80.83291464
6.28	628	-0.793	0.078	0.677	3.2658606	20.7983754	-0.9740286	-175.4282804	-47.68729434	-80.85010338
6.29	629	-0.738	0.164	0.683	6.8182002	20.8556712	0.0572958	-175.3366072	-47.89355922	-80.88448086
6.3	630	-0.822	0.061	0.676	4.583664	25.6685184	-1.8907614	-175.2449339	-48.1571199	-80.92458792
6.31	631	-0.767	0.146	0.678	6.6463128	26.6998428	-0.8021412	-175.1589902	-48.42068058	-80.95323582
6.32	632	-0.786	0.115	0.657	5.5003968	30.5386614	-1.718874	-175.0902352	-48.72434832	-80.97615414
6.33	633	-0.795	0.108	0.656	6.7609044	32.372127	-0.9740286	-174.9928324	-49.03947522	-81.0162612
6.34	634	-0.793	0.111	0.639	8.1360036	34.2055926	-0.1145916	-174.8725112	-49.37752044	-81.073557
6.35	635	-0.807	0.102	0.636	10.8289062	34.6066632	1.2605076	-174.6891646	-49.7327544	-81.17095986
6.36	636	-0.812	0.096	0.635	12.891555	35.3515086	2.6356068	-174.4828997	-50.0765292	-81.2740923
6.37	637	-0.8	0.111	0.629	16.1574156	36.096354	4.2398892	-174.2193391	-50.42603358	-81.40587264
6.38	638	-0.809	0.154	0.617	22.5172494	36.8411994	5.9014674	-173.8698347	-50.78699712	-81.57203046
6.39	639	-0.811	0.12	0.615	29.1062664	37.9871154	5.72958	-173.4458458	-51.15369024	-81.74391786
6.4	640	-0.809	0.132	0.606	31.3980984	38.1590028	5.5576926	-172.9817498	-51.53184252	-81.92726442
6.41	641	-0.818	0.144	0.598	36.2109456	38.388186	4.8128472	-172.4890059	-51.90426522	-82.09342224
6.42	642	-0.815	0.158	0.596	39.3622146	39.0757356	3.6669312	-171.9733437	-52.28814708	-82.25385048
6.43	643	-0.827	0.124	0.643	39.1330314	39.247623	1.718874	-171.4748702	-52.67202894	-82.38563082
6.44	644	-0.821	0.13	0.608	21.3140376	39.6486936	-0.572958	-171.1826617	-53.06164038	-82.48876326
6.45	645	-0.83	0.182	0.588	21.8869956	40.5081306	-0.9167328	-170.850346	-53.4569814	-82.61481402
6.46	646	-0.846	0.161	0.592	24.9809688	41.1956802	-2.005353	-170.52376	-53.86378158	-82.7064873
6.47	647	-0.842	0.156	0.603	22.8610242	41.3675676	-3.6096354	-170.237281	-54.27058176	-82.78097184
6.48	648	-0.864	0.182	0.583	22.4026578	40.1643558	-1.7761698	-169.9336132	-54.66592278	-82.88410428
6.49	649	-0.856	0.191	0.587	24.2361234	39.4195104	-3.2658606	-169.6242159	-55.05553422	-82.9643184
6.5	650	-0.853	0.141	0.582	25.1528562	39.0757356	-6.0733548	-169.3148186	-55.43941608	-83.02734378
6.51	651	-0.86	0.192	0.564	19.2513888	38.6173692	-4.870143	-169.0741762	-55.82329794	-83.08463958
6.52	652	-0.848	0.199	0.579	17.8762896	38.388186	-5.0993262	-168.8507226	-56.2071798	-83.14193538
6.53	653	-0.869	0.174	0.549	17.8189938	39.534102	-6.875496	-168.6444577	-56.60252082	-83.17631286
6.54	654	-0.862	0.164	0.556	14.2666542	39.4195104	-8.1360036	-168.4954886	-57.00359142	-83.18777202
6.55	655	-0.886	0.158	0.523	13.8082878	41.0810886	-9.2819196	-168.3465196	-57.41612118	-83.19923118
6.56	656	-0.897	0.177	0.511	9.9121734	40.4508348	-9.0527364	-168.2491167	-57.82292136	-83.20496076
6.57	657	-0.887	0.184	0.515	10.599723	40.4508348	-11.172681	-168.1746322	-58.2411807	-83.17631286
6.58	658	-0.866	0.189	0.502	11.2872726	39.8778768	-11.6310474	-168.1001476	-58.64798088	-83.13047622
6.59	659	-0.876	0.187	0.497	10.599723	39.3622146	-12.318597	-168.0428518	-59.05478106	-83.07318042
6.6	660	-0.87	0.148	0.491	13.0061466	40.5081306	-15.2979786	-167.9511785	-59.46158124	-83.01588462
6.61	661	-0.891	0.189	0.466	9.740286	41.4248634	-14.4958374	-167.9397194	-59.89129974	-82.92421134
6.62	662	-0.891	0.148	0.46	13.0634424	42.112413	-16.1001198	-167.9110715	-60.3324774	-82.80389016
6.63	663	-0.894	0.172	0.464	10.026765	42.0551172	-15.756345	-167.9168011	-60.77365506	-82.69502814
6.64	664	-0.904	0.186	0.461	15.469866	42.685371	-15.756345	-167.8595053	-61.21483272	-82.58043654
6.65	665	-0.896	0.163	0.449	13.4072172	40.9092012	-16.3865988	-167.8308574	-61.6502808	-82.46584494
6.66	666	-0.9	0.164	0.437	15.0687954	40.10706	-16.329303	-167.8022095	-62.07426972	-82.32833502
6.67	667	-0.891	0.146	0.427	15.9855282	38.2735944	-16.2720072	-167.7792911	-62.4810699	-82.17936594
6.68	668	-0.893	0.12	0.403	15.756345	37.9871154	-16.8449652	-167.767832	-62.8821405	-82.01320812
6.69	669	-0.881	0.118	0.399	14.2666542	37.24227	-16.5584862	-167.7735616	-63.27748152	-81.85277988
6.7	670	-0.901	0.129	0.404	13.6364004	35.9244666	-15.9855282	-167.7735616	-63.66709296	-81.7038108
6.71	671	-0.901	0.13	0.403	12.7769634	34.7212548	-15.9282324	-167.7964799	-64.03951566	-81.53765298
6.72	672	-0.888	0.148	0.388	11.5737516	32.5440144	-14.8396122	-167.8251278	-64.38329046	-81.37722474
6.73	673	-0.908	0.139	0.396	13.9228794	29.6219286	-14.3812458	-167.8365869	-64.69841736	-81.21106692
6.74	674	-0.924	0.137	0.378	13.8655836	29.1062664	-14.6677248	-167.8595053	-65.01354426	-81.03917952
6.75	675	-0.915	0.144	0.371	12.891555	28.2468294	-14.896908	-167.8595053	-65.32867116	-80.89021044
6.76	676	-0.939	0.12	0.382	15.0114996	26.7571386	-15.5271618	-167.9053419	-65.62087974	-80.67821598
6.77	677	-0.97	0.131	0.375	13.1207382	25.8404058	-13.8655836	-167.945449	-65.90162916	-80.49486942
6.78	678	-0.966	0.124	0.348	14.8396122	27.9603504	-13.0634424	-167.9397194	-66.19956732	-80.34017076
6.79	679	-0.94	0.103	0.322	15.2979786	30.8251404	-13.464513	-167.9225306	-66.52615338	-80.19120168
6.8	680	-0.87	0.083	0.251	10.9434978	34.6066632	-13.6936962	-167.8996123	-66.91003524	-80.09379882
6.81	681	-0.821	0.086	0.244	9.9121734	33.231564	-12.318597	-167.9053419	-67.25381004	-79.9849368
6.82	682	-0.831	0.047	0.276	7.8495246	26.069589	-10.2559482	-167.9225306	-67.52882988	-79.88753394
6.83	683	-0.839	-0.002	0.265	7.7922288	21.2567418	-8.59437	-167.9282602	-67.7522835	-79.79586066
6.84	684	-0.864	-0.019	0.264	4.8128472	18.048177	-6.3598338	-167.9282602	-67.94135964	-79.74429444
6.85	685	-0.876	0.013	0.289	0.0572958	15.8709366	-2.4064236	-168.0027448	-68.14762452	-79.69272822
6.86	686	-0.9	0.02	0.309	0.2291832	15.6417534	0.4583664	-167.8996123	-68.2965936	-79.80159024
6.87	687	-0.931	0.037	0.33	-0.1718874	14.1520626	3.6669312	-167.7277249	-68.42264436	-79.99066638
6.88	688	-0.965	0.079	0.34	-0.2291832	13.178034	6.875496	-167.481353	-68.53723596	-80.25995664
6.89	689	-0.973	0.097	0.351	1.0313244	12.7769634	8.9381448	-167.1719557	-68.6403684	-80.58081312
6.9	690	-0.97	0.114	0.363	1.8334656	13.2353298	9.7975818	-166.7823442	-68.74350084	-80.97615414
6.91	691	-0.964	0.132	0.356	2.4637194	12.9488508	9.740286	-166.4328398	-68.84663328	-81.32565852
6.92	692	-0.957	0.15	0.347	2.9220858	11.8602306	8.880849	-166.1005242	-68.93830656	-81.65224458
6.93	693	-0.938	0.164	0.34	3.3804522	11.1153852	7.2765666	-165.8083156	-69.02425026	-81.92726442
6.94	694	-0.927	0.161	0.325	2.86479	11.0007936	5.0993262	-165.5734028	-69.12165312	-82.15071804
6.95	695	-0.905	0.159	0.316	1.2605076	11.1153852	2.8074942	-165.2181689	-69.21905598	-82.48876326
6.96	696	-0.887	0.146	0.299	-0.6875496	11.45916	-0.1145916	-165.1436843	-69.327918	-82.57470696
6.97	697	-0.885	0.141	0.28	-3.4950438	10.599723	-2.3491278	-165.1608731	-69.43678002	-82.5918957
6.98	698	-0.891	0.135	0.274	-4.870143	8.7662574	-3.437748	-165.2353576	-69.5284533	-82.56897738
6.99	699	-0.901	0.124	0.273	-5.2712136	6.8182002	-3.5523396	-165.3327605	-69.60293784	-82.52887032
7	700	-0.909	0.113	0.281	-5.5003968	5.3285094	-2.9793816	-165.3270309	-69.7003407	-82.58616612
7.01	701	-0.908	0.11	0.284	-5.2139178	4.9274388	-1.9480572	-165.3957859	-69.75190692	-82.56897738
7.02	702	-0.912	0.114	0.288	-4.7555514	4.8128472	-0.859437	-165.4301633	-69.79774356	-82.58043654
7.03	703	-0.919	0.122	0.292	-4.4117766	4.583664	-0.0572958	-165.4473521	-69.8435802	-82.61481402
7.04	704	-0.927	0.128	0.294	-4.010706	4.010706	0	-165.4530817	-69.87795768	-82.6491915
7.05	705	-0.932	0.133	0.292	-3.437748	3.3231564	-0.4583664	-165.189521	-69.97536054	-82.94140008
7.06	706	-0.937	0.133	0.293	-3.0939732	2.578311	-1.2032118	-165.229628	-69.99827886	-82.92421134
7.07	707	-0.941	0.129	0.3	-2.9793816	1.7761698	-2.005353	-165.298383	-70.02119718	-82.88410428
7.08	708	-0.942	0.127	0.305	-3.3231564	1.4896908	-2.6356068	-165.3957859	-70.0441155	-82.8210789
7.09	709	-0.942	0.124	0.308	-3.3231564	1.2605076	-2.9220858	-165.4931887	-70.06130424	-82.75232394
7.1	710	-0.942	0.118	0.304	-3.724227	0.859437	-2.9793816	-165.4187042	-70.11860004	-82.85545638
7.11	711	-0.941	0.12	0.303	-3.9534102	0.4583664	-2.9220858	-165.5332958	-70.1300592	-82.77524226
7.12	712	-0.942	0.118	0.299	-3.437748	0	-2.7501984	-165.6364282	-70.13578878	-82.70075772
7.13	713	-0.941	0.116	0.301	-3.6669312	-0.4583664	-2.4064236	-165.7452902	-70.14151836	-82.62627318
7.14	714	-0.94	0.116	0.3	-3.9534102	-0.7448454	-2.1772404	-165.8484227	-70.13578878	-82.55751822
7.15	715	-0.938	0.115	0.302	-3.9534102	-1.2032118	-2.1772404	-165.7739381	-70.16443668	-82.66065066
7.16	716	-0.937	0.116	0.303	-4.0680018	-1.432395	-2.1772404	-165.8828002	-70.1587071	-82.58616612
7.17	717	-0.939	0.114	0.305	-3.9534102	-1.6615782	-2.2345362	-165.9973918	-70.14724794	-82.51168158
7.18	718	-0.94	0.115	0.306	-3.6669312	-2.005353	-2.3491278	-166.1119834	-70.1300592	-82.42573788
7.19	719	-0.943	0.115	0.311	-3.437748	-2.578311	-2.4064236	-166.226575	-70.11287046	-82.33979418
7.2	720	-0.946	0.111	0.316	-3.0366774	-3.151269	-2.1772404	-166.226575	-70.10714088	-82.3627125
7.21	721	-0.95	0.103	0.327	-2.6356068	-3.8388186	-1.6615782	-166.3239778	-70.0727634	-82.28249838
7.22	722	-0.951	0.101	0.332	-2.5210152	-3.8961144	-0.9167328	-166.4041919	-70.03838592	-82.23093216
7.23	723	-0.951	0.102	0.335	-2.005353	-3.6669312	-0.1145916	-166.4500286	-70.00400844	-82.19655468
7.24	724	-0.953	0.103	0.339	-1.6042824	-3.0939732	0.6302538	-166.4729469	-69.96963096	-82.1908251
7.25	725	-0.955	0.107	0.341	-1.145916	-2.291832	1.0886202	-166.2724116	-69.94671264	-82.3913604
7.26	726	-0.956	0.109	0.345	-0.859437	-2.005353	1.3178034	-166.2609524	-69.92379432	-82.40854914
7.27	727	-0.955	0.114	0.35	-0.9167328	-1.6042824	1.2605076	-166.2437637	-69.900876	-82.43719704
7.28	728	-0.956	0.118	0.348	-0.6302538	-1.145916	1.0313244	-166.2323045	-69.88941684	-82.45438578
7.29	729	-0.957	0.121	0.345	-0.1718874	-0.7448454	0.5156622	-166.226575	-69.87795768	-82.46584494
7.3	730	-0.958	0.126	0.347	0.1145916	-0.1718874	0.1145916	-164.9202307	-69.7576365	-83.64040884
7.31	731	-0.959	0.124	0.349	0.4010706	0.572958	-0.4010706	-164.9259603	-69.76336608	-83.62894968
7.32	732	-0.957	0.119	0.35	0.5156622	1.0886202	-0.859437	-164.9316899	-69.77482524	-83.61749052
7.33	733	-0.954	0.114	0.354	0.572958	1.3178034	-0.9740286	-164.943149	-69.79201398	-83.60030178
7.34	734	-0.951	0.108	0.353	0.572958	1.6042824	-1.0886202	-164.9546082	-69.80920272	-83.58311304
7.35	735	-0.948	0.104	0.355	0.1718874	2.1772404	-0.9167328	-164.903042	-69.79201398	-83.6232201
7.36	736	-0.946	0.106	0.352	0	2.8074942	-0.6302538	-164.8973124	-69.82066188	-83.6232201
7.37	737	-0.952	0.106	0.344	0.4583664	2.9793816	-0.1718874	-164.8743941	-69.84930978	-83.64613842
7.38	738	-0.952	0.107	0.342	0.5156622	3.6669312	0	-164.8400166	-69.88368726	-83.67478632
7.39	739	-0.953	0.108	0.342	0.572958	4.583664	0.1718874	-164.79418	-69.92379432	-83.72062296
7.4	740	-0.952	0.11	0.338	0.7448454	5.3285094	0.286479	-164.6681292	-69.98109012	-83.83521456
7.41	741	-0.95	0.113	0.332	0.859437	5.7868758	0.4583664	-164.5993742	-70.03265634	-83.89823994
7.42	742	-0.948	0.115	0.326	1.0886202	5.7868758	0.4583664	-164.5306193	-70.08422256	-83.96126532
7.43	743	-0.949	0.115	0.328	0.9740286	5.443101	0.2291832	-164.4675939	-70.13578878	-84.01283154
7.44	744	-0.946	0.113	0.328	0.9167328	5.443101	0.1145916	-164.4160277	-70.187355	-84.06439776
7.45	745	-0.945	0.109	0.324	0.859437	5.3285094	0	-164.2785178	-70.25038038	-84.19044852
7.46	746	-0.946	0.107	0.322	0.6302538	5.3858052	0.0572958	-164.221222	-70.3019466	-84.24201474
7.47	747	-0.943	0.107	0.315	0.5156622	5.443101	0.1718874	-164.1696557	-70.35351282	-84.29358096
7.48	748	-0.941	0.107	0.31	0.6875496	5.3858052	0.286479	-164.1066304	-70.40507904	-84.35087676
7.49	749	-0.942	0.108	0.313	0.6302538	5.2712136	0.3437748	-164.0493346	-70.45091568	-84.40817256
7.5	750	-0.94	0.109	0.314	0.6302538	5.2712136	0.4010706	-163.9003655	-70.51394106	-84.55141206
7.51	751	-0.94	0.109	0.312	0.6302538	5.0420304	0.6302538	-163.8316105	-70.5597777	-84.61443744
7.52	752	-0.941	0.108	0.312	0.572958	4.6409598	0.859437	-163.7628556	-70.60561434	-84.6831924
7.53	753	-0.941	0.108	0.31	0.5156622	4.297185	1.0886202	-163.6941006	-70.63999182	-84.75767694
7.54	754	-0.94	0.109	0.308	0.4010706	4.010706	1.2032118	-163.6196161	-70.6743693	-84.8264319
7.55	755	-0.943	0.11	0.305	0.4010706	3.6096354	1.432395	-163.4305399	-70.7316651	-85.01550804
7.56	756	-0.943	0.111	0.306	0.4010706	3.3231564	1.5469866	-163.3560554	-70.760313	-85.08999258
7.57	757	-0.943	0.113	0.31	0.1718874	3.151269	1.5469866	-163.2815708	-70.78323132	-85.16447712
7.58	758	-0.942	0.114	0.307	0	2.9793816	1.3750992	-163.2185455	-70.80614964	-85.23323208
7.59	759	-0.944	0.113	0.309	0	2.6929026	1.3750992	-163.1555201	-70.82906796	-85.30198704
7.6	760	-0.944	0.113	0.307	-0.1145916	2.4064236	1.3750992	-162.9435256	-70.8749046	-85.50825192
7.61	761	-0.942	0.113	0.308	-0.1145916	2.1199446	1.3178034	-162.8862298	-70.89209334	-85.5712773
7.62	762	-0.941	0.114	0.308	-0.1145916	1.7761698	1.2605076	-162.8346636	-70.9035525	-85.62284352
7.63	763	-0.941	0.114	0.308	-0.1145916	1.4896908	1.3178034	-162.788827	-70.91501166	-85.68013932
7.64	764	-0.942	0.113	0.308	-0.286479	1.2605076	1.3178034	-162.7429903	-70.92074124	-85.73170554
7.65	765	-0.942	0.115	0.309	-0.4583664	1.2605076	1.2605076	-162.5252663	-70.94365956	-85.9437
7.66	766	-0.942	0.114	0.309	-0.3437748	1.2032118	1.2605076	-162.4794296	-70.94938914	-85.99526622
7.67	767	-0.943	0.115	0.31	-0.3437748	0.859437	1.3178034	-162.4393226	-70.95511872	-86.04110286
7.68	768	-0.947	0.116	0.311	-0.286479	0.6875496	1.2032118	-162.3992155	-70.9608483	-86.0869395
7.69	769	-0.948	0.116	0.312	-0.1145916	0.4583664	1.145916	-162.364838	-70.9608483	-86.12704656
7.7	770	-0.947	0.118	0.314	-0.1145916	0.4583664	1.0313244	-162.0668999	-70.94938914	-86.40779598
7.71	771	-0.946	0.117	0.316	-0.0572958	0.572958	0.9167328	-162.0325224	-70.95511872	-86.44217346
7.72	772	-0.945	0.117	0.316	0	0.6302538	0.7448454	-162.0096041	-70.95511872	-86.47082136
7.73	773	-0.946	0.116	0.316	-0.0572958	0.7448454	0.6875496	-161.9809562	-70.9608483	-86.49946926
7.74	774	-0.947	0.117	0.317	-0.1145916	0.7448454	0.6875496	-161.9580379	-70.96657788	-86.52811716
7.75	775	-0.948	0.118	0.318	-0.0572958	0.6875496	0.6875496	-161.7345842	-70.93792998	-86.72865246
7.76	776	-0.949	0.117	0.319	-0.1145916	0.6302538	0.5156622	-161.7173955	-70.94365956	-86.75730036
7.77	777	-0.949	0.117	0.32	-0.1145916	0.859437	0.6302538	-161.6887476	-70.94938914	-86.78021868
7.78	778	-0.947	0.117	0.317	0	0.859437	0.5156622	-161.6658293	-70.95511872	-86.80886658
7.79	779	-0.946	0.117	0.319	-0.1145916	0.859437	0.4010706	-161.6486405	-70.9608483	-86.8317849
7.8	780	-0.946	0.117	0.318	-0.1718874	1.0886202	0.286479	-161.4767531	-70.94938914	-86.99221314
7.81	781	-0.947	0.116	0.317	-0.1145916	1.0886202	0.2291832	-161.4595644	-70.9608483	-87.00940188
7.82	782	-0.948	0.115	0.317	-0.1145916	1.0886202	0.1718874	-161.4423757	-70.97230746	-87.02659062
7.83	783	-0.95	0.114	0.318	0	1.0313244	0.1145916	-161.4309165	-70.97803704	-87.04377936
7.84	784	-0.949	0.113	0.317	0.1718874	0.859437	0.286479	-161.4137278	-70.98376662	-87.0609681
7.85	785	-0.948	0.116	0.32	0	0.9740286	0.4583664	-161.2762178	-70.9608483	-87.18128928
7.86	786	-0.949	0.116	0.32	-0.2291832	1.145916	0.5156622	-161.2532995	-70.97230746	-87.20993718
7.87	787	-0.949	0.113	0.319	-0.572958	1.0886202	0.572958	-161.2303812	-70.97803704	-87.23858508
7.88	788	-0.946	0.113	0.319	-0.5156622	0.8021412	0.5156622	-161.2131925	-70.98376662	-87.26723298
7.89	789	-0.947	0.112	0.319	-0.572958	0.6875496	0.5156622	-161.1960037	-70.9894962	-87.2901513
7.9	790	-0.946	0.109	0.327	-0.9167328	0.859437	0.572958	-161.2131925	-70.9608483	-87.28442172
7.91	791	-0.947	0.112	0.327	-1.3750992	0.9740286	0.6875496	-161.2017333	-70.96657788	-87.31306962
7.92	792	-0.946	0.113	0.317	-1.3750992	0.6875496	0.859437	-161.1845446	-70.97230746	-87.3474471
7.93	793	-0.947	0.113	0.315	-1.0313244	0.1145916	1.0886202	-161.1616262	-70.96657788	-87.38182458
7.94	794	-0.947	0.114	0.318	-0.859437	0.4010706	1.2032118	-161.1329783	-70.96657788	-87.42193164
7.95	795	-0.948	0.116	0.319	-0.6875496	1.0313244	1.3750992	-161.0584938	-70.96657788	-87.50214576
7.96	796	-0.948	0.116	0.316	-0.4010706	1.432395	1.5469866	-161.001198	-70.97230746	-87.56517114
7.97	797	-0.947	0.117	0.315	-0.2291832	1.3750992	1.6615782	-160.9439022	-70.97803704	-87.62819652
7.98	798	-0.95	0.118	0.319	-0.286479	0.9740286	1.6615782	-160.892336	-70.98376662	-87.68549232
7.99	799	-0.951	0.118	0.324	-0.5156622	1.0313244	1.5469866	-160.8464993	-70.9894962	-87.74278812
8	800	-0.948	0.121	0.322	-0.6302538	1.3750992	1.2605076	-160.7261782	-70.97803704	-87.8631093
8.01	801	-0.946	0.125	0.315	-0.3437748	1.2605076	0.6875496	-160.6975303	-70.9894962	-87.89748678
8.02	802	-0.946	0.122	0.315	0.286479	0.1145916	-0.2291832	-160.7032598	-70.9894962	-87.8917572
8.03	803	-0.945	0.12	0.319	0.286479	0	-0.4010706	-160.7089894	-70.99522578	-87.88029804
8.04	804	-0.947	0.115	0.325	0.1718874	0.1145916	-0.5156622	-160.7204486	-70.99522578	-87.8631093
8.05	805	-0.945	0.116	0.324	0.1718874	0.6302538	-0.5156622	-160.7089894	-70.95511872	-87.8631093
8.06	806	-0.945	0.117	0.318	0.4010706	0.7448454	-0.4583664	-160.7089894	-70.9608483	-87.8631093
8.07	807	-0.945	0.118	0.317	0.4583664	0.572958	-0.4010706	-160.7089894	-70.97230746	-87.85165014
8.08	808	-0.946	0.117	0.32	0.5156622	0.4583664	-0.3437748	-160.7089894	-70.97803704	-87.84592056
8.09	809	-0.947	0.116	0.324	0.4010706	0.4583664	-0.5156622	-160.714719	-70.98376662	-87.84019098
8.1	810	-0.947	0.115	0.324	0.4010706	0.9740286	-0.3437748	-160.6860711	-70.96657788	-87.85737972
8.11	811	-0.947	0.116	0.319	0.5156622	1.3178034	-0.286479	-160.6746119	-70.97803704	-87.86883888
8.12	812	-0.947	0.118	0.315	0.6302538	1.0886202	-0.286479	-160.6631528	-70.9894962	-87.86883888
8.13	813	-0.949	0.117	0.32	0.6302538	0.9740286	-0.286479	-160.6574232	-71.00095536	-87.86883888
8.14	814	-0.948	0.117	0.322	0.286479	0.9740286	-0.4010706	-160.6516936	-71.01241452	-87.86883888
8.15	815	-0.948	0.117	0.321	0.1145916	0.9740286	-0.5156622	-160.605857	-70.99522578	-87.90894594
8.16	816	-0.945	0.117	0.316	0.3437748	0.9167328	-0.5156622	-160.6115866	-71.00668494	-87.90321636
8.17	817	-0.946	0.114	0.319	0.3437748	0.6875496	-0.4583664	-160.6115866	-71.01241452	-87.8917572
8.18	818	-0.947	0.112	0.323	0.286479	0.6875496	-0.286479	-160.6115866	-71.02387368	-87.8917572
8.19	819	-0.949	0.113	0.326	0.0572958	1.0886202	-0.1145916	-160.605857	-71.02960326	-87.89748678
8.2	820	-0.949	0.114	0.322	0	1.5469866	0	-160.5772091	-71.01241452	-87.92613468
8.21	821	-0.948	0.117	0.318	0	1.432395	0	-160.5600203	-71.02960326	-87.94332342
8.22	822	-0.948	0.116	0.318	-0.0572958	1.0886202	0.0572958	-160.5485612	-71.04106242	-87.95478258
8.23	823	-0.949	0.114	0.322	-0.0572958	0.859437	0.0572958	-160.537102	-71.046792	-87.96624174
8.24	824	-0.949	0.112	0.324	-0.4010706	1.3178034	0.1145916	-160.5256429	-71.05825116	-87.98916006
8.25	825	-0.946	0.117	0.317	-0.3437748	1.8334656	0.286479	-160.4568879	-71.06398074	-88.05218544
8.26	826	-0.945	0.118	0.312	-0.1145916	1.6615782	0.2291832	-160.4396992	-71.08116948	-88.08083334
8.27	827	-0.945	0.117	0.312	0.0572958	1.2032118	0.286479	-160.4167808	-71.08689906	-88.10375166
8.28	828	-0.945	0.117	0.315	-0.0572958	0.9167328	0.3437748	-160.3938625	-71.09835822	-88.1209404
8.29	829	-0.944	0.117	0.314	-0.1718874	0.9740286	0.286479	-160.3766738	-71.1040878	-88.14385872
8.3	830	-0.944	0.118	0.311	-0.1145916	0.859437	0.2291832	-160.2334343	-71.1040878	-88.28136864
8.31	831	-0.945	0.116	0.312	0	0.6302538	0.2291832	-160.2219751	-71.10981738	-88.2928278
8.32	832	-0.947	0.117	0.316	0.1145916	0.5156622	0.3437748	-160.2047864	-71.11554696	-88.31001654
8.33	833	-0.946	0.118	0.317	0.2291832	0.572958	0.3437748	-160.1875976	-71.11554696	-88.32720528
8.34	834	-0.945	0.12	0.314	0.1718874	0.572958	0.2291832	-160.1704089	-71.12127654	-88.34439402
8.35	835	-0.945	0.121	0.315	0.286479	0.5156622	0.0572958	-160.0500877	-71.08689906	-88.44752646
8.36	836	-0.946	0.119	0.315	0.286479	0.5156622	-0.0572958	-160.0443581	-71.09262864	-88.45325604
8.37	837	-0.946	0.116	0.317	0.1718874	0.6875496	-0.1145916	-160.0386286	-71.09835822	-88.45325604
8.38	838	-0.946	0.118	0.318	0	0.7448454	-0.0572958	-160.032899	-71.10981738	-88.45898562
8.39	839	-0.946	0.119	0.317	0.1718874	0.8021412	-0.0572958	-160.0271694	-71.11554696	-88.4647152
8.4	840	-0.946	0.118	0.314	0.2291832	0.6302538	0	-159.9412257	-71.09262864	-88.53919974
8.41	841	-0.946	0.123	0.314	0.1145916	0.3437748	0	-159.9297665	-71.09262864	-88.54492932
8.42	842	-0.949	0.121	0.314	0	-0.3437748	0	-159.9354961	-71.09262864	-88.54492932
8.43	843	-0.948	0.118	0.32	-0.3437748	-0.5156622	-0.1718874	-159.9526849	-71.08689906	-88.53347016
8.44	844	-0.943	0.119	0.32	-0.1718874	-0.572958	-0.1718874	-159.964144	-71.08116948	-88.522011
8.45	845	-0.944	0.115	0.321	-0.1718874	-0.4010706	-0.2291832	-160.0271694	-71.0181441	-88.45325604
8.46	846	-0.946	0.116	0.321	-0.859437	-0.2291832	-0.286479	-160.0500877	-71.0181441	-88.44179688
8.47	847	-0.946	0.119	0.315	-1.2032118	-0.4010706	-0.2291832	-160.073006	-71.01241452	-88.43033772
8.48	848	-0.946	0.117	0.312	-0.859437	-0.859437	0	-160.0901948	-71.00668494	-88.41887856
8.49	849	-0.946	0.115	0.315	-0.6875496	-1.4896908	0	-160.1131131	-70.9894962	-88.40168982
8.5	850	-0.945	0.117	0.313	-0.6302538	-1.145916	0.0572958	-160.0901948	-70.98376662	-88.43033772
8.51	851	-0.945	0.118	0.31	-0.3437748	-0.9167328	0.1145916	-160.0959244	-70.97230746	-88.42460814
8.52	852	-0.947	0.117	0.314	-0.1718874	-0.859437	0.2291832	-160.1016539	-70.9608483	-88.42460814
8.53	853	-0.95	0.117	0.319	-0.1718874	-0.859437	0.3437748	-160.1016539	-70.95511872	-88.42460814
8.54	854	-0.948	0.12	0.32	-0.2291832	-0.7448454	0.4583664	-160.1016539	-70.94365956	-88.43033772
8.55	855	-0.947	0.122	0.319	-0.286479	-0.6875496	0.286479	-160.032899	-70.9035525	-88.48763352
8.56	856	-0.947	0.122	0.318	-0.1718874	-0.8021412	0.1718874	-160.0443581	-70.89782292	-88.48190394
8.57	857	-0.948	0.122	0.316	-0.1145916	-0.9740286	0	-160.0558173	-70.88636376	-88.47044478
8.58	858	-0.947	0.121	0.318	0	-0.9740286	-0.2291832	-160.073006	-70.88063418	-88.45325604
8.59	859	-0.947	0.12	0.32	0	-0.9167328	-0.3437748	-160.0901948	-70.86917502	-88.43033772
8.6	860	-0.946	0.119	0.32	0	-0.8021412	-0.3437748	-160.0901948	-70.84052712	-88.43033772
8.61	861	-0.946	0.12	0.319	0.1145916	-0.6875496	-0.3437748	-160.1073835	-70.84052712	-88.4074194
8.62	862	-0.946	0.119	0.318	0.1718874	-0.572958	-0.4010706	-160.1245723	-70.83479754	-88.39023066
8.63	863	-0.946	0.119	0.321	0.0572958	-0.6875496	-0.4010706	-160.141761	-70.82906796	-88.37304192
8.64	864	-0.946	0.118	0.32	-0.1718874	-0.5156622	-0.5156622	-160.1646793	-70.82333838	-88.3501236
8.65	865	-0.945	0.119	0.317	0	-0.6302538	-0.5156622	-160.1245723	-70.8176088	-88.38450108
8.66	866	-0.945	0.118	0.316	0.1718874	-0.7448454	-0.3437748	-160.141761	-70.81187922	-88.36158276
8.67	867	-0.945	0.118	0.317	0.2291832	-0.4583664	-0.2291832	-160.1474906	-70.81187922	-88.3501236
8.68	868	-0.946	0.119	0.319	0.286479	0.1145916	-0.1145916	-160.1474906	-70.81187922	-88.3501236
8.69	869	-0.946	0.119	0.319	0.1718874	0.0572958	-0.1145916	-160.1474906	-70.81187922	-88.34439402
8.7	870	-0.947	0.118	0.32	0.1718874	0	-0.1145916	-160.1131131	-70.78323132	-88.37304192
8.71	871	-0.946	0.118	0.319	0	0	-0.1145916	-160.1188427	-70.78323132	-88.36731234
8.72	872	-0.946	0.118	0.319	-0.0572958	0	-0.1718874	-160.1245723	-70.78323132	-88.36158276
8.73	873	-0.948	0.116	0.322	-0.1718874	0.0572958	-0.1718874	-160.1303018	-70.7889609	-88.35585318
8.74	874	-0.947	0.114	0.322	-0.2291832	0.286479	-0.0572958	-160.1303018	-70.7889609	-88.36158276
8.75	875	-0.948	0.117	0.32	-0.2291832	0.4583664	0.0572958	-160.1073835	-70.78323132	-88.38450108
8.76	876	-0.948	0.118	0.319	-0.1145916	0.5156622	0.2291832	-160.0959244	-70.7889609	-88.39596024
8.77	877	-0.948	0.118	0.318	-0.2291832	0.286479	0.3437748	-160.0844652	-70.7889609	-88.4074194
8.78	878	-0.947	0.119	0.317	-0.1145916	0.1145916	0.3437748	-160.0787356	-70.7889609	-88.42460814
8.79	879	-0.946	0.119	0.319	-0.1718874	0	0.286479	-160.0672765	-70.7889609	-88.43033772
8.8	880	-0.946	0.117	0.319	-0.1718874	0.0572958	0.2291832	-160.0672765	-70.76604258	-88.4360673
8.81	881	-0.945	0.118	0.318	-0.2291832	0.1145916	0.3437748	-160.0558173	-70.76604258	-88.44752646
8.82	882	-0.947	0.118	0.32	-0.1718874	0.1145916	0.4583664	-160.0443581	-70.76604258	-88.4647152
8.83	883	-0.947	0.118	0.32	-0.1145916	0.1718874	0.572958	-160.0271694	-70.76604258	-88.48190394
8.84	884	-0.948	0.118	0.321	-0.1718874	0.1718874	0.6302538	-160.0099807	-70.76604258	-88.50482226
8.85	885	-0.948	0.121	0.321	-0.1718874	0.2291832	0.6875496	-159.9698736	-70.760313	-88.54492932
8.86	886	-0.946	0.122	0.319	-0.0572958	0.3437748	0.6302538	-159.9469553	-70.760313	-88.56784764
8.87	887	-0.946	0.123	0.319	0.1145916	0.2291832	0.4583664	-159.9297665	-70.760313	-88.58503638
8.88	888	-0.946	0.121	0.317	0	0.0572958	0.286479	-159.924037	-70.760313	-88.59649554
8.89	889	-0.945	0.121	0.316	0	-0.0572958	0.2291832	-159.9183074	-70.760313	-88.60222512
8.9	890	-0.945	0.12	0.319	-0.1718874	-0.0572958	0.1145916	-159.8724707	-70.73739468	-88.64233218
8.91	891	-0.944	0.12	0.319	-0.286479	0	0.1718874	-159.8724707	-70.7316651	-88.64806176
8.92	892	-0.943	0.12	0.314	-0.2291832	0	0.1718874	-159.8724707	-70.7316651	-88.64806176
8.93	893	-0.944	0.122	0.314	0	-0.1145916	0.1718874	-159.8667412	-70.7316651	-88.65379134
8.94	894	-0.947	0.119	0.316	0.0572958	-0.1718874	0.0572958	-159.8667412	-70.7316651	-88.65379134
8.95	895	-0.949	0.119	0.321	0.2291832	0	0.0572958	-159.8610116	-70.70874678	-88.65379134
8.96	896	-0.948	0.121	0.32	0.3437748	0.3437748	0.0572958	-159.855282	-70.71447636	-88.65952092
8.97	897	-0.947	0.123	0.316	0.5156622	0.3437748	-0.0572958	-159.8495524	-70.71447636	-88.65952092
8.98	898	-0.947	0.125	0.315	0.6875496	0.2291832	-0.286479	-159.8438228	-70.72020594	-88.65379134
8.99	899	-0.949	0.124	0.316	0.6302538	0.1145916	-0.5156622	-159.8495524	-70.72593552	-88.64233218
9	900	-0.949	0.121	0.318	0.572958	0	-0.7448454	-159.8610116	-70.72020594	-88.62514344
9.01	901	-0.945	0.118	0.322	0.5156622	-0.0572958	-0.8021412	-159.8782003	-70.72020594	-88.59649554
9.02	902	-0.943	0.118	0.32	0.6302538	0	-0.8021412	-159.8953891	-70.72593552	-88.5793068
9.03	903	-0.947	0.116	0.323	0.1718874	0.0572958	-0.8021412	-159.9125778	-70.7316651	-88.55638848
9.04	904	-0.95	0.121	0.323	-0.0572958	-0.1145916	-0.6302538	-159.9297665	-70.7316651	-88.53347016
9.05	905	-0.95	0.122	0.32	0.1718874	-0.3437748	-0.5156622	-159.9068482	-70.72020594	-88.55638848
9.06	906	-0.948	0.119	0.323	0.0572958	-0.4583664	-0.5156622	-159.924037	-70.72020594	-88.53347016
9.07	907	-0.947	0.12	0.322	0.1718874	-0.1718874	-0.572958	-159.9354961	-70.72020594	-88.51628142
9.08	908	-0.946	0.121	0.316	0.6302538	0.286479	-0.572958	-159.9469553	-70.72020594	-88.49909268
9.09	909	-0.947	0.121	0.319	0.7448454	0.8021412	-0.5156622	-159.9412257	-70.7316651	-88.4933631
9.1	910	-0.949	0.121	0.321	0.7448454	0.8021412	-0.3437748	-159.9183074	-70.7316651	-88.51055184
9.11	911	-0.951	0.122	0.323	0.6875496	0.572958	-0.4583664	-159.9183074	-70.74312426	-88.50482226
9.12	912	-0.95	0.124	0.322	0.7448454	0.572958	-0.572958	-159.9183074	-70.74885384	-88.4933631
9.13	913	-0.949	0.125	0.32	0.859437	0.7448454	-0.6875496	-159.9183074	-70.760313	-88.48190394
9.14	914	-0.948	0.124	0.32	0.9740286	0.9167328	-0.9167328	-159.9297665	-70.77177216	-88.4647152
9.15	915	-0.948	0.123	0.317	1.0313244	0.859437	-1.2032118	-159.9125778	-70.78323132	-88.4647152
9.16	916	-0.948	0.122	0.319	1.0886202	0.6302538	-1.3178034	-159.9354961	-70.79469048	-88.43033772
9.17	917	-0.948	0.123	0.32	1.0886202	0.6875496	-1.4896908	-159.9584144	-70.80614964	-88.39596024
9.18	918	-0.949	0.121	0.318	1.2605076	0.8021412	-1.718874	-159.9813328	-70.8176088	-88.35585318
9.19	919	-0.946	0.12	0.32	1.2032118	0.9740286	-1.718874	-160.0042511	-70.83479754	-88.31574612
9.2	920	-0.944	0.12	0.318	1.145916	1.0886202	-1.718874	-160.0214398	-70.8462567	-88.28709822
9.21	921	-0.946	0.118	0.316	1.0886202	0.8021412	-1.718874	-160.0500877	-70.85771586	-88.24699116
9.22	922	-0.944	0.117	0.315	1.0313244	0.6875496	-1.6615782	-160.0787356	-70.8749046	-88.2068841
9.23	923	-0.944	0.116	0.315	0.9167328	0.6302538	-1.5469866	-160.1016539	-70.88636376	-88.16677704
9.24	924	-0.946	0.116	0.315	0.859437	0.6302538	-1.432395	-160.1245723	-70.89782292	-88.13239956
9.25	925	-0.947	0.118	0.315	0.9167328	0.6875496	-1.3750992	-160.1360314	-70.9035525	-88.11521082
9.26	926	-0.945	0.117	0.316	0.9740286	0.8021412	-1.432395	-160.1532202	-70.91501166	-88.08083334
9.27	927	-0.946	0.119	0.317	0.7448454	0.8021412	-1.3750992	-160.1761385	-70.9322004	-88.04645586
9.28	928	-0.947	0.117	0.316	0.7448454	0.5156622	-1.4896908	-160.2047864	-70.93792998	-88.01207838
9.29	929	-0.945	0.115	0.317	0.6302538	0.3437748	-1.432395	-160.2334343	-70.94938914	-87.97197132
9.3	930	-0.945	0.114	0.316	0.572958	0.3437748	-1.2605076	-160.2563526	-70.95511872	-87.94332342
