TimeStamp(s)	FrameCounter	AccX	AccY	AccZ	GyrX	GyrY	GyrZ	EulerX	EulerY	EulerZ
0.01	1	0.04	-0.993	0.024	-4.6409598	-23.2620948	-0.3437748	88.15531788	10.61691174	-179.8114091
0.02	2	-0.007	-1.013	-0.008	-7.2192708	1.6615782	-0.1145916	88.08656292	10.62264132	-179.79995
0.03	3	-0.013	-1.018	-0.008	-7.2765666	1.6615782	-0.3437748	88.01207838	10.62264132	-179.7827612
0.04	4	-0.016	-1.018	-0.008	-7.734933	1.4896908	-0.5156622	87.93759384	10.6283709	-179.7655725
0.05	5	-0.015	-1.019	-0.008	-8.1360036	1.2032118	-0.6875496	87.85737972	10.39345812	-179.8744345
0.06	6	-0.014	-1.018	-0.008	-8.5370742	0.9740286	-0.7448454	87.77143602	10.3991877	-179.8629754
0.07	7	-0.011	-1.02	-0.009	-8.7662574	0.9167328	-0.6875496	87.68549232	10.40491728	-179.8572458
0.08	8	-0.009	-1.02	-0.01	-8.9954406	0.9740286	-0.6875496	87.59381904	10.41637644	-179.8457866
0.09	9	-0.007	-1.017	-0.012	-9.167328	1.0313244	-0.4583664	87.50214576	10.41637644	-179.8343275
0.1	10	-0.005	-1.014	-0.018	-9.3392154	1.145916	-0.0572958	87.4047429	10.21584114	-179.9260007
0.11	11	-0.005	-1.014	-0.018	-9.2819196	0.9740286	0.286479	87.31306962	10.21011156	-179.9145416
0.12	12	-0.006	-1.015	-0.018	-9.6829902	0.3437748	0.7448454	87.21566676	10.1986524	-179.9145416
0.13	13	-0.008	-1.018	-0.013	-10.2559482	-0.1145916	0.9167328	87.11253432	10.19292282	-179.9145416
0.14	14	-0.008	-1.017	-0.011	-11.172681	-0.4010706	1.145916	86.99794272	10.17573408	-179.9202712
0.15	15	-0.009	-1.019	-0.015	-11.6310474	-0.6302538	1.2032118	86.88335112	10.00384668	179.9947557
0.16	16	-0.01	-1.018	-0.021	-11.8029348	-0.5156622	1.145916	86.76302994	9.99238752	179.9890261
0.17	17	-0.01	-1.017	-0.026	-11.5164558	-0.572958	1.2032118	86.64843834	9.97519878	179.9832965
0.18	18	-0.011	-1.013	-0.026	-11.3445684	-0.572958	1.2605076	86.52811716	9.96373962	179.977567
0.19	19	-0.01	-1.008	-0.024	-11.745639	-0.572958	1.6042824	86.40779598	9.94655088	179.9718374
0.2	20	-0.01	-1.007	-0.024	-12.0894138	-0.6302538	1.6615782	86.29893396	9.78039306	179.9030824
0.21	21	-0.009	-1.008	-0.025	-12.3758928	-0.7448454	1.718874	86.16715362	9.76320432	179.8973528
0.22	22	-0.01	-1.013	-0.029	-12.9488508	-1.0313244	1.8334656	86.03537328	9.74601558	179.8858937
0.23	23	-0.01	-1.015	-0.031	-13.6936962	-1.6042824	1.8907614	85.89213378	9.72309726	179.8687049
0.24	24	-0.012	-1.019	-0.036	-14.3812458	-2.1772404	2.005353	85.7431647	9.70017894	179.8457866
0.25	25	-0.014	-1.017	-0.039	-14.9542038	-2.5210152	2.005353	85.59419562	9.5683986	179.7713021
0.26	26	-0.018	-1.017	-0.042	-15.0114996	-2.4637194	2.0626488	85.43949696	9.54548028	179.7483838
0.27	27	-0.02	-1.018	-0.038	-15.0687954	-2.3491278	2.2345362	85.2847983	9.52256196	179.7254654
0.28	28	-0.02	-1.018	-0.037	-15.6417534	-2.1772404	2.578311	85.11864048	9.49391406	179.7025471
0.29	29	-0.017	-1.013	-0.04	-15.8709366	-1.9480572	2.6929026	84.95248266	9.46526616	179.6796288
0.3	30	-0.016	-1.007	-0.047	-15.9282324	-2.0626488	2.7501984	84.797784	9.33348582	179.6166034
0.31	31	-0.014	-1.007	-0.052	-15.6990492	-2.578311	2.5210152	84.63735576	9.30483792	179.5936851
0.32	32	-0.017	-1.011	-0.049	-15.1260912	-2.6929026	2.1772404	84.47692752	9.27619002	179.5650372
0.33	33	-0.017	-1.01	-0.045	-16.5011904	-2.1772404	1.8334656	84.30504012	9.25900128	179.5478485
0.34	34	-0.017	-1.009	-0.046	-17.5325148	-1.7761698	1.6042824	84.12742314	9.23608296	179.5249301
0.35	35	-0.02	-1.006	-0.051	-17.761698	-1.5469866	1.3750992	83.95553574	9.11576178	179.4733639
0.36	36	-0.02	-1.001	-0.06	-17.3033316	-1.2605076	1.2032118	83.77791876	9.10430262	179.4561752
0.37	37	-0.02	-0.996	-0.066	-16.7876694	-1.3178034	1.3178034	83.60603136	9.08711388	179.444716
0.38	38	-0.019	-0.994	-0.067	-16.3865988	-1.6042824	1.2032118	83.43987354	9.06992514	179.4275273
0.39	39	-0.02	-0.993	-0.068	-16.615782	-1.718874	1.145916	83.26798614	9.05846598	179.4103385
0.4	40	-0.022	-0.993	-0.073	-16.9595568	-1.8907614	0.9167328	83.10182832	8.9381448	179.3473132
0.41	41	-0.024	-0.995	-0.076	-17.1314442	-1.8334656	0.572958	82.92421134	8.93241522	179.3243948
0.42	42	-0.024	-0.998	-0.074	-16.8449652	-1.8334656	0.1718874	82.75232394	8.92668564	179.3072061
0.43	43	-0.025	-1	-0.072	-16.6730778	-1.6042824	-0.0572958	82.58043654	8.92095606	179.2900174
0.44	44	-0.025	-0.996	-0.075	-16.3865988	-1.4896908	-0.0572958	82.40854914	8.92095606	179.2728286
0.45	45	-0.026	-0.996	-0.074	-16.5011904	-1.3750992	-0.0572958	82.26530964	8.80063488	179.2155328
0.46	46	-0.025	-0.996	-0.076	-16.902261	-0.9167328	-0.1718874	82.09342224	8.80063488	179.2040737
0.47	47	-0.023	-0.991	-0.077	-16.6730778	-0.3437748	-0.1145916	81.92153484	8.80063488	179.1983441
0.48	48	-0.022	-0.986	-0.075	-16.1001198	0.1145916	-0.2291832	81.75537702	8.80063488	179.1983441
0.49	49	-0.023	-0.989	-0.073	-15.2979786	0.3437748	-0.572958	81.60067836	8.80636446	179.1983441
0.5	50	-0.023	-0.99	-0.076	-14.7250206	0.7448454	-0.859437	81.48608676	8.69177286	179.1639666
0.51	51	-0.025	-0.987	-0.084	-14.9542038	0.9167328	-1.0313244	81.3313881	8.69750244	179.1696962
0.52	52	-0.028	-0.984	-0.085	-14.9542038	0.9740286	-0.9167328	81.18241902	8.7089616	179.1754258
0.53	53	-0.031	-0.989	-0.081	-14.6677248	1.2605076	-0.6875496	81.03344994	8.71469118	179.1868849
0.54	54	-0.032	-0.994	-0.083	-14.8396122	2.0626488	-0.4010706	80.88448086	8.72042076	179.2040737
0.55	55	-0.032	-0.995	-0.088	-14.8396122	3.151269	-0.0572958	80.76988926	8.60582916	179.1983441
0.56	56	-0.03	-0.994	-0.094	-14.4958374	4.2398892	0.0572958	80.62664976	8.61155874	179.2384511
0.57	57	-0.029	-0.991	-0.096	-14.0947668	4.870143	0.2291832	80.48913984	8.61155874	179.2842878
0.58	58	-0.026	-0.987	-0.099	-14.2093584	5.0993262	0.6302538	80.35162992	8.61155874	179.335854
0.59	59	-0.021	-0.983	-0.103	-14.4958374	5.3285094	1.0313244	80.21412	8.60582916	179.3874202
0.6	60	-0.019	-0.981	-0.108	-14.32395	5.0993262	1.3750992	80.09379882	8.5084263	179.4103385
0.61	61	-0.017	-0.98	-0.118	-13.9801752	5.156622	1.6615782	79.9562889	8.49696714	179.4619048
0.62	62	-0.013	-0.981	-0.125	-13.6364004	5.5003968	2.005353	79.82450856	8.48550798	179.5192006
0.63	63	-0.009	-0.978	-0.128	-13.6936962	6.2452422	2.1199446	79.69272822	8.47404882	179.5822259
0.64	64	-0.005	-0.973	-0.137	-13.8655836	6.8182002	2.4064236	79.56094788	8.45686008	179.6567105
0.65	65	-0.003	-0.968	-0.14	-13.750992	6.9900876	2.7501984	79.4406267	8.3651868	179.6968175
0.66	66	0	-0.958	-0.138	-13.6936962	6.4744254	3.3804522	79.30884636	8.34226848	179.7655725
0.67	67	0.001	-0.954	-0.141	-13.5791046	5.5576926	4.297185	79.1827956	8.307891	179.8285979
0.68	68	0.005	-0.948	-0.145	-13.9228794	3.724227	4.870143	79.04528568	8.26205436	179.8744345
0.69	69	0.007	-0.949	-0.149	-13.464513	2.1199446	5.2139178	78.91350534	8.21621772	179.9030824
0.7	70	0.005	-0.949	-0.15	-12.605076	0.7448454	5.2139178	78.79318416	8.0787078	179.8916233
0.71	71	0.004	-0.946	-0.149	-12.2040054	-0.286479	4.9847346	78.67286298	8.02714158	179.8973528
0.72	72	0.001	-0.95	-0.149	-12.1467096	-1.2032118	4.6982556	78.54681222	7.98130494	179.8916233
0.73	73	-0.002	-0.955	-0.146	-12.0894138	-2.1772404	4.4690724	78.42649104	7.92973872	179.8744345
0.74	74	-0.003	-0.961	-0.152	-11.8602306	-2.7501984	4.1252976	78.30044028	7.88390208	179.8572458
0.75	75	-0.003	-0.963	-0.159	-11.0580894	-3.4950438	3.9534102	78.19730784	7.75212174	179.79995
0.76	76	-0.007	-0.97	-0.162	-9.7975818	-4.297185	3.6669312	78.0941754	7.7062851	179.7598429
0.77	77	-0.013	-0.968	-0.163	-9.5683986	-4.6982556	3.437748	77.99104296	7.66617804	179.7197359
0.78	78	-0.017	-0.971	-0.166	-9.3392154	-4.7555514	3.2658606	77.88791052	7.6203414	179.6796288
0.79	79	-0.019	-0.979	-0.164	-8.9381448	-4.870143	2.9220858	77.79050766	7.58596392	179.6395217
0.8	80	-0.02	-0.987	-0.163	-8.4797784	-4.9274388	2.578311	77.7217527	7.43699484	179.553578
0.81	81	-0.018	-0.992	-0.165	-8.0787078	-5.6149884	2.6929026	77.635809	7.39688778	179.5020118
0.82	82	-0.016	-0.993	-0.165	-7.9641162	-6.2452422	2.8074942	77.54413572	7.3625103	179.4504456
0.83	83	-0.017	-0.989	-0.168	-7.734933	-6.875496	3.0366774	77.45819202	7.31667366	179.3874202
0.84	84	-0.025	-0.98	-0.167	-7.734933	-8.1360036	3.0939732	77.37224832	7.27083702	179.3129357
0.85	85	-0.035	-0.97	-0.162	-7.3911582	-8.3651868	2.578311	77.30922294	7.12186794	179.1983441
0.86	86	-0.044	-0.965	-0.16	-7.734933	-8.021412	1.4896908	77.22327924	7.08749046	179.1238595
0.87	87	-0.049	-0.962	-0.162	-7.9641162	-7.734933	0.1718874	77.13160596	7.07030172	179.0436454
0.88	88	-0.05	-0.967	-0.169	-7.5630456	-7.734933	-0.859437	77.04566226	7.06457214	178.9691609
0.89	89	-0.05	-0.979	-0.165	-7.6776372	-7.7922288	-2.005353	76.95971856	7.07030172	178.8832172
0.9	90	-0.047	-0.99	-0.156	-7.1046792	-7.5057498	-2.9220858	76.91388192	6.96716928	178.7686256
0.91	91	-0.043	-0.993	-0.152	-7.5057498	-6.8182002	-3.3804522	76.82793822	6.98435802	178.694141
0.92	92	-0.039	-0.985	-0.145	-8.307891	-5.9014674	-3.6096354	76.73626494	7.00727634	178.6253861
0.93	93	-0.036	-0.982	-0.145	-7.6776372	-5.2139178	-3.0366774	76.65032124	7.02446508	178.5680903
0.94	94	-0.033	-0.979	-0.143	-7.0473834	-4.7555514	-2.4064236	76.57010712	7.04165382	178.5165241
0.95	95	-0.032	-0.976	-0.141	-7.734933	-4.4690724	-1.2605076	76.55291838	6.9041439	178.4363099
0.96	96	-0.034	-0.977	-0.135	-7.6203414	-4.583664	0	76.47270426	6.89268474	178.3904733
0.97	97	-0.037	-0.979	-0.134	-7.3338624	-4.9847346	1.3178034	76.39249014	6.86976642	178.3446367
0.98	98	-0.037	-0.983	-0.136	-7.2192708	-5.0420304	2.291832	76.31227602	6.83538894	178.2988
0.99	99	-0.037	-0.992	-0.13	-6.9327918	-5.443101	2.86479	76.23779148	6.79528188	178.2529634
1	100	-0.035	-1.003	-0.126	-6.7036086	-6.4744254	3.151269	76.2320619	6.6463128	178.1727493
1.01	101	-0.029	-1.008	-0.133	-6.5317212	-7.2192708	2.6929026	76.15757736	6.60047616	178.1097239
1.02	102	-0.026	-1.013	-0.136	-5.9014674	-8.1932994	1.5469866	76.0888224	6.56609868	178.0352393
1.03	103	-0.026	-1.012	-0.131	-5.72958	-8.9381448	0.0572958	76.02579702	6.54890994	177.9435661
1.04	104	-0.025	-1.014	-0.13	-5.5576926	-9.6829902	-1.432395	75.95704206	6.54318036	177.8461632
1.05	105	-0.025	-1.01	-0.131	-5.2712136	-10.026765	-2.8074942	75.95131248	6.45723666	177.725842
1.06	106	-0.03	-1	-0.124	-4.6409598	-10.1986524	-3.4950438	75.89401668	6.46869582	177.61698
1.07	107	-0.032	-0.993	-0.123	-4.0680018	-10.3705398	-3.6096354	75.84245046	6.48588456	177.508118
1.08	108	-0.034	-0.984	-0.126	-4.3544808	-10.4851314	-3.151269	75.78515466	6.49161414	177.399256
1.09	109	-0.036	-0.985	-0.127	-4.1825934	-10.5424272	-2.4637194	75.73358844	6.49161414	177.2903939
1.1	110	-0.036	-0.988	-0.125	-3.5523396	-10.4278356	-1.4896908	75.76223634	6.36556338	177.1643432
1.11	111	-0.037	-0.997	-0.128	-3.2085648	-10.313244	-0.8021412	75.72212928	6.34837464	177.0612107
1.12	112	-0.04	-1.003	-0.124	-2.9220858	-10.313244	-0.4010706	75.68202222	6.3311859	176.9580783
1.13	113	-0.044	-1.005	-0.114	-2.1199446	-10.1986524	-0.2291832	75.64764474	6.31399716	176.8606754
1.14	114	-0.046	-1.007	-0.114	-1.9480572	-9.740286	-0.572958	75.61899684	6.29680842	176.7632726
1.15	115	-0.048	-1	-0.111	-2.2345362	-9.167328	-1.0886202	75.70494054	6.13638018	176.6429514
1.16	116	-0.046	-0.996	-0.111	-1.8907614	-8.1932994	-1.3750992	75.67629264	6.1306506	176.5570077
1.17	117	-0.041	-0.996	-0.113	-1.3750992	-8.021412	-1.3750992	75.65337432	6.12492102	176.4767936
1.18	118	-0.033	-0.997	-0.11	-0.6302538	-7.734933	-1.0313244	75.64191516	6.11919144	176.402309
1.19	119	-0.028	-0.999	-0.114	-0.1718874	-7.7922288	-0.6302538	75.630456	6.10773228	176.3220949
1.2	120	-0.026	-1.004	-0.112	0.4010706	-8.1360036	-0.3437748	75.77942508	5.9301153	176.2189625
1.21	121	-0.031	-1.02	-0.112	0.572958	-8.3651868	-0.1718874	75.7736955	5.91292656	176.1387484
1.22	122	-0.036	-1.037	-0.111	0.4010706	-8.6516658	-0.2291832	75.7736955	5.89573782	176.0528047
1.23	123	-0.041	-1.049	-0.106	-0.286479	-8.7089616	-0.3437748	75.76223634	5.87854908	175.966861
1.24	124	-0.045	-1.048	-0.105	-1.145916	-8.7662574	-0.3437748	75.73931802	5.86708992	175.8809173
1.25	125	-0.04	-1.045	-0.1	-2.005353	-8.8235532	-0.2291832	75.84245046	5.71812084	175.7777848
1.26	126	-0.031	-1.046	-0.099	-3.3231564	-8.7662574	0.1145916	75.8023434	5.69520252	175.6918411
1.27	127	-0.021	-1.051	-0.101	-4.4690724	-8.4797784	0.572958	75.7450476	5.6722842	175.611627
1.28	128	-0.018	-1.064	-0.107	-6.1306506	-8.3651868	0.5156622	75.67629264	5.64936588	175.5314129
1.29	129	-0.019	-1.076	-0.117	-7.7922288	-8.1932994	0	75.59034894	5.63217714	175.4511988
1.3	130	-0.028	-1.085	-0.122	-8.59437	-7.8495246	-0.859437	75.56170104	5.55196302	175.3652551
1.31	131	-0.037	-1.092	-0.122	-9.2246238	-7.161975	-1.9480572	75.4585686	5.5576926	175.2850409
1.32	132	-0.039	-1.092	-0.123	-10.2559482	-6.4171296	-2.578311	75.34970658	5.56342218	175.216286
1.33	133	-0.033	-1.091	-0.121	-11.745639	-6.1306506	-2.86479	75.22365582	5.58061092	175.147531
1.34	134	-0.016	-1.089	-0.121	-13.6936962	-6.016059	-3.151269	75.08041632	5.59207008	175.0787761
1.35	135	0	-1.081	-0.13	-14.7250206	-6.7036086	-3.2658606	74.9715543	5.57488134	175.0042915
1.36	136	0.016	-1.074	-0.134	-16.1001198	-7.3911582	-3.3231564	74.7996669	5.5863405	174.9240774
1.37	137	0.024	-1.058	-0.142	-17.475219	-8.9381448	-3.3231564	74.61632034	5.59779966	174.8266745
1.38	138	0.029	-1.048	-0.139	-17.8189938	-10.7143146	-3.437748	74.42151462	5.60352924	174.7120829
1.39	139	0.027	-1.042	-0.138	-19.2513888	-11.2872726	-4.1252976	74.21524974	5.6149884	174.5917618
1.4	140	0.016	-1.034	-0.132	-21.0848544	-11.4018642	-5.2712136	74.03190318	5.60925882	174.465711
1.41	141	0.003	-1.02	-0.131	-21.8869956	-11.5164558	-6.4744254	73.7969904	5.63790672	174.3339307
1.42	142	-0.012	-0.997	-0.142	-21.8869956	-11.5164558	-7.6776372	73.56207762	5.68374336	174.2021503
1.43	143	-0.025	-0.972	-0.132	-21.3713334	-11.172681	-8.8235532	73.33289442	5.73530958	174.0646404
1.44	144	-0.031	-0.944	-0.129	-20.2827132	-10.9434978	-9.167328	73.11517038	5.79260538	173.9328601
1.45	145	-0.03	-0.913	-0.13	-18.621135	-9.8548776	-9.1100322	72.95474214	5.8155237	173.8068093
1.46	146	-0.025	-0.892	-0.128	-16.2720072	-8.7089616	-8.7662574	72.77712516	5.8728195	173.6922177
1.47	147	-0.011	-0.88	-0.122	-15.3552744	-7.5057498	-8.307891	72.61096734	5.9301153	173.5948148
1.48	148	-0.004	-0.885	-0.115	-15.469866	-5.6722842	-8.5370742	72.44480952	5.99314068	173.5146007
1.49	149	-0.006	-0.884	-0.104	-14.8396122	-4.6409598	-8.6516658	72.29011086	6.06189564	173.4458458
1.5	150	-0.016	-0.889	-0.103	-13.0061466	-2.9220858	-8.307891	72.2213559	6.08481396	173.3828204
1.51	151	-0.025	-0.877	-0.098	-10.7716104	-1.3178034	-7.6203414	72.1067643	6.14783934	173.3484429
1.52	152	-0.027	-0.865	-0.086	-7.7922288	0	-6.1879464	72.02655018	6.20513514	173.3312542
1.53	153	-0.035	-0.862	-0.068	-4.7555514	1.0886202	-4.5263682	71.97498396	6.25097178	173.3255246
1.54	154	-0.04	-0.864	-0.033	-1.4896908	2.86479	-2.9793816	71.9635248	6.29107884	173.3427133
1.55	155	-0.053	-0.872	-0.02	0.3437748	5.2139178	-1.4896908	72.14114178	6.21086472	173.3770908
1.56	156	-0.068	-0.866	-0.016	2.0626488	8.0787078	-0.0572958	72.16978968	6.23378304	173.4573049
1.57	157	-0.086	-0.869	-0.003	5.5003968	10.3705398	1.145916	72.23281506	6.25097178	173.5604374
1.58	158	-0.103	-0.879	0.014	9.9694692	12.3758928	2.2345362	72.34740666	6.26243094	173.6864881
1.59	159	-0.118	-0.888	0.027	13.8655836	14.32395	3.2658606	72.50210532	6.2738901	173.8354572
1.6	160	-0.125	-0.902	0.035	17.761698	16.6730778	4.010706	72.78285474	6.22232388	173.9958854
1.61	161	-0.125	-0.914	0.038	20.6837838	19.4232762	4.8128472	73.01203794	6.22805346	174.2021503
1.62	162	-0.116	-0.914	0.041	23.777757	21.3713334	5.6722842	73.27559862	6.23378304	174.4256039
1.63	163	-0.091	-0.911	0.055	27.7311672	23.8350528	6.4171296	73.57926636	6.23378304	174.6719759
1.64	164	-0.06	-0.902	0.061	33.4034514	25.5539268	6.875496	73.94595948	6.23951262	174.9412661
1.65	165	-0.041	-0.906	0.071	38.2162986	25.7258142	7.2192708	74.41005546	6.2165943	175.2105564
1.66	166	-0.027	-0.919	0.066	41.7113424	24.9809688	6.9900876	74.8569627	6.21086472	175.4741171
1.67	167	-0.026	-0.927	0.065	44.0604702	23.2620948	6.589017	75.32678826	6.20513514	175.720489
1.68	168	-0.028	-0.932	0.065	43.831287	21.2567418	5.9587632	75.79661382	6.19940556	175.9496722
1.69	169	-0.024	-0.92	0.066	44.5188366	19.194093	5.5003968	76.26643938	6.19367598	176.1502075
1.7	170	-0.024	-0.905	0.075	46.0085274	17.761698	4.9847346	76.79929032	6.16502808	176.3392837
1.71	171	-0.019	-0.883	0.075	47.2117392	17.0168526	4.1252976	77.29776378	6.16502808	176.5226302
1.72	172	-0.017	-0.84	0.067	50.420304	16.042824	2.9793816	77.82488514	6.17075766	176.688788
1.73	173	-0.018	-0.824	0.052	54.2018268	15.6990492	1.6042824	78.39211356	6.1879464	176.8492163
1.74	174	-0.018	-0.806	0.044	56.436363	16.4438946	0.1718874	78.97653072	6.2165943	177.0211037
1.75	175	-0.018	-0.759	0.037	57.7541664	17.475219	-0.2291832	79.60105494	6.23951262	177.1987207
1.76	176	-0.024	-0.717	0.023	61.020027	18.2773602	0.2291832	80.23703832	6.26816052	177.3820672
1.77	177	-0.038	-0.689	0.007	65.0880288	18.2773602	1.3178034	80.91885834	6.28534926	177.5711434
1.78	178	-0.054	-0.665	0.007	67.2652692	18.1054728	2.6929026	81.6178671	6.29107884	177.7602195
1.79	179	-0.08	-0.665	0.014	68.5257768	17.6471064	4.9847346	82.3340646	6.26816052	177.9492956
1.8	180	-0.096	-0.686	0.019	69.5571012	17.5898106	6.7609044	83.06745084	6.20513514	178.1383718
1.81	181	-0.093	-0.679	0.022	71.046792	19.4232762	8.3651868	83.81229624	6.14210976	178.3446367
1.82	182	-0.087	-0.65	0.021	71.9635248	22.2880662	9.5683986	84.56287122	6.0733548	178.585279
1.83	183	-0.076	-0.62	0.005	71.5051584	25.2674478	9.6256944	85.3134462	5.99887026	178.8488397
1.84	184	-0.072	-0.588	-0.018	68.0101146	27.6165756	9.0527364	86.0296437	5.9301153	179.1410483
1.85	185	-0.072	-0.564	-0.033	63.884817	29.220858	8.8235532	86.70573414	5.8441716	179.4389864
1.86	186	-0.071	-0.549	-0.054	61.020027	29.3354496	8.9381448	87.3474471	5.76395748	179.7426542
1.87	187	-0.063	-0.546	-0.053	59.7022236	27.1009134	9.740286	87.9777009	5.67801378	-179.9718374
1.88	188	-0.038	-0.567	-0.031	58.7854908	24.2361234	10.8289062	88.59649554	5.57488134	-179.7254654
1.89	189	0.002	-0.609	0.001	60.1032942	23.204799	11.9175264	89.22674934	5.46028974	-179.4848231
1.9	190	0.034	-0.639	0.041	58.7854908	22.8037284	13.464513	89.85127356	5.32277982	-179.2499103
1.91	191	0.056	-0.668	0.065	55.0612638	22.1734746	15.756345	90.42423156	5.16808116	-179.0264567
1.92	192	0.06	-0.677	0.061	46.5814854	19.5951636	18.5638392	90.91697544	4.97900502	-178.8259214
1.93	193	0.056	-0.675	0.056	38.4454818	15.6417534	21.5432208	91.31804604	4.76128098	-178.6712227
1.94	194	0.056	-0.676	0.057	37.1276784	12.9488508	24.2361234	91.7019279	4.51490904	-178.545172
1.95	195	0.04	-0.702	0.056	41.6540466	11.2299768	26.642547	92.13737598	4.24561878	-178.4363099
1.96	196	0.04	-0.747	0.111	44.8053156	6.6463128	28.074942	92.59574238	3.96486936	-178.3790141
1.97	197	0.051	-0.773	0.174	40.6227222	0.3437748	27.788463	93.00827214	3.68984952	-178.3847437
1.98	198	0.096	-0.777	0.212	35.523396	-4.7555514	25.496631	93.3635061	3.44347758	-178.4420395
1.99	199	0.098	-0.782	0.21	26.069589	-9.6256944	22.4599536	93.62706678	3.23148312	-178.5509015
2	200	0.047	-0.803	0.205	11.5737516	-13.750992	19.5951636	93.77603586	3.04813656	-178.694141
2.01	201	-0.013	-0.823	0.244	-4.870143	-16.329303	17.5325148	93.71874006	2.88770832	-178.8660284
2.02	202	-0.056	-0.861	0.276	-18.4492476	-16.042824	16.615782	93.52966392	2.73873924	-179.0379158
2.03	203	-0.077	-0.925	0.311	-32.8304934	-14.4958374	14.7250206	93.18588912	2.60122932	-179.1926145
2.04	204	-0.073	-0.937	0.34	-50.2484166	-10.0840608	11.0580894	92.6759565	2.49809688	-179.3072061
2.05	205	-0.094	-0.92	0.349	-65.7182826	-5.9014674	6.5317212	92.05143228	2.4064236	-179.3759611
2.06	206	-0.12	-0.893	0.305	-69.041439	-2.4637194	1.2605076	91.34669394	2.38923486	-179.4103385
2.07	207	-0.108	-0.885	0.31	-67.036086	-1.8907614	-1.718874	90.66487392	2.4064236	-179.4389864
2.08	208	-0.116	-0.89	0.278	-73.1667366	-2.4064236	-3.0939732	89.9257581	2.42934192	-179.4676343
2.09	209	-0.174	-0.913	0.282	-82.1621772	-3.8961144	-2.8074942	89.08923942	2.45226024	-179.5192006
2.1	210	-0.266	-0.97	0.299	-97.2309726	-4.1252976	-2.1772404	88.13239956	2.42934192	-179.5764964
2.11	211	-0.329	-1.098	0.266	-116.8261362	-0.3437748	-5.156622	86.94064692	2.47517856	-179.5936851
2.12	212	-0.296	-1.308	0.147	-135.4472712	8.5370742	-13.0061466	85.5712773	2.59549974	-179.5363893
2.13	213	-0.289	-1.688	0.012	-152.5214196	14.4385416	-25.6112226	84.0242907	2.84187168	-179.4332569
2.14	214	-0.373	-2.255	-0.154	-176.4137682	22.1734746	-43.4302164	82.23666174	3.27731976	-179.2842878
2.15	215	-0.453	-2.787	-0.454	-205.4627388	27.6165756	-57.9260538	80.1568242	3.85600734	-179.11813
2.16	216	-0.281	-3.021	-0.505	-203.4573858	32.5440144	-66.8069028	78.09990498	4.54355694	-178.940513
2.17	217	-0.055	-2.935	-0.376	-193.659804	41.9978214	-56.9520252	76.15184778	5.156622	-178.6769523
2.18	218	0.222	-2.788	-0.538	-168.6215394	44.5188366	-37.9871154	74.46162168	5.60352924	-178.3560958
2.19	219	0.269	-2.509	-0.721	-119.2325598	36.7839036	-18.3919518	73.27559862	5.85563076	-178.0638872
2.2	220	0.1	-2.397	-0.416	-113.732163	32.4294228	-16.1574156	72.14687136	6.08481396	-177.8117857
2.21	221	-0.092	-2.264	-0.336	-131.493861	25.3247436	-23.777757	70.82333838	6.36556338	-177.6570871
2.22	222	-0.187	-2.198	-0.439	-145.9896984	23.6058696	-32.7159018	69.35083632	6.72652692	-177.5539546
2.23	223	-0.162	-2.103	-0.493	-140.8903722	28.5906042	-35.3515086	67.92990048	7.1333271	-177.4279039
2.24	224	-0.035	-1.901	-0.424	-132.4678896	31.3408026	-29.3354496	66.6063675	7.50002022	-177.2560165
2.25	225	0.09	-1.586	-0.382	-140.4893016	28.7051958	-19.5951636	65.2026204	7.76931048	-177.0783995
2.26	226	0.152	-1.251	-0.399	-156.131055	22.2880662	-12.2613012	63.63271548	7.94692746	-176.9408896
2.27	227	0.156	-0.915	-0.414	-163.29303	17.475219	-5.443101	61.9940556	8.0500599	-176.8205684
2.28	228	0.073	-0.756	-0.363	-165.4129746	13.9801752	-0.9167328	60.32674782	8.10162612	-176.7059768
2.29	229	-0.014	-0.664	-0.303	-168.9080184	11.1153852	2.1199446	58.62506256	8.11308528	-176.6085739
2.3	230	-0.099	-0.617	-0.23	-172.8041328	8.0787078	4.5263682	56.8947294	8.0787078	-176.5283598
2.31	231	-0.184	-0.566	-0.172	-179.622333	8.7662574	4.9274388	55.08418212	8.06151906	-176.4366865
2.32	232	-0.19	-0.496	-0.146	-182.200644	10.8289062	3.724227	53.24498694	8.06724864	-176.3335541
2.33	233	-0.186	-0.476	-0.081	-178.5910086	11.9748222	-2.9793816	51.44016924	8.1360036	-176.2590695
2.34	234	-0.059	-0.432	0.041	-189.1907316	11.5737516	-12.1467096	49.52075994	8.27351352	-176.25334
2.35	235	0.036	-0.334	0.073	-208.6140078	14.2093584	-18.7930224	47.41800408	8.4797784	-176.2762583
2.36	236	0.091	-0.21	0.047	-218.9845476	19.8243468	-24.5226024	45.18919746	8.76052782	-176.3049062
2.37	237	0.105	-0.102	-0.033	-207.7545708	24.8090814	-25.6685184	43.07498244	9.0813843	-176.3163653
2.38	238	0.073	-0.043	-0.038	-184.5497718	27.3873924	-25.1528562	41.1956802	9.41942952	-176.3163653
2.39	239	0.014	-0.082	0.019	-181.3985028	26.7571386	-26.5279554	39.34502586	9.76320432	-176.3450132
2.4	240	-0.059	-0.137	0.122	-183.2319684	23.9496444	-28.934379	37.49437152	10.08979038	-176.4309569
2.41	241	-0.079	-0.203	0.135	-195.8943402	22.631841	-30.5959572	35.48328894	10.41637644	-176.539819
2.42	242	-0.083	-0.341	0.034	-194.9776074	19.6524594	-37.24227	33.4607472	10.76015124	-176.7346247
2.43	243	-0.072	-0.477	0.01	-181.2839112	16.2147114	-43.3156248	31.5699858	11.09819646	-177.0096445
2.44	244	-0.01	-0.601	0.05	-160.714719	13.8082878	-47.8992888	29.86830054	11.43624168	-177.3476897
2.45	245	0.029	-0.62	0.048	-144.671895	12.2613012	-49.3316838	28.361421	11.75709816	-177.7201124
2.46	246	0.07	-0.538	0.022	-135.7337502	10.313244	-47.841993	26.90610768	12.04930674	-178.0982647
2.47	247	0.074	-0.43	0	-134.4159468	5.6149884	-43.258329	25.46225352	12.27276036	-178.4592283
2.48	248	0.09	-0.325	-0.001	-134.1294678	0.4583664	-36.2682414	24.02985852	12.41027028	-178.7915439
2.49	249	0.133	-0.288	0.115	-138.4266528	-4.6409598	-29.6219286	22.56308604	12.46756608	-179.0837525
2.5	250	0.136	-0.254	0.035	-147.8804598	-12.032118	-23.4339822	21.0275586	12.4331886	-179.3473132
2.51	251	0.109	-0.293	0.032	-159.6260988	-21.6005166	-18.6784308	19.35452124	12.27848994	-179.5994147
2.52	252	0.066	-0.363	0.106	-173.6635698	-30.080295	-17.3606274	17.53824438	12.02638842	-179.8629754
2.53	253	0.023	-0.388	0.107	-184.2632928	-30.080295	-19.0222056	15.61883508	11.7742869	179.8572458
2.54	254	-0.143	-0.34	0.058	-191.8263384	-25.78311	-16.2720072	13.63067082	11.5451037	179.6337922
2.55	255	-0.338	-0.229	-0.101	-197.2694394	-13.3499214	-5.9014674	11.62531782	11.3732163	179.5363893
2.56	256	-0.514	-0.112	-0.565	-190.0501686	4.9847346	3.0366774	9.70590852	11.39040504	179.5879555
2.57	257	-0.599	0.081	-0.97	-158.709366	16.2720072	3.9534102	8.1073557	11.52218538	179.6681696
2.58	258	-0.646	0.212	-0.79	-123.4151532	13.5218088	-5.7868758	6.8468481	11.64823614	179.6395217
2.59	259	-0.44	0.488	-0.661	-110.1225276	15.8709366	-22.1734746	5.68947294	11.81439396	179.444716
2.6	260	-0.096	0.637	-0.724	-101.986524	21.8296998	-25.5539268	4.53782736	12.02638842	179.1811553
2.61	261	0.13	0.644	-0.761	-104.6221308	24.6944898	-18.2773602	3.437748	12.26703078	179.0264567
2.62	262	0.273	0.624	-0.865	-104.564835	24.064236	-10.026765	2.35485738	12.49621398	178.9519721
2.63	263	0.33	0.723	-1.012	-91.100322	20.9702628	-2.2345362	1.42666542	12.69674928	178.9519721
2.64	264	0.34	0.911	-1.179	-62.452422	10.7143146	0.8021412	0.79641162	12.79415214	178.9691609
2.65	265	0.429	0.989	-1.105	-25.3247436	-2.86479	-2.6929026	0.48128472	12.77123382	178.9175947
2.66	266	0.494	1.092	-1.04	3.9534102	-13.6364004	-11.9175264	0.49847346	12.63945348	178.7915439
2.67	267	0.701	1.042	-1.112	10.8289062	-27.2728008	-17.9335854	0.56722842	12.3758928	178.5967382
2.68	268	0.747	0.838	-1.272	-1.6615782	-47.0398518	-6.4171296	0.53858052	11.91179682	178.5107945
2.69	269	0.627	0.433	-1.416	13.0061466	-54.0299394	9.3965112	0.69327918	11.3732163	178.585279
2.7	270	0.426	0.057	-1.567	32.7731976	-56.3790672	21.772404	1.07143146	10.81744704	178.7800847
2.71	271	0.43	-0.046	-1.72	40.7946096	-55.1185596	25.9549974	1.53552744	10.27313694	179.0092679
2.72	272	0.046	-0.006	-1.952	64.4004792	-55.1758554	23.5485738	2.2345362	9.72882684	179.2098032
2.73	273	-0.31	-0.043	-2.368	124.8475482	-47.555514	22.91832	3.54088044	9.26473086	179.3931498
2.74	274	-0.419	-0.147	-2.669	173.3770908	-25.0382646	14.2666542	5.31705024	9.0240885	179.5020118
2.75	275	-0.441	-0.177	-3.266	162.6627762	2.1199446	2.2345362	6.97289886	9.06419556	179.513471
2.76	276	-0.128	-0.019	-3.981	125.3059146	11.9175264	-24.350715	8.20475856	9.23035338	179.2842878
2.77	277	-0.365	-0.041	-3.971	65.9474658	6.1879464	-26.9863218	8.82928278	9.3392154	179.0207271
2.78	278	-0.153	-0.327	-3.98	-19.6524594	11.2872726	-15.5271618	8.60582916	9.47099574	178.8889468
2.79	279	0.234	-0.103	-3.226	-70.3019466	15.0687954	-15.6417534	7.86671334	9.63142398	178.762896
2.8	280	0.508	0.303	-2.212	-71.1613836	42.7426668	-20.5691922	7.11040878	10.06687206	178.6253861
2.81	281	0.542	0.404	-1.636	-75.7450476	43.9458786	-15.9855282	6.31972674	10.50804972	178.5337128
2.82	282	0.506	0.494	-1.387	-66.6923112	25.0382646	-8.8235532	5.63217714	10.75442166	178.4821466
2.83	283	0.425	0.34	-1.089	-49.4462754	1.2032118	-0.1145916	5.1279741	10.76015124	178.4878762
2.84	284	0.452	0.19	-0.761	-70.3592424	-4.010706	8.1932994	4.42896534	10.70858502	178.5680903
2.85	285	0.453	0.225	-0.692	-88.4074194	-7.1046792	14.4958374	3.5236917	10.65128922	178.7056002
2.86	286	0.373	0.225	-0.698	-84.797784	-6.3598338	18.3919518	2.69863218	10.56534552	178.8946763
2.87	287	0.287	0.206	-0.67	-75.9742308	-1.0886202	19.5378678	1.96524594	10.53669762	179.0952116
2.88	288	0.094	0.189	-0.691	-67.9528188	6.6463128	16.7303736	1.30634424	10.59399342	179.2728286
2.89	289	-0.075	0.176	-0.66	-47.269035	13.2926256	13.0634424	0.85370742	10.7143146	179.4160681
2.9	290	-0.191	0.187	-0.571	-29.2781538	10.8289062	9.740286	0.53285094	10.76015124	179.4848231
2.91	291	-0.198	0.241	-0.506	-7.7922288	5.6722842	7.6203414	0.46982556	10.81744704	179.5650372
2.92	292	-0.144	0.298	-0.458	16.6730778	2.578311	8.9954406	0.65317212	10.84036536	179.6567105
2.93	293	-0.069	0.372	-0.467	29.9084076	3.7815228	9.3965112	0.9740286	10.88047242	179.7483838
2.94	294	0.04	0.401	-0.545	42.3415962	5.5576926	7.0473834	1.41520626	10.9434978	179.8228683
2.95	295	0.139	0.325	-0.573	48.7587258	7.3911582	1.4896908	1.8621135	11.02371192	179.8114091
2.96	296	0.143	0.197	-0.591	43.544808	8.9381448	-5.3858052	2.291832	11.12111478	179.7598429
2.97	297	0.16	0.071	-0.664	35.6379876	8.9954406	-10.7143146	2.62987722	11.21851764	179.6567105
2.98	298	0.131	-0.011	-0.782	31.0543236	6.4171296	-13.2353298	2.9220858	11.29300218	179.5249301
2.99	299	0.071	-0.069	-0.936	32.085648	2.291832	-11.6883432	3.22002396	11.32737966	179.404609
3	300	0.064	-0.133	-1.132	32.1429438	-2.4637194	-5.5576926	3.54661002	11.28154302	179.3415836
3.01	301	0.081	-0.202	-1.319	27.7311672	-7.3911582	2.4637194	3.83308902	11.20705848	179.3587723
3.02	302	0.084	-0.267	-1.453	19.0795014	-11.2872726	9.9121734	4.04508348	11.09246688	179.444716
3.03	303	0.078	-0.295	-1.492	12.605076	-14.037471	13.5791046	4.19978214	10.9434978	179.5650372
3.04	304	0.056	-0.306	-1.433	9.1100322	-13.2926256	12.6623718	4.31437374	10.80598788	179.6796288
3.05	305	0.034	-0.29	-1.35	4.4117766	-10.7143146	9.9694692	4.39458786	10.66847796	179.7655725
3.06	306	0.008	-0.237	-1.245	0.4010706	-8.8235532	7.6776372	4.4117766	10.5710751	179.8343275
3.07	307	-0.017	-0.181	-1.139	-2.578311	-7.5057498	5.7868758	4.40031744	10.49659056	179.8858937
3.08	308	-0.032	-0.161	-1.078	-4.4117766	-6.5317212	3.8961144	4.36021038	10.4278356	179.9202712
3.09	309	-0.029	-0.133	-1.034	-6.9900876	-7.0473834	2.8074942	4.29145542	10.35335106	179.9431895
3.1	310	-0.019	-0.119	-0.979	-8.5370742	-7.5057498	1.8334656	4.22843004	10.12416786	179.9202712
3.11	311	0.005	-0.106	-0.95	-8.880849	-7.734933	0.4583664	4.13675676	10.04968332	179.9202712
3.12	312	0.023	-0.105	-0.911	-7.3911582	-8.1360036	-1.6042824	4.05654264	9.9694692	179.8916233
3.13	313	0.038	-0.12	-0.877	-4.6409598	-7.448454	-3.4950438	4.00497642	9.89498466	179.8515162
3.14	314	0.042	-0.154	-0.857	0	-6.5317212	-4.6409598	3.99351726	9.83768886	179.79995
3.15	315	0.043	-0.198	-0.846	5.6722842	-5.6722842	-4.870143	4.1252976	9.71736768	179.7426542
3.16	316	0.038	-0.22	-0.845	10.7143146	-4.4690724	-3.3231564	4.22843004	9.67726062	179.7025471
3.17	317	0.027	-0.213	-0.848	14.32395	-3.8388186	-1.0886202	4.37166954	9.63715356	179.691088
3.18	318	0.02	-0.193	-0.855	17.0168526	-4.4690724	1.145916	4.54355694	9.5970465	179.6968175
3.19	319	0.014	-0.174	-0.89	17.6471064	-4.5263682	3.151269	4.73263308	9.55120986	179.7197359
3.2	320	0.01	-0.159	-0.92	17.5325148	-5.156622	4.7555514	4.93889796	9.4251591	179.7483838
3.21	321	0.01	-0.146	-0.933	17.9335854	-5.6149884	5.8441716	5.13370368	9.3678633	179.79995
3.22	322	0.027	-0.144	-0.95	18.621135	-5.5576926	5.9587632	5.33423898	9.3105675	179.8515162
3.23	323	0.036	-0.156	-0.96	19.0222056	-6.016059	5.2712136	5.53477428	9.24754212	179.8973528
3.24	324	0.047	-0.181	-0.992	16.4438946	-5.5576926	4.2398892	5.70666168	9.19024632	179.9317303
3.25	325	0.046	-0.204	-1.003	13.0634424	-5.7868758	3.0366774	5.9014674	9.0527364	179.9489191
3.26	326	0.04	-0.228	-1.019	9.6256944	-5.0993262	1.9480572	5.99887026	9.00117018	179.9603782
3.27	327	0.04	-0.255	-1.061	6.1879464	-3.5523396	1.2605076	6.06762522	8.9667927	179.9718374
3.28	328	0.031	-0.273	-1.069	4.297185	-3.8388186	1.3750992	6.11346186	8.92668564	179.977567
3.29	329	0.026	-0.283	-1.064	4.5263682	-6.016059	2.0626488	6.1592985	8.86366026	179.9890261
3.3	330	0.015	-0.284	-1.051	4.5263682	-10.0840608	3.0939732	6.29107884	8.67458412	-179.9890261
3.31	331	0.005	-0.274	-1.039	3.2085648	-14.4958374	4.2398892	6.32545632	8.53134462	-179.9718374
3.32	332	0.016	-0.254	-1.013	1.0313244	-18.9649098	4.583664	6.34264506	8.3365389	-179.9489191
3.33	333	0.028	-0.233	-0.99	-0.4010706	-21.3140376	4.0680018	6.34264506	8.12454444	-179.9374599
3.34	334	0.042	-0.216	-0.964	-1.8334656	-21.8296998	2.7501984	6.32545632	7.9068204	-179.9431895
3.35	335	0.05	-0.202	-0.941	-3.2658606	-21.199446	0.8021412	6.33691548	7.6489893	-179.9661078
3.36	336	0.046	-0.188	-0.932	-4.3544808	-19.480572	-1.4896908	6.28534926	7.45991316	179.9890261
3.37	337	0.034	-0.176	-0.918	-4.297185	-16.615782	-3.9534102	6.23951262	7.29948492	179.9260007
3.38	338	0.027	-0.17	-0.912	-4.1252976	-13.0634424	-6.302538	6.1879464	7.17916374	179.8457866
3.39	339	0.029	-0.171	-0.921	-4.9274388	-10.0840608	-8.307891	6.12492102	7.08749046	179.7483838
3.4	340	0.032	-0.179	-0.94	-7.0473834	-7.7922288	-9.5683986	6.0733548	6.96716928	179.6395217
3.41	341	0.037	-0.188	-0.94	-7.5057498	-6.9327918	-10.0840608	5.9874111	6.90987348	179.5306597
3.42	342	0.053	-0.203	-0.932	-6.9327918	-5.7868758	-10.599723	5.9014674	6.86403684	179.4160681
3.43	343	0.048	-0.212	-0.952	-6.6463128	-8.4797784	-9.9694692	5.82125328	6.7895523	179.3072061
3.44	344	0.05	-0.239	-0.873	-5.7868758	-7.9068204	-10.026765	5.75249832	6.72079734	179.1983441
3.45	345	0.07	-0.259	-0.97	-13.0634424	-3.3804522	-10.1413566	5.66655462	6.6749607	179.0952116
3.46	346	0.079	-0.244	-1.013	-13.6364004	-6.6463128	-8.7089616	5.51758554	6.61193532	179.0035384
3.47	347	0.038	-0.249	-0.988	-13.5791046	-9.7975818	-7.448454	5.36861646	6.52599162	178.9175947
3.48	348	0.033	-0.24	-0.99	-14.5531332	-8.2505952	-7.6203414	5.2139178	6.4457775	178.831651
3.49	349	0.016	-0.221	-0.955	-14.0947668	-5.8441716	-8.021412	5.05921914	6.39421128	178.7457073
3.5	350	0.032	-0.21	-0.963	-16.7876694	1.5469866	-8.8235532	4.91597964	6.37702254	178.6597636
3.51	351	0.034	-0.173	-0.994	-14.32395	0.3437748	-8.1360036	4.76128098	6.3884817	178.5795494
3.52	352	0.003	-0.199	-0.908	-10.026765	2.291832	-7.8495246	4.65241896	6.4171296	178.5050649
3.53	353	-0.007	-0.2	-0.915	-12.1467096	6.5317212	-7.448454	4.52063862	6.48588456	178.4363099
3.54	354	-0.008	-0.199	-0.931	-13.8655836	11.0007936	-7.2765666	4.37166954	6.59474658	178.3790141
3.55	355	-0.003	-0.206	-0.976	-13.464513	13.2926256	-6.7609044	4.27426668	6.6749607	178.3217183
3.56	356	-0.002	-0.221	-0.973	-9.7975818	11.5164558	-4.9847346	4.17113424	6.7895523	178.2816113
3.57	357	0	-0.233	-0.947	-7.161975	11.2299768	-2.6929026	4.0966497	6.9041439	178.2701521
3.58	358	0.011	-0.225	-0.953	-6.7036086	12.4904844	-0.4583664	4.02789474	7.02446508	178.2758817
3.59	359	0.014	-0.207	-0.976	-6.3598338	12.7196676	1.718874	3.96486936	7.15051584	178.3045296
3.6	360	0.008	-0.197	-0.987	-5.6722842	12.032118	3.6096354	3.97632852	7.18489332	178.3503662
3.61	361	-0.007	-0.187	-0.993	-5.8441716	10.7143146	4.9274388	3.91903272	7.28802576	178.407662
3.62	362	-0.024	-0.172	-1	-7.161975	8.7662574	5.5003968	3.85600734	7.36823988	178.4706874
3.63	363	-0.038	-0.158	-0.999	-7.734933	6.4744254	5.6149884	3.7815228	7.42553568	178.5337128
3.64	364	-0.042	-0.153	-0.991	-7.3338624	4.7555514	5.5576926	3.71849742	7.47137232	178.5967382
3.65	365	-0.044	-0.149	-0.99	-7.161975	4.0680018	5.6722842	3.70130868	7.3625103	178.6368452
3.66	366	-0.044	-0.145	-0.996	-6.6463128	3.437748	5.6722842	3.64401288	7.3911582	178.6998706
3.67	367	-0.045	-0.141	-0.997	-5.443101	2.9793816	5.443101	3.59244666	7.41407652	178.7571664
3.68	368	-0.044	-0.136	-1.005	-4.010706	2.6356068	4.870143	3.55806918	7.43699484	178.8087326
3.69	369	-0.041	-0.132	-1.006	-2.578311	2.1199446	4.0680018	3.53515086	7.45418358	178.8488397
3.7	370	-0.032	-0.125	-1.005	-1.3178034	1.6615782	3.2085648	3.62109456	7.06457214	178.8201918
3.71	371	-0.017	-0.122	-0.992	0.286479	1.2605076	2.291832	3.62682414	7.0760313	178.8488397
3.72	372	-0.004	-0.119	-0.989	0.9740286	1.3178034	1.4896908	3.6382833	7.08749046	178.8602989
3.73	373	0.007	-0.113	-0.98	1.0313244	1.6615782	0.9167328	3.64974246	7.1046792	178.871758
3.74	374	0.017	-0.106	-0.982	0.7448454	2.1199446	0.5156622	3.66120162	7.12186794	178.8832172
3.75	375	0.023	-0.098	-0.975	0.572958	2.4637194	0.1145916	3.71276784	6.7895523	178.831651
3.76	376	0.025	-0.098	-0.965	0.286479	3.7815228	-0.4583664	3.71849742	6.82392978	178.831651
3.77	377	0.042	-0.098	-0.956	-0.9740286	6.6463128	-1.145916	3.70703826	6.89268474	178.8259214
3.78	378	0.044	-0.09	-0.981	-1.8907614	5.5576926	-1.4896908	3.68411994	6.94998054	178.8144622
3.79	379	0.047	-0.096	-0.954	-0.1145916	5.0420304	-1.8334656	3.67839036	6.99581718	178.7972735
3.8	380	0.058	-0.101	-0.952	0.2291832	6.8182002	-2.005353	3.70703826	6.97862844	178.7743552
3.81	381	0.071	-0.109	-0.969	-0.2291832	7.9068204	-1.8334656	3.70130868	7.05884256	178.762896
3.82	382	0.079	-0.123	-0.989	-0.2291832	7.8495246	-1.3750992	3.6955791	7.13905668	178.7571664
3.83	383	0.08	-0.14	-0.995	-0.0572958	7.1046792	-0.8021412	3.6955791	7.20781164	178.7571664
3.84	384	0.084	-0.155	-0.992	-0.286479	6.4744254	-0.2291832	3.68984952	7.2765666	178.7571664
3.85	385	0.088	-0.164	-0.987	-0.6302538	5.7868758	0.2291832	3.8388186	7.24218912	178.762896
3.86	386	0.088	-0.171	-0.987	-0.5156622	4.9274388	0.6302538	3.83308902	7.29375534	178.7743552
3.87	387	0.082	-0.181	-0.989	-0.6875496	4.0680018	0.9740286	3.82735944	7.3338624	178.7858143
3.88	388	0.074	-0.184	-0.992	-0.9740286	2.578311	1.2032118	3.82162986	7.35678072	178.8030031
3.89	389	0.069	-0.185	-0.991	-1.432395	0.9740286	1.2032118	3.80444112	7.3625103	178.8144622
3.9	390	0.062	-0.182	-0.991	-1.5469866	-0.2291832	1.145916	4.13102718	7.08176088	178.8030031
3.91	391	0.059	-0.178	-0.988	-1.3178034	-1.2032118	0.9167328	4.11956802	7.07030172	178.8087326
3.92	392	0.06	-0.175	-0.987	-0.6302538	-1.7761698	0.8021412	4.11383844	7.05311298	178.8201918
3.93	393	0.059	-0.172	-0.987	-0.1145916	-2.1772404	0.7448454	4.11383844	7.03019466	178.8259214
3.94	394	0.058	-0.173	-0.98	0.286479	-2.6929026	0.6875496	4.11956802	7.00154676	178.8259214
3.95	395	0.055	-0.171	-0.974	0.1145916	-2.9220858	0.8021412	4.37166954	6.73798608	178.8087326
3.96	396	0.049	-0.167	-0.969	-0.4010706	-3.151269	0.6875496	4.36593996	6.7036086	178.8144622
3.97	397	0.044	-0.163	-0.964	-1.0886202	-2.9220858	0.5156622	4.3544808	6.6749607	178.8201918
3.98	398	0.042	-0.156	-0.965	-1.5469866	-2.5210152	0.1718874	4.34302164	6.65204238	178.8144622
3.99	399	0.04	-0.15	-0.969	-1.5469866	-2.1199446	-0.1718874	4.3258329	6.62912406	178.8144622
4	400	0.039	-0.147	-0.975	-1.3178034	-1.7761698	-0.5156622	4.48053156	6.34837464	178.7800847
4.01	401	0.036	-0.146	-0.974	-1.432395	-1.4896908	-0.9167328	4.46334282	6.3311859	178.7686256
4.02	402	0.034	-0.145	-0.975	-1.3178034	-1.145916	-1.2605076	4.45188366	6.31972674	178.7571664
4.03	403	0.031	-0.148	-0.972	-1.145916	-0.6875496	-1.6042824	4.43469492	6.31399716	178.7399777
4.04	404	0.033	-0.153	-0.97	-1.6042824	-0.0572958	-2.0626488	4.41750618	6.31399716	178.7170594
4.05	405	0.035	-0.156	-0.972	-2.0626488	0.1718874	-2.1772404	4.54355694	6.12492102	178.6769523
4.06	406	0.037	-0.154	-0.979	-2.291832	0.1718874	-2.2345362	4.51490904	6.12492102	178.654034
4.07	407	0.038	-0.155	-0.984	-1.9480572	0.1145916	-2.1772404	4.49199072	6.1306506	178.6368452
4.08	408	0.04	-0.159	-0.982	-1.432395	-0.2291832	-2.0626488	4.47480198	6.1306506	178.6139269
4.09	409	0.038	-0.162	-0.981	-1.5469866	-0.4583664	-1.718874	4.45761324	6.12492102	178.5967382
4.1	410	0.036	-0.163	-0.984	-1.6042824	-0.6875496	-1.3178034	4.6409598	5.88427866	178.5566311
4.11	411	0.033	-0.164	-0.984	-1.6042824	-1.0313244	-1.0313244	4.62377106	5.8728195	178.545172
4.12	412	0.03	-0.163	-0.986	-1.8334656	-1.2032118	-0.8021412	4.60085274	5.86136034	178.5394424
4.13	413	0.027	-0.16	-0.987	-1.9480572	-1.6615782	-0.6302538	4.583664	5.8441716	178.5279832
4.14	414	0.024	-0.156	-0.98	-1.9480572	-1.8334656	-0.4583664	4.56074568	5.82698286	178.5222536
4.15	415	0.02	-0.152	-0.979	-1.6042824	-1.9480572	-0.2291832	4.69252602	5.5576926	178.4936057
4.16	416	0.017	-0.149	-0.977	-1.4896908	-1.9480572	-0.2291832	4.68106686	5.54050386	178.4878762
4.17	417	0.015	-0.145	-0.976	-1.432395	-1.3178034	-0.2291832	4.66387812	5.52331512	178.4878762
4.18	418	0.016	-0.141	-0.979	-0.9740286	-0.6302538	-0.0572958	4.65241896	5.51758554	178.4821466
4.19	419	0.018	-0.141	-0.983	-0.4010706	-0.0572958	0	4.64668938	5.51758554	178.4878762
4.2	420	0.019	-0.144	-0.983	-0.4583664	0.1718874	0.0572958	5.01911208	4.81857678	178.4305804
4.21	421	0.021	-0.148	-0.981	-0.9167328	0.0572958	0.1145916	5.0133825	4.81857678	178.4305804
4.22	422	0.026	-0.148	-0.981	-0.859437	0.286479	0.1145916	5.00192334	4.82430636	178.4305804
4.23	423	0.03	-0.15	-0.98	-0.8021412	0.6875496	0.286479	4.99619376	4.83003594	178.4363099
4.24	424	0.034	-0.153	-0.978	-0.9167328	1.0313244	0.3437748	4.9847346	4.8414951	178.4420395
4.25	425	0.036	-0.153	-0.981	-1.145916	1.3178034	0.3437748	5.11651494	4.67533728	178.4191212
4.26	426	0.037	-0.152	-0.979	-1.0886202	1.5469866	0.4010706	5.10505578	4.69252602	178.4248508
4.27	427	0.037	-0.154	-0.979	-0.8021412	1.5469866	0.572958	5.0993262	4.70971476	178.4363099
4.28	428	0.038	-0.156	-0.98	-0.859437	1.9480572	0.6875496	5.09359662	4.7269035	178.4420395
4.29	429	0.038	-0.156	-0.981	-1.0313244	2.005353	0.6875496	5.08213746	4.74409224	178.4534987
4.3	430	0.039	-0.156	-0.983	-1.0313244	2.005353	0.6302538	5.19099948	4.62950064	178.4420395
4.31	431	0.04	-0.158	-0.983	-1.145916	1.9480572	0.6302538	5.17954032	4.64668938	178.4477691
4.32	432	0.041	-0.158	-0.979	-1.3750992	2.1199446	0.5156622	5.16808116	4.6696077	178.4592283
4.33	433	0.043	-0.157	-0.977	-1.6042824	2.1772404	0.5156622	5.15089242	4.68679644	178.4649578
4.34	434	0.044	-0.156	-0.979	-1.5469866	2.005353	0.4583664	5.13370368	4.70971476	178.4706874
4.35	435	0.045	-0.157	-0.98	-1.3178034	1.6042824	0.4583664	5.25975444	4.60085274	178.4534987
4.36	436	0.044	-0.158	-0.976	-1.6042824	1.2605076	0.5156622	5.2425657	4.6123119	178.4592283
4.37	437	0.044	-0.155	-0.976	-1.7761698	1.3178034	0.4010706	5.22537696	4.62377106	178.4649578
4.38	438	0.044	-0.155	-0.977	-1.3750992	1.432395	0.4010706	5.2139178	4.63523022	178.4706874
4.39	439	0.046	-0.155	-0.979	-1.145916	1.3750992	0.2291832	5.20245864	4.65241896	178.476417
4.4	440	0.046	-0.155	-0.981	-1.145916	0.9740286	0.1145916	5.36288688	4.4977203	178.4477691
4.41	441	0.047	-0.155	-0.981	-1.0313244	0.859437	0.1145916	5.35142772	4.50344988	178.4477691
4.42	442	0.048	-0.155	-0.98	-1.0313244	0.9740286	0	5.33996856	4.51490904	178.4534987
4.43	443	0.049	-0.156	-0.98	-1.145916	1.2032118	0.1145916	5.3285094	4.5263682	178.4534987
4.44	444	0.049	-0.157	-0.98	-1.3750992	1.3178034	0.1145916	5.31705024	4.53782736	178.4592283
4.45	445	0.05	-0.156	-0.98	-1.7761698	1.2032118	0.1145916	5.42018268	4.44615408	178.4363099
4.46	446	0.049	-0.153	-0.981	-1.8334656	1.0313244	0.1145916	5.39726436	4.45761324	178.4420395
4.47	447	0.05	-0.15	-0.979	-1.4896908	0.859437	0.1718874	5.3858052	4.46334282	178.4420395
4.48	448	0.051	-0.149	-0.98	-1.3178034	0.859437	0.1718874	5.36861646	4.47480198	178.4477691
4.49	449	0.049	-0.148	-0.98	-1.2032118	0.5156622	0.0572958	5.3571573	4.48053156	178.4477691
4.5	450	0.048	-0.148	-0.978	-1.2032118	0.286479	-0.1145916	5.5290447	4.30291458	178.4133916
4.51	451	0.048	-0.149	-0.979	-1.2032118	0.3437748	-0.4010706	5.51758554	4.30864416	178.407662
4.52	452	0.046	-0.15	-0.978	-1.145916	0.1718874	-0.6875496	5.5003968	4.30864416	178.4019325
4.53	453	0.044	-0.152	-0.978	-1.3178034	0.1145916	-0.859437	5.48893764	4.30864416	178.3962029
4.54	454	0.043	-0.151	-0.979	-1.5469866	0.4010706	-1.0313244	5.4717489	4.31437374	178.3847437
4.55	455	0.043	-0.151	-0.981	-1.4896908	0.572958	-1.0886202	5.5576926	4.22270046	178.3560958
4.56	456	0.043	-0.152	-0.981	-1.3178034	0.572958	-1.145916	5.54050386	4.22843004	178.3446367
4.57	457	0.042	-0.152	-0.981	-0.9167328	0.5156622	-0.9167328	5.5290447	4.23415962	178.3389071
4.58	458	0.043	-0.154	-0.982	-0.7448454	0.3437748	-0.859437	5.52331512	4.2398892	178.3274479
4.59	459	0.044	-0.158	-0.98	-0.9167328	0.1718874	-0.8021412	5.51185596	4.2398892	178.3217183
4.6	460	0.047	-0.156	-0.979	-1.0886202	0.1718874	-0.6875496	5.65509546	4.10237928	178.2816113
4.61	461	0.048	-0.155	-0.981	-1.0313244	0.1718874	-0.6875496	5.6436363	4.10810886	178.2758817
4.62	462	0.049	-0.159	-0.976	-1.145916	0	-0.6302538	5.63217714	4.10810886	178.2701521
4.63	463	0.048	-0.16	-0.973	-1.6615782	-0.5156622	-0.4583664	5.6149884	4.10237928	178.2644225
4.64	464	0.048	-0.158	-0.973	-1.6615782	-0.6302538	-0.3437748	5.59779966	4.0966497	178.258693
4.65	465	0.046	-0.161	-0.972	-1.2605076	-0.6302538	-0.2291832	5.7582279	3.97059894	178.2185859
4.66	466	0.045	-0.162	-0.974	-1.3178034	-0.572958	-0.3437748	5.74676874	3.96486936	178.2128563
4.67	467	0.044	-0.163	-0.978	-1.3750992	-0.4010706	-0.3437748	5.73530958	3.96486936	178.2071267
4.68	468	0.044	-0.16	-0.98	-1.145916	-0.2291832	-0.3437748	5.71812084	3.95913978	178.2071267
4.69	469	0.042	-0.16	-0.981	-0.7448454	-0.2291832	-0.286479	5.71239126	3.95913978	178.2013972
4.7	470	0.04	-0.159	-0.98	-0.5156622	-0.2291832	-0.1718874	6.01032942	3.68411994	178.1441014
4.71	471	0.04	-0.157	-0.982	-0.3437748	-0.3437748	-0.1145916	6.00459984	3.67839036	178.1383718
4.72	472	0.037	-0.155	-0.981	-0.3437748	-0.4010706	-0.0572958	5.99887026	3.67839036	178.1383718
4.73	473	0.037	-0.153	-0.983	-0.4010706	-0.1145916	-0.0572958	5.99887026	3.67266078	178.1383718
4.74	474	0.037	-0.151	-0.984	-0.4583664	0.0572958	-0.0572958	5.99314068	3.67266078	178.1383718
4.75	475	0.039	-0.149	-0.981	-0.9740286	0.4010706	-0.0572958	6.06762522	3.56952834	178.1269126
4.76	476	0.042	-0.148	-0.981	-1.145916	0.3437748	-0.2291832	6.05616606	3.57525792	178.1269126
4.77	477	0.041	-0.147	-0.981	-1.145916	0.286479	-0.286479	6.0447069	3.57525792	178.121183
4.78	478	0.042	-0.148	-0.978	-1.0886202	0.5156622	-0.3437748	6.03324774	3.5809875	178.121183
4.79	479	0.044	-0.148	-0.98	-0.9167328	0.6302538	-0.3437748	6.02178858	3.58671708	178.1154535
4.8	480	0.045	-0.15	-0.981	-0.7448454	0.7448454	-0.4583664	6.1020027	3.50650296	178.1039943
4.81	481	0.045	-0.152	-0.979	-0.4583664	0.8021412	-0.3437748	6.09627312	3.51223254	178.0982647
4.82	482	0.044	-0.153	-0.979	-0.4010706	0.8021412	-0.2291832	6.09054354	3.51796212	178.0982647
4.83	483	0.045	-0.155	-0.982	-0.4583664	0.9167328	-0.1145916	6.08481396	3.52942128	178.0982647
4.84	484	0.044	-0.156	-0.982	-0.4010706	1.0886202	-0.1145916	6.07908438	3.54088044	178.0982647
4.85	485	0.045	-0.156	-0.98	-0.286479	0.859437	-0.0572958	6.2452422	3.40337052	178.0638872
4.86	486	0.045	-0.157	-0.978	-0.3437748	0.5156622	-0.1145916	6.2452422	3.4091001	178.0638872
4.87	487	0.048	-0.159	-0.976	-0.8021412	0.4010706	-0.1145916	6.23378304	3.41482968	178.0638872
4.88	488	0.049	-0.159	-0.975	-1.2605076	0.2291832	-0.1145916	6.22232388	3.42055926	178.0581577
4.89	489	0.052	-0.158	-0.975	-1.4896908	-0.0572958	-0.1718874	6.20513514	3.41482968	178.0581577
4.9	490	0.052	-0.159	-0.974	-1.2605076	-0.2291832	-0.1718874	6.32545632	3.35753388	178.012321
4.91	491	0.052	-0.161	-0.976	-1.0313244	-0.2291832	-0.1145916	6.31399716	3.35753388	178.012321
4.92	492	0.05	-0.164	-0.978	-0.9167328	-0.0572958	-0.1718874	6.302538	3.35753388	178.012321
4.93	493	0.048	-0.166	-0.979	-0.8021412	0	-0.1718874	6.29680842	3.35753388	178.0065914
4.94	494	0.046	-0.165	-0.976	-0.6302538	0.0572958	-0.2291832	6.28534926	3.35753388	178.0065914
4.95	495	0.046	-0.165	-0.977	-0.4583664	0.2291832	-0.286479	6.48588456	3.24867186	177.9492956
4.96	496	0.048	-0.163	-0.979	-0.3437748	0.3437748	-0.3437748	6.48015498	3.25440144	177.9435661
4.97	497	0.047	-0.162	-0.978	-0.0572958	0.286479	-0.2291832	6.48015498	3.25440144	177.9435661
4.98	498	0.047	-0.161	-0.979	0	0.1718874	-0.2291832	6.4744254	3.26013102	177.9378365
4.99	499	0.049	-0.159	-0.978	-0.1718874	0.286479	-0.1145916	6.4744254	3.26013102	177.9378365
5	500	0.049	-0.159	-0.978	-0.3437748	0.4010706	-0.0572958	6.59474658	3.20283522	177.903459
5.01	501	0.048	-0.157	-0.977	-0.6302538	0.5156622	-0.1145916	6.589017	3.2085648	177.903459
5.02	502	0.048	-0.156	-0.977	-0.8021412	0.5156622	-0.1718874	6.57755784	3.21429438	177.8977294
5.03	503	0.049	-0.157	-0.979	-0.9167328	0.4010706	-0.1718874	6.57182826	3.22002396	177.8977294
5.04	504	0.051	-0.155	-0.978	-0.6875496	0	-0.2291832	6.5603691	3.22002396	177.8977294
5.05	505	0.053	-0.156	-0.977	-0.8021412	-0.1718874	-0.286479	6.64058322	3.18564648	177.8633519
5.06	506	0.053	-0.157	-0.975	-0.8021412	-0.2291832	-0.3437748	6.63485364	3.1799169	177.8576224
5.07	507	0.053	-0.158	-0.973	-0.9740286	-0.286479	-0.4010706	6.62339448	3.1799169	177.8576224
5.08	508	0.051	-0.159	-0.975	-0.9740286	-0.3437748	-0.4010706	6.61193532	3.17418732	177.8518928
5.09	509	0.048	-0.158	-0.978	-0.5156622	-0.572958	-0.1718874	6.60620574	3.16845774	177.8461632
5.1	510	0.047	-0.159	-0.981	-0.3437748	-0.4583664	-0.1718874	6.74944524	3.0653253	177.8117857
5.11	511	0.046	-0.159	-0.984	-0.0572958	-0.4010706	-0.2291832	6.74944524	3.0653253	177.8060561
5.12	512	0.047	-0.161	-0.984	-0.0572958	-0.1145916	-0.1718874	6.74944524	3.05959572	177.8060561
5.13	513	0.048	-0.161	-0.981	-0.1718874	0	-0.1145916	6.74944524	3.05959572	177.8060561
5.14	514	0.047	-0.16	-0.981	-0.1145916	0	-0.1145916	6.74371566	3.05959572	177.8003266
5.15	515	0.046	-0.16	-0.978	0.0572958	-0.0572958	0	7.1333271	2.83041252	177.7086533
5.16	516	0.046	-0.161	-0.974	0	-0.286479	-0.0572958	7.1333271	2.82468294	177.7029237
5.17	517	0.046	-0.161	-0.973	-0.4010706	-0.286479	-0.0572958	7.12759752	2.82468294	177.7029237
5.18	518	0.046	-0.159	-0.976	-0.4583664	-0.286479	-0.1718874	7.12186794	2.81895336	177.7029237
5.19	519	0.048	-0.158	-0.978	-0.2291832	-0.0572958	-0.1718874	7.12186794	2.81895336	177.6971941
5.2	520	0.047	-0.161	-0.973	-0.4010706	-0.1718874	-0.1718874	7.19635248	2.78457588	177.6685462
5.21	521	0.049	-0.164	-0.969	-0.6875496	-0.4010706	-0.0572958	7.1906229	2.78457588	177.6628166
5.22	522	0.049	-0.165	-0.971	-0.5156622	-0.572958	0	7.18489332	2.7788463	177.6628166
5.23	523	0.05	-0.167	-0.976	-0.286479	-0.572958	0	7.17916374	2.77311672	177.6628166
5.24	524	0.052	-0.168	-0.979	-0.0572958	-0.572958	0	7.17916374	2.76738714	177.6628166
5.25	525	0.051	-0.167	-0.983	0.0572958	-0.572958	0.0572958	7.28802576	2.73300966	177.61698
5.26	526	0.05	-0.165	-0.981	0.4010706	-0.4010706	0.1145916	7.29375534	2.72728008	177.6227096
5.27	527	0.047	-0.164	-0.98	0.572958	-0.2291832	0.1145916	7.29948492	2.72728008	177.6227096
5.28	528	0.046	-0.162	-0.982	0.572958	-0.0572958	0.0572958	7.3052145	2.7215505	177.6227096
5.29	529	0.044	-0.16	-0.982	0.4583664	0	0.1718874	7.31094408	2.7215505	177.6227096
5.3	530	0.044	-0.158	-0.977	0.1145916	0.0572958	0.1145916	7.4198061	2.59549974	177.6341687
5.31	531	0.044	-0.152	-0.975	-0.1718874	0.1718874	0.1718874	7.41407652	2.59549974	177.6341687
5.32	532	0.046	-0.149	-0.974	-0.1145916	0.2291832	0.1145916	7.41407652	2.60122932	177.6398983
5.33	533	0.048	-0.15	-0.973	0	0.2291832	0.0572958	7.41407652	2.60122932	177.6398983
5.34	534	0.049	-0.152	-0.973	-0.4010706	0.1718874	0	7.40834694	2.6069589	177.6398983
5.35	535	0.05	-0.154	-0.975	-0.4010706	0.286479	0	7.44272442	2.60122932	177.6227096
5.36	536	0.05	-0.159	-0.975	-0.286479	0.286479	-0.1145916	7.43699484	2.6069589	177.6227096
5.37	537	0.05	-0.162	-0.977	-0.1145916	0.4010706	-0.0572958	7.43699484	2.61268848	177.6227096
5.38	538	0.049	-0.166	-0.977	0	0.572958	0	7.43699484	2.61841806	177.6227096
5.39	539	0.05	-0.168	-0.975	-0.1145916	0.7448454	0	7.43699484	2.62414764	177.6227096
5.4	540	0.052	-0.168	-0.977	-0.2291832	0.859437	0.1718874	7.48856106	2.6356068	177.5883321
5.41	541	0.052	-0.165	-0.978	-0.2291832	0.6875496	0.2291832	7.48856106	2.64706596	177.5940617
5.42	542	0.052	-0.164	-0.977	-0.1718874	0.4010706	0.2291832	7.48856106	2.64706596	177.5997913
5.43	543	0.052	-0.161	-0.975	0	0.1718874	0.286479	7.48856106	2.65279554	177.5997913
5.44	544	0.051	-0.16	-0.971	-0.0572958	-0.0572958	0.3437748	7.48283148	2.64706596	177.6055208
5.45	545	0.052	-0.161	-0.97	-0.2291832	-0.1145916	0.286479	7.5343977	2.64706596	177.5826025
5.46	546	0.05	-0.163	-0.972	-0.3437748	-0.1718874	0.1718874	7.52866812	2.64133638	177.5826025
5.47	547	0.049	-0.167	-0.97	-0.3437748	-0.286479	0.1145916	7.52866812	2.64133638	177.5826025
5.48	548	0.05	-0.169	-0.971	-0.6302538	-0.1718874	0.1145916	7.52293854	2.6356068	177.5826025
5.49	549	0.05	-0.169	-0.973	-0.5156622	0	0.1718874	7.51720896	2.6356068	177.5883321
5.5	550	0.051	-0.17	-0.972	-0.2291832	-0.0572958	0.0572958	7.66044846	2.61841806	177.5138476
5.51	551	0.05	-0.17	-0.972	0	-0.0572958	0.0572958	7.66044846	2.61841806	177.5195771
5.52	552	0.05	-0.169	-0.974	0.1145916	-0.0572958	0.0572958	7.66617804	2.61841806	177.5195771
5.53	553	0.05	-0.166	-0.973	0.2291832	-0.0572958	0.0572958	7.66617804	2.61841806	177.5195771
5.54	554	0.051	-0.165	-0.975	0.2291832	-0.1718874	0.0572958	7.67190762	2.61841806	177.5195771
5.55	555	0.05	-0.162	-0.977	0.0572958	-0.1718874	0.0572958	7.734933	2.60122932	177.4966588
5.56	556	0.051	-0.161	-0.978	-0.1145916	-0.0572958	0.0572958	7.734933	2.60122932	177.4966588
5.57	557	0.052	-0.16	-0.978	-0.1718874	-0.1145916	0.0572958	7.72920342	2.59549974	177.4966588
5.58	558	0.053	-0.16	-0.979	-0.2291832	-0.0572958	0.1145916	7.72920342	2.59549974	177.4966588
5.59	559	0.053	-0.162	-0.978	-0.3437748	-0.0572958	0.1718874	7.72347384	2.59549974	177.4966588
5.6	560	0.052	-0.161	-0.976	-0.572958	-0.2291832	0.1718874	7.734933	2.59549974	177.4851997
5.61	561	0.052	-0.162	-0.977	-0.6302538	-0.1718874	0.1145916	7.72920342	2.59549974	177.4909292
5.62	562	0.051	-0.162	-0.98	-0.572958	-0.0572958	0.1145916	7.72347384	2.59549974	177.4909292
5.63	563	0.05	-0.164	-0.979	-0.6302538	0	0.1145916	7.71774426	2.59549974	177.4909292
5.64	564	0.051	-0.164	-0.977	-0.7448454	-0.3437748	0	7.71201468	2.58977016	177.4909292
5.65	565	0.051	-0.162	-0.977	-0.8021412	-0.4583664	0	7.71774426	2.58404058	177.4851997
5.66	566	0.052	-0.159	-0.978	-0.572958	-0.6875496	0	7.71201468	2.578311	177.4851997
5.67	567	0.052	-0.158	-0.977	-0.3437748	-0.6875496	0	7.7062851	2.57258142	177.4851997
5.68	568	0.051	-0.159	-0.977	-0.4010706	-0.6302538	0	7.70055552	2.56112226	177.4794701
5.69	569	0.051	-0.157	-0.976	-0.286479	-0.6302538	0.0572958	7.70055552	2.55539268	177.4794701
5.7	570	0.05	-0.159	-0.977	0	-0.3437748	0	7.734933	2.5496631	177.4680109
5.71	571	0.051	-0.16	-0.975	0.0572958	-0.286479	0	7.734933	2.54393352	177.4680109
5.72	572	0.053	-0.162	-0.976	0	-0.286479	-0.0572958	7.734933	2.54393352	177.4622813
5.73	573	0.052	-0.163	-0.977	-0.1145916	-0.3437748	-0.0572958	7.734933	2.53820394	177.4622813
5.74	574	0.053	-0.167	-0.978	-0.1145916	-0.286479	0	7.734933	2.53820394	177.4622813
5.75	575	0.052	-0.167	-0.978	-0.3437748	-0.2291832	0	7.78649922	2.54393352	177.4279039
5.76	576	0.05	-0.167	-0.976	-0.3437748	-0.3437748	0	7.78076964	2.53820394	177.4279039
5.77	577	0.047	-0.166	-0.976	-0.286479	-0.286479	0.0572958	7.78076964	2.53247436	177.4279039
5.78	578	0.046	-0.166	-0.975	-0.1145916	-0.3437748	0.0572958	7.77504006	2.53247436	177.4279039
5.79	579	0.045	-0.165	-0.975	-0.1145916	-0.286479	0.0572958	7.77504006	2.52674478	177.4279039
5.8	580	0.047	-0.162	-0.974	-0.0572958	0	0	7.85525418	2.49809688	177.4049855
5.81	581	0.047	-0.163	-0.976	-0.0572958	0.1145916	-0.0572958	7.85525418	2.49809688	177.4049855
5.82	582	0.049	-0.165	-0.974	-0.4583664	0.2291832	-0.1145916	7.8495246	2.50382646	177.4049855
5.83	583	0.05	-0.166	-0.971	-0.6875496	0.1145916	-0.1145916	7.83806544	2.50382646	177.4049855
5.84	584	0.05	-0.166	-0.971	-0.4583664	0.0572958	-0.0572958	7.83233586	2.50382646	177.4049855
5.85	585	0.05	-0.168	-0.975	-0.4583664	0	0	7.88390208	2.50382646	177.3763376
5.86	586	0.05	-0.168	-0.977	-0.572958	-0.286479	0	7.87244292	2.50382646	177.3763376
5.87	587	0.051	-0.166	-0.98	-0.572958	-0.3437748	0	7.86671334	2.49809688	177.3763376
5.88	588	0.049	-0.166	-0.981	-0.286479	-0.5156622	0	7.86671334	2.4923673	177.3763376
5.89	589	0.048	-0.164	-0.982	0.0572958	-0.5156622	0	7.86671334	2.48663772	177.3763376
