TimeStamp(s)	FrameCounter	AccX	AccY	AccZ	GyrX	GyrY	GyrZ	EulerX	EulerY	EulerZ
0.01	1	0.047	-1.009	0.166	3.6669312	-3.0939732	-1.3178034	99.33945804	6.83538894	-52.44857532
0.02	2	0.059	-1.005	0.144	-0.8021412	-3.4950438	0.286479	99.32799888	6.84111852	-52.4829528
0.03	3	0.063	-1.008	0.144	-1.3178034	-3.7815228	0.4583664	99.31081014	6.84111852	-52.52305986
0.04	4	0.066	-1.012	0.145	-1.6042824	-3.9534102	0.7448454	99.28789182	6.84111852	-52.56316692
0.05	5	0.07	-1.013	0.142	-1.7761698	-3.8388186	0.9167328	99.21340728	6.7895523	-52.60900356
0.06	6	0.071	-1.016	0.141	-1.8907614	-3.6669312	1.0886202	99.19048896	6.78382272	-52.64338104
0.07	7	0.071	-1.013	0.139	-2.5210152	-3.6669312	1.2032118	99.16184106	6.77809314	-52.6834881
0.08	8	0.072	-1.009	0.131	-3.3804522	-3.7815228	1.4896908	99.121734	6.77236356	-52.72359516
0.09	9	0.068	-1	0.122	-3.5523396	-4.297185	1.7761698	99.08162694	6.7609044	-52.7694318
0.1	10	0.067	-0.995	0.121	-3.2085648	-4.5263682	2.005353	99.00141282	6.72079734	-52.8267276
0.11	11	0.067	-0.991	0.12	-3.6669312	-4.6409598	2.1772404	98.95557618	6.7036086	-52.87829382
0.12	12	0.065	-0.989	0.117	-3.437748	-4.7555514	2.1772404	98.91546912	6.69214944	-52.92986004
0.13	13	0.064	-0.99	0.116	-3.437748	-4.7555514	2.005353	98.87536206	6.68069028	-52.97569668
0.14	14	0.064	-0.988	0.118	-4.1825934	-5.0993262	1.7761698	98.82952542	6.66923112	-53.03299248
0.15	15	0.062	-0.989	0.12	-4.8128472	-5.6149884	1.6042824	98.73785214	6.63485364	-53.09601786
0.16	16	0.061	-0.987	0.127	-5.0993262	-6.3598338	1.3750992	98.68055634	6.63485364	-53.15904324
0.17	17	0.06	-0.988	0.132	-5.0420304	-6.875496	1.3178034	98.62326054	6.62912406	-53.23352778
0.18	18	0.055	-0.989	0.134	-5.156622	-7.161975	1.3750992	98.56596474	6.62912406	-53.30228274
0.19	19	0.05	-0.987	0.135	-5.2712136	-7.161975	1.4896908	98.50293936	6.62912406	-53.37676728
0.2	20	0.044	-0.991	0.133	-5.443101	-6.6463128	1.5469866	98.42272524	6.58328742	-53.44552224
0.21	21	0.038	-0.993	0.136	-5.6722842	-5.9014674	1.432395	98.35969986	6.57755784	-53.50854762
0.22	22	0.037	-0.992	0.139	-6.016059	-5.2139178	1.3750992	98.2909449	6.57755784	-53.56011384
0.23	23	0.038	-0.988	0.14	-6.5317212	-4.6982556	1.6042824	98.21646036	6.56609868	-53.61168006
0.24	24	0.044	-0.988	0.141	-6.5317212	-4.3544808	2.0626488	98.1477054	6.55463952	-53.6575167
0.25	25	0.049	-0.991	0.14	-6.589017	-3.8961144	2.578311	98.06749128	6.49734372	-53.69762376
0.26	26	0.053	-0.996	0.137	-6.1306506	-3.6669312	2.7501984	97.99873632	6.4744254	-53.73773082
0.27	27	0.054	-0.994	0.136	-6.016059	-3.6096354	2.8074942	97.93571094	6.45723666	-53.77783788
0.28	28	0.053	-0.993	0.134	-6.016059	-3.6669312	2.578311	97.86695598	6.43431834	-53.81794494
0.29	29	0.052	-0.992	0.133	-6.2452422	-3.8961144	2.3491278	97.79820102	6.4171296	-53.86378158
0.3	30	0.049	-0.989	0.135	-6.4744254	-4.297185	2.1772404	97.7179869	6.36556338	-53.90961822
0.31	31	0.046	-0.987	0.138	-6.4744254	-4.5263682	1.8907614	97.64923194	6.35410422	-53.95545486
0.32	32	0.042	-0.988	0.14	-7.161975	-4.6409598	1.7761698	97.56901782	6.34264506	-54.00702108
0.33	33	0.041	-0.991	0.14	-8.3651868	-4.4690724	1.6042824	97.48307412	6.33691548	-54.05285772
0.34	34	0.043	-0.986	0.14	-8.5370742	-4.1252976	1.4896908	97.39140084	6.32545632	-54.09296478
0.35	35	0.04	-0.979	0.134	-8.5370742	-3.6669312	1.4896908	97.29399798	6.27961968	-54.13307184
0.36	36	0.04	-0.974	0.13	-7.9641162	-3.151269	1.432395	97.20805428	6.26816052	-54.16744932
0.37	37	0.038	-0.972	0.128	-7.161975	-2.9220858	1.3178034	97.13356974	6.26243094	-54.19609722
0.38	38	0.035	-0.975	0.128	-6.8182002	-2.8074942	1.2032118	97.0590852	6.25097178	-54.2304747
0.39	39	0.034	-0.979	0.131	-6.7609044	-2.578311	0.9167328	96.99033024	6.2452422	-54.25339302
0.4	40	0.032	-0.987	0.141	-6.7036086	-2.3491278	0.6302538	96.92157528	6.1879464	-54.27058176
0.41	41	0.03	-0.998	0.147	-7.3338624	-1.6042824	0.5156622	96.84709074	6.18221682	-54.2877705
0.42	42	0.028	-1.006	0.145	-7.9641162	-1.0886202	0.2291832	96.76114704	6.18221682	-54.29922966
0.43	43	0.029	-1.012	0.145	-7.5630456	-0.572958	0.286479	96.6866625	6.17648724	-54.31068882
0.44	44	0.03	-1.023	0.147	-7.1046792	0.0572958	0.6875496	96.61217796	6.17075766	-54.31068882
0.45	45	0.034	-1.035	0.149	-7.3911582	1.2032118	1.3750992	96.54915258	6.10773228	-54.2877705
0.46	46	0.037	-1.04	0.147	-8.4224826	2.8074942	2.1199446	96.46320888	6.08481396	-54.26485218
0.47	47	0.045	-1.036	0.141	-9.3392154	4.1252976	2.86479	96.3715356	6.05043648	-54.2304747
0.48	48	0.053	-1.026	0.14	-9.9694692	4.583664	3.5523396	96.27413274	6.00459984	-54.19036764
0.49	49	0.063	-1.014	0.145	-9.5111028	3.9534102	4.2398892	96.18245946	5.9587632	-54.15599016
0.5	50	0.064	-1.013	0.143	-7.8495246	3.2085648	4.8128472	96.10797492	5.89000824	-54.12734226
0.51	51	0.059	-1.02	0.137	-6.9900876	3.0366774	5.0993262	96.03921996	5.83271244	-54.10442394
0.52	52	0.055	-1.027	0.135	-6.7036086	3.0939732	4.9847346	95.97619458	5.77541664	-54.08150562
0.53	53	0.051	-1.025	0.133	-7.1046792	3.0366774	4.6982556	95.90171004	5.72958	-54.05285772
0.54	54	0.049	-1.015	0.131	-7.1046792	3.2658606	4.583664	95.83295508	5.67801378	-54.0299394
0.55	55	0.047	-1.004	0.126	-6.0733548	3.8388186	4.6982556	95.77565928	5.59779966	-53.98983234
0.56	56	0.05	-1	0.126	-4.7555514	4.3544808	4.7555514	95.73555222	5.54623344	-53.95545486
0.57	57	0.053	-0.998	0.123	-4.1252976	4.0680018	4.870143	95.69544516	5.49466722	-53.92107738
0.58	58	0.054	-0.999	0.115	-4.1825934	3.2085648	4.870143	95.6553381	5.43737142	-53.89242948
0.59	59	0.056	-1.003	0.112	-4.4690724	2.291832	4.6982556	95.60950146	5.39153478	-53.87524074
0.6	60	0.058	-1.008	0.113	-4.6982556	1.5469866	4.1825934	95.55793524	5.32277982	-53.86378158
0.61	61	0.059	-1.016	0.118	-5.2712136	1.145916	3.437748	95.50636902	5.28840234	-53.85232242
0.62	62	0.059	-1.015	0.12	-5.8441716	0.7448454	2.6356068	95.44907322	5.25975444	-53.84659284
0.63	63	0.058	-1.008	0.117	-5.72958	0.859437	2.005353	95.39177742	5.23683612	-53.84086326
0.64	64	0.055	-1.002	0.116	-5.3285094	0.9167328	1.432395	95.33448162	5.21964738	-53.83513368
0.65	65	0.055	-1.001	0.118	-4.5263682	1.2605076	1.145916	95.30010414	5.17381074	-53.81794494
0.66	66	0.06	-1.001	0.119	-3.8961144	1.3178034	1.2032118	95.25999708	5.156622	-53.80648578
0.67	67	0.065	-0.998	0.124	-3.5523396	1.0886202	1.3178034	95.2256196	5.13943326	-53.79502662
0.68	68	0.066	-0.999	0.125	-3.6669312	0.6302538	1.5469866	95.18551254	5.1279741	-53.78929704
0.69	69	0.065	-1.003	0.122	-3.9534102	-0.1145916	1.718874	95.14540548	5.10505578	-53.79502662
0.7	70	0.061	-1.004	0.124	-3.9534102	-0.9167328	1.718874	95.12248716	5.06494872	-53.8007562
0.71	71	0.058	-1.005	0.126	-4.8128472	-1.6042824	1.6615782	95.07092094	5.04775998	-53.81794494
0.72	72	0.051	-0.999	0.127	-5.2139178	-2.2345362	1.5469866	95.01362514	5.03630082	-53.84086326
0.73	73	0.05	-0.994	0.128	-4.6409598	-2.4064236	1.432395	94.9677885	5.02484166	-53.86378158
0.74	74	0.051	-0.992	0.121	-4.1825934	-2.4637194	1.4896908	94.92195186	5.0133825	-53.89242948
0.75	75	0.054	-0.989	0.119	-3.8961144	-2.6356068	1.5469866	94.89903354	4.97327544	-53.9153478
0.76	76	0.058	-0.987	0.123	-3.8961144	-2.9793816	1.9480572	94.8531969	4.9560867	-53.9439957
0.77	77	0.062	-0.989	0.124	-3.7815228	-3.437748	2.4064236	94.81308984	4.93316838	-53.98410276
0.78	78	0.063	-0.993	0.127	-4.010706	-4.010706	2.8074942	94.7672532	4.91025006	-54.02420982
0.79	79	0.061	-1.004	0.131	-4.583664	-5.0993262	3.0366774	94.71568698	4.88733174	-54.07577604
0.8	80	0.064	-1.013	0.134	-5.3285094	-5.9587632	3.3231564	94.67557992	4.85295426	-54.13880142
0.81	81	0.071	-1.015	0.131	-6.1306506	-7.448454	3.8388186	94.60682496	4.81857678	-54.21328596
0.82	82	0.075	-1.007	0.128	-6.302538	-8.7662574	4.4690724	94.53807	4.7841993	-54.30495924
0.83	83	0.078	-0.999	0.124	-6.0733548	-10.1413566	4.9847346	94.46931504	4.74409224	-54.40809168
0.84	84	0.075	-0.993	0.121	-6.1879464	-11.2299768	5.2139178	94.3948305	4.70398518	-54.52841286
0.85	85	0.078	-0.996	0.125	-6.2452422	-11.9748222	5.2139178	94.3375347	4.66387812	-54.64873404
0.86	86	0.086	-1.003	0.136	-6.1306506	-12.8342592	4.9847346	94.26305016	4.62950064	-54.78051438
0.87	87	0.091	-1.008	0.141	-6.2452422	-14.4385416	4.6982556	94.18856562	4.59512316	-54.92375388
0.88	88	0.097	-1.006	0.14	-6.7036086	-16.4438946	4.8128472	94.11408108	4.56647526	-55.0899117
0.89	89	0.093	-1.002	0.137	-8.880849	-19.3086846	5.0993262	94.01094864	4.53209778	-55.290447
0.9	90	0.082	-0.996	0.124	-9.9121734	-21.0848544	4.8128472	93.90208662	4.50344988	-55.49671188
0.91	91	0.085	-1.002	0.135	-9.6829902	-22.1734746	4.6409598	93.78749502	4.48053156	-55.7201655
0.92	92	0.093	-1.015	0.142	-10.8289062	-23.6058696	4.6982556	93.66717384	4.45188366	-55.96080786
0.93	93	0.104	-1.018	0.139	-11.9175264	-25.8404058	5.0993262	93.52393434	4.42323576	-56.21863896
0.94	94	0.116	-1.014	0.13	-12.2613012	-28.5906042	5.6722842	93.38642442	4.38885828	-56.51084754
0.95	95	0.128	-0.998	0.128	-11.8029348	-31.5699858	6.1306506	93.25464408	4.36593996	-56.82597444
0.96	96	0.125	-0.98	0.126	-11.45916	-34.3201842	6.589017	93.11140458	4.3258329	-57.16974924
0.97	97	0.114	-0.972	0.121	-11.6883432	-37.0130868	6.7036086	92.97389466	4.29145542	-57.54217194
0.98	98	0.108	-0.971	0.119	-11.0580894	-38.3308902	6.2452422	92.83638474	4.25707794	-57.9260538
0.99	99	0.107	-0.971	0.111	-9.453807	-40.680018	5.443101	92.71606356	4.23415962	-58.33285398
1	100	0.116	-0.975	0.111	-8.2505952	-44.2323576	4.9847346	92.61293112	4.22270046	-58.76830206
1.01	101	0.127	-0.974	0.125	-8.1932994	-48.7587258	5.2712136	92.49833952	4.20551172	-59.25531636
1.02	102	0.144	-0.958	0.119	-8.8235532	-53.5142772	6.2452422	92.37801834	4.17686382	-59.7881673
1.03	103	0.154	-0.961	0.107	-8.5370742	-56.3217714	6.875496	92.25769716	4.14821592	-60.34966614
1.04	104	0.153	-0.968	0.114	-6.9327918	-58.155237	6.9900876	92.15456472	4.11383844	-60.92835372
1.05	105	0.144	-0.98	0.14	-3.4950438	-60.733548	6.9327918	92.09726892	4.09092012	-61.52995962
1.06	106	0.13	-0.994	0.162	-1.8907614	-62.7961968	7.161975	92.03997312	4.06227222	-62.15448384
1.07	107	0.122	-0.996	0.16	-3.5523396	-65.1453246	7.6776372	91.96548858	4.02789474	-62.80192638
1.08	108	0.119	-0.982	0.144	-4.010706	-67.1506776	8.2505952	91.89100404	3.9820581	-63.47228724
1.09	109	0.123	-0.967	0.143	-1.8907614	-68.182002	8.5370742	91.83370824	3.94195104	-64.14837768
1.1	110	0.13	-0.956	0.157	0.572958	-68.0674104	8.6516658	91.81078992	3.90184398	-64.82446812
1.11	111	0.129	-0.946	0.138	2.4637194	-68.6976642	8.4224826	91.79933076	3.85600734	-65.50628814
1.12	112	0.116	-0.94	0.127	3.6096354	-69.8435802	7.9641162	91.79933076	3.82162986	-66.19956732
1.13	113	0.114	-0.94	0.128	4.1252976	-72.3072996	7.161975	91.80506034	3.79298196	-66.91576482
1.14	114	0.109	-0.938	0.134	9.167328	-72.8802576	6.0733548	91.86235614	3.77579322	-67.6376919
1.15	115	0.096	-0.939	0.157	11.6883432	-74.5418358	5.156622	91.95402942	3.77006364	-68.37680772
1.16	116	0.106	-0.925	0.167	13.0634424	-75.8596392	5.3285094	92.0457027	3.76433406	-69.1273827
1.17	117	0.115	-0.927	0.17	13.750992	-76.8909636	5.5576926	92.14883514	3.75860448	-69.88368726
1.18	118	0.128	-0.909	0.17	12.8342592	-77.4639216	5.443101	92.23477884	3.75860448	-70.65145098
1.19	119	0.131	-0.887	0.167	12.9488508	-77.6931048	4.5263682	92.32645212	3.76433406	-71.4192147
1.2	120	0.129	-0.881	0.167	13.5791046	-77.5212174	3.0366774	92.43531414	3.79298196	-72.18697842
1.21	121	0.127	-0.87	0.149	13.2926256	-77.922288	1.2032118	92.532717	3.8388186	-72.95474214
1.22	122	0.119	-0.851	0.122	15.2979786	-77.4066258	0.0572958	92.6473086	3.8961144	-73.71677628
1.23	123	0.115	-0.828	0.094	18.1054728	-77.5785132	-1.145916	92.7905481	3.96486936	-74.47881042
1.24	124	0.101	-0.774	0.088	21.485925	-78.1514712	-2.2345362	92.9624355	4.05081306	-75.25230372
1.25	125	0.082	-0.721	0.098	23.3193906	-80.1568242	-3.437748	93.15724122	4.1539455	-76.03725618
1.26	126	0.047	-0.668	0.1	26.4706596	-78.7244292	-5.9587632	93.38069484	4.27999626	-76.8050199
1.27	127	0.013	-0.625	0.131	25.0382646	-78.6671334	-7.2765666	93.58695972	4.42323576	-77.5785132
1.28	128	-0.025	-0.584	0.118	24.4653066	-75.8023434	-8.9381448	93.78749502	4.583664	-78.31762902
1.29	129	-0.048	-0.558	0.142	27.788463	-68.9268474	-11.172681	94.0224078	4.76128098	-78.98798988
1.3	130	-0.057	-0.545	0.147	30.8251404	-63.0826758	-12.1467096	94.29742764	4.93889796	-79.59532536
1.31	131	-0.038	-0.514	0.11	33.0596766	-55.9779966	-12.7769634	94.5953658	5.1279741	-80.13390588
1.32	132	-0.019	-0.476	0.09	36.8411994	-47.6128098	-13.3499214	94.93341102	5.31132066	-80.5865427
1.33	133	0.007	-0.435	0.062	39.3049188	-41.9978214	-13.464513	95.30010414	5.5003968	-80.98188372
1.34	134	0.045	-0.403	0.07	39.4195104	-40.10706	-13.1207382	95.66679726	5.67801378	-81.360036
1.35	135	0.09	-0.388	0.12	36.382833	-40.966497	-12.5477802	96.01057206	5.86136034	-81.74964744
1.36	136	0.151	-0.4	0.106	27.8457588	-40.0497642	-11.3445684	96.256944	6.02751816	-82.12779972
1.37	137	0.175	-0.409	0.04	15.9855282	-32.2575354	-8.880849	96.39445392	6.16502808	-82.43146746
1.38	138	0.202	-0.443	0.022	7.9641162	-25.1528562	-4.7555514	96.45174972	6.2452422	-82.67210982
1.39	139	0.246	-0.522	0.019	2.6356068	-24.923673	1.5469866	96.4574793	6.26243094	-82.91848176
1.4	140	0.274	-0.597	0.025	-1.5469866	-29.0489706	10.6570188	96.40591308	6.22232388	-83.2221495
1.41	141	0.28	-0.657	0.107	-3.2085648	-41.7113424	21.0275586	96.33142854	6.0733548	-83.65759758
1.42	142	0.248	-0.685	0.16	-7.1046792	-59.7022236	31.2835068	96.1996482	5.8441716	-84.2821218
1.43	143	0.22	-0.679	0.201	-16.9595568	-68.9268474	36.3255372	95.970465	5.57488134	-85.00404888
1.44	144	0.183	-0.627	0.229	-23.8350528	-72.7083702	36.955791	95.66679726	5.2998615	-85.76035344
1.45	145	0.182	-0.664	0.28	-23.6631654	-69.900876	33.5753388	95.38604784	5.06494872	-86.48228052
1.46	146	0.186	-0.748	0.301	-23.1475032	-64.1140002	28.8197874	95.10529842	4.85295426	-87.14118222
1.47	147	0.188	-0.827	0.311	-22.058883	-61.0773228	24.1788276	94.83600816	4.68106686	-87.77143602
1.48	148	0.195	-0.883	0.299	-22.058883	-62.452422	21.0275586	94.5667179	4.53782736	-88.4074194
1.49	149	0.208	-0.893	0.264	-19.8243468	-62.2805346	20.05353	94.32607554	4.40031744	-89.0376732
1.5	150	0.238	-0.875	0.261	-12.8342592	-63.9421128	21.0275586	94.17710646	4.27426668	-89.68511574
1.51	151	0.272	-0.846	0.29	-7.9068204	-66.9214944	22.0015872	94.05678528	4.11956802	-90.36120618
1.52	152	0.301	-0.807	0.308	-7.6776372	-71.61975	22.058883	93.9364641	3.97059894	-91.08313326
1.53	153	0.323	-0.794	0.354	-8.9381448	-77.062851	20.2827132	93.80468376	3.84454818	-91.85662656
1.54	154	0.345	-0.784	0.413	-7.7922288	-79.6984578	19.5951636	93.68436258	3.71849742	-92.65876776
1.55	155	0.328	-0.793	0.425	-6.4171296	-78.9536124	22.4026578	93.60987804	3.59244666	-93.4494498
1.56	156	0.267	-0.826	0.426	-8.021412	-79.2400914	28.8770832	93.48955686	3.37472262	-94.251591
1.57	157	0.182	-0.848	0.389	-10.1986524	-82.4486562	36.7839036	93.35204694	3.08251404	-95.08810968
1.58	158	0.103	-0.856	0.325	-15.9282324	-83.2507974	45.0344988	93.15724122	2.70436176	-95.93608752
1.59	159	0.039	-0.858	0.266	-24.923673	-82.505952	52.712136	92.88222138	2.24599536	-96.78406536
1.6	160	-0.039	-0.91	0.25	-35.9817624	-79.8703452	59.014674	92.50979868	1.70741484	-97.6033953
1.61	161	-0.08	-1.023	0.201	-50.3630082	-72.192708	65.4890994	91.9884069	1.10580894	-98.3482407
1.62	162	-0.117	-1.182	0.144	-62.0513514	-61.4783934	71.61975	91.3581531	0.42398892	-98.98422408
1.63	163	-0.19	-1.359	0.078	-68.0674104	-53.3423898	78.0941754	90.67633308	-0.32658606	-99.53426376
1.64	164	-0.286	-1.57	-0.033	-70.6457214	-49.4462754	83.07891	89.97732432	-1.14018642	-100.0384668
1.65	165	-0.371	-1.812	-0.097	-66.5204238	-46.0658232	84.9696714	89.31842262	-1.98243468	-100.5025628
1.66	166	-0.441	-2.018	-0.137	-55.1758554	-42.97185	80.9589654	88.78557168	-2.79030546	-100.9208221
1.67	167	-0.461	-2.148	-0.192	-47.6701056	-39.8778768	73.2240324	88.32720528	-3.51796212	-101.304704
1.68	168	-0.446	-2.204	-0.3	-42.8572584	-36.6120162	64.2285918	87.9204051	-4.15967508	-101.6542084
1.69	169	-0.448	-2.307	-0.521	-33.6326346	-33.0596766	55.576926	87.61100778	-4.72117392	-101.9636057
1.7	170	-0.532	-2.658	-0.692	-16.9595568	-30.7678446	48.4722468	87.4620387	-5.20818822	-102.2500847
1.71	171	-0.715	-3.351	-0.506	2.4637194	-25.78311	31.3980984	87.5193345	-5.52331512	-102.4964566
1.72	172	-0.97	-3.977	-0.193	0.2291832	-1.8334656	-17.0168526	87.5193345	-5.35142772	-102.5193749
1.73	173	-0.639	-3.704	-0.021	-53.7434604	25.3247436	-59.1865614	86.95210608	-4.76701056	-102.3016509
1.74	174	-0.017	-2.273	0.181	-123.4151532	33.1742682	-40.2789474	85.67440974	-4.36593996	-102.0094423
1.75	175	0.139	-1.313	0.162	-140.0309352	37.2995658	-7.2765666	84.224826	-4.27426668	-101.6599379
1.76	176	0.095	-0.74	-0.058	-116.5396572	40.7946096	16.7303736	83.01015504	-4.4117766	-101.2531378
1.77	177	-0.056	-0.59	-0.19	-83.651868	35.8671708	35.4661002	82.12207014	-4.73836266	-100.8577967
1.78	178	-0.135	-0.578	-0.195	-72.3072996	30.1375908	50.706783	81.35430642	-5.20818822	-100.4968332
1.79	179	-0.03	-0.641	-0.154	-65.7755784	13.5791046	60.9054354	80.66675682	-5.79260538	-100.2791092
1.8	180	0.214	-0.694	-0.041	-53.0559108	-8.1932994	60.3897732	80.13963546	-6.37702254	-100.26765
1.81	181	0.331	-0.723	0.141	-53.858052	-23.8350528	50.6494872	79.6125141	-6.90987348	-100.4166191
1.82	182	0.283	-0.644	0.214	-82.4486562	-35.9817624	39.3049188	78.81610248	-7.35678072	-100.7088277
1.83	183	0.172	-0.447	0.129	-111.0392604	-48.6441342	30.939732	77.75613018	-7.75785132	-101.1328166
1.84	184	0.135	-0.255	0.014	-111.6695142	-57.0666168	22.8037284	76.70188746	-8.09589654	-101.6542084
1.85	185	0.146	-0.209	-0.112	-102.3875946	-62.5097178	20.626488	75.7450476	-8.42821218	-102.2271664
1.86	186	0.141	-0.18	-0.111	-102.9605526	-65.7755784	27.2728008	74.79393732	-8.84647152	-102.8058539
1.87	187	0.083	-0.107	-0.027	-104.5075392	-68.8122558	37.0130868	73.83709746	-9.37932246	-103.3845415
1.88	188	-0.006	-0.043	0.079	-107.2577376	-71.6770458	47.3263308	72.8516097	-10.026765	-103.9517699
1.89	189	-0.068	-0.021	0.121	-111.2111478	-71.9635248	55.9207008	71.83174446	-10.76588082	-104.4903505
1.9	190	-0.144	-0.003	0.155	-111.4976268	-70.2446508	64.457775	70.81187922	-11.6023995	-104.9716352
1.91	191	-0.221	-0.045	0.089	-100.1530584	-63.1399716	70.5311298	69.88368726	-12.46756608	-105.3440579
1.92	192	-0.217	-0.103	0.057	-90.813843	-61.4783934	79.354683	69.041439	-13.41294678	-105.6591848
1.93	193	-0.132	-0.244	-0.041	-89.6106312	-59.9887026	90.9284346	68.19919074	-14.4671895	-105.9055567
1.94	194	0.04	-0.385	-0.085	-90.6419556	-57.6968706	98.7779592	67.33402416	-15.59018718	-106.0831737
1.95	195	0.176	-0.452	-0.096	-89.2668564	-58.6136034	104.7940182	66.48604632	-16.75329192	-106.2321428
1.96	196	0.203	-0.476	-0.093	-86.9177286	-61.4210976	110.1798234	65.64952764	-17.99661078	-106.3639231
1.97	197	0.153	-0.497	-0.092	-83.8810512	-67.3798608	113.5029798	64.86457518	-19.29149586	-106.5243514
1.98	198	0.063	-0.503	-0.077	-81.1881486	-74.1407652	113.732163	64.11972978	-20.62075842	-106.7248867
1.99	199	-0.011	-0.475	-0.06	-80.500599	-84.224826	111.3830352	63.4264506	-21.9729393	-107.0228248
2	200	-0.085	-0.444	-0.12	-79.927641	-90.8711388	108.86202	62.7675489	-23.32512018	-107.3837884
2.01	201	-0.092	-0.439	-0.18	-80.3287116	-92.5900128	105.5388636	62.12010636	-24.6658419	-107.7619406
2.02	202	-0.064	-0.439	-0.166	-81.3027402	-92.532717	102.7313694	61.47266382	-25.98937488	-108.1400929
2.03	203	0.017	-0.438	-0.183	-82.9643184	-98.8925508	101.986524	60.84241002	-27.33582618	-108.575541
2.04	204	0.089	-0.442	-0.19	-85.5999252	-105.3096804	102.3875946	60.21215622	-28.72238454	-109.0625553
2.05	205	0.121	-0.429	-0.227	-86.4020664	-113.3310924	103.418919	59.62200948	-30.14332038	-109.6068654
2.06	206	0.112	-0.41	-0.24	-85.7718126	-120.2638842	106.6274838	59.0719698	-31.64447034	-110.1970121
2.07	207	0.034	-0.382	-0.217	-84.1102344	-125.8215768	112.4716554	58.56203718	-33.22583442	-110.8043476
2.08	208	-0.063	-0.352	-0.18	-80.9016696	-127.4258592	118.2012354	58.08648204	-34.8644943	-111.3830352
2.09	209	-0.138	-0.35	-0.156	-72.765666	-130.2333534	125.6496894	57.69114102	-36.58909788	-111.944534
2.1	210	-0.204	-0.333	-0.11	-60.9627312	-137.4526242	128.5144794	57.47914656	-38.37099726	-112.5633287
2.11	211	-0.172	-0.316	0.028	-51.852699	-155.1570264	125.5923936	57.50779446	-40.2216516	-113.4055769
2.12	212	-0.199	-0.298	0.037	-39.4768062	-167.7621024	121.0660254	57.81719178	-42.08949468	-114.4483605
2.13	213	-0.404	-0.312	0.035	-28.6479	-161.287677	121.8108708	58.2411807	-43.92868986	-115.4567666
2.14	214	-0.884	-0.393	-0.001	-26.4133638	-158.8812534	127.6550424	58.69381752	-45.79653294	-116.4537135
2.15	215	-1.398	-0.449	-0.143	-24.8663772	-148.5107136	125.0767314	59.14072476	-47.59562106	-117.387635
2.16	216	-1.998	-0.181	-0.424	-29.3354496	-133.3273266	129.5458038	59.42720376	-49.34887254	-118.13821
2.17	217	-2.389	0.087	-0.568	4.297185	-123.472449	132.926256	59.97724344	-51.0792057	-118.7741934
2.18	218	-2.812	0.164	-0.771	54.6028974	-107.8306956	134.1867636	60.91116498	-52.72932474	-119.2325598
2.19	219	-2.754	-0.06	-0.848	93.392154	-82.219473	134.8170174	61.98259644	-54.26485218	-119.3700697
2.2	220	-2.219	-0.115	-0.535	101.8146366	-68.8122558	142.953021	62.95662504	-55.81756836	-119.284126
2.21	221	-1.709	-0.166	-0.321	88.4647152	-76.3753014	149.0263758	63.90200574	-57.45049866	-119.3242331
2.22	222	-1.565	-0.096	-0.325	71.1040878	-110.3517108	153.4381524	65.19689082	-59.26104594	-119.9774052
2.23	223	-2.064	-0.456	-0.337	74.9429064	-133.8429888	144.5000076	67.09911138	-61.06586364	-121.2665607
2.24	224	-2.679	-0.943	-0.103	60.16059	-120.0919968	119.9201094	68.97268404	-62.57847276	-122.6760374
2.25	225	-2.788	-0.676	0.227	14.9542038	-101.0697912	101.3562702	70.32486492	-63.84470994	-124.0052999
2.26	226	-2.493	-0.215	0.646	6.7036086	-124.618365	102.6167778	72.19843758	-65.1739725	-125.982005
2.27	227	-2.102	-0.215	0.949	43.0291458	-136.4785956	89.4387438	74.98874304	-66.36572514	-128.5488569
2.28	228	-2.335	-0.322	0.585	40.8519054	-109.6641612	84.511305	77.4352737	-67.4085087	-130.7318269
2.29	229	-2.498	-0.268	0.377	-0.5156622	-52.139178	97.2309726	78.19157826	-68.44556268	-131.5511568
2.3	230	-2.22	-0.001	0.527	9.9121734	-55.7488134	116.6542488	79.13695896	-69.67742238	-132.4392417
2.31	231	-1.666	-0.021	0.527	57.6395748	-50.6494872	116.310474	80.53497648	-70.88636376	-133.2986787
2.32	232	-1.226	-0.185	0.476	66.2339448	-53.6861646	104.3929476	82.31687586	-71.96925438	-134.4560539
2.33	233	-1.199	-0.215	0.32	68.6403684	-63.02538	95.111028	84.63162618	-72.95474214	-136.14628
2.34	234	-1.155	-0.273	0.319	68.3538894	-60.2178858	83.938347	87.11253432	-73.80844956	-137.9969343
2.35	235	-1.146	-0.251	0.333	68.1247062	-58.6136034	69.9581718	89.81689608	-74.49599916	-140.0767718
2.36	236	-1.103	-0.109	0.312	52.0818822	-47.4409224	61.9367598	92.1029985	-75.0861459	-141.8873191
2.37	237	-0.997	0.015	0.248	43.6593996	-35.1796212	54.43101	93.97084158	-75.59607852	-143.3540916
2.38	238	-0.842	0.032	0.211	46.8679644	-26.069589	45.0917946	95.59231272	-76.01433786	-144.5343851
2.39	239	-0.782	0.01	0.129	52.3683612	-21.2567418	38.0444112	97.12784016	-76.35238308	-145.5599799
2.4	240	-0.718	0.039	0.093	54.6601932	-17.18874	35.4088044	98.58888306	-76.68469872	-146.4939014
2.41	241	-0.716	0.09	0.084	55.576926	-18.621135	38.7892566	100.1759767	-77.02847352	-147.536685
2.42	242	-0.667	0.082	0.124	60.8481396	-19.480572	42.1697088	101.9521465	-77.39516664	-148.7227081
2.43	243	-0.713	0.064	0.126	62.6816052	-24.2361234	44.8626114	104.0663615	-77.76185976	-150.2353172
2.44	244	-0.748	0.064	0.109	59.7022236	-27.5592798	48.3003594	106.4670556	-78.14574162	-152.0573236
2.45	245	-0.805	0.037	0.112	56.0925882	-33.7472262	49.9046418	109.3089272	-78.51243474	-154.3778035
2.46	246	-0.853	0.014	0.1	48.5295426	-36.2109456	47.7274014	112.2768497	-78.82183206	-156.8930891
2.47	247	-0.931	0.057	0.11	38.2735944	-35.6379876	45.2063862	115.2046651	-79.07966316	-159.4771297
2.48	248	-1.011	0.123	0.136	31.6845774	-31.3408026	41.4248634	117.9090268	-79.2973872	-161.9007421
2.49	249	-1.054	0.196	0.139	30.366774	-24.5226024	37.7579322	120.2982617	-79.50365208	-164.0092275
2.5	250	-1.108	0.209	0.121	36.5547204	-17.5898106	33.2888598	122.4755021	-79.72137612	-165.8426931
2.51	251	-1.16	0.194	0.134	42.3415962	-12.5477802	29.8511118	124.3490747	-79.89326352	-167.3151952
2.52	252	-1.212	0.167	0.166	42.398892	-8.4224826	27.7311672	126.0335713	-80.0708805	-168.5814323
2.53	253	-1.233	0.141	0.199	44.0031744	-5.5576926	24.350715	127.5347212	-80.23130874	-169.6471342
2.54	254	-1.233	0.095	0.224	41.4821592	-5.0993262	21.7151082	128.9327387	-80.36881866	-170.6440811
2.55	255	-1.219	0.04	0.211	39.5913978	-1.2032118	18.048177	130.1416801	-80.50632858	-171.4576815
2.56	256	-1.205	-0.003	0.235	41.1956802	0.1145916	13.6936962	131.0526833	-80.60946102	-171.956155
2.57	257	-1.184	-0.031	0.253	41.3102718	3.7815228	10.6570188	131.7001259	-80.71259346	-172.1853382
2.58	258	-1.188	-0.051	0.241	37.4714532	8.8235532	8.59437	132.0095232	-80.83864422	-172.1165832
2.59	259	-1.214	-0.045	0.215	34.950438	13.6936962	7.2765666	132.0209824	-80.9876133	-171.7728084
2.6	260	-1.204	-0.043	0.195	35.9244666	18.621135	5.8441716	131.8147175	-81.1595007	-171.1941208
2.61	261	-1.154	-0.044	0.177	36.0390582	21.772404	4.6982556	131.3277032	-81.34284726	-170.3346838
2.62	262	-1.094	-0.045	0.147	34.091001	24.637194	4.2398892	130.634424	-81.54338256	-169.2804411
2.63	263	-1.047	-0.042	0.133	31.9710564	26.929026	3.8961144	129.7406095	-81.74964744	-168.054311
2.64	264	-1.01	-0.051	0.149	31.6272816	26.929026	3.9534102	128.7952288	-81.95591232	-166.7766146
2.65	265	-1.01	-0.068	0.178	31.9137606	24.350715	4.583664	128.0733017	-82.13925888	-165.7223719
2.66	266	-0.998	-0.093	0.193	31.0543236	19.3086846	4.6409598	127.4774254	-82.29968712	-164.8056391
2.67	267	-0.972	-0.089	0.207	27.4446882	16.902261	3.0939732	126.8930083	-82.42573788	-163.9404725
2.68	268	-0.927	-0.061	0.205	26.4706596	14.2093584	1.2032118	126.3544277	-82.52314074	-163.1268722
2.69	269	-0.942	-0.027	0.195	26.1841806	10.1413566	0.9740286	126.0278417	-82.59762528	-162.5252663
2.7	270	-0.933	-0.007	0.207	23.0329116	8.3651868	1.0886202	126.1653516	-82.65492108	-162.4278634
2.71	271	-0.936	0.01	0.203	23.4339822	9.167328	0	125.8215768	-82.71221688	-161.8377167
2.72	272	-0.947	0	0.229	25.3247436	7.6203414	-1.145916	125.5236386	-82.74659436	-161.2762178
2.73	273	-0.98	-0.015	0.231	24.7517856	4.1825934	-1.8907614	125.3975879	-82.75805352	-160.8980656
2.74	274	-1.02	-0.024	0.228	24.1215318	2.291832	-2.9220858	125.3402921	-82.74659436	-160.5943978
2.75	275	-1.033	-0.019	0.216	22.5745452	2.9793816	-4.1825934	125.5179091	-82.72940562	-160.5313724
2.76	276	-1.037	-0.002	0.175	21.0275586	3.3804522	-5.2139178	125.260078	-82.71221688	-160.0558173
2.77	277	-1.052	0.012	0.151	21.2567418	4.010706	-6.6463128	124.8991144	-82.6778394	-159.4828593
2.78	278	-1.059	0.011	0.143	21.7151082	4.6409598	-7.6203414	124.4693959	-82.64346192	-158.8239576
2.79	279	-1.035	0.001	0.136	20.7410796	5.0993262	-8.59437	123.9651929	-82.60335486	-158.1077601
2.8	280	-1.018	0.009	0.132	18.5065434	6.302538	-9.7975818	123.5583927	-82.58043654	-157.5004246
2.81	281	-1.02	0.013	0.12	15.6990492	7.9068204	-11.5164558	122.7276036	-82.52887032	-156.5034777
2.82	282	-1.03	0.013	0.098	13.750992	7.9068204	-13.0634424	121.8280595	-82.46011536	-155.4549646
2.83	283	-1.04	0.012	0.076	12.2040054	6.8182002	-14.7250206	120.9342451	-82.37417166	-154.4293697
2.84	284	-1.048	0.006	0.052	11.5737516	5.7868758	-16.615782	120.0518897	-82.26530964	-153.4209637
2.85	285	-1.044	-0.002	0.046	10.3705398	5.5003968	-18.5638392	119.1867232	-82.16790678	-152.4526646
2.86	286	-1.02	-0.006	0.052	8.307891	6.2452422	-20.4546006	118.1725875	-82.0189377	-151.3411261
2.87	287	-0.984	-0.004	0.057	7.5630456	7.9641162	-22.4599536	117.0152123	-81.85850946	-150.0978073
2.88	288	-0.959	-0.021	0.062	7.6776372	8.5370742	-23.777757	115.8349189	-81.68662206	-148.8258405
2.89	289	-0.959	-0.055	0.069	7.8495246	7.2192708	-23.7204612	114.7864057	-81.50900508	-147.6913837
2.9	290	-0.969	-0.091	0.088	7.3911582	6.4744254	-22.2307704	113.9326983	-81.33711768	-146.746003
2.91	291	-0.993	-0.122	0.1	6.5317212	6.8182002	-20.1108258	113.0675317	-81.18241902	-145.8063518
2.92	292	-1.005	-0.144	0.1	4.2398892	10.1413566	-18.334656	112.0705848	-81.05636826	-144.7521091
2.93	293	-1.014	-0.14	0.101	1.5469866	14.8396122	-17.475219	110.8215364	-80.95323582	-143.4744128
2.94	294	-1.01	-0.121	0.103	-1.2032118	18.8503182	-17.0168526	109.3547639	-80.86156254	-142.0076403
2.95	295	-1	-0.102	0.095	-2.4637194	20.6837838	-16.4438946	107.8994506	-80.79280758	-140.5580566
2.96	296	-0.995	-0.104	0.097	-1.6042824	20.7410796	-15.9855282	106.3983006	-80.70686388	-139.051177
2.97	297	-0.982	-0.111	0.111	0.2291832	21.2567418	-15.3552744	104.920069	-80.62092018	-137.5557566
2.98	298	-0.967	-0.133	0.109	0.4010706	21.5432208	-14.896908	103.4647556	-80.53497648	-136.077525
2.99	299	-0.958	-0.149	0.084	-0.6875496	20.7983754	-14.7823164	102.0667381	-80.4433032	-134.6737779
3	300	-0.968	-0.152	0.059	-1.6615782	18.4492476	-13.9228794	100.8520672	-80.34590034	-133.4591069
3.01	301	-0.985	-0.17	0.046	-2.291832	13.4072172	-13.5218088	99.9238752	-80.2427679	-132.5423741
3.02	302	-1.016	-0.158	0.051	-3.8961144	7.9641162	-12.318597	99.31653972	-80.13963546	-131.9694161
3.03	303	-1.011	-0.14	0.071	-6.9327918	5.5003968	-12.4331886	98.82379584	-80.02504386	-131.5454272
3.04	304	-1.002	-0.08	0.071	-10.313244	7.161975	-12.2040054	98.22791952	-79.92191142	-131.0469538
3.05	305	-0.987	-0.088	0.066	-11.45916	12.1467096	-15.1260912	97.39140084	-79.8130494	-130.3192971
3.06	306	-1.004	-0.087	0.043	-11.3445684	14.32395	-15.8136408	96.4001835	-79.68126906	-129.4312122
3.07	307	-1.019	-0.091	0.044	-8.8235532	11.8602306	-15.8709366	95.58658314	-79.53802956	-128.697826
3.08	308	-1.012	-0.158	0.089	-6.4744254	6.9900876	-15.756345	95.07092094	-79.39479006	-128.2394596
3.09	309	-1.037	-0.167	0.105	-6.7609044	2.9793816	-13.1207382	94.79017152	-79.26300972	-128.0217355
3.1	310	-1.052	-0.163	0.088	-9.5111028	3.0366774	-10.599723	94.61255454	-79.16560686	-127.9357918
3.11	311	-1.021	-0.17	0.083	-11.172681	6.9900876	-10.5424272	94.10262192	-79.068204	-127.5347212
3.12	312	-0.992	-0.132	0.065	-12.5477802	12.3758928	-9.740286	93.31766946	-78.9822603	-126.8700899
3.13	313	-0.979	-0.125	0.041	-12.032118	15.5271618	-9.2819196	92.39520708	-78.90204618	-126.05076
3.14	314	-0.964	-0.149	0.021	-10.1986524	14.5531332	-9.3392154	91.54722924	-78.81610248	-125.2944554
3.15	315	-0.977	-0.155	0.001	-8.1932994	9.453807	-7.9068204	90.93989376	-78.7530771	-124.7673341
3.16	316	-0.984	-0.18	0.011	-6.7036086	3.2085648	-6.7036086	90.71071056	-78.69005172	-124.6011763
3.17	317	-0.979	-0.193	0.024	-9.3965112	1.7761698	-5.5576926	90.527364	-78.6384855	-124.509503
3.18	318	-0.966	-0.177	0.034	-13.4072172	5.3858052	-4.870143	90.1262934	-78.59264886	-124.2459423
3.19	319	-0.961	-0.149	0.035	-15.6417534	10.7716104	-5.156622	89.45020296	-78.54108264	-123.7188209
3.2	320	-0.969	-0.13	0.026	-14.896908	15.0114996	-5.9587632	88.59649554	-78.50670516	-123.0026234
3.21	321	-0.985	-0.133	0.02	-12.1467096	15.8709366	-6.016059	87.71414022	-78.44367978	-122.2348597
3.22	322	-0.992	-0.141	0.015	-9.7975818	14.0947668	-5.2712136	86.9463765	-78.39211356	-121.5530397
3.23	323	-0.984	-0.153	0.009	-7.7922288	11.6883432	-3.9534102	86.32185228	-78.3520065	-120.9972704
3.24	324	-0.975	-0.166	0.022	-6.9327918	9.6256944	-2.5210152	85.8004605	-78.3233586	-120.5331745
3.25	325	-0.977	-0.179	0.037	-6.9327918	7.3338624	-0.9167328	85.55981814	-78.3233586	-120.3555575
3.26	326	-0.991	-0.184	0.042	-7.6776372	5.0993262	0.1145916	85.23896166	-78.3233586	-120.1091855
3.27	327	-1.003	-0.17	0.038	-9.2819196	3.4950438	0.5156622	84.98113056	-78.32908818	-119.9372981
3.28	328	-0.999	-0.145	0.017	-10.7143146	2.7501984	0	84.7404882	-78.32908818	-119.8055178
3.29	329	-0.986	-0.125	-0.005	-11.1153852	2.9220858	-0.859437	84.49411626	-78.31762902	-119.6737375
3.3	330	-0.97	-0.122	-0.018	-10.8289062	2.86479	-1.718874	84.17898936	-78.34627692	-119.4732022
3.31	331	-0.955	-0.132	-0.026	-11.2872726	2.6929026	-2.1772404	83.95553574	-78.3233586	-119.3586106
3.32	332	-0.947	-0.149	-0.023	-12.3758928	2.0626488	-2.1199446	83.74354128	-78.30616986	-119.2726669
3.33	333	-0.952	-0.165	-0.023	-14.037471	0.9740286	-1.4896908	83.57165388	-78.28898112	-119.2382894
3.34	334	-0.967	-0.171	-0.031	-15.6990492	0.4583664	-0.572958	83.39976648	-78.28325154	-119.2325598
3.35	335	-0.984	-0.171	-0.034	-16.5584862	0.1145916	-0.0572958	83.1648537	-78.30616986	-119.1695344
3.36	336	-0.992	-0.164	-0.031	-16.7303736	0.4583664	-0.0572958	82.98150714	-78.30616986	-119.1523457
3.37	337	-0.986	-0.151	-0.036	-15.5844576	0.9167328	-0.5156622	82.78670142	-78.30044028	-119.1179682
3.38	338	-0.976	-0.137	-0.043	-13.5791046	1.0313244	-0.859437	82.60908444	-78.28898112	-119.0778611
3.39	339	-0.968	-0.132	-0.041	-11.5164558	-0.1718874	-0.9167328	82.51741116	-78.28325154	-119.1007795
3.4	340	-0.962	-0.134	-0.02	-10.7716104	-1.4896908	-0.6302538	82.44292662	-78.32908818	-119.1466161
3.41	341	-0.953	-0.134	-0.017	-10.8289062	-1.7761698	-0.2291832	82.42573788	-78.32908818	-119.2382894
3.42	342	-0.959	-0.142	-0.013	-10.7143146	-2.005353	0.4010706	82.41427872	-78.33481776	-119.3414218
3.43	343	-0.976	-0.153	-0.003	-11.5164558	-1.7761698	1.0886202	82.37990124	-78.3520065	-119.4273655
3.44	344	-0.985	-0.149	0	-12.032118	-0.0572958	1.145916	82.25958006	-78.36346566	-119.4273655
3.45	345	-0.99	-0.146	0.005	-11.0580894	2.7501984	0.6875496	82.0762335	-78.4093023	-119.352881
3.46	346	-0.985	-0.143	0.001	-9.8548776	4.6409598	0.2291832	81.75537702	-78.4093023	-119.1294274
3.47	347	-0.974	-0.142	-0.013	-8.4797784	4.9847346	0.1718874	81.42879096	-78.4093023	-118.888785
3.48	348	-0.968	-0.141	-0.024	-6.4744254	3.8961144	0.4010706	81.17668944	-78.4093023	-118.6997089
3.49	349	-0.969	-0.146	-0.032	-4.3544808	1.7761698	0.9740286	81.03917952	-78.41503188	-118.602306
3.5	350	-0.971	-0.154	-0.03	-3.437748	-0.4583664	1.6615782	80.90739918	-78.495246	-118.5163623
3.51	351	-0.981	-0.161	-0.017	-3.7815228	-2.005353	2.291832	80.95323582	-78.51816432	-118.602306
3.52	352	-0.986	-0.163	-0.016	-4.4690724	-3.0366774	2.7501984	81.03344994	-78.5525418	-118.7283568
3.53	353	-0.99	-0.155	-0.023	-4.6982556	-4.1825934	2.8074942	81.17668944	-78.58691928	-118.9231625
3.54	354	-0.977	-0.144	-0.023	-4.583664	-5.2712136	2.3491278	81.37149516	-78.61556718	-119.1695344
3.55	355	-0.965	-0.132	-0.027	-4.4690724	-5.2139178	1.6042824	81.46889802	-78.70151088	-119.3242331
3.56	356	-0.963	-0.128	-0.024	-4.4690724	-4.1252976	1.0313244	81.62359668	-78.71297004	-119.530498
3.57	357	-0.971	-0.128	-0.022	-4.4117766	-2.8074942	0.9167328	81.71526996	-78.73015878	-119.6680079
3.58	358	-0.98	-0.135	-0.021	-3.3231564	-1.6615782	1.3178034	81.7611066	-78.74161794	-119.748222
3.59	359	-0.992	-0.147	-0.016	-1.8907614	-1.432395	1.8334656	81.80121366	-78.76453626	-119.8055178
3.6	360	-0.999	-0.157	-0.009	-1.0886202	-2.6929026	2.3491278	81.92726442	-78.85047996	-119.9487573
3.61	361	-0.997	-0.151	-0.003	-0.9167328	-4.5263682	2.4637194	82.12779972	-78.87912786	-120.1664813
3.62	362	-0.997	-0.142	0.009	-1.0313244	-5.156622	2.2345362	82.3627125	-78.90777576	-120.4128533
3.63	363	-0.995	-0.13	0.018	-1.2032118	-4.5263682	2.005353	82.5632478	-78.93069408	-120.6305773
3.64	364	-0.993	-0.12	0.023	-0.1718874	-3.2085648	1.5469866	82.71794646	-78.9536124	-120.785276
3.65	365	-0.994	-0.12	0.03	1.5469866	-2.4064236	1.2605076	83.22787908	-79.10258148	-121.2780199
3.66	366	-0.997	-0.128	0.036	2.6929026	-2.2345362	1.2605076	83.35965942	-79.11404064	-121.3868819
3.67	367	-1	-0.132	0.03	3.0939732	-2.291832	1.5469866	83.50289892	-79.13122938	-121.4957439
3.68	368	-1.004	-0.135	0.014	3.151269	-2.4637194	1.718874	83.651868	-79.1541477	-121.6160651
3.69	369	-1.007	-0.132	0.005	2.578311	-3.4950438	1.6615782	83.84667372	-79.17133644	-121.7879525
3.7	370	-1.005	-0.128	0.008	1.4896908	-4.1825934	1.432395	84.17325978	-79.28592804	-122.1030794
3.71	371	-0.999	-0.124	0.013	0.8021412	-4.2398892	0.9740286	84.3967134	-79.2973872	-122.3208034
3.72	372	-0.992	-0.12	0.016	0.6302538	-3.6669312	0.286479	84.5972487	-79.30311678	-122.5156091
3.73	373	-0.989	-0.12	0.009	0.9740286	-3.0366774	-0.4010706	84.7691361	-79.30311678	-122.681767
3.74	374	-0.991	-0.12	0.004	1.3750992	-2.8074942	-1.0313244	84.93529392	-79.29165762	-122.8364656
3.75	375	-0.994	-0.125	0.004	1.6042824	-2.86479	-1.4896908	85.1415588	-79.37760132	-123.0312713
3.76	376	-0.999	-0.125	0.003	1.8334656	-3.0366774	-1.6615782	85.32490536	-79.36614216	-123.2031587
3.77	377	-1.004	-0.128	0	2.3491278	-3.437748	-2.005353	85.53689982	-79.34322384	-123.3922349
3.78	378	-1.004	-0.129	0.007	2.291832	-3.4950438	-2.4064236	85.75462386	-79.32030552	-123.5927702
3.79	379	-1.001	-0.128	0.022	2.0626488	-3.2658606	-2.7501984	85.95515916	-79.2973872	-123.7761167
3.8	380	-0.996	-0.126	0.028	2.2345362	-2.4637194	-3.0366774	86.29893396	-79.34322384	-124.0912436
3.81	381	-0.992	-0.128	0.034	3.151269	-1.718874	-3.437748	86.4307143	-79.30884636	-124.1943761
3.82	382	-0.995	-0.134	0.045	3.6669312	-1.2032118	-3.6096354	86.53957632	-79.27446888	-124.2688606
3.83	383	-1.001	-0.139	0.044	3.6096354	-0.4583664	-3.6096354	86.61406086	-79.2400914	-124.3032381
3.84	384	-1.003	-0.137	0.035	3.8961144	0	-3.6669312	86.6598975	-79.19998434	-124.3146973
3.85	385	-1.005	-0.135	0.029	4.297185	0.1718874	-3.6096354	86.87189196	-79.23436182	-124.4808551
3.86	386	-1.006	-0.136	0.033	4.010706	0.2291832	-3.6096354	86.90626944	-79.19425476	-124.4751255
3.87	387	-1.001	-0.138	0.033	3.8961144	0.1718874	-3.724227	86.9463765	-79.15987728	-124.4693959
3.88	388	-0.995	-0.144	0.033	4.1825934	0	-3.724227	86.99794272	-79.11977022	-124.4808551
3.89	389	-0.995	-0.151	0.029	4.4690724	-0.7448454	-3.6096354	87.089616	-79.08539274	-124.5266917
3.9	390	-0.998	-0.158	0.028	4.6982556	-1.6615782	-3.6096354	87.37036542	-79.07966316	-124.7616045
3.91	391	-0.999	-0.16	0.031	4.6409598	-2.1772404	-3.3804522	87.53652324	-79.04528568	-124.8819257
3.92	392	-0.991	-0.154	0.026	4.0680018	-2.291832	-3.437748	87.70268106	-79.0109082	-125.0022469
3.93	393	-0.987	-0.146	0.021	3.5523396	-2.2345362	-3.437748	87.85737972	-78.97653072	-125.1282976
3.94	394	-0.984	-0.143	0.018	3.437748	-2.578311	-3.3231564	88.02926712	-78.94788282	-125.2658075
3.95	395	-0.983	-0.145	0.016	3.0366774	-2.86479	-3.151269	88.26990948	-78.96507156	-125.477802
3.96	396	-0.983	-0.15	0.02	2.3491278	-2.6929026	-3.0366774	88.43033772	-78.93642366	-125.6210415
3.97	397	-0.989	-0.154	0.025	1.718874	-2.0626488	-3.2085648	88.55638848	-78.90204618	-125.7299035
3.98	398	-0.994	-0.159	0.027	1.3750992	-0.9167328	-3.2085648	88.61941386	-78.8676687	-125.7814697
3.99	399	-0.996	-0.16	0.022	1.0886202	0.1718874	-3.0939732	88.62514344	-78.8390208	-125.7757402
4	400	-1	-0.161	0.017	1.3178034	0.6875496	-2.8074942	88.69962798	-78.87912786	-125.833036
4.01	401	-1	-0.16	0.017	1.8907614	0.572958	-2.291832	88.68816882	-78.85620954	-125.8043881
4.02	402	-0.997	-0.161	0.017	2.1772404	0.0572958	-2.005353	88.71108714	-78.8390208	-125.8043881
4.03	403	-0.997	-0.163	0.024	2.1772404	-0.572958	-1.8334656	88.76265336	-78.82183206	-125.833036
4.04	404	-0.994	-0.162	0.028	1.6615782	-0.7448454	-1.7761698	88.81994916	-78.79891374	-125.873143
4.05	405	-0.989	-0.16	0.028	1.0886202	-0.286479	-1.5469866	89.25539724	-78.91923492	-126.2914024
4.06	406	-0.992	-0.16	0.034	0.7448454	0.4010706	-1.2605076	89.2382085	-78.90777576	-126.268484
4.07	407	-0.998	-0.162	0.041	0.1718874	1.6615782	-1.0313244	89.15799438	-78.8963166	-126.1825403
4.08	408	-1	-0.155	0.035	-0.4010706	3.2085648	-0.7448454	88.99183656	-78.89058702	-126.0163825
4.09	409	-1.002	-0.151	0.027	-0.0572958	4.6409598	-0.5156622	88.75692378	-78.88485744	-125.7814697
4.1	410	-1.004	-0.156	0.03	0.8021412	4.7555514	-0.1145916	88.72827588	-78.94788282	-125.7356331
4.11	411	-1.004	-0.161	0.031	1.2032118	4.297185	0.286479	88.522011	-78.94788282	-125.5121795
4.12	412	-1.005	-0.163	0.03	1.3750992	3.5523396	0.6875496	88.35585318	-78.9536124	-125.3288329
4.13	413	-1.002	-0.162	0.029	1.0886202	3.3231564	0.6875496	88.19542494	-78.96507156	-125.1569455
4.14	414	-0.998	-0.159	0.033	0.5156622	3.6096354	0.6302538	88.01207838	-78.97080114	-124.9678694
4.15	415	-0.996	-0.156	0.035	0.1718874	4.3544808	0.6875496	88.0636446	-79.0395561	-125.0022469
4.16	416	-0.996	-0.156	0.037	0.1145916	5.0993262	0.9167328	87.80008392	-79.05101526	-124.7386862
4.17	417	-1.002	-0.162	0.041	0.1718874	6.0733548	1.3178034	87.48495702	-79.06247442	-124.4178297
4.18	418	-1.001	-0.164	0.034	0.572958	6.875496	1.5469866	87.13545264	-79.07393358	-124.0511366
4.19	419	-0.995	-0.164	0.024	1.0313244	7.2765666	2.005353	86.76875952	-79.0968519	-123.6672547
4.2	420	-0.994	-0.165	0.018	1.4896908	6.9327918	2.578311	86.50519884	-79.13695896	-123.3807757
4.21	421	-0.991	-0.165	0.017	1.5469866	6.2452422	3.0366774	86.18434236	-79.16560686	-123.0427305
4.22	422	-0.996	-0.162	0.022	1.432395	5.9014674	3.437748	85.88067462	-79.19998434	-122.7161444
4.23	423	-1	-0.157	0.029	1.145916	6.302538	3.6096354	85.54835898	-79.23436182	-122.3666401
4.24	424	-0.997	-0.149	0.021	0.859437	7.161975	3.437748	85.1702067	-79.26300972	-121.971299
4.25	425	-0.992	-0.141	0.012	1.145916	8.021412	3.151269	84.797784	-79.3260351	-121.5816876
4.26	426	-0.99	-0.141	0.004	1.8334656	8.1360036	2.9793816	84.3680655	-79.34895342	-121.1290508
4.27	427	-0.99	-0.149	0.001	2.4637194	7.8495246	2.9793816	83.96126532	-79.37187174	-120.6878731
4.28	428	-0.99	-0.155	-0.002	2.6356068	7.734933	3.3231564	83.56019472	-79.40051964	-120.252425
4.29	429	-0.991	-0.154	-0.007	2.5210152	7.5630456	3.6096354	83.15912412	-79.42916754	-119.8227065
4.3	430	-0.995	-0.15	-0.011	2.4064236	7.161975	3.8388186	82.7637831	-79.48646334	-119.3987176
4.31	431	-0.996	-0.145	-0.009	2.2345362	6.6463128	3.9534102	82.40854914	-79.51511124	-119.0091062
4.32	432	-0.995	-0.139	-0.005	1.9480572	6.2452422	3.9534102	82.06477434	-79.54948872	-118.6424131
4.33	433	-1.001	-0.138	0.007	1.6042824	6.7609044	4.0680018	81.68662206	-79.5838662	-118.2413425
4.34	434	-1.01	-0.139	0.01	1.6615782	8.0787078	4.010706	81.23398524	-79.6125141	-117.7657873
4.35	435	-1.006	-0.141	0.002	1.7761698	9.3965112	3.2658606	80.76415968	-79.65835074	-117.2673139
4.36	436	-0.996	-0.143	-0.005	2.0626488	10.0840608	2.578311	80.21412	-79.6698099	-116.6943559
4.37	437	-0.989	-0.143	-0.01	2.3491278	9.9121734	2.005353	79.68126906	-79.67553948	-116.1271274
4.38	438	-0.984	-0.144	-0.017	2.1199446	9.167328	1.8334656	79.18852518	-79.68126906	-115.6057357
4.39	439	-0.981	-0.144	-0.02	1.8334656	8.1932994	1.8907614	78.74734752	-79.68699864	-115.1359101
4.4	440	-0.976	-0.143	-0.026	1.718874	7.734933	2.3491278	78.2660628	-79.72137612	-114.6374366
4.41	441	-0.978	-0.141	-0.031	1.3178034	7.1046792	2.8074942	77.8649922	-79.73856486	-114.2191773
4.42	442	-0.983	-0.14	-0.029	1.145916	6.7036086	3.151269	77.48111034	-79.7557536	-113.8123771
4.43	443	-0.987	-0.139	-0.028	0.859437	6.6463128	3.2085648	77.0914989	-79.77294234	-113.4113065
4.44	444	-0.988	-0.135	-0.027	0.9167328	6.589017	2.9220858	76.70761704	-79.79013108	-113.0102359
4.45	445	-0.988	-0.132	-0.025	1.3178034	6.8182002	2.578311	76.30081686	-79.83596772	-112.586247
4.46	446	-0.987	-0.13	-0.026	1.4896908	7.161975	2.2345362	75.89401668	-79.8416973	-112.1622581
4.47	447	-0.988	-0.13	-0.031	1.3750992	7.3911582	1.9480572	75.48148692	-79.84742688	-111.72681
4.48	448	-0.989	-0.132	-0.037	1.3178034	7.161975	1.8907614	75.08041632	-79.84742688	-111.3085507
4.49	449	-0.985	-0.133	-0.041	1.432395	6.589017	1.9480572	74.7137232	-79.85315646	-110.9189392
4.5	450	-0.981	-0.131	-0.046	1.6042824	6.016059	2.0626488	74.24389764	-79.89326352	-110.4376545
4.51	451	-0.978	-0.13	-0.051	1.6042824	5.2712136	1.8907614	73.94595948	-79.89326352	-110.116798
4.52	452	-0.974	-0.127	-0.056	1.3750992	4.297185	1.6042824	73.70531712	-79.8989931	-109.8589669
4.53	453	-0.973	-0.122	-0.061	1.145916	3.2658606	1.2605076	73.51624098	-79.90472268	-109.652702
4.54	454	-0.977	-0.122	-0.057	0.9167328	2.578311	0.8021412	73.37300148	-79.90472268	-109.4980034
4.55	455	-0.983	-0.124	-0.051	0.6302538	2.2345362	0.3437748	72.91463508	-80.0135847	-109.0453666
4.56	456	-0.988	-0.126	-0.048	0.6302538	2.4064236	0	72.78858432	-80.00212554	-108.9135862
4.57	457	-0.986	-0.125	-0.049	0.6875496	2.578311	-0.4010706	72.66253356	-79.99639596	-108.7818059
4.58	458	-0.983	-0.124	-0.055	0.7448454	2.4064236	-0.6875496	72.55367154	-79.97920722	-108.6557551
4.59	459	-0.982	-0.126	-0.059	0.859437	1.3750992	-0.9740286	72.50210532	-79.96774806	-108.5984593
4.6	460	-0.981	-0.13	-0.061	0.9740286	0.4010706	-1.2605076	71.8775811	-80.05942134	-107.9911238
4.61	461	-0.98	-0.132	-0.062	0.6302538	-0.1145916	-1.432395	71.91768816	-80.0422326	-108.0255013
4.62	462	-0.981	-0.133	-0.063	0.1145916	-0.6302538	-1.4896908	71.98071354	-80.03077344	-108.0885267
4.63	463	-0.987	-0.135	-0.056	0	-1.0886202	-1.5469866	72.06665724	-80.01931428	-108.1744704
4.64	464	-0.989	-0.138	-0.045	-0.1145916	-1.432395	-1.6042824	72.17551926	-80.00785512	-108.289062
4.65	465	-0.988	-0.136	-0.048	-0.5156622	-1.6042824	-1.7761698	72.0781164	-80.05942134	-108.2031183
4.66	466	-0.987	-0.136	-0.05	-0.4583664	-1.6615782	-2.005353	72.19843758	-80.0422326	-108.3348986
4.67	467	-0.985	-0.136	-0.041	-0.4010706	-1.7761698	-2.005353	72.33021792	-80.03077344	-108.466679
4.68	468	-0.981	-0.137	-0.041	-0.286479	-1.8334656	-2.005353	72.46199826	-80.0135847	-108.6041889
4.69	469	-0.98	-0.144	-0.04	0	-2.291832	-1.6615782	72.61096734	-80.00785512	-108.7646171
4.7	470	-0.982	-0.149	-0.036	-0.2291832	-3.0939732	-1.2032118	72.78858432	-80.03650302	-108.9422341
4.71	471	-0.986	-0.149	-0.035	-0.6302538	-3.6669312	-0.7448454	72.9948492	-80.03650302	-109.1599582
4.72	472	-0.991	-0.146	-0.035	-0.6302538	-3.6669312	-0.2291832	73.1953845	-80.0422326	-109.366223
4.73	473	-0.996	-0.144	-0.03	-0.0572958	-3.3231564	0.1718874	73.37300148	-80.05369176	-109.5495696
4.74	474	-0.998	-0.142	-0.025	-0.0572958	-2.8074942	0.2291832	73.52197056	-80.06515092	-109.7042683
4.75	475	-0.994	-0.139	-0.027	-0.2291832	-2.3491278	0.1145916	73.68812838	-80.17974252	-109.8761557
4.76	476	-0.991	-0.136	-0.026	-0.1718874	-2.3491278	0.1145916	73.81417914	-80.1854721	-110.0022064
4.77	477	-0.991	-0.138	-0.024	0	-2.578311	0.0572958	73.95741864	-80.19120168	-110.1511755
4.78	478	-0.992	-0.138	-0.024	0.3437748	-2.86479	0	74.12357646	-80.20266084	-110.3116037
4.79	479	-0.992	-0.138	-0.028	0.6302538	-3.0939732	-0.0572958	74.30692302	-80.20839042	-110.4892207
4.8	480	-0.992	-0.136	-0.032	0.7448454	-3.0366774	-0.2291832	74.41578504	-80.2714158	-110.6038123
4.81	481	-0.992	-0.135	-0.032	0.6302538	-3.0939732	-0.2291832	74.60486118	-80.27714538	-110.7814293
4.82	482	-0.99	-0.134	-0.03	0.572958	-3.3804522	-0.2291832	74.80539648	-80.28287496	-110.9819646
4.83	483	-0.991	-0.137	-0.028	0.6302538	-3.5523396	-0.2291832	75.01739094	-80.28860454	-111.1882295
4.84	484	-0.991	-0.139	-0.025	0.7448454	-3.6669312	-0.1145916	75.23511498	-80.29433412	-111.4002239
4.85	485	-0.996	-0.142	-0.022	0.7448454	-3.5523396	-0.1145916	75.52732356	-80.35162992	-111.6867029
4.86	486	-0.997	-0.139	-0.021	0.859437	-3.2658606	-0.1718874	75.72212928	-80.3573595	-111.8757791
4.87	487	-0.997	-0.137	-0.022	1.0313244	-2.9220858	-0.2291832	75.90547584	-80.3573595	-112.0533961
4.88	488	-0.997	-0.137	-0.021	1.2605076	-2.578311	-0.1718874	76.07163366	-80.36308908	-112.2023651
4.89	489	-0.998	-0.138	-0.022	1.432395	-2.4064236	-0.0572958	76.22633232	-80.36881866	-112.3456046
4.9	490	-0.999	-0.141	-0.019	1.4896908	-2.1772404	-0.0572958	76.4325972	-80.42038488	-112.5404104
4.91	491	-1	-0.141	-0.017	1.3178034	-2.005353	-0.1145916	76.56437754	-80.42611446	-112.6607315
4.92	492	-0.996	-0.138	-0.017	1.145916	-1.5469866	-0.1718874	76.67323956	-80.42611446	-112.7524048
4.93	493	-0.989	-0.135	-0.022	1.2032118	-1.145916	-0.286479	76.75345368	-80.42611446	-112.8268894
4.94	494	-0.986	-0.137	-0.023	1.3750992	-1.145916	-0.4583664	76.83939738	-80.42038488	-112.9013739
4.95	495	-0.985	-0.139	-0.022	1.2032118	-1.4896908	-0.4583664	76.94252982	-80.48341026	-112.9930472
4.96	496	-0.985	-0.14	-0.021	0.859437	-1.432395	-0.3437748	77.03993268	-80.48341026	-113.0789909
4.97	497	-0.991	-0.14	-0.021	0.8021412	-0.9740286	-0.2291832	77.10868764	-80.48341026	-113.1420163
4.98	498	-0.997	-0.139	-0.018	1.0313244	-0.6875496	-0.1145916	77.16025386	-80.48341026	-113.1878529
4.99	499	-1	-0.138	-0.014	1.2605076	-0.572958	-0.1145916	77.2060905	-80.48341026	-113.2222304
5	500	-1.002	-0.138	-0.013	1.4896908	-0.6302538	0	77.38943706	-80.57508354	-113.3883882
5.01	501	-1.001	-0.138	-0.014	1.7761698	-0.572958	-0.1145916	77.44673286	-80.56935396	-113.4227657
5.02	502	-0.999	-0.137	-0.014	2.1199446	-0.572958	-0.286479	77.50402866	-80.56935396	-113.4628727
5.03	503	-0.995	-0.138	-0.016	2.2345362	-0.572958	-0.3437748	77.56705404	-80.56935396	-113.5029798
5.04	504	-0.992	-0.138	-0.018	2.2345362	-0.572958	-0.4010706	77.63007942	-80.56362438	-113.5430869
5.05	505	-0.992	-0.137	-0.021	2.1199446	-0.6875496	-0.3437748	77.6644569	-80.62664976	-113.5602756
5.06	506	-0.992	-0.137	-0.023	1.7761698	-0.7448454	-0.3437748	77.73321186	-80.62092018	-113.6118418
5.07	507	-0.994	-0.135	-0.024	1.6042824	-0.9167328	-0.2291832	77.8076964	-80.62092018	-113.6691376
5.08	508	-0.996	-0.136	-0.02	1.5469866	-0.9740286	-0.2291832	77.88791052	-80.62092018	-113.732163
5.09	509	-0.998	-0.137	-0.017	1.3750992	-0.8021412	-0.3437748	77.9509359	-80.62092018	-113.7837292
5.1	510	-1	-0.139	-0.015	1.3750992	-0.572958	-0.4010706	78.14001204	-80.7011343	-113.9613462
5.11	511	-0.996	-0.141	-0.015	1.3750992	-0.286479	-0.5156622	78.1801191	-80.69540472	-113.9842645
5.12	512	-0.993	-0.142	-0.021	1.5469866	0	-0.572958	78.20303742	-80.68967514	-113.9957237
5.13	513	-0.99	-0.14	-0.026	1.432395	-0.1145916	-0.6302538	78.2374149	-80.68394556	-114.0071828
5.14	514	-0.986	-0.14	-0.031	1.3750992	-0.4010706	-0.5156622	78.28325154	-80.67821598	-114.0415603
5.15	515	-0.986	-0.139	-0.031	1.2605076	-0.572958	-0.4583664	78.08271624	-80.74124136	-113.841025
5.16	516	-0.986	-0.138	-0.029	0.8021412	-0.6302538	-0.4010706	78.14001204	-80.74124136	-113.8868617
5.17	517	-0.987	-0.14	-0.028	0.6875496	-0.8021412	-0.2291832	78.19730784	-80.74124136	-113.9384279
5.18	518	-0.987	-0.142	-0.029	0.572958	-1.0886202	-0.1718874	78.27179238	-80.74124136	-114.0129124
5.19	519	-0.989	-0.143	-0.03	0.5156622	-1.6615782	-0.0572958	78.3806544	-80.74124136	-114.1103153
5.2	520	-0.99	-0.143	-0.032	0.572958	-2.1199446	-0.1718874	78.30044028	-80.77561884	-114.0358307
5.21	521	-0.99	-0.14	-0.031	0.1145916	-2.1772404	-0.4010706	78.4379502	-80.77561884	-114.1790702
5.22	522	-0.989	-0.139	-0.029	0	-2.2345362	-0.286479	78.5811897	-80.77561884	-114.3165802
5.23	523	-0.989	-0.142	-0.027	0.1718874	-2.578311	-0.1718874	78.74161794	-80.78134842	-114.482738
5.24	524	-0.989	-0.144	-0.025	0.2291832	-3.0939732	0	78.93069408	-80.787078	-114.6718141
5.25	525	-0.991	-0.143	-0.026	0	-3.6669312	0.0572958	79.0395561	-80.82718506	-114.7864057
5.26	526	-0.992	-0.138	-0.027	0	-3.5523396	0	79.25728014	-80.83291464	-115.0041298
5.27	527	-0.989	-0.136	-0.032	0.7448454	-3.437748	-0.1718874	79.48073376	-80.83291464	-115.2218538
5.28	528	-0.981	-0.134	-0.04	1.2605076	-3.4950438	-0.5156622	79.70991696	-80.83291464	-115.4395778
5.29	529	-0.977	-0.135	-0.049	1.4896908	-3.724227	-0.7448454	79.96201848	-80.83291464	-115.6802202
5.3	530	-0.974	-0.135	-0.055	1.432395	-4.4117766	-0.7448454	79.9849368	-80.8443738	-115.6974089
5.31	531	-0.972	-0.137	-0.05	1.2605076	-5.72958	-0.7448454	80.35162992	-80.8443738	-116.0583725
5.32	532	-0.972	-0.136	-0.043	1.0313244	-7.2192708	-0.6875496	80.80999632	-80.85010338	-116.5110093
5.33	533	-0.969	-0.134	-0.037	0.9740286	-8.8235532	-0.9167328	81.37149516	-80.85010338	-117.061049
5.34	534	-0.969	-0.133	-0.035	1.2032118	-10.5424272	-1.3178034	82.03612644	-80.85010338	-117.7256803
5.35	535	-0.974	-0.133	-0.043	1.2032118	-11.45916	-1.6042824	82.63200276	-80.85583296	-118.3215566
