TimeStamp(s)	FrameCounter	AccX	AccY	AccZ	GyrX	GyrY	GyrZ	EulerX	EulerY	EulerZ
0.01	1	0.036	-0.998	0.169	-0.6875496	-0.6302538	-0.7448454	99.52853418	3.60390582	-27.66241224
0.02	2	0.038	-0.999	0.165	-1.145916	-0.572958	-0.6302538	99.51134544	3.6096354	-27.66814182
0.03	3	0.039	-0.999	0.161	-1.145916	-0.4583664	-0.4583664	99.49988628	3.61536498	-27.66814182
0.04	4	0.039	-0.998	0.159	-0.9740286	-0.4010706	-0.4010706	99.4941567	3.62109456	-27.6738714
0.05	5	0.038	-0.996	0.16	-0.7448454	-0.2291832	-0.4583664	99.44832006	3.59817624	-27.6738714
0.06	6	0.037	-0.997	0.161	-0.5156622	-0.1145916	-0.572958	99.44259048	3.60390582	-27.6738714
0.07	7	0.037	-0.996	0.161	-0.3437748	-0.2291832	-0.6875496	99.4368609	3.6096354	-27.6738714
0.08	8	0.036	-0.996	0.164	-0.4010706	-0.286479	-0.6302538	99.43113132	3.62109456	-27.67960098
0.09	9	0.037	-0.996	0.164	-0.8021412	-0.572958	-0.572958	99.42540174	3.62682414	-27.67960098
0.1	10	0.038	-0.996	0.163	-0.9167328	-0.4583664	-0.6302538	99.39102426	3.6096354	-27.68533056
0.11	11	0.038	-0.995	0.16	-0.7448454	-0.1145916	-0.4583664	99.3795651	3.61536498	-27.68533056
0.12	12	0.037	-0.994	0.16	-0.6302538	0	-0.5156622	99.37383552	3.62109456	-27.68533056
0.13	13	0.037	-0.994	0.16	-0.4583664	0.3437748	-0.572958	99.36810594	3.62682414	-27.67960098
0.14	14	0.039	-0.996	0.16	-0.286479	0.3437748	-0.5156622	99.36810594	3.63255372	-27.6738714
0.15	15	0.04	-0.997	0.163	-0.2291832	0.0572958	-0.572958	99.2936214	3.57525792	-27.66814182
0.16	16	0.039	-0.997	0.162	0	-0.1145916	-0.6302538	99.2936214	3.58671708	-27.66814182
0.17	17	0.038	-0.998	0.16	0.286479	0.0572958	-0.6875496	99.29935098	3.59244666	-27.66241224
0.18	18	0.038	-0.997	0.155	0.1145916	0.3437748	-0.6875496	99.29935098	3.59817624	-27.66241224
0.19	19	0.039	-0.995	0.154	0	0.4583664	-0.6875496	99.29935098	3.60390582	-27.65095308
0.2	20	0.039	-0.995	0.153	0.1145916	0.4010706	-0.6875496	99.24778476	3.57525792	-27.6452235
0.21	21	0.039	-0.994	0.154	0.1145916	0.2291832	-0.6875496	99.24778476	3.5809875	-27.6452235
0.22	22	0.04	-0.996	0.159	0.0572958	0.1718874	-0.7448454	99.24778476	3.58671708	-27.63949392
0.23	23	0.041	-0.996	0.164	0.0572958	-0.1145916	-0.7448454	99.24778476	3.59817624	-27.63949392
0.24	24	0.041	-0.996	0.164	0.3437748	-0.5156622	-0.6875496	99.25351434	3.60390582	-27.6452235
0.25	25	0.044	-0.997	0.165	0.6302538	-0.7448454	-0.6875496	99.2363256	3.59817624	-27.65095308
0.26	26	0.043	-0.999	0.162	0.4010706	-0.8021412	-0.7448454	99.24205518	3.6096354	-27.65668266
0.27	27	0.041	-0.999	0.159	0.1145916	-0.5156622	-0.8021412	99.24205518	3.61536498	-27.65668266
0.28	28	0.038	-0.998	0.16	-0.1145916	-0.1145916	-0.7448454	99.24205518	3.62682414	-27.65668266
0.29	29	0.039	-0.997	0.164	0.0572958	0.2291832	-0.6875496	99.24205518	3.63255372	-27.65668266
0.3	30	0.043	-0.996	0.167	0.5156622	0.4010706	-0.5156622	99.22486644	3.61536498	-27.65095308
0.31	31	0.044	-0.994	0.162	0.572958	0.572958	-0.4010706	99.23059602	3.62109456	-27.63949392
0.32	32	0.045	-0.991	0.158	0.859437	0.572958	-0.286479	99.24205518	3.62109456	-27.63376434
0.33	33	0.042	-0.99	0.157	0.859437	0.6302538	-0.4010706	99.25351434	3.62682414	-27.62803476
0.34	34	0.041	-0.99	0.155	0.859437	0.6875496	-0.5156622	99.25924392	3.62682414	-27.62230518
0.35	35	0.039	-0.99	0.156	1.0313244	0.572958	-0.6875496	99.24778476	3.61536498	-27.61084602
0.36	36	0.039	-0.99	0.159	1.2032118	0.572958	-0.859437	99.25924392	3.62682414	-27.60511644
0.37	37	0.039	-0.99	0.157	1.3178034	0.8021412	-0.9167328	99.27643266	3.63255372	-27.59365728
0.38	38	0.039	-0.99	0.155	1.432395	0.9167328	-1.0886202	99.2936214	3.64401288	-27.58219812
0.39	39	0.039	-0.99	0.153	1.718874	0.9740286	-1.0886202	99.31081014	3.64974246	-27.57073896
0.4	40	0.038	-0.992	0.155	1.8907614	0.7448454	-0.9740286	99.31081014	3.64401288	-27.5592798
0.41	41	0.037	-0.993	0.158	1.7761698	0.572958	-0.9740286	99.32799888	3.65547204	-27.55355022
0.42	42	0.037	-0.992	0.157	1.718874	0.572958	-0.859437	99.3509172	3.66120162	-27.54782064
0.43	43	0.037	-0.994	0.156	1.7761698	0.6875496	-0.9167328	99.36810594	3.6669312	-27.53636148
0.44	44	0.038	-0.996	0.154	1.6042824	0.859437	-0.859437	99.38529468	3.67839036	-27.52490232
0.45	45	0.038	-0.995	0.157	1.5469866	0.6875496	-0.859437	99.3795651	3.6669312	-27.51917274
0.46	46	0.039	-0.996	0.158	1.4896908	0.5156622	-0.859437	99.39675384	3.67266078	-27.50771358
0.47	47	0.041	-0.998	0.158	1.3178034	0.286479	-0.8021412	99.408213	3.68411994	-27.50771358
0.48	48	0.043	-0.999	0.157	1.0886202	0	-0.7448454	99.41967216	3.68984952	-27.501984
0.49	49	0.043	-1	0.156	0.9167328	-0.1718874	-0.7448454	99.43113132	3.70130868	-27.501984
0.5	50	0.044	-1.001	0.157	0.9167328	-0.286479	-0.6875496	99.40248342	3.68984952	-27.50771358
0.51	51	0.044	-1	0.158	0.859437	-0.4583664	-0.572958	99.408213	3.6955791	-27.50771358
0.52	52	0.044	-0.999	0.161	0.8021412	-0.4010706	-0.5156622	99.41967216	3.70130868	-27.51344316
0.53	53	0.041	-0.998	0.163	0.6875496	-0.4010706	-0.4583664	99.42540174	3.70703826	-27.51917274
0.54	54	0.041	-0.998	0.163	0.6875496	-0.5156622	-0.3437748	99.43113132	3.71276784	-27.51917274
0.55	55	0.04	-0.996	0.164	0.572958	-0.5156622	-0.2291832	99.39675384	3.67839036	-27.52490232
0.56	56	0.04	-0.995	0.163	0.572958	-0.4583664	-0.1145916	99.40248342	3.68411994	-27.5306319
0.57	57	0.04	-0.995	0.163	0.5156622	-0.5156622	-0.1145916	99.408213	3.68411994	-27.5306319
0.58	58	0.041	-0.994	0.165	0.286479	-0.5156622	-0.1718874	99.41394258	3.68984952	-27.53636148
0.59	59	0.043	-0.993	0.166	0.1718874	-0.3437748	-0.286479	99.41394258	3.68984952	-27.54209106
0.6	60	0.044	-0.994	0.165	0.1145916	-0.1718874	-0.3437748	99.35664678	3.64974246	-27.54209106
0.61	61	0.043	-0.995	0.167	0.2291832	-0.1718874	-0.4583664	99.35664678	3.65547204	-27.54209106
0.62	62	0.044	-0.995	0.169	0.1145916	-0.1145916	-0.4583664	99.35664678	3.66120162	-27.54209106
0.63	63	0.043	-0.994	0.168	0	-0.4010706	-0.4583664	99.35664678	3.6669312	-27.54782064
0.64	64	0.042	-0.994	0.168	0	-0.572958	-0.286479	99.35664678	3.67266078	-27.55355022
0.65	65	0.041	-0.996	0.168	0	-0.6875496	-0.1718874	99.3222693	3.63255372	-27.55355022
0.66	66	0.041	-0.998	0.169	-0.3437748	-0.4583664	-0.1145916	99.31653972	3.6382833	-27.5592798
0.67	67	0.042	-0.998	0.17	-0.6302538	-0.1718874	-0.0572958	99.31081014	3.6382833	-27.5592798
0.68	68	0.044	-1	0.172	-0.7448454	0.0572958	-0.0572958	99.29935098	3.6382833	-27.5592798
0.69	69	0.046	-1.001	0.174	-0.9167328	0.2291832	0	99.2936214	3.6382833	-27.5592798
0.7	70	0.047	-1.001	0.175	-0.859437	0.2291832	0	99.2649735	3.61536498	-27.55355022
0.71	71	0.048	-1.002	0.175	-0.9740286	0.3437748	0.1145916	99.25351434	3.61536498	-27.55355022
0.72	72	0.05	-1.002	0.173	-1.3178034	0.7448454	0.0572958	99.24205518	3.6096354	-27.54209106
0.73	73	0.049	-1	0.171	-1.5469866	1.0313244	0	99.22486644	3.6096354	-27.53636148
0.74	74	0.048	-0.999	0.17	-1.6042824	0.859437	-0.0572958	99.2076777	3.6096354	-27.52490232
0.75	75	0.046	-0.999	0.173	-1.718874	0.6302538	-0.0572958	99.18475938	3.59244666	-27.51917274
0.76	76	0.045	-0.999	0.175	-2.005353	0.4010706	0	99.16184106	3.59244666	-27.51344316
0.77	77	0.044	-1	0.175	-2.1772404	0	0	99.13892274	3.59244666	-27.51344316
0.78	78	0.046	-1	0.173	-2.5210152	-0.1145916	0.0572958	99.11600442	3.59244666	-27.51917274
0.79	79	0.047	-0.997	0.171	-2.5210152	-0.1145916	0	99.08735652	3.59244666	-27.51917274
0.8	80	0.049	-0.998	0.171	-2.6356068	0.0572958	0	99.05297904	3.58671708	-27.51917274
0.81	81	0.048	-0.997	0.171	-2.7501984	0.1145916	0.0572958	99.02433114	3.58671708	-27.51344316
0.82	82	0.045	-0.998	0.172	-2.8074942	0.0572958	0	98.99568324	3.5809875	-27.51344316
0.83	83	0.046	-1.001	0.173	-3.2085648	0.1145916	0	98.96130576	3.5809875	-27.51344316
0.84	84	0.046	-1.001	0.173	-3.6669312	0.1145916	0	98.92692828	3.5809875	-27.51344316
0.85	85	0.045	-0.997	0.172	-3.9534102	0.1145916	0	98.88109164	3.57525792	-27.51344316
0.86	86	0.046	-0.998	0.175	-3.9534102	0.1718874	0	98.84098458	3.57525792	-27.50771358
0.87	87	0.049	-0.998	0.171	-4.4690724	0.0572958	0.0572958	98.79514794	3.56952834	-27.50771358
0.88	88	0.051	-0.999	0.17	-4.583664	0.1145916	0.1145916	98.7493113	3.56952834	-27.50771358
0.89	89	0.053	-1.001	0.172	-4.8128472	0.0572958	0.2291832	98.70347466	3.56952834	-27.50771358
0.9	90	0.055	-1.001	0.173	-5.2712136	0	0.286479	98.64617886	3.56379876	-27.51344316
0.91	91	0.057	-1.002	0.173	-5.5003968	-0.3437748	0.3437748	98.58888306	3.55806918	-27.51344316
0.92	92	0.054	-1.006	0.17	-5.5576926	-0.6302538	0.3437748	98.53158726	3.55806918	-27.52490232
0.93	93	0.049	-1.008	0.165	-5.7868758	-0.6302538	0.286479	98.47429146	3.5523396	-27.5306319
0.94	94	0.045	-1.008	0.163	-5.8441716	-0.4583664	0.0572958	98.41699566	3.5523396	-27.53636148
0.95	95	0.04	-1.007	0.162	-5.8441716	-0.4010706	0	98.35397028	3.54661002	-27.54209106
0.96	96	0.039	-1.005	0.16	-5.72958	-0.4583664	-0.1145916	98.2909449	3.5523396	-27.54782064
0.97	97	0.039	-1.003	0.161	-5.9014674	-0.5156622	-0.0572958	98.2336491	3.5523396	-27.55355022
0.98	98	0.039	-1.001	0.163	-5.9587632	-0.7448454	0	98.17062372	3.5523396	-27.5592798
0.99	99	0.04	-0.998	0.163	-6.3598338	-0.8021412	0	98.10759834	3.5523396	-27.57073896
1	100	0.04	-0.996	0.16	-6.4744254	-0.9167328	0.1145916	98.03884338	3.54661002	-27.58219812
1.01	101	0.041	-0.996	0.157	-6.4171296	-0.6875496	0.0572958	97.97008842	3.54661002	-27.5879277
1.02	102	0.042	-0.999	0.156	-6.7609044	-0.572958	0.0572958	97.90133346	3.54661002	-27.59365728
1.03	103	0.042	-1.002	0.155	-7.1046792	-0.3437748	0	97.8325785	3.54661002	-27.59938686
1.04	104	0.04	-1.005	0.153	-7.448454	-0.2291832	-0.1145916	97.75236438	3.54661002	-27.59938686
1.05	105	0.038	-1.006	0.152	-7.8495246	-0.1145916	-0.0572958	97.67215026	3.54088044	-27.60511644
1.06	106	0.038	-1.006	0.151	-8.0787078	-0.1718874	-0.0572958	97.59193614	3.54088044	-27.60511644
1.07	107	0.037	-1.007	0.153	-8.2505952	-0.1145916	-0.1145916	97.50599244	3.54661002	-27.61084602
1.08	108	0.034	-1.01	0.154	-8.59437	0	-0.0572958	97.42004874	3.54661002	-27.61084602
1.09	109	0.035	-1.009	0.153	-9.2246238	0	-0.1718874	97.32264588	3.54661002	-27.61084602
1.1	110	0.036	-1.007	0.15	-9.5683986	0.1145916	-0.1145916	97.22524302	3.54088044	-27.61084602
1.11	111	0.037	-1.008	0.146	-9.7975818	0.4010706	-0.1145916	97.12784016	3.54088044	-27.60511644
1.12	112	0.04	-1.009	0.147	-9.9121734	0.572958	0	97.02470772	3.54088044	-27.59938686
1.13	113	0.044	-1.01	0.149	-10.1413566	0.5156622	0	96.92157528	3.54088044	-27.59938686
1.14	114	0.046	-1.011	0.147	-10.599723	0.7448454	-0.0572958	96.81844284	3.53515086	-27.59365728
1.15	115	0.046	-1.011	0.143	-11.1153852	0.9167328	-0.0572958	96.70385124	3.53515086	-27.58219812
1.16	116	0.047	-1.012	0.143	-11.5164558	0.8021412	-0.0572958	96.58925964	3.53515086	-27.57646854
1.17	117	0.048	-1.011	0.139	-11.8602306	0.7448454	-0.0572958	96.46320888	3.52942128	-27.57073896
1.18	118	0.047	-1.011	0.134	-12.1467096	0.6302538	-0.1718874	96.3428877	3.52942128	-27.56500938
1.19	119	0.047	-1.011	0.134	-12.318597	0.4010706	-0.3437748	96.21683694	3.53515086	-27.5592798
1.2	120	0.047	-1.01	0.135	-12.6623718	-0.1145916	-0.6302538	96.09078618	3.54088044	-27.56500938
1.21	121	0.046	-1.011	0.131	-12.891555	-0.572958	-0.8021412	95.95900584	3.54661002	-27.57073896
1.22	122	0.044	-1.009	0.128	-13.2926256	-0.6302538	-0.859437	95.82149592	3.55806918	-27.57646854
1.23	123	0.045	-1.007	0.125	-13.6364004	-0.4583664	-0.859437	95.683986	3.56379876	-27.58219812
1.24	124	0.047	-1.006	0.124	-13.6364004	-0.4583664	-0.9167328	95.54647608	3.57525792	-27.5879277
1.25	125	0.047	-1.007	0.127	-13.6364004	-0.4010706	-0.859437	95.40896616	3.5809875	-27.59365728
1.26	126	0.048	-1.006	0.124	-13.8655836	-0.286479	-0.859437	95.26572666	3.58671708	-27.59938686
1.27	127	0.049	-1.003	0.119	-13.8655836	-0.5156622	-0.7448454	95.12821674	3.59244666	-27.60511644
1.28	128	0.049	-1.002	0.116	-14.2093584	-0.572958	-0.859437	94.97924766	3.60390582	-27.61084602
1.29	129	0.047	-1.002	0.111	-14.4958374	-0.572958	-0.859437	94.83027858	3.6096354	-27.6165756
1.3	130	0.048	-1.004	0.108	-14.7250206	-0.286479	-1.0313244	94.6813095	3.62109456	-27.62230518
1.31	131	0.05	-1.004	0.108	-14.9542038	0	-1.0886202	94.53234042	3.63255372	-27.62230518
1.32	132	0.05	-1.008	0.104	-15.0114996	0	-1.2032118	94.37764176	3.6382833	-27.62230518
1.33	133	0.049	-1.01	0.104	-15.183387	-0.3437748	-1.145916	94.2229431	3.64974246	-27.62803476
1.34	134	0.048	-1.013	0.102	-15.5271618	-0.7448454	-1.2032118	94.06824444	3.66120162	-27.63949392
1.35	135	0.047	-1.013	0.102	-15.8709366	-1.0886202	-1.2605076	93.9078162	3.67266078	-27.65095308
1.36	136	0.045	-1.012	0.098	-16.3865988	-1.2032118	-1.3178034	93.74165838	3.68984952	-27.66241224
1.37	137	0.044	-1.009	0.092	-16.5584862	-1.0886202	-1.3750992	93.56977098	3.70130868	-27.6738714
1.38	138	0.042	-1.009	0.091	-16.615782	-0.859437	-1.4896908	93.39788358	3.71849742	-27.68533056
1.39	139	0.042	-1.011	0.091	-17.0168526	-0.5156622	-1.4896908	93.22599618	3.72995658	-27.69106014
1.4	140	0.045	-1.014	0.09	-17.9335854	-0.0572958	-1.6042824	93.0483792	3.74141574	-27.69106014
1.41	141	0.049	-1.014	0.084	-18.5638392	-0.0572958	-1.6042824	92.85930306	3.75860448	-27.69678972
1.42	142	0.049	-1.015	0.083	-18.7930224	-0.4010706	-1.4896908	92.66449734	3.77006364	-27.7025193
1.43	143	0.05	-1.022	0.082	-19.194093	-0.4583664	-1.432395	92.46969162	3.78725238	-27.70824888
1.44	144	0.051	-1.02	0.075	-20.1681216	-0.8021412	-1.5469866	92.26342674	3.79871154	-27.71397846
1.45	145	0.049	-1.009	0.08	-18.621135	-0.6875496	-1.432395	92.08008018	3.8101707	-27.72543762
1.46	146	0.049	-1.015	0.085	-19.767051	-0.9167328	-1.3750992	91.87954488	3.82735944	-27.73689678
1.47	147	0.051	-1.017	0.079	-18.907614	-0.1718874	-1.432395	91.69046874	3.8388186	-27.74262636
1.48	148	0.054	-1.025	0.085	-19.767051	0.286479	-1.3750992	91.48993344	3.85027776	-27.73689678
1.49	149	0.057	-1.026	0.085	-21.8296998	0.3437748	-1.432395	91.26647982	3.86173692	-27.73689678
1.5	150	0.058	-1.023	0.074	-22.8610242	0.0572958	-1.7761698	91.03729662	3.87892566	-27.73689678
1.51	151	0.053	-1.023	0.062	-23.2620948	-0.0572958	-1.9480572	90.80238384	3.8961144	-27.74262636
1.52	152	0.048	-1.021	0.064	-23.777757	-0.572958	-2.2345362	90.5560119	3.91903272	-27.74835594
1.53	153	0.05	-1.023	0.071	-22.91832	-1.3750992	-2.4064236	90.3268287	3.94195104	-27.76554468
1.54	154	0.051	-1.031	0.067	-22.1161788	-1.8334656	-2.7501984	90.0976455	3.96486936	-27.788463
1.55	155	0.051	-1.034	0.057	-23.0329116	-1.718874	-3.0939732	89.8684623	3.99351726	-27.80565174
1.56	156	0.053	-1.03	0.058	-23.8350528	-1.5469866	-2.9793816	89.62209036	4.02216516	-27.82284048
1.57	157	0.052	-1.027	0.057	-24.8090814	-1.4896908	-2.7501984	89.36998884	4.05081306	-27.84002922
1.58	158	0.052	-1.021	0.052	-25.6685184	-1.0886202	-2.6356068	89.10642816	4.07373138	-27.85721796
1.59	159	0.054	-1.02	0.059	-24.923673	-0.4010706	-2.6356068	88.85432664	4.0966497	-27.86294754
1.6	160	0.062	-1.022	0.054	-24.1788276	0.859437	-2.6929026	88.61368428	4.11956802	-27.85721796
1.61	161	0.065	-1.021	0.045	-25.1528562	0.9167328	-2.6929026	88.36158276	4.14821592	-27.85148838
1.62	162	0.058	-1.018	0.042	-26.4133638	0.8021412	-2.5210152	88.0922925	4.17113424	-27.8457588
1.63	163	0.056	-1.02	0.04	-27.8457588	0.286479	-2.2345362	87.81154308	4.18832298	-27.8457588
1.64	164	0.055	-1.022	0.042	-28.8770832	0.0572958	-1.9480572	87.51360492	4.20551172	-27.85148838
1.65	165	0.055	-1.023	0.038	-29.8511118	-0.2291832	-1.8334656	87.22139634	4.22270046	-27.85721796
1.66	166	0.056	-1.023	0.047	-31.4553942	-0.859437	-1.6042824	86.90053986	4.23415962	-27.86867712
1.67	167	0.058	-1.016	0.049	-32.2575354	-1.8907614	-1.432395	86.56822422	4.24561878	-27.89159544
1.68	168	0.063	-1.01	0.026	-33.0023808	-2.2345362	-1.8334656	86.230179	4.26280752	-27.92024334
1.69	169	0.065	-1.016	0.015	-33.8618178	-1.718874	-2.1772404	85.8864042	4.27999626	-27.94316166
1.7	170	0.066	-1.014	0.023	-34.8358464	-1.6615782	-2.291832	85.5426294	4.297185	-27.96607998
1.71	171	0.071	-1.011	0.006	-35.9244666	-1.3178034	-2.4637194	85.17593628	4.32010332	-27.98326872
1.72	172	0.075	-1.016	-0.012	-37.815228	-0.9167328	-2.7501984	84.78632484	4.34302164	-28.00045746
1.73	173	0.075	-1.029	0.003	-39.5913978	-1.6615782	-2.9793816	84.38525424	4.36593996	-28.02337578
1.74	174	0.072	-1.029	-0.016	-42.5707794	-2.3491278	-2.9793816	83.94980616	4.38885828	-28.05202368
1.75	175	0.066	-1.03	-0.023	-45.263682	-2.1772404	-3.0939732	83.49143976	4.41750618	-28.08067158
1.76	176	0.071	-1.042	-0.024	-49.0452048	-2.1199446	-2.9793816	82.9929663	4.4404245	-28.11504906
1.77	177	0.074	-1.043	-0.03	-52.139178	-2.9793816	-2.6929026	82.46011536	4.45761324	-28.14942654
1.78	178	0.074	-1.039	-0.041	-54.5456016	-3.7815228	-2.005353	81.9043461	4.4690724	-28.19526318
1.79	179	0.07	-1.032	-0.042	-56.6655462	-4.4117766	-1.2605076	81.32565852	4.4690724	-28.2468294
1.8	180	0.066	-1.014	-0.022	-55.9207008	-4.2398892	-0.9740286	80.76415968	4.4690724	-28.29839562
1.81	181	0.072	-1.008	-0.027	-53.858052	-3.0939732	-1.0313244	80.21412	4.4690724	-28.3327731
1.82	182	0.078	-1.014	-0.048	-55.003968	-1.9480572	-1.2605076	79.65262116	4.47480198	-28.361421
1.83	183	0.079	-1.017	-0.055	-57.009321	-2.1199446	-1.718874	79.07393358	4.48053156	-28.3900689
1.84	184	0.076	-1.016	-0.087	-61.1346186	-3.5523396	-2.3491278	78.44940936	4.49199072	-28.43590554
1.85	185	0.074	-1.018	-0.096	-63.7129296	-3.8388186	-2.9793816	77.80196682	4.50917946	-28.48747176
1.86	186	0.077	-1.027	-0.081	-66.6923112	-4.8128472	-3.437748	77.1201468	4.5263682	-28.54476756
1.87	187	0.082	-1.024	-0.095	-70.3019466	-6.1879464	-3.3231564	76.4039493	4.53782736	-28.6192521
1.88	188	0.087	-1.017	-0.101	-73.1094408	-7.161975	-3.151269	75.6591039	4.54928652	-28.7051958
1.89	189	0.094	-1.016	-0.097	-76.2607098	-7.8495246	-2.4637194	74.87415144	4.54355694	-28.79686908
1.9	190	0.101	-1.007	-0.086	-79.9849368	-9.2246238	-1.718874	74.06628066	4.53209778	-28.89427194
1.91	191	0.105	-0.98	-0.077	-82.2767688	-11.0007936	-0.859437	73.2240324	4.50344988	-29.00886354
1.92	192	0.091	-0.941	-0.052	-83.5945722	-12.7196676	-0.2291832	72.3645954	4.46334282	-29.14064388
1.93	193	0.089	-0.911	-0.076	-88.9803774	-14.3812458	0.1145916	71.45359218	4.4117766	-29.28388338
1.94	194	0.089	-0.91	-0.096	-86.7458412	-13.6936962	-0.4583664	70.56550728	4.36593996	-29.4213933
1.95	195	0.079	-0.903	-0.071	-90.2981808	-12.605076	-0.6875496	69.64877448	4.3258329	-29.54744406
1.96	196	0.073	-0.874	-0.083	-92.1316464	-12.3758928	-0.3437748	68.70339378	4.27426668	-29.67349482
1.97	197	0.074	-0.858	-0.108	-92.0170548	-11.8602306	0	67.76374266	4.22270046	-29.793816
1.98	198	0.074	-0.844	-0.128	-93.1629708	-12.605076	1.145916	66.81263238	4.15967508	-29.91413718
1.99	199	0.087	-0.839	-0.128	-92.819196	-14.0947668	2.291832	65.8615221	4.07373138	-30.04018794
2	200	0.081	-0.813	-0.116	-94.8818448	-16.3865988	3.8961144	64.89895266	3.96486936	-30.17769786
2.01	201	0.079	-0.79	-0.106	-94.1369994	-17.3033316	5.443101	63.93638322	3.83308902	-30.32093736
2.02	202	0.073	-0.768	-0.084	-90.813843	-17.3033316	6.5317212	63.00819126	3.68984952	-30.4527177
2.03	203	0.065	-0.741	-0.089	-88.235532	-16.1001198	7.448454	62.1086472	3.54661002	-30.5673093
2.04	204	0.075	-0.729	-0.144	-86.3447706	-13.3499214	7.8495246	61.22629188	3.40337052	-30.653253
2.05	205	0.08	-0.73	-0.177	-85.1988546	-9.2819196	7.9068204	60.36685488	3.28304934	-30.70481922
2.06	206	0.076	-0.735	-0.235	-85.2561504	-5.9014674	8.0787078	59.5016883	3.17418732	-30.71627838
2.07	207	0.043	-0.746	-0.269	-83.651868	-3.4950438	7.6203414	58.65371046	3.08251404	-30.71627838
2.08	208	0.007	-0.785	-0.253	-84.9123756	2.8074942	5.9014674	57.79427346	3.0366774	-30.66471216
2.09	209	-0.02	-0.812	-0.285	-90.240885	6.5317212	3.4950438	56.88327024	3.03094782	-30.5959572
2.1	210	-0.021	-0.808	-0.359	-88.7511942	9.5111028	1.145916	55.98945576	3.05386614	-30.5100135
2.11	211	-0.03	-0.821	-0.349	-86.230179	8.5370742	-0.286479	55.1185596	3.08824362	-30.44698812
2.12	212	-0.016	-0.802	-0.389	-84.797784	7.3911582	-1.145916	54.2591226	3.12835068	-30.3954219
2.13	213	-0.001	-0.783	-0.371	-76.489893	5.5003968	-0.286479	53.4856293	3.151269	-30.35531484
2.14	214	0.026	-0.784	-0.371	-73.3959198	4.870143	2.1772404	52.7407839	3.151269	-30.3094782
2.15	215	0.046	-0.768	-0.437	-72.0208206	5.72958	5.7868758	52.01885682	3.13408026	-30.22926408
2.16	216	0.058	-0.789	-0.455	-69.7289886	5.3858052	9.2246238	51.31411848	3.08251404	-30.13186122
2.17	217	0.083	-0.802	-0.509	-69.2706222	6.1306506	12.3758928	50.6208393	3.01375908	-30.00581046
2.18	218	0.095	-0.809	-0.505	-65.9474658	6.5317212	14.5531332	49.95620802	2.93354496	-29.86830054
2.19	219	0.103	-0.827	-0.474	-61.5356892	8.307891	15.9282324	49.33741338	2.85333084	-29.70214272
2.2	220	0.098	-0.834	-0.499	-61.592985	9.5111028	17.3033316	48.7300779	2.7788463	-29.51879616
2.21	221	0.086	-0.818	-0.549	-61.9940556	10.7716104	18.7930224	48.10555368	2.69863218	-29.31826086
2.22	222	0.067	-0.8	-0.566	-59.874111	11.45916	20.1108258	47.50967736	2.61841806	-29.09480724
2.23	223	0.041	-0.798	-0.571	-57.9260538	11.9748222	19.480572	46.9252602	2.54393352	-28.8770832
2.24	224	0.016	-0.784	-0.6	-56.6655462	13.2926256	18.4492476	46.36376136	2.4923673	-28.65362958
2.25	225	0.007	-0.798	-0.633	-53.858052	14.8396122	16.9595568	45.82518084	2.45798982	-28.43017596
2.26	226	-0.002	-0.842	-0.663	-51.279741	15.5271618	14.7823164	45.31524822	2.45226024	-28.2181815
2.27	227	-0.009	-0.919	-0.669	-48.0711762	14.8396122	11.172681	44.82823392	2.4637194	-28.03483494
2.28	228	0.003	-0.99	-0.646	-46.4668938	13.6364004	7.7922288	44.36413794	2.49809688	-27.88013628
2.29	229	0.02	-1.036	-0.643	-46.2950064	14.32395	5.9014674	43.90004196	2.5496631	-27.73689678
2.3	230	0.024	-1.063	-0.639	-48.7587258	16.042824	5.3285094	43.41875724	2.61841806	-27.5879277
2.31	231	0.037	-1.067	-0.634	-50.9359662	17.475219	5.9587632	42.90882462	2.6929026	-27.42176988
2.32	232	0.039	-1.077	-0.635	-51.3943326	18.5638392	6.3598338	42.38743284	2.77311672	-27.24988248
2.33	233	0.039	-1.069	-0.64	-50.706783	18.3919518	7.161975	41.8832298	2.85333084	-27.0722655
2.34	234	0.043	-1.054	-0.622	-48.7587258	18.621135	8.0787078	41.3962155	2.9220858	-26.88318936
2.35	235	0.037	-1.018	-0.593	-49.4462754	19.1367972	9.1100322	40.91493078	2.99657034	-26.68838364
2.36	236	0.035	-0.983	-0.556	-50.3630082	20.7983754	9.453807	40.41072774	3.08251404	-26.47638918
2.37	237	0.029	-0.947	-0.523	-51.7381074	23.3766864	8.7089616	39.89506554	3.19137606	-26.25866514
2.38	238	0.026	-0.914	-0.503	-52.5402486	25.8977016	6.016059	39.36794418	3.33461556	-26.04667068
2.39	239	0.025	-0.9	-0.489	-52.998615	28.2468294	1.7761698	38.84082282	3.52942128	-25.84613538
2.4	240	0.024	-0.901	-0.472	-53.6861646	30.4813656	-2.4637194	38.32516062	3.76433406	-25.67424798
2.41	241	0.016	-0.916	-0.478	-55.6915176	32.8304934	-4.5263682	37.76366178	4.03362432	-25.50236058
2.42	242	0.02	-0.936	-0.484	-57.1812084	34.37748	-5.5003968	37.19070378	4.3258329	-25.33047318
2.43	243	0.046	-0.939	-0.489	-57.8114622	35.0077338	-5.72958	36.6120162	4.62377106	-25.15858578
2.44	244	0.097	-0.937	-0.515	-57.2385042	34.950438	-5.8441716	36.0390582	4.92170922	-24.99242796
2.45	245	0.172	-0.923	-0.535	-56.9520252	32.945085	-6.875496	35.48901852	5.21964738	-24.84918846
2.46	246	0.256	-0.913	-0.55	-56.3790672	29.3354496	-8.3651868	34.9217901	5.48893764	-24.74032644
2.47	247	0.359	-0.905	-0.582	-58.6136034	22.9756158	-9.6829902	34.33164336	5.72385042	-24.68876022
2.48	248	0.424	-0.918	-0.65	-65.1453246	10.4851314	-10.5424272	33.6612825	5.85563076	-24.71167854
2.49	249	0.468	-0.939	-0.729	-77.1201468	-2.9220858	-10.0840608	32.87060046	5.87854908	-24.81481098
2.5	250	0.476	-0.938	-0.816	-89.3241522	-14.896908	-10.1986524	31.95386766	5.80406454	-24.9809688
2.51	251	0.469	-0.908	-0.896	-101.0697912	-23.0329116	-12.3758928	30.9110841	5.66082504	-25.210152
2.52	252	0.446	-0.885	-0.946	-112.872726	-30.2521824	-15.4125702	29.7365202	5.4717489	-25.50236058
2.53	253	0.403	-0.855	-0.962	-130.9781988	-36.8984952	-18.1054728	28.38433932	5.22537696	-25.84613538
2.54	254	0.354	-0.818	-0.987	-145.7032194	-41.8832298	-20.7410796	26.8717302	4.93889796	-26.23001724
2.55	255	0.284	-0.854	-1.013	-157.3342668	-46.0658232	-24.064236	25.25025906	4.62377106	-26.65400616
2.56	256	0.199	-0.855	-0.988	-170.2258218	-52.5975444	-29.7365202	23.491278	4.25134836	-27.14675004
2.57	257	0.122	-0.87	-0.961	-180.0806994	-55.9207008	-36.0390582	21.63489408	3.86173692	-27.69678972
2.58	258	0.041	-0.851	-0.902	-190.1074644	-57.6968706	-40.2789474	19.67537772	3.44920716	-28.28120688
2.59	259	-0.046	-0.801	-0.814	-197.4986226	-56.9520252	-38.101707	17.6471064	3.01948866	-28.83124656
2.6	260	-0.112	-0.727	-0.734	-201.108258	-53.285094	-31.51269	15.59591676	2.578311	-29.28388338
2.61	261	-0.216	-0.691	-0.688	-201.4520328	-53.858052	-20.2827132	13.54472712	2.0912967	-29.61619902
2.62	262	-0.316	-0.614	-0.523	-196.238115	-58.728195	-5.2139178	11.55656286	1.51260912	-29.79954558
2.63	263	-0.35	-0.506	-0.393	-191.2533804	-52.3683612	11.2872726	9.61996482	0.96256944	-29.78808642
2.64	264	-0.331	-0.354	-0.331	-186.6697164	-47.0971476	29.0489706	7.734933	0.43544808	-29.57609196
2.65	265	-0.313	-0.186	-0.254	-181.5130944	-45.550161	42.3415962	5.9014674	-0.0859437	-29.20939884
2.66	266	-0.311	-0.038	-0.193	-176.8721346	-43.9458786	51.1651494	4.11383844	-0.58441716	-28.73957328
2.67	267	-0.276	0.086	-0.164	-172.5749496	-37.8725238	55.5196302	2.36058696	-1.00840608	-28.21245192
2.68	268	-0.257	0.215	-0.165	-167.590215	-30.4240698	56.3217714	0.65317212	-1.3464513	-27.65668266
2.69	269	-0.276	0.346	-0.159	-159.9698736	-22.058883	54.43101	-0.9740286	-1.58136408	-27.10664298
2.7	270	-0.261	0.46	-0.155	-150.7452498	-11.172681	50.133825	-2.53247436	-1.70168526	-26.59671036
2.71	271	-0.223	0.602	-0.28	-138.4839486	-0.4583664	42.0551172	-3.94768062	-1.70168526	-26.16699186
2.72	272	-0.22	0.724	-0.43	-121.6962792	8.307891	32.4867186	-5.19099948	-1.6042824	-25.83467622
2.73	273	-0.246	0.914	-0.341	-103.991877	21.1421502	24.9809688	-6.25670136	-1.38082878	-25.59403386
2.74	274	-0.304	1.267	-0.496	-69.041439	34.4347758	12.4331886	-6.96716928	-1.03705398	-25.496631
2.75	275	-0.279	1.729	-0.862	-26.8717302	28.9916748	-2.7501984	-7.2479187	-0.75630456	-25.54819722
2.76	276	-0.095	2.371	-1.023	3.9534102	19.0795014	-16.1001198	-7.20781164	-0.59014674	-25.7258142
2.77	277	0.2	2.938	-1.303	55.9779966	14.2093584	-22.0015872	-6.64058322	-0.46982556	-25.96072698
2.78	278	0.291	3.011	-1.443	117.8574606	11.4018642	-15.0114996	-5.443101	-0.36096354	-26.13261438
2.79	279	0.217	2.167	-1.45	164.2097628	26.8144344	-2.6356068	-3.7815228	-0.08021412	-26.1841806
2.8	280	0.142	1.198	-1.57	164.8973124	41.3675676	21.0275586	-2.11421502	0.34950438	-26.00083404
2.81	281	-0.022	0.422	-1.571	144.385416	28.0176462	37.1276784	-0.64744254	0.65317212	-25.64560008
2.82	282	-0.086	-0.277	-1.522	144.7291908	14.1520626	41.5967508	0.81932994	0.80787078	-25.2387999
2.83	283	-0.081	-0.632	-1.38	191.081493	11.2299768	35.3515086	2.76165756	0.92819196	-24.8950251
2.84	284	-0.119	-0.596	-1.085	242.1893466	12.4331886	33.1742682	5.22537696	1.0599723	-24.57416862
2.85	285	-0.245	-0.615	-0.811	236.2305834	9.3392154	32.372127	7.63753014	1.13445684	-24.25331214
2.86	286	-0.236	-0.622	-0.655	175.4970354	12.1467096	24.9809688	9.41942952	1.23758928	-24.00121062
2.87	287	-0.152	-0.504	-0.533	100.26765	18.1627686	9.7975818	10.43929476	1.40947668	-23.87515986
2.88	288	-0.053	-0.282	-0.45	32.2575354	22.631841	-4.6409598	10.76588082	1.64438946	-23.87515986
2.89	289	0.048	-0.011	-0.425	7.8495246	18.6784308	-13.8082878	10.84036536	1.85065434	-23.96683314
2.9	290	0.16	0.27	-0.468	9.8548776	14.037471	-16.7303736	10.89766116	2.0340009	-24.10434306
2.91	291	0.257	0.552	-0.509	35.4661002	12.891555	-13.0634424	11.25289512	2.18869956	-24.2074755
2.92	292	0.282	0.721	-0.563	73.2240324	11.1153852	-5.5003968	11.99201094	2.31475032	-24.2361234
2.93	293	0.257	0.724	-0.634	96.7726062	7.5630456	2.4064236	12.9774987	2.39496444	-24.20174592
2.94	294	0.217	0.63	-0.726	92.4181254	5.156622	5.0420304	13.91714982	2.44653066	-24.14445012
2.95	295	0.114	0.473	-0.873	81.4746276	3.9534102	1.2605076	14.70210228	2.4923673	-24.12726138
2.96	296	0.04	0.332	-0.962	82.792431	-0.5156622	-6.5317212	15.53862096	2.51528562	-24.19601634
2.97	297	0.045	0.174	-1.028	83.7091638	-5.8441716	-14.32395	16.3865988	2.50955604	-24.35644458
2.98	298	0.053	0.017	-1.091	78.2660628	-11.45916	-20.8556712	17.17155126	2.47517856	-24.59135736
2.99	299	0.048	-0.095	-1.115	74.3126526	-14.610429	-25.5539268	17.91066708	2.42361234	-24.88356594
3	300	0.072	-0.216	-1.041	70.9894962	-12.605076	-28.4187168	18.61540542	2.4064236	-25.19869284
3.01	301	0.095	-0.313	-1.035	67.322565	-5.8441716	-30.1948866	19.28576628	2.45798982	-25.50236058
3.02	302	0.082	-0.33	-1.104	70.0727634	2.291832	-32.4294228	19.98477504	2.59549974	-25.80029874
3.03	303	0.138	-0.245	-1.173	81.9902898	8.6516658	-35.5806918	20.80410498	2.81322378	-26.10396648
3.04	304	0.128	-0.112	-1.225	100.6114248	2.1772404	-35.0650296	21.80678148	2.97365202	-26.42482296
3.05	305	0.123	0.029	-1.283	106.1118216	-12.8342592	-27.3873924	22.85529462	2.9793816	-26.73422028
3.06	306	0.186	0.148	-1.425	102.2157072	-21.1421502	-15.9855282	23.88088944	2.86479	-26.96913306
3.07	307	0.249	0.154	-1.602	88.80849	-19.1367972	-6.5317212	24.7804335	2.73300966	-27.11237256
3.08	308	0.258	-0.02	-1.793	68.8695516	-11.5737516	1.3750992	25.47944226	2.6356068	-27.15247962
3.09	309	0.214	-0.352	-2.002	42.2843004	-5.443101	6.6463128	25.90916076	2.56685184	-27.11810214
3.1	310	0.239	-0.671	-2.16	15.2406828	-5.6149884	7.734933	26.069589	2.48090814	-27.07799508
3.11	311	0.348	-0.881	-2.288	-5.156622	-13.9801752	4.2398892	26.01802278	2.34339822	-27.1009134
3.12	312	0.31	-0.875	-2.342	-32.8877892	-30.8251404	4.9274388	25.67997756	2.04546006	-27.19831626
3.13	313	0.138	-0.751	-2.064	-74.0834694	-43.544808	4.297185	24.92940258	1.6329303	-27.35301492
3.14	314	-0.015	-0.496	-1.632	-115.0499664	-43.7166954	3.724227	23.76629784	1.20894138	-27.50771358
3.15	315	-0.122	-0.334	-1.332	-127.196676	-39.5913978	2.9220858	22.47141276	0.82505952	-27.63949392
3.16	316	-0.152	-0.261	-1.073	-109.3203864	-34.8931422	0.8021412	21.36560382	0.4870143	-27.76554468
3.17	317	-0.113	-0.24	-0.885	-79.9849368	-30.3094782	-0.5156622	20.55773304	0.2005353	-27.88013628
3.18	318	-0.066	-0.224	-0.812	-56.2071798	-28.8770832	-1.718874	19.99050462	-0.0572958	-28.00618704
3.19	319	-0.025	-0.183	-0.836	-40.5654264	-31.4553942	-3.3231564	19.58370444	-0.3437748	-28.14369696
3.2	320	-0.029	-0.153	-0.815	-23.5485738	-36.8411994	-3.3231564	19.3373325	-0.67609044	-28.30985478
3.21	321	-0.058	-0.163	-0.751	-10.886202	-35.9244666	-1.718874	19.23420006	-1.0026765	-28.4473647
3.22	322	-0.078	-0.183	-0.694	-4.9847346	-34.1482968	0.0572958	19.18836342	-1.32353298	-28.56768588
3.23	323	-0.066	-0.175	-0.67	-3.437748	-33.1742682	0.1145916	19.1654451	-1.62720072	-28.68227748
3.24	324	-0.063	-0.155	-0.669	-2.5210152	-32.085648	-1.6042824	19.14252678	-1.9194093	-28.81405782
3.25	325	-0.075	-0.141	-0.679	-1.6615782	-29.507337	-4.583664	19.12533804	-2.18296998	-28.95729732
3.26	326	-0.092	-0.122	-0.686	-0.7448454	-24.7517856	-7.3338624	19.12533804	-2.38923486	-29.11199598
3.27	327	-0.099	-0.11	-0.7	-0.1718874	-19.3659804	-8.2505952	19.1367972	-2.54393352	-29.26096506
3.28	328	-0.089	-0.118	-0.711	-1.0313244	-15.4125702	-6.9327918	19.13106762	-2.6642547	-29.37555666
3.29	329	-0.066	-0.148	-0.73	-2.1772404	-15.2979786	-4.6409598	19.11387888	-2.79030546	-29.47295952
3.3	330	-0.059	-0.211	-0.769	-3.2085648	-15.8136408	-2.7501984	19.0795014	-2.93354496	-29.55890322
3.31	331	-0.055	-0.293	-0.828	-4.9847346	-15.3552744	-1.6042824	19.03366476	-3.07105488	-29.62765818
3.32	332	-0.039	-0.379	-0.906	-5.443101	-14.0947668	-0.9740286	18.98209854	-3.19710564	-29.68495398
3.33	333	-0.022	-0.476	-0.992	-4.2398892	-13.5218088	-0.6302538	18.94772106	-3.3231564	-29.7365202
3.34	334	-0.01	-0.588	-1.068	-4.297185	-14.5531332	0	18.907614	-3.45493674	-29.78808642
3.35	335	-0.008	-0.684	-1.129	-6.589017	-15.3552744	0.572958	18.85604778	-3.59817624	-29.83392306
3.36	336	-0.022	-0.724	-1.154	-7.9068204	-16.5584862	0.4010706	18.78156324	-3.7528749	-29.88548928
3.37	337	-0.059	-0.719	-1.18	-8.2505952	-17.8762896	-0.7448454	18.7070787	-3.91903272	-29.95424424
3.38	338	-0.111	-0.669	-1.2	-8.7662574	-18.8503182	-2.578311	18.62686458	-4.08519054	-30.04591752
3.39	339	-0.155	-0.603	-1.195	-9.0527364	-19.6524594	-3.7815228	18.54092088	-4.25707794	-30.14904996
3.4	340	-0.179	-0.531	-1.168	-8.9381448	-20.2827132	-4.5263682	18.46643634	-4.4404245	-30.25791198
3.41	341	-0.182	-0.467	-1.127	-8.2505952	-20.2827132	-4.4117766	18.39768138	-4.6123119	-30.37250358
3.42	342	-0.182	-0.41	-1.071	-8.7089616	-19.6524594	-4.1252976	18.31746726	-4.7841993	-30.47563602
3.43	343	-0.175	-0.357	-1.017	-9.1100322	-19.4232762	-3.8961144	18.23725314	-4.9560867	-30.57876846
3.44	344	-0.173	-0.312	-0.969	-7.5630456	-20.9702628	-3.6669312	18.17422776	-5.13943326	-30.6819009
3.45	345	-0.164	-0.272	-0.908	-5.3858052	-22.2307704	-3.0939732	18.11693196	-5.3571573	-30.78503334
3.46	346	-0.147	-0.241	-0.854	-3.2085648	-20.4546006	-2.3491278	18.09974322	-5.54050386	-30.87670662
3.47	347	-0.137	-0.212	-0.823	-3.3231564	-21.5432208	-0.7448454	18.07109532	-5.73530958	-30.95692074
3.48	348	-0.132	-0.192	-0.771	0.4010706	-16.4438946	-0.1718874	18.08828406	-5.89000824	-31.01421654
3.49	349	-0.145	-0.199	-0.799	0.859437	-20.7983754	1.6042824	18.1054728	-6.09054354	-31.06578276
3.5	350	-0.187	-0.197	-0.755	1.8907614	-23.6058696	3.151269	18.12266154	-6.33691548	-31.11734898
3.51	351	-0.211	-0.203	-0.718	4.8128472	-17.18874	3.151269	18.17995734	-6.50880288	-31.1402673
3.52	352	-0.208	-0.227	-0.756	7.8495246	-5.9587632	1.2605076	18.26017146	-6.56609868	-31.15172646
3.53	353	-0.206	-0.242	-0.793	7.9641162	-1.2605076	-1.0313244	18.34038558	-6.57182826	-31.16318562
3.54	354	-0.2	-0.249	-0.824	10.1986524	2.3491278	-3.437748	18.4492476	-6.53745078	-31.19183352
3.55	355	-0.201	-0.26	-0.853	13.464513	5.443101	-5.3285094	18.58102794	-6.49161414	-31.22048142
3.56	356	-0.207	-0.277	-0.877	15.5271618	9.453807	-6.9900876	18.74145618	-6.37702254	-31.2548589
3.57	357	-0.205	-0.295	-0.925	17.2460358	12.6623718	-8.1360036	18.91334358	-6.23378304	-31.28923638
3.58	358	-0.182	-0.321	-0.973	19.2513888	15.2979786	-8.6516658	19.11387888	-6.06189564	-31.31788428
3.59	359	-0.15	-0.345	-1.008	19.7097552	16.4438946	-7.8495246	19.31441418	-5.87854908	-31.33507302
3.6	360	-0.12	-0.365	-1.029	18.8503182	16.3865988	-5.0993262	19.49776074	-5.70666168	-31.32361386
3.61	361	-0.104	-0.376	-1.044	16.8449652	16.902261	-2.4064236	19.66391856	-5.54050386	-31.28923638
3.62	362	-0.098	-0.389	-1.046	13.8082878	17.18874	-0.0572958	19.7956989	-5.38007562	-31.226211
3.63	363	-0.094	-0.396	-1.034	10.3705398	17.0168526	1.4896908	19.89310176	-5.23110654	-31.15172646
3.64	364	-0.091	-0.398	-1.012	7.2192708	16.2720072	2.3491278	19.95612714	-5.08786704	-31.07151234
3.65	365	-0.094	-0.391	-0.974	3.8388186	14.7250206	2.4064236	19.99050462	-4.96181628	-30.99129822
3.66	366	-0.097	-0.377	-0.936	1.0886202	12.8342592	2.291832	19.9962342	-4.85295426	-30.92254326
3.67	367	-0.097	-0.361	-0.909	-0.859437	11.3445684	2.3491278	19.97904546	-4.7555514	-30.85951788
3.68	368	-0.094	-0.348	-0.889	-2.578311	9.8548776	2.6356068	19.94466798	-4.67533728	-30.80222208
3.69	369	-0.084	-0.341	-0.885	-2.9793816	9.2819196	2.6929026	19.9102905	-4.59512316	-30.7391967
3.7	370	-0.078	-0.34	-0.877	-3.2085648	8.880849	2.5210152	19.87018344	-4.5263682	-30.6819009
3.71	371	-0.071	-0.345	-0.867	-4.1825934	9.3965112	2.1199446	19.8243468	-4.44615408	-30.63033468
3.72	372	-0.068	-0.349	-0.859	-6.0733548	9.2819196	1.8334656	19.75559184	-4.37166954	-30.57876846
3.73	373	-0.063	-0.343	-0.854	-6.8182002	10.3705398	1.432395	19.6811073	-4.27999626	-30.52720224
3.74	374	-0.063	-0.345	-0.87	-7.448454	7.734933	1.9480572	19.60089318	-4.21697088	-30.4813656
3.75	375	-0.069	-0.336	-0.884	-7.2765666	5.443101	3.0366774	19.52067906	-4.17686382	-30.42979938
3.76	376	-0.073	-0.339	-0.895	-4.870143	5.7868758	4.1825934	19.46911284	-4.14248634	-30.37250358
3.77	377	-0.067	-0.349	-0.923	-3.8961144	6.3598338	4.6409598	19.4232762	-4.0966497	-30.30374862
3.78	378	-0.059	-0.36	-0.96	-3.151269	5.5003968	4.583664	19.38316914	-4.06227222	-30.24072324
3.79	379	-0.053	-0.369	-0.995	-1.432395	4.4117766	3.8961144	19.3659804	-4.03362432	-30.18915702
3.8	380	-0.055	-0.375	-1.019	1.2605076	4.1825934	2.9220858	19.37170998	-3.99924684	-30.14332038
3.81	381	-0.067	-0.375	-1.021	4.4690724	5.6149884	1.7761698	19.41181704	-3.9534102	-30.1089429
3.82	382	-0.08	-0.37	-1.002	7.8495246	8.2505952	0.1145916	19.49203116	-3.87892566	-30.080295
3.83	383	-0.087	-0.357	-0.988	10.599723	10.313244	-2.0626488	19.5951636	-3.77006364	-30.06310626
3.84	384	-0.091	-0.342	-0.978	12.6623718	11.0580894	-3.6669312	19.72121436	-3.65547204	-30.05737668
3.85	385	-0.084	-0.328	-0.968	14.037471	10.3705398	-4.4690724	19.8529947	-3.54661002	-30.05737668
3.86	386	-0.074	-0.316	-0.951	14.7250206	9.6829902	-4.3544808	20.00196378	-3.44347758	-30.06883584
3.87	387	-0.062	-0.307	-0.932	14.7250206	8.9954406	-3.6669312	20.15093286	-3.34607472	-30.06883584
3.88	388	-0.046	-0.303	-0.915	14.2093584	8.1932994	-2.6356068	20.29417236	-3.26013102	-30.06310626
3.89	389	-0.033	-0.303	-0.901	13.2353298	6.589017	-1.4896908	20.4259527	-3.19137606	-30.0516471
3.9	390	-0.018	-0.306	-0.887	11.745639	4.6409598	-0.4583664	20.52908514	-3.12835068	-30.04018794
3.91	391	-0.012	-0.312	-0.87	9.9121734	2.7501984	0.6875496	20.63221758	-3.10543236	-30.0229992
3.92	392	-0.016	-0.319	-0.856	7.2192708	0.572958	1.5469866	20.70097254	-3.10543236	-30.00581046
3.93	393	-0.029	-0.321	-0.85	4.010706	-1.3750992	2.005353	20.7410796	-3.1226211	-29.9943513
3.94	394	-0.039	-0.324	-0.852	1.0886202	-2.8074942	1.8907614	20.75253876	-3.15699858	-29.98862172
3.95	395	-0.043	-0.328	-0.852	-0.859437	-3.6669312	1.3750992	20.73535002	-3.19710564	-29.98862172
3.96	396	-0.044	-0.332	-0.856	-2.6929026	-4.4690724	0.4010706	20.7124317	-3.2372127	-30.00008088
3.97	397	-0.047	-0.339	-0.869	-4.010706	-5.3858052	-0.4010706	20.67232464	-3.28877892	-30.0229992
3.98	398	-0.05	-0.35	-0.885	-4.9274388	-6.3598338	-0.9740286	20.62075842	-3.34034514	-30.05737668
3.99	399	-0.05	-0.363	-0.897	-5.8441716	-6.875496	-0.9167328	20.5691922	-3.40337052	-30.09175416
4	400	-0.051	-0.376	-0.909	-6.7609044	-6.9900876	-0.4010706	20.50616682	-3.4663959	-30.12040206
4.01	401	-0.054	-0.383	-0.92	-7.448454	-7.161975	0.2291832	20.43168228	-3.53515086	-30.14904996
4.02	402	-0.059	-0.388	-0.929	-7.7922288	-7.6776372	0.859437	20.35719774	-3.6096354	-30.1662387
4.03	403	-0.065	-0.391	-0.938	-7.7922288	-8.021412	1.3750992	20.27698362	-3.68984952	-30.18342744
4.04	404	-0.075	-0.39	-0.947	-7.161975	-7.0473834	1.718874	20.20822866	-3.75860448	-30.1948866
4.05	405	-0.088	-0.387	-0.959	-6.2452422	-5.0993262	1.5469866	20.14520328	-3.82735944	-30.1948866
4.06	406	-0.102	-0.382	-0.968	-5.0420304	-3.3804522	0.7448454	20.09936664	-3.86173692	-30.20061618
4.07	407	-0.116	-0.377	-0.968	-3.724227	-2.2345362	-0.859437	20.05925958	-3.87892566	-30.21780492
4.08	408	-0.127	-0.374	-0.966	-2.4637194	-1.6042824	-2.4637194	20.03634126	-3.89038482	-30.24645282
4.09	409	-0.131	-0.372	-0.957	-1.2032118	-1.3750992	-3.5523396	20.0248821	-3.89038482	-30.28655988
4.1	410	-0.128	-0.372	-0.945	-0.1718874	-0.9167328	-4.0680018	20.03061168	-3.95913978	-30.32666694
4.11	411	-0.124	-0.37	-0.932	0.4010706	-0.6302538	-3.8961144	20.04207084	-3.9534102	-30.36104442
4.12	412	-0.116	-0.365	-0.918	0.5156622	-0.5156622	-3.2085648	20.04780042	-3.94768062	-30.3954219
4.13	413	-0.109	-0.36	-0.909	0.2291832	-0.6875496	-2.2345362	20.05353	-3.94768062	-30.41834022
4.14	414	-0.102	-0.349	-0.903	-0.2291832	-0.8021412	-1.3178034	20.04780042	-3.94768062	-30.43552896
4.15	415	-0.097	-0.336	-0.898	-0.5156622	-0.8021412	-0.4010706	19.99050462	-4.05081306	-30.43552896
4.16	416	-0.098	-0.326	-0.898	-0.6875496	-0.7448454	0.0572958	19.98477504	-4.05654264	-30.43552896
4.17	417	-0.097	-0.321	-0.904	-0.6875496	-0.5156622	0.2291832	19.97904546	-4.06227222	-30.43552896
4.18	418	-0.099	-0.321	-0.909	-0.4583664	-0.2291832	0.286479	19.97331588	-4.0680018	-30.43552896
4.19	419	-0.102	-0.327	-0.913	-0.4583664	0.1145916	0.2291832	19.9675863	-4.0680018	-30.42979938
4.2	420	-0.104	-0.334	-0.918	-0.5156622	0.9167328	0.286479	19.9102905	-4.15967508	-30.41834022
4.21	421	-0.104	-0.34	-0.922	-0.9167328	1.6042824	0.4010706	19.89883134	-4.14821592	-30.40688106
4.22	422	-0.104	-0.346	-0.929	-1.432395	2.291832	0.4010706	19.88737218	-4.13102718	-30.3954219
4.23	423	-0.102	-0.348	-0.936	-1.6042824	2.9793816	0.572958	19.87018344	-4.10237928	-30.37823316
4.24	424	-0.098	-0.349	-0.938	-1.3750992	3.724227	0.7448454	19.8529947	-4.07373138	-30.35531484
4.25	425	-0.09	-0.351	-0.94	-1.145916	4.0680018	0.9740286	19.8243468	-4.05654264	-30.33239652
4.26	426	-0.082	-0.352	-0.943	-0.9740286	4.1252976	1.2032118	19.81288764	-4.02216516	-30.30374862
4.27	427	-0.072	-0.351	-0.942	-0.6875496	3.7815228	1.4896908	19.80715806	-3.99351726	-30.27510072
4.28	428	-0.065	-0.351	-0.939	-0.572958	3.2658606	1.7761698	19.7956989	-3.97059894	-30.24645282
4.29	429	-0.059	-0.35	-0.936	-0.572958	2.7501984	1.8907614	19.78996932	-3.9534102	-30.21780492
4.3	430	-0.057	-0.346	-0.932	-0.572958	2.3491278	2.005353	19.76132142	-3.9247623	-30.18915702
4.31	431	-0.058	-0.341	-0.927	-0.3437748	1.718874	1.9480572	19.75559184	-3.91903272	-30.1662387
4.32	432	-0.061	-0.338	-0.926	-0.4010706	1.3178034	1.718874	19.74986226	-3.91330314	-30.14332038
4.33	433	-0.062	-0.337	-0.924	-0.4010706	1.3178034	1.432395	19.74413268	-3.90184398	-30.12613164
4.34	434	-0.061	-0.338	-0.924	-0.4010706	1.3178034	1.145916	19.7384031	-3.8961144	-30.1089429
4.35	435	-0.057	-0.344	-0.921	-0.5156622	1.3178034	0.859437	19.7097552	-3.87319608	-30.09748374
4.36	436	-0.057	-0.345	-0.921	-0.4583664	1.2605076	0.6302538	19.70402562	-3.8674665	-30.08602458
4.37	437	-0.057	-0.348	-0.921	-0.1145916	1.145916	0.2291832	19.70402562	-3.85600734	-30.080295
4.38	438	-0.059	-0.351	-0.924	0.0572958	1.3178034	-0.0572958	19.70402562	-3.84454818	-30.07456542
4.39	439	-0.06	-0.349	-0.926	0.572958	1.6042824	-0.4583664	19.7097552	-3.82735944	-30.07456542
4.4	440	-0.06	-0.346	-0.924	0.5156622	1.4896908	-0.859437	19.69256646	-3.80444112	-30.07456542
4.41	441	-0.062	-0.343	-0.923	0.286479	1.432395	-0.9167328	19.69829604	-3.79298196	-30.080295
4.42	442	-0.063	-0.341	-0.927	0	1.145916	-1.0313244	19.69829604	-3.77579322	-30.08602458
4.43	443	-0.063	-0.341	-0.928	-0.1718874	0.7448454	-1.0886202	19.69829604	-3.76433406	-30.09175416
4.44	444	-0.062	-0.34	-0.928	-0.2291832	0.1718874	-0.9167328	19.69256646	-3.75860448	-30.09748374
4.45	445	-0.062	-0.341	-0.927	-0.2291832	-0.4583664	-0.6875496	19.64672982	-3.77006364	-30.10321332
4.46	446	-0.063	-0.347	-0.931	-0.5156622	-0.9740286	-0.4583664	19.64672982	-3.77579322	-30.11467248
4.47	447	-0.062	-0.35	-0.929	-1.0886202	-1.6042824	-0.2291832	19.63527066	-3.79298196	-30.12040206
4.48	448	-0.065	-0.353	-0.927	-1.5469866	-2.578311	0.0572958	19.61808192	-3.81590028	-30.13186122
4.49	449	-0.068	-0.354	-0.931	-1.9480572	-2.86479	0.2291832	19.60089318	-3.84454818	-30.1375908
4.5	450	-0.071	-0.353	-0.937	-1.5469866	-2.6356068	0.4010706	19.57797486	-3.88465524	-30.14332038
4.51	451	-0.076	-0.352	-0.942	-0.6302538	-2.6356068	0.4010706	19.57224528	-3.90757356	-30.14904996
4.52	452	-0.082	-0.353	-0.941	0.1145916	-2.7501984	0.286479	19.57224528	-3.93622146	-30.15477954
4.53	453	-0.087	-0.356	-0.94	0.1718874	-2.8074942	0.286479	19.57797486	-3.96486936	-30.16050912
4.54	454	-0.091	-0.355	-0.936	-0.0572958	-2.6356068	0.1145916	19.57797486	-3.98778768	-30.17196828
4.55	455	-0.093	-0.352	-0.936	0.0572958	-2.4637194	0.0572958	19.5665157	-4.07946096	-30.17196828
4.56	456	-0.094	-0.348	-0.933	0.8021412	-2.2345362	0	19.57224528	-4.0966497	-30.18342744
4.57	457	-0.095	-0.342	-0.93	1.3750992	-1.7761698	-0.1718874	19.58943402	-4.11383844	-30.18915702
4.58	458	-0.093	-0.338	-0.925	1.6042824	-1.3178034	-0.286479	19.60662276	-4.1252976	-30.20061618
4.59	459	-0.091	-0.336	-0.921	1.4896908	-1.0886202	-0.4010706	19.6238115	-4.13675676	-30.20634576
4.6	460	-0.093	-0.334	-0.92	1.0313244	-0.9740286	-0.3437748	19.58943402	-4.20551172	-30.20634576
4.61	461	-0.093	-0.333	-0.919	0.859437	-0.8021412	-0.286479	19.60089318	-4.2112413	-30.21207534
4.62	462	-0.095	-0.336	-0.918	0.9167328	-0.6875496	-0.2291832	19.60662276	-4.21697088	-30.21780492
4.63	463	-0.095	-0.341	-0.917	0.9740286	-0.6302538	-0.2291832	19.61808192	-4.22270046	-30.2235345
4.64	464	-0.093	-0.347	-0.917	0.859437	-0.5156622	-0.1718874	19.62954108	-4.22843004	-30.22926408
4.65	465	-0.091	-0.351	-0.916	0.6875496	-0.3437748	-0.2291832	19.64100024	-4.31437374	-30.22926408
4.66	466	-0.089	-0.353	-0.92	0.6302538	-0.2291832	-0.2291832	19.64672982	-4.31437374	-30.22926408
4.67	467	-0.085	-0.354	-0.923	0.8021412	0	-0.1145916	19.65818898	-4.31437374	-30.23499366
4.68	468	-0.082	-0.355	-0.925	0.9167328	0	-0.1718874	19.66391856	-4.31437374	-30.23499366
4.69	469	-0.08	-0.354	-0.927	0.9740286	0.0572958	-0.2291832	19.67537772	-4.31437374	-30.23499366
4.7	470	-0.082	-0.355	-0.926	1.0886202	0	-0.2291832	19.69829604	-4.36021038	-30.24072324
4.71	471	-0.082	-0.356	-0.924	0.8021412	-0.1145916	-0.1718874	19.70402562	-4.36021038	-30.24072324
4.72	472	-0.081	-0.356	-0.924	0.5156622	-0.2291832	-0.0572958	19.7097552	-4.36021038	-30.24072324
4.73	473	-0.08	-0.353	-0.925	0.572958	-0.1145916	-0.0572958	19.71548478	-4.36021038	-30.24645282
4.74	474	-0.08	-0.352	-0.926	0.859437	0.1718874	-0.0572958	19.72694394	-4.36021038	-30.24645282
4.75	475	-0.08	-0.353	-0.926	1.3750992	0.4010706	-0.2291832	19.73267352	-4.37739912	-30.24645282
4.76	476	-0.079	-0.354	-0.925	1.6042824	0.4583664	-0.3437748	19.74986226	-4.37166954	-30.24645282
4.77	477	-0.076	-0.354	-0.923	1.6615782	0.4583664	-0.4010706	19.767051	-4.36593996	-30.24645282
4.78	478	-0.076	-0.356	-0.921	1.718874	0.286479	-0.4010706	19.78423974	-4.36021038	-30.2521824
4.79	479	-0.076	-0.356	-0.921	1.5469866	0.1718874	-0.286479	19.80142848	-4.3544808	-30.2521824
4.8	480	-0.076	-0.355	-0.922	1.5469866	0.0572958	-0.1145916	19.80715806	-4.37166954	-30.2521824
4.81	481	-0.076	-0.354	-0.922	1.7761698	0.2291832	-0.0572958	19.8243468	-4.36593996	-30.2521824
4.82	482	-0.076	-0.353	-0.922	1.8907614	0.4010706	0	19.84726512	-4.36021038	-30.2521824
4.83	483	-0.076	-0.352	-0.922	2.1199446	0.1718874	-0.0572958	19.87018344	-4.36021038	-30.2521824
4.84	484	-0.075	-0.351	-0.921	2.2345362	-0.0572958	0	19.89310176	-4.36021038	-30.2521824
4.85	485	-0.075	-0.352	-0.921	1.8907614	-0.3437748	0.0572958	19.89883134	-4.37166954	-30.2521824
4.86	486	-0.074	-0.352	-0.922	1.0886202	-0.4583664	0.286479	19.9102905	-4.37739912	-30.2521824
4.87	487	-0.074	-0.353	-0.925	0.5156622	-0.5156622	0.5156622	19.91602008	-4.3831287	-30.24645282
4.88	488	-0.075	-0.353	-0.929	-0.286479	-0.8021412	0.6302538	19.9102905	-4.39458786	-30.24645282
4.89	489	-0.076	-0.354	-0.932	-1.2032118	-0.9740286	0.7448454	19.89883134	-4.40604702	-30.24072324
4.9	490	-0.078	-0.352	-0.933	-1.6615782	-1.145916	0.8021412	19.87018344	-4.42896534	-30.23499366
4.91	491	-0.08	-0.352	-0.933	-1.7761698	-1.4896908	0.6302538	19.84726512	-4.44615408	-30.23499366
4.92	492	-0.08	-0.35	-0.932	-1.5469866	-1.8334656	0.3437748	19.83580596	-4.46334282	-30.24072324
4.93	493	-0.08	-0.349	-0.93	-1.2605076	-2.5210152	0	19.8243468	-4.48626114	-30.24645282
4.94	494	-0.079	-0.349	-0.928	-1.2032118	-2.9793816	-0.1718874	19.81288764	-4.51490904	-30.26364156
4.95	495	-0.079	-0.349	-0.929	-1.0886202	-3.0939732	-0.286479	19.78996932	-4.54355694	-30.27510072
4.96	496	-0.08	-0.35	-0.931	-1.145916	-2.7501984	-0.286479	19.77851016	-4.57220484	-30.28655988
4.97	497	-0.082	-0.351	-0.932	-1.6042824	-2.1772404	-0.4583664	19.76132142	-4.58939358	-30.29801904
4.98	498	-0.085	-0.351	-0.931	-1.6042824	-1.8334656	-0.4583664	19.74986226	-4.60658232	-30.3094782
4.99	499	-0.087	-0.351	-0.932	-1.3750992	-1.8334656	-0.572958	19.73267352	-4.61804148	-30.32093736
5	500	-0.091	-0.352	-0.93	-1.145916	-1.9480572	-0.6875496	19.71548478	-4.65814854	-30.33239652
5.01	501	-0.092	-0.353	-0.929	-1.432395	-2.1199446	-0.7448454	19.70402562	-4.67533728	-30.34958526
5.02	502	-0.092	-0.352	-0.927	-1.4896908	-2.005353	-0.7448454	19.69256646	-4.69252602	-30.366774
5.03	503	-0.09	-0.349	-0.926	-1.145916	-1.7761698	-0.6302538	19.6811073	-4.70398518	-30.37823316
5.04	504	-0.088	-0.349	-0.921	-0.572958	-1.6615782	-0.6875496	19.67537772	-4.72117392	-30.38969232
5.05	505	-0.087	-0.353	-0.91	-0.9167328	-1.718874	-0.572958	19.67537772	-4.74982182	-30.40115148
5.06	506	-0.09	-0.356	-0.907	-2.291832	-2.3491278	-0.4010706	19.6524594	-4.77274014	-30.41261064
5.07	507	-0.09	-0.355	-0.911	-3.437748	-3.6096354	-0.1718874	19.6238115	-4.80138804	-30.42979938
5.08	508	-0.089	-0.353	-0.907	-4.2398892	-4.583664	-0.0572958	19.57797486	-4.84722468	-30.44698812
5.09	509	-0.091	-0.355	-0.899	-5.5003968	-5.3285094	0	19.52640864	-4.8987909	-30.46417686
5.1	510	-0.096	-0.351	-0.893	-7.3911582	-6.4744254	0.0572958	19.45765368	-4.96754586	-30.48709518
5.11	511	-0.101	-0.344	-0.893	-8.9954406	-7.3911582	0.3437748	19.37170998	-5.03630082	-30.5100135
5.12	512	-0.1	-0.335	-0.909	-8.307891	-7.448454	1.0313244	19.28576628	-5.11078536	-30.52720224
5.13	513	-0.097	-0.33	-0.921	-5.6149884	-6.875496	1.5469866	19.22847048	-5.17954032	-30.53293182
5.14	514	-0.098	-0.334	-0.924	-3.3231564	-6.2452422	1.9480572	19.19982258	-5.24829528	-30.5386614
5.15	515	-0.1	-0.34	-0.917	-3.3804522	-6.016059	2.0626488	19.1654451	-5.31705024	-30.5386614
5.16	516	-0.105	-0.342	-0.916	-4.3544808	-5.6149884	2.0626488	19.11960846	-5.37434604	-30.5386614
5.17	517	-0.106	-0.338	-0.924	-4.4690724	-4.8128472	2.005353	19.07377182	-5.42591226	-30.5386614
5.18	518	-0.105	-0.338	-0.937	-3.2085648	-3.6096354	1.718874	19.04512392	-5.46601932	-30.53293182
5.19	519	-0.104	-0.344	-0.946	-2.1772404	-2.6929026	1.3750992	19.0222056	-5.5003968	-30.52720224
5.2	520	-0.105	-0.351	-0.949	-1.718874	-2.291832	1.2032118	19.00501686	-5.53477428	-30.52720224
5.21	521	-0.106	-0.356	-0.943	-1.5469866	-1.6042824	1.0313244	18.98782812	-5.5576926	-30.52147266
5.22	522	-0.106	-0.357	-0.945	-1.4896908	-0.859437	0.9167328	18.97636896	-5.56915176	-30.51574308
5.23	523	-0.108	-0.355	-0.947	-0.9740286	-0.572958	0.8021412	18.9649098	-5.57488134	-30.5100135
5.24	524	-0.108	-0.349	-0.949	-0.0572958	-0.859437	0.6302538	18.9649098	-5.5863405	-30.5100135
5.25	525	-0.107	-0.346	-0.944	1.3178034	-0.9740286	0.5156622	18.97063938	-5.6149884	-30.50428392
5.26	526	-0.104	-0.343	-0.937	2.005353	-0.7448454	0.4583664	18.9935577	-5.62644756	-30.50428392
5.27	527	-0.102	-0.337	-0.935	2.1772404	-0.8021412	0.5156622	19.01074644	-5.63217714	-30.49855434
5.28	528	-0.099	-0.333	-0.932	2.4637194	-0.859437	0.572958	19.03939434	-5.6436363	-30.49855434
5.29	529	-0.097	-0.333	-0.928	2.291832	-0.9167328	0.5156622	19.06231266	-5.65509546	-30.49855434
5.3	530	-0.095	-0.33	-0.92	1.5469866	-1.145916	0.4010706	19.06231266	-5.6722842	-30.49282476
5.31	531	-0.093	-0.332	-0.915	1.3178034	-1.2605076	0.3437748	19.07377182	-5.68374336	-30.49282476
5.32	532	-0.09	-0.337	-0.908	0.6875496	-1.3178034	0.2291832	19.0795014	-5.69520252	-30.49855434
5.33	533	-0.09	-0.342	-0.901	-0.7448454	-1.6615782	0	19.07377182	-5.71239126	-30.50428392
5.34	534	-0.09	-0.341	-0.903	-1.4896908	-2.291832	0	19.06231266	-5.73530958	-30.5100135
5.35	535	-0.092	-0.34	-0.907	-1.145916	-2.6929026	0	19.05658308	-5.7582279	-30.52147266
5.36	536	-0.096	-0.344	-0.908	-0.8021412	-2.6356068	0.0572958	19.04512392	-5.78114622	-30.52720224
5.37	537	-0.1	-0.343	-0.911	-0.9740286	-2.578311	0.1718874	19.03939434	-5.80979412	-30.5386614
5.38	538	-0.102	-0.342	-0.914	-0.859437	-2.3491278	0.286479	19.02793518	-5.83271244	-30.54439098
5.39	539	-0.106	-0.343	-0.921	-0.9740286	-2.0626488	0.4010706	19.0222056	-5.84990118	-30.54439098
5.4	540	-0.107	-0.342	-0.929	-0.9167328	-1.7761698	0.3437748	19.01074644	-5.89000824	-30.54439098
5.41	541	-0.109	-0.346	-0.933	-0.9740286	-1.4896908	0.3437748	18.99928728	-5.90719698	-30.55012056
5.42	542	-0.111	-0.348	-0.936	-1.4896908	-1.3178034	0.4583664	18.98209854	-5.91865614	-30.55012056
5.43	543	-0.114	-0.347	-0.939	-1.5469866	-1.2605076	0.5156622	18.97063938	-5.93584488	-30.55012056
5.44	544	-0.114	-0.348	-0.942	-0.9740286	-1.145916	0.4010706	18.95918022	-5.94730404	-30.55012056
5.45	545	-0.113	-0.347	-0.945	-0.1145916	-1.0886202	0.286479	18.94772106	-5.99887026	-30.55012056
5.46	546	-0.112	-0.347	-0.941	0.5156622	-1.3750992	0.1145916	18.95345064	-6.01032942	-30.55012056
5.47	547	-0.112	-0.344	-0.942	0.859437	-1.6042824	0.1145916	18.9649098	-6.02751816	-30.55585014
5.48	548	-0.113	-0.341	-0.941	1.145916	-1.9480572	0.1145916	18.97636896	-6.0447069	-30.56157972
5.49	549	-0.113	-0.337	-0.942	1.2605076	-2.3491278	0.1145916	18.9935577	-6.06762522	-30.5673093
5.5	550	-0.111	-0.333	-0.936	1.6615782	-2.8074942	0.1145916	18.99928728	-6.1020027	-30.57303888
5.51	551	-0.109	-0.332	-0.92	1.7761698	-3.8388186	0.2291832	19.01647602	-6.14210976	-30.58449804
5.52	552	-0.107	-0.33	-0.916	1.3750992	-5.443101	0.3437748	19.03366476	-6.19367598	-30.60168678
5.53	553	-0.104	-0.326	-0.917	1.2605076	-6.875496	0.4583664	19.0508535	-6.25670136	-30.6246051
5.54	554	-0.102	-0.328	-0.908	1.5469866	-8.021412	0.7448454	19.06804224	-6.3311859	-30.64179384
5.55	555	-0.102	-0.335	-0.893	0.4583664	-8.6516658	1.2605076	19.0795014	-6.4171296	-30.66471216
5.56	556	-0.104	-0.336	-0.899	-0.6875496	-8.6516658	1.718874	19.0795014	-6.5030733	-30.67617132
5.57	557	-0.111	-0.333	-0.91	-0.8021412	-8.1360036	1.9480572	19.07377182	-6.58328742	-30.68763048
5.58	558	-0.121	-0.334	-0.909	-1.0313244	-7.7922288	1.7761698	19.06231266	-6.66350154	-30.69336006
5.59	559	-0.13	-0.337	-0.913	-1.5469866	-7.5057498	1.6042824	19.0508535	-6.73798608	-30.70481922
5.6	560	-0.135	-0.341	-0.918	-1.718874	-6.7036086	1.2032118	19.03366476	-6.8182002	-30.71627838
5.61	561	-0.139	-0.345	-0.922	-1.145916	-5.3858052	0.859437	19.0222056	-6.875496	-30.72773754
5.62	562	-0.142	-0.354	-0.932	-0.572958	-4.1252976	0.8021412	19.01647602	-6.91560306	-30.73346712
5.63	563	-0.144	-0.362	-0.939	-0.4583664	-3.0939732	0.8021412	19.01647602	-6.94425096	-30.7391967
5.64	564	-0.147	-0.365	-0.939	-0.9740286	-2.578311	0.9740286	19.00501686	-6.97289886	-30.7391967
5.65	565	-0.147	-0.36	-0.945	-0.4583664	-2.1199446	0.9740286	19.01074644	-7.04165382	-30.7391967
5.66	566	-0.147	-0.357	-0.953	0.859437	-1.432395	0.9740286	19.0222056	-7.05884256	-30.73346712
5.67	567	-0.148	-0.354	-0.961	2.1772404	-0.8021412	0.7448454	19.04512392	-7.07030172	-30.72773754
5.68	568	-0.15	-0.353	-0.966	2.86479	-0.1145916	0.3437748	19.07377182	-7.07030172	-30.72773754
5.69	569	-0.152	-0.35	-0.983	3.6096354	0.5156622	0	19.1081493	-7.06457214	-30.72200796
5.7	570	-0.152	-0.344	-0.979	4.870143	1.0313244	-0.6302538	19.14825636	-7.07030172	-30.72773754
5.71	571	-0.151	-0.348	-0.967	6.302538	1.3178034	-1.2605076	19.21701132	-7.05311298	-30.73346712
5.72	572	-0.149	-0.347	-0.956	7.0473834	1.3178034	-1.8907614	19.28576628	-7.03019466	-30.74492628
5.73	573	-0.149	-0.342	-0.951	7.7922288	1.5469866	-2.4064236	19.3659804	-7.00727634	-30.76211502
