TimeStamp(s)	FrameCounter	AccX	AccY	AccZ	GyrX	GyrY	GyrZ	EulerX	EulerY	EulerZ
0.01	1	-0.041	-1.006	-0.03	0.6302538	-0.6875496	0.0572958	85.96661832	-4.54355694	-21.11923188
0.02	2	-0.04	-1.008	-0.031	0.4010706	-0.6875496	0.0572958	85.9723479	-4.54355694	-21.12496146
0.03	3	-0.04	-1.008	-0.029	0.286479	-0.7448454	0.1145916	85.97807748	-4.54355694	-21.13069104
0.04	4	-0.041	-1.007	-0.029	0.1718874	-0.859437	0.0572958	85.97807748	-4.54928652	-21.1421502
0.05	5	-0.044	-1.005	-0.031	0.0572958	-0.9740286	0	86.0582916	-4.27426668	-21.30257844
0.06	6	-0.043	-1.004	-0.033	0.1145916	-0.859437	0	86.0582916	-4.27426668	-21.30830802
0.07	7	-0.043	-1.006	-0.033	0.2291832	-0.572958	0.0572958	86.06402118	-4.27426668	-21.31976718
0.08	8	-0.042	-1.007	-0.035	0.2291832	-0.6302538	-0.0572958	86.06402118	-4.27426668	-21.32549676
0.09	9	-0.041	-1.007	-0.037	0.1718874	-0.9740286	-0.0572958	86.06975076	-4.27426668	-21.33122634
0.1	10	-0.04	-1.006	-0.037	0.1718874	-1.3750992	-0.1145916	86.09839866	-4.13675676	-21.42289962
0.11	11	-0.038	-1.006	-0.033	0.286479	-1.6042824	-0.1145916	86.10412824	-4.13675676	-21.44008836
0.12	12	-0.04	-1.007	-0.033	0.2291832	-1.6042824	-0.2291832	86.10412824	-4.13675676	-21.4572771
0.13	13	-0.042	-1.008	-0.033	0	-1.432395	-0.2291832	86.10985782	-4.13102718	-21.46873626
0.14	14	-0.043	-1.008	-0.036	-0.3437748	-1.145916	-0.2291832	86.10412824	-4.13102718	-21.48019542
0.15	15	-0.043	-1.007	-0.036	-0.4583664	-0.9167328	-0.2291832	86.12704656	-3.98778768	-21.56613912
0.16	16	-0.042	-1.005	-0.037	-0.5156622	-0.7448454	-0.286479	86.12131698	-3.98778768	-21.5718687
0.17	17	-0.041	-1.004	-0.038	-0.4010706	-0.6875496	-0.2291832	86.12131698	-3.9820581	-21.58332786
0.18	18	-0.04	-1.005	-0.037	-0.4010706	-0.8021412	-0.2291832	86.1155874	-3.9820581	-21.58905744
0.19	19	-0.04	-1.006	-0.039	-0.5156622	-0.9167328	-0.1718874	86.10985782	-3.9820581	-21.6005166
0.2	20	-0.04	-1.007	-0.038	-0.6302538	-0.9167328	-0.2291832	86.12704656	-3.84454818	-21.68073072
0.21	21	-0.04	-1.006	-0.038	-0.6302538	-0.8021412	-0.286479	86.12131698	-3.8388186	-21.69218988
0.22	22	-0.04	-1.006	-0.038	-0.286479	-0.572958	-0.1145916	86.12131698	-3.8388186	-21.69791946
0.23	23	-0.041	-1.005	-0.035	-0.1145916	-0.5156622	-0.0572958	86.12131698	-3.8388186	-21.70364904
0.24	24	-0.043	-1.004	-0.035	-0.0572958	-0.2291832	0	86.1155874	-3.8388186	-21.70364904
0.25	25	-0.043	-1.004	-0.034	-0.1718874	-0.1718874	-0.0572958	86.17861278	-3.59817624	-21.83542938
0.26	26	-0.041	-1.005	-0.033	-0.3437748	-0.3437748	0	86.1728832	-3.59817624	-21.83542938
0.27	27	-0.041	-1.007	-0.032	-0.4583664	-0.4583664	-0.0572958	86.16715362	-3.59817624	-21.84115896
0.28	28	-0.041	-1.007	-0.034	-0.6302538	-0.572958	-0.0572958	86.16142404	-3.59244666	-21.84688854
0.29	29	-0.043	-1.006	-0.034	-0.7448454	-0.4583664	-0.0572958	86.15569446	-3.59244666	-21.85261812
0.3	30	-0.042	-1.006	-0.036	-0.8021412	-0.4010706	-0.1145916	86.16715362	-3.4950438	-21.90991392
0.31	31	-0.043	-1.005	-0.037	-0.9167328	-0.3437748	-0.1718874	86.15569446	-3.4950438	-21.90991392
0.32	32	-0.044	-1.005	-0.039	-0.859437	-0.2291832	-0.2291832	86.1442353	-3.48931422	-21.9156435
0.33	33	-0.044	-1.004	-0.038	-0.8021412	-0.2291832	-0.2291832	86.13850572	-3.48931422	-21.9156435
0.34	34	-0.044	-1.001	-0.039	-0.7448454	-0.1145916	-0.2291832	86.13277614	-3.48931422	-21.92137308
0.35	35	-0.043	-1	-0.04	-0.6302538	0	-0.286479	86.1442353	-3.36326346	-21.98439846
0.36	36	-0.041	-1.002	-0.04	-0.4583664	0	-0.286479	86.13850572	-3.36326346	-21.98439846
0.37	37	-0.04	-1.003	-0.042	-0.4010706	-0.3437748	-0.2291832	86.13277614	-3.35753388	-21.98439846
0.38	38	-0.042	-1.001	-0.034	-0.1718874	-0.572958	0	86.13277614	-3.35753388	-21.99012804
0.39	39	-0.04	-1.006	-0.033	-0.4010706	-0.7448454	0.1718874	86.12704656	-3.36326346	-22.0015872
0.4	40	-0.04	-1.006	-0.032	-0.8021412	-1.2032118	0.4010706	86.14996488	-3.31169724	-22.04169426
0.41	41	-0.049	-1.004	-0.033	-0.859437	-1.0313244	0.3437748	86.13850572	-3.31742682	-22.05315342
0.42	42	-0.056	-1.003	-0.022	-0.6875496	-1.0886202	0.2291832	86.13277614	-3.31742682	-22.058883
0.43	43	-0.056	-0.998	-0.014	-0.3437748	0	-0.0572958	86.12704656	-3.31742682	-22.058883
0.44	44	-0.054	-0.995	-0.005	-1.0886202	0.4583664	-0.2291832	86.1155874	-3.31742682	-22.058883
0.45	45	-0.049	-1.001	-0.009	-2.0626488	-1.2032118	-0.7448454	86.1155874	-3.28877892	-22.08180132
0.46	46	-0.046	-1.009	-0.034	-4.4117766	-3.151269	-1.0886202	86.07548034	-3.28304934	-22.11044922
0.47	47	-0.046	-1.009	-0.046	-6.1879464	-5.5576926	-1.3750992	86.01818454	-3.27159018	-22.16774502
0.48	48	-0.045	-1.001	-0.049	-6.7036086	-6.7036086	-1.718874	85.94942958	-3.25440144	-22.23649998
0.49	49	-0.039	-0.995	-0.043	-6.302538	-7.7922288	-1.6615782	85.89213378	-3.24294228	-22.3167141
0.5	50	-0.037	-0.996	-0.033	-5.5576926	-8.8235532	-1.6615782	85.84629714	-3.22575354	-22.41411696
0.51	51	-0.05	-0.996	-0.028	-5.3858052	-9.3965112	-1.6042824	85.8004605	-3.21429438	-22.50579024
0.52	52	-0.072	-0.998	-0.019	-4.9274388	-9.7975818	-1.6615782	85.75462386	-3.20283522	-22.6031931
0.53	53	-0.086	-1.004	-0.011	-4.3544808	-10.026765	-1.5469866	85.72024638	-3.19137606	-22.70632554
0.54	54	-0.095	-1.005	-0.002	-3.9534102	-9.3392154	-1.5469866	85.6858689	-3.1799169	-22.79799882
0.55	55	-0.096	-1.007	0.005	-3.7815228	-8.2505952	-1.7761698	85.67440974	-3.1799169	-22.87821294
0.56	56	-0.094	-1.007	0.006	-4.297185	-6.8182002	-2.1199446	85.63430268	-3.16272816	-22.9469679
0.57	57	-0.094	-1.009	0.002	-4.9274388	-5.6722842	-2.1772404	85.58846604	-3.14553942	-23.0042637
0.58	58	-0.094	-1.007	-0.002	-5.443101	-4.2398892	-2.1199446	85.53117024	-3.12835068	-23.05010034
0.59	59	-0.094	-1.004	-0.005	-5.7868758	-2.6929026	-2.0626488	85.47960402	-3.11116194	-23.07874824
0.6	60	-0.086	-1.003	-0.004	-5.6722842	-1.3750992	-2.0626488	85.44522654	-3.10543236	-23.0902074
0.61	61	-0.077	-1.004	-0.01	-5.8441716	-0.286479	-2.0626488	85.38793074	-3.08824362	-23.09593698
0.62	62	-0.072	-1.005	-0.016	-6.3598338	-0.0572958	-1.7761698	85.32490536	-3.07105488	-23.09593698
0.63	63	-0.073	-1.008	-0.02	-6.875496	-0.7448454	-1.4896908	85.2561504	-3.05386614	-23.10739614
0.64	64	-0.075	-1.007	-0.018	-6.589017	-1.9480572	-1.0313244	85.18739544	-3.04813656	-23.13031446
0.65	65	-0.075	-1.002	-0.018	-6.1879464	-2.8074942	-1.0886202	85.14728838	-3.04813656	-23.15323278
0.66	66	-0.074	-0.998	-0.019	-5.6722842	-3.3231564	-1.3178034	85.08999258	-3.0366774	-23.18761026
0.67	67	-0.076	-0.996	-0.019	-5.2712136	-4.1252976	-1.718874	85.03842636	-3.02521824	-23.2334469
0.68	68	-0.078	-1	-0.016	-4.5263682	-4.6982556	-2.005353	84.9983193	-3.0080295	-23.27928354
0.69	69	-0.076	-1.004	-0.017	-4.297185	-5.0993262	-2.1772404	84.95821224	-2.98511118	-23.33084976
0.7	70	-0.074	-1.005	-0.021	-4.5263682	-5.7868758	-2.2345362	84.92956434	-2.9793816	-23.38814556
0.71	71	-0.077	-1.006	-0.024	-5.2712136	-6.1879464	-2.1199446	84.87799812	-2.96219286	-23.45117094
0.72	72	-0.084	-1.002	-0.027	-5.6722842	-6.1879464	-2.0626488	84.8264319	-2.94500412	-23.51419632
0.73	73	-0.09	-1.001	-0.031	-5.72958	-5.0420304	-2.0626488	84.7691361	-2.92781538	-23.57149212
0.74	74	-0.088	-0.998	-0.033	-6.1879464	-3.8388186	-2.005353	84.7118403	-2.91062664	-23.61159918
0.75	75	-0.083	-0.993	-0.038	-7.2765666	-3.0366774	-2.005353	84.64881492	-2.90489706	-23.6345175
0.76	76	-0.075	-0.985	-0.044	-7.9641162	-2.4637194	-1.6042824	84.5686008	-2.8934379	-23.6631654
0.77	77	-0.066	-0.979	-0.051	-7.9068204	-2.4064236	-0.572958	84.48838668	-2.88770832	-23.6918133
0.78	78	-0.061	-0.975	-0.051	-7.5630456	-2.5210152	0.859437	84.41390214	-2.89916748	-23.71473162
0.79	79	-0.058	-0.976	-0.04	-6.7036086	-3.0366774	2.4064236	84.35087676	-2.92781538	-23.74337952
0.8	80	-0.058	-0.974	-0.018	-5.72958	-3.3231564	3.5523396	84.31649928	-2.96792244	-23.77202742
0.81	81	-0.068	-0.981	0.001	-5.6722842	-2.9793816	4.2398892	84.25920348	-3.01375908	-23.80067532
0.82	82	-0.071	-0.996	0.011	-7.6203414	-2.0626488	4.583664	84.18471894	-3.05959572	-23.81786406
0.83	83	-0.074	-1.007	0.001	-11.3445684	-0.5156622	5.0993262	84.07012734	-3.11116194	-23.81786406
0.84	84	-0.069	-1.015	-0.04	-16.5011904	1.9480572	5.8441716	83.89823994	-3.17418732	-23.79494574
0.85	85	-0.058	-1.015	-0.075	-21.5432208	4.583664	7.448454	83.67478632	-3.24294228	-23.74337952
0.86	86	-0.049	-1.016	-0.093	-25.0382646	6.016059	9.5111028	83.41695522	-3.33461556	-23.67462456
0.87	87	-0.055	-1.023	-0.093	-25.4393352	6.016059	10.599723	83.15339454	-3.437748	-23.6058696
0.88	88	-0.073	-1.036	-0.088	-24.8090814	6.9327918	10.3705398	82.89556344	-3.53515086	-23.53138506
0.89	89	-0.079	-1.038	-0.067	-23.8350528	10.0840608	8.9381448	82.6491915	-3.61536498	-23.42252304
0.9	90	-0.067	-1.033	-0.052	-23.0902074	13.5218088	7.2765666	82.40854914	-3.67266078	-23.27928354
0.91	91	-0.045	-1.035	-0.031	-21.3140376	15.0687954	5.2712136	82.17936594	-3.71276784	-23.13031446
0.92	92	-0.012	-1.029	-0.007	-20.7410796	16.1001198	3.6096354	81.95591232	-3.72995658	-22.96415664
0.93	93	0.013	-1.012	0.006	-19.8243468	14.7823164	2.7501984	81.74391786	-3.74714532	-22.82091714
0.94	94	0.025	-1.004	0.026	-18.2200644	11.0580894	1.9480572	81.54911214	-3.7528749	-22.70632554
0.95	95	0.018	-1.002	0.041	-17.5325148	7.3338624	1.0886202	81.40587264	-3.72995658	-22.64902974
0.96	96	0.005	-1.005	0.059	-16.5584862	2.9220858	-0.2291832	81.23398524	-3.72995658	-22.62611142
0.97	97	-0.013	-1.017	0.073	-14.9542038	-0.9740286	-2.7501984	81.07928658	-3.70130868	-22.63757058
0.98	98	-0.034	-1.039	0.082	-13.2926256	-3.6096354	-6.2452422	80.95323582	-3.64974246	-22.68340722
0.99	99	-0.05	-1.052	0.081	-12.9488508	-3.437748	-10.1413566	80.82145548	-3.5523396	-22.73497344
1	100	-0.046	-1.044	0.068	-13.9801752	-0.9740286	-13.2353298	80.71832304	-3.42055926	-22.7750805
1.01	101	-0.028	-1.023	0.061	-14.6677248	0.9167328	-14.8396122	80.56935396	-3.27731976	-22.79226924
1.02	102	-0.013	-1.003	0.055	-15.2979786	2.1199446	-15.0114996	80.4146553	-3.12835068	-22.79226924
1.03	103	-0.012	-0.983	0.036	-17.18874	3.2658606	-13.750992	80.23703832	-2.98511118	-22.78653966
1.04	104	-0.013	-0.963	0.018	-18.4492476	4.010706	-12.032118	80.04796218	-2.86479	-22.76935092
1.05	105	-0.007	-0.95	0	-19.3659804	4.4117766	-10.8289062	79.8703452	-2.74446882	-22.75216218
1.06	106	-0.006	-0.942	-0.017	-19.9962342	4.3544808	-10.313244	79.66408032	-2.64133638	-22.72924386
1.07	107	0.016	-0.937	-0.025	-19.5378678	3.3231564	-10.313244	79.46354502	-2.53820394	-22.7177847
1.08	108	0.03	-0.941	-0.024	-18.1627686	1.2605076	-10.3705398	79.28019846	-2.4350715	-22.72351428
1.09	109	0.031	-0.944	-0.022	-16.5011904	-0.6875496	-10.313244	79.11404064	-2.33766864	-22.75216218
1.1	110	0.021	-0.945	-0.015	-14.5531332	-1.8334656	-9.8548776	78.99371946	-2.22880662	-22.79799882
1.11	111	0.02	-0.939	-0.001	-12.4331886	-2.578311	-9.1100322	78.87339828	-2.14286292	-22.84383546
1.12	112	0.019	-0.949	0.019	-10.9434978	-3.2085648	-8.4224826	78.76453626	-2.06837838	-22.8896721
1.13	113	0.02	-0.969	0.027	-10.0840608	-3.8961144	-7.734933	78.66140382	-1.99962342	-22.9469679
1.14	114	0.021	-0.99	0.038	-9.453807	-5.0993262	-6.9327918	78.56973054	-1.94232762	-23.00999328
1.15	115	0.03	-1.014	0.039	-9.9121734	-6.016059	-5.9014674	78.5238939	-1.87357266	-23.0902074
1.16	116	0.05	-1.042	0.03	-11.0580894	-7.1046792	-4.9274388	78.41503188	-1.83919518	-23.17042152
1.17	117	0.068	-1.042	0.013	-12.4331886	-8.1360036	-3.8388186	78.28898112	-1.81627686	-23.2620948
1.18	118	0.071	-1.037	0.005	-13.464513	-10.313244	-2.578311	78.15720078	-1.81054728	-23.37095682
1.19	119	0.083	-1.053	0.014	-13.6364004	-14.037471	-0.9167328	78.02542044	-1.82773602	-23.50846674
1.2	120	0.101	-1.074	0.013	-15.0114996	-19.3659804	1.0886202	77.90509926	-1.85065434	-23.70900204
1.21	121	0.115	-1.091	0.006	-15.8709366	-24.4653066	3.2658606	77.75613018	-1.93086846	-23.93818524
1.22	122	0.114	-1.103	-0.004	-15.0687954	-29.220858	4.9847346	77.61862026	-2.0340009	-24.21320508
1.23	123	0.1	-1.11	-0.018	-13.5218088	-32.6013102	5.72958	77.4925695	-2.1485925	-24.5226024
1.24	124	0.064	-1.1	-0.026	-11.1153852	-34.663959	5.3285094	77.40089622	-2.26891368	-24.84918846
1.25	125	0.022	-1.087	-0.012	-7.161975	-35.9817624	4.010706	77.36651874	-2.37204612	-25.19296326
1.26	126	-0.011	-1.072	-0.003	-3.6096354	-34.950438	2.1199446	77.34933	-2.45798982	-25.5252789
1.27	127	-0.018	-1.072	-0.004	-1.3178034	-31.8564648	0.1145916	77.35505958	-2.5210152	-25.83467622
1.28	128	-0.026	-1.081	-0.014	0.7448454	-27.1009134	-1.3750992	77.3779779	-2.55539268	-26.10396648
1.29	129	-0.038	-1.085	-0.011	3.4950438	-23.6631654	-1.8907614	77.42954412	-2.58404058	-26.33887926
1.3	130	-0.05	-1.078	0.015	6.302538	-22.5172494	-1.145916	77.53840614	-2.61268848	-26.5566033
1.31	131	-0.052	-1.062	0.039	7.0473834	-24.064236	0.7448454	77.62434984	-2.6642547	-26.79151608
1.32	132	-0.125	-1.223	-0.119	-0.6875496	-34.663959	1.9480572	77.635809	-2.7501984	-27.12383172
1.33	133	-0.268	-1.404	-0.238	-0.6302538	-18.334656	-11.6883432	77.64153858	-2.66998428	-27.32436702
1.34	134	-0.09	-1.252	-0.129	7.9068204	3.151269	-14.4958374	77.7217527	-2.5210152	-27.32436702
1.35	135	0.019	-1.198	-0.172	5.7868758	-11.2299768	-17.761698	77.79623724	-2.36058696	-27.4733361
1.36	136	0	-1.207	-0.178	12.4331886	-9.5683986	-18.1627686	77.92801758	-2.20015872	-27.60511644
1.37	137	0.068	-1.08	-0.2	10.313244	-21.1421502	-8.1932994	78.04260918	-2.16005166	-27.82284048
1.38	138	0.108	-1.131	-0.281	8.9954406	-28.8770832	-6.7609044	78.1514712	-2.14286292	-28.12077864
1.39	139	0.045	-1.171	-0.346	6.4744254	-25.496631	-12.0894138	78.23168532	-2.06837838	-28.3900689
1.4	140	-0.002	-1.073	-0.343	11.172681	-20.5118964	-17.2460358	78.34054734	-1.93086846	-28.62498168
1.41	141	-0.029	-0.984	-0.363	11.1153852	-21.772404	-20.4546006	78.4665981	-1.77044022	-28.8770832
1.42	142	-0.025	-0.848	-0.406	7.2192708	-20.3973048	-20.5691922	78.54681222	-1.6042824	-29.11772556
1.43	143	0.025	-0.742	-0.369	8.7089616	-25.6685184	-14.5531332	78.64421508	-1.50114996	-29.3927454
1.44	144	0.057	-0.811	-0.349	8.880849	-30.080295	-8.5370742	78.74734752	-1.46677248	-29.70214272
1.45	145	0.028	-0.921	-0.298	9.6256944	-29.3354496	-6.3598338	78.84475038	-1.44385416	-30.00581046
1.46	146	-0.026	-0.968	-0.262	9.5111028	-25.6112226	-5.443101	78.94788282	-1.432395	-30.26364156
1.47	147	-0.091	-0.979	-0.244	9.0527364	-20.7410796	-4.4117766	79.05101526	-1.42093584	-30.47563602
1.48	148	-0.156	-0.976	-0.203	9.6829902	-15.5844576	-2.578311	79.1541477	-1.42093584	-30.63033468
1.49	149	-0.166	-0.957	-0.169	12.1467096	-9.1100322	1.3178034	79.28019846	-1.44958374	-30.71627838
1.5	150	-0.122	-0.951	-0.148	13.5218088	-2.005353	6.016059	79.42343796	-1.53552744	-30.7105488
1.51	151	-0.071	-0.938	-0.148	13.464513	2.1772404	9.8548776	79.5552183	-1.62720072	-30.67044174
1.52	152	-0.035	-0.939	-0.151	12.8342592	4.6409598	13.1207382	79.68699864	-1.7475219	-30.60168678
1.53	153	-0.039	-0.927	-0.155	12.2040054	6.1306506	15.2979786	79.80731982	-1.88503182	-30.5100135
1.54	154	-0.068	-0.912	-0.154	11.8029348	6.7609044	16.329303	79.92191142	-2.0340009	-30.41834022
1.55	155	-0.095	-0.894	-0.145	11.4018642	7.5057498	16.5011904	80.03077344	-2.20015872	-30.3094782
1.56	156	-0.112	-0.877	-0.142	10.599723	8.3651868	16.1574156	80.13390588	-2.34339822	-30.1948866
1.57	157	-0.108	-0.87	-0.147	9.5683986	9.2819196	15.3552744	80.22557916	-2.48090814	-30.080295
1.58	158	-0.086	-0.877	-0.149	8.7662574	10.8289062	14.2093584	80.30579328	-2.60122932	-29.94851466
1.59	159	-0.074	-0.884	-0.138	9.167328	11.745639	13.0061466	80.39173698	-2.71009134	-29.81100474
1.6	160	-0.068	-0.893	-0.122	9.3392154	12.7769634	12.1467096	80.48341026	-2.81895336	-29.66203566
1.61	161	-0.075	-0.897	-0.104	9.0527364	14.1520626	11.8029348	80.56362438	-2.91635622	-29.50160742
1.62	162	-0.1	-0.901	-0.101	8.7662574	16.042824	11.4018642	80.6438385	-3.00229992	-29.32972002
1.63	163	-0.128	-0.901	-0.085	9.8548776	18.1054728	11.0580894	80.7297822	-3.08824362	-29.12918472
1.64	164	-0.14	-0.902	-0.053	11.2872726	20.912967	10.886202	80.82718506	-3.16272816	-28.9057311
1.65	165	-0.135	-0.907	-0.038	12.032118	24.2361234	10.5424272	80.94750624	-3.24867186	-28.6479
1.66	166	-0.116	-0.903	-0.039	11.745639	26.7571386	10.0840608	81.0449091	-3.31169724	-28.36715058
1.67	167	-0.095	-0.895	-0.031	12.1467096	27.3873924	9.453807	81.14804154	-3.36899304	-28.08067158
1.68	168	-0.075	-0.894	-0.023	12.032118	26.9863218	8.8235532	81.25117398	-3.42055926	-27.80565174
1.69	169	-0.072	-0.892	-0.008	12.0894138	25.78311	7.9641162	81.35430642	-3.4663959	-27.53636148
1.7	170	-0.071	-0.894	0.002	12.0894138	24.4653066	6.9327918	81.4746276	-3.50650296	-27.28425996
1.71	171	-0.076	-0.888	0.015	11.8602306	23.6058696	5.3285094	81.57776004	-3.52942128	-27.0436176
1.72	172	-0.081	-0.883	0.018	10.9434978	22.7464326	3.3804522	81.66943332	-3.53515086	-26.8144344
1.73	173	-0.088	-0.88	0.027	10.8289062	22.058883	0.859437	81.76683618	-3.51796212	-26.59098078
1.74	174	-0.094	-0.88	0.03	10.3705398	21.9442914	-1.5469866	81.85277988	-3.47785506	-26.37898632
1.75	175	-0.099	-0.88	0.035	10.2559482	22.1161788	-3.9534102	81.9616419	-3.42055926	-26.16126228
1.76	176	-0.108	-0.883	0.04	10.4278356	22.2880662	-6.2452422	82.05331518	-3.33461556	-25.94926782
1.77	177	-0.129	-0.877	0.05	10.5424272	22.8610242	-8.5370742	82.14498846	-3.22575354	-25.73154378
1.78	178	-0.151	-0.881	0.059	9.5683986	25.6112226	-10.7716104	82.22520258	-3.0939732	-25.496631
1.79	179	-0.15	-0.904	0.045	8.1932994	29.7365202	-12.1467096	82.28822796	-2.93927454	-25.21588158
1.8	180	-0.129	-0.945	0.036	8.021412	33.1169724	-12.5477802	82.36844208	-2.79030546	-24.90075468
1.81	181	-0.113	-0.984	0.021	6.9327918	35.0650296	-12.0894138	82.4200083	-2.6356068	-24.57416862
1.82	182	-0.109	-1.021	0	4.6982556	34.7785506	-11.0580894	82.4486562	-2.48663772	-24.24185298
1.83	183	-0.098	-1.051	-0.047	1.432395	32.8877892	-10.1413566	82.44292662	-2.35485738	-23.93245566
1.84	184	-0.079	-1.076	-0.059	-0.6875496	30.9970278	-9.1100322	82.4200083	-2.2345362	-23.64024708
1.85	185	-0.047	-1.112	-0.03	-1.5469866	30.653253	-7.8495246	82.40281956	-2.1199446	-23.3480385
1.86	186	-0.017	-1.137	-0.011	-2.7501984	31.0543236	-6.302538	82.35698292	-2.02827132	-23.05010034
1.87	187	-0.01	-1.153	0.002	-3.3231564	31.3980984	-4.3544808	82.31114628	-1.95378678	-22.7464326
1.88	188	-0.023	-1.193	0.025	-2.4637194	30.9970278	-0.9740286	82.27103922	-1.90795014	-22.44276486
1.89	189	-0.056	-1.239	0.074	3.4950438	28.6479	3.7815228	82.29395754	-1.91367972	-22.15628586
1.9	190	-0.121	-1.279	0.093	5.2712136	26.5852512	6.9327918	82.34552376	-1.96524594	-21.88126602
1.91	191	-0.173	-1.273	0.093	6.589017	26.5279554	8.7662574	82.39708998	-2.02254174	-21.61197576
1.92	192	-0.195	-1.272	0.106	9.7975818	26.8717302	10.4851314	82.48876326	-2.09702628	-21.33122634
1.93	193	-0.187	-1.322	0.084	11.172681	29.220858	12.9488508	82.58616612	-2.19442914	-21.0275586
1.94	194	-0.145	-1.37	0.012	9.740286	34.663959	15.3552744	82.66638024	-2.30902074	-20.66659506
1.95	195	-0.097	-1.374	-0.044	7.8495246	41.0237928	16.8449652	82.72367604	-2.4350715	-20.23687656
1.96	196	-0.049	-1.553	-0.192	0	52.5975444	20.3973048	82.69502814	-2.58404058	-19.69829604
1.97	197	0.205	-1.975	-0.537	-25.0382646	56.2071798	40.10706	82.40281956	-2.92781538	-19.09669014
1.98	198	0.627	-1.612	-0.746	-25.2674478	36.096354	54.144531	82.12207014	-3.42628884	-18.67270122
1.99	199	0.354	-1.044	-0.632	-9.453807	37.7006364	55.576926	81.9902898	-3.93049188	-18.22579398
2	200	-0.083	-0.796	-0.514	-9.3965112	39.0184398	44.977203	81.82986156	-4.34302164	-17.77315716
2.01	201	-0.207	-0.708	-0.48	-8.6516658	36.2682414	27.7311672	81.7038108	-4.57220484	-17.37781614
2.02	202	-0.256	-0.769	-0.464	-10.3705398	31.9710564	17.0168526	81.56630088	-4.70398518	-17.03977092
2.03	203	-0.231	-0.89	-0.46	-12.4331886	27.6165756	15.0114996	81.41160222	-4.81857678	-16.74756234
2.04	204	-0.146	-0.942	-0.431	-14.2666542	21.6005166	14.896908	81.2454444	-4.94462754	-16.51264956
2.05	205	-0.063	-0.928	-0.358	-14.3812458	14.5531332	10.4851314	81.0449091	-5.01911208	-16.35222132
2.06	206	0.012	-0.971	-0.29	-12.7196676	8.7662574	4.6409598	80.90739918	-5.05348956	-16.26054804
2.07	207	0.069	-1.034	-0.235	-12.3758928	6.3598338	-0.572958	80.77561884	-5.0420304	-16.20325224
2.08	208	0.086	-1.029	-0.211	-13.6936962	7.0473834	-4.4117766	80.63237934	-4.99046418	-16.14022686
2.09	209	0.068	-1.002	-0.206	-13.6364004	10.4851314	-6.8182002	80.48341026	-4.91025006	-16.04855358
2.1	210	0.035	-0.971	-0.208	-13.5218088	13.5791046	-8.9381448	80.32298202	-4.77846972	-15.93969156
2.11	211	-0.004	-0.922	-0.21	-14.4385416	14.1520626	-10.7143146	80.16255378	-4.65814854	-15.81937038
2.12	212	-0.031	-0.879	-0.235	-16.1001198	12.318597	-11.6310474	79.99066638	-4.5263682	-15.72196752
2.13	213	-0.015	-0.842	-0.243	-18.4492476	7.3911582	-11.45916	79.79586066	-4.40604702	-15.6704013
2.14	214	0.016	-0.815	-0.236	-18.621135	1.5469866	-10.7143146	79.60678452	-4.297185	-15.67613088
2.15	215	0.045	-0.796	-0.219	-17.4179232	-2.578311	-10.4278356	79.42343796	-4.17686382	-15.7276971
2.16	216	0.073	-0.787	-0.207	-16.5584862	-4.8128472	-11.0007936	79.25728014	-4.07946096	-15.79645206
2.17	217	0.086	-0.787	-0.2	-15.9855282	-5.6722842	-12.1467096	79.10258148	-3.97059894	-15.87666618
2.18	218	0.084	-0.807	-0.201	-15.5844576	-5.7868758	-12.605076	78.94788282	-3.86173692	-15.9568803
2.19	219	0.079	-0.826	-0.21	-15.9855282	-4.4117766	-12.318597	78.79318416	-3.74714532	-16.02563526
2.2	220	0.071	-0.835	-0.21	-15.0687954	-3.0939732	-11.5737516	78.63275592	-3.61536498	-16.08866064
2.21	221	0.063	-0.844	-0.196	-13.4072172	-2.5210152	-10.9434978	78.50097558	-3.51223254	-16.13449728
2.22	222	0.065	-0.858	-0.178	-11.8029348	-2.0626488	-10.026765	78.3806544	-3.42055926	-16.18033392
2.23	223	0.066	-0.876	-0.169	-10.2559482	-1.6042824	-8.8235532	78.27752196	-3.33461556	-16.2147114
2.24	224	0.068	-0.896	-0.165	-9.3965112	-1.3750992	-6.9900876	78.18584868	-3.27159018	-16.23762972
2.25	225	0.076	-0.911	-0.154	-6.9900876	-1.8907614	-4.9274388	78.12855288	-3.151269	-16.29492552
2.26	226	0.064	-0.931	-0.139	-3.8388186	-2.5210152	-2.9793816	78.08844582	-3.12835068	-16.329303
2.27	227	0.042	-0.941	-0.118	-1.3178034	-2.6929026	-1.3178034	78.07698666	-3.1226211	-16.3579509
2.28	228	0.017	-0.938	-0.1	0.6302538	-2.6356068	0.2291832	78.08271624	-3.12835068	-16.38086922
2.29	229	-0.009	-0.936	-0.086	2.6356068	-1.8907614	1.8907614	78.11136414	-3.151269	-16.39805796
2.3	230	-0.041	-0.937	-0.076	4.010706	-0.286479	3.2085648	78.21449658	-3.17418732	-16.40378754
2.31	231	-0.059	-0.939	-0.075	4.4117766	1.8907614	3.9534102	78.26033322	-3.2085648	-16.37513964
2.32	232	-0.053	-0.936	-0.077	4.0680018	4.4117766	4.5263682	78.2947107	-3.24294228	-16.32357342
2.33	233	-0.039	-0.936	-0.073	4.2398892	5.9587632	4.9847346	78.33481776	-3.28304934	-16.25481846
2.34	234	-0.019	-0.943	-0.068	4.4117766	6.2452422	5.3858052	78.37492482	-3.3231564	-16.18033392
2.35	235	0.006	-0.939	-0.065	4.297185	5.7868758	5.8441716	78.45513894	-3.33461556	-16.1287677
2.36	236	0.038	-0.933	-0.051	4.6409598	4.583664	6.1879464	78.50097558	-3.38618178	-16.0714719
2.37	237	0.071	-0.927	-0.035	6.016059	1.8907614	6.302538	78.55827138	-3.44347758	-16.042824
2.38	238	0.092	-0.912	-0.026	7.2192708	-2.4637194	6.6463128	78.63275592	-3.51223254	-16.05428316
2.39	239	0.102	-0.899	-0.03	8.59437	-7.6203414	6.9900876	78.7244292	-3.59244666	-16.11157896
2.4	240	0.101	-0.894	-0.026	10.7143146	-12.7196676	7.2192708	78.8676687	-3.64401288	-16.23762972
2.41	241	0.093	-0.898	-0.013	13.3499214	-17.9335854	7.3338624	79.01663778	-3.74714532	-16.39805796
2.42	242	0.075	-0.905	-0.007	15.4125702	-23.3193906	7.5630456	79.18852518	-3.85600734	-16.61005242
2.43	243	0.044	-0.919	0	16.7876694	-28.3041252	7.9641162	79.3833309	-3.97632852	-16.8736131
2.44	244	0.003	-0.949	0.002	17.4179232	-31.1116194	8.3651868	79.5838662	-4.10237928	-17.1600921
2.45	245	-0.031	-0.989	0.001	16.2147114	-29.6792244	7.734933	79.79586066	-4.21697088	-17.44084152
2.46	246	-0.044	-1.032	-0.016	12.5477802	-23.204799	6.016059	79.94482974	-4.30864416	-17.65856556
2.47	247	-0.06	-1.067	-0.044	7.9641162	-17.0168526	3.8961144	80.03650302	-4.37166954	-17.81326422
2.48	248	-0.111	-1.102	-0.045	4.4690724	-13.6364004	1.8907614	80.09379882	-4.40604702	-17.94504456
2.49	249	-0.168	-1.129	-0.022	1.2605076	-13.1207382	1.0313244	80.12244672	-4.4404245	-18.07109532
2.5	250	-0.161	-1.112	-0.008	-2.6929026	-13.8082878	1.6042824	80.14536504	-4.48626114	-18.20287566
2.51	251	-0.102	-1.095	-0.03	-5.6722842	-14.8396122	1.8907614	80.0995284	-4.5263682	-18.34611516
2.52	252	-0.041	-1.137	-0.032	-4.297185	-15.0114996	0.0572958	80.06515092	-4.54928652	-18.49508424
2.53	253	0.007	-1.209	-0.019	0.7448454	-14.7823164	-4.7555514	80.08806924	-4.5263682	-18.6497829
2.54	254	0.038	-1.246	-0.029	4.4117766	-12.4904844	-10.313244	80.14536504	-4.4404245	-18.78729282
2.55	255	0.05	-1.256	-0.065	5.3858052	-8.7089616	-14.896908	80.21984958	-4.29145542	-18.907614
2.56	256	0.038	-1.241	-0.097	5.3285094	-5.2712136	-17.5325148	80.28287496	-4.1252976	-18.98782812
2.57	257	0.01	-1.212	-0.149	4.6409598	-2.8074942	-18.334656	80.33444118	-3.94768062	-19.04512392
2.58	258	-0.016	-1.186	-0.208	1.9480572	-2.005353	-17.6471064	80.3573595	-3.7815228	-19.09096056
2.59	259	-0.011	-1.173	-0.234	-1.3750992	-3.724227	-15.6417534	80.34590034	-3.63255372	-19.15398594
2.6	260	0.023	-1.187	-0.298	-6.7609044	-8.7662574	-13.1207382	80.2714158	-3.50077338	-19.26857754
2.61	261	0.045	-1.177	-0.399	-14.2666542	-13.2926256	-11.0007936	80.13963546	-3.41482968	-19.41754662
2.62	262	0.061	-1.107	-0.493	-15.4125702	-17.0741484	-10.7143146	79.99639596	-3.33461556	-19.60089318
2.63	263	0.054	-1.03	-0.529	-13.750992	-21.3713334	-12.4904844	79.8703452	-3.24867186	-19.83580596
2.64	264	0.044	-0.953	-0.54	-15.1260912	-25.9549974	-14.0947668	79.73856486	-3.151269	-20.11655538
2.65	265	0.068	-0.9	-0.532	-17.8189938	-31.51269	-13.1207382	79.53802956	-3.05386614	-20.4546006
2.66	266	0.092	-0.868	-0.514	-19.8816426	-37.24227	-10.1986524	79.36041258	-3.01375908	-20.83848246
2.67	267	0.064	-0.829	-0.475	-20.5118964	-43.3156248	-7.1046792	79.1827956	-3.01375908	-21.27393054
2.68	268	0.01	-0.817	-0.377	-20.8556712	-48.3003594	-4.6409598	78.99944904	-3.04813656	-21.76094484
2.69	269	-0.05	-0.874	-0.317	-25.210152	-50.6494872	-2.6356068	78.77599542	-3.10543236	-22.2594183
2.7	270	-0.098	-0.978	-0.298	-29.220858	-49.2170922	-2.4637194	78.50670516	-3.17418732	-22.7464326
2.71	271	-0.142	-1.065	-0.296	-31.5699858	-44.8626114	-2.9220858	78.21449658	-3.22575354	-23.19333984
2.72	272	-0.124	-1.136	-0.322	-33.7472262	-38.8465524	-1.8907614	77.89936968	-3.27731976	-23.5772217
2.73	273	-0.078	-1.162	-0.359	-37.5860448	-34.2628884	0.3437748	77.54413572	-3.34607472	-23.91526692
2.74	274	-0.025	-1.132	-0.332	-36.8411994	-31.9137606	2.7501984	77.19463134	-3.437748	-24.22466424
2.75	275	-0.016	-1.066	-0.308	-37.7579322	-30.2521824	3.2085648	76.82220864	-3.52942128	-24.51687282
2.76	276	-0.042	-1.006	-0.295	-38.0444112	-29.6219286	2.6929026	76.45551552	-3.61536498	-24.79762224
2.77	277	-0.076	-0.962	-0.271	-37.4714532	-29.2781538	2.2345362	76.10028156	-3.70130868	-25.08410124
2.78	278	-0.09	-0.931	-0.234	-35.4661002	-29.6219286	1.9480572	75.76223634	-3.79298196	-25.36485066
2.79	279	-0.099	-0.919	-0.197	-33.6326346	-30.7105488	2.3491278	75.44710944	-3.88465524	-25.66278882
2.8	280	-0.109	-0.911	-0.172	-33.0596766	-31.799169	3.0366774	75.13771212	-3.99351726	-25.96072698
2.81	281	-0.112	-0.904	-0.14	-33.1169724	-32.2002396	3.724227	74.8283148	-4.10810886	-26.26439472
2.82	282	-0.119	-0.878	-0.121	-32.0283522	-32.945085	3.8961144	74.53037664	-4.22843004	-26.57379204
2.83	283	-0.15	-0.854	-0.116	-30.3094782	-32.945085	3.6096354	74.24962722	-4.34302164	-26.88891894
2.84	284	-0.187	-0.838	-0.126	-30.080295	-32.658606	3.437748	73.97460738	-4.46334282	-27.19258668
2.85	285	-0.23	-0.855	-0.145	-28.7624916	-30.7678446	3.0366774	73.71677628	-4.59512316	-27.4733361
2.86	286	-0.235	-0.883	-0.142	-26.8717302	-27.6165756	3.2085648	73.47040434	-4.6982556	-27.73689678
2.87	287	-0.232	-0.883	-0.142	-24.923673	-24.1788276	2.6929026	73.24122114	-4.78992888	-27.9603504
2.88	288	-0.235	-0.862	-0.14	-22.7464326	-19.9389384	2.0626488	73.0234971	-4.86441342	-28.14942654
2.89	289	-0.242	-0.835	-0.148	-18.2773602	-15.0687954	1.6615782	72.85733928	-4.92170922	-28.28693646
2.9	290	-0.252	-0.803	-0.136	-12.7769634	-11.0007936	1.3178034	72.75993642	-5.01911208	-28.37288016
2.91	291	-0.263	-0.784	-0.094	-6.875496	-6.7036086	0.859437	72.69691104	-5.04775998	-28.43590554
2.92	292	-0.278	-0.767	-0.083	-2.1772404	-1.6615782	-0.4010706	72.67399272	-5.04775998	-28.45309428
2.93	293	-0.293	-0.746	-0.074	2.8074942	3.3231564	-2.6929026	72.70264062	-5.0133825	-28.43017596
2.94	294	-0.281	-0.756	-0.057	8.9381448	9.3965112	-4.6982556	72.78285474	-4.93889796	-28.35569142
2.95	295	-0.242	-0.78	-0.034	12.7196676	12.9488508	-5.6149884	72.93182382	-4.88160216	-28.23537024
2.96	296	-0.187	-0.814	-0.04	14.3812458	15.3552744	-5.8441716	73.06360416	-4.7841993	-28.1035899
2.97	297	-0.134	-0.858	-0.013	15.2979786	16.1001198	-5.3858052	73.20684366	-4.69252602	-27.96607998
2.98	298	-0.093	-0.932	-0.001	12.7196676	17.3606274	-4.8128472	73.32143526	-4.59512316	-27.81138132
2.99	299	-0.05	-1.038	-0.111	5.0993262	21.9442914	-3.6669312	73.35581274	-4.50344988	-27.61084602
3	300	-0.011	-1.12	-0.208	-0.9167328	24.0069402	-0.572958	73.338624	-4.41750618	-27.3873924
3.01	301	0.004	-1.122	-0.217	-1.8907614	22.4026578	3.8388186	73.29851694	-4.40031744	-27.16393878
3.02	302	-0.034	-1.005	-0.152	-2.3491278	20.6837838	5.156622	73.2526803	-4.39458786	-26.95194432
3.03	303	-0.091	-0.931	-0.186	-5.6722842	21.9442914	3.0366774	73.17819576	-4.36593996	-26.73422028
3.04	304	-0.11	-0.908	-0.22	-4.3544808	22.058883	0.0572958	73.11517038	-4.31437374	-26.52222582
3.05	305	-0.13	-0.85	-0.236	-3.0366774	21.9442914	-1.7761698	73.06360416	-4.25707794	-26.31023136
3.06	306	-0.109	-0.832	-0.234	-4.0680018	21.485925	-1.718874	73.00630836	-4.1825934	-26.10969606
3.07	307	-0.013	-0.908	-0.283	-6.4744254	18.907614	1.0886202	72.92609424	-4.14821592	-25.9263495
3.08	308	0.095	-0.952	-0.394	-9.740286	13.6936962	6.2452422	72.81150264	-4.17113424	-25.77738042
3.09	309	0.144	-0.863	-0.395	-6.7036086	5.6149884	12.4904844	72.7370181	-4.27426668	-25.69143672
3.1	310	0.104	-0.736	-0.242	2.4064236	-6.6463128	15.469866	72.75993642	-4.41750618	-25.71435504
3.11	311	-0.006	-0.631	-0.187	4.8128472	-12.318597	14.2666542	72.81723222	-4.58939358	-25.78883958
3.12	312	-0.104	-0.562	-0.073	14.7250206	-16.1574156	12.0894138	72.97766046	-4.74409224	-25.90916076
3.13	313	-0.207	-0.597	-0.023	23.204799	-17.7044022	9.6256944	73.22976198	-4.87587258	-26.04667068
3.14	314	-0.279	-0.629	-0.026	26.1841806	-14.9542038	7.5057498	73.5105114	-4.9847346	-26.16699186
3.15	315	-0.284	-0.696	0.048	32.5440144	-12.3758928	6.302538	73.87720452	-5.10505578	-26.25866514
3.16	316	-0.202	-0.766	0.079	37.0130868	-7.734933	4.6982556	74.26108638	-5.16235158	-26.31596094
3.17	317	-0.128	-0.754	0.079	41.0810886	-2.6929026	1.7761698	74.67934572	-5.1852699	-26.33314968
3.18	318	-0.097	-0.731	0.075	45.3209778	2.9220858	-0.4010706	75.13771212	-5.16808116	-26.30450178
3.19	319	-0.074	-0.743	0.022	46.7533728	7.2192708	-0.7448454	75.60753768	-5.13943326	-26.23001724
3.2	320	-0.062	-0.749	-0.054	46.5241896	10.6570188	-0.4583664	76.07736324	-5.10505578	-26.1268848
3.21	321	-0.071	-0.74	-0.077	47.3836266	12.7769634	0.3437748	76.5471888	-5.07640788	-25.99510446
3.22	322	-0.07	-0.72	-0.086	47.6701056	16.4438946	0.4583664	77.01128478	-5.0420304	-25.82894664
3.23	323	-0.05	-0.69	-0.087	47.0398518	21.1421502	-0.1145916	77.46965118	-4.99619376	-25.62268176
3.24	324	-0.012	-0.672	-0.092	46.7533728	25.8977016	-0.572958	77.91655842	-4.93889796	-25.36485066
3.25	325	0.026	-0.662	-0.101	46.409598	28.9916748	0	78.36346566	-4.87587258	-25.08410124
3.26	326	0.058	-0.66	-0.078	46.5241896	30.3094782	2.1772404	78.80464332	-4.8414951	-24.77470392
3.27	327	0.078	-0.655	-0.026	48.3003594	29.507337	4.583664	79.26300972	-4.83576552	-24.47103618
3.28	328	0.075	-0.647	0.033	49.7327544	27.788463	6.302538	79.74429444	-4.84722468	-24.18455718
3.29	329	0.064	-0.663	0.078	50.1911208	25.8977016	7.5057498	80.22557916	-4.87587258	-23.90953734
3.3	330	0.079	-0.699	0.085	50.133825	24.2934192	8.6516658	80.72405262	-4.91025006	-23.65743582
3.31	331	0.114	-0.725	0.071	51.6235158	21.2567418	9.8548776	81.22252608	-4.97327544	-23.42825262
3.32	332	0.144	-0.735	0.066	55.2331512	15.9855282	9.740286	81.76683618	-5.04775998	-23.25063564
3.33	333	0.157	-0.75	0.052	57.2958	9.1100322	7.2192708	82.33979418	-5.0993262	-23.1475032
3.34	334	0.16	-0.759	0.024	51.6808116	1.6615782	3.2085648	82.86118596	-5.1279741	-23.1188553
3.35	335	0.176	-0.717	-0.002	39.4195104	-5.443101	-0.572958	83.27371572	-5.08786704	-23.18188068
3.36	336	0.178	-0.634	-0.066	29.507337	-14.2666542	-3.6096354	83.58311304	-5.05921914	-23.32512018
3.37	337	0.148	-0.553	-0.162	17.9908812	-24.064236	-5.2712136	83.7951075	-5.02484166	-23.56576254
3.38	338	0.136	-0.464	-0.274	6.589017	-33.0596766	-4.870143	83.89251036	-5.00192334	-23.89807818
3.39	339	0.131	-0.391	-0.37	0.4010706	-39.7059894	-3.6096354	83.938347	-4.99619376	-24.2934192
3.4	340	0.103	-0.353	-0.361	-2.5210152	-44.2323576	-2.578311	83.93261742	-4.99619376	-24.73459686
3.41	341	0.089	-0.343	-0.265	-4.297185	-48.5295426	-1.2032118	83.938347	-5.01911208	-25.22161116
3.42	342	0.08	-0.369	-0.161	-8.0787078	-52.5402486	0.1145916	83.9096991	-5.06494872	-25.73727336
3.43	343	0.074	-0.361	-0.088	-11.6883432	-53.7434604	1.3178034	83.84094414	-5.12224452	-26.2701243
3.44	344	0.097	-0.441	-0.074	-14.2666542	-56.0925882	4.010706	83.75500044	-5.20818822	-26.82589356
3.45	345	0.064	-0.642	0.232	-18.7357266	-63.3691548	8.4797784	83.66905674	-5.33423898	-27.45041778
3.46	346	-0.088	-0.977	0.514	-28.2468294	-80.787078	14.8396122	83.46852144	-5.55196302	-28.23537024
3.47	347	-0.366	-1.846	0.41	-39.247623	-69.9581718	15.756345	83.14766496	-5.77541664	-28.91146068
3.48	348	-0.635	-2.663	-0.175	-105.137793	-28.7051958	4.7555514	82.11061098	-5.85563076	-29.20366926
3.49	349	-0.701	-2.422	-0.719	-141.6925134	2.1772404	-6.875496	80.6724864	-5.79833496	-29.20366926
3.5	350	-0.569	-2.202	-0.989	-145.817811	28.0176462	-7.9641162	79.16560686	-5.69520252	-28.95729732
3.51	351	-0.431	-2.33	-1.148	-155.0424348	31.9710564	-7.0473834	77.55559488	-5.5863405	-28.6765479
3.52	352	-0.288	-2.472	-1.285	-161.5168602	27.501984	-3.6669312	75.8882871	-5.51185596	-28.43017596
3.53	353	-0.167	-2.473	-1.295	-156.8759004	28.6479	2.86479	74.26681596	-5.49466722	-28.1608857
3.54	354	-0.165	-2.506	-1.149	-156.6467172	30.7678446	5.6722842	72.64534482	-5.48893764	-27.86294754
3.55	355	-0.175	-2.522	-0.954	-161.1157896	24.064236	2.86479	70.98376662	-5.46601932	-27.63376434
3.56	356	-0.244	-2.465	-0.706	-172.9760202	16.7303736	-1.0313244	69.2133264	-5.42018268	-27.49625442
3.57	357	-0.346	-2.317	-0.502	-186.8988996	19.0222056	-6.589017	67.29964668	-5.31705024	-27.3587445
3.58	358	-0.389	-2.099	-0.385	-199.2747924	25.5539268	-8.4797784	65.2599162	-5.16808116	-27.16966836
3.59	359	-0.314	-1.787	-0.31	-203.2282026	31.1116194	-9.6256944	63.17434908	-4.97900502	-26.94621474
3.6	360	-0.203	-1.499	-0.228	-202.540653	35.0077338	-8.7662574	61.10024112	-4.77846972	-26.68838364
3.61	361	-0.12	-1.243	-0.19	-202.827132	35.9817624	-5.3285094	59.00894442	-4.58939358	-26.4133638
3.62	362	-0.029	-1.03	-0.151	-200.7644832	37.8725238	-4.1252976	56.94629562	-4.38885828	-26.12115522
3.63	363	-0.028	-0.839	-0.122	-196.8683688	40.0497642	-5.0993262	54.9180243	-4.15967508	-25.82321706
3.64	364	-0.065	-0.663	-0.082	-192.227409	43.4875122	-5.7868758	52.9413192	-3.8961144	-25.50809016
3.65	365	-0.102	-0.497	-0.067	-187.5291534	45.2063862	-6.875496	51.0219099	-3.60390582	-25.19869284
3.66	366	-0.134	-0.382	-0.019	-178.762896	46.2377106	-7.448454	49.18271472	-3.28877892	-24.8950251
3.67	367	-0.129	-0.288	0.036	-175.7262186	45.3209778	-6.1306506	47.37789702	-2.9793816	-24.59708694
3.68	368	-0.095	-0.25	0.016	-174.75219	44.1750618	-4.5263682	45.58453848	-2.68144344	-24.30487836
3.69	369	-0.096	-0.218	0.036	-172.0592874	43.7739912	-5.156622	43.81982784	-2.36631654	-24.0355881
3.7	370	-0.071	-0.192	0.057	-168.1058772	43.3156248	-7.448454	42.112413	-2.03973048	-23.78921616
3.71	371	-0.032	-0.136	0.074	-164.2097628	42.6280752	-11.172681	40.43364606	-1.67876694	-23.58868086
3.72	372	0.015	-0.115	0.12	-159.1104366	38.9038482	-15.4125702	38.80644534	-1.31207382	-23.45690052
3.73	373	0.051	-0.116	0.098	-161.8033392	33.2888598	-18.7357266	37.1563263	-0.96829902	-23.39387514
3.74	374	0.063	-0.11	0.125	-160.42824	27.1582092	-22.1161788	35.52912558	-0.64744254	-23.4053343
3.75	375	0.047	-0.127	0.093	-159.4542114	20.8556712	-21.0275586	33.9191136	-0.37815228	-23.45690052
3.76	376	0.02	-0.101	0.138	-153.9538146	14.037471	-18.048177	32.35493826	-0.18907614	-23.52565548
3.77	377	0.003	-0.092	0.205	-150.1722918	7.161975	-14.1520626	30.83086998	-0.07448454	-23.6058696
3.78	378	-0.005	-0.079	0.193	-146.963727	0.6302538	-12.0894138	29.3354496	-0.0286479	-23.70327246
3.79	379	-0.04	-0.069	0.186	-143.4113874	-2.8074942	-12.7196676	27.88013628	-0.01145916	-23.82359364
3.8	380	-0.077	-0.054	0.205	-137.3380326	-3.5523396	-14.4958374	26.4993075	-0.00572958	-23.96683314
3.81	381	-0.085	-0.056	0.225	-132.353298	-4.297185	-16.2147114	25.1528562	0.00572958	-24.12726138
3.82	382	-0.091	-0.08	0.051	-129.5458038	-4.0680018	-17.1314442	23.84078238	0.02291832	-24.29914878
3.83	383	-0.12	-0.09	-0.141	-124.045407	-1.3750992	-18.048177	22.58027478	0.06302538	-24.4653066
3.84	384	-0.065	-0.061	-0.38	-110.9246688	-4.1252976	-19.6524594	21.4572771	0.08021412	-24.66011232
3.85	385	0.146	-0.052	-0.497	-94.4807742	-15.9855282	-20.8556712	20.48897808	0.01718874	-24.91221384
3.86	386	0.546	-0.079	-0.679	-86.6312496	-32.2575354	-14.8396122	19.61235234	-0.23491278	-25.17004494
3.87	387	0.914	-0.08	-1.083	-79.8703452	-51.2224452	-0.8021412	18.81021114	-0.7161975	-25.3533915
3.88	388	0.966	0.157	-1.146	-63.8275212	-69.9581718	10.886202	18.17422776	-1.40947668	-25.48517184
3.89	389	0.501	0.459	-1.133	-51.4516284	-81.7611066	7.734933	17.67002472	-2.20015872	-25.67997756
3.9	390	-0.226	0.626	-1.21	-62.165943	-60.7908438	-3.9534102	17.03404134	-2.7788463	-25.90343118
3.91	391	-0.913	0.648	-1.151	-70.7030172	-30.0229992	-16.615782	16.33503258	-3.01948866	-26.1555327
3.92	392	-1.107	0.366	-1.189	-75.057498	7.3338624	-22.058883	15.57872802	-2.89916748	-26.33887926
3.93	393	-0.691	0.234	-1.38	-62.2805346	24.2361234	-18.7357266	14.94847422	-2.62987722	-26.44774128
3.94	394	-0.211	0.147	-1.338	-56.8947294	31.5699858	-7.2765666	14.36405706	-2.3204799	-26.42482296
3.95	395	0.059	0.303	-1.213	-54.6601932	27.3873924	6.016059	13.76245116	-2.07410796	-26.29304262
3.96	396	-0.012	0.434	-1.088	-50.5348956	24.2361234	17.8762896	13.24105938	-1.8907614	-26.05812984
3.97	397	-0.312	0.603	-1.098	-45.9512316	24.1215318	15.183387	12.76550424	-1.69595568	-25.84613538
3.98	398	-0.246	0.507	-1.084	-30.8824362	33.231564	1.8334656	12.44464776	-1.38655836	-25.74873252
3.99	399	0.201	0.212	-0.964	-33.1169724	49.847346	-12.7769634	12.10087296	-0.8880849	-25.74873252
4	400	0.252	0.017	-1.317	-57.009321	53.9726436	-28.2468294	11.51072622	-0.30939732	-25.8977016
4.01	401	0.067	0.103	-2.275	-98.262297	49.0452048	-40.4508348	10.50232014	0.22345362	-26.1841806
4.02	402	0.326	0.482	-3.444	-135.4472712	50.3630082	-38.674665	9.12149136	0.75630456	-26.45347086
4.03	403	0.721	1.287	-3.996	-112.586247	35.809875	-27.6165756	7.96984578	1.13445684	-26.65400616
4.04	404	0.615	0.787	-3.75	-126.4518306	40.1643558	4.9274388	6.68069028	1.50687954	-26.53368498
4.05	405	0.304	0.217	-2.831	-137.7391032	17.3033316	7.6203414	5.28267276	1.65011904	-26.43055254
4.06	406	-0.202	0.439	-2.417	-154.2975894	9.9694692	-1.432395	3.71849742	1.73033316	-26.41909338
4.07	407	-0.184	0.483	-2.176	-126.8529012	9.7975818	-8.9381448	2.42361234	1.81627686	-26.49357792
4.08	408	-0.104	0.211	-1.858	-107.429625	14.1520626	-8.4224826	1.32926256	1.9480572	-26.56233288
4.09	409	-0.006	0.108	-1.414	-93.9078162	13.178034	-6.7036086	0.3724227	2.06837838	-26.6138991
4.1	410	0.034	0.25	-1.135	-86.7458412	15.183387	-12.6623718	-0.52712136	2.2058883	-26.7284907
4.11	411	0.029	0.244	-0.917	-74.8856106	20.2827132	-19.767051	-1.29488508	2.40069402	-26.91756684
4.12	412	0.038	0.153	-0.794	-64.744254	25.78311	-20.2827132	-1.96524594	2.64133638	-27.11237256
4.13	413	0.104	0.13	-0.798	-52.998615	29.7365202	-14.32395	-2.51528562	2.9220858	-27.25561206
4.14	414	0.149	0.185	-0.862	-43.0291458	29.793816	-6.2452422	-2.96219286	3.2085648	-27.31863744
4.15	415	0.134	0.364	-0.917	-40.393539	29.0489706	-2.4064236	-3.42628884	3.50077338	-27.3587445
4.16	416	0.145	0.486	-0.943	-36.8411994	28.2468294	-2.1199446	-3.80444112	3.77579322	-27.38166282
4.17	417	0.166	0.438	-0.992	-33.518043	28.5906042	-2.578311	-4.1539455	4.05081306	-27.42176988
4.18	418	0.198	0.353	-1.076	-28.8197874	28.074942	-2.6356068	-4.45188366	4.3258329	-27.45614736
4.19	419	0.227	0.292	-1.071	-23.5485738	25.0382646	-1.4896908	-4.69252602	4.57220484	-27.48479526
4.2	420	0.231	0.255	-1.059	-16.7303736	20.9702628	0.4583664	-4.90452048	4.80138804	-27.49625442
4.21	421	0.222	0.272	-1.038	-10.886202	16.4438946	1.6615782	-5.0133825	4.96754586	-27.49052484
4.22	422	0.174	0.322	-0.939	-5.2712136	9.9694692	2.578311	-5.0706783	5.06494872	-27.4733361
4.23	423	0.146	0.354	-0.864	-2.1772404	5.5003968	4.1825934	-5.08786704	5.12224452	-27.43322904
4.24	424	0.135	0.394	-0.802	-0.1718874	2.578311	5.2712136	-5.08786704	5.156622	-27.38166282
4.25	425	0.132	0.432	-0.765	1.2032118	-0.2291832	5.2139178	-5.35142772	5.20245864	-27.37020366
4.26	426	0.135	0.432	-0.765	2.86479	-1.6042824	4.8128472	-5.31705024	5.19099948	-27.32436702
4.27	427	0.146	0.395	-0.761	4.1825934	-3.151269	4.6982556	-5.2712136	5.16235158	-27.2728008
4.28	428	0.155	0.348	-0.81	5.72958	-4.5263682	4.6409598	-5.20818822	5.12224452	-27.22696416
4.29	429	0.157	0.309	-0.857	9.3965112	-5.72958	4.9274388	-5.10505578	5.0706783	-27.17539794
4.3	430	0.148	0.273	-0.877	13.9228794	-7.5630456	5.156622	-5.02484166	5.02484166	-27.13529088
4.31	431	0.147	0.26	-0.92	16.2147114	-8.2505952	5.443101	-4.85295426	4.95035712	-27.0722655
4.32	432	0.165	0.263	-0.988	17.3606274	-8.880849	5.443101	-4.6696077	4.870143	-27.0149697
4.33	433	0.185	0.249	-1.038	16.3865988	-9.740286	5.9014674	-4.4977203	4.77846972	-26.9576739
4.34	434	0.188	0.217	-1.1	14.4958374	-10.0840608	6.9327918	-4.34302164	4.68679644	-26.88318936
4.35	435	0.171	0.178	-1.155	13.750992	-10.6570188	7.8495246	-4.20551172	4.59512316	-26.80297524
4.36	436	0.151	0.133	-1.152	13.1207382	-9.7975818	8.1932994	-4.0680018	4.50344988	-26.71703154
4.37	437	0.116	0.105	-1.147	10.0840608	-9.1100322	8.021412	-3.9534102	4.42323576	-26.63681742
4.38	438	0.094	0.093	-1.159	6.2452422	-8.0787078	7.3338624	-3.88465524	4.34875122	-26.56233288
4.39	439	0.078	0.076	-1.125	1.5469866	-8.2505952	7.161975	-3.86173692	4.2685371	-26.48784834
4.4	440	0.057	0.059	-1.122	-4.1825934	-8.4797784	6.5317212	-3.8961144	4.17686382	-26.4133638
4.41	441	0.047	0.033	-1.112	-10.0840608	-6.875496	5.443101	-3.99351726	4.11383844	-26.356068
4.42	442	0.063	0.011	-1.071	-15.1260912	-3.7815228	4.9274388	-4.14248634	4.07373138	-26.30450178
4.43	443	0.08	0.017	-0.996	-17.6471064	-5.9014674	4.3544808	-4.32010332	4.01643558	-26.25293556
4.44	444	0.097	0.061	-0.918	-16.2147114	-7.161975	3.5523396	-4.48053156	3.94768062	-26.2128285
4.45	445	0.1	0.116	-0.845	-13.8655836	-7.6776372	2.6929026	-4.64668938	3.88465524	-26.18991018
4.46	446	0.08	0.165	-0.865	-13.5218088	-6.5317212	1.8907614	-4.77846972	3.82162986	-26.16699186
4.47	447	0.064	0.156	-0.939	-17.7044022	-3.3231564	0.6302538	-4.9560867	3.78725238	-26.1555327
4.48	448	0.053	0.042	-1.043	-28.3041252	4.8128472	-0.286479	-5.24829528	3.82735944	-26.1555327
4.49	449	0.132	-0.063	-1.181	-40.7946096	5.443101	0.1145916	-5.66082504	3.87892566	-26.1555327
4.5	450	0.106	-0.159	-1.159	-46.696077	1.2032118	2.0626488	-6.1020027	3.89038482	-26.1268848
4.51	451	0.086	-0.086	-1.01	-35.1796212	-3.2085648	4.583664	-6.45723666	3.85600734	-26.07531858
4.52	452	0.05	0.041	-0.803	-20.7983754	-8.1932994	7.2192708	-6.66350154	3.7815228	-25.99510446
4.53	453	0.008	0.124	-0.722	-20.1681216	-8.4797784	6.9327918	-6.85830726	3.70703826	-25.92061992
4.54	454	-0.033	0.11	-0.688	-20.5118964	-8.3651868	3.151269	-7.06457214	3.62682414	-25.87478328
4.55	455	-0.009	0.044	-0.64	-19.8816426	-8.307891	-1.3750992	-7.25937786	3.52942128	-25.88051286
4.56	456	-0.024	-0.001	-0.639	-12.2040054	-6.4171296	-5.0420304	-7.38542862	3.46066632	-25.92061992
4.57	457	0.002	-0.061	-0.74	-2.8074942	-1.3750992	-6.4744254	-7.4198061	3.437748	-25.9836453
4.58	458	0.063	-0.067	-0.881	0.9740286	2.4637194	-5.156622	-7.41407652	3.45493674	-26.03521152
4.59	459	0.072	-0.031	-1	1.4896908	1.6042824	-2.6356068	-7.40261736	3.4663959	-26.06385942
4.6	460	0.083	0.025	-1.132	2.4064236	-0.8021412	0.4010706	-7.35105114	3.4663959	-26.05812984
4.61	461	0.124	0.063	-1.214	5.0993262	-1.718874	3.2658606	-7.29948492	3.45493674	-26.02948194
4.62	462	0.156	0.067	-1.26	5.7868758	-0.9167328	4.010706	-7.23645954	3.44920716	-25.9836453
4.63	463	0.16	0.078	-1.279	3.2085648	-0.5156622	3.3804522	-7.20208206	3.44920716	-25.9549974
4.64	464	0.152	0.107	-1.244	0.1718874	-1.4896908	1.2605076	-7.20208206	3.437748	-25.93780866
4.65	465	0.125	0.142	-1.137	-2.2345362	-3.2658606	-1.3178034	-7.24218912	3.42055926	-25.9549974
4.66	466	0.086	0.166	-1.053	-2.5210152	-1.3750992	-2.9220858	-7.27083702	3.40337052	-25.9836453
4.67	467	0.063	0.167	-0.995	-3.5523396	2.7501984	-2.9220858	-7.3052145	3.42628884	-26.0122932
4.68	468	0.048	0.158	-0.948	-4.8128472	5.0420304	-1.6042824	-7.35678072	3.47785506	-26.03521152
4.69	469	0.037	0.152	-0.92	-6.6463128	6.7609044	-0.1145916	-7.42553568	3.54088044	-26.0409411
4.7	470	0.044	0.151	-0.899	-8.2505952	9.3965112	0.2291832	-7.5343977	3.62682414	-26.04667068
4.71	471	0.074	0.161	-0.874	-7.6776372	11.0580894	-0.4010706	-7.61461182	3.73568616	-26.06385942
4.72	472	0.1	0.188	-0.866	-4.870143	10.9434978	-1.2032118	-7.66617804	3.8388186	-26.08677774
4.73	473	0.103	0.228	-0.872	-1.2605076	6.9327918	-1.7761698	-7.68336678	3.90757356	-26.10969606
4.74	474	0.089	0.258	-0.906	-0.5156622	3.3231564	-1.8334656	-7.69482594	3.93622146	-26.13261438
4.75	475	0.07	0.251	-0.938	-2.5210152	1.8334656	-1.718874	-7.89536124	3.93049188	-26.16126228
4.76	476	0.046	0.23	-0.965	-5.8441716	1.145916	-1.6042824	-7.95265704	3.94195104	-26.17845102
4.77	477	0.041	0.221	-0.99	-7.0473834	1.6615782	-1.6615782	-8.02714158	3.9534102	-26.19563976
4.78	478	0.062	0.21	-1.001	-3.9534102	1.3750992	-2.291832	-8.06724864	3.96486936	-26.21855808
4.79	479	0.083	0.19	-0.957	-3.3804522	-1.2605076	-3.437748	-8.1073557	3.94768062	-26.25293556
4.8	480	0.09	0.183	-0.945	-4.297185	-2.578311	-3.724227	-8.21048814	3.93622146	-26.29304262
4.81	481	0.098	0.179	-0.964	-3.8388186	-1.432395	-2.6356068	-8.2505952	3.91903272	-26.32169052
4.82	482	0.099	0.185	-0.978	-4.1252976	-0.0572958	-0.859437	-8.29643184	3.91330314	-26.3274201
4.83	483	0.094	0.193	-0.985	-3.3804522	1.6615782	0.286479	-8.33080932	3.93049188	-26.3274201
4.84	484	0.09	0.189	-0.986	-1.9480572	3.3231564	0.9167328	-8.34799806	3.96486936	-26.32169052
4.85	485	0.096	0.179	-0.987	-1.5469866	4.5263682	1.2605076	-8.42821218	4.0393539	-26.3274201
4.86	486	0.1	0.18	-0.994	-0.8021412	4.8128472	1.3178034	-8.43394176	4.08519054	-26.31596094
4.87	487	0.103	0.179	-1.003	0.572958	4.4117766	1.2605076	-8.42821218	4.13102718	-26.31023136
4.88	488	0.098	0.175	-1.008	1.8334656	4.4117766	0.859437	-8.41102344	4.17686382	-26.30450178
4.89	489	0.093	0.168	-1.003	2.7501984	3.9534102	0.572958	-8.38237554	4.21697088	-26.30450178
4.9	490	0.087	0.16	-0.997	2.6929026	3.3804522	0.5156622	-8.3938347	4.25134836	-26.31023136
4.91	491	0.082	0.154	-0.997	2.5210152	3.3804522	0.4010706	-8.3651868	4.28572584	-26.31023136
4.92	492	0.082	0.154	-0.996	2.3491278	3.6096354	0.0572958	-8.34226848	4.3258329	-26.31023136
4.93	493	0.086	0.153	-0.991	2.3491278	3.8388186	-0.8021412	-8.32507974	4.36021038	-26.3274201
4.94	494	0.087	0.148	-0.978	2.86479	3.6669312	-1.6615782	-8.29643184	4.39458786	-26.34460884
4.95	495	0.088	0.145	-0.96	3.5523396	3.437748	-2.1199446	-8.28497268	4.42896534	-26.37898632
4.96	496	0.09	0.144	-0.947	4.0680018	3.5523396	-2.2345362	-8.24486562	4.46334282	-26.40190464
4.97	497	0.096	0.143	-0.938	4.3544808	3.5523396	-2.005353	-8.20475856	4.4977203	-26.42482296
4.98	498	0.098	0.142	-0.93	4.1252976	3.0939732	-1.718874	-8.1646515	4.5263682	-26.44774128
4.99	499	0.097	0.139	-0.926	3.724227	2.0626488	-1.3178034	-8.13027402	4.54355694	-26.46493002
5	500	0.09	0.138	-0.932	3.3231564	0.6875496	-0.8021412	-8.14173318	4.54928652	-26.47638918
5.01	501	0.082	0.143	-0.951	2.9220858	0.0572958	-0.4010706	-8.1073557	4.54928652	-26.48211876
5.02	502	0.078	0.148	-0.975	2.86479	0.1718874	-0.1718874	-8.0787078	4.54928652	-26.48784834
5.03	503	0.076	0.15	-0.991	2.9793816	0.1718874	-0.1145916	-8.0500599	4.5550161	-26.48784834
5.04	504	0.076	0.148	-1.007	2.9220858	0.0572958	-0.2291832	-8.021412	4.5550161	-26.48784834
5.05	505	0.077	0.146	-1.022	2.6356068	0	-0.286479	-8.03287116	4.5263682	-26.48784834
5.06	506	0.082	0.144	-1.029	2.6356068	0.0572958	-0.1718874	-8.00422326	4.5263682	-26.49357792
5.07	507	0.088	0.142	-1.027	2.3491278	0	0	-7.98130494	4.5263682	-26.49357792
5.08	508	0.094	0.143	-1.016	2.2345362	0	0.1145916	-7.95838662	4.5263682	-26.49357792
5.09	509	0.1	0.142	-1.002	2.2345362	-0.0572958	0.1145916	-7.9354683	4.5263682	-26.48784834
5.1	510	0.102	0.143	-0.983	2.0626488	-0.2291832	0	-8.021412	4.57793442	-26.51649624
5.11	511	0.104	0.149	-0.974	2.291832	0	-0.0572958	-7.99849368	4.57793442	-26.51649624
5.12	512	0.107	0.155	-0.969	3.0939732	0	-0.1145916	-7.96984578	4.57793442	-26.51649624
5.13	513	0.111	0.158	-0.966	3.9534102	-0.6875496	-0.1718874	-7.92973872	4.57220484	-26.51649624
5.14	514	0.114	0.158	-0.961	5.0420304	-1.5469866	-0.3437748	-7.8781725	4.5550161	-26.52222582
5.15	515	0.114	0.152	-0.952	5.5576926	-2.6929026	-0.4010706	-7.85525418	4.56074568	-26.53368498
5.16	516	0.117	0.147	-0.95	5.3858052	-3.6096354	-0.2291832	-7.79795838	4.5263682	-26.53368498
5.17	517	0.114	0.146	-0.951	4.6982556	-3.8961144	0	-7.75212174	4.48626114	-26.5279554
5.18	518	0.111	0.147	-0.953	3.8961144	-3.437748	0	-7.71201468	4.45188366	-26.5279554
5.19	519	0.107	0.149	-0.959	3.437748	-3.2085648	0.1145916	-7.6776372	4.42323576	-26.52222582
5.2	520	0.102	0.147	-0.963	3.0366774	-3.2658606	0.2291832	-7.68909636	4.41750618	-26.5279554
5.21	521	0.099	0.142	-0.972	2.86479	-3.2658606	0.286479	-7.66044846	4.3831287	-26.52222582
5.22	522	0.096	0.137	-0.982	3.0366774	-3.3804522	0.4583664	-7.62607098	4.34875122	-26.51076666
5.23	523	0.095	0.136	-0.989	3.2085648	-3.2658606	0.6875496	-7.5916935	4.32010332	-26.50503708
5.24	524	0.093	0.139	-0.99	3.3231564	-2.578311	0.9167328	-7.55731602	4.297185	-26.49357792
5.25	525	0.087	0.143	-0.99	3.151269	-2.2345362	1.0313244	-7.56877518	4.27426668	-26.48211876
5.26	526	0.079	0.142	-0.985	2.6356068	-2.2345362	0.9740286	-7.54012728	4.25134836	-26.4706596
5.27	527	0.075	0.144	-0.984	2.291832	-2.1199446	0.8021412	-7.51720896	4.23415962	-26.45920044
5.28	528	0.075	0.145	-0.979	2.4064236	-1.8334656	0.5156622	-7.48856106	4.21697088	-26.45347086
5.29	529	0.076	0.145	-0.977	2.5210152	-1.2605076	0.3437748	-7.46564274	4.20551172	-26.44774128
5.3	530	0.079	0.145	-0.976	2.6929026	-0.8021412	0.2291832	-7.51720896	4.18832298	-26.45347086
5.31	531	0.079	0.143	-0.975	3.151269	-0.8021412	0.2291832	-7.48283148	4.1825934	-26.44774128
5.32	532	0.076	0.14	-0.977	3.8388186	-0.9167328	0.286479	-7.44272442	4.17686382	-26.4420117
5.33	533	0.076	0.138	-0.977	4.870143	-0.9167328	0.4010706	-7.3911582	4.16540466	-26.4420117
5.34	534	0.074	0.135	-0.979	5.8441716	-0.9167328	0.286479	-7.3338624	4.15967508	-26.43628212
5.35	535	0.074	0.13	-0.975	6.1879464	-0.8021412	0.0572958	-7.29948492	4.14248634	-26.43628212
5.36	536	0.076	0.125	-0.967	5.9014674	-0.9167328	-0.1718874	-7.23645954	4.13102718	-26.43628212
5.37	537	0.077	0.122	-0.963	5.3285094	-1.0313244	-0.286479	-7.18489332	4.1252976	-26.4420117
5.38	538	0.08	0.12	-0.966	4.9847346	-1.0886202	-0.286479	-7.1333271	4.11383844	-26.4420117
5.39	539	0.08	0.117	-0.968	4.297185	-0.9167328	-0.4583664	-7.08749046	4.10237928	-26.44774128
5.4	540	0.082	0.112	-0.965	3.0366774	-0.4010706	-0.572958	-7.08749046	4.11383844	-26.45920044
5.41	541	0.085	0.111	-0.963	1.2605076	0	-0.4010706	-7.0760313	4.11383844	-26.46493002
5.42	542	0.088	0.118	-0.968	-0.286479	0.1145916	0	-7.0760313	4.11383844	-26.46493002
5.43	543	0.089	0.128	-0.975	-1.0313244	0.2291832	0.1145916	-7.08749046	4.11956802	-26.45920044
5.44	544	0.087	0.132	-0.98	-1.3178034	0.4010706	0.0572958	-7.09894962	4.11956802	-26.45920044
5.45	545	0.086	0.132	-0.975	-1.8907614	0.4010706	-0.1145916	-7.21354122	4.14821592	-26.47638918
5.46	546	0.087	0.133	-0.971	-2.4064236	0.5156622	-0.3437748	-7.23645954	4.1539455	-26.48211876
5.47	547	0.09	0.135	-0.975	-1.9480572	0.6875496	-0.4010706	-7.25937786	4.15967508	-26.48784834
5.48	548	0.091	0.134	-0.981	-1.4896908	0.7448454	-0.4010706	-7.27083702	4.16540466	-26.48784834
5.49	549	0.09	0.136	-0.98	-1.2032118	0.3437748	-0.1145916	-7.28802576	4.17113424	-26.49357792
5.5	550	0.089	0.14	-0.976	-1.2605076	0.1145916	0.1145916	-7.4771019	4.22270046	-26.51649624
5.51	551	0.089	0.143	-0.976	-1.0313244	0	0.0572958	-7.48856106	4.22270046	-26.51649624
5.52	552	0.09	0.142	-0.975	-0.6302538	-0.2291832	0	-7.49429064	4.21697088	-26.51649624
5.53	553	0.088	0.139	-0.974	-0.3437748	-0.1718874	-0.0572958	-7.50002022	4.21697088	-26.51649624
5.54	554	0.087	0.134	-0.972	-0.2291832	0	-0.1145916	-7.50002022	4.21697088	-26.51649624
5.55	555	0.087	0.131	-0.97	0	0.0572958	-0.0572958	-7.96984578	4.36021038	-26.59098078
5.56	556	0.087	0.131	-0.972	0.1145916	0.1718874	0	-7.9641162	4.36593996	-26.59098078
5.57	557	0.088	0.131	-0.972	0.3437748	0.286479	0.1718874	-7.9641162	4.36593996	-26.59098078
5.58	558	0.089	0.129	-0.973	0.572958	0.0572958	0.1718874	-7.95838662	4.36593996	-26.59098078
5.59	559	0.089	0.129	-0.975	0.7448454	0	0	-7.94692746	4.36593996	-26.59098078
5.6	560	0.088	0.129	-0.979	1.0313244	-0.1718874	-0.0572958	-7.98130494	4.37739912	-26.59671036
5.61	561	0.082	0.129	-0.981	1.0886202	-0.4010706	-0.1145916	-7.96984578	4.37166954	-26.59671036
5.62	562	0.08	0.129	-0.98	1.0886202	-0.4010706	-0.0572958	-7.95838662	4.37166954	-26.59671036
5.63	563	0.078	0.13	-0.98	1.0886202	-0.2291832	-0.0572958	-7.94692746	4.36593996	-26.59671036
5.64	564	0.077	0.131	-0.981	1.145916	0	0	-7.9354683	4.36593996	-26.59671036
5.65	565	0.077	0.131	-0.984	1.0313244	0	0	-7.99849368	4.3258329	-26.59671036
5.66	566	0.079	0.13	-0.981	0.7448454	-0.0572958	0	-7.98703452	4.3258329	-26.59671036
5.67	567	0.08	0.131	-0.98	0.7448454	0	0	-7.98130494	4.3258329	-26.59671036
5.68	568	0.08	0.133	-0.978	0.6875496	0.0572958	0	-7.97557536	4.3258329	-26.59671036
5.69	569	0.08	0.134	-0.978	0.572958	0.1718874	0	-7.9641162	4.3258329	-26.59671036
5.7	570	0.081	0.137	-0.979	0.7448454	0.2291832	0	-8.05578948	4.31437374	-26.60243994
5.71	571	0.082	0.138	-0.978	1.0313244	0.286479	0	-8.04433032	4.31437374	-26.60243994
5.72	572	0.08	0.135	-0.978	1.2032118	0.1145916	0.1145916	-8.03287116	4.32010332	-26.60243994
5.73	573	0.081	0.131	-0.974	1.0886202	0.1145916	0	-8.021412	4.32010332	-26.60243994
5.74	574	0.086	0.131	-0.976	0.9167328	0.2291832	0.0572958	-8.00995284	4.3258329	-26.60243994
5.75	575	0.089	0.133	-0.978	0.9167328	0.0572958	0.0572958	-8.09016696	4.34302164	-26.6138991
5.76	576	0.087	0.135	-0.975	0.7448454	0.1718874	0.1145916	-8.0787078	4.34875122	-26.6138991
5.77	577	0.084	0.137	-0.973	0.5156622	0.286479	0.0572958	-8.07297822	4.34875122	-26.6138991
5.78	578	0.079	0.136	-0.973	0.6302538	0.4583664	0.0572958	-8.06724864	4.3544808	-26.6138991
5.79	579	0.078	0.132	-0.973	0.9740286	0.6302538	0.0572958	-8.05578948	4.36021038	-26.6138991
5.8	580	0.081	0.127	-0.974	1.145916	0.7448454	0.1145916	-8.06151906	4.36593996	-26.6138991
5.81	581	0.085	0.124	-0.978	1.3178034	0.8021412	0.1718874	-8.0500599	4.37739912	-26.6138991
5.82	582	0.087	0.125	-0.983	1.6615782	0.5156622	0.2291832	-8.03287116	4.3831287	-26.60816952
5.83	583	0.084	0.128	-0.984	1.718874	0.4583664	0.286479	-8.01568242	4.38885828	-26.60816952
5.84	584	0.081	0.131	-0.983	1.8334656	0.4010706	0.286479	-7.99849368	4.39458786	-26.60243994
5.85	585	0.079	0.133	-0.982	2.005353	0.3437748	0.2291832	-8.00422326	4.3831287	-26.60243994
5.86	586	0.08	0.134	-0.981	2.2345362	0.6302538	0.1718874	-7.98130494	4.38885828	-26.60243994
5.87	587	0.082	0.133	-0.981	2.4064236	0.859437	0.1145916	-7.95838662	4.40031744	-26.60243994
5.88	588	0.084	0.133	-0.979	2.7501984	0.8021412	0.0572958	-7.92973872	4.40604702	-26.60243994
5.89	589	0.086	0.132	-0.98	3.0366774	0.6875496	0.0572958	-7.90109082	4.41750618	-26.60243994
5.9	590	0.087	0.133	-0.982	3.437748	0.4010706	0.2291832	-7.88390208	4.42323576	-26.60243994
5.91	591	0.087	0.131	-0.981	3.7815228	0.1145916	0.3437748	-7.84379502	4.42323576	-26.60243994
5.92	592	0.086	0.13	-0.979	4.297185	-0.1145916	0.3437748	-7.80368796	4.42323576	-26.59671036
5.93	593	0.083	0.129	-0.98	4.6982556	-0.1718874	0.4010706	-7.75212174	4.42323576	-26.59098078
5.94	594	0.082	0.129	-0.981	5.2139178	-0.2291832	0.4010706	-7.70055552	4.42323576	-26.59098078
5.95	595	0.084	0.129	-0.979	5.5576926	-0.286479	0.3437748	-7.66044846	4.41750618	-26.5852512
5.96	596	0.085	0.129	-0.979	5.9587632	-0.286479	0.3437748	-7.59742308	4.41750618	-26.5852512
5.97	597	0.084	0.128	-0.979	6.4744254	-0.4583664	0.4010706	-7.52866812	4.4117766	-26.57952162
5.98	598	0.084	0.127	-0.978	7.2192708	-0.5156622	0.3437748	-7.45991316	4.4117766	-26.57379204
5.99	599	0.083	0.125	-0.978	7.7922288	-0.2291832	0.2291832	-7.37969904	4.4117766	-26.57379204
6	600	0.084	0.122	-0.975	8.307891	-0.1145916	0.2291832	-7.3052145	4.4117766	-26.57379204
6.01	601	0.086	0.118	-0.978	8.4797784	0	0.286479	-7.2192708	4.4117766	-26.56806246
6.02	602	0.086	0.115	-0.979	8.4797784	0	0.286479	-7.12759752	4.4117766	-26.56806246
6.03	603	0.086	0.113	-0.979	8.7089616	-0.0572958	0.3437748	-7.04165382	4.4117766	-26.56233288
6.04	604	0.086	0.11	-0.977	9.1100322	-0.1145916	0.286479	-6.94998054	4.4117766	-26.56233288
6.05	605	0.087	0.106	-0.975	8.9381448	-0.2291832	0.1145916	-6.86403684	4.4117766	-26.56233288
6.06	606	0.084	0.103	-0.974	8.8235532	-0.3437748	0	-6.77236356	4.40604702	-26.56233288
6.07	607	0.085	0.099	-0.972	8.5370742	-0.5156622	0	-6.68641986	4.40604702	-26.56233288
6.08	608	0.086	0.097	-0.976	8.1932994	-0.4583664	-0.2291832	-6.60047616	4.40031744	-26.56806246
6.09	609	0.087	0.097	-0.977	7.7922288	-0.4010706	-0.2291832	-6.52026204	4.39458786	-26.56806246
6.1	610	0.086	0.1	-0.977	7.6776372	-0.286479	-0.1718874	-6.45150708	4.39458786	-26.57379204
6.11	611	0.085	0.1	-0.978	7.5630456	-0.2291832	-0.2291832	-6.37702254	4.39458786	-26.57379204
6.12	612	0.085	0.097	-0.978	7.448454	-0.4010706	-0.1718874	-6.29680842	4.38885828	-26.57952162
6.13	613	0.085	0.096	-0.978	7.1046792	-0.5156622	-0.2291832	-6.22805346	4.3831287	-26.57952162
6.14	614	0.085	0.095	-0.978	6.7036086	-0.7448454	-0.3437748	-6.1592985	4.37739912	-26.5852512
6.15	615	0.085	0.096	-0.978	6.4171296	-0.6875496	-0.4010706	-6.1020027	4.36593996	-26.59098078
6.16	616	0.084	0.096	-0.982	6.3598338	-0.572958	-0.4583664	-6.03897732	4.36593996	-26.59671036
6.17	617	0.086	0.095	-0.982	6.0733548	-0.4010706	-0.5156622	-5.97595194	4.36021038	-26.59671036
6.18	618	0.087	0.094	-0.985	5.6722842	-0.2291832	-0.5156622	-5.91865614	4.3544808	-26.60243994
6.19	619	0.087	0.091	-0.987	5.156622	-0.2291832	-0.3437748	-5.86708992	4.3544808	-26.60816952
6.2	620	0.084	0.091	-0.988	4.7555514	-0.1718874	-0.2291832	-5.82698286	4.3544808	-26.6138991
6.21	621	0.084	0.089	-0.985	4.4117766	-0.1718874	-0.0572958	-5.7868758	4.34875122	-26.6138991
6.22	622	0.085	0.088	-0.983	4.010706	-0.0572958	-0.0572958	-5.74676874	4.34875122	-26.6138991
6.23	623	0.086	0.089	-0.982	3.6096354	-0.0572958	-0.0572958	-5.70666168	4.34875122	-26.6138991
6.24	624	0.086	0.09	-0.985	3.0939732	0.1145916	-0.1145916	-5.67801378	4.34875122	-26.61962868
6.25	625	0.085	0.092	-0.987	2.8074942	0.1145916	-0.1145916	-5.6722842	4.34875122	-26.61962868
6.26	626	0.084	0.09	-0.986	2.6356068	0	-0.1145916	-5.64936588	4.34875122	-26.62535826
6.27	627	0.081	0.089	-0.983	2.4637194	0	-0.1718874	-5.62071798	4.34875122	-26.62535826
6.28	628	0.081	0.088	-0.981	2.1772404	0	-0.1718874	-5.59779966	4.34875122	-26.63108784
6.29	629	0.082	0.088	-0.984	2.1199446	0.2291832	-0.1145916	-5.58061092	4.3544808	-26.63108784
6.3	630	0.084	0.09	-0.986	2.291832	0.286479	0	-5.5863405	4.36021038	-26.63108784
6.31	631	0.085	0.09	-0.989	2.3491278	0.1718874	0.0572958	-5.5576926	4.36021038	-26.63108784
6.32	632	0.087	0.088	-0.987	2.1199446	0	0	-5.53477428	4.36021038	-26.63108784
6.33	633	0.086	0.086	-0.984	1.8907614	-0.0572958	-0.0572958	-5.51758554	4.36021038	-26.63108784
6.34	634	0.086	0.086	-0.986	1.718874	-0.4010706	0	-5.5003968	4.3544808	-26.63108784
6.35	635	0.084	0.087	-0.987	1.718874	-0.5156622	0	-5.51185596	4.34875122	-26.63681742
6.36	636	0.083	0.087	-0.986	1.6042824	-0.5156622	0	-5.49466722	4.34302164	-26.63681742
6.37	637	0.081	0.086	-0.983	1.432395	-0.4010706	0	-5.48320806	4.33729206	-26.63681742
6.38	638	0.081	0.084	-0.981	1.3178034	-0.286479	0.0572958	-5.46601932	4.33729206	-26.63681742
6.39	639	0.081	0.08	-0.975	1.145916	-0.286479	0.1145916	-5.45456016	4.33156248	-26.63108784
6.4	640	0.08	0.08	-0.976	0.859437	-0.2291832	0.1718874	-5.47747848	4.31437374	-26.63108784
6.41	641	0.08	0.083	-0.981	0.9740286	-0.3437748	0.286479	-5.4717489	4.31437374	-26.62535826
6.42	642	0.079	0.084	-0.983	1.145916	-0.1718874	0.286479	-5.45456016	4.30864416	-26.62535826
6.43	643	0.079	0.084	-0.986	1.3750992	-0.0572958	0.1145916	-5.443101	4.30864416	-26.62535826
6.44	644	0.079	0.084	-0.986	1.3178034	0	0.1145916	-5.43164184	4.30864416	-26.61962868
6.45	645	0.079	0.083	-0.987	1.3178034	0.0572958	0.1145916	-5.44883058	4.297185	-26.61962868
6.46	646	0.08	0.085	-0.988	1.4896908	0	0.1145916	-5.43737142	4.297185	-26.61962868
6.47	647	0.08	0.086	-0.987	1.6615782	0	0.1718874	-5.42018268	4.297185	-26.61962868
6.48	648	0.083	0.087	-0.985	1.6615782	0	0.1718874	-5.40299394	4.297185	-26.61962868
6.49	649	0.084	0.088	-0.983	1.6042824	0.1145916	0.1718874	-5.3858052	4.297185	-26.6138991
6.5	650	0.083	0.087	-0.984	1.5469866	0.1145916	0.1718874	-5.40299394	4.297185	-26.6138991
6.51	651	0.082	0.086	-0.983	1.5469866	0	0.2291832	-5.3858052	4.297185	-26.6138991
6.52	652	0.081	0.085	-0.984	1.718874	-0.0572958	0.286479	-5.36861646	4.297185	-26.60816952
6.53	653	0.079	0.085	-0.985	1.6615782	0.0572958	0.2291832	-5.35142772	4.297185	-26.60816952
6.54	654	0.08	0.083	-0.986	1.5469866	0.1718874	0.1718874	-5.33423898	4.30291458	-26.60816952
6.55	655	0.08	0.083	-0.985	1.432395	0.0572958	0.0572958	-5.36861646	4.29145542	-26.60816952
6.56	656	0.081	0.081	-0.984	1.2032118	0.1718874	0.1145916	-5.35142772	4.297185	-26.60816952
6.57	657	0.082	0.081	-0.985	1.0313244	0.1718874	0	-5.34569814	4.297185	-26.60816952
6.58	658	0.083	0.081	-0.986	0.9740286	0.286479	0.0572958	-5.33423898	4.30291458	-26.60816952
6.59	659	0.083	0.081	-0.986	0.859437	0.4010706	0	-5.32277982	4.30864416	-26.60816952
6.6	660	0.084	0.083	-0.987	0.7448454	0.4010706	0	-5.36288688	4.31437374	-26.6138991
6.61	661	0.084	0.082	-0.985	0.7448454	0.4010706	0.0572958	-5.35142772	4.31437374	-26.60816952
6.62	662	0.084	0.081	-0.987	0.7448454	0.2291832	0.0572958	-5.34569814	4.32010332	-26.60816952
6.63	663	0.085	0.081	-0.989	0.6302538	0.1145916	0.0572958	-5.33996856	4.32010332	-26.60816952
6.64	664	0.084	0.082	-0.988	0.6302538	0.0572958	0.0572958	-5.33423898	4.32010332	-26.60816952
6.65	665	0.084	0.082	-0.984	0.572958	0	0.0572958	-5.42018268	4.3258329	-26.6138991
6.66	666	0.083	0.081	-0.984	0.5156622	0	0.0572958	-5.4144531	4.3258329	-26.6138991
6.67	667	0.083	0.081	-0.987	0.2291832	-0.1718874	0	-5.4144531	4.3258329	-26.6138991
6.68	668	0.083	0.081	-0.987	-0.572958	-0.1145916	0	-5.42018268	4.3258329	-26.6138991
6.69	669	0.083	0.082	-0.987	-0.572958	0	0	-5.42591226	4.3258329	-26.6138991
6.7	670	0.082	0.081	-0.987	-0.5156622	0	0	-5.48320806	4.30864416	-26.61962868
6.71	671	0.081	0.08	-0.987	-0.4583664	0.0572958	-0.0572958	-5.48893764	4.30864416	-26.61962868
6.72	672	0.081	0.079	-0.988	-0.4010706	0	0	-5.49466722	4.30864416	-26.61962868
6.73	673	0.081	0.08	-0.99	-0.286479	-0.1145916	0	-5.49466722	4.30864416	-26.61962868
6.74	674	0.081	0.081	-0.99	-0.286479	-0.1718874	0	-5.5003968	4.30291458	-26.61962868
6.75	675	0.081	0.081	-0.99	-0.2291832	-0.1718874	0	-5.54050386	4.28572584	-26.61962868
6.76	676	0.081	0.083	-0.991	-0.2291832	-0.1145916	-0.0572958	-5.54050386	4.28572584	-26.61962868
6.77	677	0.08	0.083	-0.992	-0.3437748	-0.0572958	-0.0572958	-5.54623344	4.28572584	-26.61962868
6.78	678	0.081	0.083	-0.991	-0.1145916	-0.1145916	0	-5.54623344	4.28572584	-26.61962868
6.79	679	0.081	0.081	-0.992	-0.286479	-0.0572958	0	-5.55196302	4.28572584	-26.61962868
6.8	680	0.08	0.08	-0.99	-0.4583664	-0.0572958	0	-5.58061092	4.2685371	-26.61962868
6.81	681	0.082	0.079	-0.987	-0.572958	-0.0572958	0.0572958	-5.5863405	4.2685371	-26.61962868
6.82	682	0.084	0.081	-0.985	-0.8021412	-0.0572958	0	-5.59207008	4.2685371	-26.61962868
6.83	683	0.082	0.082	-0.984	-0.859437	-0.1145916	0	-5.60352924	4.26280752	-26.61962868
6.84	684	0.081	0.083	-0.986	-0.9740286	-0.1145916	0	-5.60925882	4.26280752	-26.61962868
6.85	685	0.08	0.084	-0.987	-0.9740286	0.0572958	0	-5.64936588	4.25134836	-26.61962868
6.86	686	0.08	0.084	-0.983	-1.2032118	0.0572958	-0.0572958	-5.66082504	4.25134836	-26.61962868
6.87	687	0.079	0.083	-0.983	-1.3178034	0.1145916	0	-5.6722842	4.25707794	-26.61962868
6.88	688	0.08	0.081	-0.981	-1.145916	0.1145916	0.0572958	-5.68374336	4.25707794	-26.61962868
6.89	689	0.08	0.08	-0.98	-1.5469866	0.1145916	0	-5.7009321	4.25707794	-26.61962868
6.9	690	0.079	0.082	-0.98	-1.8907614	0.1145916	0	-5.73530958	4.25134836	-26.61962868
6.91	691	0.078	0.085	-0.981	-1.8334656	0.1718874	-0.0572958	-5.75249832	4.25134836	-26.61962868
6.92	692	0.076	0.083	-0.985	-1.5469866	0.286479	0	-5.76968706	4.25707794	-26.61962868
6.93	693	0.074	0.082	-0.985	-1.145916	0.3437748	0	-5.78114622	4.26280752	-26.61962868
6.94	694	0.077	0.079	-0.985	-0.9167328	0.4583664	0.0572958	-5.7868758	4.26280752	-26.61962868
6.95	695	0.083	0.078	-0.988	-0.9167328	0.286479	0.2291832	-5.79260538	4.2685371	-26.61962868
6.96	696	0.087	0.081	-0.987	-0.9167328	0.1718874	0.3437748	-5.80406454	4.27426668	-26.6138991
6.97	697	0.087	0.084	-0.987	-1.0313244	0.1718874	0.2291832	-5.8155237	4.27426668	-26.6138991
6.98	698	0.085	0.085	-0.986	-0.9740286	0.0572958	0.0572958	-5.82698286	4.27426668	-26.60816952
6.99	699	0.08	0.083	-0.981	-0.859437	0	0	-5.83271244	4.27426668	-26.60816952
7	700	0.076	0.078	-0.974	-1.0886202	0.1718874	0	-5.83271244	4.25707794	-26.60816952
7.01	701	0.075	0.077	-0.975	-1.2605076	0.1718874	0.1718874	-5.8441716	4.25707794	-26.60243994
7.02	702	0.078	0.079	-0.981	-0.859437	0.572958	0.2291832	-5.85563076	4.26280752	-26.60243994
7.03	703	0.082	0.082	-0.983	-0.572958	0.8021412	0.3437748	-5.86136034	4.27426668	-26.59671036
7.04	704	0.084	0.085	-0.986	-0.6302538	0.6302538	0.3437748	-5.86708992	4.27999626	-26.59671036
7.05	705	0.083	0.084	-0.99	-0.7448454	0.3437748	0.286479	-5.88427866	4.28572584	-26.59098078
7.06	706	0.08	0.085	-0.99	-0.7448454	0.1145916	0.2291832	-5.89000824	4.28572584	-26.59098078
7.07	707	0.08	0.085	-0.988	-0.7448454	0	0.1145916	-5.89573782	4.28572584	-26.59098078
7.08	708	0.08	0.086	-0.983	-1.0313244	0.1145916	0.0572958	-5.90719698	4.28572584	-26.59098078
7.09	709	0.08	0.087	-0.981	-1.2605076	0.286479	0	-5.92438572	4.29145542	-26.59098078
7.1	710	0.081	0.089	-0.982	-1.2032118	0.5156622	0.0572958	-5.94730404	4.29145542	-26.59098078
7.11	711	0.083	0.088	-0.981	-1.145916	0.4583664	0.1145916	-5.9587632	4.297185	-26.5852512
7.12	712	0.085	0.088	-0.983	-1.0313244	0.4583664	0.2291832	-5.97022236	4.30291458	-26.5852512
7.13	713	0.086	0.088	-0.985	-0.9740286	0.4583664	0.2291832	-5.97595194	4.30864416	-26.5852512
7.14	714	0.085	0.089	-0.985	-0.9740286	0.286479	0.2291832	-5.9874111	4.30864416	-26.57952162
7.15	715	0.085	0.089	-0.986	-0.9740286	0.2291832	0.1145916	-6.016059	4.31437374	-26.57952162
7.16	716	0.084	0.089	-0.986	-0.9740286	0.1145916	0.0572958	-6.02751816	4.32010332	-26.57952162
7.17	717	0.083	0.087	-0.985	-0.8021412	0.0572958	0.0572958	-6.03897732	4.32010332	-26.57952162
7.18	718	0.081	0.085	-0.983	-0.859437	-0.0572958	0.0572958	-6.0447069	4.32010332	-26.57952162
7.19	719	0.08	0.086	-0.984	-0.8021412	0	0.0572958	-6.05616606	4.31437374	-26.57952162
7.2	720	0.081	0.086	-0.985	-0.572958	0	0.0572958	-6.06189564	4.30291458	-26.57379204
7.21	721	0.081	0.085	-0.984	0	0.0572958	0.0572958	-6.06189564	4.30864416	-26.57379204
7.22	722	0.08	0.084	-0.983	0.3437748	0	0	-6.06189564	4.30291458	-26.57379204
7.23	723	0.08	0.085	-0.985	0.2291832	-0.0572958	-0.0572958	-6.05616606	4.30291458	-26.57379204
7.24	724	0.079	0.086	-0.987	0.286479	0.0572958	-0.0572958	-6.05616606	4.30291458	-26.57379204
7.25	725	0.079	0.085	-0.985	0.572958	0.1718874	0	-6.05043648	4.29145542	-26.57379204
7.26	726	0.081	0.082	-0.981	0.1718874	0.1145916	0	-6.05043648	4.29145542	-26.57379204
7.27	727	0.082	0.084	-0.98	-0.2291832	0.0572958	0	-6.05043648	4.29145542	-26.57379204
7.28	728	0.084	0.085	-0.983	-0.4010706	0.0572958	0.1145916	-6.05616606	4.29145542	-26.57379204
7.29	729	0.085	0.088	-0.984	-0.3437748	-0.0572958	0	-6.05616606	4.29145542	-26.57379204
7.3	730	0.082	0.089	-0.984	-0.3437748	-0.3437748	-0.0572958	-6.07908438	4.27999626	-26.57379204
7.31	731	0.079	0.088	-0.985	-0.3437748	-0.2291832	-0.1145916	-6.07908438	4.27999626	-26.57379204
7.32	732	0.078	0.087	-0.983	-0.3437748	-0.4010706	-0.1718874	-6.08481396	4.27426668	-26.57952162
7.33	733	0.077	0.085	-0.984	-0.286479	-0.286479	-0.1718874	-6.09054354	4.27426668	-26.57952162
7.34	734	0.078	0.085	-0.983	-0.286479	-0.1145916	-0.0572958	-6.09054354	4.2685371	-26.57952162
7.35	735	0.08	0.086	-0.984	-0.3437748	-0.0572958	-0.0572958	-6.10773228	4.25707794	-26.57952162
7.36	736	0.083	0.088	-0.984	-0.4010706	0	-0.0572958	-6.11346186	4.25707794	-26.57952162
7.37	737	0.083	0.088	-0.985	-0.4010706	0	-0.1718874	-6.11919144	4.25707794	-26.57952162
7.38	738	0.081	0.088	-0.985	-0.4010706	-0.0572958	-0.1718874	-6.11919144	4.25707794	-26.5852512
7.39	739	0.081	0.088	-0.985	-0.6875496	-0.1718874	-0.1718874	-6.1306506	4.25134836	-26.5852512
7.4	740	0.081	0.088	-0.983	-1.145916	-0.4583664	-0.1718874	-6.14210976	4.24561878	-26.5852512
7.41	741	0.082	0.087	-0.981	-1.7761698	-0.7448454	-0.0572958	-6.1592985	4.2398892	-26.5852512
7.42	742	0.085	0.089	-0.979	-2.4637194	-0.572958	0	-6.1879464	4.23415962	-26.5852512
7.43	743	0.087	0.091	-0.977	-2.6929026	-0.5156622	0.1145916	-6.2165943	4.22843004	-26.5852512
7.44	744	0.088	0.092	-0.977	-2.7501984	-0.4583664	0.286479	-6.23951262	4.22270046	-26.57952162
7.45	745	0.088	0.093	-0.978	-2.9220858	-0.4583664	0.3437748	-6.27961968	4.22270046	-26.57952162
7.46	746	0.085	0.096	-0.981	-2.9220858	-0.5156622	0.3437748	-6.30826758	4.21697088	-26.57379204
7.47	747	0.081	0.096	-0.984	-2.6356068	-0.2291832	0.1718874	-6.33691548	4.21697088	-26.57379204
7.48	748	0.081	0.095	-0.983	-2.5210152	-0.0572958	0.0572958	-6.3598338	4.21697088	-26.56806246
7.49	749	0.08	0.092	-0.98	-2.9793816	-0.1145916	0	-6.3884817	4.2112413	-26.56806246
7.5	750	0.081	0.091	-0.974	-3.8388186	-0.3437748	-0.1145916	-6.43431834	4.2112413	-26.56806246
7.51	751	0.081	0.095	-0.975	-3.7815228	-0.286479	-0.1718874	-6.46869582	4.20551172	-26.57379204
7.52	752	0.081	0.096	-0.977	-3.3804522	-0.1718874	-0.286479	-6.5030733	4.19978214	-26.57379204
7.53	753	0.08	0.097	-0.978	-3.437748	0.1718874	-0.5156622	-6.54318036	4.20551172	-26.57952162
7.54	754	0.08	0.095	-0.979	-3.7815228	0.2291832	-0.5156622	-6.57755784	4.20551172	-26.5852512
7.55	755	0.08	0.095	-0.98	-4.010706	0	-0.5156622	-6.62339448	4.20551172	-26.59098078
7.56	756	0.081	0.094	-0.977	-3.8961144	-0.286479	-0.4583664	-6.66350154	4.19978214	-26.59671036
7.57	757	0.085	0.094	-0.979	-4.010706	-0.4583664	-0.3437748	-6.7036086	4.19405256	-26.59671036
7.58	758	0.089	0.097	-0.978	-4.4117766	-1.0886202	-0.286479	-6.74944524	4.1825934	-26.60243994
7.59	759	0.09	0.101	-0.972	-5.0420304	-1.4896908	-0.286479	-6.80101146	4.16540466	-26.60243994
7.6	760	0.085	0.106	-0.971	-5.3285094	-1.2032118	-0.3437748	-6.86403684	4.1539455	-26.60243994
7.61	761	0.08	0.106	-0.967	-5.0993262	-0.8021412	-0.4583664	-6.91560306	4.14248634	-26.60816952
7.62	762	0.076	0.099	-0.96	-5.443101	-0.286479	-0.4583664	-6.96716928	4.14248634	-26.6138991
7.63	763	0.078	0.099	-0.959	-6.1879464	0.4583664	-0.4583664	-7.03592424	4.14248634	-26.6138991
7.64	764	0.081	0.106	-0.971	-5.72958	0.5156622	-0.3437748	-7.09322004	4.14821592	-26.61962868
7.65	765	0.088	0.113	-0.982	-4.4690724	0.2291832	-0.1145916	-7.15051584	4.15967508	-26.62535826
7.66	766	0.085	0.115	-0.987	-3.0939732	-0.1718874	0	-7.17916374	4.1539455	-26.61962868
7.67	767	0.08	0.115	-0.988	-2.4637194	-0.286479	0.0572958	-7.20208206	4.1539455	-26.61962868
7.68	768	0.075	0.115	-0.986	-2.1772404	0	-0.0572958	-7.22500038	4.1539455	-26.61962868
7.69	769	0.072	0.119	-0.987	-1.6615782	0.4010706	-0.2291832	-7.24218912	4.1539455	-26.62535826
7.7	770	0.072	0.124	-0.99	-0.572958	0.859437	-0.2291832	-7.28802576	4.14248634	-26.63108784
7.71	771	0.076	0.123	-0.987	0.0572958	0.859437	-0.286479	-7.28802576	4.1539455	-26.63108784
7.72	772	0.081	0.121	-0.984	0.3437748	0.6302538	-0.3437748	-7.28229618	4.15967508	-26.63681742
7.73	773	0.082	0.117	-0.985	0.9740286	0.1145916	-0.1718874	-7.27083702	4.15967508	-26.63681742
7.74	774	0.081	0.112	-0.988	1.3750992	-0.286479	-0.1145916	-7.25937786	4.15967508	-26.642547
7.75	775	0.081	0.109	-0.988	1.432395	-0.572958	-0.0572958	-7.2479187	4.14821592	-26.642547
7.76	776	0.079	0.108	-0.986	1.3750992	-0.9167328	0	-7.23645954	4.14248634	-26.63681742
7.77	777	0.075	0.108	-0.986	1.432395	-0.7448454	0	-7.2192708	4.13675676	-26.63681742
7.78	778	0.075	0.106	-0.986	1.4896908	-0.4583664	0	-7.20208206	4.13102718	-26.63681742
7.79	779	0.076	0.106	-0.986	1.3178034	-0.286479	0	-7.1906229	4.1252976	-26.63681742
7.8	780	0.079	0.107	-0.986	0.859437	-0.0572958	-0.0572958	-7.19635248	4.11956802	-26.642547
7.81	781	0.079	0.107	-0.985	0.6302538	-0.0572958	-0.1718874	-7.1906229	4.11956802	-26.642547
7.82	782	0.079	0.108	-0.985	0.5156622	0.0572958	-0.1145916	-7.18489332	4.11956802	-26.642547
7.83	783	0.078	0.111	-0.983	0.286479	0.1145916	-0.1718874	-7.17916374	4.11956802	-26.64827658
7.84	784	0.079	0.112	-0.98	0.0572958	0.1145916	-0.2291832	-7.17916374	4.11956802	-26.64827658
7.85	785	0.08	0.114	-0.983	-0.1145916	0.0572958	-0.286479	-7.23645954	4.11956802	-26.65400616
7.86	786	0.082	0.116	-0.982	0.0572958	0.1145916	-0.1718874	-7.23072996	4.11956802	-26.65973574
7.87	787	0.084	0.118	-0.982	0.3437748	0.0572958	-0.286479	-7.23072996	4.11956802	-26.65973574
7.88	788	0.086	0.118	-0.981	0.4010706	0	-0.2291832	-7.22500038	4.11956802	-26.65973574
7.89	789	0.087	0.117	-0.981	0.6302538	-0.1718874	-0.2291832	-7.2192708	4.11383844	-26.66546532
7.9	790	0.087	0.116	-0.982	0.9740286	-0.5156622	-0.2291832	-7.23072996	4.1252976	-26.6711949
7.91	791	0.086	0.112	-0.979	1.0886202	-0.572958	-0.1145916	-7.2192708	4.11956802	-26.6711949
7.92	792	0.085	0.111	-0.98	1.2032118	-0.5156622	-0.1145916	-7.20781164	4.11383844	-26.6711949
7.93	793	0.085	0.111	-0.982	1.2605076	-0.5156622	-0.0572958	-7.1906229	4.10810886	-26.6711949
7.94	794	0.083	0.112	-0.983	1.3750992	-0.572958	0	-7.17916374	4.10237928	-26.6711949
7.95	795	0.081	0.111	-0.984	1.432395	-0.6302538	0	-7.17343416	4.0966497	-26.6711949
7.96	796	0.08	0.109	-0.984	1.4896908	-0.5156622	-0.0572958	-7.161975	4.09092012	-26.6711949
7.97	797	0.079	0.109	-0.985	1.432395	-0.6875496	0	-7.14478626	4.08519054	-26.6711949
7.98	798	0.081	0.107	-0.984	1.0886202	-0.859437	-0.1145916	-7.1333271	4.07373138	-26.6711949
7.99	799	0.084	0.108	-0.98	0.859437	-0.8021412	-0.0572958	-7.12186794	4.0680018	-26.6711949
8	800	0.087	0.108	-0.98	0.8021412	-0.9167328	0.0572958	-7.12759752	4.07946096	-26.67692448
8.01	801	0.089	0.111	-0.985	0.9167328	-1.5469866	0.2291832	-7.11613836	4.06227222	-26.6711949
8.02	802	0.088	0.113	-0.986	0.859437	-2.005353	0.286479	-7.11040878	4.04508348	-26.66546532
8.03	803	0.083	0.115	-0.987	1.145916	-2.1199446	0.1718874	-7.09894962	4.02216516	-26.65973574
8.04	804	0.078	0.115	-0.987	1.4896908	-2.2345362	0.0572958	-7.08176088	3.99924684	-26.65973574
8.05	805	0.071	0.116	-0.981	1.6042824	-2.578311	0	-7.0760313	3.96486936	-26.65400616
8.06	806	0.066	0.115	-0.976	1.432395	-2.4064236	0	-7.05884256	3.94195104	-26.65400616
8.07	807	0.067	0.114	-0.975	1.6615782	-1.8334656	0	-7.04165382	3.9247623	-26.65400616
8.08	808	0.069	0.111	-0.975	1.718874	-1.145916	0	-7.02446508	3.91330314	-26.65400616
8.09	809	0.074	0.11	-0.975	1.3750992	-0.6875496	0	-7.00727634	3.90757356	-26.65400616
8.1	810	0.078	0.111	-0.979	1.432395	-0.6875496	0.1145916	-7.01300592	3.90757356	-26.65400616
8.11	811	0.079	0.107	-0.981	1.3750992	-0.7448454	0.286479	-6.99581718	3.8961144	-26.64827658
8.12	812	0.081	0.102	-0.978	0.4583664	-0.6302538	0.5156622	-6.9900876	3.89038482	-26.642547
8.13	813	0.08	0.105	-0.979	-0.4010706	-0.9740286	0.6875496	-6.99581718	3.88465524	-26.63681742
8.14	814	0.078	0.106	-0.978	-0.4583664	-1.145916	0.6875496	-6.99581718	3.87319608	-26.62535826
8.15	815	0.079	0.105	-0.98	-0.4583664	-1.0886202	0.6302538	-7.01300592	3.8674665	-26.61962868
8.16	816	0.076	0.104	-0.984	-0.6302538	-0.6875496	0.572958	-7.0187355	3.86173692	-26.6138991
8.17	817	0.076	0.103	-0.979	-1.0886202	0.1145916	0.4583664	-7.03019466	3.86173692	-26.60816952
8.18	818	0.076	0.106	-0.982	-1.3750992	0.4010706	0.286479	-7.04165382	3.8674665	-26.60816952
8.19	819	0.078	0.11	-0.979	-1.3750992	0.5156622	0.2291832	-7.05884256	3.87319608	-26.60243994
8.2	820	0.079	0.114	-0.982	-1.0313244	0.572958	0.0572958	-7.09322004	3.88465524	-26.60243994
8.21	821	0.08	0.114	-0.985	-0.9167328	0.572958	0.0572958	-7.1046792	3.89038482	-26.60243994
8.22	822	0.082	0.113	-0.984	-1.2605076	0.5156622	-0.0572958	-7.11613836	3.8961144	-26.60816952
