TimeStamp(s)	FrameCounter	AccX	AccY	AccZ	GyrX	GyrY	GyrZ	EulerX	EulerY	EulerZ
0.01	1	-0.079	-0.993	-0.15	-0.6302538	0.4583664	0	79.15987728	-4.27426668	-47.56124358
0.02	2	-0.08	-0.994	-0.139	-0.859437	0.3437748	0	79.1541477	-4.27426668	-47.555514
0.03	3	-0.079	-0.994	-0.14	-0.859437	0.5156622	0	79.14268854	-4.27426668	-47.54978442
0.04	4	-0.078	-0.994	-0.141	-0.8021412	0.4583664	0.0572958	79.13695896	-4.27426668	-47.54405484
0.05	5	-0.077	-0.995	-0.138	-0.8021412	0.4010706	0	79.18852518	-4.27426668	-47.53832526
0.06	6	-0.076	-0.994	-0.139	-0.9740286	0.286479	0	79.17706602	-4.27426668	-47.53259568
0.07	7	-0.076	-0.993	-0.139	-0.9740286	0.4010706	0	79.16560686	-4.27426668	-47.53259568
0.08	8	-0.077	-0.994	-0.137	-0.9740286	0.3437748	-0.0572958	79.1541477	-4.27426668	-47.5268661
0.09	9	-0.076	-0.994	-0.138	-0.9740286	0.3437748	-0.0572958	79.14841812	-4.2685371	-47.5268661
0.1	10	-0.077	-0.993	-0.137	-0.859437	0.1718874	0	79.2114435	-4.27426668	-47.51540694
0.11	11	-0.078	-0.993	-0.138	-1.0313244	0.5156622	0	79.19998434	-4.27426668	-47.51540694
0.12	12	-0.079	-0.991	-0.138	-0.9167328	0.5156622	0	79.18852518	-4.27426668	-47.50967736
0.13	13	-0.078	-0.992	-0.138	-0.9740286	0.5156622	0.0572958	79.17706602	-4.27426668	-47.50394778
0.14	14	-0.076	-0.992	-0.138	-0.9167328	0.5156622	0.0572958	79.17133644	-4.27426668	-47.4982182
0.15	15	-0.077	-0.99	-0.137	-0.859437	0.4583664	0	79.20571392	-4.27426668	-47.49248862
0.16	16	-0.077	-0.99	-0.139	-0.9167328	0.4583664	0	79.19425476	-4.27426668	-47.48675904
0.17	17	-0.077	-0.99	-0.138	-0.8021412	0.3437748	-0.1718874	79.18852518	-4.2685371	-47.48102946
0.18	18	-0.078	-0.99	-0.138	-0.6875496	0.2291832	-0.1145916	79.17706602	-4.2685371	-47.48102946
0.19	19	-0.079	-0.991	-0.138	-0.6875496	0.3437748	-0.1145916	79.17133644	-4.2685371	-47.47529988
0.2	20	-0.078	-0.992	-0.138	-0.7448454	0.4583664	-0.1145916	79.21717308	-4.2685371	-47.4695703
0.21	21	-0.079	-0.993	-0.139	-0.7448454	0.4583664	-0.1718874	79.2114435	-4.2685371	-47.46384072
0.22	22	-0.079	-0.993	-0.138	-0.7448454	0.4010706	-0.0572958	79.19998434	-4.2685371	-47.45811114
0.23	23	-0.08	-0.993	-0.138	-0.8021412	0.4583664	-0.1145916	79.19425476	-4.26280752	-47.45811114
0.24	24	-0.081	-0.993	-0.138	-0.9167328	0.4583664	-0.1718874	79.1827956	-4.26280752	-47.45238156
0.25	25	-0.079	-0.994	-0.138	-0.9167328	0.5156622	-0.1145916	79.21717308	-4.26280752	-47.44665198
0.26	26	-0.078	-0.993	-0.14	-0.9167328	0.4583664	-0.1718874	79.20571392	-4.25707794	-47.4409224
0.27	27	-0.078	-0.993	-0.139	-0.9167328	0.4583664	0	79.19425476	-4.25707794	-47.43519282
0.28	28	-0.077	-0.994	-0.138	-0.859437	0.5156622	0	79.1827956	-4.25707794	-47.42946324
0.29	29	-0.078	-0.993	-0.138	-0.9167328	0.5156622	0	79.17706602	-4.25707794	-47.42373366
0.3	30	-0.077	-0.994	-0.14	-0.9740286	0.572958	0	79.20571392	-4.25707794	-47.41800408
0.31	31	-0.076	-0.994	-0.14	-0.9740286	0.6302538	0	79.19998434	-4.25134836	-47.4122745
0.32	32	-0.076	-0.993	-0.141	-0.9740286	0.6875496	0.0572958	79.18852518	-4.25134836	-47.40081534
0.33	33	-0.076	-0.992	-0.141	-0.9167328	0.5156622	0.1145916	79.17706602	-4.25134836	-47.39508576
0.34	34	-0.078	-0.991	-0.141	-0.859437	0.4010706	0	79.16560686	-4.25134836	-47.39508576
0.35	35	-0.078	-0.991	-0.14	-0.1718874	0.286479	0	79.54948872	-4.29145542	-47.37216744
0.36	36	-0.078	-0.994	-0.138	-0.0572958	0.1145916	0	79.54948872	-4.29145542	-47.37216744
0.37	37	-0.079	-0.993	-0.139	-0.1145916	0.1718874	0	79.54375914	-4.29145542	-47.36643786
0.38	38	-0.077	-0.991	-0.142	-0.1145916	0.2291832	0	79.54375914	-4.29145542	-47.36643786
0.39	39	-0.076	-0.99	-0.144	-0.0572958	0	0.0572958	79.54375914	-4.29145542	-47.36643786
0.4	40	-0.078	-0.99	-0.141	-0.0572958	-0.1145916	0	79.68126906	-4.30864416	-47.36070828
0.41	41	-0.08	-0.99	-0.14	-0.1145916	0.0572958	-0.0572958	79.68126906	-4.30864416	-47.36070828
0.42	42	-0.08	-0.988	-0.142	-0.0572958	0	0.0572958	79.68126906	-4.30864416	-47.36070828
0.43	43	-0.078	-0.986	-0.142	-0.1718874	-0.1145916	0.0572958	79.68126906	-4.30864416	-47.36070828
0.44	44	-0.077	-0.988	-0.141	-0.0572958	-0.0572958	-0.0572958	79.68126906	-4.30864416	-47.36070828
0.45	45	-0.076	-0.991	-0.141	0	0.2291832	-0.2291832	79.73283528	-4.30291458	-47.3549787
0.46	46	-0.077	-0.994	-0.142	0.1145916	0	-0.1718874	79.73283528	-4.30291458	-47.3549787
0.47	47	-0.078	-1	-0.137	0.1145916	-0.3437748	0	79.73283528	-4.30291458	-47.36070828
0.48	48	-0.079	-1	-0.136	0	-0.4583664	0.0572958	79.73283528	-4.30291458	-47.36643786
0.49	49	-0.079	-0.995	-0.141	0	-0.286479	0	79.73283528	-4.30291458	-47.36643786
0.5	50	-0.078	-0.992	-0.141	0.2291832	-0.1718874	-0.0572958	79.77867192	-4.30291458	-47.37216744
0.51	51	-0.078	-0.991	-0.14	0.3437748	-0.286479	-0.1718874	79.7844015	-4.297185	-47.37216744
0.52	52	-0.079	-0.988	-0.141	0.3437748	-0.286479	-0.1718874	79.79013108	-4.297185	-47.37789702
0.53	53	-0.079	-0.984	-0.142	0.4583664	-0.286479	-0.0572958	79.79586066	-4.297185	-47.37789702
0.54	54	-0.078	-0.985	-0.143	0.5156622	-0.286479	0	79.80159024	-4.297185	-47.3836266
0.55	55	-0.078	-0.986	-0.141	0.572958	-0.3437748	0	79.83596772	-4.297185	-47.3836266
0.56	56	-0.078	-0.986	-0.141	0.5156622	-0.3437748	-0.1145916	79.8416973	-4.29145542	-47.38935618
0.57	57	-0.078	-0.987	-0.142	0.4010706	-0.1718874	-0.2291832	79.84742688	-4.29145542	-47.39508576
0.58	58	-0.078	-0.988	-0.142	0.5156622	-0.286479	-0.0572958	79.85315646	-4.29145542	-47.39508576
0.59	59	-0.077	-0.99	-0.143	0.4583664	-0.4010706	-0.1718874	79.85888604	-4.29145542	-47.40081534
0.6	60	-0.078	-0.989	-0.143	0.4010706	-0.4010706	-0.1145916	79.89326352	-4.29145542	-47.40081534
0.61	61	-0.079	-0.99	-0.143	0.286479	-0.3437748	-0.1718874	79.8989931	-4.29145542	-47.40654492
0.62	62	-0.079	-0.991	-0.143	0.5156622	-0.4010706	-0.1718874	79.90472268	-4.29145542	-47.4122745
0.63	63	-0.079	-0.993	-0.142	0.4583664	-0.286479	-0.1145916	79.91045226	-4.29145542	-47.41800408
0.64	64	-0.078	-0.996	-0.143	0.3437748	-0.2291832	-0.1145916	79.91045226	-4.29145542	-47.41800408
0.65	65	-0.08	-0.994	-0.144	0.4010706	-0.3437748	-0.0572958	79.93910016	-4.297185	-47.42373366
0.66	66	-0.081	-0.993	-0.143	0.286479	-0.2291832	0	79.94482974	-4.297185	-47.42373366
0.67	67	-0.08	-0.992	-0.142	0.286479	-0.0572958	0	79.94482974	-4.297185	-47.42373366
0.68	68	-0.08	-0.992	-0.143	0.2291832	0.1145916	-0.0572958	79.95055932	-4.297185	-47.42373366
0.69	69	-0.078	-0.992	-0.143	0.286479	0.1145916	-0.1718874	79.95055932	-4.29145542	-47.42373366
0.7	70	-0.076	-0.993	-0.141	0.286479	0.1145916	0	79.99066638	-4.28572584	-47.41800408
0.71	71	-0.077	-0.993	-0.14	0.286479	0	0	79.99066638	-4.28572584	-47.41800408
0.72	72	-0.078	-0.992	-0.141	0.2291832	0	0	79.99639596	-4.28572584	-47.41800408
0.73	73	-0.077	-0.991	-0.139	0.1718874	0	0	79.99639596	-4.28572584	-47.41800408
0.74	74	-0.077	-0.99	-0.14	0.2291832	-0.0572958	0	79.99639596	-4.28572584	-47.42373366
0.75	75	-0.078	-0.989	-0.14	0.2291832	0	-0.1145916	80.04796218	-4.28572584	-47.42373366
0.76	76	-0.077	-0.99	-0.141	0.1145916	0.1718874	-0.0572958	80.04796218	-4.28572584	-47.41800408
0.77	77	-0.077	-0.99	-0.14	0.2291832	0.0572958	-0.0572958	80.04796218	-4.27999626	-47.41800408
0.78	78	-0.076	-0.991	-0.139	0.1718874	0.1145916	-0.0572958	80.05369176	-4.27999626	-47.41800408
0.79	79	-0.076	-0.99	-0.138	0.1718874	0	-0.1145916	80.05369176	-4.27999626	-47.41800408
0.8	80	-0.077	-0.99	-0.138	0.286479	-0.1145916	-0.0572958	80.0995284	-4.27999626	-47.41800408
0.81	81	-0.077	-0.99	-0.139	0.4010706	-0.1145916	0	80.0995284	-4.27426668	-47.41800408
0.82	82	-0.078	-0.991	-0.14	0.3437748	0	-0.0572958	80.10525798	-4.27426668	-47.41800408
0.83	83	-0.078	-0.991	-0.14	0.4010706	0	-0.0572958	80.11098756	-4.27426668	-47.41800408
0.84	84	-0.078	-0.991	-0.14	0.4583664	0	-0.0572958	80.11671714	-4.27426668	-47.42373366
0.85	85	-0.078	-0.993	-0.139	0.4010706	0	0	80.16255378	-4.27426668	-47.41800408
0.86	86	-0.078	-0.993	-0.139	0.3437748	0	0	80.16255378	-4.27426668	-47.41800408
0.87	87	-0.078	-0.992	-0.14	0.1718874	0.0572958	0	80.16828336	-4.27426668	-47.41800408
0.88	88	-0.078	-0.992	-0.139	0.1718874	0	-0.0572958	80.16828336	-4.27426668	-47.41800408
0.89	89	-0.078	-0.992	-0.14	0.2291832	0.0572958	0	80.16828336	-4.27426668	-47.41800408
0.9	90	-0.078	-0.993	-0.14	0.2291832	0.1145916	0	80.21412	-4.27999626	-47.41800408
0.91	91	-0.078	-0.994	-0.139	0.1145916	0.0572958	-0.0572958	80.21984958	-4.27999626	-47.41800408
0.92	92	-0.079	-0.995	-0.139	0.0572958	0.0572958	0	80.21984958	-4.27999626	-47.41800408
0.93	93	-0.078	-0.994	-0.139	0	0.1718874	0	80.21984958	-4.27999626	-47.4122745
0.94	94	-0.077	-0.993	-0.139	0	0.2291832	0.0572958	80.21984958	-4.27999626	-47.4122745
0.95	95	-0.076	-0.992	-0.141	0	0.2291832	0.1145916	80.2427679	-4.27426668	-47.40654492
0.96	96	-0.075	-0.992	-0.141	0	0.0572958	0.1718874	80.2427679	-4.27426668	-47.40654492
0.97	97	-0.076	-0.992	-0.139	0	0	0.1718874	80.2427679	-4.27999626	-47.40654492
0.98	98	-0.077	-0.992	-0.139	0	-0.0572958	0.2291832	80.2427679	-4.27999626	-47.40654492
0.99	99	-0.079	-0.993	-0.137	0	0	0.2291832	80.2427679	-4.28572584	-47.40654492
1	100	-0.08	-0.991	-0.138	-0.0572958	0.1145916	0.1145916	80.2714158	-4.29145542	-47.40654492
1.01	101	-0.08	-0.991	-0.139	-0.0572958	0.1145916	0.0572958	80.2714158	-4.29145542	-47.40081534
1.02	102	-0.079	-0.99	-0.14	-0.0572958	0.2291832	0	80.26568622	-4.29145542	-47.40081534
1.03	103	-0.078	-0.992	-0.139	0	0.0572958	0.0572958	80.26568622	-4.29145542	-47.40081534
1.04	104	-0.079	-0.991	-0.138	0	0.1718874	0.1145916	80.26568622	-4.29145542	-47.39508576
1.05	105	-0.08	-0.991	-0.137	-0.0572958	0.3437748	0.1718874	80.29433412	-4.29145542	-47.39508576
1.06	106	-0.079	-0.992	-0.138	0.0572958	0.286479	0.286479	80.29433412	-4.297185	-47.38935618
1.07	107	-0.08	-0.992	-0.138	-0.0572958	0.1145916	0.2291832	80.29433412	-4.297185	-47.38935618
1.08	108	-0.078	-0.993	-0.138	-0.1718874	0.2291832	0.0572958	80.29433412	-4.297185	-47.3836266
1.09	109	-0.078	-0.995	-0.14	-0.1145916	0.3437748	0	80.28860454	-4.297185	-47.3836266
1.1	110	-0.076	-0.998	-0.138	-0.1145916	0.1718874	0.1145916	80.34017076	-4.27999626	-47.3836266
1.11	111	-0.076	-0.999	-0.135	-0.2291832	-0.0572958	0.286479	80.34017076	-4.28572584	-47.3836266
1.12	112	-0.077	-0.996	-0.137	-0.1145916	-0.1145916	0.3437748	80.34017076	-4.29145542	-47.3836266
1.13	113	-0.078	-0.996	-0.136	-0.0572958	0	0.286479	80.34017076	-4.29145542	-47.3836266
1.14	114	-0.076	-0.995	-0.136	-0.1145916	0.1145916	0.1718874	80.33444118	-4.29145542	-47.37789702
1.15	115	-0.076	-0.994	-0.135	-0.0572958	0	0.1718874	80.37454824	-4.28572584	-47.3836266
1.16	116	-0.076	-0.99	-0.136	-0.0572958	-0.0572958	0.1718874	80.37454824	-4.28572584	-47.3836266
1.17	117	-0.079	-0.989	-0.136	0	-0.0572958	0.0572958	80.37454824	-4.28572584	-47.3836266
1.18	118	-0.079	-0.988	-0.137	0	0	0	80.37454824	-4.28572584	-47.3836266
1.19	119	-0.079	-0.989	-0.138	0.0572958	0	-0.0572958	80.37454824	-4.28572584	-47.3836266
1.2	120	-0.079	-0.989	-0.136	0.0572958	0	-0.1145916	80.4146553	-4.29145542	-47.3836266
1.21	121	-0.078	-0.988	-0.138	0	0.1718874	-0.0572958	80.4146553	-4.28572584	-47.3836266
1.22	122	-0.078	-0.989	-0.138	0	0.286479	-0.0572958	80.4146553	-4.28572584	-47.37789702
1.23	123	-0.077	-0.99	-0.139	0.0572958	0.2291832	-0.1145916	80.4146553	-4.28572584	-47.37789702
1.24	124	-0.076	-0.99	-0.14	0.0572958	0	-0.0572958	80.4146553	-4.28572584	-47.37789702
1.25	125	-0.077	-0.991	-0.14	0.1718874	-0.1145916	-0.0572958	80.42611446	-4.27999626	-47.37789702
1.26	126	-0.078	-0.991	-0.14	0.1718874	-0.2291832	-0.0572958	80.43184404	-4.27999626	-47.37789702
1.27	127	-0.079	-0.992	-0.139	0.1145916	-0.1718874	-0.1145916	80.43184404	-4.27999626	-47.3836266
1.28	128	-0.08	-0.994	-0.138	0.0572958	-0.1145916	-0.1718874	80.43184404	-4.27426668	-47.3836266
1.29	129	-0.08	-0.995	-0.139	0.1145916	0	-0.0572958	80.43757362	-4.27426668	-47.3836266
1.3	130	-0.081	-0.996	-0.139	0.0572958	0	0	80.48341026	-4.29145542	-47.3836266
1.31	131	-0.08	-0.996	-0.136	0.0572958	0	0	80.48341026	-4.29145542	-47.3836266
1.32	132	-0.08	-0.996	-0.137	0.0572958	0.2291832	0	80.48341026	-4.29145542	-47.37789702
1.33	133	-0.078	-0.995	-0.137	0	0.286479	0	80.48341026	-4.29145542	-47.37789702
1.34	134	-0.078	-0.996	-0.137	0	0.0572958	0	80.48341026	-4.29145542	-47.37789702
1.35	135	-0.078	-0.993	-0.138	-0.1145916	0	0	80.50632858	-4.297185	-47.37789702
1.36	136	-0.077	-0.991	-0.138	-0.1145916	-0.0572958	0.0572958	80.500599	-4.297185	-47.37789702
1.37	137	-0.079	-0.991	-0.137	-0.0572958	0	0	80.500599	-4.297185	-47.37789702
1.38	138	-0.079	-0.991	-0.137	-0.0572958	0	0.0572958	80.500599	-4.297185	-47.37789702
1.39	139	-0.08	-0.991	-0.137	0	0	0	80.500599	-4.297185	-47.37789702
1.4	140	-0.079	-0.991	-0.137	0.1145916	0	0.0572958	80.52351732	-4.30291458	-47.37789702
1.41	141	-0.078	-0.99	-0.137	0.1145916	0	0	80.52351732	-4.30291458	-47.37789702
1.42	142	-0.078	-0.99	-0.137	0.0572958	0	0	80.52351732	-4.30291458	-47.37789702
1.43	143	-0.079	-0.991	-0.137	0.0572958	0	0	80.5292469	-4.30291458	-47.37789702
1.44	144	-0.079	-0.992	-0.135	0.1145916	0.0572958	0	80.5292469	-4.30291458	-47.37789702
1.45	145	-0.079	-0.992	-0.135	0.0572958	0.1145916	0	80.56362438	-4.30291458	-47.37216744
1.46	146	-0.078	-0.993	-0.134	0.0572958	0.0572958	0	80.56362438	-4.30291458	-47.37216744
1.47	147	-0.079	-0.993	-0.136	0.1145916	0.1718874	0	80.56362438	-4.30291458	-47.37216744
1.48	148	-0.079	-0.993	-0.135	0.1145916	0.0572958	0	80.56935396	-4.30291458	-47.37216744
1.49	149	-0.078	-0.994	-0.135	0.1145916	0	0	80.56935396	-4.30291458	-47.37216744
1.5	150	-0.078	-0.993	-0.135	0.1145916	0	0	80.60373144	-4.29145542	-47.37216744
1.51	151	-0.078	-0.993	-0.135	0.1145916	-0.2291832	-0.1145916	80.60946102	-4.29145542	-47.37789702
1.52	152	-0.078	-0.992	-0.134	0.0572958	-0.1718874	-0.1145916	80.60946102	-4.28572584	-47.37789702
1.53	153	-0.08	-0.993	-0.135	0	-0.1718874	-0.0572958	80.60946102	-4.28572584	-47.37789702
1.54	154	-0.081	-0.994	-0.134	-0.0572958	-0.0572958	-0.1145916	80.60946102	-4.28572584	-47.3836266
1.55	155	-0.082	-0.994	-0.134	0	0	-0.1145916	80.63810892	-4.30291458	-47.37789702
1.56	156	-0.082	-0.995	-0.134	0	-0.0572958	-0.1718874	80.63810892	-4.30291458	-47.3836266
1.57	157	-0.081	-0.994	-0.135	-0.1718874	0.1145916	-0.1145916	80.63810892	-4.297185	-47.37789702
1.58	158	-0.079	-0.994	-0.134	-0.1145916	0.1718874	0	80.63237934	-4.297185	-47.37789702
1.59	159	-0.079	-0.994	-0.134	-0.1718874	0.1145916	0	80.63237934	-4.297185	-47.37789702
1.6	160	-0.078	-0.993	-0.135	-0.3437748	0.0572958	0	80.64956808	-4.28572584	-47.37789702
1.61	161	-0.078	-0.994	-0.134	-0.3437748	0	0	80.6438385	-4.28572584	-47.37789702
1.62	162	-0.078	-0.993	-0.135	-0.4583664	0.0572958	-0.1145916	80.63810892	-4.28572584	-47.37789702
1.63	163	-0.077	-0.993	-0.135	-0.3437748	0	-0.1145916	80.63237934	-4.28572584	-47.37789702
1.64	164	-0.077	-0.993	-0.136	-0.4583664	-0.1145916	-0.1718874	80.63237934	-4.27999626	-47.37789702
1.65	165	-0.078	-0.994	-0.135	-0.4010706	-0.1718874	-0.1145916	80.63810892	-4.27999626	-47.37789702
1.66	166	-0.079	-0.993	-0.133	-0.3437748	-0.286479	-0.0572958	80.63237934	-4.27999626	-47.3836266
1.67	167	-0.081	-0.991	-0.132	-0.4583664	-0.2291832	-0.1145916	80.62664976	-4.27999626	-47.38935618
1.68	168	-0.081	-0.991	-0.132	-0.4010706	-0.0572958	-0.0572958	80.62092018	-4.27999626	-47.38935618
1.69	169	-0.081	-0.992	-0.132	-0.4010706	0.0572958	-0.1145916	80.62092018	-4.27426668	-47.38935618
1.7	170	-0.081	-0.993	-0.135	-0.5156622	0.2291832	-0.1718874	80.6151906	-4.27999626	-47.3836266
1.71	171	-0.079	-0.995	-0.136	-0.5156622	0.2291832	-0.1145916	80.60946102	-4.27426668	-47.3836266
1.72	172	-0.077	-0.999	-0.132	-0.572958	0	0	80.60373144	-4.27426668	-47.3836266
1.73	173	-0.077	-0.997	-0.132	-0.572958	-0.3437748	0.1145916	80.59800186	-4.27999626	-47.3836266
1.74	174	-0.078	-0.994	-0.137	-0.572958	-0.3437748	0.1145916	80.59227228	-4.27999626	-47.38935618
1.75	175	-0.079	-0.995	-0.135	-0.4583664	-0.3437748	0	80.60373144	-4.28572584	-47.39508576
1.76	176	-0.079	-0.996	-0.134	-0.4010706	-0.4010706	-0.0572958	80.59800186	-4.28572584	-47.39508576
1.77	177	-0.078	-0.995	-0.135	-0.4010706	-0.286479	-0.1145916	80.59227228	-4.28572584	-47.40081534
1.78	178	-0.081	-0.994	-0.134	-0.3437748	-0.2291832	-0.0572958	80.59227228	-4.27999626	-47.40081534
1.79	179	-0.083	-0.993	-0.134	-0.1718874	-0.0572958	-0.0572958	80.5865427	-4.27999626	-47.40654492
1.8	180	-0.082	-0.992	-0.135	-0.286479	0	-0.1145916	80.60373144	-4.29145542	-47.40081534
1.81	181	-0.079	-0.991	-0.135	-0.2291832	0	-0.0572958	80.59800186	-4.29145542	-47.40081534
1.82	182	-0.077	-0.992	-0.135	-0.3437748	0.0572958	-0.0572958	80.59227228	-4.29145542	-47.40081534
1.83	183	-0.08	-0.99	-0.136	-0.4010706	0	-0.0572958	80.59227228	-4.29145542	-47.40081534
1.84	184	-0.078	-0.991	-0.136	-0.4010706	0	-0.1145916	80.5865427	-4.28572584	-47.40081534
1.85	185	-0.079	-0.99	-0.135	-0.286479	-0.1145916	-0.1145916	80.5865427	-4.29145542	-47.40654492
1.86	186	-0.079	-0.99	-0.137	-0.3437748	-0.1145916	-0.1718874	80.5865427	-4.29145542	-47.40654492
1.87	187	-0.079	-0.99	-0.137	-0.3437748	-0.1718874	-0.1145916	80.58081312	-4.28572584	-47.40654492
1.88	188	-0.08	-0.99	-0.137	-0.2291832	-0.2291832	-0.1145916	80.58081312	-4.28572584	-47.4122745
1.89	189	-0.081	-0.992	-0.137	-0.0572958	-0.1145916	-0.0572958	80.58081312	-4.28572584	-47.4122745
1.9	190	-0.08	-0.991	-0.137	-0.0572958	-0.0572958	0	80.59800186	-4.30864416	-47.4122745
1.91	191	-0.081	-0.992	-0.138	0	-0.0572958	0	80.59800186	-4.30864416	-47.4122745
1.92	192	-0.081	-0.994	-0.137	0	0	0.0572958	80.59800186	-4.30864416	-47.4122745
1.93	193	-0.08	-0.995	-0.137	-0.0572958	0.0572958	0	80.59800186	-4.30864416	-47.4122745
1.94	194	-0.079	-0.994	-0.138	-0.1718874	0.0572958	0.0572958	80.59227228	-4.30864416	-47.4122745
1.95	195	-0.079	-0.995	-0.136	-0.2291832	0.0572958	0.1145916	80.60946102	-4.30864416	-47.4122745
1.96	196	-0.079	-0.994	-0.137	-0.1718874	-0.1145916	0.1145916	80.60946102	-4.31437374	-47.4122745
1.97	197	-0.081	-0.993	-0.137	-0.1145916	-0.1145916	0.0572958	80.60946102	-4.31437374	-47.4122745
1.98	198	-0.08	-0.993	-0.137	0	-0.0572958	0	80.60946102	-4.31437374	-47.41800408
1.99	199	-0.08	-0.996	-0.139	0.0572958	0.1145916	-0.0572958	80.60946102	-4.31437374	-47.4122745
2	200	-0.079	-0.997	-0.142	-0.0572958	0.0572958	0.1145916	80.60373144	-4.30864416	-47.4122745
2.01	201	-0.077	-0.994	-0.138	0.0572958	-0.2291832	0.286479	80.60946102	-4.31437374	-47.41800408
2.02	202	-0.077	-0.99	-0.137	0.0572958	-0.1145916	0.2291832	80.60946102	-4.31437374	-47.41800408
2.03	203	-0.078	-0.989	-0.138	0.0572958	-0.0572958	0	80.60946102	-4.31437374	-47.41800408
2.04	204	-0.078	-0.989	-0.14	0.0572958	-0.0572958	-0.0572958	80.60946102	-4.31437374	-47.41800408
2.05	205	-0.08	-0.988	-0.138	0.1718874	-0.1718874	-0.1718874	80.6151906	-4.31437374	-47.41800408
2.06	206	-0.081	-0.988	-0.137	0.286479	-0.1718874	-0.286479	80.6151906	-4.31437374	-47.42373366
2.07	207	-0.082	-0.988	-0.138	0.286479	0	-0.286479	80.62092018	-4.30864416	-47.42373366
2.08	208	-0.081	-0.988	-0.136	0.4010706	0.1145916	-0.286479	80.62664976	-4.30864416	-47.42373366
2.09	209	-0.079	-0.99	-0.136	0.572958	0.1145916	-0.286479	80.63237934	-4.30291458	-47.42373366
2.1	210	-0.078	-0.989	-0.138	0.572958	0.0572958	-0.3437748	80.63810892	-4.30291458	-47.42373366
2.11	211	-0.08	-0.989	-0.139	0.6875496	0.1145916	-0.4010706	80.6438385	-4.297185	-47.41800408
2.12	212	-0.081	-0.989	-0.139	0.859437	0.572958	-0.6302538	80.65529766	-4.29145542	-47.41800408
2.13	213	-0.081	-0.986	-0.14	1.0886202	0.8021412	-0.8021412	80.66675682	-4.27999626	-47.40654492
2.14	214	-0.081	-0.985	-0.133	1.4896908	0.859437	-0.9167328	80.67821598	-4.2685371	-47.40081534
2.15	215	-0.08	-0.987	-0.139	1.6615782	1.0886202	-1.0313244	80.69540472	-4.25707794	-47.38935618
2.16	216	-0.084	-0.991	-0.14	1.6615782	0.9167328	-0.9740286	80.71259346	-4.24561878	-47.3836266
2.17	217	-0.082	-0.993	-0.137	1.8334656	1.3178034	-1.145916	80.7297822	-4.23415962	-47.37216744
2.18	218	-0.074	-0.994	-0.14	1.6615782	2.1199446	-1.2605076	80.74697094	-4.21697088	-47.3549787
2.19	219	-0.074	-0.995	-0.141	1.6042824	1.5469866	-1.2605076	80.7584301	-4.20551172	-47.33778996
2.2	220	-0.07	-0.992	-0.137	1.718874	1.0313244	-1.0886202	80.77561884	-4.18832298	-47.33206038
2.21	221	-0.068	-0.987	-0.129	2.0626488	0.4010706	-1.0313244	80.79853716	-4.17686382	-47.3263308
2.22	222	-0.063	-0.985	-0.123	2.291832	0.2291832	-1.3178034	80.82145548	-4.15967508	-47.3263308
2.23	223	-0.061	-0.987	-0.125	2.578311	0.1145916	-1.6615782	80.85010338	-4.14248634	-47.3263308
2.24	224	-0.065	-0.987	-0.121	2.8074942	0.0572958	-2.1199446	80.87875128	-4.1252976	-47.33206038
2.25	225	-0.065	-0.988	-0.119	2.9793816	0.4010706	-2.5210152	80.91312876	-4.0966497	-47.33206038
2.26	226	-0.065	-0.99	-0.123	2.9793816	0.7448454	-2.86479	80.94177666	-4.06227222	-47.3263308
2.27	227	-0.065	-0.993	-0.122	3.151269	1.145916	-2.9793816	80.97615414	-4.03362432	-47.32060122
2.28	228	-0.064	-0.997	-0.121	3.3804522	1.432395	-2.9793816	81.01053162	-3.99924684	-47.30914206
2.29	229	-0.061	-1.004	-0.123	3.0366774	1.8334656	-2.9793816	81.03917952	-3.97059894	-47.2976829
2.3	230	-0.058	-1.007	-0.125	2.6356068	1.8907614	-2.8074942	81.06782742	-3.93622146	-47.28049416
2.31	231	-0.055	-1.011	-0.125	2.3491278	1.718874	-2.3491278	81.09074574	-3.90757356	-47.269035
2.32	232	-0.053	-1.018	-0.13	1.432395	1.2032118	-1.7761698	81.1022049	-3.89038482	-47.25757584
2.33	233	-0.055	-1.019	-0.14	0.4010706	0.4010706	-1.145916	81.10793448	-3.87319608	-47.25757584
2.34	234	-0.064	-1.018	-0.151	-0.4583664	-0.1718874	-0.6875496	81.1022049	-3.8674665	-47.25757584
2.35	235	-0.074	-1.016	-0.15	-1.0886202	-0.4010706	-0.6302538	81.07928658	-3.8674665	-47.26330542
2.36	236	-0.081	-1.012	-0.147	-1.3178034	-0.4010706	-0.6302538	81.06782742	-3.86173692	-47.269035
2.37	237	-0.088	-1.007	-0.145	-1.6042824	-0.4010706	-0.6875496	81.05063868	-3.85600734	-47.27476458
2.38	238	-0.093	-1.008	-0.143	-1.8907614	-0.286479	-0.6875496	81.02772036	-3.85027776	-47.28049416
2.39	239	-0.094	-1.009	-0.138	-2.291832	-0.2291832	-0.2291832	81.00480204	-3.84454818	-47.28049416
2.4	240	-0.092	-1.002	-0.132	-2.4637194	-0.4583664	0.4583664	80.9876133	-3.86173692	-47.28622374
2.41	241	-0.087	-0.996	-0.129	-2.578311	-0.7448454	1.2605076	80.9589654	-3.87892566	-47.29195332
2.42	242	-0.08	-0.99	-0.13	-2.86479	-1.2605076	1.8334656	80.9303175	-3.8961144	-47.30341248
2.43	243	-0.075	-0.984	-0.128	-2.86479	-1.8334656	2.2345362	80.9016696	-3.9247623	-47.31487164
2.44	244	-0.074	-0.978	-0.128	-2.4064236	-2.4637194	2.1772404	80.87875128	-3.94768062	-47.33778996
2.45	245	-0.078	-0.974	-0.124	-2.0626488	-2.8074942	1.8334656	80.86156254	-3.97632852	-47.36070828
2.46	246	-0.087	-0.973	-0.121	-1.718874	-2.5210152	1.3178034	80.85010338	-3.99351726	-47.38935618
2.47	247	-0.092	-0.973	-0.118	-1.3750992	-1.8334656	0.9167328	80.83291464	-4.00497642	-47.40081534
2.48	248	-0.093	-0.975	-0.118	-0.9740286	-1.0313244	0.6875496	80.82718506	-4.010706	-47.4122745
2.49	249	-0.093	-0.978	-0.119	-0.7448454	-0.4010706	0.9167328	80.8157259	-4.02216516	-47.41800408
2.5	250	-0.091	-0.981	-0.123	-0.6875496	0.1718874	1.4896908	80.82145548	-4.05081306	-47.4122745
2.51	251	-0.083	-0.983	-0.128	-0.6302538	0.4010706	2.291832	80.80999632	-4.07373138	-47.40654492
2.52	252	-0.079	-0.983	-0.129	-0.4010706	0.1718874	2.86479	80.80426674	-4.10237928	-47.39508576
2.53	253	-0.075	-0.986	-0.129	-0.1145916	0	3.0939732	80.80426674	-4.13102718	-47.38935618
2.54	254	-0.077	-0.991	-0.136	-0.3437748	-0.1718874	3.0366774	80.80426674	-4.15967508	-47.38935618
2.55	255	-0.084	-0.997	-0.141	-0.6302538	-0.4010706	2.86479	80.79280758	-4.19405256	-47.38935618
2.56	256	-0.086	-1.002	-0.143	-0.8021412	-0.4583664	2.6356068	80.787078	-4.22270046	-47.38935618
2.57	257	-0.086	-1.006	-0.148	-0.9167328	-0.4010706	2.3491278	80.77561884	-4.24561878	-47.38935618
2.58	258	-0.086	-1.008	-0.148	-1.4896908	-0.1718874	2.2345362	80.7584301	-4.2685371	-47.38935618
2.59	259	-0.084	-1.009	-0.147	-2.005353	0.1145916	2.3491278	80.73551178	-4.29145542	-47.3836266
2.6	260	-0.087	-1.008	-0.147	-2.3491278	0.4010706	2.4064236	80.71259346	-4.32010332	-47.37789702
2.61	261	-0.085	-1.006	-0.148	-2.5210152	0.9167328	2.6356068	80.68394556	-4.34302164	-47.36070828
2.62	262	-0.082	-1.006	-0.146	-2.9793816	1.432395	2.7501984	80.65529766	-4.36593996	-47.34351954
2.63	263	-0.077	-1.003	-0.148	-3.2085648	1.6615782	2.8074942	80.62092018	-4.39458786	-47.32060122
2.64	264	-0.077	-1	-0.146	-3.4950438	1.718874	2.6929026	80.58081312	-4.41750618	-47.30341248
2.65	265	-0.074	-0.995	-0.146	-3.7815228	2.005353	2.4637194	80.54070606	-4.4404245	-47.28049416
2.66	266	-0.072	-0.989	-0.148	-3.7815228	1.9480572	2.2345362	80.49486942	-4.45761324	-47.25757584
2.67	267	-0.071	-0.987	-0.15	-3.6669312	1.7761698	1.9480572	80.46049194	-4.47480198	-47.23465752
2.68	268	-0.071	-0.982	-0.144	-3.3804522	1.4896908	1.6615782	80.42038488	-4.49199072	-47.21746878
2.69	269	-0.07	-0.98	-0.139	-3.151269	1.432395	1.2032118	80.3860074	-4.50344988	-47.20028004
2.7	270	-0.068	-0.979	-0.137	-2.86479	1.3178034	0.9740286	80.36308908	-4.50344988	-47.18882088
2.71	271	-0.067	-0.977	-0.138	-2.6929026	0.9740286	0.6875496	80.33444118	-4.50917946	-47.17736172
2.72	272	-0.068	-0.978	-0.138	-2.4064236	0.572958	0.4010706	80.30579328	-4.50917946	-47.17163214
2.73	273	-0.069	-0.979	-0.138	-2.0626488	0.1718874	0.2291832	80.28287496	-4.51490904	-47.17163214
2.74	274	-0.07	-0.979	-0.138	-1.7761698	0	0.0572958	80.26568622	-4.51490904	-47.17163214
2.75	275	-0.07	-0.98	-0.138	-1.432395	-0.4010706	0	80.25995664	-4.50344988	-47.17163214
2.76	276	-0.073	-0.981	-0.137	-1.0313244	-0.9167328	0.0572958	80.24849748	-4.50917946	-47.1830913
2.77	277	-0.075	-0.984	-0.136	-0.8021412	-1.3178034	0.1145916	80.2427679	-4.50917946	-47.19455046
2.78	278	-0.079	-0.986	-0.133	-0.572958	-1.432395	0.0572958	80.23703832	-4.51490904	-47.2117392
2.79	279	-0.083	-0.99	-0.131	-0.4010706	-1.3178034	0.0572958	80.23703832	-4.51490904	-47.22319836
2.8	280	-0.084	-0.995	-0.136	-0.6302538	-1.2032118	0.0572958	80.2427679	-4.51490904	-47.23465752
2.81	281	-0.082	-1.002	-0.14	-0.9167328	-1.0313244	0.286479	80.23703832	-4.52063862	-47.24611668
2.82	282	-0.079	-1.004	-0.141	-1.0886202	-1.0313244	0.4583664	80.22557916	-4.5263682	-47.25757584
2.83	283	-0.076	-0.999	-0.126	-0.8021412	-1.6042824	0.6302538	80.21984958	-4.53782736	-47.269035
2.84	284	-0.08	-0.998	-0.119	-0.6875496	-1.6042824	0.3437748	80.21412	-4.54355694	-47.28622374
2.85	285	-0.086	-1.008	-0.133	-1.8907614	-0.8021412	-0.2291832	80.20266084	-4.54355694	-47.29195332
2.86	286	-0.089	-1.018	-0.136	-3.0939732	-0.1145916	-0.6875496	80.16828336	-4.53782736	-47.2976829
2.87	287	-0.085	-1.02	-0.129	-3.724227	0.5156622	-0.9740286	80.13390588	-4.5263682	-47.29195332
2.88	288	-0.086	-1.024	-0.132	-4.4117766	0.1718874	-0.8021412	80.08806924	-4.52063862	-47.29195332
2.89	289	-0.09	-1.018	-0.129	-5.5576926	-0.4010706	-0.3437748	80.03077344	-4.52063862	-47.2976829
2.9	290	-0.092	-1.009	-0.128	-6.4171296	-0.4010706	-0.1718874	79.97347764	-4.52063862	-47.30341248
2.91	291	-0.093	-1.005	-0.12	-7.0473834	-0.6875496	-0.0572958	79.90472268	-4.52063862	-47.31487164
2.92	292	-0.091	-1.006	-0.11	-7.8495246	-0.5156622	-0.1718874	79.82450856	-4.52063862	-47.32060122
2.93	293	-0.091	-1.008	-0.111	-9.3965112	-0.4010706	-0.4583664	79.7271057	-4.52063862	-47.3263308
2.94	294	-0.092	-1.017	-0.121	-11.45916	-0.8021412	-0.859437	79.6125141	-4.51490904	-47.33778996
2.95	295	-0.094	-1.026	-0.128	-13.4072172	-1.3750992	-1.2032118	79.48646334	-4.50344988	-47.3549787
2.96	296	-0.093	-1.032	-0.13	-14.896908	-1.2605076	-1.3178034	79.33749426	-4.4977203	-47.37216744
2.97	297	-0.096	-1.038	-0.138	-16.2147114	-1.2605076	-1.0313244	79.17133644	-4.48626114	-47.38935618
2.98	298	-0.098	-1.037	-0.136	-17.8189938	-1.3750992	-0.4583664	78.99371946	-4.48626114	-47.40081534
2.99	299	-0.101	-1.034	-0.129	-19.5378678	-1.2032118	-0.0572958	78.79318416	-4.49199072	-47.41800408
3	300	-0.104	-1.028	-0.124	-20.8556712	-0.9740286	-0.1145916	78.59264886	-4.4977203	-47.42946324
3.01	301	-0.106	-1.023	-0.118	-22.345362	0	-0.2291832	78.36346566	-4.4977203	-47.42946324
3.02	302	-0.106	-1.019	-0.115	-24.064236	1.0886202	-0.2291832	78.11709372	-4.49199072	-47.42373366
3.03	303	-0.105	-1.016	-0.111	-25.6685184	2.1199446	-0.2291832	77.85926262	-4.49199072	-47.40654492
3.04	304	-0.105	-1.02	-0.117	-27.3873924	3.0366774	-0.2291832	77.5785132	-4.48626114	-47.37789702
3.05	305	-0.106	-1.027	-0.126	-29.3927454	3.724227	-0.2291832	77.28057504	-4.48053156	-47.34924912
3.06	306	-0.107	-1.035	-0.142	-32.0283522	4.7555514	-0.4583664	76.95398898	-4.4690724	-47.30341248
3.07	307	-0.102	-1.041	-0.159	-34.7785506	5.8441716	-0.572958	76.59302544	-4.45761324	-47.25184626
3.08	308	-0.097	-1.041	-0.167	-36.7839036	6.9327918	-0.7448454	76.21487316	-4.4404245	-47.18882088
3.09	309	-0.089	-1.039	-0.168	-38.3308902	7.448454	-0.6302538	75.81953214	-4.42323576	-47.12006592
3.1	310	-0.084	-1.038	-0.168	-40.1643558	7.734933	-0.4583664	75.40700238	-4.40031744	-47.05131096
3.11	311	-0.079	-1.039	-0.173	-42.5707794	7.8495246	-0.286479	74.9715543	-4.38885828	-46.982556
3.12	312	-0.075	-1.04	-0.172	-44.977203	7.5630456	-0.1718874	74.50745832	-4.37166954	-46.91380104
3.13	313	-0.067	-1.039	-0.176	-47.3836266	7.2765666	-0.286479	74.02044402	-4.3544808	-46.84504608
3.14	314	-0.06	-1.041	-0.185	-50.3630082	6.7036086	-0.4583664	73.50478182	-4.34302164	-46.78775028
3.15	315	-0.053	-1.039	-0.188	-53.4569814	6.016059	-0.7448454	72.96047172	-4.32010332	-46.73618406
3.16	316	-0.047	-1.034	-0.192	-55.9779966	5.2139178	-1.145916	72.38751372	-4.30291458	-46.696077
3.17	317	-0.044	-1.033	-0.195	-58.6708992	4.3544808	-1.718874	71.7916374	-4.27999626	-46.6674291
3.18	318	-0.05	-1.033	-0.199	-61.592985	3.3804522	-2.3491278	71.1613836	-4.25707794	-46.64451078
3.19	319	-0.057	-1.035	-0.192	-64.2858876	2.4637194	-2.9793816	70.50821148	-4.22843004	-46.6387812
3.2	320	-0.066	-1.037	-0.182	-67.5517482	1.9480572	-3.2658606	69.83212104	-4.19978214	-46.63305162
3.21	321	-0.068	-1.034	-0.196	-71.046792	1.718874	-3.2085648	69.11019396	-4.17113424	-46.63305162
3.22	322	-0.073	-1.025	-0.213	-74.198061	1.4896908	-2.9793816	68.3538894	-4.14821592	-46.6387812
3.23	323	-0.079	-1.015	-0.22	-76.9482594	1.7761698	-2.6929026	67.57466652	-4.1252976	-46.6387812
3.24	324	-0.081	-1.007	-0.221	-79.4119788	2.291832	-2.7501984	66.76679574	-4.0966497	-46.63305162
3.25	325	-0.075	-0.993	-0.211	-81.4173318	2.005353	-2.86479	65.9474658	-4.07373138	-46.63305162
3.26	326	-0.077	-0.981	-0.198	-82.6205436	2.4064236	-2.86479	65.10521754	-4.05081306	-46.62732204
3.27	327	-0.079	-0.97	-0.212	-83.8237554	3.9534102	-2.6929026	64.2572397	-4.02216516	-46.6101333
3.28	328	-0.066	-0.964	-0.228	-84.224826	4.870143	-2.8074942	63.3978027	-3.98778768	-46.5814854
3.29	329	-0.054	-0.969	-0.237	-85.5426294	3.3231564	-2.4064236	62.52690654	-3.95913978	-46.57002624
3.3	330	-0.056	-0.965	-0.247	-86.1728832	2.9220858	-1.7761698	61.66173996	-3.94195104	-46.55856708
3.31	331	-0.058	-0.959	-0.273	-85.8864042	3.4950438	-1.2032118	60.78511422	-3.9247623	-46.53564876
3.32	332	-0.063	-0.952	-0.283	-87.2615034	2.1199446	-0.7448454	59.89702932	-3.91903272	-46.52991918
3.33	333	-0.073	-0.938	-0.288	-88.6366026	0.9167328	-0.9740286	58.99748526	-3.91903272	-46.52991918
3.34	334	-0.078	-0.922	-0.312	-89.094969	0.0572958	-1.8907614	58.0979412	-3.91330314	-46.54137834
3.35	335	-0.065	-0.915	-0.316	-88.9230816	-0.9740286	-3.0366774	57.20412672	-3.90184398	-46.57575582
3.36	336	-0.055	-0.914	-0.333	-89.1522648	-1.5469866	-3.8388186	56.29885308	-3.89038482	-46.6101333
3.37	337	-0.05	-0.904	-0.367	-88.8657858	-1.8907614	-4.3544808	55.39930902	-3.87892566	-46.65596994
3.38	338	-0.047	-0.895	-0.39	-88.9230816	-3.4950438	-5.2712136	54.50549454	-3.8674665	-46.71899532
3.39	339	-0.061	-0.885	-0.406	-89.667927	-4.1252976	-6.7036086	53.6002209	-3.84454818	-46.79920944
3.4	340	-0.084	-0.867	-0.417	-89.8398144	-4.9847346	-8.6516658	52.70067684	-3.82162986	-46.8966123
3.41	341	-0.095	-0.847	-0.423	-89.5533354	-6.2452422	-10.6570188	51.80113278	-3.7815228	-47.0112039
3.42	342	-0.083	-0.828	-0.445	-89.0376732	-8.1932994	-12.318597	50.9073183	-3.74714532	-47.16017298
3.43	343	-0.06	-0.816	-0.463	-88.6366026	-11.0007936	-13.6364004	50.0192334	-3.724227	-47.33206038
3.44	344	-0.035	-0.802	-0.455	-87.2042076	-13.5791046	-15.0114996	49.14833724	-3.70703826	-47.53832526
3.45	345	0.003	-0.786	-0.448	-85.9437	-15.2406828	-16.7876694	48.29462982	-3.68411994	-47.76750846
3.46	346	0.039	-0.768	-0.456	-85.4853336	-16.5011904	-18.5065434	47.44665198	-3.6669312	-48.01960998
3.47	347	0.049	-0.756	-0.473	-84.6831924	-18.2200644	-19.767051	46.6101333	-3.65547204	-48.28890024
3.48	348	0.024	-0.731	-0.491	-84.4540092	-19.480572	-20.626488	45.76788504	-3.64401288	-48.58110882
3.49	349	-0.005	-0.709	-0.505	-83.5945722	-20.4546006	-20.912967	44.94282552	-3.64974246	-48.8733174
3.5	350	-0.041	-0.697	-0.52	-82.2767688	-20.9702628	-20.2254174	44.13495474	-3.66120162	-49.17125556
3.51	351	-0.069	-0.692	-0.553	-81.073557	-21.5432208	-19.194093	43.33281354	-3.68984952	-49.46346414
3.52	352	-0.081	-0.701	-0.564	-79.2400914	-22.631841	-18.5065434	42.54786108	-3.73568616	-49.75567272
3.53	353	-0.076	-0.724	-0.582	-77.7504006	-23.3193906	-18.048177	41.78009736	-3.79298196	-50.0478813
3.54	354	-0.07	-0.732	-0.61	-76.203414	-24.5798982	-17.6471064	41.02952238	-3.86173692	-50.34581946
3.55	355	-0.057	-0.733	-0.635	-74.5418358	-25.78311	-17.5898106	40.30186572	-3.94768062	-50.65521678
3.56	356	-0.04	-0.738	-0.663	-73.338624	-26.5279554	-18.3919518	39.57993864	-4.0393539	-50.97034368
3.57	357	-0.031	-0.75	-0.678	-72.0781164	-27.4446882	-19.194093	38.8752003	-4.13102718	-51.29692974
3.58	358	-0.046	-0.753	-0.694	-71.7343416	-27.6165756	-19.6524594	38.17619154	-4.22843004	-51.6235158
3.59	359	-0.076	-0.744	-0.715	-71.2759752	-26.929026	-20.05353	37.48291236	-4.32010332	-51.95583144
3.6	360	-0.099	-0.736	-0.731	-70.5884256	-26.0122932	-20.6837838	36.79536276	-4.40604702	-52.27668792
3.61	361	-0.107	-0.736	-0.748	-69.4425096	-25.8977016	-21.3140376	36.11927232	-4.49199072	-52.60900356
3.62	362	-0.095	-0.741	-0.762	-68.5830726	-27.0436176	-21.6005166	35.45464104	-4.58939358	-52.94704878
3.63	363	-0.063	-0.747	-0.767	-68.0101146	-29.0489706	-21.772404	34.79573934	-4.70398518	-53.29655316
3.64	364	-0.03	-0.74	-0.761	-67.4371566	-31.6845774	-21.772404	34.14256722	-4.84722468	-53.6575167
3.65	365	-0.015	-0.726	-0.76	-67.036086	-33.7472262	-21.8296998	33.50658384	-5.00192334	-54.03566898
3.66	366	-0.01	-0.716	-0.765	-66.5204238	-34.7785506	-22.4026578	32.86487088	-5.17381074	-54.41955084
3.67	367	-0.028	-0.715	-0.781	-65.7182826	-35.4661002	-22.8037284	32.24034666	-5.35142772	-54.80916228
3.68	368	-0.053	-0.707	-0.786	-64.9734372	-36.4974246	-23.0902074	31.62155202	-5.53477428	-55.2045033
3.69	369	-0.086	-0.705	-0.784	-64.1140002	-37.1849742	-23.204799	31.01421654	-5.73530958	-55.59984432
3.7	370	-0.101	-0.71	-0.777	-63.2545632	-38.0444112	-23.2620948	30.4240698	-5.94157446	-56.00091492
3.71	371	-0.106	-0.719	-0.767	-62.8534926	-37.815228	-23.4339822	29.83392306	-6.15356892	-56.40198552
3.72	372	-0.081	-0.73	-0.771	-62.5097178	-37.0130868	-24.1215318	29.2495059	-6.35410422	-56.79732654
3.73	373	-0.057	-0.758	-0.781	-61.9940556	-37.24227	-25.210152	28.67081832	-6.5603691	-57.2098563
3.74	374	-0.039	-0.782	-0.778	-62.165943	-38.0444112	-25.8977016	28.09213074	-6.77236356	-57.62238606
3.75	375	-0.018	-0.802	-0.788	-63.311859	-38.8465524	-26.4706596	27.51344316	-6.9900876	-58.04637498
3.76	376	-0.006	-0.809	-0.799	-64.9734372	-39.9351726	-26.4706596	26.91183726	-7.22500038	-58.47609348
3.77	377	-0.005	-0.804	-0.802	-66.463128	-41.4821592	-25.8404058	26.29304262	-7.4771019	-58.9000824
3.78	378	-0.016	-0.794	-0.801	-68.9841432	-43.2010332	-25.0955604	25.65705924	-7.75785132	-59.32407132
3.79	379	-0.027	-0.79	-0.791	-71.7343416	-45.4928652	-24.923673	24.99242796	-8.06151906	-59.75378982
3.8	380	-0.047	-0.791	-0.773	-74.1407652	-46.7533728	-25.496631	24.31633752	-8.37664596	-60.1892379
3.81	381	-0.041	-0.801	-0.75	-76.6617804	-47.7274014	-26.2987722	23.61159918	-8.7089616	-60.63614514
3.82	382	-0.035	-0.803	-0.73	-79.4119788	-49.1025006	-26.642547	22.87821294	-9.0527364	-61.08305238
3.83	383	-0.039	-0.787	-0.714	-80.9016696	-50.2484166	-27.1009134	22.13909712	-9.41369994	-61.54141878
3.84	384	-0.05	-0.783	-0.712	-82.9070226	-52.9413192	-27.6165756	21.38279256	-9.80331138	-62.00551476
3.85	385	-0.043	-0.775	-0.667	-84.9123756	-56.3790672	-27.7311672	20.62075842	-10.2273003	-62.4810699
3.86	386	-0.039	-0.762	-0.632	-87.2042076	-57.5249832	-28.1895336	19.83007638	-10.66847796	-62.96235462
3.87	387	-0.03	-0.743	-0.604	-89.6106312	-58.6708992	-28.4760126	19.01647602	-11.12684436	-63.44363934
3.88	388	-0.043	-0.714	-0.572	-90.6419556	-61.5356892	-29.0489706	18.20287566	-11.61958824	-63.93065364
3.89	389	-0.049	-0.724	-0.519	-90.527364	-65.7755784	-29.3354496	17.39500488	-12.15243918	-64.4291271
3.9	390	-0.039	-0.706	-0.478	-90.9857304	-69.900876	-29.1635622	16.59859326	-12.73685634	-64.93905972
3.91	391	-0.037	-0.66	-0.44	-91.100322	-74.198061	-29.3354496	15.80218164	-13.36138056	-65.44899234
3.92	392	-0.043	-0.627	-0.376	-89.8971102	-77.9795838	-30.2521824	15.02295876	-14.03174142	-65.9761137
3.93	393	-0.036	-0.596	-0.341	-88.9230816	-80.500599	-31.7418732	14.2666542	-14.7250206	-66.51469422
3.94	394	-0.04	-0.567	-0.297	-86.803137	-84.0529386	-32.5440144	13.53899754	-15.45840684	-67.0647339
3.95	395	-0.056	-0.572	-0.22	-84.6831924	-87.4333908	-31.799169	12.85144794	-16.23190014	-67.61477358
3.96	396	-0.04	-0.573	-0.183	-80.7297822	-90.6992514	-29.9084076	12.19254624	-17.05123008	-68.14189494
3.97	397	-0.019	-0.545	-0.138	-79.2973872	-92.1316464	-28.934379	11.55083328	-17.88774876	-68.65182756
3.98	398	-0.029	-0.473	-0.152	-79.1254998	-90.527364	-28.361421	10.9148499	-18.71280828	-69.15030102
3.99	399	-0.063	-0.441	-0.133	-76.0315266	-89.7825186	-27.3873924	10.313244	-19.5378678	-69.62585616
4	400	-0.1	-0.418	-0.127	-74.771019	-90.1835892	-25.1528562	9.72882684	-20.38011606	-70.07849298
4.01	401	-0.102	-0.409	-0.124	-73.3959198	-91.7305758	-21.4286292	9.1386801	-21.23955306	-70.48529316
4.02	402	-0.116	-0.341	-0.137	-72.479187	-95.5693944	-17.8189938	8.55426294	-22.15055628	-70.85198628
4.03	403	-0.155	-0.283	-0.163	-72.192708	-97.1736768	-16.3865988	7.9641162	-23.08447782	-71.20149066
4.04	404	-0.141	-0.243	-0.231	-72.9375534	-92.3035338	-15.6417534	7.36823988	-23.97256272	-71.52234714
4.05	405	-0.121	-0.159	-0.337	-69.327918	-88.4647152	-15.0114996	6.80101146	-24.82627014	-71.82601488
4.06	406	-0.111	-0.006	-0.515	-63.1972674	-86.0582916	-17.8189938	6.30826758	-25.65705924	-72.14687136
4.07	407	-0.021	0.079	-0.795	-47.6128098	-91.5586884	-19.8243468	5.99314068	-26.53941456	-72.49637574
4.08	408	0.184	0.073	-0.837	-26.8717302	-104.5075392	-18.3919518	5.89573782	-27.54782064	-72.8516097
4.09	409	0.329	0.144	-0.8	-9.5683986	-120.034701	-15.6417534	5.97595194	-28.7051958	-73.20111408
4.1	410	0.248	0.237	-0.706	2.1199446	-141.2914428	-14.4958374	6.19367598	-30.06310626	-73.57926636
4.11	411	0.024	0.346	-0.598	5.2139178	-156.5894214	-19.194093	6.5030733	-31.57571538	-74.04909192
4.12	412	-0.147	0.454	-0.532	3.2658606	-167.9912856	-25.8404058	6.875496	-33.18572736	-74.63350908
4.13	413	-0.221	0.439	-0.42	0.9740286	-176.4137682	-29.3354496	7.28229618	-34.87595346	-75.29814036
4.14	414	-0.28	0.255	-0.314	3.9534102	-182.0860524	-28.2468294	7.75212174	-36.6120162	-75.99141954
4.15	415	-0.216	0.116	-0.266	2.5210152	-193.1441418	-27.4446882	8.2505952	-38.45694096	-76.73053536
4.16	416	-0.136	0.092	-0.315	1.8907614	-206.3221758	-29.9657034	8.83501236	-40.41645732	-77.5785132
4.17	417	0.021	0.21	-0.306	-0.7448454	-218.869956	-40.0497642	9.56266902	-42.47910612	-78.64421508
4.18	418	0.217	0.414	-0.303	3.2085648	-244.8249534	-53.9726436	10.59399342	-44.75374938	-80.04796218
4.19	419	0.373	0.505	-0.276	18.5065434	-283.61421	-62.0513514	12.10087296	-47.36070828	-81.82413198
4.2	420	0.513	0.409	-0.099	23.7204612	-318.7365354	-60.2178858	13.9515273	-50.26560534	-83.9096991
4.21	421	0.533	0.292	0.069	22.631841	-353.6296776	-52.0818822	16.14022686	-53.47989972	-86.3447706
4.22	422	0.399	0.218	0.27	22.345362	-388.179045	-40.7373138	18.77583366	-56.9806731	-89.21529018
4.23	423	0.1	0.06	0.454	17.9908812	-409.66497	-22.631841	21.86407728	-60.65906346	-92.54417616
4.24	424	-0.131	0.196	0.646	-2.7501984	-425.8796814	8.1360036	25.19869284	-64.50361164	-96.26840316
4.25	425	-1.503	0.189	0.478	-20.340009	-448.7407056	54.0872352	28.8484353	-68.64609798	-100.4108895
4.26	426	-3.256	0.114	0.082	-37.6433406	-416.3685786	96.6007188	32.4294228	-72.62815608	-104.5476463
4.27	427	-3.608	0.755	-0.241	-31.5699858	-323.6639742	146.5053606	34.37175042	-76.0601745	-106.856667
4.28	428	-3.554	1.742	-0.762	-44.7480198	-176.8721346	197.956989	30.98556864	-78.57546012	-103.8257192
4.29	429	-3.677	2.348	-0.184	-45.0917946	-116.4250656	251.1847872	21.19371642	-80.70686388	-94.32034596
4.3	430	-3.181	0.66	0.491	-41.8832298	-242.9914878	182.0860524	14.10049638	-83.54300598	-87.55371198
4.31	431	-3.37	1.828	-0.662	-58.9000824	-172.1165832	171.5436252	-1.74179232	-85.43949696	-72.20989674
4.32	432	-3.568	1.479	0.443	-23.777757	-140.7184848	169.7101596	-29.69068356	-86.36768892	-44.40997458
4.33	433	-3.102	1.026	0.843	-22.4026578	-195.4359738	138.7704276	-68.85809244	-86.64270876	-5.37434604
4.34	434	-3.116	1.623	0.4	-35.0650296	-226.8340722	131.2646778	-103.5621585	-85.49679276	29.0776185
4.35	435	-2.601	1.316	0.763	-18.5065434	-189.362619	112.4143596	-118.4189594	-83.81229624	43.83701658
4.36	436	-2.23	0.988	1.073	-38.7892566	-197.7851016	81.5892192	-128.6405302	-82.09342224	53.76637872
4.37	437	-1.674	0.658	0.985	-51.3943326	-179.622333	48.5295426	-135.8712601	-80.56935396	60.57311976
4.38	438	-1.316	0.553	1.054	-46.2377106	-154.2402936	32.372127	-140.8445356	-79.23436182	65.16824292
4.39	439	-1.147	0.56	1.077	-37.2995658	-148.8544884	22.5745452	-144.8781599	-77.94520632	68.92111782
4.4	440	-1.001	0.487	1.001	-29.0489706	-141.4060344	19.5378678	-148.0236993	-76.67896914	71.86039236
4.41	441	-0.859	0.376	0.957	-22.5745452	-128.8009584	22.058883	-150.2353172	-75.4872165	73.91731158
4.42	442	-0.755	0.325	0.84	-11.9175264	-126.7383096	27.7311672	-151.8052221	-74.27254554	75.43565028
4.43	443	-0.698	0.306	0.657	-4.9274388	-125.3059146	31.7418732	-152.9454085	-73.04641542	76.59302544
4.44	444	-0.627	0.339	0.534	0.6875496	-118.888785	33.0596766	-153.7532793	-71.86039236	77.4639216
4.45	445	-0.586	0.398	0.425	7.9641162	-113.732163	34.5493674	-154.2746711	-70.7030172	78.11709372
4.46	446	-0.619	0.26	0.389	15.0114996	-111.3257394	25.7258142	-154.8533587	-69.614397	78.91350534
4.47	447	-0.621	0.283	0.369	19.5951636	-106.2264132	23.8350528	-155.3059955	-68.57734302	79.62397326
4.48	448	-0.693	0.215	0.368	25.1528562	-98.0904096	20.7410796	-155.6325815	-67.62623274	80.2714158
4.49	449	-0.784	0.265	0.395	27.1009134	-90.9857304	17.5325148	-155.9018718	-66.749607	80.8730217
4.5	450	-0.77	0.296	0.439	29.3354496	-85.4853336	12.7196676	-156.1539733	-65.93027706	81.49181634
4.51	451	-0.786	0.249	0.509	32.0283522	-81.8756982	5.8441716	-156.4633706	-65.17970208	82.19655468
4.52	452	-0.939	0.195	0.511	29.1062664	-75.5158644	-6.1306506	-156.9503849	-64.52652996	83.07318042
4.53	453	-0.828	0.231	0.52	22.1161788	-66.176649	-17.2460358	-157.6035571	-63.9994086	84.05866818
4.54	454	-0.878	0.283	0.54	16.902261	-62.452422	-27.3300966	-158.4400757	-63.5410422	85.18739544
4.55	455	-0.907	0.242	0.459	15.469866	-54.9466722	-39.0757356	-159.4083748	-63.18007866	86.4593622
4.56	456	-0.86	0.214	0.502	9.3965112	-47.7846972	-42.398892	-160.42824	-62.88787008	87.71414022
4.57	457	-0.914	0.166	0.501	5.0993262	-45.3782736	-46.9252602	-161.5340489	-62.6243094	89.02621404
4.58	458	-0.891	0.153	0.517	2.1772404	-42.2270046	-50.8213746	-162.6971537	-62.38366704	90.36693576
4.59	459	-0.89	0.14	0.531	-1.4896908	-39.247623	-50.8786704	-163.8602584	-62.165943	91.66755042
4.6	460	-0.943	0.112	0.529	0.1145916	-36.382833	-49.847346	-164.9603378	-61.95394854	92.91659886
4.61	461	-0.919	0.077	0.547	-0.9167328	-30.8251404	-49.1025006	-166.0088509	-61.78206114	94.09689234
4.62	462	-0.901	0.102	0.628	3.3231564	-25.496631	-46.6387812	-166.9313133	-61.6502808	95.18551254
4.63	463	-0.947	0.074	0.666	3.2658606	-18.5065434	-46.0085274	-167.807939	-61.57579626	96.22256652
4.64	464	-0.968	0.068	0.661	2.4064236	-11.172681	-43.4302164	-168.6043507	-61.55287794	97.16221764
4.65	465	-0.997	0.073	0.682	3.5523396	-5.0420304	-40.10706	-169.3205482	-61.57579626	98.01592506
4.66	466	-1.018	0.048	0.699	2.3491278	0.572958	-37.8725238	-169.9794499	-61.6502808	98.78941836
4.67	467	-1.014	0.05	0.705	0.5156622	6.1879464	-35.2942128	-170.5982445	-61.77060198	99.4941567
4.68	468	-1.014	0.052	0.717	-1.0886202	11.6883432	-32.945085	-171.1712025	-61.9367598	100.1301401
4.69	469	-0.994	0.068	0.706	-3.151269	18.334656	-30.5386614	-171.7155126	-62.16021342	100.7030981
4.7	470	-0.979	0.089	0.691	-3.8961144	23.777757	-27.1009134	-172.1910677	-62.4237741	101.195842
4.71	471	-0.979	0.059	0.681	-3.4950438	28.4760126	-24.7517856	-172.6150567	-62.73317142	101.6255605
4.72	472	-0.957	0.052	0.671	-3.2658606	33.518043	-21.4286292	-172.964561	-63.08840538	101.9750648
4.73	473	-0.978	0.063	0.665	-3.5523396	37.528749	-16.902261	-173.2281217	-63.47801682	102.2271664
4.74	474	-0.95	0.053	0.648	-3.437748	41.3102718	-14.1520626	-173.4343866	-63.89627616	102.4105129
4.75	475	-0.955	0.037	0.611	-1.9480572	45.0344988	-12.4904844	-173.5948148	-64.3431834	102.559482
4.76	476	-0.927	0.046	0.569	-2.86479	46.0658232	-11.3445684	-173.7380543	-64.80727938	102.6740736
4.77	477	-0.939	0.076	0.553	-0.9740286	46.7533728	-9.0527364	-173.8125389	-65.27710494	102.737099
4.78	478	-0.938	0.063	0.526	-0.4583664	46.8106686	-8.59437	-173.8698347	-65.74120092	102.7886652
4.79	479	-0.927	0.048	0.486	0.5156622	46.1804148	-8.7662574	-173.9271305	-66.2052969	102.8516906
4.8	480	-0.92	0.029	0.462	3.151269	44.977203	-8.9381448	-173.9729671	-66.65220414	102.9319047
4.81	481	-0.94	0.057	0.475	3.724227	44.9199072	-7.9068204	-173.9901559	-67.09911138	102.9834709
4.82	482	-0.91	0.065	0.476	5.8441716	46.409598	-6.8182002	-173.9557784	-67.56320736	103.0006597
4.83	483	-0.928	0.06	0.491	9.0527364	46.3523022	-7.2765666	-173.8984826	-68.02730334	103.0293076
4.84	484	-0.972	0.121	0.526	9.3965112	48.0138804	-5.0993262	-173.7781614	-68.50285848	102.9949301
4.85	485	-1.005	0.117	0.534	12.4331886	50.8213746	-7.9068204	-173.675029	-69.00706152	103.0178484
4.86	486	-1.027	0.194	0.485	13.5218088	57.8114622	-11.0007936	-173.6234627	-69.5857491	103.1037921
4.87	487	-1.026	0.219	0.445	19.9962342	62.2805346	-15.9282324	-173.6291923	-70.2160029	103.3157866
4.88	488	-1.053	0.193	0.395	27.5592798	65.4318036	-22.4026578	-173.7437839	-70.88636376	103.7225867
4.89	489	-1.009	0.164	0.401	28.6479	66.8641986	-24.064236	-173.9042122	-71.57391336	104.1866827
4.9	490	-0.979	0.123	0.404	27.501984	70.6457214	-24.350715	-174.0818291	-72.29011086	104.6622379
4.91	491	-0.896	0.101	0.371	28.1895336	76.8336678	-22.7464326	-174.2193391	-73.06933374	105.0976859
4.92	492	-0.907	0.092	0.24	32.4867186	77.0055552	-20.912967	-174.2766349	-73.84855662	105.4872974
4.93	493	-0.86	0.052	0.304	36.2109456	71.333271	-19.6524594	-174.2995532	-74.57621328	105.8826384
4.94	494	-0.988	0.063	0.39	35.6952834	61.8221682	-16.902261	-174.288094	-75.2007375	106.2378724
4.95	495	-1.136	0.085	0.427	38.2162986	67.036086	-17.761698	-174.2651757	-75.87682794	106.6102951
4.96	496	-1.158	0.092	0.348	31.4553942	80.4433032	-20.1108258	-174.3683081	-76.6904283	107.0285544
4.97	497	-1.137	0.068	0.228	23.4339822	96.0277608	-21.3140376	-174.5573843	-77.65872732	107.4582729
4.98	498	-0.989	-0.061	0.196	20.1108258	112.872726	-22.631841	-174.8094858	-78.78745458	107.9051801
4.99	499	-0.907	-0.168	0.152	13.0634424	117.6855732	-16.5011904	-174.8381337	-79.96201848	108.0541492
5	500	-0.876	-0.244	0.19	12.4331886	111.9559932	-8.7089616	-174.534466	-81.06782742	107.8536139
5.01	501	-0.856	-0.236	0.24	12.1467096	117.2272068	0.4583664	-173.3484429	-82.219473	106.7649937
5.02	502	-0.873	-0.175	0.247	10.7143146	118.315827	6.2452422	-171.2857941	-83.365389	104.782559
5.03	503	-0.814	-0.126	0.23	8.6516658	106.856667	7.9068204	-168.4954886	-84.38525424	102.0495494
5.04	504	-0.833	-0.159	0.164	6.3598338	90.1835892	4.4117766	-165.4989183	-85.23896166	99.0930861
5.05	505	-0.751	-0.197	0.087	10.2559482	99.121734	-4.4117766	-162.1127365	-86.19007194	95.78711844
5.06	506	-0.583	-0.166	-0.004	1.2032118	92.0170548	-2.005353	-156.595151	-87.04377936	90.26380332
5.07	507	-0.638	-0.059	-0.095	-7.3911582	58.3271244	7.2192708	-149.5191197	-87.51360492	83.09609874
5.08	508	-0.826	-0.024	-0.197	-3.7815228	31.6845774	16.7303736	-141.9045079	-87.67403316	75.4299207
5.09	509	-0.95	-0.074	-0.223	5.2139178	22.9756158	21.0848544	-134.1122791	-87.69695148	67.68352854
5.1	510	-0.964	-0.07	-0.185	8.1360036	18.9649098	22.1734746	-126.5377743	-87.67403316	60.18350832
5.11	511	-0.981	0.017	-0.159	2.6929026	14.4958374	21.0848544	-120.7738168	-87.5766303	54.44246916
5.12	512	-1.04	0.119	-0.145	-1.145916	12.891555	18.907614	-116.0984795	-87.46776828	49.74994314
5.13	513	-1.07	0.139	-0.112	2.5210152	16.7876694	16.4438946	-111.1939591	-87.38182458	44.8626114
5.14	514	-1.026	0.087	-0.087	4.8128472	21.4286292	12.9488508	-105.8711792	-87.3187992	39.57993864
5.15	515	-0.976	0.06	-0.082	2.0626488	22.5172494	11.2299768	-100.3306754	-87.25577382	34.05662352
5.16	516	-0.933	0.068	-0.1	0	21.7151082	9.9694692	-95.66106768	-87.18128928	29.37555666
5.17	517	-0.869	0.077	-0.109	0.1145916	20.2254174	8.307891	-91.54149966	-87.10680474	25.25025906
5.18	518	-0.844	0.084	-0.114	1.4896908	16.2720072	6.7036086	-88.37304192	-87.0323202	22.09326048
5.19	519	-0.855	0.095	-0.11	2.0626488	10.8289062	5.5576926	-86.36195934	-86.96929482	20.09363706
5.2	520	-0.916	0.082	-0.111	3.2658606	7.2765666	2.5210152	-84.35087676	-86.92918776	18.11693196
5.21	521	-0.838	0.102	-0.055	4.7555514	3.437748	0.7448454	-83.6805159	-86.9177286	17.49240774
5.22	522	-0.87	0.114	-0.028	5.0993262	-1.3178034	0.572958	-83.87532162	-86.91199902	17.73877968
5.23	523	-0.879	0.102	-0.018	4.1825934	-3.6096354	-0.572958	-84.47119794	-86.92345818	18.38049264
5.24	524	-0.883	0.092	-0.027	2.86479	-3.6096354	-1.8907614	-85.07280384	-86.9463765	19.01074644
5.25	525	-0.904	0.08	-0.031	1.718874	-4.7555514	-2.4064236	-85.5999252	-86.96356524	19.56078612
5.26	526	-0.926	0.067	-0.023	0.9167328	-5.9014674	-2.5210152	-86.6598975	-86.99221314	20.63221758
5.27	527	-0.945	0.062	-0.004	0.2291832	-6.6463128	-2.0626488	-87.8917572	-87.01513146	21.86980686
5.28	528	-0.962	0.071	0.011	-0.9740286	-7.734933	-1.7761698	-89.36998884	-87.03804978	23.33657934
5.29	529	-0.987	0.086	0.02	-3.2658606	-8.7089616	-2.1199446	-91.08313326	-87.0609681	25.02680544
5.3	530	-1.011	0.092	0.031	-4.583664	-9.167328	-3.0939732	-93.105675	-87.07815684	26.99778096
5.31	531	-1.03	0.085	0.043	-4.0680018	-9.6256944	-4.010706	-95.0823801	-87.11253432	28.94010858
5.32	532	-1.041	0.074	0.061	-3.8961144	-10.4278356	-4.3544808	-97.27680924	-87.1469118	31.09443066
5.33	533	-1.048	0.069	0.081	-4.5263682	-11.1153852	-4.6409598	-99.67750326	-87.18128928	33.45501762
5.34	534	-1.054	0.077	0.088	-4.7555514	-11.5737516	-4.9274388	-102.2328959	-87.20993718	35.97030324
5.35	535	-1.064	0.086	0.098	-4.1825934	-11.8602306	-5.7868758	-105.2581142	-87.22712592	38.94968484
5.36	536	-1.067	0.081	0.1	-3.5523396	-11.2872726	-6.7609044	-107.9395576	-87.26723298	41.60248038
5.37	537	-1.065	0.065	0.098	-3.3804522	-10.2559482	-7.5057498	-110.5350574	-87.30161046	44.16933222
5.38	538	-1.056	0.051	0.099	-2.9220858	-9.3392154	-7.5630456	-113.0274247	-87.34171752	46.6387812
5.39	539	-1.04	0.039	0.095	-2.5210152	-8.3651868	-7.3338624	-115.3593637	-87.376095	48.94780194
5.4	540	-1.021	0.038	0.088	-2.3491278	-7.5057498	-6.7036086	-117.9319451	-87.39901332	51.49746504
5.41	541	-1.006	0.037	0.082	-2.005353	-7.1046792	-6.1879464	-119.9945939	-87.41620206	53.53719552
5.42	542	-0.995	0.037	0.075	-1.3178034	-6.6463128	-5.7868758	-121.9426511	-87.4333908	55.47952314
5.43	543	-0.99	0.033	0.069	-0.6302538	-6.4171296	-5.156622	-123.7875759	-87.44484996	57.3244479
5.44	544	-0.987	0.025	0.065	-0.1718874	-6.1306506	-4.583664	-125.5179091	-87.45057954	59.04905148
5.45	545	-0.986	0.015	0.062	0	-5.7868758	-3.8961144	-127.6206649	-87.45057954	61.15180734
5.46	546	-0.981	0.01	0.052	-0.286479	-5.6722842	-3.0939732	-129.0587895	-87.43912038	62.5956615
5.47	547	-0.979	0.006	0.05	0	-5.8441716	-1.8907614	-130.347945	-87.41620206	63.884817
5.48	548	-0.981	0.008	0.049	-0.286479	-6.1879464	-0.859437	-131.5225089	-87.38755416	65.0593809
5.49	549	-0.984	0.012	0.051	-0.3437748	-6.4171296	0.0572958	-132.571022	-87.3474471	66.10216446
5.5	550	-0.989	0.013	0.054	-0.572958	-6.3598338	0.859437	-133.854448	-87.29588088	67.3798608
5.51	551	-0.996	0.016	0.059	-0.9167328	-6.1306506	1.6615782	-134.5591863	-87.24431466	68.07886956
5.52	552	-1.001	0.021	0.064	-1.2605076	-5.6722842	2.4064236	-135.0748485	-87.18701886	68.5830726
5.53	553	-1.007	0.026	0.063	-1.5469866	-5.156622	2.9793816	-135.4186233	-87.13545264	68.90965866
5.54	554	-1.01	0.032	0.064	-1.7761698	-4.4690724	3.4950438	-135.573322	-87.07815684	69.05289816
5.55	555	-1.012	0.036	0.065	-2.005353	-4.1252976	3.9534102	-135.7795868	-87.00940188	69.23624472
5.56	556	-1.012	0.042	0.067	-2.291832	-3.9534102	4.0680018	-135.7853164	-86.95783566	69.21905598
5.57	557	-1.009	0.047	0.068	-2.5210152	-3.8388186	4.0680018	-135.7853164	-86.90053986	69.19040808
5.58	558	-1.008	0.049	0.071	-2.8074942	-3.8961144	4.010706	-135.7967756	-86.84324406	69.17894892
5.59	559	-1.004	0.053	0.07	-3.0939732	-4.0680018	3.8388186	-135.859801	-86.79167784	69.20759682
5.6	560	-1.001	0.057	0.07	-3.3804522	-4.1825934	3.6096354	-135.9801221	-86.7171933	69.29354052
5.61	561	-0.997	0.061	0.066	-3.5523396	-4.4117766	3.2658606	-136.1520095	-86.66562708	69.43105044
5.62	562	-0.995	0.063	0.064	-3.6669312	-4.5263682	2.7501984	-136.3983815	-86.61406086	69.6430449
5.63	563	-0.994	0.068	0.063	-3.437748	-4.583664	2.2345362	-136.7077788	-86.56822422	69.91806474
5.64	564	-0.994	0.067	0.064	-3.0939732	-4.4690724	1.718874	-137.0515536	-86.52238758	70.22746206
5.65	565	-0.994	0.067	0.066	-2.86479	-4.2398892	1.2605076	-137.2979255	-86.4593622	70.45091568
5.66	566	-0.996	0.068	0.07	-2.4637194	-3.8388186	0.6302538	-137.6760778	-86.42498472	70.80042006
5.67	567	-0.998	0.069	0.076	-2.005353	-3.6096354	0.0572958	-138.082878	-86.4020664	71.1900315
5.68	568	-1.001	0.066	0.08	-1.5469866	-3.2085648	-0.5156622	-138.5183261	-86.37914808	71.60829084
5.69	569	-1.002	0.062	0.085	-1.2032118	-2.9793816	-1.0886202	-138.9824221	-86.36768892	72.06092766
5.7	570	-1.004	0.061	0.087	-0.7448454	-2.8074942	-1.6042824	-139.6012167	-86.31039312	72.6797223
5.71	571	-1.004	0.06	0.089	-0.2291832	-2.8074942	-2.005353	-140.1340676	-86.30466354	73.20684366
5.72	572	-1.007	0.057	0.092	0	-2.6929026	-2.3491278	-140.6898369	-86.29893396	73.76261292
5.73	573	-1.01	0.054	0.095	0.3437748	-2.578311	-2.6929026	-141.2685245	-86.29320438	74.34703008
5.74	574	-1.01	0.049	0.097	0.4010706	-2.2345362	-2.8074942	-141.8242937	-86.29893396	74.9142585
5.75	575	-1.013	0.045	0.1	0.572958	-1.8334656	-2.6929026	-142.7467561	-86.2588269	75.84245046
5.76	576	-1.01	0.042	0.1	0.8021412	-1.2605076	-2.4637194	-143.1592859	-86.26455648	76.26643938
5.77	577	-1.013	0.039	0.1	0.9740286	-0.8021412	-2.1199446	-143.4916015	-86.27028606	76.6044846
5.78	578	-1.012	0.037	0.099	1.0886202	-0.286479	-1.7761698	-143.7322439	-86.28174522	76.85658612
5.79	579	-1.01	0.037	0.098	1.0886202	0.1718874	-1.3750992	-143.8697538	-86.29320438	77.01128478
5.8	580	-1.009	0.035	0.095	1.145916	0.7448454	-0.9740286	-144.5687626	-86.2588269	77.71602312
5.81	581	-1.007	0.034	0.09	1.3750992	1.0886202	-0.6302538	-144.5343851	-86.27028606	77.6931048
5.82	582	-1.006	0.034	0.084	1.5469866	1.432395	-0.1145916	-144.4026047	-86.28174522	77.58424278
5.83	583	-1.007	0.033	0.085	1.4896908	1.718874	0.2291832	-144.1963399	-86.29893396	77.38370748
5.84	584	-1.006	0.031	0.086	1.0313244	2.291832	0.572958	-143.8869425	-86.31039312	77.08576932
5.85	585	-1.006	0.035	0.083	0.8021412	2.3491278	1.145916	-143.8411059	-86.29893396	77.05139184
5.86	586	-1.004	0.04	0.081	0.572958	2.2345362	1.4896908	-143.4285761	-86.31039312	76.64459166
5.87	587	-1.003	0.044	0.08	0.4010706	2.578311	1.6042824	-142.9759393	-86.32185228	76.19768442
5.88	588	-1	0.044	0.072	0.6302538	3.2658606	1.6042824	-142.4545475	-86.33331144	75.67629264
5.89	589	-0.996	0.042	0.071	1.0313244	3.724227	1.6615782	-141.8644008	-86.35622976	75.09760506
5.9	590	-0.995	0.042	0.075	0.9740286	3.8388186	1.8334656	-141.4003048	-86.35622976	74.63923866
5.91	591	-0.994	0.044	0.075	0.7448454	3.6669312	2.005353	-140.770051	-86.3734185	74.01471444
5.92	592	-0.994	0.048	0.076	0.6875496	3.3231564	2.2345362	-140.1455268	-86.38487766	73.3959198
5.93	593	-0.996	0.052	0.076	0.6302538	3.151269	2.1772404	-139.5381913	-86.39633682	72.7943139
5.94	594	-0.997	0.051	0.072	0.6875496	3.3231564	1.9480572	-138.942315	-86.40779598	72.20416716
5.95	595	-0.997	0.051	0.069	0.8021412	3.437748	1.718874	-138.4094641	-86.4020664	71.6770458
5.96	596	-0.995	0.053	0.067	0.9167328	3.437748	1.5469866	-137.8365061	-86.41352556	71.11554696
5.97	597	-0.997	0.054	0.065	0.8021412	3.0366774	1.6042824	-137.3036551	-86.42498472	70.5884256
5.98	598	-0.995	0.055	0.063	0.7448454	2.6356068	1.3750992	-136.8338296	-86.43644388	70.12432962
5.99	599	-0.996	0.055	0.062	0.7448454	2.4637194	1.0886202	-136.4155702	-86.44790304	69.71752944
6	600	-0.998	0.056	0.063	0.859437	2.5210152	0.8021412	-135.9973109	-86.43644388	69.2992701
6.01	601	-0.999	0.055	0.063	1.0886202	2.4637194	0.5156622	-135.6363473	-86.44790304	68.9554953
6.02	602	-0.999	0.054	0.063	1.0886202	2.4637194	0.2291832	-135.3097613	-86.46509178	68.63463882
6.03	603	-0.997	0.051	0.065	1.0313244	2.2345362	0.1145916	-135.0232823	-86.47655094	68.35961898
6.04	604	-0.996	0.05	0.064	0.859437	2.0626488	0.0572958	-134.7597216	-86.49373968	68.10178788
6.05	605	-0.996	0.052	0.063	0.6302538	1.8907614	0	-134.6508596	-86.46509178	68.00438502
6.06	606	-0.996	0.051	0.062	0.6302538	1.4896908	-0.1145916	-134.4847018	-86.47655094	67.8382272
6.07	607	-0.995	0.049	0.061	0.4583664	1.3178034	-0.2291832	-134.3529214	-86.4880101	67.71217644
6.08	608	-0.995	0.05	0.06	0.4583664	1.145916	-0.286479	-134.2383298	-86.49946926	67.60331442
6.09	609	-0.993	0.048	0.061	0.286479	0.9167328	-0.2291832	-134.1581157	-86.50519884	67.52882988
6.1	610	-0.997	0.046	0.06	0.2291832	0.3437748	-0.286479	-134.7998287	-86.44790304	68.17054284
6.11	611	-0.997	0.046	0.061	0	0.4583664	-0.1718874	-134.7597216	-86.45363262	68.13043578
6.12	612	-0.999	0.047	0.059	0	0.5156622	-0.1718874	-134.7196145	-86.45363262	68.08459914
6.13	613	-0.999	0.046	0.059	0	0.6875496	0	-134.64513	-86.4593622	68.0101146
6.14	614	-0.997	0.048	0.062	-0.0572958	0.6302538	-0.0572958	-134.576375	-86.46509178	67.94708922
6.15	615	-0.998	0.049	0.063	0	0.4010706	0	-136.1634687	-86.29320438	69.5284533
6.16	616	-0.998	0.047	0.062	0	0.0572958	0	-136.1520095	-86.29320438	69.51699414
6.17	617	-0.998	0.047	0.063	-0.2291832	0	0.0572958	-136.1520095	-86.29320438	69.51126456
6.18	618	-0.997	0.048	0.066	-0.1718874	-0.4583664	0.1718874	-136.1806574	-86.2874748	69.53991246
6.19	619	-0.996	0.049	0.066	-0.3437748	-0.3437748	0.1718874	-136.1978462	-86.2874748	69.5571012
6.2	620	-0.996	0.049	0.066	-0.286479	-0.2291832	0.1718874	-136.7364267	-86.20726068	70.08995214
6.21	621	-0.997	0.047	0.066	-0.1145916	-0.1145916	0.286479	-136.719238	-86.2015311	70.0727634
6.22	622	-0.998	0.048	0.067	-0.0572958	-0.1145916	0.286479	-136.7020492	-86.19580152	70.05557466
6.23	623	-0.999	0.051	0.066	-0.0572958	-0.1718874	0.286479	-136.6905901	-86.19580152	70.03838592
6.24	624	-0.999	0.051	0.067	0	-0.2291832	0.286479	-136.6791309	-86.19007194	70.03265634
6.25	625	-1	0.051	0.067	0.0572958	-0.286479	0.286479	-137.0687423	-86.10985782	70.4165382
6.26	626	-1	0.05	0.069	0.1145916	-0.3437748	0.286479	-137.0687423	-86.10412824	70.42226778
6.27	627	-1.001	0.05	0.069	0.1718874	-0.4010706	0.2291832	-137.0859311	-86.10412824	70.43945652
6.28	628	-1.001	0.051	0.067	0.2291832	-0.1718874	0.1718874	-137.0859311	-86.09839866	70.43945652
6.29	629	-1.001	0.051	0.066	0.2291832	-0.2291832	0.0572958	-137.0916607	-86.09839866	70.45664526
6.3	630	-1.001	0.051	0.067	0.1718874	-0.2291832	0.0572958	-137.7047257	-85.99526622	71.06398074
6.31	631	-1.001	0.05	0.069	0.0572958	-0.3437748	0.0572958	-137.727644	-85.98953664	71.09262864
6.32	632	-1.002	0.05	0.07	0	-0.286479	0.0572958	-137.7505624	-85.98953664	71.11554696
6.33	633	-1.001	0.052	0.071	0	-0.1145916	0	-137.7562919	-85.98953664	71.12127654
6.34	634	-1.003	0.051	0.069	0.2291832	-0.3437748	0	-137.7906694	-85.98380706	71.15565402
6.35	635	-1.001	0.05	0.066	0.1718874	-0.1718874	0	-138.4438415	-85.90359294	71.80882614
6.36	636	-0.999	0.05	0.066	0.2291832	-0.1145916	0	-138.4495711	-85.90359294	71.8202853
6.37	637	-0.998	0.05	0.068	0.286479	0	0	-138.4495711	-85.90359294	71.8202853
6.38	638	-0.997	0.049	0.069	0.2291832	0.0572958	-0.0572958	-138.4495711	-85.90359294	71.8202853
6.39	639	-0.998	0.048	0.067	0.2291832	0.286479	-0.0572958	-138.4266528	-85.90932252	71.80309656
6.4	640	-0.999	0.047	0.065	0.3437748	0.2291832	0	-138.6501064	-85.89213378	72.03227976
6.41	641	-1	0.049	0.07	0.4583664	0.4010706	0.0572958	-138.5985402	-85.89786336	71.98071354
6.42	642	-1.003	0.049	0.072	0.2291832	0.572958	0	-138.5355148	-85.89786336	71.92341774
6.43	643	-1.003	0.05	0.071	0	0.3437748	0	-138.5011373	-85.90359294	71.88904026
6.44	644	-1.002	0.051	0.072	-0.0572958	0.1145916	0	-138.4839486	-85.90359294	71.86612194
6.45	645	-1.003	0.052	0.07	-0.1145916	0.4010706	0	-138.5527036	-85.86921546	71.9348769
6.46	646	-1.001	0.051	0.064	-0.1145916	1.0313244	-0.1145916	-138.4724894	-85.88067462	71.85466278
6.47	647	-0.998	0.049	0.061	0.286479	1.2605076	-0.2291832	-138.369357	-85.89213378	71.75725992
6.48	648	-0.996	0.046	0.068	0.3437748	1.0313244	-0.1145916	-138.2834133	-85.89786336	71.67131622
6.49	649	-0.997	0.046	0.07	0.1145916	0.7448454	0.0572958	-138.2031992	-85.90359294	71.5911021
6.5	650	-0.999	0.048	0.069	0.1145916	0.1718874	0.3437748	-138.5928106	-85.86348588	71.98644312
6.51	651	-0.999	0.049	0.069	0	0.286479	0.3437748	-138.5240557	-85.86348588	71.91195858
6.52	652	-1	0.05	0.067	0.1145916	0.7448454	0.286479	-138.4151936	-85.86921546	71.80882614
6.53	653	-1	0.05	0.065	0.3437748	1.0313244	0.286479	-138.2834133	-85.87494504	71.68277538
6.54	654	-1	0.049	0.065	0.5156622	0.859437	0.3437748	-138.1573625	-85.87494504	71.5624542
6.55	655	-1	0.05	0.065	0.3437748	0.7448454	0.4583664	-138.0599597	-85.86348588	71.46505134
6.56	656	-1	0.053	0.065	0.4583664	0.572958	0.4583664	-137.9510977	-85.86921546	71.35618932
6.57	657	-1	0.053	0.064	0.3437748	0.5156622	0.286479	-137.8594244	-85.86921546	71.27024562
6.58	658	-1	0.052	0.064	0.4010706	0.3437748	0.2291832	-137.7906694	-85.86921546	71.20722024
6.59	659	-1	0.05	0.065	0.3437748	0.4583664	0.1718874	-137.7219145	-85.87494504	71.14419486
6.6	660	-1	0.049	0.065	0.3437748	0.572958	0.2291832	-137.727644	-85.86921546	71.15565402
6.61	661	-0.999	0.05	0.064	0.4010706	0.5156622	0.3437748	-137.6359708	-85.86921546	71.06398074
6.62	662	-0.998	0.052	0.064	0.4010706	0.5156622	0.286479	-137.5500271	-85.86921546	70.98376662
6.63	663	-0.998	0.052	0.063	0.3437748	0.4583664	0.1718874	-137.4812721	-85.87494504	70.91501166
6.64	664	-0.998	0.052	0.063	0.4583664	0.3437748	0	-137.441165	-85.87494504	70.88063418
6.65	665	-0.998	0.051	0.064	0.4583664	0.4583664	0	-137.4526242	-85.86348588	70.89782292
6.66	666	-0.998	0.05	0.064	0.5156622	0.286479	0	-137.4239763	-85.86348588	70.86917502
6.67	667	-0.997	0.049	0.065	0.2291832	0.286479	0	-137.3895988	-85.86921546	70.84052712
6.68	668	-0.998	0.051	0.064	0.2291832	0.2291832	0	-137.3666805	-85.86921546	70.82333838
6.69	669	-0.999	0.051	0.063	0.3437748	0.1718874	0	-137.3437622	-85.86921546	70.80614964
6.7	670	-0.999	0.051	0.063	0.4010706	0.1718874	0	-137.4182467	-85.85202672	70.88063418
6.71	671	-1.001	0.05	0.064	0.4010706	0.1718874	0	-137.3953284	-85.85202672	70.85771586
6.72	672	-1	0.05	0.064	0.1145916	0	-0.0572958	-137.401058	-85.85202672	70.86917502
6.73	673	-0.998	0.05	0.063	0	-0.1718874	-0.1718874	-137.441165	-85.85202672	70.90928208
6.74	674	-0.999	0.051	0.062	-0.0572958	-0.3437748	-0.1718874	-137.4984608	-85.85202672	70.96657788
6.75	675	-0.998	0.05	0.064	-0.1145916	-0.4583664	-0.1718874	-137.7448328	-85.83483798	71.21294982
6.76	676	-0.998	0.05	0.064	-0.1718874	-0.5156622	-0.1145916	-137.8078582	-85.8291084	71.2759752
6.77	677	-0.999	0.049	0.064	-0.1718874	-0.6302538	-0.1145916	-137.8880723	-85.8291084	71.35045974
6.78	678	-0.998	0.049	0.063	-0.1718874	-0.572958	-0.1145916	-137.9625568	-85.82337882	71.4192147
6.79	679	-0.998	0.048	0.062	0	-0.572958	-0.1145916	-138.0313118	-85.82337882	71.48796966
6.8	680	-0.997	0.049	0.062	0.1145916	-0.572958	-0.1145916	-138.1000667	-85.81191966	71.56818378
6.81	681	-0.999	0.049	0.062	0.0572958	-0.4010706	-0.0572958	-138.1459034	-85.81191966	71.61402042
6.82	682	-1	0.051	0.065	0	-0.3437748	0	-138.1860104	-85.80619008	71.6483979
6.83	683	-1.002	0.049	0.067	-0.1145916	-0.286479	0	-138.2203879	-85.80619008	71.68277538
6.84	684	-1.002	0.049	0.068	-0.1145916	-0.2291832	0	-138.2433062	-85.8004605	71.7056937
6.85	685	-1.001	0.05	0.068	0	0	0	-138.6902135	-85.74889428	72.15260094
6.86	686	-1	0.052	0.065	0.1145916	0.286479	0	-138.6672952	-85.75462386	72.12968262
6.87	687	-1	0.052	0.064	0.2291832	0.572958	-0.1145916	-138.6271881	-85.76035344	72.08957556
6.88	688	-0.999	0.051	0.063	0.2291832	0.8021412	-0.2291832	-138.5698923	-85.76608302	72.03800934
6.89	689	-0.999	0.05	0.064	0.2291832	0.6875496	-0.1718874	-138.5240557	-85.7718126	71.9921727
6.9	690	-1	0.05	0.064	0.3437748	0.4583664	-0.0572958	-138.4839486	-85.7718126	71.95779522
6.91	691	-1.002	0.052	0.064	0.286479	0.3437748	-0.2291832	-138.4724894	-85.77754218	71.94633606
6.92	692	-1.001	0.053	0.066	0.4583664	0.286479	-0.2291832	-138.4667599	-85.78327176	71.94633606
6.93	693	-1.001	0.052	0.066	0.4010706	0.3437748	-0.1718874	-138.4495711	-85.78327176	71.9348769
6.94	694	-1	0.051	0.064	0.5156622	0.4010706	-0.2291832	-138.4323824	-85.78900134	71.92341774
6.95	695	-1	0.052	0.063	0.6302538	0.1718874	-0.2291832	-138.3349795	-85.78327176	71.83174446
6.96	696	-0.999	0.052	0.061	0.5156622	0.1718874	-0.286479	-138.3407091	-85.78900134	71.84320362
6.97	697	-0.999	0.05	0.062	0.4010706	0.2291832	-0.2291832	-138.3349795	-85.78900134	71.84320362
6.98	698	-0.998	0.048	0.062	0.4010706	0.0572958	-0.3437748	-138.3578978	-85.79473092	71.87185152
6.99	699	-0.998	0.048	0.06	0.5156622	0.1718874	-0.1718874	-138.3578978	-85.8004605	71.87185152
7	700	-0.999	0.048	0.061	0.572958	0.2291832	-0.1718874	-138.3808162	-85.80619008	71.906229
7.01	701	-1.001	0.048	0.063	0.3437748	0.5156622	-0.2291832	-138.3578978	-85.81191966	71.88331068
7.02	702	-1.001	0.047	0.065	0.1145916	0.5156622	-0.1718874	-138.3292499	-85.81764924	71.85466278
7.03	703	-1.003	0.05	0.066	-0.2291832	0.0572958	0	-138.3235204	-85.81764924	71.8489332
7.04	704	-1.003	0.053	0.065	-0.3437748	-0.1718874	0	-138.3521683	-85.81764924	71.87185152
7.05	705	-1.002	0.051	0.062	-0.3437748	0	-0.1145916	-138.260495	-85.81764924	71.77444866
7.06	706	-0.999	0.049	0.055	-0.1145916	0.3437748	-0.286479	-138.260495	-85.82337882	71.77444866
7.07	707	-0.997	0.047	0.058	0.1145916	0.1718874	-0.286479	-138.2719541	-85.82337882	71.7916374
7.08	708	-0.996	0.043	0.065	-0.1718874	-0.2291832	-0.1145916	-138.3120612	-85.82337882	71.83174446
7.09	709	-0.997	0.045	0.066	-0.4010706	-0.8021412	0.1718874	-138.3808162	-85.81764924	71.88904026
7.1	710	-0.998	0.048	0.067	-0.4583664	-0.9740286	0.3437748	-138.5011373	-85.8004605	72.00936144
7.11	711	-0.998	0.049	0.065	-0.4010706	-0.6302538	0.3437748	-138.5240557	-85.79473092	72.02655018
7.12	712	-1	0.049	0.063	-0.2291832	-0.1718874	0.286479	-138.5125965	-85.78900134	72.00936144
7.13	713	-1	0.05	0.061	-0.0572958	0.1145916	0.2291832	-138.4724894	-85.78900134	71.96925438
7.14	714	-1	0.048	0.061	0	0.0572958	0.286479	-138.4266528	-85.78900134	71.92914732
7.15	715	-0.999	0.05	0.06	-0.0572958	0	0.3437748	-138.2776837	-85.78327176	71.78017824
7.16	716	-1.001	0.052	0.06	-0.1145916	-0.1718874	0.3437748	-138.260495	-85.77754218	71.75725992
7.17	717	-1	0.052	0.062	-0.1145916	-0.4583664	0.2291832	-138.2834133	-85.7718126	71.78017824
7.18	718	-1.001	0.053	0.062	-0.1145916	-0.5156622	0.0572958	-138.3235204	-85.76608302	71.81455572
7.19	719	-1.001	0.053	0.062	0	-0.5156622	0.0572958	-138.3636274	-85.76608302	71.86039236
7.2	720	-0.999	0.051	0.062	0.0572958	-0.5156622	0.0572958	-138.3808162	-85.75462386	71.8775811
7.21	721	-0.997	0.05	0.06	0	-0.572958	0	-138.438112	-85.75462386	71.92914732
7.22	722	-0.997	0.051	0.059	0	-0.6302538	-0.0572958	-138.5068669	-85.74889428	71.99790228
7.23	723	-0.998	0.05	0.06	0	-0.6302538	-0.1145916	-138.5756219	-85.7431647	72.07238682
7.24	724	-0.998	0.049	0.062	0	-0.4583664	-0.2291832	-138.6443768	-85.7431647	72.14114178
7.25	725	-0.999	0.049	0.061	0	-0.4583664	-0.1718874	-138.6443768	-85.74889428	72.14114178
7.26	726	-0.999	0.049	0.062	0	-0.3437748	-0.1145916	-138.6959431	-85.74889428	72.18697842
7.27	727	-0.999	0.048	0.06	0	-0.4010706	-0.1718874	-138.7532389	-85.7431647	72.2500038
7.28	728	-1	0.048	0.061	0.1145916	-0.4583664	-0.1145916	-138.8048051	-85.7431647	72.3072996
7.29	729	-1	0.049	0.061	0.1145916	-0.4010706	-0.1718874	-138.8621009	-85.7431647	72.3645954
7.3	730	-0.998	0.049	0.061	0.1145916	-0.5156622	-0.1145916	-138.9251263	-85.7431647	72.4218912
7.31	731	-1	0.048	0.063	0.1145916	-0.4583664	-0.2291832	-138.9938812	-85.73743512	72.49637574
7.32	732	-0.998	0.048	0.063	0.1718874	-0.2291832	-0.2291832	-139.0339883	-85.73743512	72.54221238
7.33	733	-1	0.048	0.063	0.286479	-0.1145916	-0.1718874	-139.0683658	-85.73743512	72.57658986
7.34	734	-1	0.047	0.062	0.2291832	0.1145916	-0.1145916	-139.0683658	-85.7431647	72.57658986
7.35	735	-1	0.048	0.063	0.2291832	0	-0.0572958	-139.2230644	-85.74889428	72.7370181
7.36	736	-0.999	0.047	0.065	0.1718874	-0.0572958	0	-139.2230644	-85.74889428	72.7370181
7.37	737	-0.999	0.046	0.066	0.1718874	0	0.0572958	-139.2116053	-85.74889428	72.72555894
7.38	738	-0.999	0.047	0.065	0.4010706	0.2291832	0.1145916	-139.1714982	-85.74889428	72.69118146
7.39	739	-1.001	0.049	0.065	0.3437748	0.1718874	0.1145916	-139.1371207	-85.74889428	72.66253356
7.4	740	-1.001	0.048	0.064	0.286479	0.1145916	0.1145916	-139.1485799	-85.74889428	72.67399272
7.41	741	-1.002	0.048	0.066	0.286479	0.286479	0.1718874	-139.0970137	-85.74889428	72.62815608
7.42	742	-1.002	0.047	0.065	0.2291832	0.1718874	0.2291832	-139.051177	-85.74889428	72.58231944
7.43	743	-1.002	0.049	0.065	0.1145916	0.1718874	0.1718874	-139.01107	-85.74889428	72.54221238
7.44	744	-1.002	0.051	0.063	0.1145916	0.1718874	0.1145916	-138.9766925	-85.74889428	72.51356448
7.45	745	-1.002	0.051	0.062	0.1718874	0.1145916	0.1145916	-138.7589684	-85.7431647	72.29584044
7.46	746	-1.001	0.051	0.061	0.286479	0.1145916	0	-138.7417797	-85.7431647	72.28438128
7.47	747	-1.001	0.048	0.062	0.286479	0.2291832	0	-138.7131318	-85.74889428	72.25573338
7.48	748	-0.999	0.048	0.062	0.2291832	0.286479	0	-138.6787543	-85.74889428	72.22708548
7.49	749	-0.998	0.048	0.063	0.3437748	0.2291832	0.0572958	-138.6501064	-85.74889428	72.19843758
7.5	750	-0.997	0.047	0.062	0.286479	0.1145916	0.0572958	-138.6730247	-85.74889428	72.22708548
7.51	751	-0.999	0.049	0.062	0.2291832	0.286479	0.0572958	-138.6329177	-85.75462386	72.192708
7.52	752	-1.002	0.05	0.062	0.2291832	0.286479	0.0572958	-138.5928106	-85.75462386	72.15260094
7.53	753	-1.001	0.05	0.063	0.1718874	0.3437748	0	-138.5641627	-85.76035344	72.12395304
7.54	754	-1	0.049	0.062	0.1145916	0.4010706	0	-138.5240557	-85.76035344	72.08957556
7.55	755	-0.998	0.048	0.062	0	0.0572958	0	-138.4094641	-85.7718126	71.97498396
7.56	756	-0.997	0.048	0.061	0	0.1145916	0	-138.3980049	-85.7718126	71.9635248
7.57	757	-0.998	0.047	0.061	-0.0572958	0	0	-138.3865457	-85.7718126	71.95206564
7.58	758	-0.998	0.047	0.062	-0.1145916	0	0	-138.3865457	-85.7718126	71.94633606
7.59	759	-0.998	0.047	0.059	-0.1145916	0.1145916	0.0572958	-138.369357	-85.7718126	71.92914732
7.6	760	-0.998	0.049	0.056	0	0.0572958	0.0572958	-137.6417003	-85.80619008	71.20149066
7.61	761	-1	0.049	0.059	0	-0.0572958	0	-137.6531595	-85.80619008	71.21294982
7.62	762	-0.998	0.047	0.065	-0.1718874	0.4010706	0	-137.618782	-85.81191966	71.17857234
7.63	763	-1	0.046	0.066	-0.6302538	0.4010706	0.0572958	-137.578675	-85.81191966	71.1327357
7.64	764	-1	0.051	0.065	-1.0313244	0	0.1145916	-137.5729454	-85.81191966	71.11554696
7.65	765	-1.001	0.053	0.063	-0.9167328	0	-0.1145916	-137.5672158	-85.80619008	71.09835822
7.66	766	-1	0.052	0.058	-0.6302538	0.5156622	-0.3437748	-137.5614862	-85.81764924	71.08689906
7.67	767	-0.995	0.047	0.055	-0.3437748	0.5156622	-0.572958	-137.5729454	-85.82337882	71.09262864
7.68	768	-0.994	0.039	0.065	-0.4583664	0.1718874	-0.3437748	-137.5958637	-85.8291084	71.10981738
7.69	769	-0.996	0.038	0.068	-0.9740286	0	-0.0572958	-137.618782	-85.8291084	71.12127654
7.7	770	-0.996	0.045	0.064	-1.0313244	-0.0572958	0.4010706	-137.618782	-85.82337882	71.11554696
7.71	771	-0.999	0.052	0.061	-0.8021412	0	0.3437748	-137.5901341	-85.81764924	71.08116948
7.72	772	-1	0.05	0.06	-0.5156622	0	0.1718874	-137.5729454	-85.81764924	71.05252158
7.73	773	-0.999	0.045	0.06	-0.2291832	0.2291832	0.1718874	-137.5271087	-85.81764924	71.00668494
7.74	774	-1	0.046	0.061	-0.2291832	0.1718874	0.3437748	-137.4755425	-85.81764924	70.95511872
7.75	775	-1.001	0.048	0.063	-0.1718874	-0.1145916	0.4010706	-137.5041904	-85.81191966	70.97803704
7.76	776	-1.003	0.051	0.063	-0.3437748	-0.286479	0.286479	-137.5041904	-85.80619008	70.97230746
7.77	777	-1.002	0.053	0.062	-0.2291832	-0.3437748	0.2291832	-137.5156496	-85.8004605	70.97803704
7.78	778	-1	0.05	0.062	-0.0572958	-0.4010706	0.1718874	-137.5271087	-85.79473092	70.99522578
7.79	779	-0.999	0.047	0.062	0	-0.572958	0.1145916	-137.5729454	-85.78900134	71.04106242
7.8	780	-0.997	0.048	0.06	0	-0.5156622	0.1718874	-137.6245116	-85.79473092	71.09262864
7.81	781	-0.996	0.049	0.06	0	-0.4583664	0.1718874	-137.6531595	-85.78900134	71.12127654
7.82	782	-0.995	0.048	0.059	0	-0.4583664	0.1145916	-137.687537	-85.78327176	71.15565402
7.83	783	-0.996	0.049	0.059	0.1145916	-0.5156622	0.0572958	-137.727644	-85.77754218	71.19576108
7.84	784	-0.997	0.048	0.06	0.1145916	-0.5156622	0	-137.7734807	-85.77754218	71.24159772
7.85	785	-0.999	0.045	0.062	0.1718874	-0.286479	0	-138.0370414	-85.78900134	71.5051584
7.86	786	-1	0.046	0.062	0.1145916	-0.286479	0	-138.0599597	-85.78900134	71.5338063
7.87	787	-1	0.046	0.064	0.0572958	-0.4010706	0.1718874	-138.0771484	-85.78327176	71.55099504
7.88	788	-1.002	0.047	0.062	0.0572958	-0.3437748	0.2291832	-138.082878	-85.77754218	71.55672462
7.89	789	-1.003	0.048	0.064	0	-0.1718874	0.2291832	-138.0714188	-85.77754218	71.54526546
7.9	790	-1.002	0.049	0.063	0	-0.1718874	0.286479	-138.082878	-85.76608302	71.55672462
7.91	791	-1.001	0.05	0.063	-0.1145916	0	0.1718874	-138.0599597	-85.76608302	71.52807672
7.92	792	-1	0.048	0.061	-0.0572958	0.0572958	0.1718874	-138.0313118	-85.76608302	71.5051584
7.93	793	-1	0.048	0.061	0	-0.1145916	0.1145916	-138.0313118	-85.76608302	71.5051584
7.94	794	-1.001	0.048	0.063	-0.1145916	0	0.1718874	-138.014123	-85.76035344	71.48796966
7.95	795	-1	0.048	0.063	-0.1145916	-0.2291832	0.0572958	-138.1745513	-85.76608302	71.64266832
7.96	796	-0.999	0.048	0.065	-0.286479	0	0.0572958	-138.1745513	-85.76608302	71.63693874
7.97	797	-0.998	0.049	0.066	-0.2291832	0.0572958	0.1145916	-138.1573625	-85.76608302	71.61975
7.98	798	-0.998	0.048	0.064	0	0.2291832	0.0572958	-138.1229851	-85.76608302	71.58537252
7.99	799	-1	0.048	0.063	0.0572958	0.3437748	0.1145916	-138.0714188	-85.76608302	71.5338063
8	800	-1	0.048	0.063	0.1718874	0.4010706	0.2291832	-138.0370414	-85.7718126	71.5051584
8.01	801	-1	0.048	0.065	0.2291832	0.4583664	0.286479	-137.9625568	-85.7718126	71.43067386
8.02	802	-1	0.047	0.061	0.286479	0.5156622	0.4583664	-137.865154	-85.7718126	71.333271
8.03	803	-1	0.048	0.057	0.0572958	0.2291832	0.4583664	-137.7906694	-85.7718126	71.25878646
8.04	804	-1	0.051	0.057	0	0.1718874	0.3437748	-137.7333736	-85.7718126	71.20722024
8.05	805	-1	0.051	0.06	0.1145916	0.1718874	0.2291832	-137.6531595	-85.7718126	71.12700612
8.06	806	-1.001	0.05	0.061	0.2291832	0.1145916	0.1145916	-137.6245116	-85.7718126	71.09835822
8.07	807	-0.999	0.048	0.06	0.1145916	0.1145916	0.1145916	-137.5958637	-85.7718126	71.06971032
8.08	808	-0.998	0.047	0.059	0.0572958	0.0572958	0.1718874	-137.5672158	-85.7718126	71.04106242
8.09	809	-0.998	0.048	0.06	0.1145916	0.0572958	0.1718874	-137.5385679	-85.7718126	71.0181441
8.1	810	-0.998	0.048	0.06	0	0.286479	0.2291832	-137.4067876	-85.78327176	70.88636376
8.11	811	-0.999	0.05	0.062	0	0.0572958	0.1718874	-137.3838692	-85.77754218	70.85771586
8.12	812	-1.001	0.048	0.063	-0.1145916	0.1145916	0.1145916	-137.3552213	-85.77754218	70.82906796
8.13	813	-1	0.049	0.062	0	0.2291832	0.1718874	-137.3093847	-85.78327176	70.78323132
8.14	814	-0.999	0.05	0.06	0	0.2291832	0.1718874	-137.2692776	-85.78327176	70.74312426
8.15	815	-0.999	0.05	0.06	0	0.1718874	0.1718874	-137.0630128	-85.78327176	70.53685938
8.16	816	-0.999	0.05	0.059	0	0	0.0572958	-137.0515536	-85.78327176	70.52540022
8.17	817	-0.998	0.05	0.061	0	-0.0572958	0	-137.0515536	-85.78327176	70.52540022
8.18	818	-0.999	0.049	0.06	-0.0572958	0	0.0572958	-137.0400944	-85.78327176	70.51394106
8.19	819	-0.999	0.048	0.06	0	0	0	-137.0400944	-85.78327176	70.51394106
8.2	820	-1	0.048	0.056	0.1145916	-0.0572958	0.0572958	-136.8968549	-85.8004605	70.37643114
8.21	821	-1.001	0.05	0.057	0.1145916	-0.0572958	0.0572958	-136.8968549	-85.8004605	70.37070156
8.22	822	-1.001	0.048	0.06	0	0	0.1718874	-136.8796662	-85.79473092	70.35351282
8.23	823	-1.003	0.046	0.059	-0.2291832	-0.4010706	0.1718874	-136.8968549	-85.79473092	70.37643114
8.24	824	-1.003	0.051	0.061	-0.2291832	-0.7448454	0.286479	-136.9426916	-85.78327176	70.4165382
8.25	825	-1.004	0.052	0.061	-0.1145916	-0.6302538	0.3437748	-136.936962	-85.77754218	70.41080862
8.26	826	-1.002	0.048	0.054	-0.1718874	0.286479	0.3437748	-136.8739366	-85.77754218	70.34205366
8.27	827	-1.005	0.041	0.048	0	-0.4010706	0.4583664	-136.868207	-85.7718126	70.34205366
8.28	828	-1.013	0.039	0.063	-0.0572958	-1.3178034	0.6875496	-136.9312324	-85.75462386	70.39934946
8.29	829	-1.012	0.042	0.074	-0.2291832	-1.0886202	1.2605076	-136.9083141	-85.73743512	70.37643114
8.3	830	-1.006	0.052	0.072	-0.1718874	-0.4583664	1.5469866	-136.8452887	-85.7145168	70.31340576
8.31	831	-1.013	0.056	0.068	-0.3437748	-0.286479	1.6042824	-136.7249675	-85.70305764	70.187355
8.32	832	-1.024	0.045	0.073	-0.4010706	-0.8021412	1.5469866	-136.6562126	-85.6858689	70.11287046
8.33	833	-1.04	0.035	0.086	-0.6302538	-1.4896908	1.6615782	-136.6447534	-85.66295058	70.09568172
