TimeStamp(s)	FrameCounter	AccX	AccY	AccZ	GyrX	GyrY	GyrZ	EulerX	EulerY	EulerZ
0.01	1	-0.084	-1.001	-0.074	0.4010706	-0.1145916	0.1718874	82.97004798	-4.3258329	-28.42444638
0.02	2	-0.084	-1.002	-0.075	0.4010706	-0.1718874	0.1718874	82.97577756	-4.3258329	-28.42444638
0.03	3	-0.086	-1.003	-0.072	0.4010706	-0.1145916	0.1718874	82.98150714	-4.33156248	-28.42444638
0.04	4	-0.089	-1.004	-0.07	0.4583664	0	0.1718874	82.98723672	-4.33156248	-28.42444638
0.05	5	-0.088	-1.003	-0.068	0.5156622	0.1145916	0.0572958	83.07891	-4.36021038	-28.43590554
0.06	6	-0.088	-1.003	-0.068	0.6302538	0.286479	0	83.08463958	-4.36021038	-28.43590554
0.07	7	-0.086	-1.002	-0.071	0.6302538	0.0572958	-0.1145916	83.09609874	-4.36021038	-28.43590554
0.08	8	-0.086	-0.999	-0.073	0.6875496	0	-0.1145916	83.10182832	-4.3544808	-28.43590554
0.09	9	-0.086	-0.998	-0.076	0.9167328	-0.0572958	-0.0572958	83.1075579	-4.3544808	-28.43590554
0.1	10	-0.089	-0.997	-0.075	0.9740286	-0.2291832	-0.0572958	83.17058328	-4.3831287	-28.4473647
0.11	11	-0.093	-0.998	-0.069	0.572958	-0.1145916	-0.1145916	83.17631286	-4.37739912	-28.45309428
0.12	12	-0.092	-1	-0.071	0.286479	0.1145916	-0.1718874	83.18204244	-4.37739912	-28.4473647
0.13	13	-0.09	-0.999	-0.07	0.2291832	0.286479	-0.2291832	83.18204244	-4.37166954	-28.4473647
0.14	14	-0.084	-1.001	-0.07	-0.1718874	0.4010706	-0.1145916	83.18204244	-4.37166954	-28.44163512
0.15	15	-0.085	-1.001	-0.072	-0.2291832	0	0	83.32528194	-4.40604702	-28.46455344
0.16	16	-0.084	-0.998	-0.073	-0.1145916	-0.1145916	0	83.32528194	-4.40604702	-28.46455344
0.17	17	-0.089	-0.999	-0.071	0.1145916	-0.3437748	0	83.32528194	-4.40604702	-28.47028302
0.18	18	-0.092	-0.995	-0.069	0.0572958	-0.1718874	-0.0572958	83.32528194	-4.40604702	-28.47028302
0.19	19	-0.094	-0.997	-0.069	0.1145916	-0.0572958	-0.286479	83.33101152	-4.40031744	-28.47028302
0.2	20	-0.092	-0.996	-0.07	0.1145916	0.1145916	-0.3437748	83.38830732	-4.43469492	-28.48747176
0.21	21	-0.088	-0.997	-0.075	0.1718874	0.286479	-0.3437748	83.3940369	-4.42896534	-28.48174218
0.22	22	-0.085	-0.996	-0.074	0.286479	0	-0.286479	83.3940369	-4.42896534	-28.48174218
0.23	23	-0.083	-0.997	-0.075	0.3437748	-0.2291832	-0.2291832	83.39976648	-4.42323576	-28.48747176
0.24	24	-0.084	-0.996	-0.074	0.3437748	-0.4010706	-0.286479	83.40549606	-4.42323576	-28.49320134
0.25	25	-0.085	-0.997	-0.078	0.4010706	-0.286479	-0.286479	83.43414396	-4.42896534	-28.49893092
0.26	26	-0.085	-0.999	-0.077	0.5156622	-0.1145916	-0.286479	83.43987354	-4.42896534	-28.49893092
0.27	27	-0.085	-1.002	-0.076	0.572958	-0.1718874	-0.3437748	83.44560312	-4.42323576	-28.5046605
0.28	28	-0.084	-1.004	-0.071	0.4010706	0	-0.2291832	83.4513327	-4.41750618	-28.5046605
0.29	29	-0.081	-1.004	-0.075	0.2291832	0.1145916	-0.0572958	83.45706228	-4.41750618	-28.49893092
0.3	30	-0.078	-1.005	-0.075	0.1718874	0	-0.0572958	83.52008766	-4.40604702	-28.49893092
0.31	31	-0.078	-1.004	-0.071	0.1718874	0	-0.0572958	83.52581724	-4.40031744	-28.49893092
0.32	32	-0.079	-1.001	-0.069	0	-0.0572958	-0.1718874	83.52581724	-4.40031744	-28.49893092
0.33	33	-0.081	-1.002	-0.069	-0.1145916	-0.0572958	-0.286479	83.52581724	-4.40031744	-28.5046605
0.34	34	-0.082	-1.001	-0.071	-0.2291832	0.3437748	-0.3437748	83.52008766	-4.39458786	-28.49893092
0.35	35	-0.083	-1.002	-0.07	-0.1718874	0.3437748	-0.286479	83.57738346	-4.40031744	-28.5046605
0.36	36	-0.084	-1.002	-0.069	-0.2291832	0.3437748	-0.1145916	83.57738346	-4.39458786	-28.49893092
0.37	37	-0.084	-1.001	-0.071	-0.286479	0.1718874	0.1145916	83.57165388	-4.40031744	-28.49893092
0.38	38	-0.086	-1.001	-0.069	-0.2291832	0	0.2291832	83.57165388	-4.40031744	-28.49893092
0.39	39	-0.087	-1	-0.069	-0.286479	-0.1718874	0.2291832	83.5659243	-4.40604702	-28.49893092
0.4	40	-0.087	-0.999	-0.071	-0.1718874	-0.2291832	0.1145916	83.651868	-4.44615408	-28.51611966
0.41	41	-0.087	-0.999	-0.072	-0.1145916	-0.1718874	0.1145916	83.651868	-4.44615408	-28.52184924
0.42	42	-0.089	-1	-0.073	0	-0.3437748	0	83.651868	-4.44615408	-28.52184924
0.43	43	-0.088	-1.001	-0.074	0.0572958	-0.4583664	0	83.651868	-4.44615408	-28.52757882
0.44	44	-0.089	-1.001	-0.074	0.0572958	-0.5156622	0	83.651868	-4.45188366	-28.5333084
0.45	45	-0.091	-0.999	-0.071	0	-0.4010706	0.0572958	83.73208212	-4.4977203	-28.55622672
0.46	46	-0.091	-1.001	-0.072	-0.0572958	-0.5156622	0.1718874	83.72635254	-4.50344988	-28.5619563
0.47	47	-0.091	-1.001	-0.072	-0.1145916	-0.286479	0.286479	83.72635254	-4.50344988	-28.56768588
0.48	48	-0.091	-1	-0.072	-0.1718874	-0.0572958	0.1718874	83.72635254	-4.50917946	-28.56768588
0.49	49	-0.09	-1.001	-0.071	-0.2291832	0.1145916	-0.0572958	83.72062296	-4.50344988	-28.5619563
0.5	50	-0.087	-1.002	-0.074	-0.2291832	0.1718874	-0.0572958	83.78364834	-4.51490904	-28.56768588
0.51	51	-0.085	-1.004	-0.073	-0.3437748	0	0	83.77791876	-4.51490904	-28.56768588
0.52	52	-0.086	-1.001	-0.075	-0.286479	-0.2291832	0	83.77791876	-4.51490904	-28.57341546
0.53	53	-0.086	-0.999	-0.076	-0.0572958	-0.2291832	-0.1145916	83.77791876	-4.51490904	-28.57341546
0.54	54	-0.087	-1	-0.076	-0.0572958	-0.1145916	-0.2291832	83.77791876	-4.51490904	-28.57914504
0.55	55	-0.087	-0.998	-0.074	-0.0572958	-0.1145916	-0.1718874	83.86386246	-4.56074568	-28.59633378
0.56	56	-0.088	-0.994	-0.075	0	0.0572958	-0.1145916	83.86386246	-4.56074568	-28.59633378
0.57	57	-0.088	-0.993	-0.076	0.0572958	0.1718874	-0.2291832	83.86386246	-4.5550161	-28.59633378
0.58	58	-0.086	-0.994	-0.076	0.1145916	0.1145916	-0.2291832	83.86386246	-4.5550161	-28.59633378
0.59	59	-0.086	-0.995	-0.077	0.2291832	0	-0.2291832	83.86959204	-4.54928652	-28.59633378
0.6	60	-0.085	-0.996	-0.076	0.2291832	0	-0.2291832	83.89251036	-4.5550161	-28.59633378
0.61	61	-0.085	-0.996	-0.077	0.3437748	0	-0.286479	83.89823994	-4.54928652	-28.59633378
0.62	62	-0.087	-0.997	-0.076	0.4583664	0	-0.2291832	83.90396952	-4.54928652	-28.59633378
0.63	63	-0.087	-0.999	-0.076	0.4583664	0	-0.286479	83.9096991	-4.54355694	-28.60206336
0.64	64	-0.087	-1.001	-0.076	0.5156622	0	-0.286479	83.91542868	-4.54355694	-28.60206336
0.65	65	-0.087	-1.001	-0.076	0.572958	0.1145916	-0.2291832	83.938347	-4.54928652	-28.60206336
0.66	66	-0.087	-1.002	-0.077	0.572958	0.2291832	-0.1718874	83.94407658	-4.54355694	-28.60206336
0.67	67	-0.086	-1.002	-0.076	0.5156622	0.2291832	-0.1145916	83.94980616	-4.54355694	-28.59633378
0.68	68	-0.085	-1.002	-0.076	0.5156622	0.2291832	0	83.95553574	-4.54355694	-28.59633378
0.69	69	-0.083	-1	-0.076	0.6302538	0.1718874	0.0572958	83.96126532	-4.54355694	-28.5906042
0.7	70	-0.08	-1.001	-0.076	0.6302538	0	0.0572958	83.98418364	-4.53782736	-28.5906042
0.71	71	-0.08	-0.999	-0.074	0.6302538	-0.4010706	0.3437748	83.98991322	-4.53782736	-28.59633378
0.72	72	-0.082	-0.999	-0.072	0.572958	-0.572958	0.4583664	83.9956428	-4.54355694	-28.60206336
0.73	73	-0.085	-1.001	-0.074	0.4583664	-0.4583664	0.3437748	84.00137238	-4.54928652	-28.60206336
0.74	74	-0.085	-0.999	-0.073	0.4010706	-0.3437748	0.286479	84.00710196	-4.5550161	-28.60779294
0.75	75	-0.086	-1.001	-0.073	0.286479	-0.1145916	0.3437748	84.03002028	-4.56647526	-28.61352252
0.76	76	-0.085	-0.999	-0.074	0.2291832	-0.1145916	0.3437748	84.03002028	-4.56647526	-28.61352252
0.77	77	-0.084	-0.999	-0.072	0.3437748	-0.2291832	0.3437748	84.03574986	-4.57220484	-28.61352252
0.78	78	-0.084	-1	-0.07	0.0572958	-0.1145916	0.286479	84.03574986	-4.57220484	-28.61352252
0.79	79	-0.084	-1.001	-0.069	0.0572958	-0.0572958	0.286479	84.03574986	-4.57793442	-28.61352252
0.8	80	-0.085	-1.001	-0.069	0	0	0.1718874	84.09877524	-4.58939358	-28.62498168
0.81	81	-0.087	-1	-0.07	0	0	0.1718874	84.09877524	-4.58939358	-28.62498168
0.82	82	-0.088	-0.999	-0.072	-0.0572958	0.0572958	0.2291832	84.09877524	-4.59512316	-28.6192521
0.83	83	-0.088	-0.998	-0.071	-0.1145916	0.3437748	0.286479	84.09304566	-4.59512316	-28.6192521
0.84	84	-0.087	-0.998	-0.07	0	0.286479	0.2291832	84.09304566	-4.60085274	-28.61352252
0.85	85	-0.088	-0.999	-0.071	0.1718874	0.286479	0.286479	84.12169356	-4.61804148	-28.61352252
0.86	86	-0.089	-0.998	-0.071	0.1145916	0.1718874	0.3437748	84.12169356	-4.61804148	-28.61352252
0.87	87	-0.09	-0.999	-0.07	0.1718874	0.1145916	0.4010706	84.12169356	-4.62377106	-28.61352252
0.88	88	-0.089	-1	-0.072	0.0572958	0.1145916	0.2291832	84.12169356	-4.62377106	-28.60779294
0.89	89	-0.09	-1	-0.073	0.1145916	0.1145916	0.1718874	84.12742314	-4.62950064	-28.60779294
0.9	90	-0.087	-1.001	-0.071	0	0.0572958	0.0572958	84.1675302	-4.6409598	-28.61352252
0.91	91	-0.087	-1.001	-0.071	0	0	0.0572958	84.1675302	-4.64668938	-28.61352252
0.92	92	-0.086	-1	-0.072	-0.0572958	0	0.0572958	84.1675302	-4.64668938	-28.61352252
0.93	93	-0.086	-0.999	-0.073	0.0572958	-0.0572958	0	84.1675302	-4.64668938	-28.61352252
0.94	94	-0.085	-1	-0.073	-0.1718874	0.1145916	-0.0572958	84.1675302	-4.6409598	-28.61352252
0.95	95	-0.084	-1.001	-0.074	-0.2291832	0.0572958	-0.0572958	84.18471894	-4.63523022	-28.61352252
0.96	96	-0.084	-1.001	-0.073	-0.286479	0	-0.0572958	84.17898936	-4.63523022	-28.61352252
0.97	97	-0.084	-1	-0.075	-0.286479	0	0	84.17325978	-4.63523022	-28.61352252
0.98	98	-0.085	-1	-0.073	-0.4010706	0	-0.1718874	84.17325978	-4.62950064	-28.61352252
0.99	99	-0.086	-0.999	-0.075	-0.3437748	0	-0.2291832	84.1675302	-4.62950064	-28.61352252
1	100	-0.087	-0.997	-0.075	-0.286479	0.0572958	-0.3437748	84.17325978	-4.62950064	-28.61352252
1.01	101	-0.086	-1	-0.073	-0.1718874	0.0572958	-0.4583664	84.1675302	-4.62377106	-28.61352252
1.02	102	-0.085	-1.001	-0.075	-0.2291832	0	-0.5156622	84.1675302	-4.61804148	-28.61352252
1.03	103	-0.085	-0.997	-0.079	-0.1718874	-0.1145916	-0.4010706	84.16180062	-4.6123119	-28.61352252
1.04	104	-0.088	-0.998	-0.076	-0.0572958	0	-0.4010706	84.16180062	-4.6123119	-28.6192521
1.05	105	-0.089	-1	-0.072	-0.1145916	0	-0.4010706	84.17898936	-4.61804148	-28.6192521
1.06	106	-0.088	-0.999	-0.075	-0.2291832	0.1145916	-0.3437748	84.17325978	-4.6123119	-28.6192521
1.07	107	-0.089	-1.002	-0.071	-0.1718874	0.0572958	-0.286479	84.17325978	-4.6123119	-28.6192521
1.08	108	-0.09	-1.002	-0.071	-0.1718874	0.1718874	-0.4010706	84.17325978	-4.60658232	-28.6192521
1.09	109	-0.088	-1.003	-0.073	-0.1718874	0.4010706	-0.4010706	84.1675302	-4.60085274	-28.61352252
1.1	110	-0.085	-1.002	-0.073	-0.3437748	0.4010706	-0.286479	84.17325978	-4.60085274	-28.61352252
1.11	111	-0.083	-1	-0.073	-0.3437748	-0.0572958	-0.1718874	84.17325978	-4.60085274	-28.61352252
1.12	112	-0.082	-0.999	-0.075	-0.1718874	-0.3437748	-0.0572958	84.17325978	-4.60085274	-28.61352252
1.13	113	-0.083	-0.997	-0.073	0	-0.5156622	-0.1718874	84.17325978	-4.59512316	-28.6192521
1.14	114	-0.085	-0.998	-0.071	0.1145916	-0.2291832	-0.4010706	84.17325978	-4.59512316	-28.62498168
1.15	115	-0.086	-0.997	-0.073	0.286479	-0.1145916	-0.4583664	84.18471894	-4.59512316	-28.63071126
1.16	116	-0.088	-0.997	-0.073	0.3437748	0	-0.5156622	84.19044852	-4.59512316	-28.63071126
1.17	117	-0.09	-0.998	-0.074	0.4010706	-0.0572958	-0.3437748	84.1961781	-4.58939358	-28.63071126
1.18	118	-0.088	-0.999	-0.073	0.286479	0	-0.1718874	84.1961781	-4.58939358	-28.63071126
1.19	119	-0.086	-0.998	-0.074	0.3437748	0.1718874	0.1145916	84.20190768	-4.58939358	-28.63071126
1.2	120	-0.085	-0.999	-0.074	0.286479	0	0.1145916	84.23055558	-4.60085274	-28.63071126
1.21	121	-0.084	-0.999	-0.072	0.2291832	0	0	84.23055558	-4.60085274	-28.63071126
1.22	122	-0.086	-1	-0.073	0.286479	-0.0572958	0	84.23628516	-4.60085274	-28.63644084
1.23	123	-0.087	-1	-0.073	0.3437748	-0.1145916	-0.1718874	84.23628516	-4.60085274	-28.63644084
1.24	124	-0.088	-1.001	-0.072	0.3437748	0.0572958	-0.2291832	84.24201474	-4.59512316	-28.63644084
1.25	125	-0.087	-1.001	-0.072	0.3437748	0.1145916	-0.1718874	84.25920348	-4.60085274	-28.63644084
1.26	126	-0.086	-1	-0.073	0.572958	0	-0.1145916	84.26493306	-4.60085274	-28.63644084
1.27	127	-0.085	-1	-0.072	0.4583664	0.0572958	-0.0572958	84.27066264	-4.60085274	-28.63644084
1.28	128	-0.085	-0.999	-0.073	0.5156622	0.1718874	0	84.27639222	-4.60085274	-28.63071126
1.29	129	-0.085	-0.999	-0.075	0.4010706	0.2291832	0.0572958	84.2821218	-4.60085274	-28.63071126
1.3	130	-0.085	-0.997	-0.074	0.4583664	0.1145916	0.1145916	84.28785138	-4.60658232	-28.63071126
1.31	131	-0.086	-0.997	-0.074	0.5156622	0.1145916	0.1145916	84.29358096	-4.60658232	-28.63071126
1.32	132	-0.087	-1	-0.077	0.6302538	0.286479	0.1718874	84.29931054	-4.60658232	-28.62498168
1.33	133	-0.086	-0.999	-0.077	0.7448454	0.3437748	0.1718874	84.30504012	-4.6123119	-28.6192521
1.34	134	-0.086	-0.999	-0.074	0.572958	0.4010706	0.2291832	84.3107697	-4.6123119	-28.6192521
1.35	135	-0.086	-1	-0.075	0.7448454	0.4010706	0.3437748	84.32222886	-4.6123119	-28.61352252
1.36	136	-0.085	-1	-0.074	0.6302538	0.2291832	0.5156622	84.32795844	-4.61804148	-28.60779294
1.37	137	-0.082	-0.999	-0.073	0.6302538	0.1145916	0.6302538	84.3394176	-4.62377106	-28.60779294
1.38	138	-0.081	-1	-0.073	0.572958	0.0572958	0.572958	84.34514718	-4.63523022	-28.60779294
1.39	139	-0.082	-0.999	-0.073	0.3437748	0.0572958	0.572958	84.34514718	-4.6409598	-28.60206336
1.4	140	-0.083	-1.001	-0.07	0.286479	0.1145916	0.4010706	84.3680655	-4.63523022	-28.60206336
1.41	141	-0.083	-1.001	-0.072	0.3437748	0	0.3437748	84.37379508	-4.63523022	-28.60206336
1.42	142	-0.084	-1.001	-0.07	0.286479	0	0.2291832	84.37379508	-4.6409598	-28.60206336
1.43	143	-0.083	-0.999	-0.07	0.286479	0.1145916	0.2291832	84.37952466	-4.6409598	-28.60206336
1.44	144	-0.083	-1	-0.07	0.286479	0.0572958	0.1145916	84.37952466	-4.6409598	-28.59633378
1.45	145	-0.085	-1	-0.071	0.1145916	0.1718874	0.0572958	84.3967134	-4.64668938	-28.59633378
1.46	146	-0.084	-0.999	-0.07	0.286479	0	0.1718874	84.40244298	-4.64668938	-28.59633378
1.47	147	-0.085	-1	-0.068	0.286479	0	0.2291832	84.40244298	-4.65241896	-28.59633378
1.48	148	-0.084	-0.999	-0.07	0.2291832	0	0.286479	84.40817256	-4.65241896	-28.59633378
1.49	149	-0.084	-1	-0.07	0.1145916	-0.1718874	0.2291832	84.40817256	-4.65814854	-28.59633378
1.5	150	-0.086	-1	-0.067	0.1718874	-0.3437748	0.1718874	84.43682046	-4.65814854	-28.60206336
1.51	151	-0.087	-0.999	-0.067	0.1145916	-0.3437748	0.2291832	84.43682046	-4.66387812	-28.60779294
1.52	152	-0.088	-1	-0.067	0.1145916	-0.3437748	0.1718874	84.43682046	-4.66387812	-28.61352252
1.53	153	-0.088	-1.001	-0.067	0.0572958	-0.2291832	0.1718874	84.43682046	-4.6696077	-28.61352252
1.54	154	-0.086	-1.002	-0.066	0	-0.2291832	0.1718874	84.44255004	-4.6696077	-28.61352252
1.55	155	-0.086	-1.002	-0.066	0.0572958	-0.4010706	0.286479	84.46546836	-4.68106686	-28.62498168
1.56	156	-0.086	-1.002	-0.065	0.0572958	-0.4583664	0.286479	84.46546836	-4.68106686	-28.62498168
1.57	157	-0.087	-1	-0.065	0.0572958	-0.1718874	0.286479	84.46546836	-4.68679644	-28.63071126
1.58	158	-0.088	-1.001	-0.067	0	-0.0572958	0.2291832	84.46546836	-4.68679644	-28.63071126
1.59	159	-0.088	-1.002	-0.066	-0.0572958	-0.1145916	0.1718874	84.46546836	-4.69252602	-28.63071126
1.6	160	-0.088	-1.002	-0.067	-0.1145916	0	0.1145916	84.49411626	-4.6982556	-28.63071126
1.61	161	-0.087	-1.002	-0.066	-0.1718874	0	0.1718874	84.48838668	-4.6982556	-28.63071126
1.62	162	-0.088	-1	-0.067	-0.1145916	0.0572958	0.2291832	84.48838668	-4.6982556	-28.63071126
1.63	163	-0.089	-1	-0.069	-0.2291832	0.0572958	0.0572958	84.4826571	-4.70398518	-28.63071126
1.64	164	-0.087	-1.001	-0.07	-0.1718874	0.0572958	0.0572958	84.4826571	-4.70398518	-28.63071126
1.65	165	-0.085	-1.002	-0.071	-0.1145916	0	0.0572958	84.49984584	-4.70398518	-28.63071126
1.66	166	-0.085	-1.003	-0.071	-0.2291832	-0.1145916	0.0572958	84.49984584	-4.70398518	-28.63071126
1.67	167	-0.088	-1.001	-0.07	-0.2291832	0	0.1145916	84.49411626	-4.70398518	-28.63644084
1.68	168	-0.091	-1.003	-0.069	-0.3437748	0.0572958	0	84.49411626	-4.70971476	-28.63071126
1.69	169	-0.091	-1	-0.068	-0.572958	0.1718874	0.0572958	84.48838668	-4.70971476	-28.63071126
1.7	170	-0.09	-1.002	-0.063	-0.572958	0.2291832	0	84.50557542	-4.71544434	-28.63071126
1.71	171	-0.086	-1.004	-0.064	-0.7448454	0.4010706	0	84.49411626	-4.71544434	-28.62498168
1.72	172	-0.083	-1.004	-0.064	-0.859437	0.5156622	0	84.4826571	-4.71544434	-28.6192521
1.73	173	-0.082	-1.006	-0.06	-1.145916	0.4010706	0.1145916	84.47119794	-4.71544434	-28.6192521
1.74	174	-0.082	-1.002	-0.065	-1.3750992	-0.1145916	0.1718874	84.45973878	-4.72117392	-28.6192521
1.75	175	-0.083	-1.001	-0.065	-1.145916	-0.4583664	0.1718874	84.45973878	-4.72117392	-28.62498168
1.76	176	-0.086	-1.002	-0.064	-1.0313244	-0.286479	0.1145916	84.44827962	-4.72117392	-28.62498168
1.77	177	-0.087	-1	-0.064	-0.8021412	-0.1145916	0	84.44255004	-4.72117392	-28.63071126
1.78	178	-0.087	-1	-0.065	-0.859437	0	-0.1145916	84.43109088	-4.72117392	-28.63071126
1.79	179	-0.088	-0.999	-0.064	-0.9167328	0	-0.0572958	84.4253613	-4.72117392	-28.63071126
1.8	180	-0.09	-0.998	-0.066	-1.0313244	0.0572958	-0.0572958	84.4253613	-4.7269035	-28.63071126
1.81	181	-0.089	-0.997	-0.069	-1.145916	0.1718874	-0.1145916	84.41390214	-4.7269035	-28.63071126
1.82	182	-0.091	-0.999	-0.071	-1.0886202	0.2291832	-0.1145916	84.40244298	-4.7269035	-28.62498168
1.83	183	-0.09	-0.999	-0.07	-1.145916	0.1718874	-0.2291832	84.39098382	-4.72117392	-28.62498168
1.84	184	-0.091	-0.999	-0.069	-1.0886202	0.2291832	-0.2291832	84.37952466	-4.72117392	-28.62498168
1.85	185	-0.091	-0.999	-0.07	-0.9740286	0.3437748	-0.286479	84.37379508	-4.72117392	-28.6192521
1.86	186	-0.09	-1.001	-0.07	-0.9167328	0.3437748	-0.1718874	84.3680655	-4.72117392	-28.6192521
1.87	187	-0.088	-1	-0.07	-0.859437	0.3437748	0	84.35660634	-4.72117392	-28.61352252
1.88	188	-0.088	-1.002	-0.069	-0.859437	0.286479	0.0572958	84.35087676	-4.72117392	-28.61352252
1.89	189	-0.09	-1.002	-0.069	-0.7448454	0.286479	0.1718874	84.3394176	-4.72117392	-28.60779294
1.9	190	-0.088	-1.003	-0.068	-0.7448454	0.4583664	0.1145916	84.3394176	-4.7269035	-28.60206336
1.91	191	-0.086	-1.001	-0.071	-0.7448454	0.572958	0.2291832	84.33368802	-4.7269035	-28.59633378
1.92	192	-0.087	-1.001	-0.073	-0.6875496	0.5156622	0.4010706	84.32795844	-4.73263308	-28.5906042
1.93	193	-0.089	-1	-0.071	-0.6875496	0.4583664	0.3437748	84.31649928	-4.73836266	-28.58487462
1.94	194	-0.087	-1.002	-0.07	-0.6875496	0.7448454	0.4010706	84.3107697	-4.73836266	-28.57914504
1.95	195	-0.087	-1	-0.072	-0.9167328	0.859437	0.3437748	84.30504012	-4.74409224	-28.57341546
1.96	196	-0.087	-1.001	-0.072	-0.9740286	0.7448454	0.2291832	84.29358096	-4.74409224	-28.5619563
1.97	197	-0.085	-1.002	-0.072	-1.0886202	0.7448454	0.2291832	84.2821218	-4.74409224	-28.55622672
1.98	198	-0.084	-1	-0.072	-0.9740286	0.4010706	0.2291832	84.27066264	-4.74982182	-28.55049714
1.99	199	-0.082	-1	-0.071	-1.0886202	0.2291832	0.1145916	84.25920348	-4.74982182	-28.55049714
2	200	-0.081	-0.999	-0.068	-0.4583664	0	0	84.29931054	-4.7269035	-28.55049714
2.01	201	-0.084	-1	-0.067	-0.286479	-0.1145916	-0.1145916	84.29358096	-4.7269035	-28.55049714
2.02	202	-0.086	-1	-0.065	-0.4010706	-0.0572958	-0.286479	84.28785138	-4.72117392	-28.55049714
2.03	203	-0.088	-1	-0.066	-0.3437748	-0.0572958	-0.4010706	84.28785138	-4.72117392	-28.55622672
2.04	204	-0.089	-1.002	-0.066	-0.3437748	-0.1145916	-0.3437748	84.2821218	-4.71544434	-28.55622672
2.05	205	-0.088	-1.002	-0.067	-0.2291832	-0.1145916	-0.2291832	84.31649928	-4.72117392	-28.5619563
2.06	206	-0.088	-1.001	-0.068	-0.286479	-0.1145916	-0.286479	84.3107697	-4.71544434	-28.5619563
2.07	207	-0.086	-1	-0.067	-0.3437748	-0.0572958	-0.2291832	84.3107697	-4.71544434	-28.5619563
2.08	208	-0.087	-1	-0.068	-0.1145916	-0.0572958	-0.2291832	84.30504012	-4.70971476	-28.5619563
2.09	209	-0.088	-0.999	-0.07	-0.1718874	-0.2291832	-0.2291832	84.30504012	-4.70971476	-28.56768588
2.1	210	-0.088	-0.998	-0.069	0	-0.2291832	-0.1145916	84.3394176	-4.71544434	-28.57341546
2.11	211	-0.089	-0.998	-0.069	0.1718874	-0.3437748	-0.1145916	84.34514718	-4.70971476	-28.57914504
2.12	212	-0.09	-0.999	-0.07	0.1718874	-0.2291832	-0.2291832	84.34514718	-4.70971476	-28.57914504
2.13	213	-0.09	-1	-0.07	0.2291832	-0.2291832	-0.1718874	84.35087676	-4.70971476	-28.58487462
2.14	214	-0.09	-1.002	-0.07	0.1145916	-0.3437748	-0.0572958	84.35087676	-4.70971476	-28.58487462
2.15	215	-0.09	-1	-0.07	0.0572958	-0.286479	-0.0572958	84.3680655	-4.72117392	-28.5906042
2.16	216	-0.09	-1.001	-0.073	0.1718874	-0.2291832	-0.0572958	84.37379508	-4.72117392	-28.59633378
2.17	217	-0.089	-1.001	-0.071	0.2291832	-0.2291832	0	84.37379508	-4.71544434	-28.59633378
2.18	218	-0.089	-1.002	-0.069	0.1718874	-0.0572958	0	84.37379508	-4.71544434	-28.59633378
2.19	219	-0.089	-1.002	-0.07	0.0572958	-0.1145916	0.0572958	84.37952466	-4.72117392	-28.60206336
2.2	220	-0.088	-1.001	-0.073	-0.0572958	-0.1145916	0	84.37952466	-4.7269035	-28.60206336
2.21	221	-0.09	-0.999	-0.073	-0.0572958	-0.0572958	0.1145916	84.37952466	-4.7269035	-28.60206336
2.22	222	-0.091	-0.997	-0.073	0	0.0572958	0	84.37952466	-4.7269035	-28.60206336
2.23	223	-0.09	-0.998	-0.075	0.1145916	0.1145916	0	84.37952466	-4.7269035	-28.60206336
2.24	224	-0.089	-0.999	-0.073	0.1718874	0	0	84.38525424	-4.7269035	-28.60206336
2.25	225	-0.089	-0.998	-0.074	0.1145916	0.0572958	-0.0572958	84.39098382	-4.73836266	-28.60206336
2.26	226	-0.089	-0.996	-0.075	0.1718874	0.0572958	-0.1145916	84.39098382	-4.73263308	-28.60206336
2.27	227	-0.089	-0.996	-0.075	0.1718874	0.1145916	-0.2291832	84.3967134	-4.73263308	-28.60206336
2.28	228	-0.09	-0.997	-0.076	0.286479	0.2291832	-0.286479	84.3967134	-4.7269035	-28.59633378
2.29	229	-0.088	-0.998	-0.077	0.5156622	0.0572958	-0.286479	84.40244298	-4.7269035	-28.59633378
2.3	230	-0.088	-0.997	-0.076	0.5156622	-0.0572958	-0.286479	84.40817256	-4.73263308	-28.59633378
2.31	231	-0.093	-0.998	-0.073	0.572958	0.1718874	-0.2291832	84.41390214	-4.7269035	-28.59633378
2.32	232	-0.093	-0.995	-0.076	0.5156622	0.4583664	-0.3437748	84.41963172	-4.72117392	-28.5906042
2.33	233	-0.09	-0.993	-0.076	0.4583664	0.4010706	-0.1145916	84.4253613	-4.72117392	-28.5906042
2.34	234	-0.088	-0.993	-0.076	0.5156622	0.2291832	0	84.43109088	-4.72117392	-28.58487462
2.35	235	-0.088	-0.998	-0.073	0.572958	0.3437748	-0.1145916	84.43682046	-4.72117392	-28.58487462
2.36	236	-0.088	-1.002	-0.073	0.9167328	0.7448454	-0.3437748	84.44827962	-4.72117392	-28.57341546
2.37	237	-0.088	-1.005	-0.072	0.859437	0.6875496	-0.2291832	84.4540092	-4.71544434	-28.56768588
2.38	238	-0.088	-1.005	-0.07	0.859437	0	0	84.46546836	-4.71544434	-28.56768588
2.39	239	-0.086	-1.001	-0.071	0.6875496	0	0.0572958	84.47119794	-4.71544434	-28.56768588
2.4	240	-0.085	-0.998	-0.073	0.6302538	0.286479	0	84.47692752	-4.71544434	-28.5619563
2.41	241	-0.085	-0.999	-0.072	0.5156622	0.1718874	-0.1145916	84.4826571	-4.70971476	-28.5619563
2.42	242	-0.088	-0.996	-0.071	0.4010706	0.1145916	-0.286479	84.48838668	-4.70971476	-28.5619563
2.43	243	-0.089	-0.994	-0.072	0.4583664	0.0572958	-0.2291832	84.48838668	-4.70398518	-28.5619563
2.44	244	-0.088	-0.995	-0.073	0.6302538	0	-0.1145916	84.49984584	-4.70398518	-28.5619563
2.45	245	-0.086	-0.996	-0.07	0.6875496	-0.1145916	-0.0572958	84.511305	-4.70398518	-28.5619563
2.46	246	-0.084	-0.994	-0.074	0.6302538	-0.3437748	0	84.51703458	-4.70398518	-28.56768588
2.47	247	-0.086	-0.997	-0.074	0.859437	-0.286479	0	84.52276416	-4.70398518	-28.56768588
2.48	248	-0.085	-0.999	-0.07	0.859437	-0.286479	-0.1145916	84.53422332	-4.70398518	-28.57341546
2.49	249	-0.088	-0.996	-0.075	0.7448454	-0.1718874	-0.286479	84.5399529	-4.70398518	-28.57341546
2.5	250	-0.09	-1.005	-0.066	0.9167328	-0.2291832	-0.286479	84.56287122	-4.70971476	-28.57914504
2.51	251	-0.091	-1.008	-0.062	0.6302538	-0.1145916	-0.2291832	84.57433038	-4.70398518	-28.57914504
2.52	252	-0.088	-1.004	-0.069	0.1718874	-0.0572958	-0.1145916	84.57433038	-4.70398518	-28.57914504
2.53	253	-0.086	-1.006	-0.069	0.286479	-0.2291832	0	84.58005996	-4.70398518	-28.58487462
2.54	254	-0.086	-1.002	-0.07	0.4583664	-0.286479	0	84.58005996	-4.70398518	-28.58487462
2.55	255	-0.085	-0.997	-0.07	0.3437748	-0.572958	-0.0572958	84.59151912	-4.70398518	-28.59633378
2.56	256	-0.09	-1	-0.065	0.286479	-0.572958	-0.1718874	84.59151912	-4.6982556	-28.60206336
2.57	257	-0.092	-0.999	-0.067	0.1145916	-0.2291832	-0.1718874	84.5972487	-4.6982556	-28.60206336
2.58	258	-0.094	-0.996	-0.069	0.1718874	0	-0.2291832	84.5972487	-4.6982556	-28.60206336
2.59	259	-0.093	-0.997	-0.069	0.1718874	0	-0.2291832	84.5972487	-4.69252602	-28.60206336
2.6	260	-0.089	-0.997	-0.072	0.1145916	0	-0.1145916	84.60297828	-4.71544434	-28.60206336
2.61	261	-0.087	-0.998	-0.069	0.1145916	-0.1718874	0	84.60297828	-4.71544434	-28.60779294
2.62	262	-0.084	-0.997	-0.068	0	-0.1145916	0.0572958	84.60297828	-4.71544434	-28.60779294
2.63	263	-0.085	-0.997	-0.07	0.0572958	-0.2291832	0	84.60297828	-4.71544434	-28.60779294
2.64	264	-0.088	-0.996	-0.07	0.2291832	-0.3437748	0	84.60870786	-4.72117392	-28.61352252
2.65	265	-0.091	-0.998	-0.067	0.5156622	-0.286479	0	84.62016702	-4.73263308	-28.6192521
2.66	266	-0.092	-0.998	-0.068	0.5156622	-0.1145916	0	84.6258966	-4.73263308	-28.6192521
2.67	267	-0.092	-0.998	-0.07	0.6875496	0.1145916	0	84.63162618	-4.73263308	-28.6192521
2.68	268	-0.09	-0.998	-0.069	0.859437	0.2291832	0	84.64308534	-4.73263308	-28.6192521
2.69	269	-0.088	-1.001	-0.071	0.9167328	0.2291832	0	84.64881492	-4.73263308	-28.61352252
2.7	270	-0.087	-0.999	-0.074	0.859437	0.1718874	0.0572958	84.6545445	-4.73836266	-28.61352252
2.71	271	-0.089	-1	-0.069	1.0313244	0.286479	0	84.66600366	-4.73836266	-28.60779294
2.72	272	-0.087	-1	-0.069	0.572958	0.572958	0.0572958	84.67173324	-4.73836266	-28.60206336
2.73	273	-0.088	-0.999	-0.07	0.4010706	0.572958	0.1145916	84.67746282	-4.73836266	-28.59633378
2.74	274	-0.09	-1	-0.071	0.572958	0.572958	0.1145916	84.6831924	-4.73836266	-28.5906042
2.75	275	-0.09	-0.999	-0.071	0.4583664	0.7448454	0	84.6831924	-4.74409224	-28.58487462
2.76	276	-0.089	-0.997	-0.073	0.6875496	0.8021412	0	84.68892198	-4.74409224	-28.57341546
2.77	277	-0.087	-0.997	-0.068	1.0886202	0.8021412	0	84.70038114	-4.74409224	-28.56768588
2.78	278	-0.084	-0.997	-0.067	1.3750992	0.6302538	0.2291832	84.7118403	-4.74409224	-28.5619563
2.79	279	-0.085	-0.996	-0.064	1.7761698	0.6302538	0.1718874	84.73475862	-4.74409224	-28.55049714
2.8	280	-0.087	-0.997	-0.065	2.2345362	0.9740286	0.2291832	84.75767694	-4.74409224	-28.54476756
2.81	281	-0.086	-0.996	-0.068	2.4064236	0.8021412	0.1718874	84.78059526	-4.74982182	-28.5333084
2.82	282	-0.085	-0.99	-0.071	2.3491278	0.6302538	0.2291832	84.80351358	-4.74982182	-28.52757882
2.83	283	-0.088	-0.987	-0.072	2.86479	0.4583664	0.2291832	84.83216148	-4.74982182	-28.52184924
2.84	284	-0.089	-0.984	-0.074	3.2658606	0.3437748	0.1718874	84.86653896	-4.7555514	-28.51611966
2.85	285	-0.09	-0.98	-0.079	3.724227	-0.0572958	0.1145916	84.89518686	-4.7555514	-28.51611966
2.86	286	-0.084	-0.975	-0.074	4.9847346	-0.3437748	0.286479	84.94675308	-4.76128098	-28.52184924
2.87	287	-0.084	-0.976	-0.078	5.8441716	-0.9167328	0.3437748	85.00977846	-4.76128098	-28.52757882
2.88	288	-0.088	-0.976	-0.085	6.2452422	-1.432395	0.2291832	85.07280384	-4.76701056	-28.54476756
2.89	289	-0.09	-0.972	-0.088	6.8182002	-1.6042824	0.2291832	85.1415588	-4.76701056	-28.55622672
2.9	290	-0.087	-0.972	-0.088	7.9641162	-1.9480572	0.2291832	85.21604334	-4.77274014	-28.57341546
2.91	291	-0.083	-0.976	-0.083	9.1100322	-2.1199446	0.3437748	85.3134462	-4.77846972	-28.59633378
2.92	292	-0.082	-0.984	-0.077	9.3965112	-2.005353	0.5156622	85.41084906	-4.7841993	-28.61352252
2.93	293	-0.085	-0.982	-0.073	9.3965112	-1.5469866	0.6302538	85.50825192	-4.78992888	-28.63071126
2.94	294	-0.085	-0.987	-0.071	10.026765	-0.8021412	0.4583664	85.61138436	-4.79565846	-28.63644084
2.95	295	-0.084	-0.992	-0.069	10.1986524	-0.572958	0.4583664	85.70878722	-4.79565846	-28.63644084
2.96	296	-0.084	-0.993	-0.065	10.5424272	-0.5156622	0.572958	85.81764924	-4.80138804	-28.64217042
2.97	297	-0.083	-0.993	-0.064	11.0580894	-0.286479	0.4010706	85.93224084	-4.80711762	-28.64217042
2.98	298	-0.084	-0.993	-0.066	11.6883432	-0.0572958	0.3437748	86.04683244	-4.80711762	-28.64217042
2.99	299	-0.082	-0.995	-0.066	12.0894138	-0.1145916	0.4583664	86.1728832	-4.8128472	-28.64217042
3	300	-0.083	-0.994	-0.062	12.7196676	-0.6875496	0.6302538	86.29893396	-4.81857678	-28.6479
3.01	301	-0.083	-0.991	-0.061	13.3499214	-0.8021412	0.6875496	86.43644388	-4.82430636	-28.65362958
3.02	302	-0.087	-0.987	-0.06	14.1520626	-0.9740286	0.6302538	86.57968338	-4.83003594	-28.66508874
3.03	303	-0.087	-0.987	-0.055	14.610429	-0.859437	0.5156622	86.72865246	-4.83576552	-28.67081832
3.04	304	-0.091	-0.984	-0.052	15.1260912	-0.7448454	0.4583664	86.88335112	-4.83576552	-28.6765479
3.05	305	-0.095	-0.982	-0.047	15.469866	-0.3437748	0.4010706	87.03804978	-4.8414951	-28.6765479
3.06	306	-0.095	-0.983	-0.044	15.8136408	-0.1145916	0.4010706	87.19847802	-4.8414951	-28.6765479
3.07	307	-0.091	-0.983	-0.047	16.1574156	0	0.4583664	87.36463584	-4.84722468	-28.6765479
3.08	308	-0.087	-0.981	-0.045	16.9595568	-0.286479	0.6875496	87.53652324	-4.85295426	-28.6765479
3.09	309	-0.085	-0.98	-0.043	17.7044022	-0.5156622	0.859437	87.71414022	-4.85868384	-28.68227748
3.1	310	-0.085	-0.978	-0.04	18.621135	-1.2032118	0.9740286	87.90321636	-4.870143	-28.68800706
3.11	311	-0.086	-0.977	-0.038	19.3086846	-1.6615782	1.0313244	88.09802208	-4.88160216	-28.7051958
3.12	312	-0.085	-0.978	-0.034	20.1681216	-2.1199446	1.0313244	88.30428696	-4.88733174	-28.72238454
3.13	313	-0.083	-0.979	-0.031	20.912967	-2.5210152	0.9740286	88.522011	-4.89306132	-28.74530286
3.14	314	-0.085	-0.979	-0.026	21.6005166	-2.9220858	0.859437	88.74546462	-4.90452048	-28.77395076
3.15	315	-0.084	-0.981	-0.022	22.345362	-2.9220858	0.9167328	88.96891824	-4.91025006	-28.79686908
3.16	316	-0.084	-0.981	-0.018	23.2620948	-3.0366774	1.0313244	89.2095606	-4.91597964	-28.82551698
3.17	317	-0.084	-0.979	-0.013	23.8923486	-3.437748	1.145916	89.45593254	-4.9274388	-28.85416488
3.18	318	-0.083	-0.982	-0.009	24.923673	-3.724227	1.2032118	89.71376364	-4.93889796	-28.88854236
3.19	319	-0.083	-0.98	-0.005	25.6685184	-3.8961144	1.2605076	89.97732432	-4.94462754	-28.92864942
3.2	320	-0.08	-0.98	-0.001	26.5852512	-4.1252976	1.145916	90.24661458	-4.9560867	-28.9630269
3.21	321	-0.077	-0.978	0.004	27.4446882	-4.5263682	0.9740286	90.53309358	-4.96181628	-29.00886354
3.22	322	-0.076	-0.978	0.008	28.3041252	-4.9274388	0.9167328	90.82530216	-4.96754586	-29.05470018
3.23	323	-0.075	-0.975	0.012	29.1635622	-5.3285094	0.9167328	91.12324032	-4.96754586	-29.10053682
3.24	324	-0.076	-0.973	0.015	30.1948866	-5.72958	1.0313244	91.43836722	-4.97327544	-29.15783262
3.25	325	-0.077	-0.972	0.024	31.1689152	-6.0733548	1.0313244	91.7592237	-4.97900502	-29.21512842
3.26	326	-0.076	-0.967	0.029	32.0283522	-6.1879464	0.9167328	92.08580976	-4.9847346	-29.27242422
3.27	327	-0.076	-0.966	0.031	33.0596766	-6.589017	0.859437	92.42958456	-4.9847346	-29.3354496
3.28	328	-0.079	-0.966	0.037	34.1482968	-6.9327918	0.859437	92.78481852	-4.9847346	-29.39847498
3.29	329	-0.077	-0.964	0.042	35.0650296	-6.9900876	0.9740286	93.14578206	-4.9847346	-29.46150036
3.3	330	-0.077	-0.961	0.045	36.0390582	-7.0473834	1.0313244	93.51820476	-4.99046418	-29.53025532
3.31	331	-0.079	-0.96	0.05	37.1849742	-7.2765666	1.3178034	93.90208662	-4.99046418	-29.59901028
3.32	332	-0.083	-0.955	0.055	38.3308902	-7.448454	1.4896908	94.29742764	-4.99619376	-29.66776524
3.33	333	-0.082	-0.958	0.062	39.8778768	-7.3338624	1.6042824	94.7099574	-5.00192334	-29.7365202
3.34	334	-0.08	-0.957	0.068	41.252976	-7.2765666	1.7761698	95.13394632	-5.00765292	-29.80527516
3.35	335	-0.081	-0.957	0.075	42.6280752	-7.2765666	1.8907614	95.57512398	-5.01911208	-29.87403012
3.36	336	-0.08	-0.955	0.083	44.0604702	-7.3911582	1.8334656	96.0277608	-5.02484166	-29.94278508
3.37	337	-0.078	-0.957	0.089	45.3782736	-7.5630456	1.8907614	96.49758636	-5.03057124	-30.01726962
3.38	338	-0.08	-0.957	0.092	46.7533728	-8.1360036	1.8907614	96.97887108	-5.03057124	-30.09175416
3.39	339	-0.081	-0.959	0.095	47.841993	-8.3651868	1.6615782	97.47161496	-5.03057124	-30.17196828
3.4	340	-0.078	-0.957	0.1	48.9306132	-8.1932994	1.6042824	97.975818	-5.03057124	-30.24645282
3.41	341	-0.074	-0.954	0.11	50.3630082	-8.4797784	1.6042824	98.4914802	-5.03057124	-30.32666694
3.42	342	-0.073	-0.95	0.117	51.7954032	-8.7662574	1.4896908	99.03006072	-5.02484166	-30.40688106
3.43	343	-0.074	-0.948	0.122	53.0559108	-9.1100322	1.4896908	99.57437082	-5.01911208	-30.49282476
3.44	344	-0.071	-0.948	0.127	54.2591226	-9.5111028	1.5469866	100.1358697	-5.0133825	-30.58449804
3.45	345	-0.068	-0.945	0.133	55.5196302	-9.7975818	1.6615782	100.7030981	-5.00765292	-30.67044174
3.46	346	-0.069	-0.939	0.143	56.9520252	-10.313244	1.6615782	101.2932448	-4.99619376	-30.7678446
3.47	347	-0.072	-0.938	0.152	58.6708992	-10.7143146	1.6042824	101.9005803	-4.9847346	-30.87097704
3.48	348	-0.072	-0.94	0.152	60.16059	-10.7716104	1.432395	102.5193749	-4.97327544	-30.9683799
3.49	349	-0.069	-0.941	0.153	61.7648724	-11.2872726	1.3178034	103.1553583	-4.95035712	-31.07151234
3.5	350	-0.069	-0.938	0.157	63.3691548	-11.9748222	1.2032118	103.8085304	-4.9274388	-31.18037436
3.51	351	-0.069	-0.933	0.161	64.6869582	-12.032118	1.145916	104.4731617	-4.90452048	-31.28923638
3.52	352	-0.063	-0.929	0.164	66.2339448	-12.032118	1.145916	105.1607113	-4.88160216	-31.3980984
3.53	353	-0.058	-0.928	0.17	67.609044	-12.318597	1.2605076	105.8539905	-4.85295426	-31.51269
3.54	354	-0.056	-0.933	0.172	68.75496	-12.7769634	1.3750992	106.5644584	-4.82430636	-31.6272816
3.55	355	-0.058	-0.939	0.175	70.2446508	-13.2353298	1.4896908	107.2863855	-4.79565846	-31.74760278
3.56	356	-0.054	-0.938	0.186	71.6770458	-13.5791046	1.3750992	108.0255013	-4.76128098	-31.86792396
3.57	357	-0.054	-0.939	0.195	73.2240324	-13.9228794	1.2032118	108.7818059	-4.72117392	-31.99397472
3.58	358	-0.062	-0.943	0.198	74.8283148	-14.3812458	1.0886202	109.5495696	-4.67533728	-32.12002548
3.59	359	-0.066	-0.95	0.202	75.4585686	-14.4958374	1.145916	110.3287925	-4.63523022	-32.24607624
3.6	360	-0.065	-0.954	0.205	75.343977	-14.7250206	1.432395	111.1022858	-4.58939358	-32.37785658
3.61	361	-0.061	-0.956	0.201	75.2293854	-15.3552744	1.4896908	111.8757791	-4.53782736	-32.5153665
3.62	362	-0.057	-0.959	0.193	74.48454	-15.8136408	1.2605076	112.6435428	-4.48626114	-32.65287642
3.63	363	-0.055	-0.957	0.18	72.8229618	-15.8136408	0.9740286	113.3998474	-4.42896534	-32.79038634
3.64	364	-0.059	-0.951	0.166	70.2446508	-14.7823164	0.4010706	114.1217744	-4.36593996	-32.91070752
3.65	365	-0.054	-0.917	0.148	66.1193532	-13.1207382	0.1718874	114.7921353	-4.30864416	-33.01956954
3.66	366	-0.044	-0.871	0.14	61.7075766	-12.1467096	0	115.4281187	-4.25134836	-33.12270198
3.67	367	-0.036	-0.826	0.133	58.4990118	-12.6623718	0.3437748	116.0297246	-4.19978214	-33.22583442
3.68	368	-0.041	-0.765	0.134	55.6342218	-13.9228794	1.2605076	116.6026826	-4.14248634	-33.3461556
3.69	369	-0.042	-0.701	0.164	53.4569814	-14.037471	3.3231564	117.1584518	-4.10237928	-33.47793594
3.7	370	-0.039	-0.633	0.156	51.9099948	-14.3812458	6.4744254	117.6913028	-4.09092012	-33.62117544
3.71	371	-0.066	-0.654	0.131	50.0765292	-15.1260912	8.021412	118.2126946	-4.08519054	-33.78160368
3.72	372	-0.089	-0.694	0.124	44.117766	-12.2040054	7.9641162	118.6767905	-4.0966497	-33.9191136
3.73	373	-0.093	-0.69	0.133	39.0757356	-8.307891	8.021412	119.0778611	-4.1252976	-34.02797562
3.74	374	-0.08	-0.687	0.107	33.3461556	-4.8128472	6.9900876	119.4216359	-4.15967508	-34.09673058
3.75	375	-0.043	-0.71	0.04	25.210152	-2.86479	5.443101	119.6622783	-4.18832298	-34.14256722
3.76	376	0.008	-0.731	-0.006	14.3812458	-2.5210152	4.1252976	119.8112474	-4.2112413	-34.18267428
3.77	377	0.047	-0.72	-0.014	4.4690724	-5.443101	3.8388186	119.8628136	-4.21697088	-34.24569966
3.78	378	0.076	-0.706	0.018	-3.3231564	-9.6256944	4.6409598	119.8341657	-4.20551172	-34.35456168
3.79	379	0.085	-0.684	0.05	-11.0580894	-13.178034	5.8441716	119.7367628	-4.18832298	-34.49780118
3.8	380	0.05	-0.636	0.097	-18.8503182	-16.1001198	6.9327918	119.5476867	-4.16540466	-34.66968858
3.81	381	0.014	-0.603	0.108	-25.6112226	-15.1260912	8.7662574	119.3013148	-4.16540466	-34.84730556
3.82	382	-0.013	-0.582	0.049	-30.7105488	-7.0473834	12.2040054	119.0033766	-4.23415962	-34.96762674
3.83	383	-0.037	-0.545	-0.04	-30.939732	-1.2032118	14.896908	118.6939793	-4.36021038	-35.05357044
3.84	384	-0.042	-0.526	-0.08	-27.3873924	0.6302538	16.2147114	118.424689	-4.50344988	-35.13378456
3.85	385	-0.047	-0.511	-0.081	-24.8663772	-3.8961144	16.042824	118.1668579	-4.62377106	-35.24264658
3.86	386	-0.028	-0.487	-0.076	-20.3973048	-13.0634424	14.4958374	117.9777818	-4.68679644	-35.42599314
3.87	387	0.012	-0.445	-0.067	-14.896908	-20.2254174	12.9488508	117.8460014	-4.70398518	-35.6666355
3.88	388	0.045	-0.386	-0.042	-11.172681	-23.1475032	12.2613012	117.7600577	-4.6982556	-35.9244666
3.89	389	0.062	-0.275	-0.017	-7.3911582	-24.6944898	11.9175264	117.7084915	-4.68679644	-36.19375686
3.9	390	0.046	-0.178	0.003	-0.0572958	-27.0436176	11.5737516	117.7314098	-4.65241896	-36.48596544
3.91	391	-0.004	-0.099	0.021	6.1879464	-27.3300966	11.1153852	117.8230831	-4.61804148	-36.77244444
3.92	392	-0.052	-0.068	0.087	12.1467096	-24.6944898	10.8289062	117.9720522	-4.59512316	-37.03600512
3.93	393	-0.034	-0.081	0.108	19.5378678	-20.5691922	10.7716104	118.1897762	-4.583664	-37.25945874
3.94	394	0.012	-0.154	0.086	24.923673	-20.8556712	8.880849	118.4647961	-4.56074568	-37.47718278
3.95	395	0	-0.223	0.087	27.1582092	-22.7464326	5.6722842	118.7570047	-4.4977203	-37.69490682
3.96	396	-0.045	-0.252	0.024	31.3408026	-24.064236	4.3544808	119.0950499	-4.4117766	-37.91836044
3.97	397	-0.057	-0.188	0.145	41.0237928	-24.4080108	5.6722842	119.530498	-4.33729206	-38.14754364
3.98	398	-0.11	0.029	0.414	65.4890994	-27.215505	11.5164558	120.2237771	-4.297185	-38.42829306
3.99	399	-0.239	0.661	0.733	88.1209404	-30.0229992	23.2620948	121.1462395	-4.33729206	-38.78352702
4	400	-0.188	-0.176	0.953	132.8689602	-20.7983754	15.5271618	122.5213387	-4.3544808	-39.02416938
4.01	401	-0.301	-1.021	1.824	157.849929	-16.329303	15.6990492	124.1428099	-4.38885828	-39.2189751
4.02	402	-0.283	-1.668	1.954	71.7916374	5.443101	12.9488508	124.8704665	-4.5263682	-39.24189342
4.03	403	-0.322	-2.851	2.422	209.12967	-35.2942128	-22.2307704	127.0075999	-4.13675676	-39.3622146
4.04	404	-0.285	0.99	2.905	383.3661978	-13.6936962	-21.8296998	130.8922551	-3.88465524	-39.27054132
4.05	405	-0.507	0.312	1.87	640.1659734	-64.5723666	-7.7922288	137.4182467	-3.3804522	-39.57420906
4.06	406	0.043	-1.608	3.328	271.1237256	-32.0283522	-13.3499214	140.1799043	-3.05959572	-39.63723444
4.07	407	-0.032	-1.244	2.743	179.5077414	-19.1367972	-4.9274388	142.0076403	-2.88197874	-39.68880066
4.08	408	-0.112	-0.797	2.557	186.4405332	-16.2720072	-9.453807	143.8984017	-2.70436176	-39.68307108
4.09	409	-0.037	-0.382	2.17	201.5666244	-10.7716104	-11.172681	145.9438618	-2.56112226	-39.62577528
4.1	410	-0.059	-0.193	1.898	214.0571088	-1.145916	-7.9641162	148.1153726	-2.5210152	-39.534102
4.11	411	-0.062	-0.164	1.503	228.0945798	1.0886202	-3.5523396	150.4243933	-2.5210152	-39.47107662
4.12	412	-0.176	-0.701	1.683	212.6820096	2.4637194	-0.7448454	152.584445	-2.55539268	-39.42523998
4.13	413	0.006	-0.578	1.637	196.4672982	4.4690724	-1.145916	154.5726092	-2.60122932	-39.37367376
4.14	414	0.077	-0.412	1.547	180.0234036	5.443101	3.5523396	156.4003453	-2.68144344	-39.3622146
4.15	415	0.018	-0.388	1.458	160.3709442	13.4072172	10.0840608	158.027546	-2.85333084	-39.3908625
4.16	416	-0.178	-0.445	1.429	143.6978664	19.1367972	14.0947668	159.4885889	-3.0939732	-39.43669914
4.17	417	-0.041	-0.58	1.441	137.1661452	22.1161788	14.2666542	160.8808768	-3.36326346	-39.48826536
4.18	418	0.004	-0.574	1.459	121.0660254	18.7357266	13.5218088	162.1070069	-3.59244666	-39.55129074
4.19	419	-0.057	-0.394	1.51	103.5908064	14.3812458	12.7196676	163.1612497	-3.77579322	-39.6200457
4.2	420	-0.1	-0.317	1.543	83.1935016	13.178034	11.8602306	164.0149571	-3.94195104	-39.68880066
4.21	421	-0.139	-0.394	1.498	60.9627312	12.2040054	8.8235532	164.6337517	-4.08519054	-39.74036688
4.22	422	-0.129	-0.288	1.36	41.8832298	8.6516658	6.3598338	165.0577406	-4.18832298	-39.77474436
4.23	423	-0.105	-0.296	1.22	34.3201842	6.8182002	5.0993262	165.4129746	-4.27426668	-39.80912184
4.24	424	-0.074	-0.28	1.109	32.6013102	6.016059	3.5523396	165.7395607	-4.34302164	-39.82631058
4.25	425	-0.094	-0.236	1.002	31.0543236	6.9900876	3.0939732	166.0546876	-4.41750618	-39.83776974
4.26	426	-0.097	-0.227	0.86	32.7731976	8.59437	3.7815228	166.3927328	-4.51490904	-39.8492289
4.27	427	-0.053	-0.176	0.898	39.0184398	10.7716104	4.4117766	166.7880738	-4.62950064	-39.86641764
4.28	428	-0.082	-0.18	0.981	46.1804148	13.4072172	4.0680018	167.2521698	-4.77274014	-39.8778768
4.29	429	-0.086	-0.068	1.061	48.987909	17.8189938	6.4171296	167.7506432	-4.96754586	-39.90079512
4.3	430	-0.125	-0.221	1.004	52.7694318	20.2254174	6.7036086	168.2892238	-5.17954032	-39.92371344
4.31	431	-0.083	-0.107	1.013	64.744254	22.4026578	8.880849	168.9481255	-5.42591226	-39.9638205
4.32	432	-0.095	-0.06	1.01	68.0101146	22.2880662	8.59437	169.6356751	-5.66655462	-40.00965714
4.33	433	-0.078	-0.08	0.998	66.463128	21.6005166	8.9381448	170.3117655	-5.89573782	-40.06122336
4.34	434	-0.102	-0.035	0.991	62.1086472	18.3919518	8.3651868	170.9477489	-6.09627312	-40.11278958
4.35	435	-0.12	-0.05	0.964	57.582279	17.9908812	7.2192708	171.5378956	-6.29107884	-40.15289664
4.36	436	-0.097	-0.059	0.958	52.2537696	17.9335854	6.1306506	172.0707466	-6.48015498	-40.1930037
4.37	437	-0.101	-0.044	0.955	46.6387812	16.329303	5.6722842	172.5463017	-6.65204238	-40.22738118
4.38	438	-0.12	-0.062	0.942	37.4714532	15.5844576	4.297185	172.9301836	-6.8182002	-40.2502995
4.39	439	-0.118	-0.042	0.929	29.1635622	17.7044022	3.437748	173.2223921	-6.99581718	-40.26748824
4.4	440	-0.11	-0.046	0.914	20.626488	19.3086846	3.0366774	173.4343866	-7.1906229	-40.2789474
4.41	441	-0.105	-0.029	0.877	11.1153852	20.1681216	2.291832	173.5489782	-7.39688778	-40.28467698
4.42	442	-0.106	-0.032	0.836	3.437748	21.485925	1.718874	173.5776261	-7.60888224	-40.2789474
4.43	443	-0.102	-0.027	0.795	-3.2658606	22.1734746	2.005353	173.5432486	-7.83233586	-40.28467698
4.44	444	-0.108	-0.034	0.764	-8.1360036	21.9442914	2.1199446	173.4573049	-8.0500599	-40.28467698
4.45	445	-0.104	-0.04	0.756	-11.1153852	21.2567418	2.5210152	173.3484429	-8.26205436	-40.29613614
4.46	446	-0.127	-0.059	0.78	-13.750992	19.2513888	2.1199446	173.2052034	-8.4511305	-40.30186572
4.47	447	-0.136	-0.071	0.817	-16.615782	18.5065434	0.9167328	173.033316	-8.63447706	-40.29613614
4.48	448	-0.141	-0.085	0.853	-18.7357266	18.048177	0.1718874	172.8385103	-8.80636446	-40.2789474
4.49	449	-0.173	-0.091	0.895	-20.6837838	17.0741484	-0.572958	172.6207862	-8.97252228	-40.26175866
4.5	450	-0.187	-0.106	0.948	-22.4026578	15.9282324	-1.145916	172.391603	-9.13295052	-40.23311076
4.51	451	-0.2	-0.112	0.979	-23.9496444	15.183387	-0.7448454	172.1395015	-9.27619002	-40.21019244
4.52	452	-0.215	-0.116	1.012	-25.7258142	14.3812458	-1.7761698	171.8759408	-9.41369994	-40.18154454
4.53	453	-0.192	-0.116	1.048	-27.4446882	13.6364004	-2.1199446	171.5894618	-9.5397507	-40.14716706
4.54	454	-0.191	-0.095	1.083	-28.8197874	12.5477802	-1.8334656	171.2857941	-9.66007188	-40.11278958
4.55	455	-0.191	-0.103	1.104	-29.0489706	12.0894138	-2.1199446	170.9878559	-9.7689339	-40.0784121
4.56	456	-0.192	-0.106	1.116	-28.7624916	11.2299768	-2.005353	170.6899178	-9.87206634	-40.0497642
4.57	457	-0.183	-0.101	1.128	-27.9030546	10.7716104	-1.7761698	170.3977092	-9.97519878	-40.0211163
4.58	458	-0.206	-0.111	1.146	-27.1582092	10.4278356	-1.432395	170.1169598	-10.07260164	-39.9924684
4.59	459	-0.181	-0.113	1.161	-26.0122932	10.5424272	-1.2032118	169.8476695	-10.1700045	-39.96955008
4.6	460	-0.187	-0.124	1.168	-24.8663772	9.8548776	-0.9167328	169.595568	-10.26167778	-39.94663176
4.61	461	-0.18	-0.129	1.153	-24.1788276	9.3392154	-0.859437	169.3434665	-10.34762148	-39.92371344
4.62	462	-0.178	-0.136	1.146	-22.7464326	8.9954406	-0.7448454	169.1085537	-10.43356518	-39.9065247
4.63	463	-0.19	-0.128	1.149	-20.6837838	9.2246238	-0.9167328	168.8908297	-10.51950888	-39.88360638
4.64	464	-0.202	-0.151	1.138	-19.2513888	9.740286	-0.7448454	168.6902944	-10.61118216	-39.86068806
4.65	465	-0.184	-0.154	1.11	-17.3033316	10.8289062	-0.9740286	168.518407	-10.70858502	-39.83776974
4.66	466	-0.195	-0.139	1.076	-16.8449652	11.1153852	-0.7448454	168.34079	-10.81744704	-39.80912184
4.67	467	-0.195	-0.168	1.065	-16.8449652	11.6883432	-0.7448454	168.163173	-10.92630906	-39.78620352
4.68	468	-0.197	-0.151	1.067	-16.4438946	11.5737516	-0.7448454	167.985556	-11.03517108	-39.75755562
4.69	469	-0.194	-0.169	1.054	-17.6471064	11.9748222	-0.7448454	167.8022095	-11.14976268	-39.72890772
4.7	470	-0.239	-0.14	1.036	-18.8503182	11.2872726	-0.6875496	167.6188629	-11.27008386	-39.7059894
4.71	471	-0.153	-0.168	0.981	-18.907614	10.6570188	-1.0886202	167.4183276	-11.36748672	-39.6773415
4.72	472	-0.204	-0.179	0.953	-19.0795014	7.7922288	-0.5156622	167.2177923	-11.44197126	-39.66015276
4.73	473	-0.196	-0.139	0.931	-16.2720072	6.9327918	-0.1718874	167.0516345	-11.50499664	-39.64296402
4.74	474	-0.195	-0.165	0.909	-13.9228794	6.4744254	-0.0572958	166.9026654	-11.56802202	-39.63150486
4.75	475	-0.199	-0.181	0.884	-12.2040054	6.1879464	-0.1718874	166.7766146	-11.6310474	-39.6200457
4.76	476	-0.192	-0.17	0.879	-9.5111028	6.8182002	-0.4010706	166.6734822	-11.69407278	-39.60285696
4.77	477	-0.187	-0.187	0.86	-8.3651868	6.7036086	-0.5156622	166.5875385	-11.75709816	-39.57993864
4.78	478	-0.195	-0.184	0.863	-5.2712136	3.2658606	-0.286479	166.5302427	-11.79147564	-39.57420906
4.79	479	-0.203	-0.2	0.882	-2.1199446	2.7501984	-0.0572958	166.5073244	-11.81439396	-39.56847948
4.8	480	-0.21	-0.2	0.9	0.5156622	2.9220858	0.1718874	166.5073244	-11.8602306	-39.5627499
4.81	481	-0.201	-0.217	0.945	3.0939732	2.7501984	0.1718874	166.5359723	-11.88314892	-39.55702032
4.82	482	-0.245	-0.209	0.993	5.5576926	3.6096354	0.5156622	166.5932681	-11.92325598	-39.55702032
4.83	483	-0.236	-0.214	1.003	6.1306506	4.010706	0.7448454	166.6562935	-11.96336304	-39.55702032
4.84	484	-0.213	-0.2	0.988	6.9900876	4.583664	0.8021412	166.7250484	-12.00919968	-39.55129074
4.85	485	-0.239	-0.199	1.033	8.1360036	-0.7448454	1.0313244	166.8167217	-12.00919968	-39.5627499
4.86	486	-0.227	-0.199	1.034	8.7662574	1.4896908	0.9167328	166.908395	-12.02638842	-39.56847948
4.87	487	-0.224	-0.189	1.018	8.1360036	0.9167328	0.572958	166.9943387	-12.03784758	-39.57420906
4.88	488	-0.221	-0.181	1.014	7.7922288	0.4010706	0.2291832	167.0745528	-12.04357716	-39.57420906
4.89	489	-0.212	-0.171	1.01	7.5057498	-0.7448454	-0.1718874	167.1490373	-12.03784758	-39.57420906
4.9	490	-0.209	-0.168	0.996	6.8182002	-1.5469866	-0.4583664	167.2407106	-12.02065884	-39.57420906
4.91	491	-0.201	-0.151	0.997	6.589017	-2.7501984	-0.7448454	167.3094656	-11.99201094	-39.57420906
4.92	492	-0.202	-0.145	0.981	6.589017	-3.8961144	-0.9167328	167.3782205	-11.95190388	-39.56847948
4.93	493	-0.163	-0.178	0.819	-4.1825934	3.8388186	-1.7761698	167.3266543	-11.98628136	-39.54556116
4.94	494	-0.105	-0.005	0.525	-7.3338624	3.0366774	-2.7501984	167.2464402	-12.00919968	-39.51118368
4.95	495	-0.227	0.018	0.609	2.9220858	-32.372127	-2.3491278	167.303736	-11.69980236	-39.55702032
4.96	496	-0.196	-0.136	1.012	7.0473834	-11.5164558	-1.432395	167.3782205	-11.58521076	-39.5627499
4.97	497	-0.164	-0.171	0.988	8.7089616	10.9434978	-1.6615782	167.4527051	-11.6883432	-39.52264284
4.98	498	-0.223	-0.186	0.89	4.3544808	-5.72958	-2.0626488	167.4985417	-11.6310474	-39.51118368
4.99	499	-0.253	-0.243	0.986	8.8235532	-17.18874	-1.432395	167.5959446	-11.45916	-39.534102
5	500	-0.225	-0.251	1.135	14.610429	-9.740286	0	167.7449137	-11.36175714	-39.54556116
5.01	501	-0.187	-0.224	1.201	16.9595568	0.0572958	0	167.9168011	-11.36748672	-39.54556116
5.02	502	-0.214	-0.193	1.198	15.9282324	1.9480572	0.4583664	168.0772293	-11.39040504	-39.54556116
5.03	503	-0.219	-0.184	1.184	14.4958374	2.1199446	1.0886202	168.2261984	-11.41332336	-39.55129074
5.04	504	-0.222	-0.18	1.138	12.032118	2.578311	1.4896908	168.3522491	-11.44197126	-39.5627499
5.05	505	-0.216	-0.17	1.063	8.7662574	3.151269	1.6042824	168.4553816	-11.47634874	-39.57420906
5.06	506	-0.201	-0.167	0.989	6.8182002	4.297185	1.3750992	168.5241365	-11.52218538	-39.57993864
5.07	507	-0.193	-0.122	0.945	6.9327918	4.4117766	1.6042824	168.5986211	-11.56802202	-39.58566822
5.08	508	-0.206	-0.181	0.91	5.0993262	3.3231564	1.145916	168.6501873	-11.6023995	-39.5913978
5.09	509	-0.189	-0.138	0.891	5.2712136	2.7501984	0.8021412	168.7074831	-11.6310474	-39.59712738
5.1	510	-0.186	-0.136	0.877	4.6982556	2.1772404	0.4583664	168.7647789	-11.6596953	-39.59712738
5.11	511	-0.185	-0.132	0.863	3.9534102	1.432395	0.2291832	168.804886	-11.67115446	-39.59712738
5.12	512	-0.186	-0.134	0.86	2.6929026	0.2291832	0.1145916	168.8335339	-11.67688404	-39.59712738
5.13	513	-0.191	-0.127	0.878	0.9740286	-1.145916	-0.1718874	168.844993	-11.66542488	-39.59712738
5.14	514	-0.196	-0.127	0.903	-0.6302538	-2.1772404	-0.286479	168.8392634	-11.64250656	-39.59712738
5.15	515	-0.199	-0.122	0.937	-1.2032118	-3.151269	-0.1718874	168.8851001	-11.61385866	-39.61431612
5.16	516	-0.21	-0.118	0.978	-1.3178034	-3.9534102	0	168.8679113	-11.57948118	-39.6200457
5.17	517	-0.217	-0.142	1.007	-1.3750992	-4.583664	0.2291832	168.8564522	-11.53364454	-39.63150486
5.18	518	-0.22	-0.137	1.024	-1.0313244	-4.7555514	0.5156622	168.8507226	-11.4878079	-39.64296402
5.19	519	-0.217	-0.133	1.032	-1.8907614	-4.870143	0.6302538	168.8335339	-11.44197126	-39.66015276
5.2	520	-0.216	-0.129	1.029	-2.8074942	-4.6409598	0.6302538	168.8507226	-11.39613462	-39.68307108
5.21	521	-0.215	-0.13	1.024	-3.437748	-4.1252976	0.6302538	168.8163451	-11.36175714	-39.69453024
5.22	522	-0.208	-0.126	1.012	-3.9534102	-3.437748	0.6302538	168.7819676	-11.32737966	-39.71171898
5.23	523	-0.205	-0.12	1.005	-4.1252976	-2.578311	0.6302538	168.7418606	-11.30446134	-39.72317814
5.24	524	-0.203	-0.125	1	-4.1825934	-2.291832	0.4583664	168.7017535	-11.28154302	-39.72890772
5.25	525	-0.201	-0.122	1.001	-3.6669312	-2.291832	0.4010706	168.7189423	-11.25289512	-39.75182604
5.26	526	-0.194	-0.129	1.003	-2.86479	-2.4064236	0.2291832	168.6902944	-11.2299768	-39.75755562
5.27	527	-0.192	-0.133	1.007	-2.1199446	-2.6356068	0.0572958	168.6731056	-11.20705848	-39.7632852
5.28	528	-0.19	-0.139	1.012	-1.432395	-3.0366774	-0.0572958	168.6559169	-11.172681	-39.76901478
5.29	529	-0.19	-0.146	1.019	-0.572958	-3.151269	-0.1718874	168.6501873	-11.1440331	-39.76901478
5.3	530	-0.188	-0.153	1.02	0.5156622	-3.2085648	-0.1718874	168.6960239	-11.10392604	-39.78047394
5.31	531	-0.188	-0.152	1.02	1.4896908	-3.3231564	-0.2291832	168.7132127	-11.06954856	-39.78620352
5.32	532	-0.188	-0.155	1.011	2.0626488	-3.2658606	-0.286479	168.736131	-11.03517108	-39.78620352
5.33	533	-0.187	-0.156	0.999	2.6356068	-3.3231564	-0.3437748	168.7647789	-11.00652318	-39.78620352
5.34	534	-0.193	-0.154	0.988	3.0939732	-2.9793816	-0.4010706	168.7934268	-10.9721457	-39.78620352
5.35	535	-0.194	-0.15	0.984	2.9220858	-2.291832	-0.3437748	168.8736409	-10.95495696	-39.79766268
5.36	536	-0.192	-0.152	0.977	2.1772404	-1.6615782	-0.286479	168.8908297	-10.93776822	-39.79766268
5.37	537	-0.191	-0.146	0.967	1.6615782	-0.6302538	-0.1145916	168.9080184	-10.93203864	-39.79766268
5.38	538	-0.192	-0.142	0.953	1.2605076	0.4583664	0	168.9252071	-10.93776822	-39.79766268
5.39	539	-0.194	-0.141	0.949	1.2032118	1.6615782	0.1718874	168.9366663	-10.95495696	-39.7919331
5.4	540	-0.193	-0.139	0.956	0.9740286	2.578311	0.3437748	168.9939621	-10.98933444	-39.80339226
5.41	541	-0.195	-0.139	0.969	0.4010706	3.2658606	0.4010706	168.9939621	-11.01798234	-39.80339226
5.42	542	-0.198	-0.139	0.975	-0.1145916	3.5523396	0.6302538	168.9939621	-11.0580894	-39.80339226
5.43	543	-0.199	-0.139	0.98	-0.2291832	3.437748	0.6302538	168.9939621	-11.09246688	-39.80339226
5.44	544	-0.201	-0.139	0.986	-0.286479	3.3804522	0.7448454	168.9882325	-11.12684436	-39.80339226
5.45	545	-0.2	-0.139	0.989	-0.286479	3.151269	0.6875496	169.0455283	-11.16122184	-39.820581
5.46	546	-0.201	-0.137	0.992	-0.1718874	2.4637194	0.6302538	169.0455283	-11.18986974	-39.820581
5.47	547	-0.2	-0.136	0.996	0	1.7761698	0.6302538	169.0455283	-11.20705848	-39.82631058
5.48	548	-0.201	-0.136	0.999	0.0572958	0.9740286	0.6302538	169.0455283	-11.21851764	-39.83204016
5.49	549	-0.2	-0.133	0.999	0.0572958	0.2291832	0.5156622	169.0455283	-11.21851764	-39.83776974
5.5	550	-0.198	-0.133	0.996	-0.1145916	-0.4583664	0.4010706	169.2346045	-11.21278806	-39.8778768
5.51	551	-0.198	-0.132	0.994	-0.1145916	-0.9740286	0.2291832	169.2288749	-11.20705848	-39.88360638
5.52	552	-0.197	-0.131	0.993	-0.1145916	-1.2605076	0.1145916	169.2288749	-11.18986974	-39.88360638
5.53	553	-0.197	-0.13	0.992	-0.1145916	-1.3178034	0.0572958	169.2288749	-11.17841058	-39.88933596
5.54	554	-0.196	-0.131	0.989	-0.1718874	-1.432395	0	169.2288749	-11.16695142	-39.88933596
5.55	555	-0.197	-0.134	0.992	-0.1718874	-1.5469866	-0.0572958	169.3377369	-11.1440331	-39.91798386
5.56	556	-0.196	-0.136	0.994	-0.286479	-1.5469866	-0.0572958	169.3377369	-11.12684436	-39.91798386
5.57	557	-0.196	-0.137	0.995	-0.286479	-1.718874	0	169.3377369	-11.10965562	-39.91798386
5.58	558	-0.197	-0.137	0.997	-0.4010706	-1.8907614	0	169.3320073	-11.09246688	-39.92371344
5.59	559	-0.196	-0.138	0.994	-0.3437748	-1.7761698	0.0572958	169.3262777	-11.07527814	-39.92371344
5.6	560	-0.197	-0.137	0.99	-0.1145916	-1.6042824	0.1145916	169.4523285	-11.06381898	-39.95236134
5.61	561	-0.196	-0.139	0.985	0	-1.3178034	0.1718874	169.4523285	-11.05235982	-39.95809092
5.62	562	-0.196	-0.139	0.984	-0.0572958	-1.3178034	0.2291832	169.4523285	-11.04090066	-39.9638205
5.63	563	-0.197	-0.138	0.985	-0.1718874	-1.432395	0.1718874	169.4523285	-11.02371192	-39.96955008
5.64	564	-0.197	-0.138	0.981	-0.4010706	-1.3750992	0.1145916	169.4465989	-11.01225276	-39.96955008
5.65	565	-0.196	-0.138	0.983	-0.6302538	-1.2032118	0.1718874	169.5440018	-11.00652318	-39.9924684
5.66	566	-0.196	-0.135	0.984	-0.859437	-0.6302538	0.1145916	169.5325426	-10.99506402	-39.99819798
5.67	567	-0.195	-0.137	0.987	-0.9740286	-0.1718874	0.0572958	169.526813	-10.99506402	-39.99819798
5.68	568	-0.196	-0.141	0.985	-0.9167328	0.3437748	0.0572958	169.5153539	-11.0007936	-39.99819798
5.69	569	-0.195	-0.136	0.989	-0.7448454	0.7448454	0.1718874	169.5096243	-11.00652318	-39.99819798
5.7	570	-0.193	-0.137	0.99	-0.6875496	1.0886202	0.2291832	169.5841088	-11.01225276	-40.01538672
5.71	571	-0.195	-0.137	0.995	-0.5156622	1.2605076	0.2291832	169.5783793	-11.0294415	-40.01538672
5.72	572	-0.194	-0.137	0.997	-0.1718874	1.5469866	0.1718874	169.5783793	-11.04663024	-40.01538672
5.73	573	-0.195	-0.137	0.998	0.1718874	1.4896908	0.2291832	169.5783793	-11.0580894	-40.01538672
5.74	574	-0.195	-0.137	0.999	0.4010706	1.2032118	0.2291832	169.5841088	-11.06954856	-40.0211163
5.75	575	-0.195	-0.136	0.998	0.5156622	0.9167328	0.2291832	169.6872413	-11.07527814	-40.03830504
5.76	576	-0.195	-0.135	0.996	0.572958	0.9740286	0.2291832	169.6987004	-11.0867373	-40.03830504
5.77	577	-0.195	-0.135	0.993	0.7448454	1.2032118	0.2291832	169.70443	-11.09819646	-40.04403462
5.78	578	-0.196	-0.134	0.99	0.7448454	1.145916	0.2291832	169.7101596	-11.10965562	-40.04403462
5.79	579	-0.196	-0.134	0.989	0.572958	1.2605076	0.2291832	169.7158892	-11.12111478	-40.04403462
5.8	580	-0.197	-0.131	0.991	0.4583664	1.0886202	0.286479	169.8247512	-11.13257394	-40.06695294
5.81	581	-0.198	-0.143	0.987	0.2291832	1.0313244	0.2291832	169.8304808	-11.1440331	-40.06695294
5.82	582	-0.198	-0.134	0.987	0.1145916	1.2605076	0.3437748	169.8304808	-11.15549226	-40.06695294
5.83	583	-0.198	-0.132	0.984	-0.0572958	1.432395	0.286479	169.8304808	-11.172681	-40.06695294
5.84	584	-0.2	-0.131	0.983	-0.1718874	1.3178034	0.286479	169.8247512	-11.18414016	-40.07268252
5.85	585	-0.2	-0.132	0.985	-0.286479	1.2605076	0.2291832	169.9164245	-11.20705848	-40.08987126
5.86	586	-0.2	-0.131	0.987	-0.2291832	1.0886202	0.2291832	169.9164245	-11.21851764	-40.08987126
5.87	587	-0.2	-0.131	0.985	-0.4010706	1.0886202	0.2291832	169.9106949	-11.2299768	-40.08987126
5.88	588	-0.199	-0.132	0.986	-0.4010706	0.9167328	0.2291832	169.9049653	-11.24143596	-40.08987126
5.89	589	-0.199	-0.132	0.985	-0.4010706	0.6875496	0.1718874	169.8992357	-11.24716554	-40.09560084
5.9	590	-0.199	-0.134	0.987	-0.4010706	0.4010706	0.1718874	170.0539344	-11.25289512	-40.12424874
5.91	591	-0.2	-0.134	0.99	-0.286479	-0.1718874	0.0572958	170.0482048	-11.25289512	-40.12997832
5.92	592	-0.2	-0.135	0.991	-0.5156622	-0.572958	0	170.0482048	-11.24716554	-40.12997832
5.93	593	-0.202	-0.134	0.995	-0.6302538	-0.8021412	0	170.0367457	-11.23570638	-40.12997832
5.94	594	-0.201	-0.133	0.997	-0.859437	-0.9167328	-0.0572958	170.0310161	-11.2299768	-40.12997832
5.95	595	-0.2	-0.134	0.997	-1.145916	-1.2032118	-0.1145916	170.0768527	-11.21851764	-40.14143748
5.96	596	-0.199	-0.132	0.99	-1.2032118	-1.4896908	-0.1145916	170.059664	-11.20705848	-40.14143748
5.97	597	-0.199	-0.133	0.985	-0.859437	-1.3750992	0	170.0539344	-11.18986974	-40.14716706
5.98	598	-0.197	-0.133	0.987	-0.4583664	-0.7448454	0	170.0482048	-11.18414016	-40.14716706
5.99	599	-0.196	-0.135	0.993	-0.4583664	-0.1718874	0	170.0424752	-11.18414016	-40.14716706
6	600	-0.197	-0.136	0.997	-0.5156622	0	0.0572958	170.1799852	-11.172681	-40.17581496
6.01	601	-0.197	-0.135	0.996	-0.5156622	-0.1718874	0.1145916	170.1742556	-11.16695142	-40.17581496
6.02	602	-0.2	-0.135	0.997	-0.5156622	-0.0572958	0.1145916	170.168526	-11.16695142	-40.18154454
6.03	603	-0.199	-0.135	0.995	-0.4583664	0.3437748	0.1145916	170.1627964	-11.172681	-40.18154454
6.04	604	-0.198	-0.135	0.991	-0.5156622	0.4583664	0.1145916	170.1570668	-11.17841058	-40.18154454
6.05	605	-0.198	-0.133	0.99	-0.6302538	0.4583664	0.1718874	170.2601993	-11.18986974	-40.20446286
6.06	606	-0.198	-0.13	0.99	-0.5156622	0.286479	0.1718874	170.2544697	-11.18986974	-40.20446286
6.07	607	-0.198	-0.136	0.99	-0.572958	0.286479	0.2291832	170.2487401	-11.19559932	-40.20446286
6.08	608	-0.198	-0.133	0.984	-0.572958	0.2291832	0.1718874	170.2430105	-11.19559932	-40.21019244
6.09	609	-0.197	-0.131	0.983	-0.6875496	0.0572958	0.1145916	170.237281	-11.19559932	-40.21019244
6.1	610	-0.198	-0.131	0.985	-0.6875496	-0.1718874	0.1145916	170.3346838	-11.2013289	-40.23311076
6.11	611	-0.199	-0.133	0.985	-0.7448454	-0.1718874	0.1145916	170.3232247	-11.2013289	-40.23311076
6.12	612	-0.198	-0.132	0.986	-0.6302538	-0.3437748	0.0572958	170.3174951	-11.19559932	-40.23311076
6.13	613	-0.199	-0.132	0.99	-0.6302538	-0.4583664	0.0572958	170.3117655	-11.18986974	-40.23884034
6.14	614	-0.2	-0.134	0.992	-0.7448454	-0.5156622	0.0572958	170.3060359	-11.18414016	-40.23884034
6.15	615	-0.199	-0.132	0.993	-0.6302538	-0.6302538	0.0572958	170.3805205	-11.18986974	-40.25602908
6.16	616	-0.199	-0.134	0.994	-0.6875496	-0.7448454	0	170.3690613	-11.17841058	-40.25602908
6.17	617	-0.198	-0.134	0.996	-0.7448454	-0.9167328	0	170.3633317	-11.172681	-40.26175866
6.18	618	-0.198	-0.134	0.998	-0.9740286	-0.9740286	0	170.3518726	-11.16122184	-40.26175866
6.19	619	-0.198	-0.133	0.994	-1.0886202	-0.9740286	0	170.3404134	-11.14976268	-40.26175866
6.2	620	-0.198	-0.133	0.991	-0.9740286	-0.9167328	0	170.38625	-11.1440331	-40.27321782
6.21	621	-0.196	-0.132	0.986	-0.859437	-0.9167328	0	170.3805205	-11.13830352	-40.2789474
6.22	622	-0.198	-0.133	0.988	-0.7448454	-1.0313244	0	170.3747909	-11.12684436	-40.2789474
6.23	623	-0.196	-0.133	0.99	-0.6875496	-0.9740286	0	170.3633317	-11.1153852	-40.2789474
6.24	624	-0.196	-0.134	0.991	-0.8021412	-0.9740286	0	170.3576021	-11.10392604	-40.28467698
6.25	625	-0.197	-0.134	0.993	-0.9167328	-1.0313244	0	170.3977092	-11.09819646	-40.29040656
6.26	626	-0.195	-0.133	0.989	-0.9740286	-0.859437	0	170.38625	-11.0867373	-40.29613614
6.27	627	-0.196	-0.134	0.989	-0.9740286	-0.9167328	0	170.3805205	-11.07527814	-40.29613614
6.28	628	-0.196	-0.134	0.99	-1.2032118	-1.145916	0	170.3633317	-11.06381898	-40.29613614
6.29	629	-0.196	-0.136	0.99	-1.2605076	-1.432395	0	170.3518726	-11.05235982	-40.29613614
6.3	630	-0.196	-0.134	0.989	-1.0886202	-1.432395	0	170.38625	-11.04090066	-40.3075953
6.31	631	-0.195	-0.135	0.987	-1.0313244	-1.6042824	0	170.3747909	-11.02371192	-40.31332488
6.32	632	-0.195	-0.135	0.989	-0.9740286	-1.6042824	0	170.3633317	-11.00652318	-40.31332488
6.33	633	-0.196	-0.135	0.992	-1.2032118	-1.5469866	-0.0572958	170.3518726	-10.99506402	-40.31332488
6.34	634	-0.196	-0.135	0.993	-1.3178034	-1.3750992	0	170.3404134	-10.97787528	-40.31905446
6.35	635	-0.196	-0.134	0.99	-1.2032118	-1.0313244	0	170.3747909	-10.9721457	-40.33051362
6.36	636	-0.196	-0.134	0.99	-1.0886202	-0.9167328	0	170.3633317	-10.96068654	-40.33051362
6.37	637	-0.194	-0.135	0.991	-0.9740286	-0.9167328	0.1145916	170.3576021	-10.95495696	-40.33051362
6.38	638	-0.195	-0.136	0.993	-1.0313244	-0.859437	0	170.346143	-10.9434978	-40.3362432
6.39	639	-0.194	-0.135	0.991	-0.9740286	-0.859437	0.0572958	170.3346838	-10.93776822	-40.3362432
6.4	640	-0.195	-0.134	0.993	-0.859437	-0.8021412	0.0572958	170.38625	-10.93203864	-40.34770236
6.41	641	-0.193	-0.134	0.992	-0.8021412	-0.7448454	0.0572958	170.3747909	-10.92630906	-40.35343194
6.42	642	-0.194	-0.133	0.991	-0.859437	-0.4583664	0.1145916	170.3690613	-10.92057948	-40.35343194
6.43	643	-0.194	-0.134	0.991	-0.859437	-0.4010706	0.0572958	170.3576021	-10.9148499	-40.35343194
6.44	644	-0.193	-0.135	0.991	-0.8021412	-0.3437748	0	170.3518726	-10.90912032	-40.35916152
6.45	645	-0.193	-0.134	0.991	-0.7448454	-0.4010706	0	170.4263571	-10.90912032	-40.37635026
6.46	646	-0.192	-0.133	0.989	-0.7448454	-0.4010706	0	170.4206275	-10.90339074	-40.37635026
6.47	647	-0.192	-0.133	0.988	-0.6875496	-0.2291832	0.0572958	170.4148979	-10.90339074	-40.37635026
6.48	648	-0.194	-0.135	0.989	-0.572958	-0.1718874	0	170.4091684	-10.89766116	-40.37635026
6.49	649	-0.193	-0.135	0.988	-0.5156622	-0.1718874	0.0572958	170.4034388	-10.89766116	-40.38207984
6.5	650	-0.194	-0.135	0.99	0.4010706	0.7448454	0	170.4721937	-10.90912032	-40.393539
6.51	651	-0.194	-0.135	0.991	0.4010706	0.7448454	0	170.4721937	-10.92057948	-40.38780942
6.52	652	-0.194	-0.135	0.994	0.2291832	0.9167328	0.0572958	170.4779233	-10.92630906	-40.38780942
6.53	653	-0.194	-0.134	0.994	0.0572958	0.8021412	0	170.4779233	-10.93776822	-40.38780942
6.54	654	-0.195	-0.133	0.991	0	0.4010706	0	170.4779233	-10.93776822	-40.38780942
6.55	655	-0.194	-0.134	0.987	0.1718874	0.572958	0	170.5466783	-10.95495696	-40.39926858
6.56	656	-0.194	-0.135	0.984	0.5156622	0.572958	0	170.5524079	-10.96068654	-40.39926858
6.57	657	-0.193	-0.135	0.986	0.5156622	0.4010706	0	170.5581374	-10.96068654	-40.39926858
6.58	658	-0.193	-0.137	0.994	0.4010706	0.1718874	0.0572958	170.563867	-10.96641612	-40.39926858
6.59	659	-0.194	-0.137	0.999	0.1718874	0	0	170.5695966	-10.96641612	-40.39926858
6.6	660	-0.193	-0.137	0.995	0.1145916	0.2291832	0	170.672729	-10.95495696	-40.4221869
6.61	661	-0.193	-0.135	0.991	0	0.8021412	0.0572958	170.672729	-10.96068654	-40.4221869
6.62	662	-0.192	-0.134	0.988	0.1145916	0.859437	0.0572958	170.672729	-10.9721457	-40.41645732
6.63	663	-0.193	-0.134	0.989	0.1718874	0.6302538	0.0572958	170.672729	-10.97787528	-40.41645732
6.64	664	-0.193	-0.135	0.991	0.3437748	0.6302538	0.0572958	170.6784586	-10.98360486	-40.41645732
6.65	665	-0.193	-0.133	0.991	0.4583664	0.6875496	0	170.7472136	-10.98360486	-40.42791648
6.66	666	-0.192	-0.132	0.99	0.5156622	0.8021412	0.0572958	170.7472136	-10.99506402	-40.42791648
6.67	667	-0.192	-0.133	0.989	0.572958	0.8021412	0.0572958	170.7529432	-11.0007936	-40.42791648
6.68	668	-0.192	-0.133	0.99	0.6302538	0.572958	0.0572958	170.7644023	-11.00652318	-40.42791648
6.69	669	-0.192	-0.134	0.992	0.5156622	0.6302538	0.0572958	170.7701319	-11.01225276	-40.42791648
6.7	670	-0.192	-0.134	0.994	0.4583664	0.6302538	0.0572958	170.8331573	-11.01225276	-40.43937564
6.71	671	-0.193	-0.134	0.996	0.286479	0.6302538	0.0572958	170.8331573	-11.01798234	-40.43937564
6.72	672	-0.192	-0.134	0.997	0.1145916	0.572958	0.0572958	170.8331573	-11.02371192	-40.43937564
6.73	673	-0.193	-0.135	0.995	0	0.4583664	0.0572958	170.8331573	-11.0294415	-40.43937564
6.74	674	-0.193	-0.134	0.989	-0.1145916	0	0	170.8331573	-11.0294415	-40.43937564
6.75	675	-0.193	-0.134	0.986	0.1145916	-0.1145916	0.0572958	170.959208	-11.01225276	-40.46802354
6.76	676	-0.193	-0.133	0.986	0.2291832	-0.1145916	0	170.9649376	-11.01225276	-40.46802354
6.77	677	-0.193	-0.134	0.987	0.1718874	-0.286479	-0.0572958	170.9649376	-11.01225276	-40.46802354
6.78	678	-0.192	-0.134	0.99	0.0572958	-0.286479	-0.0572958	170.9649376	-11.00652318	-40.46802354
6.79	679	-0.192	-0.135	0.99	0.1145916	-0.1718874	-0.0572958	170.9706672	-11.00652318	-40.46802354
6.8	680	-0.191	-0.136	0.99	0.1145916	-0.1718874	0	171.1081771	-10.96641612	-40.49667144
6.81	681	-0.193	-0.135	0.99	0	-0.2291832	0	171.1081771	-10.96068654	-40.49667144
6.82	682	-0.192	-0.135	0.992	0	-0.1718874	0	171.1081771	-10.96068654	-40.49667144
6.83	683	-0.192	-0.135	0.992	-0.0572958	-0.1145916	-0.0572958	171.1081771	-10.96068654	-40.49667144
6.84	684	-0.192	-0.135	0.991	-0.0572958	-0.0572958	0	171.1081771	-10.96068654	-40.49667144
6.85	685	-0.194	-0.134	0.99	-0.0572958	-0.0572958	0	171.2113096	-10.95495696	-40.51386018
6.86	686	-0.191	-0.134	0.992	0	-0.1718874	0	171.2113096	-10.95495696	-40.51386018
6.87	687	-0.192	-0.134	0.993	0	-0.0572958	0.1145916	171.2113096	-10.95495696	-40.51386018
6.88	688	-0.192	-0.133	0.991	0.1718874	0	0.0572958	171.2170391	-10.95495696	-40.51958976
6.89	689	-0.191	-0.133	0.992	0.1145916	0	0.0572958	171.2170391	-10.95495696	-40.51958976
6.9	690	-0.192	-0.132	0.992	0.2291832	0	0.0572958	171.2915237	-10.9434978	-40.53104892
6.91	691	-0.191	-0.132	0.991	0.2291832	0	0.0572958	171.2972533	-10.9434978	-40.53104892
6.92	692	-0.191	-0.134	0.991	0.3437748	0.0572958	0	171.2972533	-10.9434978	-40.53104892
6.93	693	-0.19	-0.133	0.989	0.4583664	0	0.1145916	171.3029828	-10.9434978	-40.5367785
6.94	694	-0.191	-0.133	0.993	0.2291832	0	0	171.3087124	-10.9434978	-40.5367785
6.95	695	-0.19	-0.134	0.993	0.1145916	0.1145916	0.0572958	171.3545491	-10.92630906	-40.54250808
6.96	696	-0.191	-0.134	0.993	0.1145916	0.1718874	0.0572958	171.3545491	-10.92630906	-40.54823766
6.97	697	-0.191	-0.133	0.991	0.0572958	0.2291832	0	171.3602786	-10.92630906	-40.54823766
6.98	698	-0.192	-0.132	0.992	0	0.286479	0.0572958	171.3602786	-10.93203864	-40.54823766
6.99	699	-0.191	-0.132	0.991	0.0572958	0.2291832	0	171.3602786	-10.93203864	-40.54823766
7	700	-0.192	-0.133	0.991	0.0572958	0.2291832	0	171.4061153	-10.92630906	-40.55396724
7.01	701	-0.191	-0.132	0.99	0.1145916	0.2291832	0.0572958	171.4061153	-10.92630906	-40.55396724
7.02	702	-0.191	-0.132	0.99	0.1718874	0.1145916	0	171.4061153	-10.93203864	-40.55396724
7.03	703	-0.192	-0.134	0.993	0.1145916	0.1145916	0	171.4061153	-10.93203864	-40.55396724
7.04	704	-0.191	-0.135	0.994	0.0572958	0.0572958	0	171.4118449	-10.93203864	-40.55396724
7.05	705	-0.191	-0.134	0.993	-0.0572958	0.1718874	0	171.4404928	-10.92057948	-40.55969682
7.06	706	-0.191	-0.134	0.992	0	0.1145916	0	171.4404928	-10.92057948	-40.55969682
7.07	707	-0.191	-0.134	0.991	0	0.1145916	0	171.4404928	-10.92630906	-40.55969682
7.08	708	-0.191	-0.133	0.99	-0.0572958	0	0	171.4404928	-10.92630906	-40.55969682
7.09	709	-0.191	-0.133	0.997	-0.286479	0	0	171.4347632	-10.92630906	-40.55969682
7.1	710	-0.191	-0.132	0.998	-0.6302538	-0.0572958	0	171.4576815	-10.9148499	-40.5654264
7.11	711	-0.191	-0.132	0.991	-0.6302538	-0.1718874	0	171.4519519	-10.9148499	-40.5654264
7.12	712	-0.191	-0.132	0.989	-0.4010706	0.1145916	0	171.4462223	-10.9148499	-40.5654264
7.13	713	-0.19	-0.134	0.987	-0.1145916	0.1718874	0	171.4462223	-10.92057948	-40.5654264
7.14	714	-0.19	-0.133	0.987	0.1718874	-0.0572958	0	171.4462223	-10.92057948	-40.5654264
7.15	715	-0.191	-0.135	0.996	0.1718874	-0.286479	0	171.4748702	-10.90339074	-40.57115598
7.16	716	-0.19	-0.135	0.999	0	-0.0572958	0.1145916	171.4748702	-10.90339074	-40.57115598
7.17	717	-0.19	-0.134	0.996	-0.1145916	0.2291832	0	171.4691407	-10.90339074	-40.57115598
7.18	718	-0.191	-0.134	0.991	0.1145916	0.6302538	0.1718874	171.4748702	-10.90912032	-40.57688556
7.19	719	-0.191	-0.131	0.989	0.1145916	0.6302538	0.1145916	171.4748702	-10.92057948	-40.57688556
7.2	720	-0.19	-0.131	0.991	0.1718874	0.6302538	0.1145916	171.492059	-10.92057948	-40.57688556
7.21	721	-0.191	-0.132	0.994	0.1718874	0.6302538	0.1718874	171.4977886	-10.92630906	-40.58261514
7.22	722	-0.19	-0.131	0.994	0.2291832	0.8021412	0.1145916	171.4977886	-10.93203864	-40.58261514
7.23	723	-0.191	-0.132	0.991	0.286479	0.859437	0.1718874	171.5035181	-10.9434978	-40.58261514
7.24	724	-0.19	-0.131	0.99	0.3437748	0.7448454	0.1145916	171.5035181	-10.94922738	-40.58261514
7.25	725	-0.19	-0.131	0.993	0.286479	0.4010706	0.0572958	171.5436252	-10.94922738	-40.58834472
7.26	726	-0.192	-0.132	0.991	0.1718874	0.3437748	0.0572958	171.5436252	-10.95495696	-40.58834472
7.27	727	-0.191	-0.131	0.992	0.2291832	0.3437748	0.0572958	171.5493548	-10.95495696	-40.58834472
7.28	728	-0.192	-0.132	0.992	0.1718874	0.3437748	0	171.5493548	-10.96068654	-40.58834472
7.29	729	-0.192	-0.132	0.99	0.1718874	0.3437748	0	171.5493548	-10.96068654	-40.58834472
7.3	730	-0.191	-0.131	0.99	0.1718874	0.3437748	0.0572958	171.5837323	-10.94922738	-40.5940743
7.31	731	-0.191	-0.132	0.992	0.0572958	0.2291832	0	171.5837323	-10.95495696	-40.5940743
7.32	732	-0.191	-0.132	0.991	0.0572958	0.3437748	0	171.5837323	-10.95495696	-40.5940743
7.33	733	-0.192	-0.132	0.991	0.1145916	0.2291832	0.0572958	171.5894618	-10.96068654	-40.5940743
7.34	734	-0.192	-0.131	0.993	0	0.0572958	-0.0572958	171.5894618	-10.96068654	-40.5940743
7.35	735	-0.193	-0.131	0.992	-0.0572958	0	0	171.6295689	-10.94922738	-40.60553346
7.36	736	-0.192	-0.131	0.99	-0.0572958	0	0	171.6295689	-10.94922738	-40.59980388
7.37	737	-0.191	-0.13	0.988	0.1145916	-0.0572958	-0.0572958	171.6295689	-10.94922738	-40.59980388
7.38	738	-0.192	-0.131	0.988	0.0572958	-0.1718874	-0.1145916	171.6295689	-10.94922738	-40.59980388
7.39	739	-0.192	-0.132	0.991	0	-0.286479	-0.0572958	171.6295689	-10.9434978	-40.59980388
7.4	740	-0.192	-0.131	0.993	-0.1145916	-0.286479	-0.1145916	171.6467576	-10.92630906	-40.60553346
7.41	741	-0.191	-0.131	0.993	-0.1145916	-0.286479	-0.1145916	171.6467576	-10.92057948	-40.60553346
7.42	742	-0.191	-0.13	0.991	0	-0.3437748	-0.1145916	171.6467576	-10.92057948	-40.59980388
7.43	743	-0.192	-0.131	0.993	0	-0.572958	-0.1145916	171.6467576	-10.9148499	-40.59980388
7.44	744	-0.191	-0.13	0.993	0.0572958	-0.6875496	-0.1718874	171.6467576	-10.90339074	-40.59980388
7.45	745	-0.191	-0.13	0.991	0.1145916	-0.5156622	-0.1145916	171.6639464	-10.89193158	-40.60553346
7.46	746	-0.191	-0.13	0.99	0.2291832	-0.5156622	-0.0572958	171.669676	-10.886202	-40.60553346
7.47	747	-0.19	-0.132	0.991	0.1718874	-0.4010706	-0.1718874	171.669676	-10.88047242	-40.59980388
7.48	748	-0.19	-0.132	0.992	0.1718874	-0.3437748	-0.1145916	171.669676	-10.88047242	-40.59980388
7.49	749	-0.19	-0.132	0.993	0.1718874	-0.286479	-0.0572958	171.6754055	-10.87474284	-40.59980388
7.5	750	-0.191	-0.13	0.992	0.1145916	-0.286479	-0.0572958	171.7212422	-10.86901326	-40.60553346
7.51	751	-0.192	-0.131	0.993	0.2291832	-0.1718874	0	171.7212422	-10.86901326	-40.60553346
7.52	752	-0.191	-0.13	0.993	0.0572958	-0.1718874	0	171.7269718	-10.86901326	-40.60553346
7.53	753	-0.191	-0.131	0.993	0	-0.1145916	0	171.7269718	-10.86328368	-40.60553346
7.54	754	-0.191	-0.131	0.993	0	-0.0572958	0	171.7269718	-10.86328368	-40.60553346
7.55	755	-0.191	-0.131	0.996	-0.0572958	0	0	171.7384309	-10.85182452	-40.61126304
7.56	756	-0.191	-0.13	0.994	-0.1718874	0.2291832	0.0572958	171.7384309	-10.8575541	-40.61126304
7.57	757	-0.191	-0.131	0.992	-0.286479	0.2291832	0	171.7327013	-10.8575541	-40.61126304
7.58	758	-0.191	-0.128	0.993	-0.1145916	0.1145916	0	171.7327013	-10.8575541	-40.61126304
7.59	759	-0.191	-0.13	0.993	-0.1718874	0.0572958	0	171.7327013	-10.86328368	-40.61126304
7.6	760	-0.191	-0.13	0.993	-0.1718874	0	0.0572958	171.7670788	-10.84036536	-40.6227222
7.61	761	-0.191	-0.129	0.995	-0.1718874	0.1718874	0.0572958	171.7670788	-10.84036536	-40.6227222
7.62	762	-0.191	-0.129	0.992	-0.1718874	0.1145916	0	171.7613492	-10.84036536	-40.6227222
7.63	763	-0.19	-0.129	0.987	-0.1145916	0.0572958	0	171.7613492	-10.84036536	-40.6227222
7.64	764	-0.192	-0.129	0.987	0	-0.0572958	0.0572958	171.7613492	-10.84036536	-40.6227222
7.65	765	-0.191	-0.13	0.994	-0.1718874	0	0	171.778538	-10.83463578	-40.62845178
7.66	766	-0.191	-0.129	1	-0.4583664	0.1718874	0	171.7728084	-10.84036536	-40.62845178
7.67	767	-0.192	-0.129	0.994	-0.6302538	0.1145916	0	171.7670788	-10.84036536	-40.62845178
7.68	768	-0.193	-0.128	0.99	-0.3437748	0.1718874	0	171.7670788	-10.84036536	-40.62845178
7.69	769	-0.191	-0.131	0.99	-0.3437748	0.3437748	0	171.7613492	-10.84609494	-40.6227222
7.7	770	-0.19	-0.131	0.987	0	0.1718874	0	171.8014563	-10.83463578	-40.63418136
7.71	771	-0.191	-0.133	0.993	0.0572958	0	0	171.8014563	-10.83463578	-40.63418136
7.72	772	-0.193	-0.133	1.003	-0.4583664	0	0	171.7957267	-10.83463578	-40.63418136
7.73	773	-0.191	-0.131	0.997	-0.4583664	0.286479	0	171.7899971	-10.84036536	-40.63418136
7.74	774	-0.19	-0.13	0.991	-0.286479	0.6302538	0.1145916	171.7899971	-10.84609494	-40.63418136
7.75	775	-0.192	-0.13	0.989	-0.2291832	0.572958	0.1145916	171.7899971	-10.85182452	-40.63418136
7.76	776	-0.191	-0.129	0.988	-0.1145916	0.4010706	0.0572958	171.7899971	-10.8575541	-40.63418136
7.77	777	-0.192	-0.128	0.992	0	0.286479	0.1145916	171.7899971	-10.86328368	-40.63418136
7.78	778	-0.192	-0.129	0.993	0	0.4583664	0	171.7899971	-10.86901326	-40.63418136
7.79	779	-0.192	-0.129	0.993	-0.0572958	0.4583664	0	171.7899971	-10.86901326	-40.63418136
7.8	780	-0.192	-0.13	0.992	-0.1145916	0.3437748	0	171.8014563	-10.86901326	-40.63991094
7.81	781	-0.19	-0.128	0.992	-0.1145916	0.3437748	0	171.8014563	-10.86901326	-40.63991094
7.82	782	-0.192	-0.13	0.991	0	0.286479	0	171.7957267	-10.87474284	-40.63991094
7.83	783	-0.192	-0.13	0.993	0	0.3437748	0	171.7957267	-10.88047242	-40.63991094
7.84	784	-0.191	-0.13	0.992	-0.0572958	0.4010706	0.1145916	171.7957267	-10.88047242	-40.63991094
7.85	785	-0.193	-0.13	0.992	0	0.3437748	0.0572958	171.8129155	-10.886202	-40.63991094
7.86	786	-0.192	-0.13	0.992	0	0.3437748	0	171.8129155	-10.886202	-40.63991094
7.87	787	-0.192	-0.131	0.992	0	0.2291832	0.0572958	171.8129155	-10.89193158	-40.63991094
7.88	788	-0.193	-0.129	0.992	0.0572958	0.1718874	0	171.8129155	-10.89193158	-40.64564052
7.89	789	-0.193	-0.13	0.993	0.1718874	0.286479	0	171.8129155	-10.89766116	-40.63991094
7.9	790	-0.194	-0.13	0.991	0.1718874	0.286479	0.0572958	171.8243746	-10.90339074	-40.64564052
7.91	791	-0.193	-0.129	0.99	0.0572958	0.286479	0	171.8243746	-10.90912032	-40.64564052
7.92	792	-0.193	-0.13	0.992	0	0.286479	0	171.8243746	-10.90912032	-40.64564052
7.93	793	-0.193	-0.129	0.991	-0.0572958	0.2291832	0.0572958	171.8243746	-10.9148499	-40.64564052
7.94	794	-0.192	-0.129	0.988	0	0.2291832	0	171.8243746	-10.9148499	-40.64564052
7.95	795	-0.193	-0.13	0.988	0.0572958	0.1718874	0	171.8358338	-10.92057948	-40.64564052
7.96	796	-0.193	-0.131	0.991	0.1718874	0	0	171.8358338	-10.92057948	-40.64564052
7.97	797	-0.193	-0.131	0.994	0	-0.0572958	-0.1145916	171.8358338	-10.9148499	-40.64564052
7.98	798	-0.193	-0.129	0.994	0	0	-0.0572958	171.8358338	-10.9148499	-40.64564052
7.99	799	-0.193	-0.13	0.992	0.0572958	0	0	171.8415634	-10.9148499	-40.64564052
8	800	-0.193	-0.13	0.992	0	0	-0.1145916	171.8702113	-10.92057948	-40.6513701
8.01	801	-0.193	-0.129	0.993	-0.0572958	0	-0.0572958	171.8702113	-10.92057948	-40.64564052
8.02	802	-0.193	-0.129	0.992	0	-0.1718874	-0.0572958	171.8702113	-10.9148499	-40.64564052
8.03	803	-0.194	-0.129	0.991	0.0572958	-0.1145916	-0.0572958	171.8702113	-10.9148499	-40.64564052
8.04	804	-0.193	-0.128	0.991	0.0572958	-0.1718874	-0.0572958	171.8702113	-10.9148499	-40.64564052
8.05	805	-0.194	-0.129	0.993	0	-0.1718874	-0.0572958	171.8816704	-10.90912032	-40.64564052
8.06	806	-0.194	-0.13	0.992	0	-0.2291832	0	171.8816704	-10.90912032	-40.64564052
8.07	807	-0.194	-0.129	0.993	-0.0572958	-0.4010706	0	171.8816704	-10.90339074	-40.64564052
8.08	808	-0.192	-0.129	0.993	-0.0572958	-0.3437748	-0.0572958	171.8816704	-10.90339074	-40.64564052
8.09	809	-0.193	-0.13	0.993	-0.0572958	-0.3437748	0	171.8816704	-10.89766116	-40.64564052
8.1	810	-0.194	-0.129	0.991	0	-0.286479	0	171.8931296	-10.90339074	-40.6513701
8.11	811	-0.193	-0.129	0.991	0	-0.1718874	0	171.8931296	-10.89766116	-40.6513701
8.12	812	-0.194	-0.129	0.991	0.1145916	-0.2291832	0	171.8931296	-10.89766116	-40.6513701
8.13	813	-0.193	-0.129	0.992	0	-0.1718874	-0.1145916	171.8931296	-10.89766116	-40.64564052
8.14	814	-0.194	-0.13	0.993	-0.0572958	-0.1718874	-0.0572958	171.8931296	-10.89193158	-40.64564052
8.15	815	-0.194	-0.129	0.99	-0.0572958	-0.286479	-0.0572958	171.8988592	-10.89766116	-40.64564052
8.16	816	-0.195	-0.129	0.992	-0.1145916	-0.286479	-0.0572958	171.8988592	-10.89766116	-40.64564052
8.17	817	-0.193	-0.129	0.992	-0.1718874	-0.1718874	0	171.8931296	-10.89193158	-40.64564052
8.18	818	-0.194	-0.13	0.992	-0.1145916	-0.0572958	0	171.8931296	-10.89193158	-40.64564052
8.19	819	-0.193	-0.129	0.989	-0.1145916	0	0	171.8931296	-10.89193158	-40.64564052
8.2	820	-0.193	-0.128	0.985	0	-0.1145916	-0.0572958	171.9045887	-10.89766116	-40.6513701
8.21	821	-0.194	-0.13	0.991	0	-0.2291832	0	171.9045887	-10.89766116	-40.6513701
8.22	822	-0.195	-0.13	0.997	-0.2291832	-0.1145916	-0.0572958	171.9045887	-10.89193158	-40.64564052
8.23	823	-0.194	-0.129	0.995	-0.572958	-0.286479	-0.0572958	171.8988592	-10.89193158	-40.64564052
8.24	824	-0.195	-0.128	0.992	-0.572958	-0.2291832	-0.1145916	171.8874	-10.886202	-40.64564052
8.25	825	-0.193	-0.129	0.99	-0.286479	0.0572958	-0.0572958	171.8988592	-10.886202	-40.64564052
8.26	826	-0.193	-0.128	0.989	-0.0572958	0.1718874	-0.0572958	171.8988592	-10.89193158	-40.64564052
8.27	827	-0.193	-0.13	0.989	0.1145916	0.0572958	0	171.8988592	-10.89193158	-40.64564052
8.28	828	-0.194	-0.131	0.997	-0.1145916	0.0572958	0	171.8931296	-10.89193158	-40.64564052
8.29	829	-0.194	-0.13	0.997	-0.2291832	0.0572958	0.0572958	171.8931296	-10.89193158	-40.64564052
8.3	830	-0.194	-0.132	0.994	-0.0572958	0.3437748	0.1145916	171.8874	-10.90339074	-40.64564052
8.31	831	-0.194	-0.13	0.992	-0.0572958	0.5156622	0.0572958	171.8874	-10.90912032	-40.64564052
8.32	832	-0.193	-0.128	0.989	-0.0572958	0.4010706	0.0572958	171.8874	-10.9148499	-40.64564052
8.33	833	-0.194	-0.127	0.99	0	0.3437748	0.0572958	171.8874	-10.9148499	-40.64564052
8.34	834	-0.195	-0.128	0.991	0	0.4010706	0.1145916	171.8874	-10.92057948	-40.64564052
8.35	835	-0.194	-0.128	0.99	0	0.3437748	0.0572958	171.8988592	-10.93203864	-40.6513701
8.36	836	-0.194	-0.129	0.989	-0.0572958	0.286479	0	171.8931296	-10.93203864	-40.6513701
8.37	837	-0.195	-0.128	0.989	0	0.1145916	0	171.8931296	-10.93203864	-40.6513701
8.38	838	-0.194	-0.13	0.991	0.0572958	0.0572958	0	171.8931296	-10.93776822	-40.6513701
8.39	839	-0.195	-0.129	0.99	0.1718874	0	0	171.8988592	-10.93776822	-40.6513701
8.4	840	-0.196	-0.129	0.991	0.1718874	0	0	171.9045887	-10.9434978	-40.6513701
8.41	841	-0.195	-0.13	0.993	0.1718874	0	0	171.9103183	-10.9434978	-40.6513701
8.42	842	-0.195	-0.13	0.994	0.1145916	-0.1145916	0	171.9103183	-10.9434978	-40.6513701
8.43	843	-0.195	-0.129	0.993	0	-0.1718874	0	171.9103183	-10.9434978	-40.6513701
8.44	844	-0.196	-0.13	0.992	0	-0.1145916	0	171.9103183	-10.93776822	-40.6513701
8.45	845	-0.194	-0.129	0.99	0.0572958	-0.1718874	0	171.9217775	-10.93776822	-40.65709968
8.46	846	-0.195	-0.129	0.988	0.1145916	-0.2291832	0	171.9275071	-10.93776822	-40.65709968
8.47	847	-0.194	-0.129	0.987	0.3437748	-0.4010706	0	171.9275071	-10.93203864	-40.65709968
8.48	848	-0.195	-0.129	0.987	0.4583664	-0.4583664	0	171.9332366	-10.92630906	-40.65709968
8.49	849	-0.195	-0.128	0.988	0.6875496	-0.2291832	0.1718874	171.9389662	-10.92630906	-40.65709968
8.5	850	-0.196	-0.129	0.99	0.572958	0	0.1718874	171.9504254	-10.93203864	-40.66282926
8.51	851	-0.195	-0.131	0.982	0.8021412	0.4010706	0.3437748	171.9618845	-10.93776822	-40.66282926
8.52	852	-0.189	-0.131	0.963	1.718874	1.0886202	0.572958	171.9790733	-10.94922738	-40.66855884
8.53	853	-0.187	-0.127	0.95	3.151269	1.9480572	0.8021412	172.0134508	-10.9721457	-40.67428842
8.54	854	-0.187	-0.129	0.948	4.010706	3.2658606	1.145916	172.0535578	-11.00652318	-40.680018
8.55	855	-0.194	-0.129	0.969	4.010706	4.4690724	1.3178034	172.0936649	-11.05235982	-40.69147716
8.56	856	-0.203	-0.134	1.004	3.2085648	5.0993262	1.432395	172.1280424	-11.10392604	-40.69720674
8.57	857	-0.204	-0.139	1.027	2.0626488	5.156622	1.3750992	172.1509607	-11.15549226	-40.7086659
8.58	858	-0.204	-0.137	1.026	1.8907614	5.3285094	1.3178034	172.173879	-11.21278806	-40.71439548
8.59	859	-0.204	-0.122	1.02	2.291832	5.3285094	1.3178034	172.1967973	-11.26435428	-40.72012506
8.6	860	-0.205	-0.142	1.006	2.1199446	4.6982556	1.145916	172.2139861	-11.3159205	-40.72585464
8.61	861	-0.203	-0.115	0.99	1.7761698	4.583664	1.0886202	172.2369044	-11.36175714	-40.73158422
8.62	862	-0.197	-0.115	0.979	1.3178034	4.3544808	1.0886202	172.2483635	-11.40759378	-40.74304338
8.63	863	-0.204	-0.107	0.972	1.4896908	3.8961144	1.2032118	172.2655523	-11.44770084	-40.74877296
8.64	864	-0.195	-0.116	0.959	1.8907614	3.4950438	1.3178034	172.2884706	-11.48207832	-40.76023212
8.65	865	-0.202	-0.109	0.963	2.86479	3.0939732	1.5469866	172.3228481	-11.5164558	-40.77169128
8.66	866	-0.205	-0.108	0.978	3.0939732	2.4064236	1.3750992	172.3572256	-11.5451037	-40.78315044
8.67	867	-0.204	-0.113	0.988	2.8074942	1.8334656	1.2032118	172.3858735	-11.56802202	-40.7946096
