TimeStamp(s)	FrameCounter	AccX	AccY	AccZ	GyrX	GyrY	GyrZ	EulerX	EulerY	EulerZ
0.01	1	-0.017	-1.001	0.085	-3.724227	3.7815228	1.8334656	92.12018724	-1.36364004	-16.56421578
0.02	2	-0.036	-1.006	0.085	-4.1825934	3.8961144	1.5469866	92.0743506	-1.38655836	-16.5298383
0.03	3	-0.051	-1.006	0.093	-4.5263682	5.0993262	1.2032118	92.02851396	-1.39801752	-16.47827208
0.04	4	-0.06	-1.003	0.104	-4.4117766	7.5630456	0.9740286	91.97694774	-1.41520626	-16.40378754
0.05	5	-0.059	-0.999	0.099	-4.1252976	10.026765	1.0886202	91.94257026	-1.44385416	-16.30638468
0.06	6	-0.051	-0.998	0.086	-4.4690724	11.2872726	1.432395	91.89100404	-1.4610429	-16.19179308
0.07	7	-0.043	-0.988	0.081	-4.583664	11.172681	1.718874	91.83943782	-1.4896908	-16.08293106
0.08	8	-0.036	-0.984	0.079	-4.010706	9.9694692	1.6042824	91.79933076	-1.50687954	-15.9855282
0.09	9	-0.035	-0.985	0.079	-3.7815228	8.9954406	1.3178034	91.75349412	-1.52979786	-15.8995845
0.1	10	-0.041	-0.986	0.083	-4.3544808	8.4797784	0.9167328	91.71911664	-1.5469866	-15.8136408
0.11	11	-0.051	-0.991	0.094	-4.9847346	9.1100322	0.572958	91.66182084	-1.55844576	-15.7276971
0.12	12	-0.059	-0.997	0.102	-5.6149884	10.7143146	0.4010706	91.59879546	-1.56990492	-15.61883508
0.13	13	-0.064	-1.003	0.102	-6.1306506	12.6623718	0.3437748	91.53577008	-1.58136408	-15.4985139
0.14	14	-0.066	-1.007	0.103	-6.875496	14.7250206	0.6875496	91.45555596	-1.59282324	-15.34954482
0.15	15	-0.068	-1.011	0.111	-7.5630456	17.0741484	1.0886202	91.38107142	-1.62147114	-15.183387
0.16	16	-0.066	-1.016	0.103	-8.4797784	19.4232762	1.3750992	91.28939814	-1.64438946	-14.99431086
0.17	17	-0.064	-1.019	0.092	-9.3392154	20.2254174	1.6042824	91.1862657	-1.67303736	-14.79377556
0.18	18	-0.063	-1.02	0.084	-9.5683986	19.9389384	1.9480572	91.07740368	-1.70168526	-14.59896984
0.19	19	-0.067	-1.02	0.081	-8.7089616	19.0795014	2.1772404	90.9857304	-1.73606274	-14.4098937
0.2	20	-0.07	-1.021	0.081	-7.448454	18.048177	2.291832	90.90551628	-1.77044022	-14.23227672
0.21	21	-0.071	-1.02	0.085	-6.5317212	17.4179232	2.3491278	90.83103174	-1.8048177	-14.06038932
0.22	22	-0.071	-1.019	0.09	-6.1306506	17.0168526	2.3491278	90.76227678	-1.8334656	-13.8942315
0.23	23	-0.07	-1.024	0.091	-6.3598338	16.7876694	2.578311	90.68779224	-1.86784308	-13.72807368
0.24	24	-0.069	-1.03	0.092	-7.8495246	16.9595568	2.6356068	90.60184854	-1.90222056	-13.56191586
0.25	25	-0.066	-1.033	0.08	-9.6256944	17.0741484	2.8074942	90.50444568	-1.94232762	-13.39575804
0.26	26	-0.057	-1.033	0.062	-11.2299768	16.1001198	3.0939732	90.37839492	-1.9767051	-13.2353298
0.27	27	-0.047	-1.027	0.047	-12.2613012	13.6936962	3.2658606	90.24661458	-2.01681216	-13.10354946
0.28	28	-0.039	-1.018	0.039	-12.5477802	10.5424272	3.2658606	90.11483424	-2.05118964	-13.00041702
0.29	29	-0.037	-1.005	0.035	-12.5477802	7.3911582	3.3231564	89.9830539	-2.0912967	-12.92593248
0.3	30	-0.044	-0.993	0.035	-12.605076	4.3544808	3.3231564	89.85700314	-2.12567418	-12.88582542
0.31	31	-0.059	-0.982	0.035	-12.6623718	1.718874	3.3231564	89.73095238	-2.16005166	-12.86863668
0.32	32	-0.075	-0.978	0.033	-12.9488508	-1.3750992	3.151269	89.59917204	-2.19442914	-12.88582542
0.33	33	-0.087	-0.981	0.037	-13.0634424	-3.4950438	3.0366774	89.4673917	-2.22307704	-12.9202029
0.34	34	-0.096	-0.982	0.048	-12.7769634	-4.7555514	2.9793816	89.34134094	-2.25745452	-12.97176912
0.35	35	-0.1	-0.987	0.064	-12.032118	-4.9274388	2.9793816	89.23247892	-2.30329116	-13.01760576
0.36	36	-0.102	-0.991	0.082	-11.4018642	-4.010706	3.0939732	89.11788732	-2.33193906	-13.05771282
0.37	37	-0.1	-0.995	0.092	-11.0007936	-2.86479	3.3231564	89.0090253	-2.36631654	-13.08636072
0.38	38	-0.095	-0.999	0.093	-11.1153852	-1.718874	3.6669312	88.90016328	-2.4064236	-13.10354946
0.39	39	-0.085	-1.004	0.09	-11.1153852	-1.4896908	4.010706	88.78557168	-2.44653066	-13.1207382
0.4	40	-0.076	-1.004	0.09	-11.3445684	-2.005353	4.3544808	88.6938984	-2.4923673	-13.14365652
0.41	41	-0.072	-1.005	0.093	-11.4018642	-2.5210152	4.4690724	88.5793068	-2.53820394	-13.16657484
0.42	42	-0.069	-1.004	0.099	-11.6310474	-3.0939732	4.4117766	88.4647152	-2.58404058	-13.20095232
0.43	43	-0.068	-1.004	0.096	-12.1467096	-3.6096354	4.5263682	88.34439402	-2.62987722	-13.2353298
0.44	44	-0.069	-1.001	0.1	-11.9175264	-4.4690724	4.583664	88.22407284	-2.67571386	-13.28116644
0.45	45	-0.065	-1.003	0.111	-10.6570188	-5.5003968	4.6982556	88.14385872	-2.72728008	-13.33846224
0.46	46	-0.065	-1.008	0.114	-10.1986524	-6.8182002	4.6409598	88.04645586	-2.77311672	-13.4072172
0.47	47	-0.067	-1.015	0.123	-10.599723	-8.021412	4.3544808	87.94332342	-2.81895336	-13.48743132
0.48	48	-0.068	-1.017	0.12	-11.8602306	-9.2246238	4.010706	87.82873182	-2.85906042	-13.5791046
0.49	49	-0.072	-1.014	0.102	-12.7196676	-10.1986524	3.724227	87.70841064	-2.89916748	-13.67650746
0.5	50	-0.077	-1.004	0.091	-13.178034	-11.745639	3.724227	87.59954862	-2.94500412	-13.79682864
0.51	51	-0.079	-0.994	0.083	-13.2353298	-13.5218088	3.7815228	87.47349786	-2.98511118	-13.92860898
0.52	52	-0.08	-0.986	0.071	-13.178034	-15.5271618	3.7815228	87.3474471	-3.02521824	-14.08330764
0.53	53	-0.083	-0.978	0.061	-13.1207382	-17.6471064	3.6096354	87.22712592	-3.0653253	-14.26092462
0.54	54	-0.086	-0.969	0.058	-12.7769634	-19.6524594	3.3231564	87.11253432	-3.10543236	-14.45573034
0.55	55	-0.091	-0.957	0.067	-11.6310474	-20.9702628	2.86479	87.02086104	-3.14553942	-14.66199522
0.56	56	-0.092	-0.957	0.077	-11.2872726	-21.6005166	2.4064236	86.9177286	-3.17418732	-14.87398968
0.57	57	-0.094	-0.962	0.076	-11.6310474	-21.5432208	2.0626488	86.81459616	-3.20283522	-15.09171372
0.58	58	-0.096	-0.965	0.068	-11.45916	-21.7151082	1.8907614	86.7171933	-3.23148312	-15.30370818
0.59	59	-0.096	-0.97	0.064	-11.0580894	-21.8869956	1.8334656	86.61979044	-3.25440144	-15.52143222
0.6	60	-0.097	-0.974	0.063	-10.3705398	-22.1734746	1.6042824	86.53957632	-3.28877892	-15.74488584
0.61	61	-0.102	-0.98	0.07	-9.5683986	-22.631841	1.2032118	86.4593622	-3.30596766	-15.96833946
0.62	62	-0.112	-0.984	0.078	-8.7089616	-22.5745452	0.4010706	86.39060724	-3.31742682	-16.19179308
0.63	63	-0.126	-0.991	0.082	-8.2505952	-21.9442914	-0.4010706	86.32185228	-3.3231564	-16.40951712
0.64	64	-0.134	-0.997	0.084	-8.5370742	-20.4546006	-1.2605076	86.24736774	-3.31742682	-16.615782
0.65	65	-0.143	-1.004	0.09	-9.1100322	-19.194093	-1.9480572	86.19007194	-3.3231564	-16.80485814
0.66	66	-0.145	-1.009	0.092	-9.8548776	-17.8762896	-2.4637194	86.10412824	-3.30596766	-16.98247512
0.67	67	-0.148	-1.01	0.097	-10.599723	-16.3865988	-3.0366774	86.00672538	-3.28304934	-17.14863294
0.68	68	-0.151	-1.009	0.104	-11.6310474	-14.4958374	-3.5523396	85.89786336	-3.25440144	-17.29760202
0.69	69	-0.156	-1.007	0.103	-12.3758928	-12.1467096	-4.1825934	85.77754218	-3.22002396	-17.42365278
0.7	70	-0.161	-1.006	0.104	-13.2353298	-9.3392154	-5.0993262	85.68013932	-3.19137606	-17.51532606
0.71	71	-0.164	-1.006	0.109	-13.750992	-6.2452422	-6.1879464	85.5426294	-3.13408026	-17.58408102
0.72	72	-0.163	-1.003	0.109	-14.32395	-1.6615782	-7.3338624	85.3993899	-3.0653253	-17.60699934
0.73	73	-0.161	-1.004	0.101	-14.4385416	1.4896908	-7.7922288	85.25042082	-2.99084076	-17.60126976
0.74	74	-0.158	-1.005	0.095	-14.3812458	3.724227	-7.734933	85.10145174	-2.91062664	-17.57262186
0.75	75	-0.151	-1.007	0.093	-13.9801752	5.72958	-7.3911582	84.98686014	-2.85333084	-17.52105564
0.76	76	-0.14	-1.007	0.089	-13.1207382	7.3911582	-7.2765666	84.84935022	-2.7788463	-17.45230068
0.77	77	-0.128	-1.014	0.088	-12.891555	8.8235532	-7.5630456	84.7118403	-2.69863218	-17.37781614
0.78	78	-0.124	-1.024	0.083	-13.2353298	10.599723	-8.2505952	84.5686008	-2.61268848	-17.28041328
0.79	79	-0.125	-1.032	0.08	-13.3499214	11.8029348	-9.2819196	84.43109088	-2.51528562	-17.17155126
0.8	80	-0.132	-1.034	0.094	-12.4331886	13.3499214	-10.599723	84.31649928	-2.41215318	-17.05123008
0.81	81	-0.137	-1.037	0.12	-9.8548776	15.2406828	-11.4018642	84.21336684	-2.291832	-16.91372016
0.82	82	-0.146	-1.039	0.145	-8.307891	18.1627686	-12.032118	84.11596398	-2.16005166	-16.74756234
0.83	83	-0.148	-1.041	0.156	-7.2192708	21.8869956	-12.318597	84.03002028	-2.02254174	-16.54129746
0.84	84	-0.142	-1.041	0.159	-6.016059	25.1528562	-12.1467096	83.96126532	-1.87930224	-16.30638468
0.85	85	-0.128	-1.04	0.161	-4.9847346	27.2728008	-11.3445684	83.92115826	-1.75898106	-16.04855358
0.86	86	-0.106	-1.034	0.156	-4.3544808	27.9030546	-9.8548776	83.86959204	-1.63865988	-15.7849929
0.87	87	-0.079	-1.022	0.15	-3.7815228	26.8717302	-8.1360036	83.81802582	-1.53552744	-15.53289138
0.88	88	-0.057	-1.007	0.138	-3.4950438	23.8923486	-6.7036086	83.77218918	-1.45531332	-15.30370818
0.89	89	-0.038	-0.989	0.125	-3.3804522	20.6837838	-6.589017	83.73208212	-1.36936962	-15.10317288
0.9	90	-0.024	-0.976	0.111	-2.7501984	17.1314442	-7.1046792	83.7378117	-1.28342592	-14.94847422
0.91	91	-0.013	-0.969	0.115	-1.2605076	12.605076	-7.6203414	83.72062296	-1.19748222	-14.83388262
0.92	92	-0.009	-0.962	0.154	0	6.9900876	-8.021412	83.71489338	-1.11153852	-14.77658682
0.93	93	-0.008	-0.957	0.222	-0.7448454	0.286479	-8.6516658	83.7091638	-1.02559482	-14.7823164
0.94	94	-0.012	-0.966	0.21	-2.86479	-7.0473834	-8.7662574	83.6805159	-0.9453807	-14.85680094
0.95	95	0.027	-1.047	0.049	-5.156622	-7.1046792	-7.2192708	83.651868	-0.859437	-14.94847422
0.96	96	0.136	-1.259	-0.124	-9.6829902	-1.8907614	-1.7761698	83.55446514	-0.84224826	-14.97139254
0.97	97	0.184	-1.429	-0.163	-6.016059	-6.9327918	5.9014674	83.49716934	-0.90527364	-15.03441792
0.98	98	0.186	-1.501	-0.178	-2.005353	-10.5424272	12.6623718	83.4799806	-1.04278356	-15.12036162
0.99	99	0.152	-1.475	-0.177	-6.4171296	-17.3033316	17.3033316	83.41695522	-1.22613012	-15.27506028
1	100	0.068	-1.309	-0.148	-3.6096354	-27.501984	16.7876694	83.3940369	-1.41520626	-15.5271618
1.01	101	-0.078	-1.07	-0.065	8.8235532	-32.5440144	9.453807	83.49143976	-1.53552744	-15.83655912
1.02	102	-0.2	-0.949	-0.026	15.3552744	-27.8457588	-1.2605076	83.66332716	-1.54125702	-16.11157896
1.03	103	-0.241	-0.937	-0.042	12.8342592	-19.3659804	-10.1986524	83.80083708	-1.45531332	-16.31211426
1.04	104	-0.234	-0.934	-0.07	9.6256944	-8.021412	-16.2720072	83.89823994	-1.30061466	-16.40951712
1.05	105	-0.212	-0.926	-0.098	8.59437	3.4950438	-17.2460358	83.97845406	-1.16310474	-16.38086922
1.06	106	-0.177	-0.913	-0.13	6.589017	16.1574156	-15.0114996	84.04147944	-1.0026765	-16.23190014
1.07	107	-0.136	-0.891	-0.163	2.1199446	28.1322378	-10.4278356	84.0529386	-0.87662574	-15.96833946
1.08	108	-0.086	-0.86	-0.183	-3.2085648	36.955791	-4.9274388	84.01283154	-0.79641162	-15.60737592
1.09	109	-0.046	-0.845	-0.204	-8.2505952	41.4821592	0.3437748	83.91542868	-0.7734933	-15.20057574
1.1	110	-0.01	-0.857	-0.225	-12.4904844	42.6280752	5.5576926	83.7664596	-0.79068204	-14.77085724
1.11	111	0.012	-0.892	-0.242	-15.5844576	39.247623	11.9748222	83.5945722	-0.88235532	-14.37551622
1.12	112	0.023	-0.92	-0.251	-16.042824	31.7418732	16.6730778	83.4226848	-1.01986524	-14.04320058
1.13	113	0.026	-0.93	-0.242	-12.891555	24.4080108	18.4492476	83.28517488	-1.18029348	-13.78536948
1.14	114	0.026	-0.93	-0.222	-7.6203414	17.0168526	16.5011904	83.19923118	-1.32926256	-13.59629334
1.15	115	0.027	-0.939	-0.203	-2.2345362	10.886202	11.45916	83.14193538	-1.41520626	-13.48170174
1.16	116	0.031	-0.96	-0.179	1.718874	5.443101	4.870143	83.15912412	-1.4610429	-13.41867636
1.17	117	0.035	-0.981	-0.145	4.4117766	0	-1.3750992	83.20496076	-1.44385416	-13.41867636
1.18	118	0.037	-0.99	-0.11	6.875496	-4.1825934	-6.016059	83.27371572	-1.38655836	-13.47024258
1.19	119	0.041	-0.995	-0.089	9.167328	-6.4171296	-8.2505952	83.37111858	-1.31207382	-13.53899754
1.2	120	0.039	-0.997	-0.07	11.0580894	-7.5630456	-7.9641162	83.49716934	-1.22040054	-13.63067082
1.21	121	0.035	-1.002	-0.055	11.9748222	-7.448454	-7.0473834	83.61749052	-1.15737516	-13.71088494
1.22	122	0.032	-1.005	-0.038	12.2040054	-6.5317212	-6.4744254	83.74354128	-1.10007936	-13.7796399
1.23	123	0.027	-1	-0.024	11.9175264	-5.0993262	-6.5317212	83.86959204	-1.03705398	-13.8369357
1.24	124	0.015	-0.98	-0.02	11.172681	-3.437748	-7.0473834	83.98418364	-0.96829902	-13.87704276
1.25	125	0.004	-0.957	-0.02	10.2559482	-1.9480572	-7.3911582	84.10450482	-0.8880849	-13.90569066
1.26	126	0	-0.938	-0.02	9.3965112	-0.4583664	-7.9641162	84.20190768	-0.80787078	-13.91714982
1.27	127	0.005	-0.931	-0.021	8.6516658	1.0313244	-8.3651868	84.28785138	-0.72192708	-13.91142024
1.28	128	0.01	-0.931	-0.021	7.9641162	2.5210152	-8.307891	84.3680655	-0.63598338	-13.8942315
1.29	129	0.016	-0.933	-0.026	7.3338624	3.4950438	-7.6203414	84.44255004	-0.56149884	-13.8655836
1.3	130	0.018	-0.94	-0.027	6.5317212	5.156622	-6.589017	84.51703458	-0.47555514	-13.82547654
1.31	131	0.023	-0.948	-0.019	6.0733548	6.3598338	-5.2139178	84.58005996	-0.41825934	-13.76818074
1.32	132	0.013	-0.961	-0.012	5.3285094	6.9327918	-3.9534102	84.63162618	-0.37815228	-13.69942578
1.33	133	0.011	-0.973	-0.014	3.6096354	7.6203414	-2.9220858	84.66600366	-0.3437748	-13.63067082
1.34	134	0.019	-0.978	-0.021	2.2345362	8.7662574	-2.0626488	84.68892198	-0.3151269	-13.54472712
1.35	135	0.03	-0.98	-0.03	1.0886202	10.313244	-1.0313244	84.71756988	-0.26929026	-13.45305384
1.36	136	0.042	-0.983	-0.031	0.1145916	11.745639	-0.0572958	84.71756988	-0.26356068	-13.33846224
1.37	137	0.055	-0.984	-0.03	-0.6875496	12.032118	0.6875496	84.70611072	-0.26356068	-13.21814106
1.38	138	0.068	-0.984	-0.031	-1.6042824	11.0007936	1.6042824	84.68892198	-0.27501984	-13.10927904
1.39	139	0.083	-0.981	-0.035	-2.291832	8.59437	2.578311	84.66027408	-0.29220858	-13.01760576
1.4	140	0.088	-0.979	-0.033	-2.578311	5.2139178	3.8388186	84.66027408	-0.26929026	-12.98322828
1.41	141	0.086	-0.98	-0.035	-3.6669312	0.7448454	4.9274388	84.6258966	-0.3151269	-12.97176912
1.42	142	0.078	-0.985	-0.03	-2.4637194	-3.6096354	5.6149884	84.5972487	-0.3724227	-13.0061466
1.43	143	0.063	-0.989	-0.021	-1.2032118	-8.0787078	5.9014674	84.58578954	-0.43544808	-13.08063114
1.44	144	0.044	-0.992	-0.006	0.2291832	-11.9748222	5.8441716	84.59151912	-0.50420304	-13.19522274
1.45	145	0.028	-0.998	0.012	1.145916	-13.750992	5.7868758	84.63735576	-0.55576926	-13.33273266
1.46	146	0.015	-1.006	0.033	1.718874	-14.610429	6.016059	84.6545445	-0.62452422	-13.47024258
1.47	147	0.009	-1.012	0.052	1.7761698	-14.3812458	6.4171296	84.67746282	-0.69900876	-13.6077525
1.48	148	0.01	-1.019	0.067	1.3178034	-13.750992	6.875496	84.69465156	-0.7734933	-13.73380326
1.49	149	0.016	-1.028	0.083	0.572958	-13.178034	7.3911582	84.70611072	-0.859437	-13.85985402
1.5	150	0.03	-1.037	0.097	-0.572958	-13.4072172	7.734933	84.74621778	-0.92246238	-13.99736394
1.51	151	0.048	-1.043	0.107	-1.7761698	-14.3812458	8.021412	84.73475862	-1.00840608	-14.12914428
1.52	152	0.066	-1.046	0.113	-2.6356068	-16.042824	8.1360036	84.7118403	-1.10007936	-14.28384294
1.53	153	0.075	-1.045	0.12	-2.86479	-17.9908812	8.0787078	84.68892198	-1.19175264	-14.45000076
1.54	154	0.081	-1.042	0.123	-2.578311	-20.340009	8.1360036	84.66600366	-1.2891555	-14.64480648
1.55	155	0.075	-1.035	0.125	-1.8334656	-22.058883	7.9641162	84.69465156	-1.35791046	-14.8682601
1.56	156	0.062	-1.027	0.135	-1.0886202	-23.3766864	7.5630456	84.69465156	-1.44385416	-15.09171372
1.57	157	0.04	-1.02	0.145	-0.2291832	-24.4653066	6.7036086	84.70038114	-1.52979786	-15.3266265
1.58	158	0.014	-1.012	0.154	0.6302538	-24.9809688	5.8441716	84.71756988	-1.6042824	-15.56726886
1.59	159	-0.015	-1.004	0.165	1.6615782	-24.5226024	4.870143	84.74621778	-1.66730778	-15.80791122
1.6	160	-0.046	-0.995	0.16	3.2658606	-22.5745452	4.4117766	84.83216148	-1.72460358	-16.03136484
1.61	161	-0.066	-0.991	0.145	4.6982556	-18.7357266	3.7815228	84.88945728	-1.7761698	-16.2147114
1.62	162	-0.08	-0.987	0.131	6.2452422	-12.605076	2.8074942	84.95821224	-1.81054728	-16.33503258
1.63	163	-0.099	-0.982	0.124	9.0527364	-5.0993262	1.2032118	85.0556151	-1.82773602	-16.38086922
1.64	164	-0.123	-0.965	0.14	13.5218088	2.2345362	-0.7448454	85.18739544	-1.81627686	-16.3579509
1.65	165	-0.154	-0.94	0.203	17.9908812	7.1046792	-2.1772404	85.4280378	-1.81627686	-16.28919594
1.66	166	-0.163	-0.916	0.341	16.5011904	8.880849	-2.7501984	85.59419562	-1.78189938	-16.19752266
1.67	167	-0.124	-0.881	0.41	4.9847346	12.032118	-2.578311	85.63430268	-1.7475219	-16.08293106
1.68	168	-0.052	-0.836	0.159	8.4797784	12.605076	-1.8907614	85.72024638	-1.72460358	-15.9568803
1.69	169	-0.045	-0.926	-0.232	29.9657034	-6.0733548	-2.578311	86.02391412	-1.69595568	-16.0141761
1.7	170	-0.107	-1.182	-0.195	44.2896534	-21.1421502	-5.9014674	86.48228052	-1.64438946	-16.22044098
1.71	171	-0.159	-1.509	0.012	39.7632852	-16.615782	-14.2093584	86.89481028	-1.50687954	-16.39232838
1.72	172	-0.149	-1.621	-0.158	29.507337	0.1718874	-23.0902074	87.19274844	-1.27769634	-16.39805796
1.73	173	-0.113	-1.47	-0.288	32.8877892	9.2819196	-27.4446882	87.52506408	-0.99694692	-16.31211426
1.74	174	-0.068	-1.3	-0.237	33.0023808	16.8449652	-30.4813656	87.85165014	-0.69327918	-16.15168602
1.75	175	-0.021	-1.132	-0.288	23.777757	18.6784308	-30.0229992	88.0636446	-0.38961144	-15.97406904
1.76	176	0.013	-1.039	-0.333	20.3973048	7.0473834	-26.929026	88.26990948	-0.12032118	-15.91104366
1.77	177	0.079	-1.078	-0.315	19.0222056	-4.7555514	-22.2880662	88.4647152	0.09740286	-15.96260988
1.78	178	0.172	-1.127	-0.284	13.2353298	-11.45916	-16.615782	88.60222512	0.26356068	-16.07720148
1.79	179	0.25	-1.083	-0.289	8.7089616	-16.5011904	-10.5424272	88.68816882	0.36669312	-16.23762972
1.8	180	0.285	-1.008	-0.223	9.3965112	-22.9756158	-5.9014674	88.76265336	0.47555514	-16.47827208
1.81	181	0.265	-0.958	-0.143	7.6203414	-28.934379	-4.8128472	88.84286748	0.52712136	-16.76475108
1.82	182	0.185	-0.936	-0.095	6.4171296	-30.4240698	-6.0733548	88.90589286	0.59014674	-17.06841882
1.83	183	0.08	-0.951	-0.061	7.2765666	-26.7571386	-6.8182002	88.9803774	0.66463128	-17.3319795
1.84	184	-0.041	-0.994	-0.029	8.4224826	-19.5378678	-4.870143	89.0663211	0.7161975	-17.52678522
1.85	185	-0.127	-1.017	0	8.7089616	-11.8602306	-1.5469866	89.1522648	0.67036086	-17.62418808
1.86	186	-0.183	-1.004	0	7.9068204	-2.7501984	1.2605076	89.23247892	0.6589017	-17.65283598
1.87	187	-0.215	-0.966	-0.016	7.1046792	5.0420304	2.9793816	89.30696346	0.62452422	-17.60126976
1.88	188	-0.23	-0.938	-0.015	7.7922288	11.5164558	4.010706	89.38717758	0.58441716	-17.48667816
1.89	189	-0.234	-0.917	-0.023	8.4224826	18.7930224	4.870143	89.47312128	0.53285094	-17.29760202
1.9	190	-0.228	-0.903	-0.018	8.880849	26.069589	5.6722842	89.5533354	0.43544808	-17.02831176
1.91	191	-0.2	-0.9	-0.008	9.6256944	33.231564	6.4744254	89.65073826	0.36096354	-16.69599612
1.92	192	-0.15	-0.901	-0.017	10.2559482	39.0184398	7.3338624	89.7538707	0.28074942	-16.31211426
1.93	193	-0.087	-0.899	-0.02	10.5424272	41.0810886	7.6776372	89.85700314	0.19480572	-15.90531408
1.94	194	-0.046	-0.897	-0.023	11.0007936	41.3675676	7.2192708	89.96586516	0.1145916	-15.49278432
1.95	195	-0.029	-0.899	-0.014	11.172681	40.2789474	6.5317212	90.0689976	0.03437748	-15.09171372
1.96	196	-0.026	-0.907	0.002	11.0007936	38.7319608	5.6149884	90.17785962	-0.02291832	-14.70783186
1.97	197	-0.023	-0.933	0.022	8.880849	36.8984952	3.6669312	90.26380332	-0.07448454	-14.34113874
1.98	198	-0.034	-0.945	0.023	8.59437	37.815228	3.151269	90.34401744	-0.1145916	-13.96871604
1.99	199	-0.06	-0.94	0.021	6.1879464	37.4141574	2.291832	90.40131324	-0.14896908	-13.59629334
2	200	-0.081	-0.936	0.025	3.8961144	37.1276784	1.3750992	90.43569072	-0.18907614	-13.22387064
2.01	201	-0.089	-0.936	0.033	1.8334656	37.0130868	0.4010706	90.44714988	-0.20626488	-12.85717752
2.02	202	-0.087	-0.939	0.044	0.1145916	36.8984952	-0.4010706	90.4414203	-0.21772404	-12.49621398
2.03	203	-0.072	-0.956	0.052	-2.1199446	37.1849742	-1.3178034	90.4127724	-0.21772404	-12.12952086
2.04	204	-0.051	-0.976	0.037	-4.9847346	36.669312	-2.3491278	90.3554766	-0.20626488	-11.76282774
2.05	205	-0.031	-0.991	0.018	-7.6776372	33.9191136	-3.2658606	90.2695329	-0.18907614	-11.4305121
2.06	206	-0.021	-1	0.014	-9.5683986	28.7624916	-4.0680018	90.16640046	-0.16042824	-11.1440331
2.07	207	-0.021	-1.004	0.022	-11.45916	22.1734746	-4.8128472	90.04607928	-0.1145916	-10.92630906
2.08	208	-0.035	-0.994	0.033	-13.9228794	15.9282324	-6.016059	89.90283978	-0.06302538	-10.7716104
2.09	209	-0.047	-0.985	0.046	-15.3552744	12.5477802	-6.9900876	89.74241154	0	-10.65128922
2.1	210	-0.066	-0.982	0.065	-16.1001198	11.2299768	-8.4797784	89.58771288	0.06302538	-10.53669762
2.11	211	-0.078	-0.986	0.09	-16.5584862	11.6883432	-10.0840608	89.42155506	0.16042824	-10.42210602
2.12	212	-0.083	-0.99	0.104	-16.7876694	13.5791046	-11.45916	89.24966766	0.26929026	-10.29032568
2.13	213	-0.083	-0.998	0.108	-17.18874	15.6990492	-12.0894138	89.07205068	0.38961144	-10.1413566
2.14	214	-0.08	-1.003	0.11	-17.18874	17.18874	-11.6883432	88.8944337	0.50420304	-9.97519878
2.15	215	-0.078	-1.001	0.115	-16.902261	18.4492476	-10.9434978	88.73973504	0.59587632	-9.79185222
2.16	216	-0.08	-0.989	0.125	-16.5011904	20.1681216	-10.599723	88.57357722	0.69900876	-9.5970465
2.17	217	-0.086	-0.976	0.137	-16.3865988	22.058883	-11.0007936	88.4074194	0.80787078	-9.38505204
2.18	218	-0.095	-0.966	0.147	-16.2147114	24.2361234	-12.1467096	88.24126158	0.92819196	-9.15013926
2.19	219	-0.107	-0.964	0.149	-16.5584862	26.4706596	-13.2926256	88.07510376	1.0599723	-8.89230816
2.2	220	-0.117	-0.969	0.145	-17.761698	28.4760126	-14.0947668	87.90894594	1.18029348	-8.61728832
2.21	221	-0.122	-0.975	0.147	-19.5951636	30.2521824	-14.2666542	87.71414022	1.32353298	-8.32507974
2.22	222	-0.123	-0.981	0.154	-22.6891368	32.4294228	-13.8082878	87.48495702	1.46677248	-8.00995284
2.23	223	-0.115	-0.971	0.154	-25.4393352	34.8358464	-12.7769634	87.2328555	1.59855282	-7.67190762
2.24	224	-0.103	-0.955	0.16	-24.923673	36.4401288	-11.5164558	86.98648356	1.718874	-7.32240324
2.25	225	-0.087	-0.952	0.16	-22.6891368	36.669312	-10.1413566	86.78021868	1.81627686	-6.96716928
2.26	226	-0.074	-0.954	0.169	-20.6837838	35.5806918	-8.6516658	86.5739538	1.90795014	-6.6176649
2.27	227	-0.058	-0.974	0.199	-19.0222056	35.6379876	-7.2765666	86.38487766	1.99389384	-6.2738901
2.28	228	-0.037	-1.01	0.215	-18.3919518	37.528749	-6.1306506	86.20726068	2.0626488	-5.90719698
2.29	229	-0.021	-1.045	0.217	-19.7097552	39.5913978	-5.3285094	86.01818454	2.13140376	-5.52331512
2.3	230	-0.002	-1.048	0.21	-18.334656	39.9924684	-5.2712136	85.86921546	2.20015872	-5.13370368
2.31	231	0.014	-1.037	0.231	-12.891555	40.2216516	-5.8441716	85.74889428	2.27464326	-4.74409224
2.32	232	0.036	-1.019	0.253	-8.4797784	39.5913978	-6.4171296	85.66868016	2.35485738	-4.3544808
2.33	233	0.065	-0.997	0.257	-3.0939732	37.24227	-6.1879464	85.65149142	2.4350715	-3.99351726
2.34	234	0.077	-0.996	0.303	1.0886202	30.9970278	-4.9847346	85.66868016	2.49809688	-3.68984952
2.35	235	0.112	-1.04	0.303	-1.4896908	22.5172494	-2.9220858	85.72024638	2.56685184	-3.47785506
2.36	236	0.209	-1.189	0.005	-13.464513	12.6623718	0.4010706	85.58846604	2.56685184	-3.35753388
2.37	237	0.369	-1.523	-0.193	-19.2513888	-7.5057498	9.5683986	85.39366032	2.4637194	-3.42628884
2.38	238	0.63	-2.152	-0.389	-28.8197874	-21.9442914	30.7678446	85.09572216	2.1485925	-3.62109456
2.39	239	0.805	-2.382	-0.49	-45.2063862	-13.4072172	59.8168152	84.63735576	1.54125702	-3.70703826
2.4	240	0.4	-1.516	-0.373	-51.56622	-34.8358464	64.6869582	84.10450482	0.88235532	-3.99351726
2.41	241	-0.112	-0.769	-0.067	-3.4950438	-61.6502808	45.0917946	84.07012734	0.38961144	-4.56074568
2.42	242	-0.395	-0.68	0.099	28.7051958	-55.8061092	13.9228794	84.3680655	0.21199446	-5.09359662
2.43	243	-0.394	-0.785	-0.075	15.5271618	-24.1215318	-14.2666542	84.52849374	0.33804522	-5.33996856
2.44	244	-0.335	-0.863	-0.133	-5.0993262	1.145916	-28.7624916	84.47692752	0.62452422	-5.3571573
2.45	245	-0.359	-0.926	-0.163	-17.0168526	14.1520626	-26.9863218	84.28785138	0.84797784	-5.23110654
2.46	246	-0.396	-0.967	-0.208	-17.761698	25.7258142	-14.896908	84.10450482	1.01413566	-4.99619376
2.47	247	-0.353	-1.033	-0.214	-13.9801752	34.2628884	2.3491278	83.9669949	1.01413566	-4.65814854
2.48	248	-0.25	-1.05	-0.235	-20.6837838	36.5547204	15.9282324	83.75500044	0.88235532	-4.27999626
2.49	249	-0.132	-1.019	-0.221	-25.8404058	35.1796212	22.1161788	83.49716934	0.69327918	-3.91330314
2.5	250	-0.011	-0.992	-0.203	-25.6112226	33.5753388	21.0275586	83.22787908	0.5156622	-3.55806918
2.51	251	0.105	-0.967	-0.199	-24.0069402	32.4294228	14.5531332	82.98150714	0.39534102	-3.22575354
2.52	252	0.205	-0.916	-0.179	-20.626488	28.8197874	6.1879464	82.76951268	0.36096354	-2.93927454
2.53	253	0.271	-0.839	-0.125	-15.756345	21.485925	-2.1199446	82.60908444	0.4010706	-2.73300966
2.54	254	0.291	-0.752	-0.083	-10.4851314	12.7196676	-10.313244	82.50022242	0.5156622	-2.61841806
2.55	255	0.25	-0.719	-0.071	-7.734933	4.010706	-17.1314442	82.42573788	0.72192708	-2.61268848
2.56	256	0.186	-0.744	-0.071	-8.5370742	-2.578311	-20.7983754	82.3340646	0.92246238	-2.6642547
2.57	257	0.124	-0.8	-0.08	-10.7716104	-5.9587632	-21.772404	82.22520258	1.13445684	-2.75592798
2.58	258	0.064	-0.862	-0.102	-12.7196676	-8.8235532	-21.199446	82.09342224	1.32926256	-2.87051958
2.59	259	0.013	-0.91	-0.109	-13.5218088	-11.5737516	-19.4232762	81.95591232	1.50687954	-3.01375908
2.6	260	-0.012	-0.93	-0.09	-14.1520626	-13.2353298	-17.5898106	81.81267282	1.6615782	-3.16845774
2.61	261	-0.022	-0.929	-0.088	-15.0687954	-13.5791046	-16.042824	81.65797416	1.79908812	-3.3231564
2.62	262	-0.009	-0.91	-0.078	-16.2720072	-12.7769634	-15.9282324	81.48608676	1.94232762	-3.47785506
2.63	263	0.016	-0.89	-0.067	-18.7357266	-10.886202	-17.18874	81.29128104	2.09702628	-3.6096354
2.64	264	0.055	-0.882	-0.057	-20.2827132	-7.2192708	-19.0795014	81.08501616	2.26891368	-3.71276784
2.65	265	0.08	-0.888	-0.046	-22.1161788	-3.3231564	-21.3713334	80.86729212	2.48663772	-3.7815228
2.66	266	0.092	-0.896	-0.038	-23.777757	-0.0572958	-22.9756158	80.62092018	2.70436176	-3.82162986
2.67	267	0.092	-0.91	-0.076	-24.4653066	2.578311	-23.6631654	80.37454824	2.93927454	-3.8388186
2.68	268	0.099	-0.935	-0.039	-23.8923486	6.4171296	-23.8350528	80.1281763	3.1799169	-3.81590028
2.69	269	0.096	-0.953	0.01	-26.069589	4.010706	-22.4026578	79.86461562	3.40337052	-3.81590028
2.7	270	0.132	-0.936	-0.06	-28.361421	1.9480572	-18.9649098	79.58959578	3.6096354	-3.8388186
2.71	271	0.158	-0.936	-0.101	-26.642547	-5.6722842	-14.610429	79.30884636	3.74141574	-3.9247623
2.72	272	0.166	-0.978	-0.122	-24.1788276	-15.8709366	-11.8029348	79.05674484	3.82735944	-4.10237928
2.73	273	0.161	-1.039	-0.08	-22.1161788	-24.923673	-11.6310474	78.81610248	3.8961144	-4.37166954
2.74	274	0.168	-1.089	-0.013	-23.204799	-30.9970278	-13.9228794	78.56400096	3.9820581	-4.70398518
2.75	275	0.195	-1.094	-0.03	-26.0122932	-34.2055926	-17.3033316	78.28898112	4.0966497	-5.07640788
2.76	276	0.228	-1.085	-0.081	-26.4706596	-35.6379876	-20.2827132	77.99677254	4.23415962	-5.46601932
2.77	277	0.252	-1.098	-0.093	-26.0122932	-38.7319608	-21.6005166	77.70456396	4.36593996	-5.89000824
2.78	278	0.259	-1.115	-0.084	-25.8404058	-43.6021038	-21.3140376	77.41235538	4.49199072	-6.36556338
2.79	279	0.26	-1.117	-0.045	-26.2987722	-49.3316838	-19.4232762	77.10868764	4.583664	-6.89268474
2.8	280	0.251	-1.1	-0.019	-27.9030546	-55.1185596	-16.8449652	76.79929032	4.64668938	-7.47137232
2.81	281	0.229	-1.074	-0.033	-27.6165756	-58.9573782	-14.4958374	76.47843384	4.66387812	-8.0787078
2.82	282	0.193	-1.064	-0.021	-25.6112226	-62.1086472	-12.1467096	76.1747661	4.65241896	-8.7089616
2.83	283	0.163	-1.061	0.024	-23.8923486	-65.8328742	-10.5424272	75.88255752	4.6123119	-9.37359288
2.84	284	0.152	-1.041	0.09	-20.626488	-70.1300592	-9.167328	75.630456	4.54928652	-10.07833122
2.85	285	0.179	-1.004	0.158	-16.2720072	-74.6564274	-7.6203414	75.44710944	4.4690724	-10.82317662
2.86	286	0.229	-0.951	0.163	-11.172681	-80.9016696	-4.6409598	75.28095162	4.33156248	-11.61958824
2.87	287	0.26	-0.931	0.148	-6.8182002	-93.2775624	0.4010706	75.15490086	4.11383844	-12.5191323
2.88	288	0.25	-0.922	0.154	-5.2712136	-108.5182452	5.3285094	75.04603884	3.81590028	-13.5504567
2.89	289	0.224	-0.93	0.179	-5.0420304	-118.315827	8.880849	74.9429064	3.46066632	-14.6677248
2.9	290	0.196	-0.939	0.214	-7.9641162	-122.1546456	10.599723	74.83404438	3.08251404	-15.82509996
2.91	291	0.158	-0.919	0.232	-10.3705398	-122.3838288	10.8289062	74.69080488	2.6929026	-16.97101596
2.92	292	0.113	-0.872	0.206	-12.2040054	-118.2012354	9.3965112	74.53037664	2.3204799	-18.08255448
2.93	293	0.069	-0.796	0.193	-14.7250206	-110.867373	6.9327918	74.35848924	1.98816426	-19.13106762
2.94	294	0.023	-0.682	0.203	-16.329303	-103.5908064	4.9274388	74.17514268	1.6902261	-20.11655538
2.95	295	-0.016	-0.58	0.197	-15.0687954	-94.4234784	3.0939732	74.0261736	1.42666542	-21.01036986
2.96	296	-0.05	-0.494	0.149	-13.0634424	-86.6312496	2.9220858	73.88866368	1.18029348	-21.83542938
2.97	297	-0.075	-0.42	0.089	-12.2040054	-80.8443738	4.1252976	73.76261292	0.93965112	-22.59746352
2.98	298	-0.079	-0.35	0.05	-10.7716104	-76.4325972	6.016059	73.64802132	0.6875496	-23.31366102
2.99	299	-0.057	-0.294	0.036	-9.9694692	-73.052145	8.59437	73.55061846	0.41825934	-23.98975146
3	300	-0.024	-0.25	0.068	-8.59437	-73.8542862	12.4904844	73.4818635	0.1145916	-24.66011232
3.01	301	0.012	-0.222	0.162	-6.9327918	-76.5471888	16.902261	73.4245677	-0.24064236	-25.34766192
3.02	302	0.051	-0.215	0.246	-6.7609044	-78.7244292	20.626488	73.37300148	-0.64171296	-26.0409411
3.03	303	0.079	-0.218	0.251	-10.313244	-78.1514712	23.8923486	73.28705778	-1.07143146	-26.71703154
3.04	304	0.087	-0.248	0.223	-16.5584862	-70.9894962	23.8923486	73.14381828	-1.48396122	-27.3300966
3.05	305	0.074	-0.304	0.189	-25.3247436	-60.16059	21.4286292	72.92609424	-1.83919518	-27.8457588
3.06	306	0.034	-0.372	0.135	-32.945085	-49.560867	18.621135	72.61096734	-2.15432208	-28.26974772
3.07	307	-0.021	-0.432	0.077	-38.1590028	-40.0497642	18.7930224	72.24427422	-2.44653066	-28.59633378
3.08	308	-0.061	-0.453	0.008	-43.3156248	-32.2575354	22.7464326	71.8202853	-2.75592798	-28.83697614
3.09	309	-0.064	-0.418	-0.088	-48.4722468	-26.356068	29.6792244	71.33900058	-3.11689152	-28.99740438
3.1	310	-0.058	-0.316	-0.188	-51.9672906	-20.5118964	37.3568616	70.81187922	-3.53515086	-29.0776185
3.11	311	-0.051	-0.184	-0.168	-55.1185596	-13.9801752	44.7480198	70.25610996	-4.00497642	-29.06615934
3.12	312	-0.047	-0.055	-0.125	-56.0925882	-13.178034	45.7793442	69.68315196	-4.48053156	-29.03751144
3.13	313	-0.04	0.002	-0.078	-55.0612638	-16.9595568	42.685371	69.13311228	-4.93889796	-29.05470018
3.14	314	-0.037	-0.027	-0.021	-57.582279	-23.0902074	37.8725238	68.56015428	-5.37434604	-29.14064388
3.15	315	-0.046	-0.11	-0.004	-61.020027	-25.0382646	32.3148312	67.95854838	-5.76968706	-29.25523548
3.16	316	-0.092	-0.213	-0.036	-62.5670136	-15.8136408	27.5592798	67.32829458	-6.08481396	-29.3068017
3.17	317	-0.139	-0.292	-0.142	-70.9894962	3.8388186	23.777757	66.59490834	-6.29680842	-29.18075094
3.18	318	-0.198	-0.256	-0.363	-82.6778394	23.0902074	22.5172494	65.7182826	-6.42858876	-28.88854236
3.19	319	-0.261	-0.116	-0.567	-84.6831924	33.9191136	24.4653066	64.81300896	-6.52599162	-28.48174218
3.2	320	-0.358	-0.037	-0.699	-77.8076964	26.7571386	29.3354496	63.93638322	-6.71506776	-28.1035899
3.21	321	-0.42	-0.016	-0.628	-65.317212	19.9962342	33.6899304	63.23164488	-6.94425096	-27.77700384
3.22	322	-0.419	-0.142	-0.422	-58.441716	19.8816426	33.1169724	62.5956615	-7.15624542	-27.45614736
3.23	323	-0.406	-0.359	-0.472	-74.198061	28.5906042	26.1268848	61.7935203	-7.27083702	-27.08372466
3.24	324	-0.454	-0.642	-0.423	-89.7825186	47.7274014	16.2720072	60.81376212	-7.21354122	-26.5852512
3.25	325	-0.502	-1.017	-0.279	-114.0759378	72.192708	8.8235532	59.57044326	-6.97289886	-25.91489034
3.26	326	-0.765	-1.545	-0.298	-141.4060344	97.0590852	7.161975	58.01772708	-6.58328742	-25.04399418
3.27	327	-1.056	-2.1	-0.242	-143.5832748	122.6703078	11.2299768	56.42490384	-6.06762522	-23.9496444
3.28	328	-1.24	-2.378	-0.107	-128.342592	125.0767314	10.5424272	54.99250884	-5.5003968	-22.84956504
3.29	329	-1.222	-2.32	0.125	-105.99723	136.3067082	0.8021412	53.8007562	-4.76701056	-21.73229694
3.3	330	-1.026	-1.997	0.311	-82.9643184	154.0111104	-5.9587632	52.84964592	-3.85600734	-20.51762598
3.31	331	-0.785	-1.576	0.448	-60.8481396	176.471064	-6.8182002	52.12771884	-2.79030546	-19.14825636
3.32	332	-0.526	-1.278	0.632	-45.4928652	194.3473536	-12.318597	51.58340874	-1.55271618	-17.68148388
3.33	333	-0.392	-1.065	0.692	-44.690724	191.94093	-28.6479	51.08493528	-0.19480572	-16.34649174
3.34	334	-0.249	-0.722	0.637	-68.0674104	186.784308	-42.112413	50.38019694	1.24331886	-15.14900952
3.35	335	-0.065	-0.336	0.501	-102.0438198	192.6284796	-56.9520252	49.37179086	2.85333084	-14.02601184
3.36	336	0.06	-0.079	0.385	-133.499214	193.2014376	-71.1613836	48.05398746	4.583664	-13.02333534
3.37	337	0.21	0.175	0.059	-174.6375984	179.1066708	-80.2714158	46.32938388	6.31399716	-12.2326533
3.38	338	0.396	0.376	-0.323	-225.0006066	160.6001274	-82.6778394	44.09484768	7.95265704	-11.65396572
3.39	339	0.711	0.556	-0.763	-264.8211876	143.5832748	-77.1774426	41.4535113	9.453807	-11.21851764
3.4	340	1.113	0.241	-1.231	-302.4072324	112.4143596	-63.1972674	38.41110432	10.65128922	-10.96068654
3.41	341	1.671	-0.203	-2.102	-364.401288	59.874111	-60.2178858	34.68114774	11.41905294	-11.07527814
3.42	342	1.96	-0.037	-2.588	-383.308902	-3.437748	-60.6189564	30.6819009	11.6596953	-11.60812908
3.43	343	1.341	0.21	-2.85	-369.0995436	-57.009321	-61.2492102	26.78005692	11.41905294	-12.4331886
3.44	344	-0.34	0.526	-3.028	-364.5731754	-59.9314068	-64.8015498	22.91832	11.10965562	-13.2926256
3.45	345	-0.536	0.462	-3.42	-333.9199224	-68.6976642	-80.3860074	19.34879166	10.72577376	-14.30103168
3.46	346	-0.929	0.672	-3.996	-276.9678972	-37.9298196	-113.0446134	16.31784384	10.67993712	-15.50997306
3.47	347	0.186	0.374	-3.996	-214.286292	19.0222056	-116.2531782	13.93433856	11.13257394	-16.57567494
3.48	348	0.721	0.143	-3.996	-177.7315716	-19.5378678	-68.6976642	11.99201094	11.08100772	-17.29187244
3.49	349	0.751	0.545	-3.903	-178.0180506	38.5600734	-43.258329	10.1127087	11.5164558	-17.62991766
3.5	350	0.799	1.042	-3.821	-167.7048066	64.2285918	-34.5493674	8.35945722	12.1753575	-17.84191212
3.51	351	0.866	1.123	-3.288	-117.9720522	73.7969904	-39.7059894	7.09322004	12.93166206	-18.11693196
3.52	352	0.917	1.052	-2.399	-92.4754212	63.9994086	-54.5456016	6.03897732	13.6077525	-18.56956878
3.53	353	0.931	0.848	-1.659	-76.3753014	59.4730404	-63.02538	5.12224452	14.24373588	-19.13106762
3.54	354	0.816	0.498	-1.146	-57.6968706	63.4837464	-62.3951262	4.3831287	14.91409674	-19.69256646
3.55	355	0.704	0.159	-0.819	-47.6701056	70.1300592	-61.4783934	3.74141574	15.6704013	-20.2540653
3.56	356	0.787	-0.101	-0.753	-43.544808	59.9887026	-52.6548402	3.15699858	16.28919594	-20.7410796
3.57	357	0.792	-0.042	-0.76	-37.1276784	38.3308902	-39.3622146	2.6642547	16.68453696	-21.1135023
3.58	358	0.843	0.154	-0.75	-25.210152	24.7517856	-27.9030546	2.32620948	16.93663848	-21.38279256
3.59	359	0.861	0.363	-0.734	-37.2995658	10.026765	-14.8396122	1.90795014	17.03977092	-21.52603206
3.6	360	0.608	0.465	-0.684	-49.2170922	10.1413566	-5.2139178	1.3178034	17.17155126	-21.6005166
3.61	361	0.224	0.471	-0.571	-47.6701056	16.902261	0.5156622	0.83651868	17.3319795	-21.58332786
3.62	362	-0.065	0.355	-0.542	-39.1903272	21.3140376	1.5469866	0.44690724	17.53824438	-21.55467996
3.63	363	-0.149	0.271	-0.555	-31.7418732	19.6524594	-5.5003968	0.10313244	17.72732052	-21.6005166
3.64	364	-0.062	0.211	-0.604	-22.4599536	16.2147114	-11.9748222	-0.15469866	17.88774876	-21.72083778
3.65	365	0.019	0.162	-0.661	-12.4331886	13.6936962	-15.5271618	-0.36096354	17.9908812	-21.88126602
3.66	366	0.123	0.162	-0.715	-3.6096354	9.0527364	-13.8082878	-0.44117766	18.08255448	-22.02450552
3.67	367	0.254	0.2	-0.743	-0.286479	-2.2345362	-9.6829902	-0.47555514	18.05963616	-22.12190838
3.68	368	0.294	0.26	-0.717	2.4064236	-11.1153852	-5.2139178	-0.46982556	17.95077414	-22.17920418
3.69	369	0.339	0.28	-0.728	6.7609044	-20.912967	-1.9480572	-0.4010706	17.74450926	-22.20785208
3.7	370	0.368	0.29	-0.755	7.5057498	-33.1742682	0.4010706	-0.38388186	17.43511194	-22.2307704
3.71	371	0.351	0.295	-0.819	9.740286	-46.7533728	3.0366774	-0.26929026	16.97674554	-22.20785208
3.72	372	0.277	0.288	-0.862	16.8449652	-54.0872352	5.5003968	-0.08021412	16.4438946	-22.16774502
3.73	373	0.194	0.226	-0.854	20.2254174	-55.6915176	6.9327918	0.1432395	15.89385492	-22.1161788
3.74	374	0.133	0.18	-0.886	20.340009	-57.009321	8.0787078	0.3724227	15.33235608	-22.05315342
3.75	375	0.121	0.135	-0.962	25.4393352	-56.7801378	10.8289062	0.64744254	14.75939808	-21.96148014
3.76	376	0.115	0.101	-1.039	29.9657034	-54.2591226	14.5531332	0.99121734	14.22081756	-21.84115896
3.77	377	0.111	0.077	-1.09	32.372127	-51.1078536	17.8189938	1.36364004	13.71661452	-21.6864603
3.78	378	0.144	0.044	-1.109	29.507337	-48.3003594	20.912967	1.71314442	13.2353298	-21.49738416
3.79	379	0.17	0.018	-1.164	26.1268848	-44.8053156	23.0902074	2.0340009	12.78842256	-21.29111928
3.8	380	0.216	-0.031	-1.193	21.8869956	-39.7059894	23.491278	2.30329116	12.38735196	-21.0848544
3.81	381	0.259	-0.083	-1.191	17.5325148	-36.5547204	22.4026578	2.53247436	12.02065884	-20.8843191
3.82	382	0.236	-0.15	-1.18	11.3445684	-31.3980984	19.4232762	2.68717302	11.69980236	-20.70670212
3.83	383	0.183	-0.175	-1.158	1.2032118	-18.048177	14.610429	2.72728008	11.5164558	-20.57492178
3.84	384	0.136	-0.159	-1.16	-6.7609044	-3.8961144	10.5424272	2.68144344	11.47061916	-20.47178934
3.85	385	0.085	-0.12	-1.146	-11.5164558	8.7662574	7.2765666	2.58404058	11.52218538	-20.38011606
3.86	386	0.047	-0.078	-1.079	-14.1520626	15.0114996	5.2712136	2.45226024	11.66542488	-20.31709068
3.87	387	0.017	-0.047	-0.98	-10.886202	15.5844576	4.6409598	2.3491278	11.81439396	-20.2540653
3.88	388	0.033	-0.038	-0.87	-4.8128472	13.1207382	3.6669312	2.30902074	11.94044472	-20.20822866
3.89	389	0.081	-0.043	-0.791	0.286479	10.7143146	2.7501984	2.3204799	12.04930674	-20.17385118
3.9	390	0.158	-0.057	-0.745	6.9327918	8.7089616	2.2345362	2.39496444	12.13525044	-20.14520328
3.91	391	0.223	-0.091	-0.737	13.8082878	4.8128472	0.6302538	2.53820394	12.18108708	-20.13374412
3.92	392	0.231	-0.141	-0.765	11.6883432	3.6669312	-0.7448454	2.65852512	12.22119414	-20.1394737
3.93	393	0.267	-0.162	-0.806	6.4744254	0.9167328	-2.1772404	2.71582092	12.2326533	-20.16239202
3.94	394	0.262	-0.139	-0.844	1.432395	-2.8074942	-2.578311	2.72728008	12.2040054	-20.19103992
3.95	395	0.24	-0.121	-0.886	-2.3491278	-5.2712136	-2.1772404	2.73300966	12.16962792	-20.21395824
3.96	396	0.237	-0.109	-0.935	-5.72958	-5.9014674	-0.286479	2.67571386	12.10660254	-20.21968782
3.97	397	0.226	-0.098	-0.986	-7.6776372	-6.4171296	2.2345362	2.60122932	12.04357716	-20.20249908
3.98	398	0.222	-0.082	-1.04	-8.1360036	-7.161975	4.9847346	2.53247436	11.96909262	-20.15666244
3.99	399	0.205	-0.066	-1.074	-6.9327918	-7.734933	8.021412	2.47517856	11.8888785	-20.0821779
4	400	0.209	-0.056	-1.085	-5.0993262	-7.2765666	10.599723	2.44080108	11.8029348	-19.97904546
4.01	401	0.204	-0.049	-1.085	-3.3231564	-6.6463128	12.7196676	2.4350715	11.72845026	-19.8529947
4.02	402	0.191	-0.05	-1.066	-1.6042824	-5.9587632	14.1520626	2.44653066	11.66542488	-19.71548478
4.03	403	0.181	-0.06	-1.024	0.3437748	-4.4117766	14.7823164	2.48090814	11.61385866	-19.5665157
4.04	404	0.173	-0.077	-0.982	2.291832	-2.3491278	14.2666542	2.53247436	11.58521076	-19.4232762
4.05	405	0.17	-0.098	-0.963	3.2658606	-0.1145916	12.9488508	2.61841806	11.55656286	-19.28576628
4.06	406	0.167	-0.125	-0.943	3.5523396	1.5469866	11.2872726	2.67571386	11.56802202	-19.17117468
4.07	407	0.162	-0.138	-0.929	4.010706	2.0626488	9.3965112	2.73873924	11.57948118	-19.07377182
4.08	408	0.153	-0.149	-0.917	4.6982556	2.578311	7.8495246	2.80176462	11.6023995	-18.9935577
4.09	409	0.147	-0.156	-0.906	5.0420304	3.8388186	6.2452422	2.86479	11.63677698	-18.92480274
4.1	410	0.149	-0.163	-0.908	4.6409598	6.0733548	4.6982556	2.9793816	11.66542488	-18.85604778
4.11	411	0.153	-0.163	-0.935	3.3231564	9.5683986	3.0939732	3.01948866	11.76282774	-18.81594072
4.12	412	0.169	-0.15	-0.944	1.3178034	12.9488508	1.6042824	3.0366774	11.8888785	-18.7930224
4.13	413	0.185	-0.136	-0.951	-0.6302538	15.8136408	0.4010706	3.03094782	12.04357716	-18.77583366
4.14	414	0.217	-0.116	-0.965	-2.0626488	18.2773602	-0.6302538	3.0080295	12.22119414	-18.7643745
4.15	415	0.239	-0.095	-0.974	-3.151269	19.5378678	-1.5469866	2.9793816	12.42745902	-18.7643745
4.16	416	0.251	-0.078	-0.981	-4.010706	18.621135	-1.6042824	2.93354496	12.61080558	-18.77010408
4.17	417	0.249	-0.067	-0.998	-4.9274388	16.2720072	-1.145916	2.88197874	12.77123382	-18.7643745
4.18	418	0.231	-0.057	-0.998	-5.2139178	11.9175264	-0.1718874	2.83041252	12.88582542	-18.75864492
4.19	419	0.206	-0.052	-0.981	-5.0420304	5.6149884	1.2032118	2.7788463	12.94312122	-18.74145618
4.2	420	0.18	-0.046	-0.968	-4.7555514	0.3437748	2.7501984	2.71009134	12.88009584	-18.70134912
4.21	421	0.176	-0.035	-0.947	-3.5523396	-0.1718874	3.0366774	2.68144344	12.87436626	-18.67270122
4.22	422	0.203	-0.033	-0.984	-2.578311	2.9793816	1.8334656	2.65852512	12.90301416	-18.6497829
4.23	423	0.2	-0.045	-1	-1.7761698	-1.0886202	1.432395	2.64706596	12.891555	-18.63832374
4.24	424	0.199	-0.055	-0.958	-0.5156622	-6.4171296	1.6615782	2.64133638	12.82280004	-18.62686458
4.25	425	0.202	-0.051	-0.946	0.2291832	-6.9327918	1.5469866	2.62987722	12.73685634	-18.61540542
4.26	426	0.2	-0.034	-0.942	1.2605076	-7.6776372	1.2605076	2.64133638	12.65664222	-18.60394626
4.27	427	0.2	-0.025	-0.93	2.5210152	-7.6203414	0.8021412	2.66998428	12.58215768	-18.60394626
4.28	428	0.204	-0.029	-0.929	2.6356068	-5.8441716	-0.0572958	2.69863218	12.52486188	-18.60967584
4.29	429	0.208	-0.035	-0.927	2.291832	-3.8388186	-0.9167328	2.7215505	12.48475482	-18.621135
4.3	430	0.214	-0.051	-0.918	2.1199446	-2.1772404	-1.4896908	2.72728008	12.47329566	-18.64405332
4.31	431	0.219	-0.067	-0.914	1.2605076	-0.6875496	-1.8334656	2.73873924	12.46756608	-18.66124206
4.32	432	0.231	-0.086	-0.931	-0.1718874	-0.1145916	-1.6042824	2.73300966	12.4618365	-18.6784308
4.33	433	0.233	-0.099	-0.933	-1.6615782	-0.5156622	-1.145916	2.71009134	12.4618365	-18.68988996
4.34	434	0.242	-0.099	-0.922	-2.9793816	-0.0572958	-1.2605076	2.68144344	12.45610692	-18.70134912
4.35	435	0.246	-0.096	-0.936	-3.724227	0.1145916	-1.6615782	2.68144344	12.50194356	-18.71853786
4.36	436	0.237	-0.09	-0.95	-4.7555514	-1.2605076	-1.718874	2.62987722	12.4904844	-18.7357266
4.37	437	0.232	-0.081	-0.962	-6.0733548	-3.0939732	-1.718874	2.56685184	12.45610692	-18.75864492
4.38	438	0.223	-0.079	-0.969	-6.5317212	-4.583664	-1.8334656	2.4923673	12.41027028	-18.78156324
4.39	439	0.207	-0.086	-0.97	-7.1046792	-5.5003968	-2.005353	2.41788276	12.35870406	-18.80448156
4.4	440	0.199	-0.088	-0.978	-7.5057498	-5.2712136	-2.2345362	2.3491278	12.2899491	-18.8216703
4.41	441	0.197	-0.083	-0.986	-7.5057498	-5.2139178	-2.6356068	2.26891368	12.23838288	-18.85604778
4.42	442	0.198	-0.073	-0.991	-7.161975	-4.9847346	-3.2085648	2.18869956	12.19254624	-18.89042526
4.43	443	0.198	-0.062	-1.001	-7.2192708	-4.583664	-3.3231564	2.10848544	12.1467096	-18.92480274
4.44	444	0.195	-0.048	-1.008	-7.0473834	-4.4690724	-2.8074942	2.02827132	12.10087296	-18.95918022
4.45	445	0.192	-0.035	-1.013	-6.7036086	-4.297185	-1.9480572	1.94232762	12.032118	-18.97636896
4.46	446	0.186	-0.03	-1.012	-5.8441716	-4.4117766	-0.6875496	1.87930224	11.99201094	-18.98782812
4.47	447	0.181	-0.033	-1.006	-5.0420304	-4.8128472	0.3437748	1.82773602	11.94044472	-18.98782812
4.48	448	0.174	-0.037	-0.994	-4.1825934	-5.0420304	0.9167328	1.78762896	11.8888785	-18.97636896
4.49	449	0.17	-0.04	-0.986	-3.437748	-4.9274388	1.0313244	1.75898106	11.84304186	-18.97063938
4.5	450	0.164	-0.042	-0.978	-2.86479	-4.583664	0.9167328	1.718874	11.73417984	-18.95345064
4.51	451	0.158	-0.043	-0.971	-2.5210152	-4.1252976	0.6875496	1.69595568	11.69407278	-18.94772106
4.52	452	0.156	-0.046	-0.965	-2.1772404	-3.2658606	0.4010706	1.67303736	11.6596953	-18.94772106
4.53	453	0.156	-0.048	-0.959	-1.8334656	-2.1772404	0.0572958	1.65584862	11.63677698	-18.94772106
4.54	454	0.159	-0.05	-0.957	-1.6615782	-0.859437	-0.0572958	1.63865988	11.62531782	-18.94772106
4.55	455	0.164	-0.051	-0.958	-1.5469866	0.6875496	-0.1718874	1.62720072	11.5164558	-18.92480274
4.56	456	0.168	-0.054	-0.96	-1.4896908	1.718874	-0.1718874	1.61001198	11.53364454	-18.92480274
4.57	457	0.174	-0.056	-0.965	-1.6615782	2.5210152	-0.1718874	1.59282324	11.55656286	-18.92480274
4.58	458	0.179	-0.057	-0.97	-1.8907614	2.9220858	0	1.56990492	11.58521076	-18.92480274
4.59	459	0.183	-0.058	-0.975	-2.1199446	3.151269	0.0572958	1.55271618	11.61958824	-18.92480274
4.6	460	0.187	-0.058	-0.98	-2.1199446	3.3804522	0.2291832	1.5469866	11.61385866	-18.907614
4.61	461	0.189	-0.058	-0.983	-2.0626488	3.3231564	0.3437748	1.52406828	11.64823614	-18.90188442
4.62	462	0.19	-0.056	-0.985	-2.3491278	2.9793816	0.6302538	1.50114996	11.67688404	-18.89042526
4.63	463	0.191	-0.053	-0.985	-2.86479	2.6929026	0.7448454	1.47250206	11.69980236	-18.88469568
4.64	464	0.192	-0.049	-0.983	-3.0939732	2.4064236	0.859437	1.44385416	11.72272068	-18.87323652
4.65	465	0.195	-0.044	-0.984	-3.0366774	2.0626488	0.9167328	1.40947668	11.7169911	-18.85604778
4.66	466	0.199	-0.043	-0.984	-2.8074942	1.9480572	0.9740286	1.38655836	11.73990942	-18.84458862
4.67	467	0.202	-0.042	-0.982	-2.4637194	1.5469866	1.0313244	1.36364004	11.75136858	-18.83312946
4.68	468	0.203	-0.043	-0.979	-2.1772404	1.145916	1.0313244	1.34072172	11.76282774	-18.8216703
4.69	469	0.202	-0.045	-0.974	-2.005353	0.7448454	0.9740286	1.32353298	11.7742869	-18.81021114
4.7	470	0.2	-0.046	-0.969	-1.6042824	0.4583664	0.859437	1.31207382	11.745639	-18.79875198
4.71	471	0.201	-0.045	-0.966	-1.432395	0.5156622	0.7448454	1.30061466	11.745639	-18.78729282
4.72	472	0.2	-0.042	-0.962	-1.0886202	0.6302538	0.572958	1.2891555	11.75136858	-18.78156324
4.73	473	0.203	-0.04	-0.96	-0.6875496	0.7448454	0.4010706	1.28342592	11.76282774	-18.77583366
4.74	474	0.206	-0.041	-0.961	-0.3437748	1.145916	0.286479	1.28342592	11.7742869	-18.77010408
4.75	475	0.21	-0.042	-0.961	-0.0572958	1.2605076	0.1718874	1.28342592	11.79147564	-18.77010408
4.76	476	0.214	-0.044	-0.964	0	1.3178034	0.0572958	1.28342592	11.80866438	-18.77010408
4.77	477	0.217	-0.046	-0.966	0	1.0313244	0	1.28342592	11.81439396	-18.77010408
4.78	478	0.219	-0.048	-0.97	0	0.8021412	-0.1718874	1.28342592	11.82585312	-18.77010408
4.79	479	0.214	-0.049	-0.971	-0.0572958	0.4010706	-0.286479	1.28342592	11.8315827	-18.77583366
4.8	480	0.209	-0.049	-0.972	-0.1718874	0.1145916	-0.3437748	1.33499214	11.7742869	-18.75864492
4.81	481	0.205	-0.049	-0.973	-0.2291832	0	-0.3437748	1.33499214	11.7742869	-18.75864492
4.82	482	0.203	-0.047	-0.974	-0.3437748	-0.0572958	-0.4583664	1.32926256	11.7742869	-18.7643745
4.83	483	0.2	-0.043	-0.977	-0.3437748	-0.2291832	-0.4583664	1.32353298	11.76855732	-18.77010408
4.84	484	0.2	-0.043	-0.982	0.0572958	-0.4583664	-0.3437748	1.32353298	11.76282774	-18.77583366
4.85	485	0.201	-0.044	-0.982	0.4010706	-0.6875496	-0.286479	1.32926256	11.69980236	-18.77010408
4.86	486	0.202	-0.046	-0.98	0.4010706	-1.0886202	-0.1718874	1.33499214	11.6883432	-18.77010408
4.87	487	0.199	-0.049	-0.974	0.286479	-1.718874	-0.0572958	1.33499214	11.67115446	-18.77010408
4.88	488	0.196	-0.049	-0.971	0.1145916	-1.718874	-0.1145916	1.33499214	11.65396572	-18.77583366
4.89	489	0.192	-0.043	-0.97	0	-1.5469866	-0.1718874	1.33499214	11.63677698	-18.77583366
4.9	490	0.188	-0.041	-0.967	0	-1.2605076	-0.2291832	1.32353298	11.53364454	-18.7643745
4.91	491	0.185	-0.04	-0.968	-0.1718874	-0.9167328	-0.4010706	1.3178034	11.52791496	-18.77010408
4.92	492	0.184	-0.041	-0.968	-0.286479	-0.4583664	-0.4583664	1.3178034	11.52218538	-18.77583366
4.93	493	0.183	-0.044	-0.968	-0.3437748	-0.0572958	-0.4010706	1.31207382	11.52218538	-18.78156324
4.94	494	0.184	-0.05	-0.967	-0.3437748	0.2291832	-0.286479	1.30634424	11.52218538	-18.78156324
4.95	495	0.187	-0.052	-0.967	-0.7448454	0.2291832	-0.1718874	1.34072172	11.40759378	-18.75864492
4.96	496	0.19	-0.049	-0.969	-0.859437	-0.1718874	0.0572958	1.32926256	11.40759378	-18.75864492
4.97	497	0.19	-0.047	-0.968	-0.9167328	-0.572958	0.1718874	1.32353298	11.4018642	-18.75864492
4.98	498	0.186	-0.046	-0.969	-0.9167328	-0.6875496	0.1718874	1.31207382	11.39613462	-18.75291534
4.99	499	0.182	-0.045	-0.97	-0.9740286	-0.572958	0.1145916	1.30061466	11.39040504	-18.75291534
5	500	0.179	-0.045	-0.973	-0.9167328	-0.1718874	0.0572958	1.30634424	11.2013289	-18.71853786
5.01	501	0.178	-0.044	-0.977	-0.6302538	0.1718874	0	1.29488508	11.2013289	-18.71853786
5.02	502	0.178	-0.047	-0.979	-0.4010706	0.4583664	0	1.29488508	11.20705848	-18.71853786
5.03	503	0.182	-0.047	-0.979	-0.286479	0.6302538	0	1.2891555	11.21278806	-18.71853786
5.04	504	0.186	-0.046	-0.979	-0.286479	0.6302538	0.0572958	1.2891555	11.21851764	-18.71853786
5.05	505	0.189	-0.045	-0.979	-0.3437748	0.572958	0.0572958	1.2891555	11.16695142	-18.70134912
5.06	506	0.191	-0.044	-0.978	-0.3437748	0.5156622	0.1718874	1.28342592	11.172681	-18.70134912
5.07	507	0.193	-0.044	-0.976	-0.286479	0.3437748	0.1718874	1.28342592	11.172681	-18.70134912
5.08	508	0.192	-0.044	-0.97	-0.3437748	0.286479	0.1718874	1.27769634	11.17841058	-18.69561954
5.09	509	0.194	-0.044	-0.97	-0.4583664	0.4583664	0.1145916	1.27196676	11.18414016	-18.69561954
5.1	510	0.194	-0.042	-0.971	-0.572958	0.6302538	0.0572958	1.2605076	11.16122184	-18.68988996
5.11	511	0.196	-0.041	-0.97	-0.5156622	0.9167328	0	1.25477802	11.16695142	-18.68988996
5.12	512	0.195	-0.041	-0.97	-0.5156622	1.0313244	0	1.24904844	11.17841058	-18.68988996
5.13	513	0.195	-0.041	-0.972	-0.5156622	0.8021412	0.1145916	1.24331886	11.18414016	-18.68416038
5.14	514	0.196	-0.044	-0.973	-0.5156622	0.6875496	0.0572958	1.23758928	11.18986974	-18.68416038
5.15	515	0.198	-0.045	-0.974	-0.4010706	0.6875496	0	1.24331886	11.18414016	-18.6784308
5.16	516	0.2	-0.047	-0.973	-0.4010706	0.4010706	0	1.23758928	11.18986974	-18.6784308
5.17	517	0.201	-0.045	-0.972	-0.572958	0.1718874	0	1.2318597	11.18986974	-18.6784308
5.18	518	0.2	-0.045	-0.971	-0.6875496	0.0572958	0	1.22613012	11.18986974	-18.68416038
5.19	519	0.199	-0.042	-0.97	-0.7448454	0.0572958	0	1.21467096	11.18986974	-18.68416038
5.2	520	0.199	-0.042	-0.971	-0.7448454	0.1145916	0	1.2032118	11.172681	-18.6784308
5.21	521	0.198	-0.041	-0.972	-0.4583664	0.1145916	-0.0572958	1.19748222	11.172681	-18.6784308
5.22	522	0.198	-0.042	-0.972	-0.286479	0.1145916	0	1.19175264	11.17841058	-18.6784308
5.23	523	0.197	-0.044	-0.972	-0.286479	0.1145916	0	1.19175264	11.17841058	-18.6784308
5.24	524	0.196	-0.044	-0.972	-0.2291832	0	0	1.18602306	11.17841058	-18.6784308
5.25	525	0.196	-0.043	-0.971	-0.1145916	-0.1145916	0.0572958	1.2032118	11.13257394	-18.66697164
5.26	526	0.197	-0.042	-0.969	0	-0.1145916	0.2291832	1.20894138	11.12684436	-18.66697164
5.27	527	0.194	-0.042	-0.97	0.1145916	-0.1718874	0.1145916	1.20894138	11.12684436	-18.66697164
5.28	528	0.191	-0.043	-0.971	0.1718874	-0.2291832	0	1.20894138	11.12111478	-18.66697164
5.29	529	0.188	-0.044	-0.97	0.1718874	-0.1718874	-0.0572958	1.21467096	11.12111478	-18.66697164
5.3	530	0.188	-0.044	-0.97	0.1718874	-0.0572958	0	1.23758928	11.0007936	-18.64405332
5.31	531	0.188	-0.043	-0.972	0.1145916	0.0572958	0	1.23758928	11.00652318	-18.64405332
5.32	532	0.191	-0.044	-0.974	0.1145916	0	0	1.24331886	11.00652318	-18.64405332
5.33	533	0.192	-0.044	-0.974	0.1718874	-0.0572958	0.0572958	1.24331886	11.00652318	-18.64405332
5.34	534	0.191	-0.044	-0.973	0.0572958	-0.286479	0.1718874	1.24331886	11.0007936	-18.63832374
5.35	535	0.189	-0.045	-0.973	0	-0.4010706	0.2291832	1.25477802	10.94922738	-18.62686458
5.36	536	0.189	-0.044	-0.971	-0.2291832	-0.4010706	0.1718874	1.25477802	10.94922738	-18.62686458
5.37	537	0.188	-0.045	-0.971	-0.3437748	-0.4583664	0.1718874	1.24904844	10.9434978	-18.62686458
5.38	538	0.187	-0.042	-0.971	-0.286479	-0.3437748	0.1145916	1.24904844	10.93776822	-18.621135
5.39	539	0.186	-0.042	-0.974	0	-0.1718874	0.0572958	1.24904844	10.93776822	-18.621135
5.4	540	0.187	-0.042	-0.976	0.4583664	0.0572958	0	1.24904844	10.88047242	-18.61540542
5.41	541	0.19	-0.043	-0.976	0.572958	0.1718874	0	1.25477802	10.88047242	-18.61540542
5.42	542	0.192	-0.047	-0.974	0.6302538	0.1145916	0	1.26623718	10.886202	-18.61540542
5.43	543	0.191	-0.047	-0.973	0.4010706	0.1145916	0.0572958	1.26623718	10.886202	-18.60967584
5.44	544	0.191	-0.044	-0.973	0.1718874	0.0572958	0	1.27196676	10.886202	-18.60967584
5.45	545	0.191	-0.043	-0.972	0.1145916	0.0572958	0.1145916	1.2891555	10.84609494	-18.60394626
5.46	546	0.193	-0.045	-0.972	0	0.0572958	0.0572958	1.2891555	10.84609494	-18.59821668
5.47	547	0.194	-0.045	-0.972	-0.1718874	-0.0572958	0	1.28342592	10.84609494	-18.59821668
5.48	548	0.192	-0.048	-0.969	-0.1718874	0	0	1.28342592	10.84609494	-18.59821668
5.49	549	0.19	-0.049	-0.964	-0.5156622	0.1145916	-0.1145916	1.27769634	10.84609494	-18.60394626
5.5	550	0.188	-0.047	-0.964	-1.0313244	0.286479	-0.0572958	1.27196676	10.83463578	-18.59821668
5.51	551	0.19	-0.043	-0.968	-1.145916	0.2291832	0	1.2605076	10.83463578	-18.59821668
5.52	552	0.191	-0.04	-0.968	-0.9167328	0	0.1145916	1.24904844	10.83463578	-18.59821668
5.53	553	0.191	-0.04	-0.969	-0.6302538	0	0.1145916	1.24331886	10.83463578	-18.59821668
5.54	554	0.191	-0.04	-0.971	-0.572958	0.0572958	0.0572958	1.23758928	10.84036536	-18.5924871
5.55	555	0.191	-0.04	-0.974	-0.5156622	0.1145916	0.0572958	1.22040054	10.80598788	-18.5924871
5.56	556	0.191	-0.041	-0.976	-0.3437748	0.1145916	0.0572958	1.22040054	10.80598788	-18.5924871
5.57	557	0.191	-0.043	-0.978	-0.1145916	0	0	1.21467096	10.80598788	-18.58675752
5.58	558	0.191	-0.042	-0.975	0	-0.2291832	0	1.21467096	10.80598788	-18.58675752
5.59	559	0.191	-0.042	-0.976	-0.1145916	-0.1145916	0	1.21467096	10.80598788	-18.58675752
5.6	560	0.19	-0.042	-0.975	-0.1718874	0	0	1.20894138	10.74869208	-18.58102794
5.61	561	0.19	-0.041	-0.976	-0.2291832	0	0	1.2032118	10.74869208	-18.58102794
5.62	562	0.189	-0.041	-0.974	-0.2291832	0	0	1.2032118	10.74869208	-18.58102794
5.63	563	0.189	-0.041	-0.974	-0.1718874	0.0572958	0	1.19748222	10.74869208	-18.58102794
5.64	564	0.192	-0.042	-0.973	-0.1718874	0.0572958	-0.0572958	1.19748222	10.74869208	-18.58102794
5.65	565	0.193	-0.042	-0.975	-0.1718874	0.2291832	0	1.19175264	10.74869208	-18.58102794
5.66	566	0.193	-0.041	-0.974	-0.1718874	0.1718874	0	1.19175264	10.75442166	-18.58102794
5.67	567	0.191	-0.042	-0.974	-0.2291832	0	0.0572958	1.18602306	10.74869208	-18.58102794
5.68	568	0.187	-0.041	-0.974	-0.3437748	-0.0572958	0.0572958	1.18602306	10.74869208	-18.58102794
5.69	569	0.185	-0.041	-0.973	-0.3437748	0	-0.0572958	1.18029348	10.74869208	-18.58102794
5.7	570	0.185	-0.043	-0.974	-0.2291832	0.286479	-0.1718874	1.18029348	10.72004418	-18.58102794
5.71	571	0.187	-0.044	-0.972	0	0.286479	-0.4010706	1.18029348	10.72004418	-18.58102794
5.72	572	0.189	-0.044	-0.971	0	0.1718874	-0.2291832	1.18029348	10.72577376	-18.58675752
5.73	573	0.191	-0.042	-0.971	0	0.2291832	-0.1718874	1.18029348	10.72577376	-18.58675752
5.74	574	0.192	-0.04	-0.97	-0.1145916	0.1145916	-0.1718874	1.1745639	10.72577376	-18.5924871
5.75	575	0.195	-0.042	-0.971	-0.0572958	0.1145916	0	1.16883432	10.7716104	-18.59821668
5.76	576	0.194	-0.043	-0.973	0.1145916	0	-0.0572958	1.1745639	10.7716104	-18.59821668
5.77	577	0.192	-0.044	-0.973	0.1145916	0	0	1.1745639	10.7716104	-18.59821668
5.78	578	0.19	-0.044	-0.973	0.1145916	-0.0572958	0	1.1745639	10.7716104	-18.59821668
5.79	579	0.189	-0.043	-0.973	0.1145916	-0.1145916	0	1.1745639	10.7716104	-18.59821668
5.8	580	0.188	-0.043	-0.973	0.1145916	-0.0572958	0	1.18602306	10.72577376	-18.5924871
5.81	581	0.187	-0.041	-0.972	0.1718874	0	-0.0572958	1.19175264	10.72577376	-18.5924871
5.82	582	0.187	-0.041	-0.971	0.286479	0.1145916	0	1.19175264	10.72577376	-18.5924871
5.83	583	0.187	-0.041	-0.972	0.286479	0.2291832	0	1.19748222	10.73150334	-18.5924871
5.84	584	0.188	-0.041	-0.975	0.4583664	0.286479	0	1.2032118	10.73150334	-18.5924871
5.85	585	0.19	-0.042	-0.976	0.5156622	0.1718874	0.0572958	1.20894138	10.72577376	-18.58675752
5.86	586	0.191	-0.042	-0.976	0.5156622	0.1145916	0.1145916	1.21467096	10.72577376	-18.58675752
5.87	587	0.191	-0.043	-0.976	0.4583664	0	0.1145916	1.22040054	10.72577376	-18.58675752
5.88	588	0.189	-0.043	-0.975	0.4583664	-0.0572958	0.1145916	1.22613012	10.72577376	-18.58675752
5.89	589	0.187	-0.042	-0.973	0.4583664	0	0.0572958	1.2318597	10.72577376	-18.58675752
5.9	590	0.187	-0.041	-0.972	0.3437748	0	0	1.2318597	10.69139628	-18.58102794
5.91	591	0.186	-0.039	-0.971	0.3437748	0.2291832	0	1.23758928	10.69139628	-18.58102794
5.92	592	0.187	-0.039	-0.972	0.1145916	0.3437748	-0.0572958	1.23758928	10.69712586	-18.58102794
5.93	593	0.187	-0.039	-0.971	0.1718874	0.4010706	0	1.24331886	10.70285544	-18.58102794
5.94	594	0.188	-0.041	-0.973	0.2291832	0.3437748	0	1.24331886	10.70285544	-18.58102794
5.95	595	0.189	-0.042	-0.971	0.286479	0.2291832	0	1.24904844	10.69712586	-18.58102794
5.96	596	0.191	-0.044	-0.971	0.2291832	0.1718874	0	1.24904844	10.69712586	-18.58102794
5.97	597	0.191	-0.043	-0.973	0.1718874	0.0572958	0	1.24904844	10.69712586	-18.57529836
5.98	598	0.191	-0.043	-0.974	0.3437748	0.0572958	0	1.25477802	10.70285544	-18.57529836
5.99	599	0.192	-0.043	-0.976	0.4583664	0.0572958	0	1.2605076	10.70285544	-18.57529836
6	600	0.193	-0.043	-0.976	0.4583664	0.0572958	0	1.26623718	10.70285544	-18.57529836
6.01	601	0.193	-0.045	-0.971	0.5156622	-0.0572958	0	1.27196676	10.70285544	-18.57529836
6.02	602	0.189	-0.046	-0.971	0.2291832	0.0572958	0	1.27196676	10.70285544	-18.57529836
6.03	603	0.188	-0.041	-0.972	0.0572958	0.1718874	0	1.27769634	10.70285544	-18.57529836
6.04	604	0.186	-0.04	-0.972	0	0.3437748	0	1.27769634	10.70858502	-18.57529836
6.05	605	0.188	-0.043	-0.974	0	0.2291832	-0.0572958	1.27196676	10.67993712	-18.57529836
6.06	606	0.19	-0.045	-0.975	-0.1718874	0.0572958	-0.1145916	1.27196676	10.67993712	-18.57529836
6.07	607	0.189	-0.048	-0.972	-0.1145916	0	-0.1145916	1.27196676	10.67993712	-18.57529836
6.08	608	0.189	-0.048	-0.967	-0.4583664	0	-0.1718874	1.26623718	10.67993712	-18.58102794
6.09	609	0.189	-0.045	-0.965	-1.0313244	0.1145916	-0.0572958	1.25477802	10.67993712	-18.58102794
6.1	610	0.19	-0.041	-0.967	-1.145916	0	0.0572958	1.24331886	10.67993712	-18.58102794
6.11	611	0.192	-0.037	-0.969	-0.859437	-0.2291832	0.1718874	1.2318597	10.67420754	-18.57529836
6.12	612	0.191	-0.037	-0.968	-0.4583664	-0.3437748	0.1145916	1.22613012	10.67420754	-18.57529836
6.13	613	0.188	-0.038	-0.972	-0.286479	-0.2291832	0	1.22613012	10.66847796	-18.57529836
6.14	614	0.188	-0.04	-0.975	-0.1718874	0.1145916	0	1.22040054	10.67420754	-18.57529836
6.15	615	0.188	-0.042	-0.977	0.1145916	0	0	1.21467096	10.64555964	-18.57529836
6.16	616	0.188	-0.044	-0.978	0.2291832	-0.1145916	0	1.22040054	10.64555964	-18.57529836
6.17	617	0.188	-0.043	-0.977	0.1145916	-0.286479	0	1.22040054	10.64555964	-18.57529836
6.18	618	0.187	-0.042	-0.976	0	-0.2291832	-0.0572958	1.22040054	10.63983006	-18.57529836
6.19	619	0.187	-0.04	-0.974	0	-0.1718874	-0.1718874	1.22040054	10.63983006	-18.57529836
6.2	620	0.187	-0.04	-0.973	-0.0572958	0	-0.1718874	1.19175264	10.599723	-18.57529836
6.21	621	0.188	-0.04	-0.973	-0.1145916	0	-0.1145916	1.19175264	10.599723	-18.58102794
6.22	622	0.188	-0.041	-0.973	-0.0572958	-0.0572958	-0.0572958	1.18602306	10.599723	-18.58102794
6.23	623	0.189	-0.042	-0.973	-0.1145916	0	0	1.18602306	10.599723	-18.58102794
6.24	624	0.192	-0.041	-0.973	-0.2291832	0.1145916	-0.0572958	1.18602306	10.599723	-18.58102794
6.25	625	0.193	-0.04	-0.974	-0.1718874	0.1145916	0	1.16883432	10.61118216	-18.58675752
6.26	626	0.192	-0.04	-0.973	-0.1718874	0	0	1.16310474	10.61118216	-18.58675752
6.27	627	0.189	-0.041	-0.973	-0.1718874	0	0.0572958	1.16310474	10.61118216	-18.58102794
6.28	628	0.187	-0.041	-0.973	-0.1718874	-0.2291832	0	1.16310474	10.60545258	-18.58102794
6.29	629	0.187	-0.042	-0.973	-0.1718874	0	0	1.15737516	10.60545258	-18.58675752
6.3	630	0.188	-0.042	-0.973	0	0	-0.1145916	1.1745639	10.59399342	-18.58102794
6.31	631	0.189	-0.044	-0.971	-0.1145916	-0.1145916	-0.1145916	1.16883432	10.59399342	-18.58102794
6.32	632	0.19	-0.041	-0.971	-0.2291832	-0.0572958	0.0572958	1.16883432	10.59399342	-18.58102794
6.33	633	0.19	-0.04	-0.971	-0.1145916	-0.0572958	0.0572958	1.16310474	10.58826384	-18.58102794
6.34	634	0.189	-0.04	-0.972	-0.1145916	-0.0572958	0.0572958	1.16310474	10.58826384	-18.58102794
6.35	635	0.188	-0.041	-0.972	0	-0.0572958	0.0572958	1.16310474	10.57680468	-18.58102794
6.36	636	0.188	-0.042	-0.972	0.0572958	0	0	1.16883432	10.57680468	-18.58102794
6.37	637	0.187	-0.042	-0.973	0.1718874	0.0572958	0	1.16883432	10.57680468	-18.58102794
6.38	638	0.188	-0.041	-0.974	0.1718874	0	0	1.16883432	10.57680468	-18.58102794
6.39	639	0.189	-0.041	-0.974	0.1145916	0.1145916	0.0572958	1.1745639	10.58253426	-18.57529836
6.4	640	0.189	-0.041	-0.973	0.286479	0.1718874	0.0572958	1.1745639	10.57680468	-18.57529836
6.41	641	0.189	-0.04	-0.974	0.286479	0.1145916	0.0572958	1.1745639	10.57680468	-18.57529836
6.42	642	0.19	-0.042	-0.974	0.4010706	0.0572958	0.0572958	1.18029348	10.58253426	-18.57529836
6.43	643	0.188	-0.042	-0.973	0.3437748	0	0.0572958	1.18602306	10.57680468	-18.57529836
6.44	644	0.188	-0.042	-0.972	0.2291832	-0.0572958	0.0572958	1.18602306	10.57680468	-18.57529836
6.45	645	0.189	-0.04	-0.973	0.1718874	0	0.0572958	1.1745639	10.5710751	-18.57529836
6.46	646	0.188	-0.039	-0.974	0.2291832	0	0.0572958	1.1745639	10.5710751	-18.57529836
6.47	647	0.187	-0.039	-0.974	0.3437748	0	0	1.18029348	10.5710751	-18.57529836
6.48	648	0.188	-0.038	-0.974	0.3437748	0.0572958	0.0572958	1.18602306	10.5710751	-18.57529836
6.49	649	0.189	-0.04	-0.975	0.3437748	0.1145916	0.1145916	1.18602306	10.5710751	-18.56956878
6.5	650	0.188	-0.041	-0.976	0.4010706	-0.1145916	0.1145916	1.19175264	10.56534552	-18.56956878
6.51	651	0.187	-0.041	-0.975	0.4010706	-0.2291832	0.0572958	1.19748222	10.55961594	-18.56956878
6.52	652	0.187	-0.042	-0.975	0.3437748	-0.1145916	0.0572958	1.2032118	10.55961594	-18.56956878
6.53	653	0.188	-0.042	-0.972	0.286479	-0.2291832	0.1718874	1.2032118	10.55388636	-18.5638392
6.54	654	0.188	-0.042	-0.971	0.1718874	0	0.1145916	1.20894138	10.55388636	-18.5638392
6.55	655	0.187	-0.041	-0.971	0.286479	-0.0572958	0.1718874	1.20894138	10.5424272	-18.5638392
6.56	656	0.188	-0.042	-0.971	0.286479	-0.1145916	0	1.21467096	10.5424272	-18.5638392
6.57	657	0.186	-0.043	-0.97	0.1718874	0	0	1.21467096	10.5424272	-18.55810962
6.58	658	0.186	-0.043	-0.971	0.0572958	0.0572958	0	1.21467096	10.5424272	-18.55810962
6.59	659	0.187	-0.043	-0.971	0	0.1145916	-0.0572958	1.21467096	10.54815678	-18.5638392
6.6	660	0.188	-0.043	-0.973	0	0.0572958	-0.1145916	1.21467096	10.5424272	-18.5638392
6.61	661	0.189	-0.042	-0.977	0.1718874	0	-0.1145916	1.22040054	10.5424272	-18.5638392
6.62	662	0.19	-0.042	-0.976	0.3437748	0.0572958	-0.0572958	1.22040054	10.5424272	-18.5638392
6.63	663	0.189	-0.042	-0.976	0.286479	-0.1145916	0	1.22613012	10.5424272	-18.5638392
6.64	664	0.19	-0.044	-0.974	0.2291832	-0.286479	0	1.22613012	10.53669762	-18.5638392
6.65	665	0.188	-0.045	-0.972	0.1145916	0	0	1.2318597	10.52523846	-18.5638392
6.66	666	0.186	-0.041	-0.973	0	0	-0.0572958	1.2318597	10.52523846	-18.5638392
