TimeStamp(s)	FrameCounter	AccX	AccY	AccZ	GyrX	GyrY	GyrZ	EulerX	EulerY	EulerZ
0.01	1	-0.01	-1.013	0.02	1.0313244	-0.859437	1.4896908	92.9910834	-0.6302538	-24.50541366
0.02	2	-0.007	-1.008	0.022	0.8021412	-1.0886202	1.3178034	92.99681298	-0.64171296	-24.5226024
0.03	3	-0.007	-1.003	0.019	0.7448454	-1.6042824	0.9740286	93.00827214	-0.65317212	-24.53406156
0.04	4	-0.008	-1.001	0.02	0.859437	-2.5210152	0.4583664	93.0197313	-0.65317212	-24.56270946
0.05	5	-0.012	-1.003	0.016	0.9167328	-3.4950438	0	92.9624355	-0.65317212	-24.5798982
0.06	6	-0.016	-1.007	0.014	0.8021412	-3.8961144	-0.572958	92.97389466	-0.64171296	-24.62000526
0.07	7	-0.02	-1.006	0.015	0.859437	-3.6669312	-1.0313244	92.98535382	-0.6302538	-24.65438274
0.08	8	-0.026	-1.005	0.016	0.9167328	-3.2658606	-1.432395	92.9910834	-0.61306506	-24.68876022
0.09	9	-0.03	-1.003	0.014	0.7448454	-2.7501984	-1.718874	93.00254256	-0.59587632	-24.71167854
0.1	10	-0.026	-1.001	0.012	0.9167328	-2.2345362	-1.7761698	92.94524676	-0.59014674	-24.71167854
0.11	11	-0.024	-1.001	0.013	1.2032118	-1.8334656	-1.432395	92.95670592	-0.572958	-24.72886728
0.12	12	-0.021	-1	0.013	1.2032118	-1.6042824	-1.0886202	92.97389466	-0.56149884	-24.74032644
0.13	13	-0.018	-1	0.021	1.145916	-1.6042824	-0.8021412	92.98535382	-0.55003968	-24.75751518
0.14	14	-0.019	-1	0.023	1.2605076	-1.6042824	-0.572958	92.99681298	-0.5443101	-24.77470392
0.15	15	-0.021	-1	0.024	1.3750992	-1.718874	-0.572958	92.94524676	-0.55576926	-24.76324476
0.16	16	-0.026	-1	0.022	1.6042824	-1.7761698	-0.6302538	92.9624355	-0.5443101	-24.7804335
0.17	17	-0.032	-1.002	0.022	1.9480572	-1.718874	-0.9167328	92.98535382	-0.53285094	-24.79762224
0.18	18	-0.036	-1.006	0.021	2.005353	-1.0886202	-1.2605076	93.00254256	-0.52139178	-24.8090814
0.19	19	-0.038	-1.01	0.02	1.9480572	-0.0572958	-1.6615782	93.02546088	-0.50420304	-24.8090814
0.2	20	-0.035	-1.011	0.016	1.9480572	0.859437	-1.7761698	92.97389466	-0.5156622	-24.76897434
0.21	21	-0.03	-1.009	0.015	1.8907614	1.432395	-1.6042824	92.9910834	-0.49847346	-24.7517856
0.22	22	-0.024	-1.009	0.018	1.8907614	1.7761698	-1.2605076	93.01400172	-0.4870143	-24.73459686
0.23	23	-0.019	-1.01	0.018	1.6615782	2.1199446	-0.859437	93.03119046	-0.48128472	-24.71167854
0.24	24	-0.015	-1.009	0.022	1.5469866	2.291832	-0.4583664	93.04264962	-0.47555514	-24.68876022
0.25	25	-0.013	-1.012	0.024	1.145916	2.3491278	-0.286479	92.98535382	-0.48128472	-24.64865316
0.26	26	-0.015	-1.011	0.029	0.3437748	2.4064236	-0.4010706	92.9910834	-0.48128472	-24.62000526
0.27	27	-0.017	-1.011	0.021	-0.0572958	2.5210152	-0.6875496	92.98535382	-0.47555514	-24.59708694
0.28	28	-0.016	-1.01	0.011	-0.0572958	2.578311	-1.145916	92.98535382	-0.46409598	-24.56843904
0.29	29	-0.015	-1.013	0.009	0.0572958	2.5210152	-1.3750992	92.98535382	-0.45263682	-24.54552072
0.3	30	-0.013	-1.014	0.009	0.1145916	2.1772404	-1.6042824	92.89941012	-0.44117766	-24.49968408
0.31	31	-0.008	-1.014	0.009	0	1.8907614	-1.6042824	92.89941012	-0.4297185	-24.48249534
0.32	32	-0.003	-1.012	0.006	-0.0572958	1.5469866	-1.4896908	92.89941012	-0.41252976	-24.4653066
0.33	33	-0.001	-1.01	0.01	-0.0572958	0.9167328	-1.3178034	92.89941012	-0.4010706	-24.45384744
0.34	34	-0.003	-1.008	0.013	0	0.572958	-1.145916	92.89941012	-0.38961144	-24.44811786
0.35	35	-0.004	-1.007	0.017	-0.3437748	0.6875496	-1.145916	92.7619002	-0.36669312	-24.41946996
0.36	36	-0.004	-1.005	0.015	-0.2291832	0.9740286	-1.2605076	92.7619002	-0.35523396	-24.4080108
0.37	37	-0.005	-1.007	0.013	-0.1718874	0.9167328	-1.4896908	92.7619002	-0.3437748	-24.39655164
0.38	38	-0.005	-1.007	0.012	-0.286479	0.8021412	-1.6042824	92.75617062	-0.32658606	-24.39082206
0.39	39	-0.003	-1.008	0.014	-0.5156622	0.7448454	-1.7761698	92.75044104	-0.30939732	-24.3793629
0.4	40	-0.004	-1.008	0.015	-0.572958	0.6302538	-1.718874	92.64157902	-0.286479	-24.35644458
0.41	41	-0.003	-1.007	0.012	-0.6875496	0.5156622	-1.4896908	92.63584944	-0.26929026	-24.34498542
0.42	42	-0.001	-1.007	0.011	-0.6875496	0.2291832	-1.3750992	92.63011986	-0.2578311	-24.34498542
0.43	43	0	-1.006	0.014	-0.4583664	-0.2291832	-1.2032118	92.62439028	-0.24637194	-24.34498542
0.44	44	0	-1.007	0.019	-0.0572958	-0.6302538	-1.145916	92.62439028	-0.2291832	-24.350715
0.45	45	0	-1.007	0.018	0.0572958	-0.8021412	-1.2032118	92.50979868	-0.2005353	-24.34498542
0.46	46	0.002	-1.007	0.015	0.0572958	-0.6302538	-1.3178034	92.51552826	-0.18334656	-24.350715
0.47	47	0.001	-1.008	0.016	0.286479	-0.9167328	-1.432395	92.51552826	-0.1718874	-24.36217416
0.48	48	0	-1.01	0.017	0.4010706	-1.0313244	-1.4896908	92.52125784	-0.15469866	-24.36790374
0.49	49	-0.002	-1.01	0.02	0.2291832	-1.0313244	-1.4896908	92.52125784	-0.13750992	-24.3793629
0.5	50	-0.004	-1.006	0.019	0.1718874	-0.9740286	-1.432395	92.42958456	-0.12032118	-24.36790374
0.51	51	-0.002	-1.004	0.016	0.1718874	-0.6875496	-1.3178034	92.43531414	-0.10886202	-24.3793629
0.52	52	0	-1.002	0.013	0.1718874	-0.8021412	-1.2032118	92.43531414	-0.09167328	-24.38509248
0.53	53	0.001	-1.001	0.011	0.4010706	-1.0886202	-1.0886202	92.44104372	-0.08021412	-24.39655164
0.54	54	0.001	-1.002	0.013	0.4583664	-1.2032118	-0.859437	92.4467733	-0.07448454	-24.4080108
0.55	55	0	-1.003	0.015	0.3437748	-1.432395	-0.9167328	92.36655918	-0.05156622	-24.4080108
0.56	56	0	-1.005	0.012	0.4583664	-1.5469866	-0.9167328	92.36655918	-0.04010706	-24.41946996
0.57	57	-0.002	-1.004	0.015	0.5156622	-1.6042824	-1.0886202	92.37801834	-0.0286479	-24.4366587
0.58	58	-0.003	-1.005	0.016	0.5156622	-1.6615782	-1.2605076	92.38374792	-0.01718874	-24.45384744
0.59	59	-0.003	-1.007	0.012	0.5156622	-1.6042824	-1.432395	92.3894775	0	-24.47103618
0.6	60	-0.003	-1.008	0.012	0.6875496	-1.6615782	-1.3750992	92.32645212	0.00572958	-24.47103618
0.61	61	-0.003	-1.007	0.01	0.6875496	-1.6042824	-1.2032118	92.3321817	0.02291832	-24.48822492
0.62	62	-0.004	-1.005	0.012	0.5156622	-1.6042824	-1.0313244	92.33791128	0.03437748	-24.49968408
0.63	63	-0.004	-1.003	0.011	0.5156622	-1.718874	-0.8021412	92.34364086	0.04010706	-24.51687282
0.64	64	-0.003	-1.004	0.008	0.572958	-1.6042824	-0.6302538	92.34937044	0.05156622	-24.53406156
0.65	65	-0.002	-1.007	0.009	0.4583664	-1.3750992	-0.5156622	92.2175901	0.0572958	-24.5226024
0.66	66	-0.001	-1.01	0.011	0.4010706	-1.145916	-0.4583664	92.22331968	0.06302538	-24.53406156
0.67	67	0	-1.011	0.008	0.1145916	-1.0886202	-0.5156622	92.22331968	0.06875496	-24.54552072
0.68	68	0.003	-1.012	0.005	0.0572958	-1.3178034	-0.4583664	92.22331968	0.07448454	-24.55697988
0.69	69	0.006	-1.013	0.005	-0.3437748	-1.3750992	-0.6302538	92.22331968	0.08021412	-24.56843904
0.7	70	0.014	-1.016	0	-0.859437	-1.3178034	-0.572958	92.09726892	0.12605076	-24.5798982
0.71	71	0.018	-1.012	-0.004	-1.145916	-1.6042824	-0.4583664	92.08580976	0.13178034	-24.59135736
0.72	72	0.008	-1.005	0.006	-0.5156622	-2.5210152	-0.2291832	92.08008018	0.13750992	-24.62000526
0.73	73	-0.002	-1.003	0.018	0	-3.3804522	-0.3437748	92.08008018	0.1432395	-24.65438274
0.74	74	-0.003	-1.004	0.02	-0.7448454	-3.3804522	-0.6875496	92.0743506	0.14896908	-24.68876022
0.75	75	-0.009	-1.002	0.024	-1.2605076	-3.6669312	-1.2032118	92.03997312	0.15469866	-24.71167854
0.76	76	-0.014	-1.004	0.022	-1.0886202	-4.1252976	-1.5469866	92.02851396	0.1718874	-24.7517856
0.77	77	-0.014	-1.008	0.016	-1.2032118	-4.1252976	-1.718874	92.0170548	0.19480572	-24.79762224
0.78	78	-0.013	-1.012	0.018	-1.2605076	-3.9534102	-1.6615782	91.99986606	0.21199446	-24.83199972
0.79	79	-0.009	-1.013	0.021	-1.432395	-4.1825934	-1.5469866	91.9884069	0.2291832	-24.87210678
0.8	80	-0.008	-1.011	0.023	-1.3750992	-4.6982556	-1.432395	91.94829984	0.24064236	-24.91221384
0.81	81	-0.006	-1.007	0.022	-0.9740286	-5.0993262	-1.0886202	91.94257026	0.2578311	-24.96378006
0.82	82	-0.01	-1.004	0.028	0.1718874	-5.9014674	-0.572958	91.94257026	0.26356068	-25.02107586
0.83	83	-0.014	-1.005	0.026	0.6875496	-6.0733548	-0.3437748	91.94829984	0.27501984	-25.08410124
0.84	84	-0.015	-1.007	0.023	0.5156622	-4.6982556	-0.572958	91.95402942	0.28074942	-25.12993788
0.85	85	-0.016	-1.01	0.023	0.4583664	-3.437748	-0.9167328	91.92538152	0.26929026	-25.14712662
0.86	86	-0.016	-1.009	0.021	0.8021412	-2.6356068	-1.145916	91.9311111	0.286479	-25.17004494
0.87	87	-0.013	-1.007	0.019	0.9740286	-1.8907614	-1.2605076	91.94257026	0.29793816	-25.18723368
0.88	88	-0.006	-1.007	0.016	1.0886202	-1.3750992	-1.2032118	91.95402942	0.30939732	-25.20442242
0.89	89	-0.001	-1.004	0.014	1.2605076	-1.2032118	-0.9167328	91.96548858	0.32085648	-25.21588158
0.9	90	0.002	-1.001	0.011	1.5469866	-1.5469866	-0.6302538	91.92538152	0.33231564	-25.22161116
0.91	91	0.004	-0.997	0.012	1.8907614	-1.8907614	-0.3437748	91.94829984	0.33804522	-25.2387999
0.92	92	0.004	-0.994	0.013	2.3491278	-2.005353	-0.2291832	91.97121816	0.33804522	-25.26171822
0.93	93	0.002	-0.992	0.014	2.7501984	-1.8334656	-0.3437748	91.99986606	0.3437748	-25.27890696
0.94	94	0	-0.995	0.016	2.8074942	-1.432395	-0.6302538	92.02851396	0.34950438	-25.29036612
0.95	95	-0.001	-0.998	0.015	2.8074942	-0.9167328	-0.9740286	92.01132522	0.35523396	-25.29036612
0.96	96	-0.001	-1.003	0.012	2.4637194	-0.4010706	-1.2032118	92.03424354	0.3724227	-25.29036612
0.97	97	-0.003	-1.004	0.015	2.1199446	0.0572958	-1.3178034	92.05716186	0.38388186	-25.29036612
0.98	98	-0.001	-1.002	0.015	2.0626488	0.572958	-1.432395	92.08008018	0.4010706	-25.28463654
0.99	99	0.003	-1.002	0.015	2.0626488	1.0313244	-1.3750992	92.09726892	0.41252976	-25.27317738
1	100	0.005	-1.005	0.016	2.0626488	1.3750992	-1.3178034	92.0743506	0.42398892	-25.25025906
1.01	101	0.004	-1.008	0.017	2.1772404	1.432395	-1.3178034	92.09726892	0.44117766	-25.23307032
1.02	102	0.004	-1.013	0.021	1.8907614	1.4896908	-1.432395	92.12018724	0.45263682	-25.22161116
1.03	103	0.003	-1.017	0.023	1.3178034	1.6042824	-1.7761698	92.1316464	0.46982556	-25.20442242
1.04	104	0.005	-1.018	0.019	0.9167328	1.6042824	-2.0626488	92.14310556	0.4870143	-25.18723368
1.05	105	0.006	-1.017	0.014	0.572958	1.8334656	-2.2345362	92.09726892	0.50993262	-25.15858578
1.06	106	0.007	-1.017	0.017	0.4583664	2.005353	-2.3491278	92.1029985	0.53285094	-25.13566746
1.07	107	0.006	-1.018	0.02	0.572958	1.8907614	-2.1772404	92.10872808	0.55576926	-25.11847872
1.08	108	0.005	-1.017	0.02	0.572958	1.8334656	-2.005353	92.11445766	0.572958	-25.10128998
1.09	109	0.007	-1.013	0.019	0.572958	1.9480572	-1.8907614	92.12018724	0.59014674	-25.07837166
1.1	110	0.011	-1.01	0.018	0.6302538	2.0626488	-1.8334656	92.0743506	0.61306506	-25.04972376
1.11	111	0.012	-1.006	0.013	0.7448454	2.005353	-1.7761698	92.08580976	0.6302538	-25.03253502
1.12	112	0.008	-1.004	0.019	1.0313244	1.8334656	-1.718874	92.09726892	0.64744254	-25.0096167
1.13	113	0.003	-1.005	0.023	0.8021412	2.005353	-1.8334656	92.1029985	0.66463128	-24.99242796
1.14	114	0	-1.003	0.025	0.6302538	2.3491278	-1.8907614	92.10872808	0.68182002	-24.96378006
1.15	115	0	-1.003	0.025	0.4583664	2.86479	-1.8334656	92.08580976	0.69327918	-24.92940258
1.16	116	0	-1.007	0.032	0.1145916	3.0366774	-1.5469866	92.08580976	0.70473834	-24.8950251
1.17	117	0.001	-1.013	0.033	-0.2291832	3.6096354	-1.2032118	92.08580976	0.7161975	-24.86064762
1.18	118	0.003	-1.02	0.032	-0.6875496	4.010706	-0.859437	92.0743506	0.72192708	-24.82054056
1.19	119	0.004	-1.023	0.033	-0.9740286	4.297185	-0.572958	92.06289144	0.72192708	-24.7804335
1.2	120	0.006	-1.02	0.034	-1.145916	4.297185	-0.3437748	92.03424354	0.72192708	-24.72886728
1.21	121	0.008	-1.015	0.032	-1.0886202	4.4117766	-0.1718874	92.02278438	0.72192708	-24.68876022
1.22	122	0.013	-1.011	0.033	-1.0886202	4.1825934	-0.0572958	92.01132522	0.72192708	-24.64865316
1.23	123	0.014	-1.006	0.032	-0.4583664	3.9534102	0.5156622	92.00559564	0.71046792	-24.6085461
1.24	124	0.001	-1.002	0.032	-0.1145916	3.6669312	0.3437748	92.00559564	0.70473834	-24.57416862
1.25	125	0.005	-1.005	0.033	0.0572958	3.3804522	-0.2291832	91.97121816	0.70473834	-24.52833198
1.26	126	0.009	-1.006	0.033	0.2291832	3.437748	-0.5156622	91.97121816	0.71046792	-24.4939545
1.27	127	0.014	-1.004	0.031	0.286479	3.0939732	-0.6302538	91.97694774	0.71046792	-24.4653066
1.28	128	0.015	-1.004	0.031	0.2291832	2.8074942	-0.6875496	91.97694774	0.7161975	-24.4366587
1.29	129	0.017	-1.003	0.03	0.3437748	2.4064236	-0.6875496	91.98267732	0.72192708	-24.41374038
1.3	130	0.019	-1.001	0.027	0.5156622	2.1772404	-0.572958	91.94257026	0.75057498	-24.39082206
1.31	131	0.022	-0.997	0.027	0.7448454	2.0626488	-0.6302538	91.94829984	0.75630456	-24.37363332
1.32	132	0.025	-0.998	0.025	0.8021412	1.718874	-0.6302538	91.959759	0.76203414	-24.35644458
1.33	133	0.026	-1	0.025	1.0886202	1.2032118	-0.6302538	91.97121816	0.76776372	-24.33925584
1.34	134	0.026	-1.001	0.024	1.3178034	0.8021412	-0.7448454	91.98267732	0.7734933	-24.33352626
1.35	135	0.024	-1.004	0.027	1.3178034	0.572958	-1.0313244	91.94829984	0.81360036	-24.32779668
1.36	136	0.022	-1.008	0.026	1.2605076	0.4010706	-1.2605076	91.959759	0.82505952	-24.3220671
1.37	137	0.02	-1.012	0.028	1.2032118	0.1718874	-1.3750992	91.97694774	0.83651868	-24.3220671
1.38	138	0.019	-1.012	0.028	1.145916	0	-1.3750992	91.9884069	0.85370742	-24.3220671
1.39	139	0.018	-1.013	0.027	1.0886202	-0.1145916	-1.2605076	91.99986606	0.86516658	-24.3220671
1.4	140	0.018	-1.013	0.025	1.0313244	-0.286479	-1.0313244	91.93684068	0.89381448	-24.31633752
1.41	141	0.017	-1.014	0.027	0.9167328	-0.5156622	-0.8021412	91.94829984	0.89954406	-24.3220671
1.42	142	0.014	-1.015	0.029	0.9167328	-0.6875496	-0.7448454	91.959759	0.91100322	-24.32779668
1.43	143	0.013	-1.014	0.029	0.8021412	-0.5156622	-0.6875496	91.96548858	0.9167328	-24.33352626
1.44	144	0.012	-1.016	0.029	0.6302538	-0.3437748	-0.6875496	91.97121816	0.92246238	-24.33925584
1.45	145	0.012	-1.016	0.027	0.6875496	-0.2291832	-0.6302538	91.88527446	0.92819196	-24.3220671
1.46	146	0.012	-1.015	0.026	0.4010706	0	-0.5156622	91.89100404	0.93392154	-24.3220671
1.47	147	0.011	-1.013	0.027	0.3437748	-0.1718874	-0.3437748	91.89100404	0.93965112	-24.32779668
1.48	148	0.008	-1.011	0.028	0.286479	-0.1145916	-0.1718874	91.89673362	0.93965112	-24.32779668
1.49	149	0.005	-1.008	0.028	0.2291832	0.1718874	0	91.89673362	0.93965112	-24.32779668
1.5	150	0.004	-1.007	0.027	0.2291832	0.3437748	0.0572958	91.75349412	0.89381448	-24.28196004
1.51	151	0.002	-1.007	0.026	0.0572958	0.5156622	0.1718874	91.75349412	0.8880849	-24.27623046
1.52	152	0	-1.008	0.025	-0.1718874	0.4583664	0.4010706	91.74776454	0.88235532	-24.27050088
1.53	153	0	-1.009	0.025	-0.1718874	0.6302538	0.6875496	91.74776454	0.87662574	-24.2647713
1.54	154	0.002	-1.01	0.026	-0.2291832	0.9167328	0.7448454	91.74776454	0.87089616	-24.25904172
1.55	155	0.006	-1.007	0.024	-0.286479	1.3178034	0.8021412	91.69046874	0.859437	-24.2361234
1.56	156	0.014	-1.006	0.022	-0.286479	1.8334656	0.572958	91.69046874	0.85370742	-24.21893466
1.57	157	0.02	-1.005	0.023	-0.4010706	2.0626488	0.4010706	91.68473916	0.84797784	-24.19601634
1.58	158	0.028	-1.005	0.021	-0.7448454	1.8907614	0.3437748	91.67900958	0.84224826	-24.1788276
1.59	159	0.033	-1.007	0.017	-1.145916	1.0886202	0.4010706	91.66755042	0.83651868	-24.16736844
1.6	160	0.027	-1.002	0.021	-0.9167328	-0.0572958	0.286479	91.58160672	0.87089616	-24.17309802
1.61	161	0.018	-1.003	0.026	-0.5156622	-1.432395	-0.0572958	91.58160672	0.87662574	-24.18455718
1.62	162	0.013	-1.006	0.022	-0.6302538	-1.5469866	-0.572958	91.57014756	0.88235532	-24.20174592
1.63	163	0.006	-1.008	0.02	-0.6875496	-1.4896908	-1.145916	91.56441798	0.89381448	-24.21893466
1.64	164	0.001	-1.008	0.018	-0.5156622	-1.3178034	-1.6615782	91.5586884	0.91100322	-24.23039382
1.65	165	-0.001	-1.008	0.019	-0.4010706	-1.145916	-1.718874	91.51285176	0.91100322	-24.23039382
1.66	166	-0.003	-1.01	0.021	-0.4010706	-0.9167328	-1.6615782	91.51285176	0.92819196	-24.2361234
1.67	167	-0.002	-1.01	0.021	-0.5156622	-0.4010706	-1.3750992	91.50712218	0.93965112	-24.24185298
1.68	168	0.002	-1.01	0.019	-0.572958	-0.0572958	-1.0886202	91.5013926	0.95111028	-24.24185298
1.69	169	0.005	-1.008	0.019	-0.6302538	-0.0572958	-0.9167328	91.48993344	0.96256944	-24.24185298
1.7	170	0.007	-1.01	0.022	-0.6302538	-0.1145916	-0.9167328	91.4154489	0.95683986	-24.23039382
1.71	171	0.009	-1.007	0.024	-0.7448454	-0.1145916	-0.9167328	91.40971932	0.96829902	-24.23039382
1.72	172	0.01	-1.006	0.024	-0.572958	-0.1718874	-1.0886202	91.40398974	0.97975818	-24.23039382
1.73	173	0.009	-1.007	0.023	-0.5156622	0	-1.2605076	91.39826016	0.99121734	-24.23039382
1.74	174	0.006	-1.008	0.025	-0.5156622	0.1718874	-1.5469866	91.39253058	1.00840608	-24.23039382
1.75	175	0.006	-1.01	0.024	-0.6302538	0.4010706	-1.7761698	91.34669394	1.01413566	-24.21320508
1.76	176	0.007	-1.009	0.025	-0.6875496	0.6302538	-1.9480572	91.34096436	1.0313244	-24.2074755
1.77	177	0.01	-1.008	0.025	-0.6875496	0.6302538	-2.1199446	91.33523478	1.05424272	-24.20174592
1.78	178	0.013	-1.006	0.024	-0.6302538	0.6302538	-2.1199446	91.3295052	1.07143146	-24.19601634
1.79	179	0.018	-1.005	0.024	-0.6302538	0.572958	-2.1199446	91.31804604	1.09434978	-24.19028676
1.8	180	0.021	-1.004	0.023	-0.572958	0.2291832	-2.0626488	91.2722094	1.12872726	-24.18455718
1.81	181	0.024	-1.005	0.022	-0.4583664	-0.572958	-2.005353	91.26647982	1.15164558	-24.19028676
1.82	182	0.025	-1.006	0.026	-0.4010706	-1.3178034	-2.1199446	91.26075024	1.1745639	-24.20174592
1.83	183	0.024	-1.008	0.023	-0.5156622	-1.8334656	-2.291832	91.25502066	1.19748222	-24.21893466
1.84	184	0.022	-1.006	0.019	-0.4010706	-2.0626488	-2.4637194	91.25502066	1.22040054	-24.24185298
1.85	185	0.021	-1.005	0.017	-0.2291832	-2.3491278	-2.6356068	91.22637276	1.25477802	-24.25904172
1.86	186	0.021	-1.004	0.019	-0.0572958	-2.4637194	-2.6929026	91.22637276	1.28342592	-24.28196004
1.87	187	0.017	-1.005	0.02	-0.2291832	-2.291832	-2.5210152	91.22064318	1.30634424	-24.30487836
1.88	188	0.015	-1.006	0.02	-0.2291832	-2.005353	-2.1199446	91.22064318	1.32926256	-24.32779668
1.89	189	0.018	-1.006	0.019	-0.1718874	-1.5469866	-1.6042824	91.2149136	1.3464513	-24.33925584
1.9	190	0.018	-1.009	0.019	-0.0572958	-1.2032118	-1.2032118	91.16334738	1.35791046	-24.34498542
1.91	191	0.02	-1.012	0.023	0	-0.859437	-0.859437	91.16334738	1.36936962	-24.35644458
1.92	192	0.022	-1.013	0.022	0	-0.7448454	-0.6875496	91.16334738	1.3750992	-24.36217416
1.93	193	0.021	-1.013	0.023	0.0572958	-0.4010706	-0.7448454	91.16334738	1.38082878	-24.36790374
1.94	194	0.02	-1.012	0.02	0.0572958	-0.1145916	-0.9740286	91.16334738	1.39228794	-24.36790374
1.95	195	0.023	-1.011	0.019	0	0.1145916	-1.0313244	91.0716741	1.42093584	-24.36217416
1.96	196	0.024	-1.01	0.02	0.0572958	0.0572958	-1.0886202	91.0716741	1.432395	-24.35644458
1.97	197	0.026	-1.01	0.02	0	0	-0.9740286	91.0716741	1.43812458	-24.35644458
1.98	198	0.028	-1.011	0.019	0	-0.1718874	-0.859437	91.0716741	1.44958374	-24.36217416
1.99	199	0.028	-1.01	0.018	0	-0.2291832	-0.7448454	91.0716741	1.45531332	-24.36217416
2	200	0.03	-1.009	0.017	-0.2291832	-0.3437748	-0.572958	90.9857304	1.49542038	-24.36790374
2.01	201	0.03	-1.009	0.018	-0.1718874	-0.6875496	-0.4583664	90.98000082	1.50114996	-24.37363332
2.02	202	0.028	-1.007	0.017	-0.2291832	-0.8021412	-0.4583664	90.98000082	1.50687954	-24.3793629
2.03	203	0.026	-1.007	0.017	-0.286479	-0.8021412	-0.5156622	90.97427124	1.51260912	-24.39082206
2.04	204	0.025	-1.007	0.017	-0.4010706	-0.8021412	-0.6302538	90.96854166	1.5183387	-24.39655164
2.05	205	0.024	-1.006	0.017	-0.4010706	-0.859437	-0.859437	90.92270502	1.53552744	-24.40228122
2.06	206	0.022	-1.005	0.017	-0.5156622	-0.859437	-0.9740286	90.91697544	1.5469866	-24.4080108
2.07	207	0.021	-1.006	0.017	-0.5156622	-0.8021412	-0.9740286	90.91124586	1.55271618	-24.41946996
2.08	208	0.021	-1.006	0.016	-0.4583664	-0.859437	-0.9167328	90.90551628	1.56417534	-24.42519954
2.09	209	0.022	-1.005	0.018	-0.572958	-0.9740286	-0.9167328	90.8997867	1.5756345	-24.4366587
2.1	210	0.022	-1.004	0.017	-0.5156622	-1.0886202	-0.8021412	90.85395006	1.58136408	-24.44238828
2.11	211	0.02	-1.005	0.016	-0.5156622	-1.0313244	-0.859437	90.84822048	1.58709366	-24.45384744
2.12	212	0.021	-1.004	0.016	-0.4583664	-0.9167328	-0.859437	90.84822048	1.59855282	-24.4653066
2.13	213	0.021	-1.004	0.017	-0.3437748	-0.9740286	-0.859437	90.8424909	1.61001198	-24.47103618
2.14	214	0.021	-1.005	0.018	-0.3437748	-0.859437	-0.9167328	90.83676132	1.61574156	-24.48249534
2.15	215	0.021	-1.006	0.019	-0.1718874	-0.6875496	-0.9740286	90.79665426	1.62147114	-24.48249534
2.16	216	0.021	-1.006	0.02	-0.286479	-0.6875496	-1.0886202	90.79665426	1.6329303	-24.48822492
2.17	217	0.02	-1.009	0.018	-0.2291832	-0.6302538	-1.145916	90.79092468	1.64438946	-24.4939545
2.18	218	0.022	-1.011	0.017	-0.4010706	-0.6875496	-1.0886202	90.7851951	1.65584862	-24.50541366
2.19	219	0.022	-1.011	0.02	-0.572958	-0.7448454	-1.0886202	90.77946552	1.66730778	-24.51114324
2.2	220	0.023	-1.012	0.019	-0.5156622	-0.6875496	-1.0886202	90.74508804	1.67876694	-24.51687282
2.21	221	0.025	-1.012	0.019	-0.5156622	-0.6875496	-1.145916	90.73935846	1.6902261	-24.5226024
2.22	222	0.025	-1.013	0.019	-0.6875496	-0.8021412	-1.2032118	90.73362888	1.70168526	-24.52833198
2.23	223	0.024	-1.012	0.019	-0.859437	-0.9740286	-1.3750992	90.7278993	1.718874	-24.53979114
2.24	224	0.024	-1.01	0.021	-0.8021412	-0.8021412	-1.5469866	90.71644014	1.73606274	-24.54552072
2.25	225	0.023	-1.012	0.02	-0.9740286	-0.6875496	-1.6615782	90.68779224	1.7475219	-24.5512503
2.26	226	0.022	-1.013	0.019	-1.2032118	-0.572958	-1.8907614	90.67633308	1.76471064	-24.55697988
2.27	227	0.023	-1.012	0.019	-1.0886202	-0.3437748	-2.005353	90.66487392	1.78762896	-24.56270946
2.28	228	0.025	-1.012	0.019	-1.3750992	-0.1145916	-2.2345362	90.64768518	1.81054728	-24.56270946
2.29	229	0.027	-1.011	0.021	-1.3178034	0.0572958	-2.4637194	90.63622602	1.8334656	-24.56270946
2.3	230	0.029	-1.01	0.021	-1.3750992	0.3437748	-2.6929026	90.60757812	1.8621135	-24.55697988
2.31	231	0.031	-1.01	0.02	-1.432395	0.572958	-2.9793816	90.59611896	1.8907614	-24.5512503
2.32	232	0.03	-1.008	0.019	-1.6042824	0.5156622	-3.2658606	90.57893022	1.92513888	-24.54552072
2.33	233	0.029	-1.008	0.019	-1.6042824	0.3437748	-3.4950438	90.56174148	1.95951636	-24.53979114
2.34	234	0.027	-1.008	0.021	-1.7761698	0.4010706	-3.8961144	90.54455274	1.99962342	-24.53406156
2.35	235	0.027	-1.008	0.021	-2.1199446	0.4583664	-4.297185	90.51590484	2.03973048	-24.52833198
2.36	236	0.029	-1.011	0.021	-2.291832	0.9740286	-4.6982556	90.49298652	2.08556712	-24.5226024
2.37	237	0.029	-1.006	0.02	-2.578311	0.9740286	-5.0993262	90.46433862	2.13713334	-24.51114324
2.38	238	0.029	-1.005	0.02	-2.3491278	1.0313244	-5.443101	90.4414203	2.18869956	-24.49968408
2.39	239	0.027	-1.006	0.018	-2.4637194	1.0886202	-5.72958	90.41850198	2.24599536	-24.48822492
2.4	240	0.028	-1.007	0.02	-2.5210152	1.3178034	-5.8441716	90.3841245	2.29756158	-24.47103618
2.41	241	0.029	-1.01	0.019	-2.6929026	1.6615782	-6.016059	90.36120618	2.36058696	-24.45384744
2.42	242	0.029	-1.01	0.02	-2.9220858	1.6042824	-6.1306506	90.3268287	2.41788276	-24.44238828
2.43	243	0.03	-1.011	0.024	-3.2085648	1.9480572	-6.4171296	90.2981808	2.48090814	-24.41946996
2.44	244	0.03	-1.01	0.02	-3.3804522	2.4064236	-6.9327918	90.26380332	2.5496631	-24.39655164
2.45	245	0.03	-1.01	0.018	-3.3804522	2.4637194	-7.3338624	90.22369626	2.61841806	-24.36790374
2.46	246	0.03	-1.011	0.016	-3.4950438	2.3491278	-7.7922288	90.18931878	2.69863218	-24.34498542
2.47	247	0.029	-1.013	0.019	-3.6669312	2.4064236	-8.1360036	90.1549413	2.77311672	-24.3220671
2.48	248	0.029	-1.016	0.018	-3.9534102	2.291832	-8.59437	90.11483424	2.85906042	-24.29914878
2.49	249	0.031	-1.016	0.017	-4.3544808	2.2345362	-8.9954406	90.0689976	2.9507337	-24.27623046
2.5	250	0.032	-1.017	0.014	-4.6982556	2.1772404	-9.453807	90.01743138	3.0366774	-24.25331214
2.51	251	0.037	-1.015	0.018	-4.9847346	2.0626488	-9.8548776	89.97159474	3.13408026	-24.2361234
2.52	252	0.042	-1.015	0.014	-5.3285094	2.005353	-10.2559482	89.91429894	3.2372127	-24.21320508
2.53	253	0.047	-1.014	0.013	-5.7868758	1.8334656	-10.4851314	89.85700314	3.34034514	-24.19601634
2.54	254	0.048	-1.012	0.011	-6.1306506	1.3178034	-10.599723	89.79397776	3.44347758	-24.18455718
2.55	255	0.047	-1.01	0.009	-6.3598338	0.859437	-10.7716104	89.7252228	3.54661002	-24.17309802
2.56	256	0.047	-1.009	0.009	-6.5317212	0.4010706	-10.9434978	89.66219742	3.65547204	-24.17309802
2.57	257	0.048	-1.009	0.011	-6.6463128	0.1145916	-11.2872726	89.59344246	3.77006364	-24.17309802
2.58	258	0.05	-1.009	0.009	-6.8182002	-0.1718874	-11.6310474	89.5246875	3.88465524	-24.17309802
2.59	259	0.05	-1.008	0.008	-6.9900876	-0.4010706	-12.0894138	89.45020296	4.00497642	-24.1788276
2.6	260	0.051	-1.011	0.007	-7.2192708	-0.2291832	-12.7196676	89.37571842	4.1252976	-24.18455718
2.61	261	0.054	-1.011	0.003	-7.448454	-0.4583664	-13.2353298	89.30123388	4.25707794	-24.19028676
2.62	262	0.055	-1.011	0	-7.6203414	-0.1145916	-13.750992	89.22101976	4.39458786	-24.19601634
2.63	263	0.061	-1.01	-0.001	-7.9641162	0.1718874	-14.0947668	89.14080564	4.53209778	-24.19601634
2.64	264	0.066	-1.009	0	-7.9641162	0.0572958	-14.32395	89.06059152	4.67533728	-24.19601634
2.65	265	0.072	-1.006	-0.003	-8.0787078	-0.4010706	-14.4958374	88.97464782	4.81857678	-24.20174592
2.66	266	0.076	-1.003	-0.006	-8.3651868	-0.8021412	-14.6677248	88.88870412	4.96181628	-24.21320508
2.67	267	0.076	-1.003	-0.006	-8.6516658	-1.0313244	-14.896908	88.79703084	5.11078536	-24.23039382
2.68	268	0.075	-1.003	-0.003	-8.6516658	-1.6042824	-15.5271618	88.70535756	5.26548402	-24.24758256
2.69	269	0.075	-1.007	-0.005	-8.7089616	-2.2345362	-15.9282324	88.61368428	5.42018268	-24.27623046
2.7	270	0.076	-1.012	-0.007	-8.9954406	-2.86479	-16.3865988	88.522011	5.58061092	-24.31060794
2.71	271	0.079	-1.018	-0.009	-9.2819196	-3.0366774	-16.9595568	88.42460814	5.74676874	-24.34498542
2.72	272	0.079	-1.023	-0.011	-9.6256944	-2.578311	-17.5325148	88.3214757	5.91865614	-24.3793629
2.73	273	0.081	-1.026	-0.014	-9.9694692	-2.4064236	-17.9908812	88.21834326	6.1020027	-24.4080108
2.74	274	0.086	-1.026	-0.017	-10.4278356	-2.0626488	-18.5065434	88.10948124	6.27961968	-24.4366587
2.75	275	0.092	-1.024	-0.018	-11.0007936	-1.8907614	-18.8503182	87.98916006	6.46296624	-24.45957702
2.76	276	0.094	-1.014	-0.021	-11.6883432	-2.4064236	-18.8503182	87.86883888	6.65204238	-24.4939545
2.77	277	0.091	-1.012	-0.021	-11.8602306	-2.86479	-19.2513888	87.74278812	6.84111852	-24.52833198
2.78	278	0.092	-1.012	-0.02	-12.2040054	-3.2085648	-19.5951636	87.61673736	7.03592424	-24.56843904
2.79	279	0.096	-1.01	-0.021	-12.605076	-2.9793816	-20.05353	87.48495702	7.23072996	-24.6085461
2.8	280	0.101	-1.008	-0.023	-12.9488508	-2.86479	-20.3973048	87.3474471	7.43126526	-24.64865316
2.81	281	0.103	-1.004	-0.027	-13.178034	-3.151269	-20.912967	87.2042076	7.63753014	-24.68876022
2.82	282	0.105	-1.004	-0.031	-13.5218088	-3.3231564	-21.3713334	87.0609681	7.84379502	-24.73459686
2.83	283	0.108	-1.003	-0.032	-13.8082878	-3.151269	-21.7151082	86.9177286	8.06151906	-24.7804335
2.84	284	0.111	-1.005	-0.035	-14.1520626	-2.578311	-22.2880662	86.76875952	8.2792431	-24.82054056
2.85	285	0.116	-1.005	-0.037	-14.7823164	-2.1199446	-22.91832	86.60833128	8.50269672	-24.85491804
2.86	286	0.126	-1.005	-0.04	-15.3552744	-1.6042824	-23.5485738	86.44790304	8.73187992	-24.88356594
2.87	287	0.137	-1.007	-0.037	-15.8709366	-1.6042824	-24.2934192	86.28174522	8.97252228	-24.91794342
2.88	288	0.145	-1.005	-0.044	-16.5011904	-1.718874	-25.0955604	86.10985782	9.21889422	-24.9523209
2.89	289	0.143	-1.001	-0.045	-16.3865988	-2.6356068	-25.7258142	85.93797042	9.47099574	-24.99815754
2.9	290	0.137	-1.003	-0.052	-16.9595568	-2.9220858	-26.1268848	85.75462386	9.72309726	-25.04972376
2.91	291	0.14	-1.003	-0.058	-17.3606274	-2.7501984	-26.4706596	85.5712773	9.98092836	-25.0955604
2.92	292	0.148	-1.004	-0.061	-17.475219	-2.8074942	-26.929026	85.38220116	10.25021862	-25.14712662
2.93	293	0.157	-1.006	-0.064	-17.8762896	-3.0366774	-27.215505	85.19312502	10.5137793	-25.20442242
2.94	294	0.165	-1.006	-0.064	-18.334656	-3.437748	-27.6165756	84.99258972	10.78306956	-25.26171822
2.95	295	0.174	-1.008	-0.065	-19.0222056	-3.6096354	-28.1895336	84.78632484	11.0580894	-25.3247436
2.96	296	0.179	-1.004	-0.067	-19.7097552	-3.9534102	-28.7624916	84.57433038	11.33883882	-25.39349856
2.97	297	0.18	-1.002	-0.071	-20.2254174	-4.870143	-29.1062664	84.35087676	11.61958824	-25.47371268
2.98	298	0.184	-1.004	-0.073	-21.4286292	-5.0993262	-29.6792244	84.11596398	11.90606724	-25.55965638
2.99	299	0.176	-0.995	-0.073	-21.8296998	-5.9014674	-30.366774	83.87532162	12.2040054	-25.65132966
3	300	0.167	-0.994	-0.089	-21.9442914	-6.2452422	-30.4813656	83.63467926	12.4904844	-25.74873252
3.01	301	0.178	-0.999	-0.093	-22.4026578	-5.5003968	-30.3094782	83.38257774	12.78269298	-25.8404058
3.02	302	0.19	-0.999	-0.096	-22.7464326	-5.6722842	-30.4240698	83.13047622	13.07490156	-25.93780866
3.03	303	0.201	-0.997	-0.093	-23.3193906	-5.8441716	-30.653253	82.87264512	13.37283972	-26.03521152
3.04	304	0.211	-0.989	-0.097	-23.8923486	-5.8441716	-30.8824362	82.60908444	13.67077788	-26.13834396
3.05	305	0.211	-0.98	-0.103	-24.2934192	-6.0733548	-31.1689152	82.3340646	13.96298646	-26.2414764
3.06	306	0.212	-0.975	-0.104	-24.4080108	-6.016059	-31.3980984	82.05904476	14.2666542	-26.34460884
3.07	307	0.208	-0.966	-0.108	-24.4080108	-6.016059	-31.6272816	81.78402492	14.56459236	-26.45347086
3.08	308	0.197	-0.966	-0.115	-24.1215318	-5.9014674	-31.9137606	81.51473466	14.87398968	-26.56806246
3.09	309	0.196	-0.967	-0.126	-24.5226024	-4.4690724	-32.4867186	81.23971482	15.183387	-26.66546532
3.1	310	0.195	-0.966	-0.13	-24.6944898	-3.5523396	-33.2888598	80.96469498	15.4985139	-26.75140902
3.11	311	0.209	-0.965	-0.132	-24.7517856	-2.7501984	-34.37748	80.68967514	15.83082954	-26.83735272
3.12	312	0.239	-0.96	-0.14	-25.3247436	-2.4637194	-35.523396	80.40892572	16.16887476	-26.929026
3.13	313	0.252	-0.958	-0.151	-25.0955604	-3.4950438	-36.096354	80.12244672	16.51837914	-27.02642886
3.14	314	0.264	-0.955	-0.148	-25.0955604	-4.8128472	-36.4401288	79.83596772	16.86215394	-27.14675004
3.15	315	0.275	-0.948	-0.147	-25.0955604	-5.72958	-36.955791	79.54375914	17.21165832	-27.2728008
3.16	316	0.282	-0.943	-0.154	-24.923673	-6.7036086	-37.6433406	79.24582098	17.56689228	-27.4160403
3.17	317	0.293	-0.934	-0.161	-24.8090814	-7.8495246	-38.3308902	78.94788282	17.92785582	-27.57646854
3.18	318	0.292	-0.927	-0.167	-24.350715	-8.880849	-39.1330314	78.64421508	18.29454894	-27.74835594
3.19	319	0.291	-0.932	-0.184	-23.3193906	-10.0840608	-39.9351726	78.3520065	18.66124206	-27.93743208
3.2	320	0.286	-0.934	-0.18	-23.5485738	-9.8548776	-41.0237928	78.04833876	19.03939434	-28.12650822
3.21	321	0.285	-0.936	-0.169	-24.0069402	-9.3965112	-42.112413	77.74467102	19.42900578	-28.31558436
3.22	322	0.282	-0.943	-0.126	-25.78311	-8.4797784	-42.7999626	77.41808496	19.8243468	-28.5046605
3.23	323	0.283	-0.949	-0.072	-28.8770832	-4.1825934	-43.258329	77.07431016	20.23114698	-28.6479
3.24	324	0.31	-0.922	-0.121	-31.9710564	2.291832	-44.8626114	76.7190762	20.66659506	-28.7338437
3.25	325	0.356	-0.92	-0.212	-31.2835068	1.3750992	-45.3782736	76.36384224	21.10777272	-28.83697614
3.26	326	0.398	-0.933	-0.216	-29.8511118	-3.5523396	-44.117766	76.0028787	21.52030248	-28.98594522
3.27	327	0.392	-0.944	-0.182	-29.2781538	-6.7609044	-42.4561878	75.64191516	21.9156435	-29.16929178
3.28	328	0.362	-0.948	-0.164	-32.4294228	-5.7868758	-41.8832298	75.24657414	22.29952536	-29.34117918
3.29	329	0.34	-0.925	-0.19	-35.4088044	-4.870143	-43.544808	74.81685564	22.70632554	-29.51879616
3.3	330	0.314	-0.91	-0.223	-35.0650296	-5.2712136	-46.8106686	74.38713714	23.13031446	-29.7078723
3.31	331	0.334	-0.916	-0.229	-34.7785506	-5.72958	-50.0765292	73.95168906	23.59441044	-29.91986676
3.32	332	0.336	-0.92	-0.228	-35.523396	-5.3858052	-52.998615	73.49905224	24.08142474	-30.1375908
3.33	333	0.364	-0.908	-0.26	-37.7006364	-5.6722842	-56.2644756	73.01776752	24.59708694	-30.37823316
3.34	334	0.386	-0.899	-0.249	-39.4195104	-7.2765666	-58.3844202	72.5078349	25.12993788	-30.64752342
3.35	335	0.383	-0.881	-0.26	-39.9924684	-9.167328	-60.8481396	71.96925438	25.67424798	-30.94546158
3.36	336	0.399	-0.874	-0.239	-41.825934	-8.9381448	-62.6816052	71.40775554	26.23574682	-31.26058848
3.37	337	0.384	-0.847	-0.255	-44.0031744	-10.0840608	-65.5463952	70.80614964	26.8144344	-31.60436328
3.38	338	0.382	-0.858	-0.252	-44.0604702	-11.45916	-66.8069028	70.187355	27.39885156	-31.97678598
3.39	339	0.399	-0.84	-0.261	-45.83664	-10.9434978	-69.4425096	69.54564204	28.01191662	-32.36639742
3.4	340	0.409	-0.823	-0.267	-47.555514	-10.8289062	-71.9635248	68.8695516	28.63644084	-32.76746802
3.41	341	0.402	-0.798	-0.283	-48.3576552	-11.9748222	-74.3126526	68.16481326	29.2781538	-33.20864568
3.42	342	0.447	-0.78	-0.289	-47.269035	-11.3445684	-76.203414	67.4658045	29.9370555	-33.6612825
3.43	343	0.449	-0.777	-0.288	-47.9565846	-10.3705398	-77.5212174	66.74387742	30.60168678	-34.1196489
3.44	344	0.45	-0.761	-0.288	-47.7846972	-10.4851314	-77.6931048	66.01622076	31.26631806	-34.59520404
3.45	345	0.437	-0.753	-0.265	-45.3782736	-8.5370742	-76.776372	65.317212	31.91949018	-35.05357044
3.46	346	0.441	-0.755	-0.253	-42.398892	-5.6722842	-74.6564274	64.65258072	32.56693272	-35.48901852
3.47	347	0.462	-0.766	-0.271	-40.3362432	-2.3491278	-70.7030172	64.03378608	33.18572736	-35.87862996
3.48	348	0.437	-0.758	-0.281	-38.3308902	0.859437	-67.4944524	63.44936892	33.78733326	-36.22240476
3.49	349	0.446	-0.773	-0.293	-33.4607472	2.7501984	-64.8588456	62.92797714	34.37175042	-36.54326124
3.5	350	0.437	-0.778	-0.269	-30.9970278	5.443101	-64.457775	62.452422	34.950438	-36.8411994
3.51	351	0.439	-0.75	-0.269	-25.0382646	10.313244	-66.176649	62.03989224	35.57496222	-37.0990305
3.52	352	0.466	-0.706	-0.284	-18.6784308	19.194093	-70.473834	61.73049492	36.27970056	-37.2995658
3.53	353	0.531	-0.667	-0.373	-19.8816426	22.1161788	-81.4173318	61.38672012	37.08757134	-37.53447858
3.54	354	1.169	-0.712	-0.453	-36.8984952	17.1314442	-106.4555964	60.72781842	38.08451826	-37.9871154
3.55	355	0.507	-0.605	-0.357	-52.9413192	14.9542038	-121.9827582	59.80535604	39.20751594	-38.59445088
3.56	356	0.78	-0.528	-0.524	-30.5386614	3.6669312	-135.3899754	58.94591904	40.38207984	-39.44242872
3.57	357	0.457	-0.843	-0.329	-3.0939732	5.0993262	-134.7597216	58.35004272	41.55091416	-40.30186572
3.58	358	0.278	-0.923	-0.252	23.777757	6.4171296	-121.5243918	58.0692933	42.61088646	-41.0810886
3.59	359	-0.163	-1.259	-0.196	63.1399716	10.1986524	-81.3027402	58.39587936	43.35573186	-41.539455
3.6	360	-0.149	-1.245	-0.415	20.4546006	18.6784308	-36.2109456	58.57922592	43.7166954	-41.56237332
3.61	361	0.07	-0.962	-0.556	-27.1582092	11.3445684	-11.4018642	58.33858356	43.86566448	-41.5108071
3.62	362	0.176	-0.431	-0.482	-53.6861646	1.3750992	-20.8556712	57.6968706	44.04328146	-41.64831702
3.63	363	0.386	-0.22	-0.439	-38.9038482	-0.4010706	-45.7220484	57.05515764	44.41570416	-41.9978214
3.64	364	0.549	-0.361	-0.366	-47.8992888	7.1046792	-74.6564274	56.22436854	45.06887628	-42.49056528
3.65	365	0.641	-0.485	-0.355	-54.144531	16.902261	-84.9123756	55.32482448	45.84809916	-42.96612042
3.66	366	0.641	-0.589	-0.327	-39.820581	19.767051	-84.6831924	54.58570866	46.64451078	-43.4302164
3.67	367	0.597	-0.594	-0.21	-32.1429438	24.8663772	-89.7252228	53.9153478	47.50394778	-43.89431238
3.68	368	0.483	-0.567	-0.312	-29.220858	28.4760126	-94.9964364	53.24498694	48.42068058	-44.38132668
3.69	369	0.448	-0.46	-0.339	-19.0795014	24.064236	-98.2050012	52.5975444	49.3316838	-44.98293258
3.7	370	0.417	-0.537	-0.359	-12.891555	18.4492476	-100.0957626	51.92145396	50.2197687	-45.68767092
3.71	371	0.374	-0.471	-0.314	-16.1574156	18.2773602	-103.3616232	51.15369024	51.13077192	-46.4668938
3.72	372	0.346	-0.439	-0.293	-8.7089616	21.3713334	-107.2577376	50.42603358	52.0818822	-47.27476458
3.73	373	0.332	-0.392	-0.267	-4.8128472	25.4393352	-110.4663024	49.70983608	53.0845587	-48.10555368
3.74	374	0.291	-0.361	-0.219	1.2605076	30.1375908	-112.872726	49.0452048	54.12161268	-48.94207236
3.75	375	0.238	-0.349	-0.18	6.7609044	34.7785506	-114.5343042	48.43213974	55.19304414	-49.77286146
3.76	376	0.168	-0.356	-0.162	12.032118	39.9351726	-115.6229244	47.8706409	56.31031224	-50.5921914
3.77	377	0.135	-0.359	-0.144	15.2406828	45.3209778	-115.9094034	47.34924912	57.45622824	-51.38860302
3.78	378	0.126	-0.326	-0.127	18.048177	49.0452048	-115.0499664	46.8679644	58.6136034	-52.16209632
3.79	379	0.111	-0.297	-0.093	21.9442914	50.8213746	-114.6488958	46.40386842	59.78243772	-52.95277836
3.8	380	0.084	-0.245	-0.064	25.3820394	52.3110654	-114.4770084	45.95696118	60.95127204	-53.74918998
3.81	381	0.062	-0.213	-0.03	30.1948866	53.9153478	-114.6488958	45.51578352	62.13156552	-54.59143824
3.82	382	0.045	-0.191	-0.005	35.1796212	56.7801378	-115.737516	45.09752418	63.3405069	-55.45087524
3.83	383	0.027	-0.188	0.022	38.6173692	59.5303362	-117.5709816	44.66780568	64.57809618	-56.35614888
3.84	384	0.001	-0.152	0.01	40.2789474	62.5097178	-120.2638842	44.18652096	65.85006294	-57.3244479
3.85	385	-0.069	-0.168	0.027	42.7426668	65.4890994	-120.2638842	43.72242498	67.13348886	-58.2984765
3.86	386	-0.101	-0.129	0	43.7166954	68.8122558	-120.0919968	43.22395152	68.44556268	-59.301153
3.87	387	-0.142	-0.08	-0.029	45.3209778	73.2240324	-121.0660254	42.70828932	69.7862844	-60.33820698
3.88	388	-0.15	-0.026	-0.08	46.4668938	78.7244292	-122.7848994	42.16397922	71.17857234	-61.39817928
3.89	389	-0.105	0.023	-0.107	48.0711762	82.792431	-126.1080558	41.51653668	72.61669692	-62.57847276
3.9	390	-0.068	0.02	-0.173	51.6235158	84.0529386	-127.6550424	40.70293632	74.06628066	-63.95930154
3.91	391	-0.019	0.003	-0.255	50.993262	80.6724864	-127.3112676	39.61431612	75.4872165	-65.60942058
3.92	392	0.074	-0.017	-0.307	47.9565846	77.062851	-126.7383096	38.1303549	76.8623157	-67.62623274
3.93	393	0.186	-0.053	-0.366	45.3209778	74.1407652	-126.4518306	36.13073148	78.20303742	-70.1300592
3.94	394	0.283	-0.131	-0.444	39.3622146	69.0987348	-125.191323	33.4034514	79.4692746	-73.30424652
3.95	395	0.302	-0.202	-0.511	30.3094782	65.0880288	-121.6962792	29.82819348	80.63237934	-77.2347384
3.96	396	0.218	-0.173	-0.499	24.1215318	60.16059	-118.4304186	25.21588158	81.7038108	-82.13925888
3.97	397	0.156	-0.043	-0.53	26.642547	56.2644756	-118.4304186	19.17690426	82.66638024	-88.49909268
3.98	398	0.158	0.296	-0.496	28.1322378	47.7846972	-125.8788726	10.61691174	83.4513327	-97.40286
3.99	399	0.491	0.713	-0.45	46.0658232	77.922288	-138.7704276	-1.01986524	84.34514718	-109.5667583
4	400	1.012	1.302	-0.625	70.187355	148.6253052	-165.8140452	-21.53749122	85.49679276	-130.852148
4.01	401	2.99	1.578	-1.257	96.0850566	173.0906118	-201.0509622	-54.78624396	85.65149142	-165.1494139
4.02	402	3.996	0.585	-3.125	92.0743506	-93.7359288	-132.8689602	-54.40809168	84.01283154	-165.7051832
4.03	403	3.907	3.075	3.295	-346.066632	-226.7194806	-221.448267	-54.15599016	80.8157259	-161.9809562
4.04	404	3.99	2.221	2.705	151.2036162	406.227222	-180.1379952	-79.95055932	80.7584301	170.4091684
4.05	405	3.996	-0.296	-0.525	301.7769786	163.4649174	-77.2347384	-87.25004424	80.21984958	159.924037
4.06	406	3.372	0.858	-1.345	-206.7805422	172.2311748	-82.1048814	-98.51439852	79.3833309	150.6363878
4.07	407	2.218	1.086	-0.536	-9.6829902	101.413566	-16.5011904	-103.6538318	79.05674484	145.5198728
4.08	408	2.228	0.753	-0.108	11.4018642	90.1835892	15.8136408	-108.2317662	78.98798988	140.7528623
4.09	409	1.975	1.127	-0.076	-25.1528562	100.840608	29.9084076	-113.8524842	78.93642366	135.2925725
4.1	410	1.962	1.135	0.047	-9.9694692	69.041439	55.1758554	-118.4017707	79.14268854	130.7719339
4.11	411	1.751	0.941	0.198	9.6256944	38.2735944	78.3233586	-122.1718343	79.63543242	126.841442
4.12	412	1.253	0.694	0.279	22.0015872	-4.4690724	81.1308528	-124.223024	80.3287116	124.5266917
4.13	413	0.783	0.475	0.314	26.069589	-18.1627686	72.2500038	-125.5408274	81.0162612	122.9224093
4.14	414	0.493	0.402	0.345	20.6837838	-19.9389384	60.8481396	-126.5893405	81.61213752	121.644713
4.15	415	0.318	0.452	0.303	14.7250206	-11.45916	58.4990118	-128.2165412	82.1048814	119.8398953
4.16	416	0.174	0.468	0.289	16.2720072	-3.9534102	58.3844202	-130.5542099	82.57470696	117.3131505
4.17	417	0.029	0.417	0.304	18.6784308	4.6409598	55.7488134	-133.5565098	82.95285924	114.0931265
4.18	418	0.04	0.28	0.338	19.1367972	15.2406828	50.706783	-137.2177114	83.20496076	110.2142009
4.19	419	0.461	0.075	0.32	16.1574156	24.4653066	49.9046418	-141.6237584	83.34820026	105.6133481
4.2	420	0.553	0.13	0.309	12.032118	23.5485738	47.1544434	-146.0183463	83.41695522	101.0640616
4.21	421	0.591	0.151	0.327	10.026765	18.1054728	40.4508348	-149.7425733	83.4799806	97.21378386
4.22	422	0.597	0.154	0.35	10.313244	14.4958374	33.4034514	-152.8308169	83.51435808	94.00521906
4.23	423	0.661	0.155	0.351	11.8602306	13.8655836	31.4553942	-155.7414436	83.53154682	90.95135292
4.24	424	0.835	0.105	0.339	14.3812458	11.9175264	37.24227	-159.0416816	83.56019472	87.48495702
4.25	425	0.88	0.033	0.319	17.8762896	7.2192708	44.4615408	-162.8633115	83.61749052	83.45706228
4.26	426	0.868	-0.006	0.295	20.5691922	0.5156622	45.0344988	-166.5474314	83.73208212	79.53802956
4.27	427	0.942	-0.09	0.281	24.923673	-2.8074942	41.7113424	-169.950802	83.84094414	75.8596392
4.28	428	1.049	-0.127	0.28	24.9809688	-4.5263682	40.680018	-173.3427133	83.938347	72.18697842
4.29	429	1.129	-0.139	0.274	23.0902074	-6.589017	37.5860448	-176.5570077	84.03574986	68.72058252
4.3	430	1.197	-0.125	0.249	22.8037284	-7.9068204	34.0337052	-179.5879555	84.11596398	65.43753318
4.31	431	1.243	-0.151	0.228	22.2880662	-8.7662574	29.0489706	177.8404336	84.1961781	62.63003898
4.32	432	1.234	-0.147	0.214	19.6524594	-10.313244	26.8717302	175.3767142	84.2821218	59.95432512
4.33	433	1.22	-0.109	0.166	14.7823164	-12.9488508	23.777757	173.0734231	84.38525424	57.48487614
4.34	434	1.214	-0.067	0.137	12.7769634	-11.745639	19.9389384	171.0737996	84.47692752	55.34201322
4.35	435	1.193	-0.047	0.106	11.1153852	-12.891555	14.8396122	169.4752468	84.58005996	53.62313922
4.36	436	1.176	-0.057	0.083	9.740286	-16.5011904	8.1360036	168.449652	84.72329946	52.48868238
4.37	437	1.18	-0.095	0.056	8.6516658	-19.9389384	4.4117766	167.6818883	84.90664602	51.62924538
4.38	438	1.168	-0.12	0.041	6.0733548	-25.0955604	1.718874	167.017257	85.14728838	50.89585914
4.39	439	1.129	-0.123	0.027	3.9534102	-31.1116194	-0.572958	166.375544	85.45095612	50.20830954
4.4	440	1.083	-0.119	0.03	2.86479	-35.0077338	-3.3231564	165.6708057	85.8004605	49.4749233
4.41	441	1.045	-0.12	0.021	2.7501984	-35.4661002	-6.589017	165.5103775	86.16142404	49.274388
4.42	442	1.009	-0.106	0.019	1.9480572	-35.1223254	-9.6256944	165.7911269	86.52238758	49.53794868
4.43	443	0.978	-0.092	0.038	1.432395	-34.2055926	-11.745639	166.5417019	86.87762154	50.26560534
4.44	444	0.951	-0.057	0.068	-0.4583664	-31.2835068	-13.464513	167.9110715	87.20993718	51.64070454
4.45	445	0.95	-0.033	0.086	-1.432395	-28.5333084	-13.2353298	169.70443	87.50787534	53.43979266
4.46	446	0.914	-0.002	0.098	-2.1772404	-25.4393352	-12.6623718	171.8931296	87.7771656	55.65141054
4.47	447	0.928	0.01	0.099	-2.4637194	-22.7464326	-10.8289062	174.2021503	88.01207838	57.98907918
4.48	448	0.893	0.011	0.102	-3.3231564	-20.9702628	-8.8235532	176.4882527	88.22980242	60.30955908
4.49	449	0.887	0.009	0.097	-4.297185	-21.0848544	-7.5630456	178.9347834	88.44179688	62.7961968
4.5	450	0.866	0.015	0.085	-5.0993262	-19.3659804	-6.589017	-178.0295098	88.62514344	65.87298126
4.51	451	0.859	0.019	0.058	-5.6722842	-16.2147114	-6.302538	-174.6662463	88.7798421	69.29354052
4.52	452	0.87	0.012	0.031	-6.2452422	-11.45916	-6.5317212	-170.7242953	88.88297454	73.29851694
4.53	453	0.891	0.005	0.02	-6.6463128	-6.302538	-6.2452422	-166.8568288	88.93454076	77.22900882
4.54	454	0.926	0.007	0.005	-7.6776372	-1.432395	-5.9014674	-163.6597231	88.93454076	80.50632858
4.55	455	0.959	0.02	-0.009	-8.5370742	1.5469866	-5.443101	-160.210516	88.91735202	84.04720902
4.56	456	0.991	0.031	-0.023	-8.7089616	3.151269	-4.870143	-158.5775857	88.87151538	85.76608302
4.57	457	1.007	0.032	-0.033	-8.1932994	3.151269	-4.010706	-157.4488584	88.83140832	86.98075398
4.58	458	1.012	0.031	-0.036	-7.5630456	2.005353	-3.0366774	-156.595151	88.79703084	87.90894594
4.59	459	1.02	0.025	-0.034	-6.7609044	1.6615782	-2.291832	-156.0107338	88.77411252	88.56784764
4.6	460	1.027	0.025	-0.035	-5.9014674	1.5469866	-1.5469866	-153.5011778	88.79703084	91.13469948
4.61	461	1.033	0.026	-0.036	-4.5263682	2.2345362	-1.0886202	-153.5813919	88.77411252	91.100322
4.62	462	1.038	0.03	-0.031	-3.151269	3.0366774	-0.572958	-154.01684	88.73973504	90.6992514
4.63	463	1.036	0.028	-0.023	-1.8334656	3.7815228	0	-154.8132516	88.71108714	89.92002852
4.64	464	1.027	0.02	-0.017	-0.9740286	4.583664	0.5156622	-155.9305197	88.67098008	88.81421958
4.65	465	1.008	0.013	-0.012	-0.5156622	4.870143	0.8021412	-155.38048	88.67098008	89.36998884
4.66	466	0.985	0.011	-0.007	-0.1145916	4.6982556	0.9167328	-156.6066101	88.63087302	88.14385872
4.67	467	0.966	0.013	0.003	0.1145916	5.0420304	1.145916	-157.9014952	88.59076596	86.84897364
4.68	468	0.958	0.016	0.018	0.286479	6.589017	1.432395	-159.459941	88.53347016	85.29052788
4.69	469	0.957	0.022	0.025	0.1145916	8.021412	1.7761698	-161.1960037	88.4647152	83.54873556
4.7	470	0.958	0.022	0.034	0	9.3392154	2.2345362	-162.5367254	88.38450108	82.20801384
4.71	471	0.964	0.02	0.036	-0.0572958	10.1986524	2.6929026	-164.5191601	88.2928278	80.23130874
4.72	472	0.972	0.019	0.04	0	10.7143146	3.0366774	-166.4385694	88.20115452	78.30616986
4.73	473	0.98	0.016	0.043	0	11.3445684	3.2658606	-168.2892238	88.09802208	76.4612451
4.74	474	0.989	0.014	0.05	0.2291832	11.8602306	3.151269	-169.9450724	87.98916006	74.7996669
4.75	475	0.998	0.009	0.056	0.572958	12.3758928	2.9793816	-171.2113096	87.86883888	73.52770014
4.76	476	1.008	0.006	0.058	0.6875496	12.605076	2.7501984	-172.4775467	87.7485177	72.25573338
4.77	477	1.012	0.004	0.061	0.9167328	11.9748222	2.6929026	-173.5718965	87.6339261	71.15565402
4.78	478	1.017	0.003	0.069	1.145916	11.5164558	2.5210152	-174.5115476	87.52506408	70.19881416
4.79	479	1.022	0	0.074	1.3178034	11.172681	2.2345362	-175.3022297	87.41620206	69.39667296
4.8	480	1.03	-0.001	0.074	1.432395	10.886202	2.005353	-175.9095652	87.30161046	68.77214874
4.81	481	1.035	-0.003	0.074	1.6615782	10.8289062	1.8334656	-176.4882527	87.19847802	68.182002
4.82	482	1.037	-0.004	0.069	1.6042824	10.8289062	1.8334656	-177.0153741	87.089616	67.63196232
4.83	483	1.028	-0.001	0.067	1.3750992	9.9694692	1.6615782	-177.4737405	86.99221314	67.16213676
4.84	484	1.018	0	0.073	1.718874	8.7662574	1.5469866	-177.8633519	86.90626944	66.76106616
4.85	485	1.015	-0.001	0.083	2.0626488	8.4224826	1.4896908	-178.0982647	86.81459616	66.49750548
4.86	486	1.015	0.002	0.092	1.718874	8.59437	1.0886202	-178.367555	86.72865246	66.21675606
4.87	487	1.021	0.005	0.098	2.1199446	7.9068204	0.859437	-178.5623607	86.64843834	65.99330244
4.88	488	1.016	0.003	0.101	2.6929026	6.5317212	0.7448454	-178.7227889	86.58541296	65.80995588
4.89	489	1.018	0.003	0.108	3.3231564	5.72958	0.8021412	-178.8660284	86.52811716	65.6323389
4.9	490	1.023	-0.003	0.106	3.0366774	5.7868758	0.6302538	-178.9290538	86.44790304	65.53493604
4.91	491	1.028	-0.004	0.099	2.6356068	5.5003968	0.1145916	-178.9634313	86.39633682	65.47764024
4.92	492	1.029	-0.001	0.1	2.291832	4.870143	-0.2291832	-178.9347834	86.3447706	65.48336982
4.93	493	1.028	-0.002	0.105	1.8907614	4.7555514	-0.5156622	-178.8660284	86.29893396	65.53493604
4.94	494	1.027	-0.001	0.107	1.432395	4.6982556	-0.9167328	-178.7399777	86.25309732	65.64379806
4.95	495	1.025	0.001	0.106	1.2032118	4.2398892	-1.145916	-178.367555	86.17861278	65.99903202
4.96	496	1.022	0.002	0.104	0.8021412	3.7815228	-1.2032118	-178.2071267	86.13850572	66.15373068
4.97	497	1.02	0.001	0.096	0.572958	2.9793816	-1.2032118	-178.0466985	86.10985782	66.30842934
4.98	498	1.015	0.001	0.093	0.286479	2.3491278	-1.145916	-177.8977294	86.0869395	66.45739842
4.99	499	1.015	0.001	0.092	-0.1718874	2.005353	-1.2032118	-177.7373012	86.06402118	66.61782666
5	500	1.015	0.002	0.091	-0.5156622	1.5469866	-1.3178034	-177.2101798	86.0296437	67.14494802
5.01	501	1.014	0.004	0.091	-0.6875496	1.432395	-1.4896908	-177.0211037	86.01245496	67.33975374
5.02	502	1.012	0.005	0.089	-0.8021412	1.4896908	-1.5469866	-176.826298	86.0009958	67.54601862
5.03	503	1.007	0.006	0.084	-0.9167328	1.2605076	-1.6042824	-176.6200331	85.98380706	67.75801308
5.04	504	1.004	0.009	0.083	-1.0886202	0.9167328	-1.432395	-176.4424161	85.9723479	67.9528188
5.05	505	1	0.011	0.084	-1.2605076	0.6302538	-1.2605076	-175.6001678	85.95515916	68.79506706
5.06	506	0.999	0.013	0.083	-1.2605076	0.572958	-0.9740286	-175.4798467	85.94942958	68.93257698
5.07	507	1.002	0.013	0.08	-1.3750992	0.4583664	-0.572958	-175.4225509	85.9437	69.00133194
5.08	508	1.001	0.013	0.081	-1.3750992	0	-0.1145916	-175.4168213	85.9437	69.02425026
5.09	509	1.002	0.013	0.082	-1.2032118	0	0.1145916	-175.4511988	85.94942958	69.00133194
5.1	510	1	0.011	0.079	-0.9167328	0.1718874	0.4010706	-174.4256039	85.96661832	70.02692676
5.11	511	0.998	0.01	0.073	-0.5156622	0.0572958	0.5156622	-174.5115476	85.96661832	69.94671264
5.12	512	0.998	0.009	0.079	-0.3437748	-0.0572958	0.7448454	-174.6204097	85.96661832	69.8435802
5.13	513	1	0.01	0.088	-0.2291832	0	0.9167328	-174.75219	85.9723479	69.71179986
5.14	514	1.005	0.01	0.094	0.1718874	-0.1145916	1.145916	-174.9126182	85.9723479	69.54564204
5.15	515	1.011	0.009	0.095	0.6302538	-0.1145916	1.432395	-174.574573	85.93797042	69.8722281
5.16	516	1.015	0.01	0.097	0.859437	0	1.6615782	-174.7980266	85.93797042	69.63731532
5.17	517	1.014	0.008	0.098	0.9740286	0.286479	1.7761698	-175.0443986	85.93797042	69.37375464
5.18	518	1.012	0.006	0.097	1.0313244	0.6302538	1.8907614	-175.3136888	85.93224084	69.09300522
5.19	519	1.009	0.004	0.093	1.145916	0.859437	1.8907614	-175.5829791	85.92651126	68.8122558
5.2	520	1.004	0.001	0.086	1.2605076	0.859437	1.7761698	-175.6288157	85.90932252	68.74923042
5.21	521	0.999	0	0.088	1.145916	0.6875496	1.6042824	-175.8522694	85.90359294	68.51431764
5.22	522	1	-0.001	0.085	1.0886202	0.7448454	1.3178034	-176.0413455	85.89213378	68.31378234
5.23	523	1.006	-0.003	0.084	0.6302538	0.8021412	1.0313244	-176.1903146	85.8864042	68.15908368
5.24	524	1.007	-0.002	0.084	0.1718874	0.6302538	0.6875496	-176.293447	85.88067462	68.05022166
5.25	525	1.007	-0.001	0.082	0	0.572958	0.5156622	-175.9439426	85.8864042	68.39399646
5.26	526	1.004	0	0.08	-0.4010706	0.572958	0.3437748	-176.006968	85.88067462	68.33670066
5.27	527	1.002	0.001	0.079	-0.6875496	0.7448454	0.1718874	-176.0585342	85.86921546	68.2965936
5.28	528	1.004	0.001	0.078	-0.8021412	1.0313244	0.1145916	-176.1043709	85.8577563	68.26221612
5.29	529	1.004	0.003	0.079	-1.0886202	1.2605076	0.0572958	-176.1444779	85.84629714	68.22783864
5.3	530	1.004	0.004	0.083	-1.2032118	1.6615782	0.0572958	-175.829351	85.83483798	68.5544247
5.31	531	1	0.003	0.083	-1.0886202	1.6615782	0.1718874	-175.8923764	85.81764924	68.50285848
5.32	532	0.995	0.005	0.086	-1.0313244	1.432395	0.2291832	-175.9554018	85.8004605	68.45129226
5.33	533	0.996	0.005	0.087	-1.145916	1.4896908	0.286479	-176.0298863	85.78900134	68.38826688
5.34	534	0.997	0.005	0.082	-1.0886202	1.4896908	0.4010706	-176.11583	85.7718126	68.30805276
5.35	535	0.997	0.005	0.081	-1.145916	1.7761698	0.5156622	-175.966861	85.76035344	68.468481
5.36	536	0.996	0.005	0.085	-1.0886202	1.8907614	0.6302538	-176.0929117	85.7431647	68.3538894
5.37	537	0.998	0.004	0.091	-0.9167328	1.9480572	0.7448454	-176.2304216	85.72024638	68.22783864
5.38	538	1.002	0.003	0.093	-0.4583664	1.8907614	0.859437	-176.3793907	85.70305764	68.08459914
5.39	539	1.006	0.002	0.097	-0.2291832	1.718874	0.9740286	-176.5340894	85.6858689	67.92990048
5.4	540	1.011	0.002	0.102	-0.1145916	1.8907614	0.9740286	-176.4309569	85.64003226	68.02730334
5.41	541	1.013	0.001	0.1	0.0572958	2.005353	0.9740286	-176.579926	85.62284352	67.87833426
5.42	542	1.012	0.001	0.101	0.0572958	2.005353	0.8021412	-176.7117064	85.5999252	67.74655392
5.43	543	1.01	0	0.101	0.0572958	2.005353	0.6875496	-176.826298	85.58273646	67.63196232
5.44	544	1.009	0.002	0.101	0.2291832	1.8334656	0.6302538	-176.9294304	85.56554772	67.5231003
5.45	545	1.009	0.001	0.099	0.2291832	1.718874	0.572958	-176.6945176	85.52544066	67.7522835
5.46	546	1.009	0.002	0.098	0.1718874	1.6615782	0.6302538	-176.7976501	85.50825192	67.64915106
5.47	547	1.01	0.001	0.096	0.1145916	1.6042824	0.572958	-176.8893233	85.49106318	67.5517482
5.48	548	1.011	0.001	0.094	0.0572958	1.6615782	0.6302538	-176.9867262	85.47387444	67.45434534
5.49	549	1.009	0	0.093	-0.1718874	1.5469866	0.5156622	-177.0783995	85.46241528	67.36840164
5.5	550	1.006	0.001	0.092	-0.1145916	1.5469866	0.4010706	-176.7861909	85.43949696	67.65488064
5.51	551	1.004	0	0.093	0	1.4896908	0.4010706	-176.8549459	85.4280378	67.58612568
5.52	552	1.003	0.001	0.095	-0.0572958	1.4896908	0.3437748	-176.9179712	85.41084906	67.5231003
5.53	553	1.003	0	0.098	-0.0572958	1.6042824	0.286479	-176.975267	85.39366032	67.4658045
5.54	554	1.004	0	0.1	-0.0572958	1.4896908	0.286479	-177.0325628	85.38220116	67.41423828
5.55	555	1.004	0.001	0.1	0	1.3750992	0.4010706	-176.7632726	85.34782368	67.67779896
5.56	556	1.004	0	0.1	0	1.4896908	0.4010706	-176.826298	85.33063494	67.609044
5.57	557	1.004	0	0.1	-0.1145916	1.3750992	0.4583664	-176.9007825	85.31917578	67.53455946
5.58	558	1.002	0	0.097	-0.1145916	1.2605076	0.5156622	-176.9809966	85.30771662	67.45434534
5.59	559	1	0	0.097	-0.286479	1.2605076	0.4583664	-177.0612107	85.29625746	67.3798608
5.6	560	0.998	0	0.099	-0.3437748	1.5469866	0.4010706	-176.9065121	85.26760956	67.53455946
5.61	561	1.002	-0.001	0.095	-0.286479	1.718874	0.1718874	-176.9523487	85.25042082	67.48872282
5.62	562	1.003	0	0.097	-0.1145916	1.4896908	0.1145916	-176.9867262	85.23323208	67.46007492
5.63	563	1.005	0.002	0.102	-0.1718874	1.3750992	0.2291832	-177.0325628	85.22177292	67.41423828
5.64	564	1.007	0.001	0.105	-0.4010706	1.4896908	0.286479	-177.0898586	85.20458418	67.36267206
5.65	565	1.007	0	0.105	-0.286479	1.5469866	0.4010706	-176.8893233	85.17593628	67.56320736
5.66	566	1.005	0	0.101	-0.2291832	1.6042824	0.4583664	-176.9638079	85.15874754	67.48872282
5.67	567	1.003	-0.002	0.1	-0.1145916	1.6042824	0.5156622	-177.0382924	85.1415588	67.41423828
5.68	568	1.003	-0.003	0.101	-0.1718874	1.5469866	0.4583664	-177.112777	85.13009964	67.34548332
5.69	569	1.006	-0.003	0.105	-0.286479	1.6042824	0.3437748	-177.1758023	85.1129109	67.28245794
5.7	570	1.009	-0.001	0.107	-0.3437748	1.4896908	0.1718874	-176.9809966	85.06707426	67.48299324
5.71	571	1.009	-0.002	0.107	-0.2291832	1.2605076	0.1145916	-177.0039149	85.0556151	67.45434534
5.72	572	1.007	0	0.104	-0.0572958	1.2605076	0	-177.0211037	85.04415594	67.44288618
5.73	573	1.002	0	0.103	0.1145916	0.3437748	-0.3437748	-176.9809966	85.03842636	67.48299324
5.74	574	0.998	0	0.104	0.286479	-0.6302538	-0.572958	-176.9007825	85.04415594	67.55747778
5.75	575	0.999	0.002	0.103	0.4010706	-0.7448454	-0.5156622	-176.4767936	85.03269678	67.97573712
5.76	576	1.003	0.002	0.105	0.4583664	-0.6875496	-0.5156622	-176.3965795	85.03842636	68.04449208
5.77	577	1.007	0.001	0.108	0.4583664	-0.6875496	-0.4583664	-176.3278245	85.04415594	68.10751746
5.78	578	1.011	0.001	0.106	0.6875496	-0.6302538	-0.3437748	-176.2762583	85.04988552	68.15908368
5.79	579	1.011	0	0.106	0.8021412	-0.7448454	-0.3437748	-176.2189625	85.06134468	68.20492032
5.8	580	1.008	0.001	0.107	0.6302538	-0.6302538	-0.2291832	-175.898106	85.03269678	68.50858806
5.81	581	1.004	0.001	0.105	0.7448454	-0.8021412	-0.2291832	-175.8522694	85.03842636	68.54869512
5.82	582	1	0.001	0.102	0.7448454	-0.9740286	-0.2291832	-175.8064327	85.04988552	68.58880218
5.83	583	0.998	0	0.102	0.6302538	-1.0886202	-0.1718874	-175.7605961	85.06134468	68.62317966
5.84	584	1.001	0	0.108	0.5156622	-1.0886202	0	-175.7491369	85.07280384	68.63463882
5.85	585	1.006	-0.002	0.109	0.6875496	-1.432395	0	-175.6517341	85.0556151	68.7263121
5.86	586	1.009	-0.001	0.111	0.8021412	-1.6615782	-0.0572958	-175.6058974	85.07280384	68.75496
5.87	587	1.009	0	0.112	0.6875496	-1.6042824	-0.0572958	-175.5715199	85.08999258	68.78933748
5.88	588	1.008	0	0.108	0.4583664	-1.5469866	-0.1718874	-175.5256833	85.10718132	68.82944454
5.89	589	1.003	-0.002	0.105	0.4010706	-1.432395	-0.1718874	-175.4798467	85.11864048	68.8695516
5.9	590	0.999	0	0.105	0.4583664	-1.2605076	-0.2291832	-175.325148	85.10718132	69.0127911
5.91	591	0.996	0	0.102	0.4583664	-1.145916	-0.286479	-175.2678522	85.11864048	69.06435732
5.92	592	0.996	0	0.103	0.3437748	-1.2032118	-0.2291832	-175.2220156	85.13009964	69.11019396
5.93	593	0.998	0	0.102	0.286479	-1.3178034	-0.1718874	-175.1761789	85.1415588	69.1560306
5.94	594	0.999	0	0.107	0.1145916	-1.432395	-0.0572958	-175.1418014	85.15874754	69.1846785
5.95	595	1.004	0	0.109	0	-1.3750992	-0.0572958	-174.9756436	85.13582922	69.34510674
5.96	596	1.004	0	0.107	-0.0572958	-1.2605076	-0.0572958	-174.9469957	85.14728838	69.37375464
5.97	597	1.002	-0.001	0.106	-0.1145916	-1.3178034	-0.1718874	-174.9126182	85.15874754	69.4138617
5.98	598	1	-0.002	0.105	-0.1718874	-1.2605076	-0.1718874	-174.8782408	85.1702067	69.45396876
5.99	599	0.999	-0.001	0.105	-0.3437748	-1.2605076	-0.1718874	-174.8381337	85.18166586	69.49407582
6	600	1	0	0.104	-0.286479	-1.145916	-0.2291832	-174.7120829	85.16447712	69.62012658
6.01	601	1.001	0	0.105	-0.3437748	-1.2032118	-0.2291832	-174.6662463	85.17593628	69.66596322
6.02	602	1.002	0.001	0.104	-0.3437748	-1.0886202	-0.2291832	-174.6261392	85.18739544	69.71179986
6.03	603	1.003	0.001	0.101	-0.3437748	-1.2032118	-0.1145916	-174.5974913	85.1988546	69.74044776
6.04	604	1.001	0.001	0.102	-0.4583664	-1.2032118	0	-174.5803026	85.21604334	69.76336608
6.05	605	1.001	0.001	0.103	-0.4583664	-1.0313244	0	-174.3167419	85.18739544	70.03265634
6.06	606	1.001	0.002	0.104	-0.4010706	-0.6875496	0.0572958	-174.3167419	85.19312502	70.03265634
6.07	607	1.002	0.002	0.106	-0.286479	-0.5156622	0	-174.3224715	85.1988546	70.03265634
6.08	608	1.004	0.001	0.107	-0.286479	-0.4010706	0.1145916	-174.3339307	85.20458418	70.02119718
6.09	609	1.005	0.001	0.105	-0.2291832	-0.3437748	0.1718874	-174.3511194	85.21031376	70.00973802
6.1	610	1.002	0.001	0.103	-0.1718874	-0.286479	0.2291832	-174.001615	85.15874754	70.35351282
6.11	611	1	0	0.102	-0.2291832	-0.1718874	0.286479	-174.0359925	85.16447712	70.31913534
6.12	612	0.998	0	0.103	-0.1718874	-0.286479	0.3437748	-174.07037	85.16447712	70.28475786
6.13	613	0.998	0	0.107	0	-0.4010706	0.3437748	-174.110477	85.1702067	70.2446508
6.14	614	1.001	0	0.109	0	-0.572958	0.286479	-174.1391249	85.17593628	70.22173248
6.15	615	1.006	0	0.108	-0.0572958	-0.4583664	0.286479	-174.0589108	85.10145174	70.29048744
6.16	616	1.008	-0.001	0.108	0	-0.5156622	0.286479	-174.0932883	85.10718132	70.26183954
6.17	617	1.008	-0.001	0.112	-0.1145916	-0.3437748	0.1718874	-174.1162066	85.1129109	70.23892122
6.18	618	1.007	0	0.111	0	-0.1718874	0.2291832	-174.1391249	85.1129109	70.21027332
6.19	619	1.006	0	0.11	0.1145916	-0.4010706	0.1718874	-174.1563137	85.11864048	70.19308458
6.2	620	1.006	-0.001	0.113	0.1145916	-0.4010706	0.2291832	-174.179232	85.02123762	70.16443668
6.21	621	1.007	0	0.113	0.1145916	-0.3437748	0.1718874	-174.1964207	85.0269672	70.14151836
6.22	622	1.006	-0.001	0.109	0.1145916	-0.5156622	0.1718874	-174.2136095	85.03269678	70.1300592
6.23	623	1.005	-0.002	0.109	0	-0.5156622	0.1718874	-174.2250686	85.03842636	70.11860004
6.24	624	1.003	-0.002	0.108	0.0572958	-0.4010706	0.1718874	-174.2365278	85.03842636	70.1014113
6.25	625	1	-0.002	0.109	0	-0.6302538	0	-174.2938236	84.98113056	70.0441155
6.26	626	1	-0.002	0.109	0	-0.7448454	0	-174.2823644	84.99258972	70.05557466
6.27	627	1	-0.002	0.111	0.1145916	-0.6302538	0	-174.2651757	84.9983193	70.06703382
6.28	628	1.003	-0.004	0.11	0	-0.3437748	-0.0572958	-174.247987	84.9983193	70.08422256
6.29	629	1.008	-0.004	0.109	-0.0572958	-0.5156622	-0.1718874	-174.2193391	85.00404888	70.11860004
6.3	630	1.009	0	0.112	0	-0.8021412	-0.2291832	-174.0932883	84.9696714	70.23892122
6.31	631	1.009	0	0.115	0	-0.8021412	-0.2291832	-174.0531812	84.97540098	70.27902828
6.32	632	1.008	0	0.116	-0.0572958	-0.2291832	-0.286479	-174.0188038	84.98113056	70.31913534
6.33	633	1.004	0	0.112	-0.0572958	-0.0572958	-0.1718874	-173.9901559	84.98113056	70.34205366
6.34	634	1.002	-0.002	0.109	0	0.1145916	-0.1145916	-173.9786967	84.98113056	70.35351282
6.35	635	1.001	-0.002	0.11	-0.1145916	0.3437748	-0.1145916	-173.9844263	84.92383476	70.35351282
6.36	636	1.004	-0.001	0.112	-0.2291832	0.4010706	0	-173.9901559	84.91810518	70.34205366
6.37	637	1.006	-0.001	0.112	-0.286479	0.3437748	0	-174.001615	84.9123756	70.33632408
6.38	638	1.007	-0.002	0.112	-0.4583664	0.2291832	0	-174.0073446	84.9123756	70.33632408
6.39	639	1.004	-0.002	0.113	-0.4010706	0	-0.0572958	-174.001615	84.9123756	70.34205366
6.4	640	1.002	-0.002	0.111	-0.3437748	-0.2291832	-0.1145916	-173.9500488	84.84362064	70.39934946
6.41	641	0.998	-0.001	0.107	-0.2291832	-0.3437748	-0.1718874	-173.9271305	84.84935022	70.42226778
6.42	642	0.999	-0.002	0.109	-0.1718874	-0.6302538	-0.1145916	-173.8984826	84.8550798	70.45091568
6.43	643	1.002	-0.001	0.112	-0.0572958	-0.7448454	-0.1718874	-173.8698347	84.86080938	70.48529316
6.44	644	1.005	0	0.117	0.0572958	-0.6875496	-0.1718874	-173.8354572	84.86653896	70.51967064
6.45	645	1.01	0	0.118	0.2291832	-0.7448454	-0.1718874	-173.8469164	84.83216148	70.5024819
6.46	646	1.01	0	0.119	0.2291832	-0.7448454	-0.0572958	-173.8182685	84.83789106	70.52540022
6.47	647	1.009	-0.001	0.12	0.3437748	-0.6302538	0	-173.8010797	84.84362064	70.53685938
6.48	648	1.005	0.001	0.12	0.3437748	-0.4583664	0	-173.7953501	84.84935022	70.54258896
6.49	649	1.005	0	0.114	0.4583664	-0.4583664	0.0572958	-173.7953501	84.8550798	70.53685938
6.5	650	0.999	0	0.11	0.4010706	-0.572958	0.286479	-173.783891	84.83216148	70.54258896
6.51	651	0.998	-0.001	0.109	0.4010706	-0.6875496	0.286479	-173.8010797	84.83789106	70.51967064
6.52	652	0.998	-0.002	0.113	0.286479	-0.6875496	0.3437748	-173.8297276	84.84935022	70.48529316
6.53	653	1.007	-0.004	0.115	0.4010706	-0.6302538	0.286479	-173.8526459	84.8550798	70.46237484
6.54	654	1.01	-0.005	0.115	0.572958	-0.9740286	0.4010706	-173.8812938	84.86653896	70.42799736
6.55	655	1.015	-0.001	0.116	0.5156622	-0.9740286	0.286479	-173.9214009	84.84935022	70.37643114
6.56	656	1.012	-0.003	0.119	0.8021412	-1.0886202	0.4010706	-173.9443192	84.86080938	70.34778324
6.57	657	1.008	-0.001	0.118	0.8021412	-0.9167328	0.286479	-173.9500488	84.87226854	70.3305945
6.58	658	1.001	-0.003	0.117	0.7448454	-0.859437	0.286479	-173.9672375	84.8837277	70.30767618
6.59	659	0.999	-0.001	0.113	0.6302538	-0.572958	0.2291832	-173.9786967	84.88945728	70.29048744
6.6	660	0.997	-0.005	0.113	0.4010706	-0.4583664	0.2291832	-174.1162066	84.83789106	70.14724794
6.61	661	1	-0.003	0.11	0.1145916	-0.2291832	0.1718874	-174.1333954	84.83789106	70.12432962
6.62	662	0.998	-0.004	0.111	0.1145916	-0.2291832	0.286479	-174.1620433	84.84362064	70.09568172
6.63	663	1.003	-0.004	0.107	-0.1718874	0	0.1718874	-174.1849616	84.84362064	70.07849298
6.64	664	0.999	-0.004	0.112	-0.3437748	0.1145916	0.2291832	-174.2193391	84.83789106	70.0441155
6.65	665	1.003	-0.004	0.108	-0.4583664	0.3437748	0.1718874	-174.4370631	84.80924316	69.83212104
6.66	666	1	-0.001	0.111	-0.6875496	0.3437748	0.1718874	-174.4771702	84.80351358	69.80347314
6.67	667	1.001	-0.004	0.11	-0.6302538	0.4010706	0.3437748	-174.5287364	84.797784	69.75190692
6.68	668	1	0	0.113	-0.859437	0.6875496	0.2291832	-174.5803026	84.79205442	69.71179986
6.69	669	1.005	-0.005	0.11	-0.6875496	0.6875496	0.4010706	-174.643328	84.78632484	69.65450406
6.7	670	0.998	0	0.111	-0.9167328	0.8021412	0.4583664	-174.6547871	84.7691361	69.65450406
6.71	671	1.005	-0.005	0.106	-0.6875496	0.8021412	0.572958	-174.7350013	84.76340652	69.58001952
6.72	672	0.994	-0.002	0.113	-1.0886202	0.9740286	0.6875496	-174.8324041	84.75194736	69.49407582
6.73	673	0.998	-0.002	0.111	-1.0313244	1.3178034	0.572958	-174.9240774	84.7404882	69.4138617
6.74	674	0.998	-0.004	0.113	-0.859437	1.145916	0.8021412	-175.038669	84.72902904	69.31072926
6.75	675	0.998	0	0.113	-0.9740286	1.2032118	0.859437	-175.1303423	84.70611072	69.23051514
6.76	676	1	-0.003	0.109	-0.8021412	1.145916	0.9167328	-175.2506635	84.70038114	69.11019396
6.77	677	0.996	-0.005	0.109	-0.9740286	0.9740286	1.0313244	-175.3881734	84.68892198	68.9841432
6.78	678	0.998	-0.006	0.106	-0.9740286	0.9740286	1.145916	-175.5314129	84.67746282	68.85236286
6.79	679	0.995	-0.006	0.11	-0.8021412	0.9167328	1.0313244	-175.6689228	84.67173324	68.72058252
6.8	680	0.997	-0.008	0.114	-0.6875496	0.6875496	0.8021412	-175.8637285	84.64881492	68.53150638
6.81	681	1.002	-0.009	0.119	-0.3437748	0.572958	0.7448454	-175.9554018	84.64308534	68.44556268
6.82	682	1.008	-0.007	0.123	0	0.4583664	0.6875496	-176.0356159	84.63735576	68.36534856
6.83	683	1.011	-0.007	0.126	0.1718874	0.5156622	0.5156622	-176.0986413	84.63162618	68.30232318
6.84	684	1.011	-0.007	0.127	0.1718874	0.5156622	0.3437748	-176.1387484	84.6258966	68.25648654
6.85	685	1.01	-0.009	0.128	0.3437748	0.4010706	0.2291832	-176.3507428	84.55714164	68.04449208
6.86	686	1.008	-0.009	0.126	0.4010706	0.2291832	0.1718874	-176.3679316	84.55714164	68.02157376
6.87	687	1.006	-0.009	0.126	0.4583664	0.2291832	0	-176.3679316	84.55141206	68.02157376
6.88	688	1.007	-0.01	0.125	0.4583664	0.0572958	-0.1145916	-176.3507428	84.55141206	68.03303292
6.89	689	1.006	-0.009	0.124	0.4010706	0	-0.3437748	-176.3049062	84.55141206	68.07313998
6.9	690	1.006	-0.009	0.123	0.572958	0.0572958	-0.4583664	-176.4080386	84.50557542	67.95854838
6.91	691	1.007	-0.008	0.122	0.572958	-0.3437748	-0.6875496	-176.3220949	84.50557542	68.0387625
