TimeStamp(s)	FrameCounter	AccX	AccY	AccZ	GyrX	GyrY	GyrZ	EulerX	EulerY	EulerZ
0.01	1	0.092	-0.998	-0.14	6.0733548	-0.1145916	2.7501984	75.65337432	16.0714719	-13.9228794
0.02	2	0.004	-1.022	-0.098	4.0680018	13.464513	2.3491278	75.73358844	16.07720148	-13.7796399
0.03	3	0.011	-1.028	-0.098	3.7815228	14.1520626	2.9793816	75.80807298	16.07720148	-13.63067082
0.04	4	0.015	-1.022	-0.097	3.724227	14.7250206	3.151269	75.8882871	16.07720148	-13.47597216
0.05	5	0.015	-1.012	-0.099	3.6669312	14.896908	2.6356068	76.0315266	15.95115072	-13.33273266
0.06	6	0.016	-1.002	-0.099	3.437748	14.9542038	2.005353	76.10601114	15.96260988	-13.178034
0.07	7	0.018	-0.998	-0.099	3.437748	14.7250206	1.5469866	76.18622526	15.97979862	-13.02333534
0.08	8	0.021	-0.999	-0.106	3.4950438	14.5531332	1.2032118	76.2607098	15.99698736	-12.87436626
0.09	9	0.025	-1.001	-0.11	3.6669312	13.6936962	1.3750992	76.33519434	16.0141761	-12.73112676
0.1	10	0.029	-1.005	-0.109	3.724227	13.178034	1.6042824	76.46697468	15.88812534	-12.61080558
0.11	11	0.034	-1.007	-0.107	3.8961144	12.7769634	1.8334656	76.54145922	15.89385492	-12.47902524
0.12	12	0.036	-1.004	-0.104	3.6669312	11.745639	2.1199446	76.61594376	15.8995845	-12.35297448
0.13	13	0.036	-1.002	-0.101	3.0366774	10.4278356	2.2345362	76.67323956	15.8995845	-12.24411246
0.14	14	0.036	-1.003	-0.098	2.5210152	9.8548776	2.1772404	76.72480578	15.89385492	-12.14098002
0.15	15	0.034	-1.005	-0.091	2.1772404	9.2819196	2.005353	76.87377486	15.6990492	-12.05503632
0.16	16	0.032	-1.007	-0.093	1.6042824	8.4797784	1.718874	76.91388192	15.6990492	-11.96909262
0.17	17	0.033	-1.009	-0.098	1.2605076	7.9068204	1.4896908	76.9482594	15.6990492	-11.88314892
0.18	18	0.033	-1.007	-0.097	1.0313244	7.2765666	1.2605076	76.9769073	15.70477878	-11.80866438
0.19	19	0.036	-1.004	-0.098	0.7448454	7.2192708	1.145916	77.0055552	15.70477878	-11.72845026
0.2	20	0.04	-1	-0.1	0.8021412	7.1046792	1.145916	77.15452428	15.4412181	-11.68261362
0.21	21	0.04	-0.996	-0.102	0.6302538	6.4744254	1.2032118	77.1774426	15.4412181	-11.61385866
0.22	22	0.039	-0.995	-0.098	0.6302538	5.72958	1.0313244	77.20036092	15.44694768	-11.55656286
0.23	23	0.035	-0.999	-0.095	0.5156622	5.3285094	0.8021412	77.21754966	15.44694768	-11.49926706
0.24	24	0.03	-1.007	-0.095	-0.1145916	5.0420304	0.4010706	77.22900882	15.45267726	-11.44770084
0.25	25	0.027	-1.015	-0.098	-0.6875496	4.9274388	0.0572958	77.41808496	15.04587708	-11.44770084
0.26	26	0.023	-1.02	-0.099	-1.0313244	4.7555514	-0.0572958	77.41808496	15.05160666	-11.4018642
0.27	27	0.019	-1.018	-0.101	-1.3178034	4.5263682	-0.0572958	77.41808496	15.06306582	-11.35602756
0.28	28	0.018	-1.01	-0.099	-1.432395	4.1825934	-0.1718874	77.41235538	15.0687954	-11.31019092
0.29	29	0.017	-1	-0.097	-1.6615782	3.8961144	-0.3437748	77.4066258	15.08025456	-11.27581344
0.3	30	0.019	-0.994	-0.101	-1.7761698	4.297185	-0.4010706	77.55559488	14.70210228	-11.28154302
0.31	31	0.022	-0.991	-0.104	-1.9480572	4.583664	-0.5156622	77.54413572	14.71929102	-11.23570638
0.32	32	0.024	-0.993	-0.103	-1.8907614	4.6982556	-0.4010706	77.53840614	14.73075018	-11.18986974
0.33	33	0.025	-0.995	-0.106	-1.8907614	4.6409598	-0.4010706	77.52694698	14.74220934	-11.1440331
0.34	34	0.028	-0.994	-0.114	-2.0626488	4.1825934	-0.4010706	77.51548782	14.7536685	-11.10392604
0.35	35	0.03	-0.992	-0.112	-2.0626488	3.6669312	-0.4010706	77.64726816	14.39270496	-11.12111478
0.36	36	0.031	-0.993	-0.114	-1.9480572	3.0366774	-0.5156622	77.63007942	14.40416412	-11.0867373
0.37	37	0.03	-0.996	-0.112	-2.005353	2.5210152	-0.7448454	77.61862026	14.41562328	-11.06381898
0.38	38	0.028	-1.001	-0.107	-2.1199446	2.0626488	-0.7448454	77.60143152	14.42708244	-11.04663024
0.39	39	0.029	-1.003	-0.1	-2.4064236	1.3750992	-0.9167328	77.5785132	14.4385416	-11.03517108
0.4	40	0.029	-1.004	-0.101	-2.4064236	1.0313244	-0.8021412	77.78477808	13.91142024	-11.09246688
0.41	41	0.031	-1.003	-0.104	-2.5210152	0.572958	-0.6875496	77.76185976	13.91714982	-11.0867373
0.42	42	0.03	-1.001	-0.104	-2.291832	-0.1718874	-0.5156622	77.73894144	13.9228794	-11.09246688
0.43	43	0.027	-1	-0.102	-2.1199446	-0.7448454	-0.5156622	77.71029354	13.9228794	-11.09819646
0.44	44	0.023	-0.999	-0.101	-2.4637194	-0.9740286	-0.7448454	77.68737522	13.92860898	-11.10965562
0.45	45	0.02	-0.999	-0.103	-2.6929026	-0.9167328	-0.6302538	77.87645136	13.39575804	-11.18986974
0.46	46	0.02	-0.997	-0.103	-2.8074942	-1.0313244	-0.4583664	77.84780346	13.39575804	-11.2013289
0.47	47	0.02	-0.995	-0.101	-2.6356068	-1.145916	-0.1718874	77.81915556	13.39575804	-11.21851764
0.48	48	0.02	-0.996	-0.099	-2.6356068	-1.2605076	0	77.78477808	13.39575804	-11.2299768
0.49	49	0.021	-0.997	-0.1	-2.8074942	-1.3178034	0.1145916	77.75613018	13.39002846	-11.24143596
0.5	50	0.023	-1	-0.098	-2.6356068	-1.6615782	0.4010706	77.91655842	12.97176912	-11.30446134
0.51	51	0.024	-1.001	-0.098	-2.6929026	-1.8907614	0.7448454	77.88218094	12.96030996	-11.32165008
0.52	52	0.022	-1.003	-0.1	-2.578311	-2.4064236	0.9740286	77.85353304	12.9488508	-11.3445684
0.53	53	0.022	-1.002	-0.098	-2.4637194	-2.86479	0.859437	77.81915556	12.93166206	-11.3732163
0.54	54	0.022	-0.998	-0.095	-2.291832	-3.0939732	0.7448454	77.79050766	12.9202029	-11.4018642
0.55	55	0.024	-0.992	-0.1	-1.6615782	-3.724227	0.572958	77.922288	12.57069852	-11.47634874
0.56	56	0.025	-0.987	-0.097	-0.859437	-4.8128472	0.4010706	77.89936968	12.55923936	-11.52218538
0.57	57	0.025	-0.982	-0.089	0	-5.5576926	0.5156622	77.88791052	12.54205062	-11.57948118
0.58	58	0.023	-0.982	-0.088	0.7448454	-5.6722842	0.6875496	77.88791052	12.52486188	-11.63677698
0.59	59	0.02	-0.986	-0.089	1.4896908	-5.9014674	0.7448454	77.8936401	12.50767314	-11.69407278
0.6	60	0.019	-0.993	-0.09	2.3491278	-6.1879464	0.6302538	78.0082317	12.28421952	-11.7742869
0.61	61	0.017	-0.997	-0.093	3.6669312	-6.4744254	0.4583664	78.03115002	12.26703078	-11.83731228
0.62	62	0.019	-0.999	-0.091	4.7555514	-6.8182002	0.0572958	78.0655275	12.25557162	-11.90606724
0.63	63	0.021	-1.001	-0.091	5.5576926	-7.448454	-0.3437748	78.11136414	12.24984204	-11.98055178
0.64	64	0.023	-0.999	-0.091	6.016059	-7.9641162	-0.7448454	78.15720078	12.23838288	-12.0607659
0.65	65	0.022	-0.996	-0.091	6.589017	-8.2505952	-1.0886202	78.26033322	12.12952086	-12.15816876
0.66	66	0.023	-0.994	-0.094	6.9900876	-8.5370742	-1.5469866	78.31189944	12.12952086	-12.24411246
0.67	67	0.021	-0.992	-0.096	7.5057498	-8.5370742	-1.718874	78.37492482	12.12952086	-12.33005616
0.68	68	0.015	-0.989	-0.093	8.3651868	-8.59437	-1.8907614	78.44367978	12.13525044	-12.42172944
0.69	69	0.009	-0.987	-0.09	8.880849	-8.3651868	-1.8334656	78.51243474	12.14098002	-12.50767314
0.7	70	0.007	-0.984	-0.089	9.3392154	-7.734933	-1.6615782	78.6384855	12.03784758	-12.59934642
0.71	71	0.002	-0.986	-0.088	9.6829902	-7.161975	-1.6615782	78.7244292	12.04357716	-12.67383096
0.72	72	0.003	-0.989	-0.089	9.740286	-6.1879464	-1.718874	78.8103729	12.05503632	-12.73685634
0.73	73	0.005	-0.995	-0.091	9.740286	-5.3285094	-1.8334656	78.8963166	12.0607659	-12.79415214
0.74	74	0.007	-0.998	-0.092	9.7975818	-4.870143	-2.005353	78.98798988	12.07795464	-12.84571836
0.75	75	0.01	-0.998	-0.094	9.8548776	-4.583664	-2.005353	79.1254998	11.9748222	-12.90874374
0.76	76	0.014	-0.994	-0.094	9.6829902	-4.297185	-1.9480572	79.2114435	11.98628136	-12.95458038
0.77	77	0.018	-0.99	-0.096	9.6829902	-3.7815228	-1.6042824	79.30311678	11.99774052	-12.99468744
0.78	78	0.021	-0.99	-0.1	9.8548776	-3.5523396	-1.3750992	79.39479006	12.00919968	-13.0347945
0.79	79	0.022	-0.993	-0.101	10.026765	-3.6669312	-1.2605076	79.49219292	12.01492926	-13.07490156
0.8	80	0.02	-0.995	-0.095	10.4278356	-4.010706	-1.145916	79.62970284	11.90606724	-13.12646778
0.81	81	0.019	-0.994	-0.09	10.886202	-3.9534102	-1.145916	79.73283528	11.91179682	-13.17230442
0.82	82	0.017	-0.991	-0.088	11.172681	-4.1825934	-1.2032118	79.83596772	11.9175264	-13.21241148
0.83	83	0.017	-0.989	-0.083	11.5737516	-4.297185	-1.2605076	79.94482974	11.92898556	-13.25824812
0.84	84	0.018	-0.994	-0.072	11.6883432	-4.4690724	-1.2032118	80.05942134	11.93471514	-13.30408476
0.85	85	0.018	-1	-0.07	11.4018642	-4.9274388	-1.2032118	80.20839042	11.83731228	-13.36711014
0.86	86	0.021	-1.005	-0.072	11.45916	-5.2139178	-1.2032118	80.31725244	11.84304186	-13.41867636
0.87	87	0.019	-1.008	-0.069	11.45916	-5.443101	-1.2605076	80.42038488	11.84877144	-13.47597216
0.88	88	0.017	-1.01	-0.066	11.172681	-5.443101	-1.145916	80.52351732	11.85450102	-13.53326796
0.89	89	0.014	-1.01	-0.065	10.8289062	-5.3285094	-0.9740286	80.62664976	11.85450102	-13.58483418
0.9	90	0.013	-1.01	-0.066	10.599723	-4.9847346	-0.9167328	80.76988926	11.745639	-13.64785956
0.91	91	0.012	-1.009	-0.065	10.4278356	-4.5263682	-0.7448454	80.86729212	11.75136858	-13.6936962
0.92	92	0.011	-1.008	-0.065	10.313244	-4.010706	-0.572958	80.96469498	11.75136858	-13.73380326
0.93	93	0.011	-1.008	-0.063	10.2559482	-3.7815228	-0.4010706	81.06209784	11.75136858	-13.77391032
0.94	94	0.012	-1.007	-0.061	10.313244	-3.4950438	-0.286479	81.1595007	11.75136858	-13.8082878
0.95	95	0.015	-1.009	-0.061	10.4851314	-3.3231564	-0.1145916	81.31419936	11.61385866	-13.85985402
0.96	96	0.016	-1.012	-0.056	10.1986524	-3.3804522	0	81.41160222	11.61385866	-13.88850192
0.97	97	0.018	-1.013	-0.055	9.740286	-3.3804522	0	81.5032755	11.60812908	-13.9228794
0.98	98	0.017	-1.011	-0.057	9.3392154	-3.437748	0	81.5892192	11.60812908	-13.95725688
0.99	99	0.018	-1.01	-0.058	8.8235532	-3.6096354	-0.0572958	81.6751629	11.6023995	-13.99163436
1	100	0.016	-1.009	-0.058	8.2505952	-3.5523396	-0.1718874	81.80694324	11.45343042	-14.04893016
1.01	101	0.015	-1.011	-0.053	7.5630456	-3.3804522	-0.286479	81.8756982	11.45343042	-14.08330764
1.02	102	0.014	-1.012	-0.051	7.2192708	-3.0366774	-0.286479	81.94445316	11.45343042	-14.11195554
1.03	103	0.014	-1.014	-0.057	6.7036086	-2.4637194	-0.286479	82.00747854	11.45343042	-14.13487386
1.04	104	0.017	-1.016	-0.059	6.5317212	-2.291832	-0.1145916	82.07050392	11.45343042	-14.15779218
1.05	105	0.018	-1.015	-0.052	6.7036086	-2.6356068	-0.1145916	82.20228426	11.27008386	-14.2093584
1.06	106	0.019	-1.011	-0.047	6.302538	-2.9793816	-0.0572958	82.26530964	11.27008386	-14.2380063
1.07	107	0.021	-1.005	-0.047	5.6149884	-3.437748	-0.1718874	82.31114628	11.26435428	-14.27238378
1.08	108	0.022	-1.003	-0.044	4.9847346	-3.9534102	-0.3437748	82.35698292	11.26435428	-14.31249084
1.09	109	0.02	-1.004	-0.042	4.5263682	-4.583664	-0.5156622	82.39708998	11.27008386	-14.35832748
1.1	110	0.019	-1.008	-0.047	4.1252976	-4.5263682	-0.7448454	82.49449284	11.09246688	-14.42708244
1.11	111	0.02	-1.012	-0.049	3.8388186	-4.1825934	-0.9167328	82.52314074	11.09819646	-14.47291908
1.12	112	0.02	-1.014	-0.046	3.4950438	-3.9534102	-1.145916	82.55178864	11.10392604	-14.51302614
1.13	113	0.022	-1.013	-0.045	3.2658606	-3.8961144	-1.2605076	82.58043654	11.1153852	-14.5531332
1.14	114	0.02	-1.012	-0.044	3.2658606	-4.0680018	-1.2032118	82.60335486	11.12111478	-14.59324026
1.15	115	0.018	-1.008	-0.035	3.724227	-4.3544808	-0.9740286	82.71221688	10.94922738	-14.66199522
1.16	116	0.015	-1.007	-0.032	3.7815228	-4.4117766	-0.8021412	82.74086478	10.95495696	-14.70783186
1.17	117	0.014	-1.007	-0.026	3.437748	-4.1825934	-0.6875496	82.76951268	10.95495696	-14.74793892
1.18	118	0.013	-1.007	-0.023	3.0939732	-3.8388186	-0.6875496	82.792431	10.96068654	-14.78804598
1.19	119	0.013	-1.008	-0.027	2.8074942	-3.8388186	-0.8021412	82.81534932	10.96641612	-14.82815304
1.2	120	0.013	-1.009	-0.03	2.6356068	-3.8388186	-0.859437	82.92994092	10.7429625	-14.896908
1.21	121	0.013	-1.009	-0.031	2.578311	-3.8961144	-0.8021412	82.95285924	10.7429625	-14.93701506
1.22	122	0.015	-1.01	-0.031	2.4637194	-3.7815228	-0.7448454	82.97004798	10.74869208	-14.97139254
1.23	123	0.018	-1.01	-0.031	2.4064236	-3.7815228	-0.572958	82.98723672	10.75442166	-15.0114996
1.24	124	0.019	-1.011	-0.033	2.3491278	-3.8961144	-0.4010706	83.00442546	10.75442166	-15.05160666
1.25	125	0.021	-1.007	-0.034	2.291832	-4.2398892	-0.3437748	83.11328748	10.53669762	-15.12036162
1.26	126	0.023	-1.006	-0.032	2.4064236	-4.5263682	-0.1718874	83.13047622	10.53669762	-15.16619826
1.27	127	0.021	-1.006	-0.033	2.3491278	-4.583664	-0.1145916	83.14766496	10.53096804	-15.2120349
1.28	128	0.018	-1.004	-0.035	2.1772404	-4.5263682	-0.1145916	83.15912412	10.53096804	-15.25787154
1.29	129	0.016	-1.001	-0.033	2.1199446	-4.4117766	-0.2291832	83.17631286	10.53096804	-15.30370818
1.3	130	0.017	-1.002	-0.032	2.2345362	-4.1825934	-0.1718874	83.28517488	10.30178484	-15.37246314
1.31	131	0.019	-1.002	-0.032	2.4064236	-4.1825934	-0.286479	83.30236362	10.29605526	-15.4125702
1.32	132	0.021	-1.004	-0.031	2.4637194	-4.6982556	-0.2291832	83.31955236	10.29605526	-15.46413642
1.33	133	0.02	-1.004	-0.025	2.578311	-5.2139178	-0.0572958	83.3367411	10.29605526	-15.51570264
1.34	134	0.017	-1.006	-0.026	2.578311	-5.156622	0	83.35392984	10.29032568	-15.56726886
1.35	135	0.014	-1.004	-0.026	2.4064236	-4.870143	-0.0572958	83.45706228	10.07833122	-15.6417534
1.36	136	0.013	-1.004	-0.024	2.4064236	-4.4117766	-0.1718874	83.47425102	10.07260164	-15.68759004
1.37	137	0.012	-1.003	-0.023	2.3491278	-4.1252976	-0.3437748	83.49143976	10.07260164	-15.7276971
1.38	138	0.011	-1.003	-0.021	2.3491278	-3.6096354	-0.4010706	83.51435808	10.07833122	-15.76207458
1.39	139	0.012	-1.006	-0.021	2.1772404	-2.9220858	-0.4010706	83.53154682	10.07833122	-15.79072248
1.4	140	0.012	-1.008	-0.02	1.9480572	-2.4064236	-0.2291832	83.69770464	9.74601558	-15.85947744
1.41	141	0.015	-1.01	-0.015	1.6042824	-2.1199446	-0.1145916	83.7091638	9.74601558	-15.87666618
1.42	142	0.018	-1.01	-0.013	1.4896908	-2.1772404	-0.1145916	83.72062296	9.74601558	-15.8995845
1.43	143	0.019	-1.012	-0.013	1.3178034	-2.4064236	-0.1145916	83.73208212	9.74601558	-15.92250282
1.44	144	0.02	-1.013	-0.015	1.0886202	-2.3491278	-0.1145916	83.7378117	9.74601558	-15.95115072
1.45	145	0.019	-1.011	-0.014	0.9740286	-2.3491278	-0.0572958	83.938347	9.3678633	-16.01990568
1.46	146	0.02	-1.008	-0.016	0.9167328	-2.3491278	-0.2291832	83.94407658	9.3678633	-16.042824
1.47	147	0.019	-1.006	-0.015	0.9740286	-2.5210152	-0.4010706	83.94980616	9.37359288	-16.06574232
1.48	148	0.019	-1.005	-0.015	1.0313244	-2.1199446	-0.5156622	83.95553574	9.37932246	-16.08866064
1.49	149	0.017	-1.005	-0.018	1.2605076	-2.1199446	-0.6302538	83.9669949	9.37932246	-16.11157896
1.5	150	0.015	-1.008	-0.017	1.2032118	-2.1199446	-0.6302538	84.12742314	9.06419556	-16.17460434
1.51	151	0.014	-1.01	-0.016	1.3178034	-1.7761698	-0.4583664	84.1388823	9.06992514	-16.19179308
1.52	152	0.015	-1.011	-0.015	1.6042824	-1.6042824	-0.3437748	84.15607104	9.06992514	-16.20898182
1.53	153	0.016	-1.009	-0.014	1.7761698	-1.0886202	-0.1718874	84.17325978	9.06992514	-16.22044098
1.54	154	0.018	-1.007	-0.015	2.0626488	-0.8021412	-0.1145916	84.19044852	9.07565472	-16.22617056
1.55	155	0.018	-1.005	-0.014	2.1199446	-0.859437	0	84.40244298	8.68604328	-16.28346636
1.56	156	0.019	-1.01	-0.01	1.8907614	-0.6875496	0	84.41963172	8.68604328	-16.28919594
1.57	157	0.016	-1.01	-0.007	1.432395	-0.572958	0	84.43682046	8.68604328	-16.29492552
1.58	158	0.014	-1.011	-0.005	0.9740286	-0.3437748	-0.1145916	84.44255004	8.68604328	-16.3006551
1.59	159	0.014	-1.013	-0.008	0.6302538	0.0572958	-0.1145916	84.4540092	8.68604328	-16.3006551
1.6	160	0.013	-1.014	-0.011	0.6302538	0.4010706	-0.1145916	84.86080938	7.87244292	-16.39805796
1.61	161	0.014	-1.016	-0.011	0.6875496	0.572958	-0.2291832	84.86653896	7.8781725	-16.39232838
1.62	162	0.016	-1.014	-0.01	0.6875496	0.4583664	-0.286479	84.87226854	7.8781725	-16.3865988
1.63	163	0.018	-1.01	-0.008	0.7448454	0.286479	-0.3437748	84.8837277	7.88390208	-16.3865988
1.64	164	0.022	-1.007	-0.008	0.6875496	0	-0.3437748	84.88945728	7.88963166	-16.3865988
1.65	165	0.023	-1.005	-0.009	0.7448454	-0.0572958	-0.286479	85.23323208	7.26510744	-16.4725425
1.66	166	0.024	-1.005	-0.008	0.9167328	-0.3437748	-0.286479	85.24469124	7.26510744	-16.47827208
1.67	167	0.023	-1.01	-0.007	0.9740286	-0.6875496	-0.4010706	85.25042082	7.27083702	-16.48400166
1.68	168	0.021	-1.01	-0.007	0.6302538	-0.9167328	-0.5156622	85.2561504	7.2765666	-16.49546082
1.69	169	0.021	-1.007	-0.005	0.4010706	-1.0886202	-0.6302538	85.26187998	7.28229618	-16.50691998
1.7	170	0.022	-1.008	-0.006	0.4010706	-0.9167328	-0.6302538	85.49679276	6.85830726	-16.57567494
1.71	171	0.022	-1.008	-0.01	0.3437748	-0.9740286	-0.5156622	85.49679276	6.86403684	-16.5871341
1.72	172	0.021	-1.007	-0.012	0.572958	-1.145916	-0.3437748	85.50252234	6.86976642	-16.59859326
1.73	173	0.02	-1.007	-0.01	0.6875496	-1.4896908	-0.0572958	85.50825192	6.86976642	-16.615782
1.74	174	0.019	-1.007	-0.008	0.6302538	-1.4896908	0.0572958	85.5139815	6.86403684	-16.62724116
1.75	175	0.021	-1.006	-0.009	0.5156622	-1.3178034	0.0572958	85.7145168	6.48015498	-16.69026654
1.76	176	0.02	-1.005	-0.007	0.4010706	-1.2032118	0.0572958	85.7145168	6.48015498	-16.7017257
1.77	177	0.02	-1.005	-0.008	0.4583664	-1.2605076	0.0572958	85.72024638	6.48015498	-16.71891444
1.78	178	0.02	-1.008	-0.007	0.2291832	-1.4896908	0.0572958	85.72024638	6.4744254	-16.7303736
1.79	179	0.018	-1.012	-0.007	0	-1.718874	0.1718874	85.72024638	6.4744254	-16.74756234
1.8	180	0.019	-1.015	-0.006	-0.0572958	-1.6615782	0.1145916	85.89213378	6.1306506	-16.81058772
1.81	181	0.021	-1.015	-0.009	-0.286479	-1.5469866	0.1145916	85.8864042	6.1306506	-16.82777646
1.82	182	0.021	-1.013	-0.011	-0.4583664	-1.718874	0.1718874	85.88067462	6.1306506	-16.8449652
1.83	183	0.02	-1.008	-0.013	-0.572958	-2.1199446	0.2291832	85.87494504	6.12492102	-16.86788352
1.84	184	0.019	-1.005	-0.012	-0.572958	-2.4064236	0.1145916	85.86348588	6.11919144	-16.89080184
1.85	185	0.016	-1.003	-0.012	-0.4583664	-2.4064236	0	85.94942958	5.91292656	-16.93663848
1.86	186	0.016	-1.007	-0.011	-0.572958	-2.2345362	-0.1145916	85.93797042	5.91292656	-16.95382722
1.87	187	0.013	-1.007	-0.01	-0.5156622	-2.3491278	-0.1145916	85.93224084	5.91292656	-16.98247512
1.88	188	0.011	-1.01	-0.007	-0.6302538	-2.0626488	-0.1145916	85.92078168	5.91292656	-16.99966386
1.89	189	0.011	-1.009	-0.007	-0.9740286	-1.6042824	-0.0572958	85.90932252	5.91292656	-17.0168526
1.9	190	0.013	-1.009	-0.012	-1.2605076	-1.0886202	0.0572958	86.0009958	5.66082504	-17.05123008
1.91	191	0.017	-1.009	-0.015	-1.432395	-0.8021412	0.1145916	85.98953664	5.65509546	-17.06268924
1.92	192	0.021	-1.01	-0.017	-1.4896908	-0.8021412	0.1718874	85.9723479	5.65509546	-17.06841882
1.93	193	0.022	-1.011	-0.016	-1.6615782	-0.859437	0.2291832	85.95515916	5.64936588	-17.07987798
1.94	194	0.023	-1.012	-0.019	-1.8334656	-1.0313244	0.1718874	85.93224084	5.64936588	-17.09133714
1.95	195	0.021	-1.012	-0.021	-1.8907614	-1.2032118	0.1145916	85.9723479	5.49466722	-17.11425546
1.96	196	0.019	-1.011	-0.018	-1.8907614	-1.6042824	0	85.94942958	5.49466722	-17.1314442
1.97	197	0.016	-1.01	-0.017	-2.1772404	-2.1772404	-0.1718874	85.92651126	5.49466722	-17.14863294
1.98	198	0.011	-1.01	-0.015	-2.6356068	-2.291832	-0.2291832	85.89786336	5.49466722	-17.17728084
1.99	199	0.01	-1.009	-0.011	-3.437748	-1.718874	-0.4583664	85.8577563	5.5003968	-17.19446958
2	200	0.009	-1.009	-0.012	-4.1825934	-0.9167328	-0.572958	85.86348588	5.40299394	-17.21165832
2.01	201	0.01	-1.009	-0.019	-4.7555514	-0.1145916	-0.6302538	85.81191966	5.40872352	-17.2173879
2.02	202	0.01	-1.012	-0.028	-5.2712136	0.286479	-0.572958	85.76035344	5.4144531	-17.2173879
2.03	203	0.01	-1.014	-0.034	-5.6149884	0.6875496	-0.4010706	85.70305764	5.42018268	-17.21165832
2.04	204	0.007	-1.016	-0.039	-5.72958	0.9740286	-0.2291832	85.64576184	5.42018268	-17.20019916
2.05	205	0.007	-1.017	-0.042	-6.0733548	1.718874	0	85.59419562	5.3571573	-17.18301042
2.06	206	0.011	-1.019	-0.045	-6.589017	2.5210152	0.2291832	85.52544066	5.35142772	-17.15436252
2.07	207	0.015	-1.017	-0.047	-7.2765666	3.0366774	0.5156622	85.4566857	5.35142772	-17.12571462
2.08	208	0.019	-1.012	-0.044	-7.9068204	3.2658606	1.0313244	85.37647158	5.33996856	-17.09133714
2.09	209	0.02	-1.006	-0.038	-9.0527364	3.3231564	1.5469866	85.29052788	5.32277982	-17.06268924
2.1	210	0.02	-0.999	-0.03	-10.599723	3.3231564	1.8907614	85.1988546	5.27694318	-17.02831176
2.11	211	0.02	-0.998	-0.022	-11.745639	3.151269	1.8334656	85.07853342	5.25975444	-16.99966386
2.12	212	0.019	-1.006	-0.021	-12.5477802	3.0366774	1.6042824	84.95248266	5.2425657	-16.97101596
2.13	213	0.016	-1.021	-0.028	-13.3499214	3.2658606	1.432395	84.82070232	5.23110654	-16.93663848
2.14	214	0.016	-1.037	-0.038	-14.0947668	3.3231564	1.2032118	84.6831924	5.21964738	-16.902261
2.15	215	0.015	-1.048	-0.041	-14.896908	3.0366774	1.0886202	84.54568248	5.17954032	-16.8736131
2.16	216	0.012	-1.052	-0.043	-15.6990492	2.5210152	0.9167328	84.38525424	5.17381074	-16.85069478
2.17	217	0.01	-1.05	-0.047	-16.7303736	2.578311	0.9740286	84.21909642	5.16235158	-16.82777646
2.18	218	0.01	-1.046	-0.052	-18.1627686	3.0366774	0.859437	84.03574986	5.156622	-16.79912856
2.19	219	0.01	-1.04	-0.057	-19.6524594	3.2658606	0.9740286	83.84094414	5.14516284	-16.76475108
2.2	220	0.013	-1.035	-0.057	-21.199446	3.2658606	1.3750992	83.63467926	5.11651494	-16.73610318
2.21	221	0.018	-1.034	-0.049	-23.2620948	3.8388186	1.5469866	83.39976648	5.0993262	-16.7017257
2.22	222	0.025	-1.034	-0.051	-24.923673	5.5576926	1.145916	83.15339454	5.08786704	-16.6444299
2.23	223	0.028	-1.037	-0.071	-26.356068	6.9327918	0.2291832	82.88983386	5.09359662	-16.58140452
2.24	224	0.03	-1.046	-0.078	-27.8457588	7.1046792	-0.572958	82.61481402	5.0993262	-16.51264956
2.25	225	0.033	-1.053	-0.08	-29.220858	6.589017	-0.8021412	82.32833502	5.10505578	-16.45535376
2.26	226	0.037	-1.057	-0.088	-30.3094782	5.72958	-0.8021412	82.02466728	5.11651494	-16.39805796
2.27	227	0.04	-1.055	-0.099	-32.2002396	5.0420304	-0.3437748	81.69808122	5.12224452	-16.35222132
2.28	228	0.041	-1.041	-0.107	-34.2628884	3.7815228	-0.0572958	81.35430642	5.12224452	-16.31784384
2.29	229	0.043	-1.031	-0.111	-36.8984952	2.4064236	0.1145916	80.98188372	5.12224452	-16.3006551
2.3	230	0.046	-1.024	-0.111	-39.820581	0.3437748	0	80.5865427	5.11078536	-16.3006551
2.31	231	0.045	-1.027	-0.093	-43.3729206	-2.4064236	-0.1145916	80.13963546	5.10505578	-16.329303
2.32	232	0.043	-1.024	-0.089	-47.8992888	-3.4950438	0	79.65262116	5.09359662	-16.36941006
2.33	233	0.042	-1.017	-0.108	-51.3943326	-3.5523396	0.4583664	79.1254998	5.08213746	-16.40951712
2.34	234	0.036	-1.008	-0.132	-53.3423898	-3.724227	1.145916	78.5811897	5.05921914	-16.44962418
2.35	235	0.032	-0.999	-0.152	-53.7434604	-4.6409598	1.718874	78.0368796	5.01911208	-16.49546082
2.36	236	0.027	-0.996	-0.159	-53.9726436	-6.3598338	2.005353	77.48683992	4.9847346	-16.5584862
2.37	237	0.022	-0.998	-0.156	-55.4050386	-7.9641162	1.9480572	76.91388192	4.93889796	-16.63870032
2.38	238	0.016	-0.996	-0.164	-57.0666168	-8.59437	1.718874	76.32946476	4.8987909	-16.72464402
2.39	239	0.012	-0.992	-0.175	-57.6968706	-8.880849	1.3178034	75.73931802	4.86441342	-16.81058772
2.4	240	0.003	-0.988	-0.192	-58.2698286	-9.8548776	1.0886202	75.1434417	4.81857678	-16.91372016
2.41	241	-0.004	-0.985	-0.194	-60.16059	-11.1153852	0.5156622	74.52464706	4.77846972	-17.02258218
2.42	242	-0.009	-0.974	-0.191	-62.165943	-11.172681	0.1718874	73.88866368	4.74409224	-17.13717378
2.43	243	-0.007	-0.957	-0.221	-63.3691548	-10.4278356	0.1145916	73.23549156	4.70971476	-17.24030622
2.44	244	-0.001	-0.943	-0.236	-64.0567044	-10.0840608	0.8021412	72.58231944	4.66387812	-17.33770908
2.45	245	0.001	-0.938	-0.242	-64.0567044	-10.026765	2.0626488	71.92914732	4.60658232	-17.43511194
2.46	246	0.008	-0.94	-0.257	-63.9994086	-10.1986524	3.0939732	71.27024562	4.53782736	-17.52678522
2.47	247	0.011	-0.944	-0.261	-63.9994086	-10.5424272	3.6669312	70.6170735	4.46334282	-17.62418808
2.48	248	0.011	-0.946	-0.26	-64.0567044	-10.6570188	3.8961144	69.9581718	4.38885828	-17.71586136
2.49	249	0.006	-0.94	-0.275	-64.5150708	-10.6570188	3.7815228	69.2992701	4.31437374	-17.80753464
2.5	250	0	-0.93	-0.29	-64.9161414	-10.4851314	3.8388186	68.6403684	4.22843004	-17.89920792
2.51	251	-0.014	-0.916	-0.292	-65.2026204	-10.886202	4.1252976	67.97000754	4.14248634	-17.9908812
2.52	252	-0.023	-0.905	-0.3	-66.0620574	-10.1413566	4.297185	67.2939171	4.06227222	-18.07109532
2.53	253	-0.022	-0.898	-0.312	-66.749607	-8.2505952	4.3544808	66.61782666	3.9820581	-18.1341207
2.54	254	-0.016	-0.885	-0.32	-67.4371566	-6.7609044	4.870143	65.93027706	3.90184398	-18.18568692
2.55	255	-0.011	-0.876	-0.325	-67.7236356	-6.3598338	5.72958	65.24272746	3.8101707	-18.22579398
2.56	256	-0.005	-0.881	-0.328	-67.9528188	-6.7609044	6.7036086	64.55517786	3.71849742	-18.26590104
2.57	257	-0.004	-0.893	-0.325	-69.614397	-6.9900876	7.3911582	63.84470994	3.61536498	-18.30027852
2.58	258	-0.006	-0.9	-0.32	-71.333271	-7.2192708	7.734933	63.11705328	3.50650296	-18.334656
2.59	259	-0.004	-0.9	-0.345	-73.338624	-7.9641162	8.0787078	62.37220788	3.39191136	-18.37476306
2.6	260	0	-0.882	-0.369	-74.198061	-9.8548776	8.6516658	61.62736248	3.25440144	-18.42632928
2.61	261	-0.003	-0.865	-0.383	-73.9688778	-13.464513	9.453807	60.87105792	3.10543236	-18.5065434
2.62	262	-0.007	-0.853	-0.413	-75.2866812	-15.1260912	9.740286	60.1032942	2.93927454	-18.5924871
2.63	263	-0.017	-0.84	-0.418	-76.3753014	-15.8709366	9.3392154	59.3298009	2.77311672	-18.68988996
2.64	264	-0.029	-0.843	-0.436	-77.922288	-16.329303	8.1360036	58.53338928	2.61268848	-18.7930224
2.65	265	-0.038	-0.852	-0.458	-80.0995284	-15.8136408	6.7609044	57.71978892	2.4637194	-18.90188442
2.66	266	-0.047	-0.855	-0.453	-82.219473	-14.7823164	5.5003968	56.88327024	2.32620948	-18.99928728
2.67	267	-0.054	-0.844	-0.461	-84.1102344	-12.8342592	4.297185	56.02956282	2.21734746	-19.09096056
2.68	268	-0.06	-0.809	-0.49	-84.3394176	-11.172681	3.7815228	55.17012582	2.11421502	-19.1654451
2.69	269	-0.058	-0.781	-0.504	-82.8497268	-8.1360036	3.6669312	54.33360714	2.02827132	-19.21701132
2.7	270	-0.062	-0.764	-0.517	-81.646515	-5.3858052	4.010706	53.50281804	1.94232762	-19.23992964
2.71	271	-0.072	-0.749	-0.527	-80.4433032	-3.8961144	4.870143	52.68921768	1.87357266	-19.24565922
2.72	272	-0.071	-0.74	-0.52	-78.781725	-4.297185	6.4744254	51.88707648	1.78762896	-19.23992964
2.73	273	-0.085	-0.741	-0.555	-77.8076964	-4.4117766	7.9068204	51.09639444	1.68449652	-19.23420006
2.74	274	-0.063	-0.749	-0.598	-76.1461182	-3.6669312	7.9068204	50.32863072	1.59282324	-19.21128174
2.75	275	-0.047	-0.768	-0.604	-74.3126526	-2.86479	6.5317212	49.57805574	1.50687954	-19.19982258
2.76	276	-0.034	-0.795	-0.617	-73.338624	-1.7761698	4.583664	48.83321034	1.45531332	-19.18263384
2.77	277	-0.029	-0.802	-0.63	-72.4218912	-0.5156622	3.151269	48.0998241	1.41520626	-19.17117468
2.78	278	-0.036	-0.798	-0.619	-71.333271	0.7448454	2.9220858	47.37216744	1.38655836	-19.14825636
2.79	279	-0.04	-0.789	-0.613	-70.4165382	2.6356068	3.437748	46.66169952	1.36936962	-19.1081493
2.8	280	-0.059	-0.772	-0.626	-69.0987348	1.9480572	4.8128472	45.96269076	1.32926256	-19.06231266
2.81	281	-0.074	-0.762	-0.614	-66.9214944	0.0572958	7.1046792	45.28660032	1.27196676	-19.01074644
2.82	282	-0.074	-0.758	-0.618	-65.8328742	-0.8021412	9.3965112	44.62196904	1.19175264	-18.95345064
2.83	283	-0.067	-0.755	-0.649	-64.8015498	-0.572958	10.313244	43.96306734	1.10580894	-18.88469568
2.84	284	-0.054	-0.757	-0.649	-63.2545632	0.286479	9.2819196	43.32135438	1.03705398	-18.8216703
2.85	285	-0.047	-0.752	-0.654	-62.5670136	1.0886202	6.9327918	42.69683016	0.97975818	-18.7643745
2.86	286	-0.036	-0.738	-0.671	-62.3378304	1.3178034	4.870143	42.06657636	0.9453807	-18.72426744
2.87	287	-0.025	-0.728	-0.679	-62.3378304	2.1199446	3.6669312	41.43059298	0.92819196	-18.6784308
2.88	288	-0.023	-0.719	-0.679	-62.165943	2.9793816	3.5523396	40.80033918	0.9167328	-18.63259416
2.89	289	-0.035	-0.712	-0.69	-61.8221682	4.010706	4.1252976	40.17581496	0.91100322	-18.57529836
2.9	290	-0.048	-0.706	-0.691	-61.0773228	4.9274388	5.2712136	39.5627499	0.89954406	-18.51227298
2.91	291	-0.061	-0.697	-0.702	-59.9887026	5.2139178	6.6463128	38.95541442	0.8880849	-18.42632928
2.92	292	-0.07	-0.686	-0.717	-58.441716	5.5003968	7.5630456	38.36526768	0.87662574	-18.32892642
2.93	293	-0.07	-0.673	-0.719	-55.9779966	6.016059	7.7922288	37.79803926	0.86516658	-18.23152356
2.94	294	-0.062	-0.66	-0.715	-54.2018268	6.302538	7.1046792	37.24799958	0.859437	-18.13985028
2.95	295	-0.05	-0.657	-0.742	-53.0559108	6.8182002	5.8441716	36.71514864	0.86516658	-18.048177
2.96	296	-0.019	-0.667	-0.786	-52.7694318	6.016059	4.4690724	36.1822977	0.87662574	-17.97942204
2.97	297	0.005	-0.682	-0.791	-52.2537696	2.86479	3.8961144	35.64944676	0.87089616	-17.92785582
2.98	298	0.025	-0.69	-0.78	-51.6235158	-0.4010706	3.9534102	35.12805498	0.83651868	-17.89920792
2.99	299	0.037	-0.677	-0.772	-50.5921914	-3.151269	4.1825934	34.61239278	0.77922288	-17.88201918
3	300	0.029	-0.654	-0.772	-48.987909	-4.4117766	4.0680018	34.12537848	0.7161975	-17.88201918
3.01	301	0.004	-0.643	-0.788	-48.128472	-5.0420304	3.3804522	33.63836418	0.64744254	-17.88201918
3.02	302	-0.03	-0.641	-0.797	-46.982556	-5.3285094	2.291832	33.16280904	0.58441716	-17.89347834
3.03	303	-0.052	-0.65	-0.795	-45.7220484	-4.6409598	0.859437	32.69871306	0.53858052	-17.91066708
3.04	304	-0.058	-0.656	-0.799	-44.1750618	-4.010706	0.1718874	32.25180582	0.49847346	-17.9335854
3.05	305	-0.053	-0.653	-0.807	-42.2843004	-4.297185	0.1145916	31.83927606	0.44690724	-17.9622333
3.06	306	-0.039	-0.649	-0.822	-41.1383844	-5.0420304	0.9740286	31.42101672	0.38961144	-17.97942204
3.07	307	-0.021	-0.636	-0.827	-39.9924684	-6.0733548	2.291832	31.01421654	0.32658606	-17.9908812
3.08	308	-0.012	-0.627	-0.821	-39.3049188	-7.448454	3.9534102	30.61887552	0.23491278	-17.99661078
3.09	309	-0.008	-0.623	-0.81	-39.1330314	-9.5683986	4.870143	30.2235345	0.12605076	-18.00806994
3.1	310	-0.02	-0.621	-0.82	-38.674665	-10.7716104	4.870143	29.84538222	0	-18.02525868
3.11	311	-0.041	-0.62	-0.833	-38.674665	-12.1467096	4.297185	29.45577078	-0.12605076	-18.048177
3.12	312	-0.061	-0.624	-0.826	-38.6173692	-12.891555	3.3804522	29.06615934	-0.2578311	-18.08828406
3.13	313	-0.069	-0.626	-0.828	-39.3622146	-12.605076	2.5210152	28.66508874	-0.38388186	-18.12839112
3.14	314	-0.074	-0.619	-0.821	-40.0497642	-11.9748222	1.8334656	28.26401814	-0.49847346	-18.16849818
3.15	315	-0.076	-0.6	-0.813	-39.9351726	-11.4018642	1.8907614	27.88013628	-0.62452422	-18.21433482
3.16	316	-0.082	-0.56	-0.788	-39.7059894	-11.6310474	2.291832	27.47906568	-0.73911582	-18.2487123
3.17	317	-0.091	-0.532	-0.801	-39.4195104	-9.9694692	3.3804522	27.07799508	-0.84797784	-18.26590104
3.18	318	-0.099	-0.515	-0.802	-39.0757356	-8.4224826	4.3544808	26.68265406	-0.9453807	-18.26590104
3.19	319	-0.106	-0.52	-0.812	-38.6173692	-6.875496	5.3285094	26.29304262	-1.03705398	-18.25444188
3.2	320	-0.115	-0.532	-0.841	-38.7319608	-5.72958	5.9014674	25.91489034	-1.13445684	-18.23152356
3.21	321	-0.124	-0.542	-0.844	-39.1903272	-4.4117766	5.9587632	25.51381974	-1.2032118	-18.19714608
3.22	322	-0.111	-0.547	-0.847	-40.2216516	-3.2658606	6.0733548	25.10701956	-1.26623718	-18.15703902
3.23	323	-0.093	-0.535	-0.838	-40.680018	-2.5210152	6.3598338	24.6944898	-1.3178034	-18.11120238
3.24	324	-0.074	-0.519	-0.848	-41.1956802	-3.2085648	6.9327918	24.27623046	-1.38082878	-18.05963616
3.25	325	-0.07	-0.505	-0.813	-41.5967508	-5.156622	7.734933	23.86943028	-1.47250206	-18.0195291
3.26	326	-0.08	-0.484	-0.835	-41.6540466	-5.72958	8.9954406	23.44544136	-1.56990492	-17.95650372
3.27	327	-0.101	-0.465	-0.852	-41.539455	-7.0473834	10.1413566	23.02145244	-1.67876694	-17.89347834
3.28	328	-0.115	-0.477	-0.866	-42.2270046	-7.9641162	11.0580894	22.59173394	-1.79908812	-17.82472338
3.29	329	-0.123	-0.498	-0.878	-42.9145542	-8.9954406	11.1153852	22.15628586	-1.92513888	-17.75596842
3.3	330	-0.126	-0.51	-0.874	-43.544808	-10.4278356	10.7716104	21.73229694	-2.07983754	-17.7044022
3.31	331	-0.125	-0.507	-0.88	-45.3782736	-11.6883432	10.599723	21.26820096	-2.22880662	-17.65283598
3.32	332	-0.117	-0.487	-0.872	-46.5814854	-12.3758928	10.6570188	20.7983754	-2.38923486	-17.59554018
3.33	333	-0.112	-0.449	-0.825	-45.3209778	-12.6623718	10.7143146	20.33427942	-2.5496631	-17.54397396
3.34	334	-0.113	-0.411	-0.81	-44.6334282	-14.896908	10.8289062	19.8816426	-2.72728008	-17.49240774
3.35	335	-0.119	-0.389	-0.809	-44.7480198	-15.6417534	10.886202	19.43473536	-2.92781538	-17.45230068
3.36	336	-0.135	-0.381	-0.816	-43.831287	-15.4125702	11.172681	18.9935577	-3.11116194	-17.39500488
3.37	337	-0.15	-0.395	-0.837	-43.3156248	-15.9855282	11.9175264	18.55238004	-3.30596766	-17.33770908
3.38	338	-0.164	-0.413	-0.859	-43.1437374	-16.1574156	12.3758928	18.11120238	-3.50077338	-17.2746837
3.39	339	-0.169	-0.435	-0.874	-43.2010332	-15.183387	12.2040054	17.67002472	-3.68411994	-17.20592874
3.4	340	-0.168	-0.45	-0.892	-44.3469492	-14.0947668	11.5164558	17.23457664	-3.87319608	-17.14863294
3.41	341	-0.162	-0.455	-0.9	-46.1804148	-13.5218088	10.8289062	16.76475108	-4.03362432	-17.08560756
3.42	342	-0.154	-0.457	-0.893	-48.3003594	-13.2926256	10.4851314	16.2720072	-4.19978214	-17.02831176
3.43	343	-0.153	-0.437	-0.879	-49.3889796	-13.6364004	10.5424272	15.76780416	-4.36021038	-16.96528638
3.44	344	-0.15	-0.41	-0.838	-48.9306132	-13.6936962	11.4018642	15.26360112	-4.5263682	-16.89080184
3.45	345	-0.152	-0.391	-0.856	-49.6754586	-13.464513	12.7196676	14.77085724	-4.70398518	-16.81058772
3.46	346	-0.152	-0.402	-0.873	-50.3057124	-13.4072172	13.5218088	14.25519504	-4.87587258	-16.71318486
3.47	347	-0.161	-0.426	-0.867	-50.5921914	-14.037471	13.9228794	13.73380326	-5.04775998	-16.615782
3.48	348	-0.172	-0.441	-0.887	-51.7381074	-14.8396122	13.8655836	13.20095232	-5.23110654	-16.51837914
3.49	349	-0.187	-0.441	-0.898	-53.1705024	-15.1260912	13.9801752	12.65664222	-5.4144531	-16.4152467
3.5	350	-0.199	-0.434	-0.909	-54.2591226	-14.610429	14.0947668	12.1180617	-5.60352924	-16.32357342
3.51	351	-0.206	-0.421	-0.903	-55.8061092	-12.9488508	14.0947668	11.5451037	-5.76395748	-16.20898182
3.52	352	-0.205	-0.407	-0.875	-57.6395748	-9.8548776	14.32395	10.94922738	-5.89573782	-16.08866064
3.53	353	-0.201	-0.378	-0.868	-58.728195	-7.734933	14.7823164	10.3418919	-6.00459984	-15.9568803
3.54	354	-0.205	-0.356	-0.852	-59.5303362	-7.448454	15.2979786	9.72309726	-6.11346186	-15.81937038
3.55	355	-0.223	-0.335	-0.81	-59.1292656	-7.6776372	15.9282324	9.12722094	-6.23378304	-15.68186046
3.56	356	-0.246	-0.326	-0.827	-57.2958	-7.448454	17.3606274	8.53134462	-6.34264506	-15.52143222
3.57	357	-0.24	-0.348	-0.874	-57.1812084	-7.734933	18.621135	7.92973872	-6.45150708	-15.34381524
3.58	358	-0.215	-0.379	-0.865	-56.2071798	-7.9068204	19.1367972	7.33959198	-6.5603691	-15.16619826
3.59	359	-0.192	-0.391	-0.889	-56.6655462	-8.6516658	18.8503182	6.74944524	-6.6749607	-14.98858128
3.6	360	-0.186	-0.394	-0.893	-57.009321	-8.8235532	18.334656	6.18221682	-6.80101146	-14.82815304
3.61	361	-0.166	-0.391	-0.861	-58.8427866	-7.2192708	17.8762896	5.56342218	-6.89841432	-14.65626564
3.62	362	-0.146	-0.357	-0.857	-60.2751816	-6.4744254	17.3606274	4.93316838	-6.98435802	-14.48437824
3.63	363	-0.15	-0.336	-0.814	-61.020027	-5.5576926	16.7876694	4.297185	-7.05884256	-14.31822042
3.64	364	-0.179	-0.296	-0.747	-60.7908438	-4.297185	16.7303736	3.65547204	-7.12186794	-14.1520626
3.65	365	-0.249	-0.279	-0.803	-58.9573782	-3.437748	17.5898106	3.0653253	-7.1906229	-13.99163436
3.66	366	-0.298	-0.311	-0.839	-58.0406454	-2.2345362	18.4492476	2.45226024	-7.23072996	-13.80255822
3.67	367	-0.304	-0.345	-0.829	-55.576926	-0.6875496	18.621135	1.8621135	-7.25364828	-13.61348208
3.68	368	-0.273	-0.345	-0.878	-54.8893764	-1.3178034	17.4179232	1.28342592	-7.2765666	-13.4358651
3.69	369	-0.227	-0.33	-0.869	-52.425657	-0.6302538	16.042824	0.73338624	-7.29375534	-13.26970728
3.7	370	-0.184	-0.31	-0.854	-51.9099948	2.2345362	15.183387	0.22345362	-7.28802576	-13.13219736
3.71	371	-0.147	-0.28	-0.856	-51.7381074	4.5263682	14.8396122	-0.3151269	-7.2479187	-12.9774987
3.72	372	-0.142	-0.254	-0.837	-51.7381074	5.9587632	14.9542038	-0.859437	-7.19635248	-12.82280004
3.73	373	-0.165	-0.242	-0.81	-52.0245864	7.7922288	16.1574156	-1.40947668	-7.12186794	-12.65664222
3.74	374	-0.191	-0.247	-0.796	-50.0192334	9.3965112	17.5898106	-1.94232762	-7.03019466	-12.47902524
3.75	375	-0.23	-0.257	-0.801	-47.7846972	11.5737516	18.7357266	-2.41788276	-6.9327918	-12.30713784
3.76	376	-0.281	-0.262	-0.838	-46.1804148	13.1207382	18.4492476	-2.91062664	-6.79528188	-12.1180617
3.77	377	-0.284	-0.282	-0.844	-42.7999626	15.9282324	17.8762896	-3.36899304	-6.63485364	-11.94044472
3.78	378	-0.241	-0.288	-0.86	-40.0497642	17.7044022	17.0168526	-3.79298196	-6.45150708	-11.7742869
3.79	379	-0.198	-0.278	-0.84	-38.2735944	20.5118964	16.7876694	-4.20551172	-6.2452422	-11.61385866
3.8	380	-0.141	-0.263	-0.82	-36.955791	24.7517856	17.4179232	-4.56074568	-5.99887026	-11.46488958
3.81	381	-0.125	-0.247	-0.798	-35.8671708	26.5852512	18.1054728	-4.94462754	-5.72385042	-11.29873176
3.82	382	-0.121	-0.236	-0.781	-35.809875	26.6998428	18.2773602	-5.3285094	-5.44883058	-11.12684436
3.83	383	-0.127	-0.236	-0.757	-36.3255372	26.069589	17.8762896	-5.71812084	-5.17954032	-10.96641612
3.84	384	-0.124	-0.244	-0.706	-35.5806918	27.3873924	16.4438946	-6.09627312	-4.89306132	-10.81744704
3.85	385	-0.117	-0.239	-0.723	-36.1536498	28.934379	14.037471	-6.44004792	-4.60658232	-10.72004418
3.86	386	-0.119	-0.234	-0.703	-36.096354	33.3461556	11.0580894	-6.8182002	-4.2685371	-10.63410048
3.87	387	-0.114	-0.227	-0.674	-36.4401288	37.4714532	8.59437	-7.19635248	-3.89038482	-10.58253426
3.88	388	-0.119	-0.216	-0.679	-36.4974246	38.5600734	6.6463128	-7.57450476	-3.50650296	-10.54815678
3.89	389	-0.105	-0.213	-0.638	-35.9817624	39.6486936	6.016059	-7.94692746	-3.11116194	-10.53096804
3.9	390	-0.077	-0.204	-0.596	-36.6120162	40.3362432	6.016059	-8.30216142	-2.71582092	-10.52523846
3.91	391	-0.068	-0.18	-0.585	-37.815228	41.0810886	5.9587632	-8.69177286	-2.30902074	-10.50804972
3.92	392	-0.067	-0.157	-0.566	-37.2995658	40.966497	5.9014674	-9.07565472	-1.90222056	-10.50232014
3.93	393	-0.07	-0.139	-0.541	-36.382833	41.3675676	5.5003968	-9.44807742	-1.4896908	-10.49659056
3.94	394	-0.064	-0.114	-0.539	-34.4920716	43.6021038	4.2398892	-9.80331138	-1.0599723	-10.5137793
3.95	395	-0.069	-0.086	-0.507	-31.6845774	46.982556	2.1199446	-10.11843828	-0.60733548	-10.55961594
3.96	396	-0.033	-0.087	-0.481	-28.1895336	50.6494872	0.4010706	-10.41064686	-0.1145916	-10.6283709
3.97	397	-0.021	-0.123	-0.459	-26.929026	55.003968	-0.4583664	-10.69139628	0.41252976	-10.7143146
3.98	398	-0.041	-0.163	-0.38	-27.3873924	56.3790672	-0.3437748	-10.97787528	0.96256944	-10.80598788
3.99	399	-0.057	-0.234	-0.321	-27.1009134	57.7541664	1.5469866	-11.26435428	1.52406828	-10.88047242
4	400	-0.056	-0.28	-0.219	-30.3094782	60.3897732	4.5263682	-11.55656286	2.11421502	-10.94922738
4.01	401	-0.073	-0.319	-0.182	-33.1169724	63.7129296	8.1932994	-11.90033766	2.7501984	-10.97787528
4.02	402	-0.107	-0.323	-0.228	-33.3461556	66.6350154	10.3705398	-12.24984204	3.41482968	-10.98933444
4.03	403	-0.181	-0.345	-0.184	-28.9916748	67.4371566	11.2872726	-12.55350978	4.09092012	-11.0007936
4.04	404	-0.24	-0.398	-0.139	-16.042824	65.7182826	12.3758928	-12.72539718	4.74982182	-11.00652318
4.05	405	-0.208	-0.397	-0.204	-11.3445684	58.0406454	3.2085648	-12.81134088	5.2998615	-11.09819646
4.06	406	-0.167	-0.441	-0.117	-3.7815228	56.3790672	-7.2192708	-12.87436626	5.83271244	-11.28154302
4.07	407	-0.012	-0.338	-0.003	-4.6409598	55.8061092	-17.0741484	-12.96030996	6.33691548	-11.55656286
4.08	408	0.15	-0.207	0.077	-2.2345362	51.1651494	-20.4546006	-13.02333534	6.78382272	-11.85450102
4.09	409	0.326	-0.09	0.119	-6.589017	46.409598	-25.6112226	-13.13792694	7.17916374	-12.19827582
4.1	410	0.6	0.105	0.117	-16.615782	30.3094782	-35.7525792	-13.39002846	7.47137232	-12.605076
4.11	411	0.936	0.302	0.023	-25.7258142	5.9587632	-47.1544434	-13.71088494	7.41407652	-13.07490156
4.12	412	1.137	0.415	-0.277	-29.7365202	-15.5844576	-48.3003594	-14.0661189	7.15051584	-13.51034964
4.13	413	0.97	0.48	-0.638	-28.361421	-27.8457588	-33.8618178	-14.38697538	6.79528188	-13.77391032
4.14	414	0.485	0.441	-0.863	-11.172681	-23.0329116	-15.9282324	-14.50729656	6.5317212	-13.87704276
4.15	415	0.057	0.502	-1.011	23.6058696	-21.7151082	-4.0680018	-14.30103168	6.29680842	-13.85985402
4.16	416	-0.22	0.659	-0.961	57.7541664	-23.4339822	-5.5576926	-13.71088494	6.06189564	-13.8655836
4.17	417	-0.298	0.858	-0.825	74.3699484	-21.6005166	-19.9962342	-12.96603954	5.8155237	-14.02601184
4.18	418	-0.263	0.876	-0.488	74.9429064	-16.329303	-32.4867186	-12.2326533	5.59207008	-14.31822042
4.19	419	-0.123	0.822	-0.16	66.8069028	-21.199446	-33.3461556	-11.58521076	5.32277982	-14.61615858
4.2	420	-0.029	0.705	-0.312	57.8114622	-39.7632852	-27.4446882	-11.05235982	4.88733174	-14.8109643
4.21	421	0.036	0.494	-0.609	69.7289886	-58.9573782	-20.912967	-10.34762148	4.27999626	-14.93128548
4.22	422	0.069	0.377	-0.807	96.3142398	-52.3110654	-13.9228794	-9.3678633	3.7528749	-15.00004044
4.23	423	-0.248	0.408	-0.971	140.7757806	-32.6013102	-3.5523396	-7.9354683	3.437748	-15.0114996
4.24	424	-0.701	0.359	-0.983	155.6726886	6.9327918	0.4583664	-6.35410422	3.5236917	-15.02295876
4.25	425	-1.48	0.532	-0.988	148.0523472	67.3798608	-2.8074942	-4.870143	4.19405256	-15.10890246
4.26	426	-1.479	0.739	-2.196	150.114996	124.5610692	-16.8449652	-3.3804522	5.43164184	-15.34381524
4.27	427	-1.028	1.008	-3.921	149.8858128	163.7513964	-33.2888598	-1.92513888	7.05311298	-15.72196752
4.28	428	-0.306	1.786	-3.996	129.4312122	156.131055	-49.847346	-0.70473834	8.60009958	-16.22617056
4.29	429	1.337	2.606	-3.996	0.0572958	62.3378304	-45.9512316	-0.77922288	9.21316464	-16.6730778
4.3	430	1.893	0.47	-3.996	-80.3860074	100.0384668	-32.2002396	-1.6615782	10.18719324	-16.9882047
4.31	431	1.127	0.653	-3.945	-73.1094408	111.7841058	-22.631841	-2.4637194	11.27581344	-17.2173879
4.32	432	0.47	0.786	-3.091	-101.127087	95.8558734	-13.178034	-3.53515086	12.20973498	-17.36635698
4.33	433	0.299	0.739	-2.09	-99.0644382	75.0002022	-7.8495246	-4.57220484	12.93166206	-17.46948942
4.34	434	0.295	0.537	-1.336	-80.1568242	78.5525418	-2.8074942	-5.40872352	13.69942578	-17.53824438
4.35	435	0.325	0.293	-0.879	-67.7809314	85.5999252	5.2712136	-6.11919144	14.54167404	-17.54397396
4.36	436	0.016	0.132	-0.699	-51.56622	70.5884256	11.4018642	-6.64058322	15.24641238	-17.48094858
4.37	437	-0.092	0.1	-0.374	-36.955791	44.977203	4.583664	-7.0187355	15.69331962	-17.46948942
4.38	438	0.108	0.156	-0.236	-23.491278	42.97185	-13.1207382	-7.31094408	16.09439022	-17.6471064
4.39	439	0.311	0.228	-0.245	-1.7761698	37.6433406	-34.6066632	-7.44272442	16.42097628	-18.04244742
4.4	440	0.567	0.149	-0.129	16.1001198	27.501984	-44.7480198	-7.43126526	16.69599612	-18.5351913
4.41	441	0.765	0.021	-0.129	18.5638392	12.318597	-39.6486936	-7.36823988	16.77048066	-18.95918022
4.42	442	0.786	0.059	-0.21	6.5317212	-8.59437	-22.4599536	-7.36823988	16.65588906	-19.18263384
4.43	443	0.591	0.295	-0.172	-4.9847346	-25.1528562	-2.6356068	-7.41407652	16.40378754	-19.18263384
4.44	444	0.271	0.542	-0.139	-11.5164558	-32.4867186	9.2246238	-7.48856106	16.09439022	-19.05658308
4.45	445	0.054	0.729	-0.091	-10.1413566	-33.804522	8.5370742	-7.70055552	15.76207458	-18.91334358
4.46	446	-0.04	0.783	-0.123	-2.4637194	-22.5745452	2.86479	-7.71201468	15.54435054	-18.86177736
4.47	447	-0.108	0.698	-0.223	1.9480572	-11.0580894	-2.291832	-7.68909636	15.42975894	-18.87323652
4.48	448	-0.12	0.51	-0.324	3.6669312	-5.2712136	-5.443101	-7.66617804	15.37246314	-18.92480274
4.49	449	-0.052	0.308	-0.535	4.1252976	-4.9274388	-4.9847346	-7.63753014	15.32089692	-18.97063938
4.5	450	0.082	0.159	-0.791	6.5317212	-10.8289062	-2.3491278	-7.58023434	15.17192784	-18.97636896
4.51	451	0.306	0.092	-1.042	11.2872726	-24.8663772	0.859437	-7.45418358	14.93128548	-18.94199148
4.52	452	0.458	0.117	-1.244	16.615782	-47.8992888	3.0939732	-7.25937786	14.4671895	-18.86177736
4.53	453	0.527	0.225	-1.359	19.3659804	-79.8130494	5.6149884	-7.0187355	13.68796662	-18.72999702
4.54	454	0.495	0.392	-1.392	16.1574156	-98.8925508	7.0473834	-6.80101146	12.72539718	-18.5638392
4.55	455	0.366	0.555	-1.348	8.7089616	-107.6588082	5.6722842	-6.68069028	11.67115446	-18.40914054
4.56	456	0.142	0.572	-1.31	2.8074942	-98.9498466	1.6615782	-6.6176649	10.69712586	-18.3060081
4.57	457	0.049	0.517	-1.298	-1.718874	-79.9849368	-4.2398892	-6.6176649	9.90644382	-18.2773602
4.58	458	-0.017	0.382	-1.272	-1.6615782	-58.441716	-8.021412	-6.63485364	9.32202666	-18.3060081
4.59	459	0.022	0.274	-1.238	-1.8907614	-38.101707	-9.6256944	-6.65777196	8.9381448	-18.36903348
4.6	460	0.109	0.208	-1.229	-2.3491278	-19.6524594	-8.9954406	-6.7036086	8.72042076	-18.43778844
4.61	461	0.198	0.17	-1.199	-3.4950438	-1.8334656	-5.9587632	-6.74371566	8.69750244	-18.49508424
4.62	462	0.248	0.155	-1.162	-3.8388186	6.7036086	-4.1252976	-6.79528188	8.75479824	-18.54092088
4.63	463	0.272	0.128	-1.102	-1.5469866	9.5111028	-2.86479	-6.8182002	8.84647152	-18.58102794
4.64	464	0.289	0.081	-1.029	0.9167328	9.2246238	-2.86479	-6.81247062	8.93241522	-18.61540542
4.65	465	0.293	0.04	-0.954	3.151269	7.1046792	-4.297185	-6.74371566	9.08711388	-18.68416038
4.66	466	0.259	0	-0.891	4.6409598	4.1252976	-7.161975	-6.70933818	9.12149136	-18.7643745
4.67	467	0.216	-0.039	-0.86	5.6149884	2.0626488	-10.3705398	-6.66923112	9.13295052	-18.86750694
4.68	468	0.187	-0.052	-0.87	6.8182002	-0.6302538	-11.8602306	-6.6176649	9.1100322	-18.98782812
4.69	469	0.152	-0.034	-0.882	8.0787078	-5.72958	-11.45916	-6.55463952	9.04127724	-19.09669014
4.7	470	0.121	-0.01	-0.886	8.880849	-9.6829902	-9.740286	-6.4457775	8.92668564	-19.194093
4.71	471	0.09	0.02	-0.89	8.59437	-15.183387	-7.2192708	-6.36556338	8.7662574	-19.2513888
4.72	472	0.057	0.056	-0.911	8.3651868	-20.2827132	-4.297185	-6.28534926	8.5657221	-19.2800367
4.73	473	0.013	0.079	-0.939	9.740286	-23.8923486	-1.3750992	-6.18221682	8.33080932	-19.27430712
4.74	474	-0.028	0.087	-0.949	13.5791046	-26.2987722	1.145916	-6.03324774	8.07297822	-19.24565922
4.75	475	-0.05	0.082	-0.935	18.907614	-28.6479	3.2085648	-5.83271244	7.75785132	-19.18836342
4.76	476	-0.054	0.057	-0.953	20.626488	-29.8511118	4.2398892	-5.60925882	7.47137232	-19.12533804
4.77	477	-0.065	0	-0.976	18.9649098	-28.4760126	4.1825934	-5.40299394	7.19635248	-19.06804224
4.78	478	-0.059	-0.071	-0.992	18.1627686	-26.8144344	4.9847346	-5.20818822	6.9327918	-19.00501686
4.79	479	-0.048	-0.115	-1.005	16.329303	-25.5539268	3.724227	-5.03630082	6.68641986	-18.95345064
4.8	480	-0.039	-0.157	-1.017	13.9801752	-22.6891368	1.718874	-4.81857678	6.42285918	-18.9362619
4.81	481	-0.024	-0.175	-1.027	10.4851314	-19.5378678	-0.2291832	-4.70398518	6.22805346	-18.93053232
4.82	482	-0.001	-0.156	-1.037	5.6722842	-15.9855282	-1.8907614	-4.64668938	6.0733548	-18.94199148
4.83	483	-0.022	-0.103	-1.032	1.5469866	-11.9748222	-3.724227	-4.63523022	5.95303362	-18.97063938
4.84	484	-0.019	-0.058	-1.017	-3.724227	-8.8235532	-5.443101	-4.67533728	5.85563076	-19.0222056
4.85	485	-0.027	0	-1.001	-7.9641162	-4.4690724	-6.2452422	-4.73263308	5.72385042	-19.0795014
4.86	486	-0.042	0.028	-0.982	-9.453807	0.5156622	-5.8441716	-4.83576552	5.72385042	-19.1367972
4.87	487	-0.05	0.047	-0.97	-9.1100322	5.3285094	-4.9847346	-4.93316838	5.76968706	-19.18836342
4.88	488	-0.047	0.057	-0.963	-7.7922288	9.1100322	-4.1825934	-5.01911208	5.85563076	-19.23420006
4.89	489	-0.029	0.064	-0.953	-7.3338624	11.6883432	-3.437748	-5.0993262	5.97022236	-19.27430712
4.9	490	-0.005	0.078	-0.948	-7.5630456	12.891555	-2.4637194	-5.19099948	6.0447069	-19.29722544
4.91	491	0.018	0.1	-0.95	-6.9900876	13.0634424	-1.3750992	-5.26548402	6.17075766	-19.32014376
4.92	492	0.038	0.123	-0.937	-6.875496	12.1467096	-0.5156622	-5.33996856	6.29107884	-19.33160292
4.93	493	0.045	0.146	-0.934	-6.0733548	9.6256944	0.1718874	-5.40299394	6.38275212	-19.3373325
4.94	494	0.045	0.151	-0.945	-3.6096354	8.021412	0.6875496	-5.443101	6.46296624	-19.3373325
4.95	495	0.041	0.146	-0.957	-1.3750992	6.2452422	1.2032118	-5.55196302	6.42285918	-19.29149586
4.96	496	0.046	0.136	-0.979	0	4.1825934	1.6042824	-5.55196302	6.46296624	-19.2800367
4.97	497	0.052	0.125	-0.991	0.7448454	1.9480572	1.8907614	-5.54050386	6.48588456	-19.26284796
4.98	498	0.056	0.113	-1.002	0.3437748	-0.2291832	2.2345362	-5.53477428	6.48588456	-19.23992964
4.99	499	0.054	0.1	-1.012	0.1145916	-1.2605076	2.4064236	-5.53477428	6.4744254	-19.21128174
5	500	0.053	0.085	-1.015	-0.6302538	-1.2032118	2.578311	-5.54623344	6.3311859	-19.17117468
5.01	501	0.055	0.07	-1.016	-1.3750992	-0.3437748	2.6356068	-5.5576926	6.3311859	-19.14252678
5.02	502	0.058	0.061	-1.016	-1.4896908	0.859437	2.7501984	-5.56915176	6.34264506	-19.11960846
5.03	503	0.065	0.056	-1.005	-1.7761698	2.578311	2.8074942	-5.5863405	6.37129296	-19.09096056
5.04	504	0.076	0.058	-0.999	-1.8334656	4.3544808	2.6356068	-5.59779966	6.4171296	-19.06804224
5.05	505	0.081	0.065	-0.994	-1.432395	5.6149884	2.291832	-5.60352924	6.43431834	-19.04512392
5.06	506	0.084	0.064	-0.984	-1.145916	6.6463128	2.005353	-5.6149884	6.5030733	-19.03366476
5.07	507	0.087	0.053	-0.978	-1.0886202	7.0473834	1.8334656	-5.62644756	6.57182826	-19.01647602
5.08	508	0.091	0.04	-0.978	-1.145916	7.2765666	1.5469866	-5.63790672	6.6463128	-19.00501686
5.09	509	0.097	0.025	-0.975	-1.7761698	7.2192708	1.3750992	-5.65509546	6.72079734	-18.99928728
5.1	510	0.102	0.016	-0.972	-2.578311	6.7036086	0.9167328	-5.62071798	6.76663398	-19.01074644
5.11	511	0.107	0.014	-0.973	-2.9793816	6.1879464	0.4010706	-5.64936588	6.82965936	-19.01074644
5.12	512	0.11	0.019	-0.978	-2.6929026	5.5576926	0	-5.67801378	6.88122558	-19.01074644
5.13	513	0.11	0.029	-0.985	-2.3491278	4.870143	-0.1718874	-5.7009321	6.92706222	-19.01647602
5.14	514	0.104	0.04	-0.989	-2.005353	3.8961144	-0.3437748	-5.72385042	6.96716928	-19.0222056
5.15	515	0.095	0.047	-0.994	-1.7761698	2.6929026	-0.4583664	-5.67801378	6.91560306	-19.03939434
5.16	516	0.092	0.047	-0.995	-1.432395	1.4896908	-0.6302538	-5.69520252	6.92706222	-19.04512392
5.17	517	0.094	0.048	-0.997	-0.9167328	0	-0.6875496	-5.70666168	6.92706222	-19.0508535
5.18	518	0.098	0.05	-0.996	-0.859437	-0.9740286	-0.7448454	-5.71812084	6.91560306	-19.06231266
5.19	519	0.101	0.058	-0.997	-0.8021412	-1.8334656	-0.6302538	-5.72385042	6.89841432	-19.06804224
5.2	520	0.102	0.064	-0.997	-0.859437	-2.4637194	-0.5156622	-5.7009321	6.80674104	-19.07377182
5.21	521	0.099	0.066	-0.996	-0.859437	-3.2658606	-0.3437748	-5.71239126	6.77809314	-19.07377182
5.22	522	0.091	0.066	-0.995	-0.8021412	-4.1825934	-0.2291832	-5.71812084	6.7322565	-19.07377182
5.23	523	0.081	0.064	-0.991	-0.6875496	-4.6409598	-0.3437748	-5.72385042	6.68641986	-19.07377182
5.24	524	0.072	0.065	-0.988	-0.4583664	-4.6982556	-0.3437748	-5.72958	6.64058322	-19.07377182
5.25	525	0.065	0.067	-0.982	-0.2291832	-4.1252976	-0.5156622	-5.71239126	6.48588456	-19.06804224
5.26	526	0.065	0.072	-0.977	-0.1718874	-3.437748	-0.6875496	-5.71812084	6.45150708	-19.07377182
5.27	527	0.068	0.08	-0.977	-0.1718874	-2.7501984	-0.6302538	-5.71812084	6.42285918	-19.0795014
5.28	528	0.069	0.082	-0.978	0	-2.1199446	-0.6302538	-5.71812084	6.39994086	-19.0795014
5.29	529	0.073	0.08	-0.982	0	-1.718874	-0.6875496	-5.71812084	6.38275212	-19.08523098
5.3	530	0.075	0.072	-0.983	-0.2291832	-1.6615782	-0.7448454	-5.69520252	6.23378304	-19.09096056
5.31	531	0.072	0.065	-0.985	-0.7448454	-1.8334656	-0.859437	-5.7009321	6.21086472	-19.09669014
5.32	532	0.069	0.063	-0.986	-0.9740286	-1.8907614	-0.9740286	-5.71239126	6.19367598	-19.10241972
5.33	533	0.067	0.062	-0.984	-0.9740286	-1.8907614	-1.0886202	-5.72385042	6.17075766	-19.11387888
5.34	534	0.066	0.068	-0.985	-1.0313244	-1.718874	-1.0886202	-5.73530958	6.15356892	-19.12533804
5.35	535	0.063	0.073	-0.984	-0.859437	-1.432395	-0.9740286	-5.72958	5.9874111	-19.11960846
5.36	536	0.06	0.073	-0.986	-0.7448454	-1.3178034	-0.9740286	-5.74103916	5.97595194	-19.13106762
5.37	537	0.061	0.07	-0.99	-0.6302538	-1.4896908	-0.859437	-5.74676874	5.9587632	-19.1367972
5.38	538	0.062	0.063	-0.992	-0.6302538	-1.718874	-0.8021412	-5.7582279	5.94157446	-19.14252678
5.39	539	0.06	0.059	-0.99	-0.859437	-1.7761698	-0.5156622	-5.76395748	5.92438572	-19.14825636
5.4	540	0.059	0.055	-0.989	-1.0886202	-1.8334656	-0.4010706	-5.71239126	5.76968706	-19.15971552
5.41	541	0.056	0.053	-0.986	-1.2032118	-2.005353	-0.286479	-5.72385042	5.75249832	-19.15971552
5.42	542	0.052	0.055	-0.984	-1.0886202	-1.7761698	-0.1145916	-5.73530958	5.73530958	-19.15971552
5.43	543	0.049	0.058	-0.983	-1.0886202	-1.432395	-0.1145916	-5.74676874	5.71812084	-19.15971552
5.44	544	0.044	0.062	-0.984	-0.859437	-0.9167328	-0.1145916	-5.75249832	5.70666168	-19.15971552
5.45	545	0.043	0.063	-0.985	-0.4583664	-0.4010706	-0.1718874	-5.5863405	5.03057124	-19.14252678
5.46	546	0.046	0.062	-0.985	-0.3437748	0	-0.286479	-5.59207008	5.03057124	-19.14825636
5.47	547	0.048	0.059	-0.987	-0.6302538	-0.0572958	-0.4010706	-5.59779966	5.03057124	-19.14825636
5.48	548	0.05	0.057	-0.987	-0.9740286	-0.0572958	-0.3437748	-5.60925882	5.02484166	-19.15398594
5.49	549	0.053	0.059	-0.987	-1.2032118	-0.0572958	-0.286479	-5.62071798	5.02484166	-19.15971552
5.5	550	0.055	0.063	-0.986	-1.2605076	0	-0.2291832	-5.55196302	4.80138804	-19.1654451
5.51	551	0.06	0.067	-0.986	-1.0313244	0.3437748	0	-5.56342218	4.80711762	-19.1654451
5.52	552	0.062	0.072	-0.985	-0.8021412	0.572958	0	-5.56915176	4.8128472	-19.1654451
5.53	553	0.066	0.074	-0.985	-0.6302538	0.8021412	0	-5.58061092	4.81857678	-19.1654451
5.54	554	0.069	0.073	-0.984	-0.6302538	0.9740286	-0.1145916	-5.5863405	4.83003594	-19.1654451
5.55	555	0.069	0.07	-0.982	-0.859437	1.0313244	-0.1718874	-5.56915176	4.76701056	-19.17117468
5.56	556	0.07	0.069	-0.982	-1.2032118	1.145916	-0.286479	-5.58061092	4.77846972	-19.17117468
5.57	557	0.073	0.07	-0.984	-1.3750992	1.2605076	-0.3437748	-5.59779966	4.78992888	-19.17690426
5.58	558	0.075	0.07	-0.985	-1.2032118	0.9167328	-0.286479	-5.60925882	4.79565846	-19.18263384
5.59	559	0.076	0.071	-0.987	-1.0313244	0.6302538	-0.1718874	-5.62071798	4.80711762	-19.18263384
5.6	560	0.075	0.073	-0.992	-0.6302538	0.2291832	-0.1145916	-5.60352924	4.65814854	-19.17690426
5.61	561	0.073	0.073	-0.991	-0.2291832	-0.0572958	-0.1145916	-5.60352924	4.65814854	-19.17690426
5.62	562	0.071	0.071	-0.989	-0.2291832	-0.2291832	-0.0572958	-5.60925882	4.65814854	-19.17690426
5.63	563	0.069	0.067	-0.988	-0.1718874	-0.3437748	-0.0572958	-5.60925882	4.65241896	-19.17690426
5.64	564	0.073	0.063	-0.985	-0.4010706	0	-0.1718874	-5.6149884	4.65241896	-19.18263384
5.65	565	0.079	0.063	-0.988	-0.8021412	0	-0.1145916	-5.54623344	4.58939358	-19.20555216
5.66	566	0.081	0.065	-0.99	-0.572958	-0.4583664	-0.1145916	-5.55196302	4.583664	-19.20555216
5.67	567	0.079	0.064	-0.989	-0.572958	-0.859437	-0.286479	-5.5576926	4.57793442	-19.20555216
5.68	568	0.073	0.064	-0.987	-0.4010706	-0.9740286	-0.286479	-5.56342218	4.56647526	-19.21128174
5.69	569	0.068	0.064	-0.983	-0.572958	-0.8021412	-0.4583664	-5.56915176	4.5550161	-19.21701132
5.7	570	0.065	0.062	-0.981	-0.7448454	-0.572958	-0.572958	-5.5290447	4.48053156	-19.22847048
5.71	571	0.066	0.06	-0.981	-0.7448454	-0.572958	-0.7448454	-5.54050386	4.47480198	-19.23992964
5.72	572	0.071	0.059	-0.982	-0.6875496	-0.859437	-0.859437	-5.54623344	4.46334282	-19.24565922
5.73	573	0.075	0.063	-0.987	-0.6875496	-1.2605076	-0.8021412	-5.5576926	4.45188366	-19.2513888
5.74	574	0.074	0.069	-0.992	-0.6875496	-1.6042824	-0.572958	-5.56342218	4.43469492	-19.25711838
5.75	575	0.071	0.072	-0.993	-0.6302538	-1.718874	-0.4583664	-5.56342218	4.37739912	-19.25711838
5.76	576	0.066	0.073	-0.992	-0.6302538	-1.6042824	-0.3437748	-5.56915176	4.36021038	-19.26284796
5.77	577	0.062	0.073	-0.99	-0.286479	-1.4896908	-0.4583664	-5.56915176	4.34302164	-19.26857754
5.78	578	0.059	0.073	-0.988	-0.1145916	-1.3178034	-0.572958	-5.57488134	4.33156248	-19.26857754
5.79	579	0.059	0.073	-0.983	0	-1.2605076	-0.4583664	-5.57488134	4.32010332	-19.27430712
5.8	580	0.06	0.075	-0.983	-0.0572958	-0.9740286	-0.5156622	-5.57488134	4.18832298	-19.26284796
5.81	581	0.061	0.075	-0.986	0.1145916	-0.572958	-0.5156622	-5.57488134	4.1825934	-19.26857754
5.82	582	0.062	0.074	-0.989	0.2291832	-0.6302538	-0.4583664	-5.56915176	4.17686382	-19.27430712
5.83	583	0.063	0.073	-0.989	0.1718874	-0.6875496	-0.3437748	-5.56915176	4.16540466	-19.27430712
5.84	584	0.061	0.07	-0.989	0.0572958	-0.7448454	-0.2291832	-5.56915176	4.15967508	-19.2800367
5.85	585	0.06	0.066	-0.989	-0.1718874	-0.6875496	-0.2291832	-5.51758554	4.06227222	-19.29149586
5.86	586	0.06	0.066	-0.988	-0.4010706	-0.5156622	-0.2291832	-5.52331512	4.05654264	-19.29149586
5.87	587	0.062	0.066	-0.987	-0.5156622	-0.2291832	-0.2291832	-5.5290447	4.05654264	-19.29149586
5.88	588	0.063	0.069	-0.988	-0.6302538	-0.1145916	-0.286479	-5.53477428	4.05081306	-19.29722544
5.89	589	0.063	0.07	-0.989	-0.4010706	-0.3437748	-0.2291832	-5.54050386	4.05081306	-19.29722544
5.9	590	0.062	0.071	-0.989	-0.2291832	-0.1718874	-0.2291832	-5.49466722	3.88465524	-19.29722544
5.91	591	0.062	0.07	-0.988	-0.0572958	0	-0.2291832	-5.5003968	3.88465524	-19.30295502
5.92	592	0.06	0.067	-0.988	-0.286479	0.0572958	-0.286479	-5.5003968	3.88465524	-19.30295502
5.93	593	0.062	0.065	-0.985	-0.4010706	0.0572958	-0.1718874	-5.50612638	3.89038482	-19.30295502
5.94	594	0.063	0.063	-0.984	-0.5156622	0	-0.1718874	-5.51185596	3.89038482	-19.3086846
5.95	595	0.064	0.065	-0.986	-0.5156622	-0.0572958	-0.1718874	-5.45456016	3.80444112	-19.32587334
5.96	596	0.062	0.067	-0.989	-0.572958	-0.2291832	-0.286479	-5.46601932	3.80444112	-19.33160292
5.97	597	0.063	0.069	-0.989	-0.3437748	-0.4583664	-0.2291832	-5.46601932	3.79871154	-19.33160292
5.98	598	0.065	0.07	-0.992	-0.1145916	-0.4010706	-0.1718874	-5.46601932	3.79298196	-19.33160292
5.99	599	0.065	0.069	-0.992	-0.0572958	-0.4010706	-0.1718874	-5.4717489	3.79298196	-19.33160292
6	600	0.066	0.068	-0.992	-0.1718874	-0.3437748	-0.1145916	-5.43164184	3.72995658	-19.34879166
6.01	601	0.064	0.07	-0.99	-0.2291832	-0.286479	-0.1145916	-5.43164184	3.724227	-19.34879166
6.02	602	0.065	0.071	-0.988	-0.286479	-0.0572958	-0.1145916	-5.43737142	3.724227	-19.34879166
6.03	603	0.064	0.073	-0.986	-0.0572958	0.1145916	-0.1145916	-5.43737142	3.724227	-19.34879166
6.04	604	0.066	0.074	-0.986	-0.0572958	0.0572958	-0.1145916	-5.43737142	3.724227	-19.35452124
6.05	605	0.07	0.074	-0.985	0	0.0572958	-0.1145916	-5.42591226	3.67839036	-19.35452124
6.06	606	0.068	0.073	-0.985	0.0572958	0	-0.0572958	-5.42591226	3.67839036	-19.35452124
6.07	607	0.068	0.071	-0.985	0	0	-0.1145916	-5.42591226	3.67839036	-19.35452124
6.08	608	0.069	0.07	-0.985	0	0.1145916	-0.1718874	-5.42591226	3.67839036	-19.35452124
6.09	609	0.068	0.07	-0.985	-0.0572958	0.0572958	-0.2291832	-5.42591226	3.67839036	-19.36025082
6.1	610	0.069	0.071	-0.984	-0.2291832	0.1145916	-0.286479	-5.42018268	3.6669312	-19.3659804
6.11	611	0.07	0.072	-0.983	-0.1718874	0.1145916	-0.2291832	-5.42018268	3.67266078	-19.3659804
6.12	612	0.067	0.074	-0.987	0.0572958	-0.0572958	-0.2291832	-5.42018268	3.6669312	-19.37170998
6.13	613	0.062	0.073	-0.988	0.4010706	-0.2291832	-0.1718874	-5.4144531	3.6669312	-19.37170998
6.14	614	0.058	0.071	-0.987	0.5156622	-0.4010706	-0.3437748	-5.40872352	3.66120162	-19.37743956
6.15	615	0.059	0.069	-0.988	0.286479	-0.2291832	-0.3437748	-5.37434604	3.59244666	-19.38316914
6.16	616	0.062	0.066	-0.991	0.1145916	-0.2291832	-0.3437748	-5.37434604	3.59244666	-19.38889872
6.17	617	0.066	0.065	-0.993	0.0572958	-0.2291832	-0.286479	-5.37434604	3.58671708	-19.38889872
6.18	618	0.067	0.064	-0.994	0	-0.1718874	-0.2291832	-5.37434604	3.58671708	-19.3946283
6.19	619	0.066	0.066	-0.992	0.0572958	-0.1718874	0	-5.36861646	3.5809875	-19.3946283
6.2	620	0.063	0.068	-0.99	0	-0.4010706	0	-5.35142772	3.51796212	-19.3946283
6.21	621	0.06	0.07	-0.988	0	-0.3437748	-0.1145916	-5.35142772	3.51223254	-19.3946283
6.22	622	0.062	0.07	-0.991	0.1718874	-0.1145916	-0.1145916	-5.34569814	3.51223254	-19.3946283
6.23	623	0.064	0.07	-0.991	0.4583664	-0.1718874	-0.1145916	-5.33996856	3.50650296	-19.3946283
6.24	624	0.065	0.071	-0.995	0.4583664	0	-0.1145916	-5.33996856	3.50650296	-19.40035788
6.25	625	0.065	0.07	-0.993	0.4583664	0	0	-5.32277982	3.4950438	-19.40035788
6.26	626	0.065	0.071	-0.991	0.4583664	-0.1718874	-0.0572958	-5.31705024	3.48931422	-19.40035788
6.27	627	0.065	0.072	-0.991	0.5156622	-0.1145916	-0.0572958	-5.31132066	3.48931422	-19.40035788
6.28	628	0.065	0.074	-0.991	0.6302538	-0.1145916	0.0572958	-5.30559108	3.48931422	-19.40035788
6.29	629	0.064	0.073	-0.991	0.572958	-0.0572958	0	-5.2998615	3.48931422	-19.40035788
6.3	630	0.062	0.074	-0.988	0.6302538	0.0572958	0.0572958	-5.2998615	3.46066632	-19.3946283
6.31	631	0.065	0.072	-0.987	0.572958	0	0.0572958	-5.29413192	3.46066632	-19.3946283
6.32	632	0.063	0.072	-0.988	0.4583664	0.0572958	0.0572958	-5.28840234	3.4663959	-19.38889872
6.33	633	0.063	0.069	-0.988	0.4010706	0.0572958	0.0572958	-5.28840234	3.4663959	-19.38889872
6.34	634	0.064	0.068	-0.987	0.4010706	0.0572958	0.1145916	-5.28267276	3.4663959	-19.38889872
6.35	635	0.063	0.067	-0.987	0.5156622	0.0572958	0.1145916	-5.25975444	3.45493674	-19.3946283
6.36	636	0.065	0.068	-0.986	0.6302538	-0.1718874	0.1145916	-5.25402486	3.44920716	-19.3946283
6.37	637	0.064	0.068	-0.986	0.6302538	-0.1145916	0.0572958	-5.2425657	3.44920716	-19.38889872
6.38	638	0.063	0.069	-0.985	0.6302538	0	0.0572958	-5.23683612	3.44920716	-19.38889872
6.39	639	0.064	0.069	-0.987	0.5156622	0.1145916	0.0572958	-5.23110654	3.44920716	-19.38889872
6.4	640	0.066	0.068	-0.988	0.5156622	0.1718874	0.0572958	-5.2139178	3.44920716	-19.3946283
6.41	641	0.067	0.065	-0.987	0.4583664	0.1718874	0.1145916	-5.20818822	3.44920716	-19.3946283
6.42	642	0.067	0.065	-0.985	0.3437748	0.1145916	0.1145916	-5.20818822	3.45493674	-19.38889872
6.43	643	0.067	0.063	-0.984	0.2291832	0	0.0572958	-5.20245864	3.45493674	-19.38889872
6.44	644	0.066	0.064	-0.983	0	0.0572958	0	-5.20245864	3.45493674	-19.38889872
6.45	645	0.067	0.066	-0.984	-0.2291832	0	0	-5.17954032	3.44920716	-19.40035788
6.46	646	0.066	0.067	-0.987	0	-0.0572958	-0.0572958	-5.17954032	3.44920716	-19.40035788
6.47	647	0.065	0.069	-0.989	0.2291832	-0.0572958	0	-5.17954032	3.44920716	-19.40035788
6.48	648	0.063	0.068	-0.99	0.4010706	0	0	-5.17381074	3.44920716	-19.40035788
6.49	649	0.062	0.065	-0.986	0	0.0572958	0.1145916	-5.17381074	3.44920716	-19.40035788
6.5	650	0.062	0.065	-0.985	-0.3437748	-0.0572958	0.0572958	-5.15089242	3.39764094	-19.40035788
6.51	651	0.064	0.063	-0.985	-0.4010706	0.286479	0	-5.156622	3.40337052	-19.40035788
6.52	652	0.072	0.064	-0.986	-0.6875496	0.286479	0.0572958	-5.16235158	3.40337052	-19.40035788
6.53	653	0.073	0.068	-0.99	-0.6875496	-0.2291832	0	-5.17381074	3.40337052	-19.40035788
6.54	654	0.069	0.07	-0.985	-0.572958	-0.5156622	0	-5.17954032	3.39764094	-19.40035788
6.55	655	0.063	0.07	-0.982	-0.572958	-0.3437748	-0.1145916	-5.19099948	3.36899304	-19.3946283
6.56	656	0.058	0.067	-0.98	-0.572958	0.0572958	-0.2291832	-5.19672906	3.36899304	-19.3946283
6.57	657	0.058	0.061	-0.979	-0.9167328	0.1718874	-0.3437748	-5.20818822	3.36899304	-19.40035788
6.58	658	0.064	0.06	-0.982	-1.145916	-0.1718874	-0.4583664	-5.21964738	3.36899304	-19.40608746
6.59	659	0.07	0.061	-0.985	-0.859437	-0.572958	-0.3437748	-5.22537696	3.36326346	-19.40608746
6.6	660	0.073	0.066	-0.989	-0.7448454	-0.6875496	-0.1145916	-5.22537696	3.36326346	-19.41754662
6.61	661	0.068	0.072	-0.992	-0.7448454	-0.6875496	0.1145916	-5.23110654	3.35753388	-19.41181704
6.62	662	0.064	0.073	-0.995	-0.5156622	-0.5156622	0.2291832	-5.23683612	3.3518043	-19.41181704
6.63	663	0.062	0.071	-0.993	-0.1718874	-0.3437748	0.1145916	-5.23683612	3.3518043	-19.40608746
6.64	664	0.062	0.068	-0.987	0	-0.1718874	0.0572958	-5.23683612	3.34607472	-19.40608746
6.65	665	0.063	0.066	-0.983	-0.1145916	-0.0572958	0	-5.23110654	3.33461556	-19.41181704
6.66	666	0.064	0.07	-0.98	-0.3437748	0.0572958	0	-5.23683612	3.33461556	-19.41181704
6.67	667	0.063	0.072	-0.981	-0.286479	0.2291832	0	-5.23683612	3.33461556	-19.41181704
6.68	668	0.064	0.072	-0.982	-0.0572958	0.4010706	0	-5.23683612	3.34034514	-19.41181704
6.69	669	0.064	0.071	-0.986	-0.0572958	0.2291832	0.1145916	-5.2425657	3.34034514	-19.40608746
6.7	670	0.065	0.066	-0.987	-0.1145916	0.0572958	0.1145916	-5.21964738	3.33461556	-19.41181704
6.71	671	0.065	0.063	-0.988	-0.4010706	0.0572958	0.1718874	-5.22537696	3.33461556	-19.41181704
6.72	672	0.064	0.062	-0.987	-0.6875496	0.1145916	0.1145916	-5.23110654	3.33461556	-19.41181704
6.73	673	0.063	0.062	-0.987	-0.859437	0.1718874	0.1145916	-5.2425657	3.33461556	-19.41181704
6.74	674	0.064	0.064	-0.986	-0.859437	0.4010706	0.1145916	-5.24829528	3.34034514	-19.40608746
6.75	675	0.065	0.067	-0.985	-0.9167328	0.286479	0	-5.25975444	3.34034514	-19.40608746
6.76	676	0.065	0.07	-0.987	-0.7448454	0.286479	0.1145916	-5.26548402	3.34607472	-19.40608746
6.77	677	0.067	0.07	-0.988	-0.572958	0.286479	0.1145916	-5.2712136	3.34607472	-19.40608746
6.78	678	0.067	0.066	-0.988	-0.0572958	0.2291832	0.1145916	-5.2712136	3.3518043	-19.40608746
6.79	679	0.067	0.062	-0.984	-0.3437748	0.1145916	0.1145916	-5.27694318	3.3518043	-19.40608746
6.8	680	0.065	0.059	-0.984	-0.6302538	-0.1718874	0	-5.24829528	3.34607472	-19.41754662
6.81	681	0.066	0.06	-0.984	-0.8021412	-0.3437748	-0.1145916	-5.25975444	3.34607472	-19.41754662
6.82	682	0.066	0.064	-0.986	-0.7448454	-0.4583664	-0.1145916	-5.26548402	3.34034514	-19.41754662
6.83	683	0.064	0.07	-0.987	-0.5156622	-0.4010706	-0.1145916	-5.2712136	3.33461556	-19.41754662
6.84	684	0.064	0.074	-0.99	-0.0572958	-0.286479	0	-5.2712136	3.32888598	-19.41754662
6.85	685	0.063	0.074	-0.992	0.1718874	-0.1145916	0	-5.29413192	3.30023808	-19.40608746
6.86	686	0.064	0.072	-0.992	0.3437748	-0.0572958	0.0572958	-5.28840234	3.30023808	-19.40608746
6.87	687	0.064	0.07	-0.991	0.286479	0	0.0572958	-5.28840234	3.30023808	-19.40608746
6.88	688	0.066	0.068	-0.989	0.3437748	0.1145916	0.1145916	-5.28267276	3.30596766	-19.40035788
6.89	689	0.068	0.068	-0.989	0.4010706	0	0.0572958	-5.27694318	3.30596766	-19.40035788
6.9	690	0.069	0.067	-0.988	0.4583664	-0.1145916	0.0572958	-5.25975444	3.3231564	-19.40608746
6.91	691	0.067	0.069	-0.985	0.5156622	-0.1145916	0.0572958	-5.25402486	3.31742682	-19.40608746
6.92	692	0.066	0.069	-0.985	0.572958	0	0	-5.24829528	3.31742682	-19.40608746
6.93	693	0.063	0.069	-0.985	0.572958	0	0	-5.2425657	3.31742682	-19.40608746
6.94	694	0.062	0.069	-0.985	0.6875496	0.0572958	-0.0572958	-5.23683612	3.3231564	-19.40608746
6.95	695	0.064	0.067	-0.986	0.6302538	0.0572958	-0.0572958	-5.21964738	3.31742682	-19.41181704
6.96	696	0.064	0.066	-0.986	0.4010706	0	0	-5.2139178	3.31742682	-19.41754662
6.97	697	0.064	0.065	-0.987	0.1718874	-0.2291832	0	-5.20818822	3.31742682	-19.41754662
6.98	698	0.064	0.064	-0.988	0.0572958	-0.3437748	0	-5.20818822	3.31169724	-19.41754662
6.99	699	0.064	0.064	-0.988	-0.0572958	-0.286479	-0.0572958	-5.20818822	3.31169724	-19.41754662
7	700	0.063	0.067	-0.988	0	-0.1718874	-0.0572958	-5.19672906	3.2945085	-19.41754662
7.01	701	0.063	0.068	-0.987	0.1145916	-0.0572958	-0.0572958	-5.19672906	3.2945085	-19.4232762
7.02	702	0.063	0.068	-0.986	0.1718874	-0.0572958	-0.1145916	-5.19099948	3.2945085	-19.4232762
7.03	703	0.063	0.066	-0.985	0.2291832	0	-0.1145916	-5.19099948	3.2945085	-19.4232762
7.04	704	0.063	0.064	-0.985	0.1145916	0.1145916	-0.0572958	-5.19099948	3.2945085	-19.4232762
7.05	705	0.063	0.063	-0.985	0	0.1145916	0	-5.13943326	3.28304934	-19.44046494
7.06	706	0.064	0.063	-0.982	-0.1718874	0.1718874	0	-5.13943326	3.28304934	-19.44046494
7.07	707	0.064	0.065	-0.981	-0.2291832	0.2291832	0	-5.14516284	3.28304934	-19.44046494
7.08	708	0.065	0.068	-0.982	-0.1145916	0.1718874	0	-5.14516284	3.28877892	-19.44046494
7.09	709	0.066	0.068	-0.981	-0.0572958	0.1145916	0	-5.14516284	3.28877892	-19.44046494
7.1	710	0.066	0.068	-0.983	0	0.1145916	0	-5.15089242	3.30023808	-19.44046494
7.11	711	0.066	0.067	-0.983	0.0572958	0.1718874	0	-5.15089242	3.30023808	-19.44046494
7.12	712	0.066	0.067	-0.987	0.1718874	0.0572958	-0.0572958	-5.14516284	3.30023808	-19.44619452
7.13	713	0.064	0.065	-0.988	0.0572958	0.1145916	-0.0572958	-5.14516284	3.30023808	-19.44619452
7.14	714	0.064	0.065	-0.989	0.0572958	0	-0.0572958	-5.14516284	3.30023808	-19.44619452
7.15	715	0.064	0.065	-0.99	0.1145916	0	-0.0572958	-5.11651494	3.31742682	-19.45765368
