TimeStamp(s)	FrameCounter	AccX	AccY	AccZ	GyrX	GyrY	GyrZ	EulerX	EulerY	EulerZ
0.01	1	0.003	-1.005	0.039	-0.3437748	-0.4583664	-0.0572958	91.1576178	0.5443101	-21.64635324
0.02	2	0.004	-1.003	0.036	-0.3437748	0.0572958	-0.1718874	91.15188822	0.5443101	-21.64635324
0.03	3	0.004	-1.004	0.035	0	0	-0.1145916	91.15188822	0.5443101	-21.64635324
0.04	4	0.004	-1.007	0.035	0	-0.1145916	-0.1718874	91.15188822	0.55003968	-21.65208282
0.05	5	0.004	-1.006	0.036	0	-0.2291832	-0.1718874	91.11751074	0.55003968	-21.65208282
0.06	6	0.005	-1.004	0.034	0.1145916	-0.1718874	-0.3437748	91.11751074	0.55003968	-21.65208282
0.07	7	0.007	-1.001	0.032	0.3437748	0	-0.4010706	91.12324032	0.55576926	-21.65208282
0.08	8	0.009	-0.999	0.032	0.286479	0	-0.4583664	91.1289699	0.56149884	-21.65208282
0.09	9	0.008	-0.999	0.038	0.3437748	0	-0.5156622	91.1289699	0.56722842	-21.65208282
0.1	10	0.008	-0.999	0.034	0.572958	0.0572958	-0.572958	91.11178116	0.58441716	-21.6578124
0.11	11	0.008	-1.001	0.036	0.8021412	-0.3437748	-0.4583664	91.12324032	0.59014674	-21.66354198
0.12	12	0.007	-1.003	0.039	0.859437	-0.7448454	-0.3437748	91.1289699	0.59587632	-21.66927156
0.13	13	0.007	-1.006	0.038	0.859437	-0.8021412	-0.1718874	91.14042906	0.59587632	-21.67500114
0.14	14	0.005	-1.009	0.036	0.7448454	-0.7448454	-0.3437748	91.14615864	0.6016059	-21.68073072
0.15	15	0.004	-1.01	0.035	0.8021412	-0.8021412	-0.4583664	91.14615864	0.60733548	-21.69218988
0.16	16	0.004	-1.01	0.037	0.8021412	-0.572958	-0.6302538	91.1576178	0.61306506	-21.69791946
0.17	17	0.008	-1.01	0.037	0.859437	-0.1145916	-0.7448454	91.16334738	0.62452422	-21.69791946
0.18	18	0.011	-1.011	0.039	0.9167328	0.2291832	-0.6875496	91.17480654	0.6302538	-21.69791946
0.19	19	0.012	-1.012	0.042	0.8021412	0.1145916	-0.4010706	91.1862657	0.63598338	-21.69218988
0.2	20	0.013	-1.011	0.044	0.6875496	-0.5156622	-0.3437748	91.19772486	0.65317212	-21.70364904
0.21	21	0.013	-1.009	0.044	0.4583664	-0.9740286	-0.3437748	91.19772486	0.6589017	-21.7151082
0.22	22	0.01	-1.006	0.042	0.1718874	-0.9740286	-0.286479	91.20345444	0.6589017	-21.72083778
0.23	23	0.005	-1.002	0.04	0	-0.5156622	-0.4010706	91.20345444	0.66463128	-21.72656736
0.24	24	0.003	-0.998	0.037	0.0572958	-0.1145916	-0.5156622	91.20345444	0.67036086	-21.73229694
0.25	25	0.004	-0.997	0.034	0.1145916	0.1718874	-0.4583664	91.16907696	0.67036086	-21.72656736
0.26	26	0.007	-0.998	0.034	0.2291832	0.7448454	-0.4010706	91.17480654	0.67609044	-21.72083778
0.27	27	0.01	-1.001	0.034	0.572958	0.7448454	-0.2291832	91.18053612	0.67609044	-21.70937862
0.28	28	0.011	-1.006	0.035	0.8021412	0.7448454	-0.1145916	91.1862657	0.67609044	-21.70364904
0.29	29	0.012	-1.008	0.035	0.859437	0.859437	0	91.19772486	0.67609044	-21.69218988
0.3	30	0.01	-1.01	0.035	0.9740286	0.6875496	0.0572958	91.19199528	0.68182002	-21.69218988
0.31	31	0.009	-1.009	0.037	1.0886202	0.4583664	0.2291832	91.20345444	0.68182002	-21.6864603
0.32	32	0.007	-1.009	0.036	0.859437	0.286479	0.1718874	91.20918402	0.68182002	-21.68073072
0.33	33	0.007	-1.006	0.036	0.7448454	0.2291832	0.0572958	91.22064318	0.67609044	-21.68073072
0.34	34	0.007	-1.005	0.039	0.572958	0.2291832	-0.0572958	91.22637276	0.68182002	-21.67500114
0.35	35	0.008	-1.004	0.04	0.572958	0.286479	-0.1718874	91.22064318	0.6875496	-21.67500114
0.36	36	0.011	-1.007	0.041	0.7448454	0.3437748	0	91.23210234	0.6875496	-21.66927156
0.37	37	0.012	-1.008	0.042	0.6875496	0.1718874	0.1145916	91.23783192	0.6875496	-21.66927156
0.38	38	0.012	-1.009	0.042	0.4010706	-0.1145916	0.1718874	91.2435615	0.6875496	-21.66927156
0.39	39	0.01	-1.007	0.041	0.2291832	-0.1718874	0.1718874	91.2435615	0.68182002	-21.67500114
0.4	40	0.008	-1.005	0.039	0.1718874	-0.1718874	0.0572958	91.22637276	0.69327918	-21.67500114
0.41	41	0.006	-1.004	0.04	0.0572958	-0.286479	0	91.22637276	0.69327918	-21.68073072
0.42	42	0.006	-1.002	0.041	-0.1145916	-0.1718874	-0.0572958	91.22637276	0.69327918	-21.68073072
0.43	43	0.006	-1.002	0.041	-0.286479	-0.0572958	-0.1145916	91.22064318	0.69327918	-21.68073072
0.44	44	0.009	-1.001	0.042	-0.3437748	0	-0.0572958	91.22064318	0.69327918	-21.68073072
0.45	45	0.011	-1.001	0.042	-0.2291832	0.0572958	0	91.20918402	0.72765666	-21.69218988
0.46	46	0.012	-1.004	0.04	-0.1718874	-0.0572958	0.1145916	91.20918402	0.72192708	-21.69218988
0.47	47	0.011	-1.006	0.04	-0.1145916	-0.286479	0.1718874	91.20918402	0.72192708	-21.69791946
0.48	48	0.01	-1.007	0.038	0	-0.1718874	0.286479	91.20918402	0.7161975	-21.69791946
0.49	49	0.009	-1.005	0.036	0.0572958	0	0.4583664	91.20918402	0.7161975	-21.69791946
0.5	50	0.01	-1.001	0.037	0.1145916	-0.3437748	0.5156622	91.1862657	0.7161975	-21.70364904
0.51	51	0.01	-1.001	0.037	0.1718874	-0.572958	0.5156622	91.1862657	0.7161975	-21.70937862
0.52	52	0.009	-1.001	0.036	0.1145916	-0.7448454	0.3437748	91.19199528	0.71046792	-21.72083778
0.53	53	0.006	-1.002	0.036	0	-1.0886202	0.2291832	91.19199528	0.71046792	-21.73229694
0.54	54	0.005	-1.005	0.036	0.1145916	-1.3750992	0.0572958	91.19199528	0.71046792	-21.7437561
0.55	55	0.002	-1.007	0.04	0	-1.3750992	0	91.1862657	0.69327918	-21.75521526
0.56	56	0.002	-1.01	0.039	-0.1145916	-1.2032118	0	91.1862657	0.69900876	-21.76667442
0.57	57	0.002	-1.01	0.04	-0.0572958	-1.145916	0	91.1862657	0.69900876	-21.77813358
0.58	58	0.004	-1.008	0.038	0.2291832	-0.6875496	0.0572958	91.1862657	0.69900876	-21.78386316
0.59	59	0.006	-1.007	0.04	0.5156622	-0.5156622	0.1718874	91.19199528	0.69327918	-21.78959274
0.6	60	0.007	-1.009	0.041	0.4010706	-0.4583664	0.1718874	91.19772486	0.69900876	-21.79532232
0.61	61	0.01	-1.011	0.04	0.572958	-0.5156622	0.286479	91.20345444	0.69327918	-21.8010519
0.62	62	0.011	-1.01	0.043	0.572958	-0.9167328	0.5156622	91.20918402	0.69327918	-21.81251106
0.63	63	0.012	-1.008	0.043	0.4583664	-1.145916	0.5156622	91.2149136	0.6875496	-21.82397022
0.64	64	0.011	-1.007	0.041	0.286479	-1.3750992	0.4583664	91.2149136	0.68182002	-21.83542938
0.65	65	0.011	-1.009	0.041	0.2291832	-1.6615782	0.286479	91.2149136	0.6875496	-21.8583477
0.66	66	0.009	-1.011	0.04	0.1718874	-2.2345362	0.1145916	91.2149136	0.6875496	-21.88126602
0.67	67	0.006	-1.011	0.042	0	-2.2345362	0	91.2149136	0.6875496	-21.89845476
0.68	68	0.002	-1.01	0.042	-0.0572958	-2.0626488	0	91.2149136	0.6875496	-21.92137308
0.69	69	0	-1.008	0.039	-0.1718874	-1.9480572	0	91.2149136	0.6875496	-21.9442914
0.7	70	0	-1.007	0.038	-0.1145916	-1.6042824	0.1718874	91.20345444	0.67036086	-21.95575056
0.71	71	0	-1.006	0.041	0	-1.5469866	0.286479	91.20345444	0.67036086	-21.96720972
0.72	72	-0.001	-1.007	0.042	0	-1.4896908	0.1718874	91.20345444	0.66463128	-21.98439846
0.73	73	0	-1.007	0.043	-0.0572958	-1.2032118	0.2291832	91.20345444	0.66463128	-21.99585762
0.74	74	0.003	-1.006	0.042	0.0572958	-0.4010706	0.4583664	91.20345444	0.6589017	-22.0015872
0.75	75	0.005	-1.005	0.04	0.2291832	-0.2291832	0.6875496	91.19772486	0.65317212	-22.0015872
0.76	76	0.008	-1.003	0.039	0.4583664	-0.3437748	0.859437	91.20345444	0.64171296	-22.00731678
0.77	77	0.01	-1.002	0.039	0.4010706	-0.3437748	0.8021412	91.20918402	0.63598338	-22.00731678
0.78	78	0.01	-1.003	0.037	0.4583664	-0.6875496	0.7448454	91.2149136	0.6302538	-22.01877594
0.79	79	0.01	-1.003	0.039	0.5156622	-0.9167328	0.6875496	91.22064318	0.62452422	-22.02450552
0.8	80	0.01	-1.004	0.041	0.7448454	-1.145916	0.572958	91.22637276	0.62452422	-22.04169426
0.81	81	0.007	-1.004	0.042	0.859437	-1.5469866	0.572958	91.23210234	0.61879464	-22.05315342
0.82	82	0.006	-1.006	0.038	0.8021412	-1.718874	0.4583664	91.2435615	0.61306506	-22.07034216
0.83	83	0.005	-1.006	0.037	0.6302538	-1.7761698	0.286479	91.24929108	0.61306506	-22.0875309
0.84	84	0.004	-1.006	0.039	0.7448454	-1.7761698	0.1718874	91.25502066	0.60733548	-22.10471964
0.85	85	0.003	-1.004	0.04	0.9740286	-1.718874	0.1145916	91.26075024	0.60733548	-22.12190838
0.86	86	0.002	-1.004	0.04	1.0886202	-1.6042824	0	91.2722094	0.60733548	-22.13909712
0.87	87	0.001	-1.005	0.041	1.145916	-1.6042824	-0.1145916	91.28366856	0.60733548	-22.15628586
0.88	88	0.002	-1.007	0.038	1.0313244	-1.718874	-0.286479	91.29512772	0.61306506	-22.1734746
0.89	89	0.006	-1.01	0.041	0.7448454	-1.9480572	-0.5156622	91.3008573	0.61879464	-22.19066334
0.9	90	0.005	-1.009	0.042	0.4583664	-2.6929026	-0.6875496	91.30658688	0.62452422	-22.21931124
0.91	91	0.003	-1.005	0.044	0.2291832	-3.0939732	-1.0886202	91.30658688	0.64171296	-22.24795914
0.92	92	0.001	-1.004	0.045	0.0572958	-3.2658606	-1.3178034	91.30658688	0.65317212	-22.28233662
0.93	93	0	-1.002	0.045	0	-2.9793816	-1.4896908	91.30658688	0.67036086	-22.31098452
0.94	94	-0.001	-1.004	0.045	0.0572958	-2.6356068	-1.5469866	91.30658688	0.6875496	-22.33390284
0.95	95	-0.001	-1.006	0.044	0.1718874	-2.1772404	-1.6042824	91.31231646	0.69900876	-22.35682116
0.96	96	0	-1.009	0.045	0.286479	-1.718874	-1.5469866	91.31231646	0.7161975	-22.3740099
0.97	97	0.001	-1.012	0.043	0.3437748	-1.2032118	-1.5469866	91.31804604	0.72765666	-22.38546906
0.98	98	0.003	-1.01	0.043	0.3437748	-0.9167328	-1.6042824	91.31804604	0.7448454	-22.39119864
0.99	99	0.003	-1.007	0.044	0.5156622	-0.4583664	-1.718874	91.32377562	0.76203414	-22.39692822
1	100	0.003	-1.004	0.045	0.572958	0	-1.8907614	91.33523478	0.77922288	-22.39692822
1.01	101	0.002	-1.004	0.05	0.572958	0.5156622	-2.005353	91.34096436	0.79641162	-22.39119864
1.02	102	0.002	-1.002	0.055	0.286479	0.859437	-2.0626488	91.34096436	0.81932994	-22.37973948
1.03	103	0.001	-1.002	0.055	0.1718874	1.2032118	-2.0626488	91.34669394	0.83651868	-22.36828032
1.04	104	0.001	-1.005	0.051	0.286479	1.4896908	-2.1772404	91.34669394	0.859437	-22.35109158
1.05	105	0	-1.007	0.048	0.1145916	2.1199446	-2.4064236	91.35242352	0.87662574	-22.32817326
1.06	106	0	-1.007	0.047	0.1145916	3.151269	-2.578311	91.35242352	0.89954406	-22.29379578
1.07	107	0.001	-1.006	0.047	0.3437748	3.7815228	-2.6929026	91.3581531	0.92819196	-22.2594183
1.08	108	0.003	-1.003	0.049	0.572958	3.9534102	-2.6929026	91.36388268	0.95111028	-22.21931124
1.09	109	0.004	-1.002	0.049	0.7448454	4.2398892	-2.6356068	91.36961226	0.9740286	-22.1734746
1.1	110	0.007	-1.002	0.049	0.8021412	4.4117766	-2.6929026	91.38107142	0.99694692	-22.12763796
1.11	111	0.009	-1.006	0.049	0.572958	4.7555514	-2.6929026	91.386801	1.02559482	-22.08180132
1.12	112	0.012	-1.007	0.046	0.3437748	4.9847346	-2.6929026	91.39253058	1.04851314	-22.0302351
1.13	113	0.018	-1.009	0.044	0.4010706	4.6982556	-2.578311	91.39826016	1.07143146	-21.98439846
1.14	114	0.021	-1.009	0.047	0.286479	4.1825934	-2.291832	91.39826016	1.09434978	-21.9442914
1.15	115	0.024	-1.008	0.045	0	3.7815228	-2.1772404	91.39826016	1.1172681	-21.90418434
1.16	116	0.024	-1.009	0.048	-0.0572958	3.3231564	-2.005353	91.39826016	1.13445684	-21.86980686
1.17	117	0.02	-1.01	0.047	-0.1145916	2.6356068	-1.8907614	91.39826016	1.15164558	-21.84688854
1.18	118	0.016	-1.011	0.044	-0.1718874	2.4064236	-1.8907614	91.39253058	1.1745639	-21.81824064
1.19	119	0.013	-1.012	0.041	-0.286479	2.6929026	-1.8907614	91.39253058	1.19175264	-21.79532232
1.2	120	0.014	-1.013	0.042	-0.286479	2.7501984	-1.6615782	91.386801	1.2032118	-21.76667442
1.21	121	0.015	-1.012	0.042	-0.5156622	2.578311	-1.4896908	91.38107142	1.21467096	-21.73802652
1.22	122	0.016	-1.008	0.047	-0.572958	1.718874	-1.2032118	91.37534184	1.22613012	-21.72083778
1.23	123	0.017	-1.003	0.054	-0.7448454	0.9167328	-1.0886202	91.36961226	1.23758928	-21.70937862
1.24	124	0.016	-1	0.057	-0.9167328	0.572958	-0.9167328	91.3581531	1.24904844	-21.70364904
1.25	125	0.016	-1.004	0.054	-0.9740286	0.5156622	-0.7448454	91.3581531	1.25477802	-21.69791946
1.26	126	0.015	-1.005	0.047	-1.145916	0.5156622	-0.6302538	91.34669394	1.2605076	-21.69218988
1.27	127	0.014	-1.009	0.041	-1.0886202	0.6302538	-0.572958	91.33523478	1.26623718	-21.6864603
1.28	128	0.014	-1.012	0.039	-1.0886202	0.4583664	-0.572958	91.32377562	1.27196676	-21.68073072
1.29	129	0.011	-1.011	0.037	-0.9740286	0.286479	-0.4583664	91.31231646	1.27769634	-21.68073072
1.3	130	0.011	-1.01	0.036	-1.0886202	0.0572958	-0.4583664	91.28366856	1.26623718	-21.67500114
1.31	131	0.01	-1.008	0.038	-1.145916	-0.0572958	-0.4583664	91.2722094	1.27196676	-21.67500114
1.32	132	0.008	-1.006	0.044	-0.8021412	-0.0572958	-0.4010706	91.26647982	1.27196676	-21.67500114
1.33	133	0.008	-1.001	0.045	-0.1718874	0.2291832	-0.286479	91.26075024	1.27769634	-21.67500114
1.34	134	0.01	-1.001	0.044	0.1718874	0.2291832	-0.2291832	91.26647982	1.27769634	-21.66927156
1.35	135	0.01	-1	0.045	0.4010706	0.1145916	-0.1718874	91.27793898	1.24904844	-21.66354198
1.36	136	0.011	-1.001	0.046	0.572958	0	-0.1145916	91.28939814	1.25477802	-21.66354198
1.37	137	0.011	-1.001	0.048	0.6875496	0.2291832	-0.1718874	91.29512772	1.25477802	-21.6578124
1.38	138	0.011	-1.002	0.045	0.6302538	0.4583664	-0.1718874	91.3008573	1.25477802	-21.6578124
1.39	139	0.013	-1.002	0.045	0.5156622	0.4010706	-0.1718874	91.30658688	1.2605076	-21.65208282
1.4	140	0.012	-1.002	0.047	0.572958	0.1145916	-0.2291832	91.3295052	1.24331886	-21.64635324
1.41	141	0.014	-1.003	0.047	0.6302538	-0.2291832	-0.2291832	91.33523478	1.24904844	-21.64635324
1.42	142	0.016	-1.004	0.049	0.6875496	-0.3437748	-0.3437748	91.34096436	1.24904844	-21.65208282
1.43	143	0.019	-1.006	0.051	0.6302538	-0.4583664	-0.3437748	91.34669394	1.25477802	-21.6578124
1.44	144	0.019	-1.004	0.055	0.6302538	-0.572958	-0.4010706	91.3581531	1.2605076	-21.66354198
1.45	145	0.02	-1.005	0.057	0.6302538	-0.7448454	-0.3437748	91.38107142	1.27196676	-21.66927156
1.46	146	0.018	-1.007	0.053	0.7448454	-0.859437	-0.1718874	91.386801	1.27196676	-21.68073072
1.47	147	0.015	-1.008	0.05	0.8021412	-1.0313244	-0.1718874	91.39826016	1.27196676	-21.69218988
1.48	148	0.013	-1.008	0.05	0.8021412	-1.145916	-0.0572958	91.40398974	1.27769634	-21.70364904
1.49	149	0.012	-1.005	0.052	0.859437	-1.3178034	0	91.4154489	1.27769634	-21.7151082
1.5	150	0.012	-1.002	0.051	0.9740286	-1.4896908	0.0572958	91.42690806	1.27196676	-21.72656736
1.51	151	0.013	-1.001	0.049	1.145916	-1.718874	0.286479	91.43836722	1.26623718	-21.7437561
1.52	152	0.014	-1.002	0.047	1.2032118	-2.005353	0.3437748	91.44982638	1.26623718	-21.76667442
1.53	153	0.015	-1.005	0.047	1.145916	-2.3491278	0.3437748	91.46128554	1.2605076	-21.78959274
1.54	154	0.014	-1.008	0.046	0.9740286	-2.578311	0.2291832	91.4727447	1.2605076	-21.81251106
1.55	155	0.013	-1.01	0.048	0.8021412	-2.9220858	0.1718874	91.47847428	1.25477802	-21.84115896
1.56	156	0.011	-1.012	0.049	0.9167328	-2.8074942	0.1718874	91.48993344	1.25477802	-21.86980686
1.57	157	0.01	-1.014	0.05	0.9167328	-2.4637194	0.1718874	91.5013926	1.25477802	-21.89272518
1.58	158	0.008	-1.015	0.049	0.8021412	-2.4064236	0.1718874	91.50712218	1.25477802	-21.9156435
1.59	159	0.006	-1.015	0.049	0.9740286	-2.2345362	0.3437748	91.51858134	1.25477802	-21.93856182
1.6	160	0.002	-1.014	0.048	0.9167328	-2.1772404	0.4010706	91.5300405	1.2318597	-21.95575056
1.61	161	0	-1.013	0.048	0.6302538	-1.7761698	0.572958	91.53577008	1.22613012	-21.97866888
1.62	162	0	-1.009	0.048	0.3437748	-0.6302538	0.6302538	91.54149966	1.22040054	-21.98439846
1.63	163	0.004	-1.006	0.045	0.5156622	-0.286479	0.9740286	91.54149966	1.20894138	-21.98439846
1.64	164	0.007	-1.005	0.044	0.572958	-0.4010706	1.145916	91.54722924	1.19748222	-21.99012804
1.65	165	0.01	-1.005	0.048	0.3437748	-0.2291832	1.3178034	91.54722924	1.1745639	-21.99012804
1.66	166	0.014	-1.007	0.047	-0.1145916	0.0572958	1.432395	91.54722924	1.16310474	-21.99012804
1.67	167	0.014	-1.008	0.042	-0.4010706	0.0572958	1.2605076	91.54149966	1.15164558	-21.99012804
1.68	168	0.011	-1.011	0.041	-0.4583664	-0.0572958	1.145916	91.54149966	1.14018642	-21.99012804
1.69	169	0.006	-1.015	0.042	-0.572958	-0.1145916	0.9740286	91.53577008	1.12872726	-21.99585762
1.7	170	0	-1.016	0.041	-0.6302538	0.3437748	0.8021412	91.51285176	1.09434978	-21.98439846
1.71	171	0.001	-1.018	0.042	-0.8021412	0.6875496	0.8021412	91.50712218	1.08289062	-21.97866888
1.72	172	0.001	-1.017	0.043	-0.9740286	0.572958	0.859437	91.49566302	1.07716104	-21.9729393
1.73	173	0.002	-1.013	0.046	-0.9167328	0.6302538	0.859437	91.48993344	1.06570188	-21.96720972
1.74	174	0.003	-1.011	0.047	-1.145916	0.8021412	0.7448454	91.47847428	1.05424272	-21.95575056
1.75	175	0.005	-1.009	0.049	-1.6615782	1.0313244	0.8021412	91.46128554	1.04278356	-21.9442914
1.76	176	0.004	-1.007	0.05	-2.1199446	0.9167328	0.7448454	91.43836722	1.0313244	-21.93856182
1.77	177	0.004	-1.007	0.046	-2.2345362	0.5156622	0.8021412	91.4154489	1.02559482	-21.93283224
1.78	178	0.003	-1.01	0.044	-2.6929026	0	0.8021412	91.386801	1.01413566	-21.93283224
1.79	179	0.003	-1.012	0.044	-3.3231564	-0.6875496	0.6875496	91.35242352	1.00840608	-21.9442914
1.8	180	0.001	-1.013	0.043	-3.8961144	-1.2032118	0.5156622	91.31231646	0.99694692	-21.95002098
1.81	181	0	-1.013	0.043	-4.3544808	-1.432395	0.286479	91.26647982	0.99121734	-21.96720972
1.82	182	-0.002	-1.013	0.049	-4.1252976	-2.1772404	0.1145916	91.22637276	0.99121734	-21.99012804
1.83	183	-0.006	-1.013	0.059	-2.9220858	-3.0366774	0	91.19772486	0.99121734	-22.01877594
1.84	184	-0.012	-1.012	0.052	-1.7761698	-2.6356068	0	91.18053612	0.99694692	-22.04742384
1.85	185	-0.016	-1.013	0.044	-1.8334656	-0.0572958	0.1145916	91.1576178	0.96829902	-22.04169426
1.86	186	-0.017	-1.013	0.037	-2.4064236	3.8961144	0.4010706	91.13469948	0.96256944	-22.00731678
1.87	187	-0.02	-1.013	0.036	-2.6356068	6.1879464	0.572958	91.10605158	0.95111028	-21.9442914
1.88	188	-0.021	-1.012	0.039	-2.86479	7.6203414	0.6875496	91.07740368	0.9453807	-21.86980686
1.89	189	-0.018	-1.013	0.037	-2.8074942	8.7089616	0.9167328	91.04875578	0.92819196	-21.78386316
1.9	190	-0.009	-1.012	0.04	-2.8074942	9.167328	1.2032118	91.02010788	0.90527364	-21.69218988
1.91	191	-0.003	-1.009	0.044	-2.8074942	9.6256944	1.6042824	90.99145998	0.8880849	-21.59478702
1.92	192	-0.001	-1.01	0.044	-2.6929026	10.0840608	1.8334656	90.96281208	0.86516658	-21.49738416
1.93	193	-0.001	-1.013	0.039	-3.3231564	10.4278356	1.9480572	90.9284346	0.83651868	-21.39425172
1.94	194	0	-1.017	0.031	-4.010706	10.7143146	2.005353	90.88832754	0.81360036	-21.29111928
1.95	195	0	-1.016	0.02	-3.8388186	10.7143146	1.9480572	90.8424909	0.78495246	-21.18798684
1.96	196	0	-1.015	0.009	-3.5523396	9.8548776	1.8334656	90.80811342	0.76203414	-21.09058398
1.97	197	0.001	-1.018	0.009	-3.9534102	9.167328	1.9480572	90.76800636	0.73911582	-20.9989107
1.98	198	0.001	-1.017	0.011	-4.583664	9.2246238	2.291832	90.72216972	0.71046792	-20.90723742
1.99	199	0.003	-1.013	0.008	-4.583664	9.1100322	2.7501984	90.67633308	0.68182002	-20.81556414
2	200	0.006	-1.013	0.003	-4.8128472	8.4797784	3.0366774	90.61903728	0.64744254	-20.73535002
2.01	201	0.008	-1.013	0.001	-6.2452422	8.0787078	3.4950438	90.5560119	0.60733548	-20.6551359
2.02	202	0.01	-1.014	0	-7.1046792	7.7922288	4.010706	90.48152736	0.56722842	-20.58065136
2.03	203	0.014	-1.012	-0.007	-7.5057498	7.448454	4.297185	90.40704282	0.52139178	-20.50616682
2.04	204	0.014	-1.013	-0.006	-7.6776372	7.161975	4.5263682	90.3268287	0.46982556	-20.43741186
2.05	205	0.015	-1.017	-0.007	-8.4224826	6.875496	4.5263682	90.23515542	0.42398892	-20.37438648
2.06	206	0.013	-1.018	-0.011	-9.0527364	6.302538	4.3544808	90.13775256	0.37815228	-20.3113611
2.07	207	0.008	-1.021	-0.009	-9.6256944	5.6722842	4.297185	90.0403497	0.33231564	-20.2540653
2.08	208	0.003	-1.025	-0.009	-10.7716104	5.0993262	4.1252976	89.93148768	0.29220858	-20.20822866
2.09	209	-0.005	-1.028	-0.006	-12.1467096	4.297185	3.8388186	89.80543692	0.25210152	-20.1681216
2.1	210	-0.012	-1.031	-0.005	-13.464513	4.1825934	3.4950438	89.667927	0.21199446	-20.12801454
2.11	211	-0.016	-1.03	-0.01	-14.7823164	4.6409598	3.0366774	89.51322834	0.17761698	-20.0821779
2.12	212	-0.017	-1.026	-0.017	-15.6417534	5.0420304	2.7501984	89.35852968	0.14896908	-20.03061168
2.13	213	-0.019	-1.024	-0.023	-15.9855282	5.5003968	2.6356068	89.19237186	0.12032118	-19.97904546
2.14	214	-0.02	-1.025	-0.024	-16.615782	6.016059	2.6356068	89.02048446	0.09167328	-19.92174966
2.15	215	-0.02	-1.022	-0.025	-17.5898106	6.3598338	2.8074942	88.8371379	0.0572958	-19.85872428
2.16	216	-0.018	-1.018	-0.031	-18.6784308	7.0473834	2.86479	88.64806176	0.0286479	-19.78996932
2.17	217	-0.013	-1.014	-0.036	-19.7097552	7.734933	2.86479	88.44752646	0	-19.71548478
2.18	218	-0.012	-1.014	-0.035	-20.6837838	8.59437	2.9220858	88.235532	-0.0286479	-19.62954108
2.19	219	-0.009	-1.014	-0.034	-21.6578124	9.3392154	2.86479	88.01207838	-0.0572958	-19.5378678
2.2	220	-0.006	-1.016	-0.032	-22.8610242	9.9694692	2.7501984	87.7771656	-0.0859437	-19.44619452
2.21	221	-0.003	-1.019	-0.034	-23.777757	10.3705398	2.6929026	87.53652324	-0.1145916	-19.34306208
2.22	222	-0.001	-1.021	-0.035	-24.350715	10.026765	2.6356068	87.28442172	-0.1432395	-19.24565922
2.23	223	0.001	-1.026	-0.028	-24.5798982	9.5111028	2.6929026	87.03804978	-0.16615782	-19.15398594
2.24	224	0	-1.032	-0.023	-25.3820394	8.7662574	2.5210152	86.7744891	-0.19480572	-19.06804224
2.25	225	-0.001	-1.035	-0.028	-26.1268848	7.6776372	2.1199446	86.51092842	-0.21199446	-18.9935577
2.26	226	-0.007	-1.037	-0.032	-27.5592798	7.3338624	1.5469866	86.230179	-0.2291832	-18.91907316
2.27	227	-0.01	-1.034	-0.04	-29.2781538	8.0787078	0.8021412	85.93224084	-0.23491278	-18.84458862
2.28	228	-0.013	-1.03	-0.052	-31.0543236	8.880849	0.286479	85.61711394	-0.24064236	-18.75864492
2.29	229	-0.012	-1.025	-0.063	-33.0596766	9.2246238	0	85.27906872	-0.23491278	-18.67270122
2.3	230	-0.012	-1.02	-0.073	-34.950438	8.9954406	0.286479	84.91810518	-0.24064236	-18.58675752
2.31	231	-0.008	-1.019	-0.086	-37.1276784	8.2505952	1.0313244	84.5399529	-0.24637194	-18.5065434
2.32	232	0.001	-1.022	-0.1	-39.9351726	7.7922288	1.8907614	84.13315272	-0.26356068	-18.43205886
2.33	233	0.014	-1.02	-0.112	-42.8572584	7.161975	2.9220858	83.69770464	-0.29220858	-18.3633039
2.34	234	0.031	-1.014	-0.123	-45.2063862	5.3285094	3.9534102	83.23933824	-0.33231564	-18.31173768
2.35	235	0.049	-1.011	-0.127	-46.8679644	2.7501984	4.4117766	82.75805352	-0.3724227	-18.28308978
2.36	236	0.064	-1.017	-0.13	-49.6181628	-0.3437748	4.583664	82.25958006	-0.41825934	-18.28881936
2.37	237	0.069	-1.022	-0.127	-53.2277982	-3.3231564	4.5263682	81.71526996	-0.47555514	-18.31746726
2.38	238	0.069	-1.019	-0.137	-55.5196302	-6.4744254	4.3544808	81.15377112	-0.53285094	-18.38049264
2.39	239	0.056	-1.012	-0.158	-57.2958	-9.9694692	4.1825934	80.57508354	-0.59014674	-18.4778955
2.4	240	0.036	-0.994	-0.156	-57.9260538	-13.178034	3.724227	79.99066638	-0.64744254	-18.60967584
2.41	241	0.019	-0.973	-0.151	-58.9573782	-15.0114996	2.578311	79.39479006	-0.70473834	-18.75864492
2.42	242	0.003	-0.949	-0.163	-61.0773228	-16.1001198	0.8021412	78.781725	-0.7448454	-18.91907316
2.43	243	-0.009	-0.936	-0.17	-62.6243094	-16.5584862	0	78.1514712	-0.77922288	-19.08523098
2.44	244	-0.018	-0.927	-0.156	-63.7129296	-16.8449652	-0.1145916	77.50975824	-0.81360036	-19.25711838
2.45	245	-0.029	-0.928	-0.13	-64.6296624	-17.4179232	0.286479	76.8623157	-0.859437	-19.42900578
2.46	246	-0.033	-0.942	-0.147	-66.2339448	-17.9335854	0.9740286	76.19195484	-0.91100322	-19.60662276
2.47	247	-0.033	-0.956	-0.194	-67.4944524	-18.334656	1.3750992	75.51013482	-0.96829902	-19.78996932
2.48	248	-0.03	-0.97	-0.216	-67.036086	-17.7044022	1.2032118	74.83977396	-1.0313244	-19.96185672
2.49	249	-0.024	-0.974	-0.218	-66.463128	-16.042824	0.1718874	74.1694131	-1.07716104	-20.12228496
2.5	250	-0.02	-0.958	-0.235	-65.4890994	-13.6364004	-1.432395	73.5105114	-1.10580894	-20.26552446
2.51	251	-0.017	-0.946	-0.238	-64.2285918	-12.318597	-2.005353	72.86306886	-1.12299768	-20.39157522
2.52	252	-0.015	-0.943	-0.219	-64.1140002	-11.9175264	-1.7761698	72.21562632	-1.145916	-20.51762598
2.53	253	-0.018	-0.939	-0.208	-65.0880288	-11.6310474	-0.6875496	71.55672462	-1.18029348	-20.63221758
2.54	254	-0.021	-0.93	-0.235	-65.2599162	-11.2299768	0.859437	70.89782292	-1.22613012	-20.7410796
2.55	255	-0.023	-0.929	-0.263	-64.2285918	-10.7716104	2.4064236	70.25038038	-1.2891555	-20.84421204
2.56	256	-0.026	-0.941	-0.271	-62.8534926	-10.8289062	3.3804522	69.62012658	-1.36364004	-20.93588532
2.57	257	-0.029	-0.954	-0.28	-61.7075766	-11.8029348	3.437748	68.99560236	-1.44385416	-21.03901776
2.58	258	-0.031	-0.966	-0.283	-60.2178858	-12.9488508	2.4637194	68.38826688	-1.5183387	-21.15933894
2.59	259	-0.028	-0.968	-0.29	-59.587632	-13.0634424	1.0313244	67.79239056	-1.5756345	-21.27966012
2.6	260	-0.025	-0.96	-0.284	-58.8427866	-12.7769634	-0.4010706	67.20224382	-1.62720072	-21.40571088
2.61	261	-0.021	-0.943	-0.289	-58.3271244	-11.8029348	-1.432395	66.61782666	-1.6615782	-21.52603206
2.62	262	-0.021	-0.927	-0.289	-57.3530958	-11.2299768	-1.7761698	66.03913908	-1.69595568	-21.64062366
2.63	263	-0.028	-0.915	-0.292	-56.4936588	-10.6570188	-1.3750992	65.47191066	-1.73033316	-21.7437561
2.64	264	-0.039	-0.904	-0.319	-55.6915176	-10.7143146	0	64.91041182	-1.7761698	-21.84688854
2.65	265	-0.048	-0.894	-0.33	-54.144531	-11.0580894	2.0626488	64.36610172	-1.85065434	-21.9442914
2.66	266	-0.052	-0.893	-0.343	-52.712136	-9.740286	3.3231564	63.83898036	-1.92513888	-22.01877594
2.67	267	-0.043	-0.899	-0.355	-51.852699	-7.8495246	3.6669312	63.311859	-1.99389384	-22.07607174
2.68	268	-0.04	-0.91	-0.368	-51.279741	-7.0473834	2.9220858	62.7961968	-2.05691922	-22.13336754
2.69	269	-0.041	-0.922	-0.369	-50.7640788	-6.7036086	1.6042824	62.28626418	-2.10848544	-22.18493376
2.7	270	-0.04	-0.936	-0.373	-50.706783	-6.1879464	0.2291832	61.77633156	-2.14286292	-22.24222956
2.71	271	-0.036	-0.942	-0.378	-51.2224452	-5.0993262	-0.572958	61.26066936	-2.16578124	-22.29379578
2.72	272	-0.033	-0.939	-0.396	-51.4516284	-3.6669312	-1.0886202	60.73927758	-2.18296998	-22.33963242
2.73	273	-0.037	-0.926	-0.403	-51.4516284	-2.9220858	-0.859437	60.2178858	-2.19442914	-22.36828032
2.74	274	-0.042	-0.911	-0.396	-50.8213746	-2.3491278	-0.3437748	59.70795318	-2.2058883	-22.39692822
2.75	275	-0.05	-0.898	-0.414	-50.9359662	-1.7761698	0.4010706	59.19802056	-2.22880662	-22.41411696
2.76	276	-0.059	-0.889	-0.435	-50.420304	-2.5210152	1.6615782	58.68235836	-2.2631841	-22.4313057
2.77	277	-0.068	-0.89	-0.437	-49.560867	-3.5523396	2.9793816	58.1838849	-2.30902074	-22.44849444
2.78	278	-0.069	-0.894	-0.455	-49.5035712	-4.2398892	3.8961144	57.67968186	-2.37204612	-22.46568318
2.79	279	-0.065	-0.893	-0.462	-48.987909	-4.9274388	4.1252976	57.18693798	-2.44080108	-22.4886015
2.8	280	-0.057	-0.888	-0.468	-48.0138804	-5.3858052	3.5523396	56.70565326	-2.50382646	-22.5172494
2.81	281	-0.047	-0.883	-0.474	-47.3263308	-4.9847346	2.1199446	56.23009812	-2.55539268	-22.55162688
2.82	282	-0.036	-0.877	-0.476	-47.0398518	-3.5523396	0.8021412	55.75454298	-2.58404058	-22.58027478
2.83	283	-0.034	-0.871	-0.474	-46.5814854	-3.3804522	0	55.27898784	-2.6069589	-22.60892268
2.84	284	-0.04	-0.864	-0.467	-46.3523022	-3.8961144	0	54.80916228	-2.6356068	-22.64330016
2.85	285	-0.049	-0.851	-0.487	-46.3523022	-4.1825934	0.572958	54.35079588	-2.66998428	-22.67767764
2.86	286	-0.057	-0.843	-0.49	-45.6074568	-4.6982556	1.4896908	53.8866999	-2.71582092	-22.70632554
2.87	287	-0.065	-0.839	-0.498	-44.5188366	-5.8441716	2.291832	53.43979266	-2.77311672	-22.7464326
2.88	288	-0.068	-0.836	-0.501	-43.4875122	-6.9327918	2.7501984	52.998615	-2.84187168	-22.78653966
2.89	289	-0.062	-0.835	-0.504	-42.7426668	-7.8495246	2.4637194	52.5688965	-2.91635622	-22.83810588
2.9	290	-0.048	-0.831	-0.519	-41.4248634	-7.9641162	1.4896908	52.16209632	-2.9793816	-22.89540168
2.91	291	-0.034	-0.834	-0.521	-40.5081306	-7.6203414	0.286479	51.75529614	-3.03094782	-22.95269748
2.92	292	-0.027	-0.838	-0.52	-40.393539	-6.9900876	-0.859437	51.34849596	-3.07105488	-23.01572286
2.93	293	-0.03	-0.837	-0.525	-40.2789474	-7.1046792	-1.5469866	50.94169578	-3.10543236	-23.08447782
2.94	294	-0.04	-0.833	-0.549	-39.7059894	-7.8495246	-1.432395	50.54635476	-3.14553942	-23.15896236
2.95	295	-0.057	-0.827	-0.55	-38.9038482	-9.6829902	-0.5156622	50.1624729	-3.2085648	-23.23917648
2.96	296	-0.067	-0.819	-0.554	-38.2735944	-11.5164558	0.3437748	49.78432062	-3.28877892	-23.32512018
2.97	297	-0.066	-0.809	-0.564	-38.0444112	-12.891555	1.0313244	49.40616834	-3.3804522	-23.42252304
2.98	298	-0.053	-0.795	-0.566	-37.8725238	-14.7250206	1.0313244	49.02801606	-3.48358464	-23.53138506
2.99	299	-0.037	-0.78	-0.589	-37.9871154	-16.5011904	0.572958	48.64986378	-3.59817624	-23.65170624
3	300	-0.03	-0.767	-0.606	-38.2162986	-18.7357266	-0.0572958	48.27744108	-3.71849742	-23.79494574
3.01	301	-0.027	-0.763	-0.624	-39.0757356	-20.1108258	-0.9167328	47.89355922	-3.85027776	-23.95537398
3.02	302	-0.037	-0.767	-0.642	-40.1643558	-20.912967	-1.8334656	47.50394778	-3.97632852	-24.12726138
3.03	303	-0.048	-0.781	-0.646	-41.1956802	-19.9962342	-3.0366774	47.0971476	-4.08519054	-24.29914878
3.04	304	-0.067	-0.797	-0.661	-43.0291458	-18.9649098	-4.1252976	46.67315868	-4.18832298	-24.47103618
3.05	305	-0.089	-0.803	-0.651	-44.3469492	-17.0741484	-4.7555514	46.24344018	-4.27426668	-24.63146442
3.06	306	-0.115	-0.788	-0.646	-45.3782736	-13.4072172	-5.0420304	45.79653294	-4.33156248	-24.76324476
3.07	307	-0.137	-0.771	-0.645	-45.7793442	-9.6256944	-4.8128472	45.33816654	-4.37166954	-24.8663772
3.08	308	-0.147	-0.752	-0.634	-45.8939358	-5.6149884	-3.9534102	44.87980014	-4.38885828	-24.94086174
3.09	309	-0.145	-0.734	-0.638	-45.550161	-2.1772404	-2.6929026	44.42143374	-4.38885828	-24.97523922
3.1	310	-0.14	-0.73	-0.649	-45.4355694	0.1145916	-0.9167328	43.96879692	-4.39458786	-24.9809688
3.11	311	-0.139	-0.739	-0.665	-45.3782736	1.6042824	1.0313244	43.50470094	-4.40031744	-24.96378006
3.12	312	-0.143	-0.755	-0.672	-45.0344988	2.4064236	2.7501984	43.04060496	-4.40604702	-24.923673
3.13	313	-0.143	-0.77	-0.673	-45.3782736	3.151269	3.9534102	42.57650898	-4.41750618	-24.87783636
3.14	314	-0.135	-0.778	-0.692	-46.1804148	3.7815228	4.4117766	42.10668342	-4.42896534	-24.82054056
3.15	315	-0.126	-0.778	-0.699	-46.5814854	3.4950438	4.4117766	41.63685786	-4.4404245	-24.76324476
3.16	316	-0.117	-0.763	-0.711	-46.6387812	2.9220858	4.1825934	41.15557314	-4.45188366	-24.71167854
3.17	317	-0.111	-0.745	-0.715	-46.409598	1.8334656	3.8388186	40.680018	-4.47480198	-24.67157148
3.18	318	-0.098	-0.726	-0.719	-46.2377106	1.145916	3.6669312	40.21019244	-4.49199072	-24.637194
3.19	319	-0.083	-0.704	-0.717	-46.0658232	1.3750992	3.4950438	39.74036688	-4.51490904	-24.59708694
3.2	320	-0.074	-0.681	-0.721	-46.0085274	1.7761698	3.2658606	39.27054132	-4.5263682	-24.56270946
3.21	321	-0.064	-0.67	-0.729	-45.8939358	2.3491278	2.7501984	38.80644534	-4.53209778	-24.52833198
3.22	322	-0.067	-0.669	-0.714	-45.6647526	3.3231564	2.2345362	38.33661978	-4.5263682	-24.48822492
3.23	323	-0.071	-0.676	-0.708	-45.83664	5.156622	1.8907614	37.86679422	-4.50344988	-24.44238828
3.24	324	-0.073	-0.683	-0.716	-46.409598	7.448454	1.3750992	37.39123908	-4.46334282	-24.38509248
3.25	325	-0.074	-0.686	-0.713	-46.5814854	8.8235532	1.0313244	36.92141352	-4.40604702	-24.3220671
3.26	326	-0.077	-0.684	-0.726	-46.8106686	9.3965112	1.432395	36.4401288	-4.34875122	-24.25331214
3.27	327	-0.075	-0.673	-0.733	-46.696077	8.8235532	2.3491278	35.95884408	-4.30291458	-24.1788276
3.28	328	-0.076	-0.657	-0.726	-46.409598	6.4744254	3.437748	35.47755936	-4.27426668	-24.11007264
3.29	329	-0.07	-0.641	-0.716	-46.1804148	3.8388186	4.7555514	35.0077338	-4.27999626	-24.04704726
3.3	330	-0.057	-0.625	-0.706	-46.0658232	1.5469866	4.9847346	34.54363782	-4.30291458	-24.00121062
3.31	331	-0.045	-0.624	-0.707	-46.6387812	0.3437748	4.5263682	34.06808268	-4.33156248	-23.96110356
3.32	332	-0.043	-0.626	-0.719	-47.4982182	-0.7448454	3.724227	33.58679796	-4.36593996	-23.93245566
3.33	333	-0.052	-0.63	-0.711	-47.6701056	-0.6302538	2.6356068	33.09978366	-4.38885828	-23.91526692
3.34	334	-0.067	-0.636	-0.714	-48.1857678	0.4010706	1.6042824	32.60703978	-4.40031744	-23.89807818
3.35	335	-0.08	-0.635	-0.731	-48.4722468	1.3178034	0.9167328	32.12575506	-4.40604702	-23.88661902
3.36	336	-0.091	-0.633	-0.73	-48.1857678	1.9480572	1.0313244	31.63874076	-4.40031744	-23.8637007
3.37	337	-0.099	-0.625	-0.743	-47.7846972	2.005353	1.7761698	31.15172646	-4.40031744	-23.8350528
3.38	338	-0.101	-0.617	-0.754	-47.269035	0.9167328	2.86479	30.66471216	-4.4117766	-23.8064049
3.39	339	-0.097	-0.615	-0.757	-46.5814854	-0.1145916	3.9534102	30.1948866	-4.4404245	-23.77202742
3.4	340	-0.085	-0.618	-0.746	-45.83664	-1.2032118	4.6982556	29.74224978	-4.48053156	-23.73764994
3.41	341	-0.067	-0.621	-0.752	-45.83664	-1.7761698	5.0420304	29.27242422	-4.5263682	-23.70327246
3.42	342	-0.055	-0.617	-0.746	-45.6074568	-2.005353	4.7555514	28.80832824	-4.57793442	-23.67462456
3.43	343	-0.056	-0.621	-0.748	-45.8939358	-2.005353	3.9534102	28.33850268	-4.61804148	-23.64597666
3.44	344	-0.069	-0.621	-0.754	-46.5241896	-1.432395	2.9220858	27.86867712	-4.65241896	-23.62878792
3.45	345	-0.078	-0.622	-0.758	-46.9252602	-0.5156622	1.8334656	27.41031072	-4.6696077	-23.61732876
3.46	346	-0.089	-0.624	-0.761	-47.8992888	0.4010706	1.3750992	26.92329642	-4.68106686	-23.60014002
3.47	347	-0.1	-0.625	-0.757	-48.5295426	0.9167328	1.9480572	26.42482296	-4.68679644	-23.5772217
3.48	348	-0.105	-0.622	-0.767	-49.0452048	1.5469866	2.9220858	25.9263495	-4.69252602	-23.54284422
3.49	349	-0.105	-0.619	-0.766	-49.274388	2.4637194	4.0680018	25.42214646	-4.6982556	-23.491278
3.5	350	-0.103	-0.609	-0.755	-49.1597964	3.3804522	5.3285094	24.93513216	-4.6982556	-23.42825262
3.51	351	-0.103	-0.602	-0.754	-49.3316838	4.0680018	6.2452422	24.43092912	-4.69252602	-23.35376808
3.52	352	-0.097	-0.597	-0.746	-49.3316838	4.6982556	6.6463128	23.9209965	-4.68679644	-23.27355396
3.53	353	-0.087	-0.594	-0.74	-49.3316838	5.3285094	6.3598338	23.41106388	-4.6696077	-23.18761026
3.54	354	-0.079	-0.588	-0.72	-49.4462754	6.8182002	5.6722842	22.90686084	-4.6409598	-23.10739614
3.55	355	-0.078	-0.584	-0.723	-49.9046418	7.9068204	4.7555514	22.41411696	-4.59512316	-23.0329116
3.56	356	-0.077	-0.577	-0.713	-50.0192334	8.59437	4.0680018	21.89845476	-4.53782736	-22.95842706
3.57	357	-0.071	-0.57	-0.703	-49.560867	9.1100322	3.724227	21.38852214	-4.47480198	-22.88394252
3.58	358	-0.061	-0.565	-0.703	-48.7587258	8.880849	4.1252976	20.8843191	-4.41750618	-22.80945798
3.59	359	-0.05	-0.56	-0.707	-48.3003594	7.9068204	5.0993262	20.39157522	-4.36593996	-22.73497344
3.6	360	-0.05	-0.552	-0.695	-47.6128098	6.5317212	6.2452422	19.92747924	-4.33729206	-22.64902974
3.61	361	-0.059	-0.542	-0.693	-46.6387812	5.3285094	6.7036086	19.44619452	-4.31437374	-22.56881562
3.62	362	-0.072	-0.53	-0.691	-44.7480198	5.6722842	6.302538	18.98209854	-4.28572584	-22.48287192
3.63	363	-0.085	-0.525	-0.688	-42.6280752	7.2192708	5.3285094	18.54665046	-4.24561878	-22.40838738
3.64	364	-0.098	-0.524	-0.67	-41.1956802	9.167328	4.1825934	18.11693196	-4.17686382	-22.33390284
3.65	365	-0.109	-0.52	-0.659	-39.534102	12.4331886	3.2658606	17.73877968	-4.08519054	-22.26514788
3.66	366	-0.119	-0.52	-0.674	-37.6433406	16.1001198	2.9220858	17.34916824	-3.94768062	-22.17920418
3.67	367	-0.131	-0.52	-0.676	-35.9244666	19.7097552	3.4950438	16.97674554	-3.77579322	-22.08180132
3.68	368	-0.135	-0.522	-0.672	-33.4607472	23.6058696	4.870143	16.62724116	-3.57525792	-21.96148014
3.69	369	-0.129	-0.529	-0.672	-30.939732	26.5279554	7.2192708	16.29492552	-3.3518043	-21.80678148
3.7	370	-0.112	-0.536	-0.661	-28.0176462	28.934379	9.7975818	16.02563526	-3.11116194	-21.6291645
3.71	371	-0.082	-0.541	-0.658	-25.78311	30.939732	11.5737516	15.75061542	-2.85333084	-21.42289962
3.72	372	-0.042	-0.544	-0.63	-22.4599536	32.5440144	12.4331886	15.50997306	-2.58404058	-21.20517558
3.73	373	0	-0.543	-0.578	-19.0222056	34.0337052	12.2040054	15.30370818	-2.29756158	-20.99318112
3.74	374	0.046	-0.524	-0.571	-16.2720072	34.3201842	11.2872726	15.1260912	-2.005353	-20.78118666
3.75	375	0.074	-0.506	-0.537	-12.4904844	34.3201842	10.1986524	15.01722918	-1.70168526	-20.59211052
3.76	376	0.083	-0.489	-0.509	-9.7975818	34.4347758	9.0527364	14.90836716	-1.39801752	-20.40303438
3.77	377	0.071	-0.481	-0.489	-7.9068204	35.1796212	7.9068204	14.81669388	-1.08289062	-20.23114698
3.78	378	0.045	-0.475	-0.499	-6.3598338	37.4141574	6.875496	14.74220934	-0.75057498	-20.05925958
3.79	379	0.016	-0.472	-0.466	-4.1252976	39.9351726	6.4744254	14.6963727	-0.38961144	-19.88737218
3.8	380	-0.01	-0.468	-0.437	-1.5469866	43.258329	6.875496	14.6963727	0	-19.69829604
3.81	381	-0.027	-0.455	-0.431	1.0886202	45.7793442	8.0787078	14.70210228	0.41252976	-19.49203116
3.82	382	-0.03	-0.431	-0.419	5.0420304	47.2117392	9.3965112	14.7536685	0.83651868	-19.27430712
3.83	383	-0.019	-0.408	-0.369	11.1153852	48.3003594	10.3705398	14.86253052	1.27196676	-19.03939434
3.84	384	0	-0.376	-0.349	15.2979786	48.70143	10.7143146	15.01722918	1.70741484	-18.79875198
3.85	385	0.011	-0.339	-0.325	21.0848544	48.3003594	10.2559482	15.24641238	2.13713334	-18.5638392
3.86	386	0.017	-0.298	-0.279	28.0176462	48.9306132	8.9381448	15.53289138	2.58404058	-18.34038558
3.87	387	0.014	-0.259	-0.232	34.2628884	49.6754586	7.1046792	15.88812534	3.0366774	-18.12839112
3.88	388	0.01	-0.232	-0.215	39.3622146	51.56622	4.6982556	16.28919594	3.51223254	-17.92785582
3.89	389	0.021	-0.213	-0.184	44.0604702	56.149884	2.4637194	16.74183276	4.0393539	-17.7330501
3.9	390	0.031	-0.2	-0.153	48.2430636	59.874111	1.145916	17.2460358	4.60658232	-17.5325148
3.91	391	0.027	-0.19	-0.12	51.3943326	63.0826758	0.9167328	17.77888674	5.20245864	-17.32052034
3.92	392	-0.004	-0.177	-0.093	54.3164184	64.6296624	1.6615782	18.34611516	5.80406454	-17.09133714
3.93	393	-0.032	-0.157	-0.094	58.0979412	65.317212	3.437748	18.95345064	6.40567044	-16.83923562
3.94	394	-0.051	-0.123	-0.11	62.9680842	65.5463952	5.5576926	19.61808192	7.00154676	-16.55275662
3.95	395	-0.074	-0.09	-0.128	66.9787902	65.2599162	7.0473834	20.32854984	7.58023434	-16.24908888
3.96	396	-0.095	-0.046	-0.142	71.2186794	65.7755784	7.5630456	21.0848544	8.1646515	-15.93396198
3.97	397	-0.072	-0.007	-0.161	75.6877518	67.2652692	7.161975	21.89272518	8.76052782	-15.60737592
3.98	398	-0.027	0.005	-0.229	79.641162	69.2706222	6.4744254	22.7464326	9.37359288	-15.26360112
3.99	399	0.044	0.005	-0.338	83.365389	69.7289886	6.7036086	23.64024708	9.98665794	-14.91409674
4	400	0.085	0.035	-0.337	86.4020664	70.7030172	6.2452422	24.56270946	10.60545258	-14.54740362
4.01	401	0.128	0.055	-0.276	92.0743506	78.7244292	3.0366774	25.55965638	11.29873176	-14.16925134
4.02	402	0.139	-0.001	-0.233	92.3035338	79.1827956	-1.9480572	26.5566033	12.01492926	-13.81974696
4.03	403	0.085	-0.116	-0.232	90.0689976	69.7289886	-5.8441716	27.52490232	12.65664222	-13.53326796
4.04	404	-0.015	-0.212	-0.118	91.9024632	57.7541664	-3.437748	28.5046605	13.18376358	-13.27543686
4.05	405	-0.055	-0.378	0.085	95.8558734	48.7587258	2.4637194	29.55890322	13.59629334	-13.00041702
4.06	406	-0.096	-0.483	0.431	82.3340646	46.6387812	11.172681	30.46990644	13.94579772	-12.65091264
4.07	407	-0.068	-0.34	0.609	45.7220484	46.1804148	12.4331886	31.01421654	14.27238378	-12.2899491
4.08	408	0.043	-0.097	0.408	12.7196676	32.085648	5.9587632	31.1975631	14.51302614	-12.0607659
4.09	409	0.057	0.067	0.499	-6.0733548	26.8717302	-2.578311	31.16318562	14.74793892	-11.93471514
4.1	410	-0.033	0.115	0.59	-12.0894138	24.2934192	-8.880849	31.07151234	15.00004044	-11.87741934
4.11	411	-0.055	0.045	0.473	-13.178034	31.0543236	-13.8082878	30.94546158	15.3266265	-11.82585312
4.12	412	0.168	-0.076	0.128	-19.0222056	44.4615408	-22.9756158	30.75638544	15.8136408	-11.78574606
4.13	413	0.782	-0.396	-0.768	-43.7739912	51.1078536	-41.5967508	30.2808303	16.4438946	-11.87168976
4.14	414	1.377	-1.016	-2.738	-136.936962	-25.1528562	-60.3324774	28.69946622	16.50691998	-12.5477802
4.15	415	3.299	-2.571	-3.794	-266.2535826	-179.1066708	-50.6494872	25.65132966	15.1547391	-13.88850192
4.16	416	3.295	-3.41	-3.996	-450.058509	-211.3642062	-34.663959	20.81556414	13.33273266	-15.10890246
4.17	417	0.581	-1.463	-3.996	-487.9883286	-256.6278882	-82.792431	15.54435054	11.13257394	-16.76475108
4.18	418	-1.944	0.783	-3.996	-393.4502586	-112.013289	-133.6711014	11.27008386	10.32470316	-18.35757432
4.19	419	-0.975	1.685	-3.996	-280.74942	-68.9268474	-141.0049638	8.1646515	9.8548776	-19.87591302
4.2	420	-1.668	3.587	-3.996	-224.0838738	-15.4125702	-157.2196752	5.62071798	9.87206634	-21.46300668
4.21	421	0.221	3.999	-3.852	-120.5503632	69.9581718	-122.3838288	4.1825934	10.65128922	-22.6031931
4.22	422	0.891	3.335	-2.407	-74.7137232	73.625103	-37.8725238	3.3518043	11.39040504	-22.91259042
4.23	423	0.821	0.586	-1.683	-46.0085274	112.9300218	42.3415962	2.98511118	12.47329566	-22.38546906
4.24	424	1.399	-0.994	-1.421	-42.9145542	122.326533	48.5868384	2.6642547	13.64785956	-21.78959274
4.25	425	1.282	-0.78	-0.936	-51.0505578	61.4210976	18.4492476	2.2058883	14.26092462	-21.55467996
4.26	426	0.918	-0.199	-0.678	-86.2874748	19.2513888	-17.5898106	1.28342592	14.44427118	-21.7151082
4.27	427	0.665	-0.185	-0.359	-49.3316838	13.0634424	-16.5584862	0.7448454	14.57605152	-21.87553644
4.28	428	0.516	-0.374	-0.116	-17.3606274	-15.183387	-16.4438946	0.52712136	14.42135286	-22.04742384
4.29	429	0.269	-0.332	-0.345	-21.8869956	-38.4454818	-25.0382646	0.24064236	14.04320058	-22.3167141
4.3	430	0.201	-0.143	-0.443	-20.3973048	-34.4920716	-34.8931422	-0.04010706	13.70515536	-22.68340722
4.31	431	0.139	0.054	-0.472	-15.3552744	-28.361421	-40.2789474	-0.29220858	13.42440594	-23.10166656
4.32	432	0.029	0.348	-0.463	-6.4171296	-21.9442914	-35.6379876	-0.44117766	13.2066819	-23.46835968
4.33	433	-0.143	0.466	-0.432	4.297185	-14.4958374	-27.1009134	-0.4583664	13.05771282	-23.7491091
4.34	434	-0.141	0.442	-0.437	2.6356068	-4.010706	-19.6524594	-0.47555514	13.01760576	-23.9496444
4.35	435	0.009	0.398	-0.452	3.2085648	2.291832	-15.4125702	-0.52139178	13.0347945	-24.11580222
4.36	436	0.154	0.385	-0.488	13.464513	3.7815228	-13.1207382	-0.41252976	13.07490156	-24.24758256
4.37	437	0.261	0.457	-0.545	24.2934192	-1.2605076	-13.464513	-0.2005353	13.0634424	-24.39082206
4.38	438	0.328	0.54	-0.624	33.0596766	-11.5164558	-12.6623718	0.10313244	12.95458038	-24.5226024
4.39	439	0.358	0.526	-0.684	34.8358464	-25.1528562	-7.7922288	0.43544808	12.70820844	-24.61427568
4.4	440	0.418	0.444	-0.759	29.6219286	-40.9092012	-0.9740286	0.69900876	12.33578574	-24.65438274
4.41	441	0.424	0.346	-0.814	26.5852512	-59.9314068	5.6722842	0.97975818	11.745639	-24.62573484
4.42	442	0.357	0.285	-0.853	25.2674478	-76.0888224	10.886202	1.2605076	10.99506402	-24.5512503
4.43	443	0.26	0.265	-0.915	27.215505	-83.5372764	13.9801752	1.56990492	10.1700045	-24.45957702
4.44	444	0.177	0.235	-0.965	26.8717302	-87.4333908	15.0114996	1.86784308	9.30483792	-24.35644458
4.45	445	0.109	0.204	-1.004	26.2414764	-87.6052782	13.750992	2.1485925	8.43394176	-24.28196004
4.46	446	0.096	0.171	-1.074	24.4080108	-83.651868	11.4018642	2.41215318	7.60315266	-24.22466424
4.47	447	0.068	0.127	-1.15	21.8296998	-76.7190762	10.026765	2.65279554	6.8468481	-24.1788276
4.48	448	0.026	0.069	-1.245	17.9908812	-69.3852138	8.4224826	2.84760126	6.1592985	-24.1501797
4.49	449	0.014	-0.007	-1.266	11.6310474	-55.9207008	5.2712136	2.97365202	5.60925882	-24.13872054
4.5	450	0.028	-0.104	-1.265	5.9014674	-42.97185	2.7501984	3.04240698	5.17954032	-24.14445012
4.51	451	0.026	-0.156	-1.205	7.5630456	-38.3308902	2.0626488	3.1226211	4.80138804	-24.15590928
4.52	452	0.005	-0.149	-1.182	8.4224826	-32.4294228	2.5210152	3.21429438	4.48053156	-24.15590928
4.53	453	0.041	-0.115	-1.171	8.4224826	-24.350715	1.6615782	3.30023808	4.2398892	-24.16163886
4.54	454	0.092	-0.093	-1.081	8.3651868	-18.334656	-0.4010706	3.38618178	4.06227222	-24.18455718
4.55	455	0.115	-0.08	-1.047	4.4117766	-16.7876694	-2.9220858	3.43201842	3.90757356	-24.23039382
4.56	456	0.086	-0.076	-0.967	-3.0366774	-16.4438946	-4.9847346	3.39764094	3.74714532	-24.2934192
4.57	457	0.042	-0.1	-0.913	-10.1413566	-15.3552744	-5.6149884	3.28877892	3.59817624	-24.36217416
4.58	458	-0.021	-0.138	-0.918	-15.9855282	-15.1260912	-4.2398892	3.12835068	3.44920716	-24.41374038
4.59	459	-0.06	-0.167	-0.981	-21.2567418	-16.329303	-1.3750992	2.91062664	3.28877892	-24.44238828
4.6	460	-0.111	-0.169	-1.004	-23.0329116	-17.3606274	1.3750992	2.69863218	3.08251404	-24.43092912
4.61	461	-0.118	-0.154	-0.96	-20.912967	-17.8189938	3.0939732	2.48663772	2.89916748	-24.41374038
4.62	462	-0.143	-0.112	-0.906	-18.5638392	-15.3552744	3.437748	2.30329116	2.74446882	-24.38509248
4.63	463	-0.091	-0.083	-0.879	-16.4438946	-10.4851314	2.291832	2.13713334	2.64133638	-24.36790374
4.64	464	-0.08	-0.074	-0.857	-15.2979786	-6.4171296	2.0626488	1.98243468	2.57258142	-24.350715
4.65	465	-0.084	-0.095	-0.834	-12.9488508	-5.156622	1.6042824	1.87357266	2.48663772	-24.33352626
4.66	466	-0.084	-0.151	-0.834	-12.5477802	-3.8961144	2.6929026	1.7475219	2.44653066	-24.31060794
4.67	467	-0.083	-0.208	-0.842	-12.7196676	-1.3750992	5.6149884	1.62147114	2.42934192	-24.25331214
4.68	468	-0.054	-0.269	-0.879	-12.7769634	2.5210152	8.9381448	1.4896908	2.44653066	-24.16163886
4.69	469	-0.075	-0.294	-0.933	-13.0634424	6.1879464	11.2872726	1.36364004	2.50382646	-24.04131768
4.7	470	-0.081	-0.286	-0.979	-12.4904844	9.9694692	11.6310474	1.2891555	2.57258142	-23.91526692
4.71	471	-0.093	-0.242	-1.017	-11.8029348	13.8082878	8.9381448	1.16883432	2.70436176	-23.81786406
4.72	472	-0.086	-0.174	-1.06	-11.9175264	16.9595568	4.1825934	1.04851314	2.87051958	-23.77202742
4.73	473	-0.06	-0.122	-1.075	-11.5737516	19.1367972	0	0.92819196	3.05959572	-23.76056826
4.74	474	-0.023	-0.098	-1.06	-11.0007936	19.6524594	-1.2605076	0.81360036	3.24867186	-23.76629784
4.75	475	0.003	-0.096	-1.035	-10.6570188	19.0795014	-0.8021412	0.7161975	3.42628884	-23.76056826
4.76	476	0.017	-0.098	-1.014	-10.313244	18.4492476	0	0.61306506	3.60390582	-23.75483868
4.77	477	0.023	-0.097	-1	-9.9121734	18.2773602	1.145916	0.50993262	3.78725238	-23.73192036
4.78	478	0.03	-0.085	-0.987	-9.7975818	17.8189938	1.8334656	0.40680018	3.95913978	-23.70900204
4.79	479	0.043	-0.056	-0.975	-9.9694692	16.5584862	2.0626488	0.30939732	4.1252976	-23.68035414
4.8	480	0.046	-0.009	-0.955	-9.9694692	14.896908	1.8334656	0.2005353	4.26280752	-23.65743582
4.81	481	0.065	0.032	-0.95	-8.8235532	13.464513	1.3178034	0.10886202	4.39458786	-23.64024708
4.82	482	0.084	0.064	-0.958	-8.307891	12.0894138	1.0886202	0.02291832	4.50917946	-23.62305834
4.83	483	0.1	0.088	-0.968	-7.6203414	10.313244	1.6042824	-0.04583664	4.6123119	-23.6058696
4.84	484	0.11	0.11	-0.977	-6.2452422	8.8235532	2.86479	-0.10886202	4.6982556	-23.57149212
4.85	485	0.111	0.128	-0.984	-4.7555514	8.3651868	4.010706	-0.21772404	4.78992888	-23.53711464
4.86	486	0.116	0.139	-0.989	-3.9534102	8.5370742	4.9274388	-0.2578311	4.87587258	-23.48554842
4.87	487	0.126	0.144	-0.996	-3.5523396	9.2246238	5.3858052	-0.29220858	4.96754586	-23.42825262
4.88	488	0.141	0.138	-0.999	-2.86479	10.0840608	5.2712136	-0.3151269	5.06494872	-23.37095682
4.89	489	0.157	0.123	-1	-1.8907614	10.599723	4.6409598	-0.33231564	5.16808116	-23.32512018
4.9	490	0.176	0.099	-0.996	-1.2605076	11.0007936	4.1825934	-0.38961144	5.31705024	-23.28501312
4.91	491	0.189	0.069	-0.989	-0.6302538	10.9434978	3.8961144	-0.39534102	5.42591226	-23.24490606
4.92	492	0.195	0.038	-0.98	0	10.7143146	3.7815228	-0.38961144	5.5290447	-23.204799
4.93	493	0.199	0.011	-0.974	0.1145916	10.7143146	3.4950438	-0.38961144	5.63790672	-23.16469194
4.94	494	0.199	0	-0.968	0.0572958	10.3705398	3.0939732	-0.38388186	5.74103916	-23.13604404
4.95	495	0.198	0.005	-0.966	-0.2291832	9.8548776	2.5210152	-0.4010706	5.89573782	-23.11312572
4.96	496	0.196	0.011	-0.967	-0.2291832	8.9381448	1.8334656	-0.4010706	5.98168152	-23.09593698
4.97	497	0.191	0.013	-0.969	-0.286479	7.2765666	1.3750992	-0.4010706	6.05616606	-23.07874824
4.98	498	0.184	0.005	-0.974	-0.3437748	5.6722842	1.3178034	-0.40680018	6.11346186	-23.0615595
4.99	499	0.177	-0.005	-0.982	-0.572958	4.2398892	1.3750992	-0.41252976	6.15356892	-23.05010034
5	500	0.169	-0.014	-0.992	-0.9167328	2.5210152	1.5469866	-0.41252976	6.25670136	-23.03864118
5.01	501	0.157	-0.021	-0.999	-1.0886202	0.6302538	1.6042824	-0.42398892	6.26243094	-23.02145244
5.02	502	0.148	-0.025	-1	-1.145916	-1.3178034	1.4896908	-0.43544808	6.25097178	-23.00999328
5.03	503	0.139	-0.027	-0.999	-1.0886202	-3.3804522	1.432395	-0.44117766	6.2165943	-22.99280454
5.04	504	0.127	-0.025	-0.996	-1.0886202	-5.0420304	1.2032118	-0.45263682	6.16502808	-22.98134538
5.05	505	0.116	-0.027	-0.99	-1.0313244	-6.3598338	0.859437	-0.44690724	6.09627312	-22.9756158
5.06	506	0.105	-0.028	-0.986	-0.859437	-6.8182002	0.3437748	-0.4583664	6.02751816	-22.96988622
5.07	507	0.095	-0.034	-0.983	-0.4583664	-6.4744254	0	-0.4583664	5.96449278	-22.96988622
5.08	508	0.089	-0.043	-0.982	-0.2291832	-5.9014674	-0.2291832	-0.46409598	5.90719698	-22.9756158
5.09	509	0.084	-0.047	-0.978	-0.286479	-5.3285094	-0.5156622	-0.46409598	5.85563076	-22.98134538
5.1	510	0.082	-0.048	-0.978	-0.5156622	-4.4117766	-0.8021412	-0.42398892	5.77541664	-22.98134538
5.11	511	0.081	-0.046	-0.977	-0.8021412	-3.6669312	-1.0886202	-0.43544808	5.74103916	-22.99280454
5.12	512	0.085	-0.036	-0.982	-0.859437	-3.2085648	-1.4896908	-0.44690724	5.70666168	-23.00999328
5.13	513	0.089	-0.024	-0.987	-0.9740286	-2.3491278	-1.718874	-0.4583664	5.68374336	-23.02718202
5.14	514	0.091	-0.014	-0.989	-0.9167328	-2.3491278	-1.8334656	-0.46409598	5.66082504	-23.05010034
5.15	515	0.089	-0.007	-0.991	-1.0313244	-2.1199446	-1.8334656	-0.4870143	5.60925882	-23.0615595
5.16	516	0.083	-0.005	-0.993	-1.0313244	-1.8907614	-1.4896908	-0.49847346	5.59207008	-23.07874824
5.17	517	0.08	-0.004	-0.988	-1.718874	-1.718874	-1.4896908	-0.52139178	5.57488134	-23.09593698
5.18	518	0.077	-0.001	-0.988	-2.9793816	-1.3750992	-1.5469866	-0.55003968	5.5576926	-23.11312572
5.19	519	0.077	0.005	-0.992	-3.7815228	-1.0313244	-1.6042824	-0.59014674	5.54623344	-23.12458488
5.2	520	0.079	0.015	-0.995	-3.8961144	-0.7448454	-1.4896908	-0.66463128	5.50612638	-23.14177362
5.21	521	0.08	0.018	-0.994	-3.437748	0.1718874	-1.2605076	-0.70473834	5.51185596	-23.15323278
5.22	522	0.078	0.014	-0.987	-3.437748	0.6875496	-0.859437	-0.73911582	5.51758554	-23.16469194
5.23	523	0.073	0.008	-0.984	-3.6669312	0.3437748	-0.572958	-0.77922288	5.51758554	-23.17042152
5.24	524	0.07	0.004	-0.977	-3.6669312	-0.2291832	-0.4583664	-0.81360036	5.51758554	-23.1761511
5.25	525	0.071	0.007	-0.97	-4.1252976	-0.6302538	-0.286479	-0.87662574	5.4717489	-23.1761511
5.26	526	0.071	0.016	-0.973	-4.5263682	-0.6875496	-0.3437748	-0.92246238	5.46028974	-23.1761511
5.27	527	0.071	0.025	-0.981	-4.297185	-0.6302538	-0.1718874	-0.96829902	5.45456016	-23.18188068
5.28	528	0.073	0.029	-0.992	-3.8961144	-0.4583664	0	-1.00840608	5.44883058	-23.18188068
5.29	529	0.078	0.03	-0.997	-2.9793816	0.7448454	0.3437748	-1.03705398	5.45456016	-23.1761511
5.3	530	0.084	0.024	-0.994	-2.5210152	1.6615782	0.572958	-1.10007936	5.443101	-23.17042152
5.31	531	0.086	0.021	-0.986	-2.578311	2.0626488	0.6875496	-1.12299768	5.46601932	-23.16469194
5.32	532	0.086	0.017	-0.976	-2.6929026	2.4064236	0.7448454	-1.15164558	5.48893764	-23.15323278
5.33	533	0.09	0.014	-0.971	-2.6929026	2.5210152	0.6875496	-1.18029348	5.51758554	-23.1475032
5.34	534	0.092	0.011	-0.97	-2.578311	2.4064236	0.5156622	-1.20894138	5.54050386	-23.14177362
5.35	535	0.096	0.007	-0.971	-2.3491278	2.4064236	0.4583664	-1.23758928	5.5576926	-23.13604404
5.36	536	0.101	0.004	-0.976	-2.1199446	2.4064236	0.4583664	-1.2605076	5.58061092	-23.13031446
5.37	537	0.105	0.004	-0.981	-2.005353	2.578311	0.3437748	-1.27769634	5.60352924	-23.12458488
5.38	538	0.109	0.003	-0.982	-1.8334656	2.4637194	0.3437748	-1.29488508	5.62644756	-23.12458488
5.39	539	0.112	0.001	-0.981	-1.8907614	2.3491278	0.4010706	-1.3178034	5.65509546	-23.1188553
5.4	540	0.114	0.001	-0.984	-2.005353	2.1772404	0.4583664	-1.33499214	5.68374336	-23.11312572
5.41	541	0.113	0	-0.986	-1.7761698	1.8907614	0.5156622	-1.35218088	5.70666168	-23.10739614
5.42	542	0.112	-0.003	-0.986	-1.3178034	1.6042824	0.5156622	-1.36936962	5.71812084	-23.10166656
5.43	543	0.111	-0.003	-0.987	-1.2032118	1.4896908	0.5156622	-1.38082878	5.73530958	-23.09593698
5.44	544	0.111	-0.001	-0.988	-1.3178034	1.2605076	0.286479	-1.39228794	5.74676874	-23.09593698
5.45	545	0.112	0.003	-0.988	-1.4896908	0.6875496	0	-1.40947668	5.76968706	-23.09593698
5.46	546	0.116	0.007	-0.986	-1.4896908	0.3437748	0	-1.42666542	5.77541664	-23.09593698
5.47	547	0.119	0.009	-0.987	-1.4896908	-0.0572958	-0.1145916	-1.43812458	5.77541664	-23.09593698
5.48	548	0.121	0.011	-0.988	-1.4896908	-0.2291832	-0.2291832	-1.45531332	5.76968706	-23.09593698
5.49	549	0.122	0.012	-0.99	-1.432395	-0.572958	-0.1718874	-1.47250206	5.76395748	-23.10166656
5.5	550	0.122	0.013	-0.989	-1.4896908	-0.6302538	-0.1718874	-1.51260912	5.79260538	-23.10739614
5.51	551	0.118	0.015	-0.988	-1.4896908	-0.7448454	-0.2291832	-1.52979786	5.78114622	-23.10739614
5.52	552	0.113	0.017	-0.984	-1.4896908	-0.859437	-0.3437748	-1.5469866	5.77541664	-23.11312572
5.53	553	0.113	0.019	-0.984	-1.5469866	-0.5156622	-0.4010706	-1.55844576	5.76968706	-23.1188553
5.54	554	0.111	0.02	-0.982	-1.4896908	-0.2291832	-0.4583664	-1.5756345	5.76395748	-23.12458488
5.55	555	0.111	0.022	-0.983	-1.2032118	-0.1145916	-0.4010706	-1.65584862	5.77541664	-23.13604404
5.56	556	0.11	0.025	-0.984	-1.0886202	-0.286479	-0.4583664	-1.66730778	5.76968706	-23.14177362
5.57	557	0.109	0.025	-0.985	-0.9167328	-0.3437748	-0.4010706	-1.67303736	5.76395748	-23.14177362
5.58	558	0.108	0.021	-0.984	-0.572958	-0.859437	-0.4010706	-1.68449652	5.7582279	-23.1475032
5.59	559	0.106	0.017	-0.985	-0.5156622	-1.3178034	-0.4010706	-1.6902261	5.74103916	-23.15323278
5.6	560	0.103	0.016	-0.985	-0.6875496	-1.432395	-0.4010706	-1.71314442	5.71812084	-23.15896236
5.61	561	0.1	0.016	-0.987	-0.859437	-1.432395	-0.5156622	-1.72460358	5.7009321	-23.15896236
5.62	562	0.1	0.017	-0.99	-0.9167328	-1.3750992	-0.5156622	-1.73606274	5.68947294	-23.16469194
5.63	563	0.101	0.018	-0.994	-0.6302538	-1.2605076	-0.4010706	-1.74179232	5.6722842	-23.17042152
5.64	564	0.1	0.015	-0.996	-0.1718874	-1.145916	-0.286479	-1.74179232	5.66082504	-23.1761511
5.65	565	0.095	0.012	-0.993	-0.2291832	-1.145916	-0.1145916	-1.74179232	5.59207008	-23.17042152
5.66	566	0.092	0.01	-0.989	-0.6875496	-1.145916	-0.1145916	-1.75325148	5.58061092	-23.17042152
5.67	567	0.09	0.007	-0.985	-1.0313244	-0.6302538	-0.2291832	-1.76471064	5.56915176	-23.1761511
5.68	568	0.091	0.009	-0.981	-1.2605076	-0.4010706	-0.2291832	-1.7761698	5.56915176	-23.1761511
5.69	569	0.093	0.012	-0.983	-1.5469866	-0.4010706	-0.3437748	-1.79335854	5.56342218	-23.18188068
5.7	570	0.092	0.016	-0.982	-1.4896908	-0.2291832	-0.3437748	-1.83919518	5.51758554	-23.18188068
5.71	571	0.091	0.018	-0.981	-1.2605076	0.0572958	-0.4010706	-1.85065434	5.51758554	-23.18761026
5.72	572	0.091	0.016	-0.981	-0.9167328	0.3437748	-0.4010706	-1.8621135	5.52331512	-23.19333984
5.73	573	0.092	0.011	-0.975	-0.9167328	0.5156622	-0.4583664	-1.87357266	5.5290447	-23.19333984
5.74	574	0.096	0.004	-0.973	-1.432395	0.4010706	-0.5156622	-1.88503182	5.5290447	-23.19906942
5.75	575	0.101	0	-0.975	-2.005353	-0.1718874	-0.5156622	-1.88503182	5.5290447	-23.204799
5.76	576	0.107	0.003	-0.978	-2.5210152	-0.6302538	-0.4583664	-1.91367972	5.52331512	-23.21052858
5.77	577	0.105	0.015	-0.983	-2.578311	-0.7448454	-0.4583664	-1.94232762	5.51758554	-23.21625816
5.78	578	0.102	0.023	-0.988	-2.291832	-0.6875496	-0.4010706	-1.96524594	5.51185596	-23.21625816
5.79	579	0.101	0.027	-0.994	-1.4896908	-0.1718874	-0.3437748	-1.9767051	5.50612638	-23.22198774
5.8	580	0.098	0.026	-0.995	-0.8021412	0	-0.2291832	-2.0626488	5.46028974	-23.22771732
5.81	581	0.097	0.021	-0.993	-0.2291832	0.2291832	-0.1718874	-2.0626488	5.46028974	-23.22771732
5.82	582	0.099	0.018	-0.99	-0.2291832	0.286479	-0.0572958	-2.06837838	5.46601932	-23.22771732
5.83	583	0.101	0.017	-0.988	-0.572958	0.1145916	-0.0572958	-2.07410796	5.46601932	-23.2334469
5.84	584	0.104	0.019	-0.988	-1.0313244	0.0572958	-0.1718874	-2.08556712	5.46601932	-23.2334469
5.85	585	0.106	0.022	-0.987	-1.145916	-0.0572958	-0.286479	-2.12567418	5.47747848	-23.23917648
5.86	586	0.108	0.023	-0.984	-1.145916	-0.1145916	-0.3437748	-2.13713334	5.47747848	-23.24490606
5.87	587	0.109	0.022	-0.983	-1.2032118	-0.0572958	-0.286479	-2.1485925	5.47747848	-23.24490606
5.88	588	0.109	0.022	-0.983	-1.145916	-0.0572958	-0.286479	-2.16005166	5.4717489	-23.25063564
5.89	589	0.109	0.023	-0.98	-1.145916	-0.0572958	-0.3437748	-2.1772404	5.4717489	-23.25063564
5.9	590	0.11	0.023	-0.98	-1.3178034	0	-0.286479	-2.2058883	5.49466722	-23.2620948
5.91	591	0.112	0.021	-0.983	-1.432395	0	-0.1145916	-2.22307704	5.5003968	-23.2620948
5.92	592	0.113	0.02	-0.987	-1.3750992	0	-0.0572958	-2.24026578	5.49466722	-23.2620948
5.93	593	0.111	0.02	-0.99	-1.0886202	-0.1718874	0	-2.24599536	5.49466722	-23.2620948
5.94	594	0.11	0.017	-0.989	-0.9167328	-0.3437748	-0.0572958	-2.25745452	5.48893764	-23.2620948
5.95	595	0.109	0.016	-0.986	-0.9740286	-0.4010706	-0.0572958	-2.25745452	5.50612638	-23.2620948
5.96	596	0.108	0.014	-0.985	-1.2032118	-0.6302538	-0.0572958	-2.27464326	5.5003968	-23.26782438
5.97	597	0.108	0.016	-0.985	-1.2605076	-0.6302538	-0.1718874	-2.28610242	5.48893764	-23.26782438
5.98	598	0.108	0.016	-0.986	-1.2032118	-0.7448454	-0.1718874	-2.29756158	5.48320806	-23.26782438
5.99	599	0.106	0.018	-0.986	-1.145916	-1.0886202	-0.2291832	-2.30902074	5.4717489	-23.27355396
6	600	0.102	0.019	-0.986	-0.9740286	-1.145916	-0.2291832	-2.3204799	5.45456016	-23.27355396
6.01	601	0.099	0.021	-0.986	-0.6875496	-0.9167328	-0.1718874	-2.33193906	5.44883058	-23.27355396
6.02	602	0.098	0.02	-0.986	-0.572958	-0.859437	-0.1145916	-2.33766864	5.43737142	-23.27928354
6.03	603	0.098	0.019	-0.987	-0.4583664	-0.572958	-0.1718874	-2.34339822	5.43164184	-23.27928354
6.04	604	0.1	0.018	-0.986	-0.4010706	-0.6302538	-0.1145916	-2.34339822	5.42591226	-23.27928354
6.05	605	0.103	0.019	-0.986	-0.572958	-0.572958	-0.1718874	-2.35485738	5.43164184	-23.28501312
6.06	606	0.103	0.02	-0.986	-0.572958	-0.6302538	-0.1718874	-2.36058696	5.42591226	-23.28501312
6.07	607	0.104	0.024	-0.986	-0.6875496	-0.6875496	-0.1718874	-2.36631654	5.4144531	-23.28501312
6.08	608	0.102	0.027	-0.984	-0.8021412	-0.6302538	-0.0572958	-2.37204612	5.40872352	-23.28501312
6.09	609	0.101	0.027	-0.983	-0.9167328	-0.4583664	-0.1145916	-2.38350528	5.40299394	-23.2907427
6.1	610	0.101	0.025	-0.983	-0.9167328	-0.572958	-0.1145916	-2.41788276	5.39726436	-23.2907427
6.11	611	0.101	0.025	-0.982	-0.7448454	-0.5156622	-0.1145916	-2.42361234	5.39153478	-23.2907427
6.12	612	0.1	0.024	-0.982	-0.572958	-0.6302538	-0.0572958	-2.42934192	5.38007562	-23.29647228
6.13	613	0.098	0.025	-0.981	-0.6302538	-0.572958	-0.1718874	-2.4350715	5.37434604	-23.29647228
6.14	614	0.098	0.026	-0.98	-0.7448454	-0.4583664	-0.1718874	-2.44653066	5.36861646	-23.29647228
6.15	615	0.097	0.026	-0.981	-0.8021412	-0.5156622	-0.1718874	-2.46944898	5.3571573	-23.30220186
6.16	616	0.099	0.027	-0.984	-0.6302538	-0.3437748	-0.2291832	-2.47517856	5.35142772	-23.30220186
6.17	617	0.098	0.027	-0.988	-0.1145916	-0.1145916	-0.1145916	-2.48090814	5.35142772	-23.30220186
6.18	618	0.098	0.025	-0.988	0.1718874	-0.1145916	0	-2.47517856	5.35142772	-23.30793144
6.19	619	0.098	0.021	-0.986	0.3437748	0.0572958	0	-2.47517856	5.35142772	-23.30793144
6.2	620	0.099	0.017	-0.989	0.859437	0.6302538	0.1145916	-2.44653066	5.35142772	-23.30220186
6.21	621	0.1	0.015	-0.985	0.3437748	0.6875496	0.0572958	-2.44080108	5.3571573	-23.30220186
6.22	622	0.104	0.017	-0.987	0	0.4583664	0.0572958	-2.44080108	5.36288688	-23.30220186
6.23	623	0.105	0.02	-0.99	-0.0572958	0.286479	0	-2.44653066	5.36288688	-23.30220186
6.24	624	0.106	0.023	-0.991	0	0.286479	0	-2.44653066	5.36861646	-23.30220186
6.25	625	0.104	0.021	-0.989	0.1718874	0.286479	0	-2.4350715	5.39153478	-23.30220186
6.26	626	0.102	0.015	-0.979	-0.1145916	0.5156622	0	-2.4350715	5.39726436	-23.30220186
6.27	627	0.102	0.011	-0.975	-0.5156622	0.4010706	-0.0572958	-2.44080108	5.39726436	-23.30220186
6.28	628	0.103	0.011	-0.972	-0.6302538	0	-0.0572958	-2.45226024	5.39726436	-23.30220186
6.29	629	0.107	0.015	-0.974	-0.572958	-0.2291832	-0.1718874	-2.45798982	5.39726436	-23.30220186
6.3	630	0.108	0.023	-0.981	-0.572958	-0.2291832	-0.1145916	-2.48663772	5.42591226	-23.31366102
6.31	631	0.105	0.029	-0.989	-0.572958	-0.286479	0	-2.4923673	5.42591226	-23.30793144
6.32	632	0.1	0.033	-0.995	-0.5156622	-0.4010706	0.0572958	-2.49809688	5.42018268	-23.30793144
6.33	633	0.099	0.033	-0.996	-0.1718874	-0.286479	0.1718874	-2.50382646	5.4144531	-23.30793144
6.34	634	0.1	0.027	-0.994	0.1145916	-0.1145916	0.1145916	-2.49809688	5.4144531	-23.30793144
6.35	635	0.101	0.024	-0.989	0.1718874	-0.0572958	0.0572958	-2.50382646	5.40872352	-23.30793144
6.36	636	0.102	0.025	-0.986	0	0	0	-2.50382646	5.4144531	-23.30793144
6.37	637	0.101	0.027	-0.981	-0.1718874	0.1718874	0.0572958	-2.50955604	5.4144531	-23.30220186
6.38	638	0.1	0.031	-0.98	-0.2291832	0.3437748	0	-2.50955604	5.42018268	-23.30220186
6.39	639	0.101	0.032	-0.981	-0.0572958	0.5156622	0	-2.50955604	5.42018268	-23.30220186
6.4	640	0.102	0.029	-0.981	0.1718874	0.5156622	0	-2.55539268	5.43164184	-23.30793144
6.41	641	0.102	0.027	-0.982	0	0.4583664	0	-2.55539268	5.43737142	-23.30793144
6.42	642	0.103	0.025	-0.985	-0.1145916	0.5156622	0	-2.55539268	5.443101	-23.30793144
6.43	643	0.103	0.022	-0.986	-0.3437748	0.286479	-0.0572958	-2.56112226	5.44883058	-23.30793144
6.44	644	0.104	0.02	-0.988	-0.6875496	0	0	-2.56685184	5.44883058	-23.30793144
6.45	645	0.104	0.019	-0.992	-0.859437	-0.2291832	0	-2.56112226	5.443101	-23.30793144
6.46	646	0.103	0.021	-0.993	-0.6875496	-0.4583664	0.0572958	-2.56685184	5.43737142	-23.30793144
6.47	647	0.103	0.022	-0.991	-0.6875496	-0.3437748	0	-2.578311	5.43164184	-23.30793144
6.48	648	0.103	0.022	-0.986	-0.6302538	-0.286479	0.0572958	-2.58404058	5.43164184	-23.30793144
6.49	649	0.101	0.022	-0.983	-0.859437	-0.3437748	0.0572958	-2.58977016	5.42591226	-23.30220186
6.5	650	0.102	0.025	-0.98	-1.0313244	-0.286479	0.0572958	-2.61841806	5.42591226	-23.30793144
6.51	651	0.102	0.028	-0.979	-0.859437	-0.3437748	0	-2.62414764	5.42018268	-23.30793144
6.52	652	0.101	0.032	-0.98	-0.6302538	-0.4010706	-0.0572958	-2.62987722	5.4144531	-23.30793144
6.53	653	0.099	0.035	-0.983	-0.3437748	-0.1145916	-0.1145916	-2.6356068	5.4144531	-23.30793144
6.54	654	0.096	0.034	-0.985	-0.0572958	0.0572958	-0.1718874	-2.6356068	5.4144531	-23.30793144
6.55	655	0.095	0.031	-0.986	0.1145916	0.1718874	-0.1718874	-2.6642547	5.38007562	-23.31366102
6.56	656	0.096	0.028	-0.987	0.286479	0.4583664	-0.0572958	-2.6642547	5.3858052	-23.31366102
6.57	657	0.099	0.025	-0.989	0.4010706	0.6302538	-0.1145916	-2.65852512	5.39153478	-23.31366102
6.58	658	0.103	0.025	-0.992	0.572958	0.5156622	0	-2.65279554	5.39726436	-23.31366102
6.59	659	0.104	0.025	-0.993	0.7448454	0.3437748	0.0572958	-2.64706596	5.40299394	-23.31366102
6.6	660	0.103	0.026	-0.994	0.8021412	0.1718874	0.1718874	-2.64706596	5.40299394	-23.31366102
6.61	661	0.1	0.027	-0.994	0.7448454	0	0.1145916	-2.6356068	5.39726436	-23.30793144
6.62	662	0.098	0.029	-0.991	0.6302538	0.0572958	0.1145916	-2.62987722	5.40299394	-23.30793144
6.63	663	0.1	0.032	-0.989	0.6302538	0.0572958	0.0572958	-2.62414764	5.40299394	-23.30793144
6.64	664	0.102	0.032	-0.99	0.6875496	0.0572958	0	-2.61841806	5.40299394	-23.30793144
6.65	665	0.105	0.033	-0.989	0.859437	0	0.0572958	-2.6356068	5.4144531	-23.31366102
6.66	666	0.107	0.032	-0.987	0.9740286	-0.2291832	0.1718874	-2.62414764	5.4144531	-23.30793144
6.67	667	0.105	0.03	-0.987	0.9740286	-0.286479	0.1145916	-2.61268848	5.40872352	-23.30793144
6.68	668	0.102	0.028	-0.985	0.859437	-0.1145916	0.1145916	-2.6069589	5.40872352	-23.30793144
6.69	669	0.099	0.028	-0.985	0.9167328	0	0.1145916	-2.59549974	5.40872352	-23.30220186
6.7	670	0.098	0.029	-0.987	1.0313244	0	0.0572958	-2.60122932	5.39726436	-23.30220186
6.71	671	0.098	0.028	-0.989	1.3750992	-0.0572958	0.0572958	-2.58404058	5.39726436	-23.30220186
6.72	672	0.098	0.029	-0.993	1.718874	0.1145916	0	-2.56685184	5.39726436	-23.30220186
6.73	673	0.098	0.03	-0.992	1.8907614	0.286479	0	-2.5496631	5.40299394	-23.30220186
6.74	674	0.099	0.027	-0.989	1.7761698	0.3437748	0	-2.53247436	5.40299394	-23.30220186
6.75	675	0.101	0.024	-0.99	1.6042824	0.4583664	0	-2.51528562	5.40872352	-23.30220186
6.76	676	0.103	0.021	-0.987	1.2605076	0.286479	0.1145916	-2.50382646	5.4144531	-23.30220186
6.77	677	0.105	0.021	-0.99	0.9740286	0	0.1718874	-2.4923673	5.4144531	-23.30220186
6.78	678	0.107	0.022	-0.99	1.0313244	-0.0572958	0.286479	-2.48090814	5.4144531	-23.29647228
6.79	679	0.104	0.024	-0.99	1.2032118	-0.2291832	0.286479	-2.46944898	5.40872352	-23.29647228
6.8	680	0.1	0.025	-0.988	1.4896908	-0.1145916	0.286479	-2.45798982	5.40872352	-23.2907427
6.81	681	0.099	0.02	-0.977	1.2605076	0.2291832	0.1145916	-2.44080108	5.40872352	-23.2907427
6.82	682	0.099	0.017	-0.976	0.7448454	0.0572958	0.0572958	-2.4350715	5.40872352	-23.2907427
6.83	683	0.105	0.017	-0.977	0.6302538	-0.5156622	0	-2.42934192	5.40299394	-23.2907427
6.84	684	0.111	0.02	-0.978	0.5156622	-0.9740286	0	-2.42361234	5.39726436	-23.2907427
6.85	685	0.109	0.026	-0.985	0.4010706	-1.3178034	0	-2.4350715	5.39153478	-23.2907427
6.86	686	0.104	0.031	-0.991	0.4010706	-1.3178034	0	-2.42934192	5.38007562	-23.2907427
6.87	687	0.098	0.035	-0.993	0.572958	-1.0313244	0	-2.42361234	5.36861646	-23.2907427
6.88	688	0.095	0.031	-0.993	0.9740286	-0.572958	0.1145916	-2.41215318	5.36288688	-23.2907427
6.89	689	0.095	0.026	-0.989	1.432395	0.1145916	0.1145916	-2.39496444	5.36288688	-23.2907427
6.9	690	0.097	0.025	-0.984	1.5469866	0.2291832	0.1145916	-2.38923486	5.36288688	-23.2907427
6.91	691	0.099	0.026	-0.983	1.3178034	0.3437748	0.1145916	-2.3777757	5.36861646	-23.28501312
6.92	692	0.101	0.029	-0.982	1.2032118	0.2291832	0.0572958	-2.36631654	5.36861646	-23.28501312
6.93	693	0.101	0.03	-0.982	1.2032118	0	0.1145916	-2.35485738	5.36861646	-23.28501312
6.94	694	0.101	0.029	-0.982	1.3178034	-0.1718874	0.1145916	-2.33766864	5.36861646	-23.28501312
6.95	695	0.1	0.027	-0.983	1.3178034	-0.286479	0.1145916	-2.33766864	5.36288688	-23.28501312
6.96	696	0.099	0.025	-0.983	1.2032118	-0.2291832	0.1145916	-2.32620948	5.36288688	-23.28501312
6.97	697	0.099	0.024	-0.984	1.0313244	-0.3437748	0	-2.31475032	5.3571573	-23.27928354
6.98	698	0.1	0.024	-0.985	0.9167328	-0.1145916	0	-2.30902074	5.3571573	-23.27928354
6.99	699	0.1	0.024	-0.984	0.7448454	-0.1145916	0.0572958	-2.29756158	5.3571573	-23.27928354
7	700	0.101	0.022	-0.985	0.6302538	-0.3437748	0.1145916	-2.29756158	5.35142772	-23.27928354
7.01	701	0.101	0.021	-0.988	0.6302538	-0.5156622	0.1718874	-2.291832	5.35142772	-23.27928354
7.02	702	0.1	0.019	-0.988	0.8021412	-0.5156622	0.2291832	-2.28037284	5.34569814	-23.27355396
7.03	703	0.099	0.018	-0.985	0.9167328	-0.5156622	0.1718874	-2.26891368	5.33996856	-23.27355396
7.04	704	0.098	0.017	-0.984	0.8021412	-0.4583664	0	-2.2631841	5.33423898	-23.27355396
7.05	705	0.1	0.021	-0.981	0.6302538	-0.5156622	0	-2.26891368	5.3285094	-23.27355396
7.06	706	0.102	0.022	-0.983	0.5156622	-0.4010706	0	-2.2631841	5.32277982	-23.27355396
7.07	707	0.102	0.023	-0.984	0.572958	-0.572958	0	-2.25745452	5.31705024	-23.27355396
7.08	708	0.103	0.023	-0.986	0.6302538	-0.4010706	0	-2.24599536	5.31132066	-23.27355396
7.09	709	0.1	0.022	-0.987	0.8021412	-0.4010706	0.1145916	-2.24026578	5.30559108	-23.27355396
7.1	710	0.098	0.023	-0.987	0.8021412	-0.286479	0.0572958	-2.24599536	5.2998615	-23.27355396
7.11	711	0.099	0.024	-0.988	0.859437	-0.0572958	0.0572958	-2.2345362	5.2998615	-23.27355396
7.12	712	0.1	0.024	-0.987	0.9167328	0.1145916	0.0572958	-2.22880662	5.2998615	-23.27355396
7.13	713	0.101	0.025	-0.987	0.9167328	0.0572958	0.1145916	-2.21734746	5.30559108	-23.26782438
7.14	714	0.102	0.024	-0.987	0.9167328	0	0.1145916	-2.2058883	5.30559108	-23.26782438
7.15	715	0.1	0.024	-0.983	0.9740286	-0.2291832	0.2291832	-2.21161788	5.2998615	-23.26782438
7.16	716	0.098	0.026	-0.983	0.9167328	-0.1145916	0.2291832	-2.20015872	5.2998615	-23.26782438
7.17	717	0.096	0.027	-0.981	0.9740286	0	0.1145916	-2.19442914	5.2998615	-23.2620948
7.18	718	0.097	0.029	-0.981	1.0313244	0	0.1145916	-2.18296998	5.2998615	-23.2620948
7.19	719	0.097	0.028	-0.981	1.0886202	0.0572958	0.0572958	-2.17151082	5.2998615	-23.2620948
