TimeStamp(s)	FrameCounter	AccX	AccY	AccZ	GyrX	GyrY	GyrZ	EulerX	EulerY	EulerZ
0.01	1	-0.059	-1.002	0.115	1.0886202	-4.7555514	1.2605076	91.52431092	-3.8674665	-66.12508278
0.02	2	-0.061	-1.01	0.129	0.0572958	-4.870143	1.3178034	91.5300405	-3.87319608	-66.176649
0.03	3	-0.063	-1.014	0.13	-0.6302538	-5.0993262	1.145916	91.52431092	-3.88465524	-66.22248564
0.04	4	-0.064	-1.015	0.13	-1.0313244	-4.4117766	1.0886202	91.51858134	-3.89038482	-66.26832228
0.05	5	-0.062	-1.017	0.13	-1.432395	-3.3231564	1.0313244	91.56441798	-3.8961144	-66.30842934
0.06	6	-0.06	-1.017	0.125	-1.8907614	-2.4637194	1.0886202	91.54722924	-3.90184398	-66.33707724
0.07	7	-0.058	-1.015	0.119	-2.291832	-1.718874	1.145916	91.52431092	-3.91330314	-66.35426598
0.08	8	-0.055	-1.011	0.114	-2.4637194	-1.5469866	1.2605076	91.5013926	-3.9247623	-66.36572514
0.09	9	-0.056	-1.007	0.11	-2.6356068	-1.6615782	1.3750992	91.4727447	-3.94195104	-66.38291388
0.1	10	-0.058	-1.003	0.104	-2.8074942	-1.8334656	1.432395	91.48420386	-3.94768062	-66.4058322
0.11	11	-0.062	-0.998	0.102	-2.86479	-1.718874	1.3750992	91.45555596	-3.95913978	-66.42302094
0.12	12	-0.068	-0.995	0.1	-2.86479	-1.2032118	1.3178034	91.42690806	-3.97059894	-66.44020968
0.13	13	-0.071	-0.996	0.099	-2.9220858	-0.9740286	1.2605076	91.39826016	-3.9820581	-66.44593926
0.14	14	-0.074	-0.999	0.096	-3.2085648	-0.3437748	0.9740286	91.36961226	-3.99351726	-66.45166884
0.15	15	-0.075	-0.999	0.093	-3.437748	0.1718874	0.7448454	91.37534184	-4.00497642	-66.45739842
0.16	16	-0.077	-0.997	0.092	-3.6096354	0.859437	0.572958	91.33523478	-4.010706	-66.45166884
0.17	17	-0.078	-0.995	0.091	-3.9534102	1.8334656	0.4010706	91.29512772	-4.01643558	-66.4344801
0.18	18	-0.078	-0.991	0.092	-4.4690724	2.6356068	0.3437748	91.2435615	-4.02216516	-66.4058322
0.19	19	-0.078	-0.985	0.085	-5.3285094	4.297185	0.3437748	91.1862657	-4.02789474	-66.36572514
0.2	20	-0.075	-0.983	0.079	-5.5003968	5.3858052	0.5156622	91.14042906	-4.0393539	-66.31415892
0.21	21	-0.072	-0.985	0.072	-5.443101	6.016059	0.7448454	91.07740368	-4.05081306	-66.25686312
0.22	22	-0.071	-0.989	0.071	-4.9847346	6.5317212	1.0313244	91.02010788	-4.06227222	-66.19383774
0.23	23	-0.074	-0.994	0.08	-4.0680018	7.5057498	1.3178034	90.97427124	-4.07946096	-66.1193532
0.24	24	-0.079	-1.003	0.092	-2.6356068	8.9381448	1.7761698	90.93989376	-4.10237928	-66.0334095
0.25	25	-0.083	-1.012	0.101	-1.4896908	10.7143146	2.578311	90.93416418	-4.13675676	-65.93027706
0.26	26	-0.085	-1.026	0.107	-1.2032118	11.6883432	3.3804522	90.91124586	-4.17686382	-65.81568546
0.27	27	-0.082	-1.03	0.105	-2.0626488	12.3758928	4.2398892	90.87686838	-4.22270046	-65.69536428
0.28	28	-0.081	-1.031	0.104	-3.2658606	12.605076	4.6409598	90.83676132	-4.27426668	-65.56931352
0.29	29	-0.08	-1.03	0.103	-4.297185	12.605076	4.9274388	90.77946552	-4.33156248	-65.44326276
0.3	30	-0.081	-1.019	0.101	-4.9274388	12.4904844	5.3285094	90.73362888	-4.38885828	-65.32294158
0.31	31	-0.082	-1.009	0.104	-5.0993262	11.8602306	5.8441716	90.6706035	-4.45188366	-65.20834998
0.32	32	-0.085	-0.998	0.109	-4.6409598	10.9434978	6.302538	90.6133077	-4.52063862	-65.09948796
0.33	33	-0.091	-0.995	0.109	-4.4117766	10.4278356	6.5317212	90.5560119	-4.58939358	-64.99635552
0.34	34	-0.101	-0.994	0.107	-4.4117766	9.1100322	6.7609044	90.50444568	-4.65814854	-64.91041182
0.35	35	-0.112	-0.992	0.116	-5.0420304	6.1879464	6.6463128	90.4700682	-4.73836266	-64.8588456
0.36	36	-0.122	-0.987	0.128	-5.7868758	3.437748	6.1879464	90.4127724	-4.80711762	-64.82446812
0.37	37	-0.129	-0.988	0.134	-6.4744254	1.7761698	5.7868758	90.34401744	-4.86441342	-64.80727938
0.38	38	-0.131	-0.997	0.132	-7.5630456	0.7448454	5.72958	90.26380332	-4.92170922	-64.8015498
0.39	39	-0.134	-1.006	0.133	-9.2246238	0	5.9014674	90.17213004	-4.97900502	-64.8015498
0.4	40	-0.133	-1.006	0.134	-10.5424272	-0.4583664	6.1306506	90.09191592	-5.05348956	-64.81873854
0.41	41	-0.132	-0.995	0.135	-11.5164558	-0.8021412	6.1879464	89.97732432	-5.11651494	-64.8301977
0.42	42	-0.133	-0.982	0.143	-11.9748222	-1.2032118	6.2452422	89.85700314	-5.17954032	-64.84738644
0.43	43	-0.14	-0.972	0.149	-12.0894138	-1.6042824	6.3598338	89.73668196	-5.2425657	-64.86457518
0.44	44	-0.147	-0.97	0.154	-11.45916	-1.3178034	6.8182002	89.62209036	-5.31132066	-64.87603434
0.45	45	-0.156	-0.969	0.161	-10.3705398	-1.0886202	7.3338624	89.5533354	-5.40872352	-64.90468224
0.46	46	-0.17	-0.967	0.178	-8.880849	-0.9740286	7.5630456	89.4673917	-5.48320806	-64.9161414
0.47	47	-0.182	-0.967	0.195	-6.9327918	0.0572958	7.6203414	89.39290716	-5.56342218	-64.9161414
0.48	48	-0.186	-0.972	0.213	-5.9014674	2.005353	7.3911582	89.33561136	-5.63790672	-64.89322308
0.49	49	-0.178	-0.978	0.22	-5.5003968	4.2398892	7.3338624	89.27258598	-5.71239126	-64.85311602
0.5	50	-0.156	-0.987	0.214	-5.5576926	5.9587632	7.7922288	89.25539724	-5.80406454	-64.80727938
0.51	51	-0.128	-0.995	0.2	-6.4171296	6.302538	8.5370742	89.1809127	-5.89000824	-64.744254
0.52	52	-0.11	-0.995	0.19	-6.9900876	4.4690724	9.1100322	89.10642816	-5.98168152	-64.69841736
0.53	53	-0.097	-0.989	0.183	-7.5057498	1.6615782	9.453807	89.02621404	-6.07908438	-64.68122862
0.54	54	-0.104	-0.975	0.176	-7.6203414	-1.6042824	9.5111028	88.9517295	-6.17075766	-64.69841736
0.55	55	-0.117	-0.961	0.179	-7.5630456	-4.6409598	8.9954406	88.91735202	-6.26816052	-64.75571316
0.56	56	-0.136	-0.949	0.186	-7.9641162	-6.1306506	8.021412	88.84859706	-6.34837464	-64.81300896
0.57	57	-0.151	-0.942	0.183	-8.59437	-6.1879464	6.8182002	88.76838294	-6.4171296	-64.87603434
0.58	58	-0.164	-0.938	0.167	-9.5111028	-5.9587632	5.5576926	88.67670966	-6.4744254	-64.93333014
0.59	59	-0.177	-0.94	0.158	-10.6570188	-6.1879464	4.1252976	88.5793068	-6.51453246	-64.99635552
0.6	60	-0.187	-0.945	0.155	-11.172681	-6.1306506	3.151269	88.51055184	-6.57182826	-65.07656964
0.61	61	-0.186	-0.949	0.154	-11.8602306	-5.7868758	2.4064236	88.39596024	-6.59474658	-65.13386544
0.62	62	-0.18	-0.948	0.148	-12.2613012	-6.1306506	1.9480572	88.28136864	-6.6176649	-65.19689082
0.63	63	-0.177	-0.947	0.142	-12.5477802	-6.589017	1.5469866	88.16104746	-6.63485364	-65.26564578
0.64	64	-0.174	-0.941	0.137	-12.7769634	-7.1046792	0.8021412	88.04072628	-6.64058322	-65.33440074
0.65	65	-0.177	-0.936	0.145	-12.891555	-7.0473834	-0.286479	87.95478258	-6.65777196	-65.42607402
0.66	66	-0.18	-0.933	0.148	-13.178034	-6.0733548	-1.6042824	87.82873182	-6.6463128	-65.48336982
0.67	67	-0.185	-0.937	0.143	-13.0061466	-4.3544808	-2.86479	87.70268106	-6.6176649	-65.52920646
0.68	68	-0.188	-0.946	0.14	-12.891555	-2.9220858	-3.5523396	87.5766303	-6.58328742	-65.56358394
0.69	69	-0.19	-0.951	0.135	-13.1207382	-1.8334656	-4.0680018	87.44484996	-6.54318036	-65.58650226
0.7	70	-0.192	-0.954	0.137	-13.6936962	-0.9167328	-4.6982556	87.3474471	-6.52599162	-65.61515016
0.71	71	-0.195	-0.951	0.143	-14.1520626	0.572958	-5.5003968	87.2042076	-6.4744254	-65.61515016
0.72	72	-0.198	-0.953	0.148	-14.4958374	2.6929026	-6.4744254	87.05523852	-6.40567044	-65.59223184
0.73	73	-0.202	-0.955	0.143	-15.0687954	4.9847346	-7.3338624	86.89481028	-6.33691548	-65.5463952
0.74	74	-0.204	-0.955	0.139	-15.0687954	7.2765666	-8.021412	86.73438204	-6.25670136	-65.48336982
0.75	75	-0.202	-0.961	0.133	-14.0947668	10.026765	-8.1360036	86.6026017	-6.1879464	-65.4031557
0.76	76	-0.2	-0.971	0.133	-12.9488508	11.745639	-7.734933	86.4593622	-6.10773228	-65.2885641
0.77	77	-0.201	-0.98	0.143	-12.4331886	13.6364004	-7.6203414	86.3161227	-6.03324774	-65.16251334
0.78	78	-0.203	-0.986	0.158	-12.1467096	16.1001198	-8.021412	86.1728832	-5.94730404	-65.00781468
0.79	79	-0.202	-0.992	0.184	-11.2872726	19.3659804	-8.8235532	86.04110286	-5.84990118	-64.81873854
0.8	80	-0.2	-1.002	0.211	-10.5424272	23.6631654	-9.740286	85.93224084	-5.7582279	-64.60674408
0.81	81	-0.202	-1.02	0.228	-9.7975818	27.9603504	-10.599723	85.8004605	-5.6436363	-64.33745382
0.82	82	-0.206	-1.054	0.22	-9.7975818	31.1689152	-10.9434978	85.66868016	-5.51758554	-64.03378608
0.83	83	-0.203	-1.089	0.214	-10.6570188	33.9764094	-10.599723	85.52544066	-5.39726436	-63.70720002
0.84	84	-0.178	-1.113	0.208	-11.5737516	35.236917	-10.1986524	85.370742	-5.28267276	-63.36342522
0.85	85	-0.147	-1.122	0.199	-12.3758928	34.091001	-10.1986524	85.2275025	-5.16808116	-63.04256874
0.86	86	-0.12	-1.117	0.197	-12.7769634	31.2835068	-10.1413566	85.06707426	-5.04775998	-62.738901
0.87	87	-0.094	-1.128	0.182	-13.5791046	28.074942	-9.453807	84.90091644	-4.93889796	-62.46961074
0.88	88	-0.027	-1.226	0.06	-18.5638392	28.5906042	-6.7609044	84.6831924	-4.85868384	-62.1945909
0.89	89	0.068	-1.422	-0.093	-23.8923486	19.2513888	0.9740286	84.4253613	-4.85295426	-62.00551476
0.9	90	0.164	-1.673	-0.139	-31.3408026	-0.1145916	12.7769634	84.10450482	-4.9847346	-61.99978518
0.91	91	0.218	-1.667	-0.073	-44.6334282	-30.7678446	23.0902074	83.6805159	-5.23683612	-62.28626418
0.92	92	0.157	-1.436	0.027	-48.70143	-57.1812084	22.4599536	83.24506782	-5.51185596	-62.83057428
0.93	93	0.041	-1.184	0.087	-46.8106686	-79.641162	15.0687954	82.85545638	-5.74103916	-63.60406758
0.94	94	-0.104	-0.993	0.129	-35.523396	-94.8818448	4.583664	82.60335486	-5.88427866	-64.5437187
0.95	95	-0.267	-0.863	0.121	-18.7357266	-91.0430262	-6.7036086	82.52887032	-5.92438572	-65.4604515
0.96	96	-0.385	-0.833	0.146	-8.021412	-68.1247062	-16.2147114	82.52887032	-5.83271244	-66.15373068
0.97	97	-0.43	-0.87	0.134	-6.4171296	-40.7946096	-21.199446	82.51168158	-5.66655462	-66.58917876
0.98	98	-0.42	-0.968	0.093	-5.6722842	-19.5951636	-21.3140376	82.4773041	-5.47747848	-66.8069028
0.99	99	-0.401	-1.082	0.027	-6.7036086	-7.3911582	-16.2147114	82.4200083	-5.32277982	-66.90430566
1	100	-0.349	-1.124	-0.066	-6.9327918	6.016059	-11.6310474	82.34552376	-5.23110654	-66.86992818
1.01	101	-0.271	-1.094	-0.145	-10.1413566	28.5906042	-9.5111028	82.219473	-5.10505578	-66.60063792
1.02	102	-0.169	-1.013	-0.174	-16.2147114	48.414951	-9.3392154	82.00747854	-4.96181628	-66.13654194
1.03	103	-0.073	-0.927	-0.208	-21.0848544	60.6762522	-10.4851314	81.7324587	-4.79565846	-65.55212478
1.04	104	-0.01	-0.873	-0.292	-24.5798982	69.7289886	-10.7716104	81.4173318	-4.60658232	-64.8874935
1.05	105	0	-0.846	-0.384	-28.4187168	73.3959198	-7.7922288	81.05063868	-4.4404245	-64.171296
1.06	106	-0.037	-0.825	-0.426	-31.4553942	68.4111852	-0.9167328	80.66675682	-4.34302164	-63.50666472
1.07	107	-0.074	-0.827	-0.397	-30.653253	52.5975444	5.9587632	80.31152286	-4.33156248	-62.98527294
1.08	108	-0.078	-0.828	-0.36	-29.1062664	41.0237928	7.6203414	79.97920722	-4.3544808	-62.57274318
1.09	109	-0.068	-0.815	-0.317	-27.3873924	29.9657034	4.8128472	79.67553948	-4.36021038	-62.26907544
1.1	110	-0.068	-0.822	-0.268	-23.8350528	18.621135	-0.8021412	79.40051964	-4.3258329	-62.09145846
1.11	111	-0.073	-0.861	-0.238	-18.5065434	8.9381448	-6.9900876	79.20571392	-4.24561878	-62.01697392
1.12	112	-0.077	-0.914	-0.229	-11.5737516	2.6356068	-12.2040054	79.09112232	-4.1252976	-62.01697392
1.13	113	-0.076	-0.966	-0.212	-6.1879464	0.859437	-16.2720072	79.02809694	-3.96486936	-62.03416266
1.14	114	-0.078	-1.01	-0.171	-3.3804522	2.578311	-18.907614	78.99371946	-3.77579322	-62.04562182
1.15	115	-0.094	-1.022	-0.13	-2.86479	7.3911582	-20.05353	78.97080114	-3.57525792	-62.01697392
1.16	116	-0.111	-1.012	-0.087	-3.437748	14.9542038	-19.0795014	78.9249645	-3.36326346	-61.9081119
1.17	117	-0.115	-0.996	-0.051	-4.5263682	24.4653066	-16.6730778	78.86193912	-3.16272816	-61.70184702
1.18	118	-0.104	-0.987	-0.02	-6.2452422	34.6066632	-13.178034	78.77599542	-2.97365202	-61.38672012
1.19	119	-0.086	-0.986	-0.006	-7.9641162	44.0031744	-9.6256944	78.67286298	-2.8074942	-60.97419036
1.2	120	-0.063	-0.989	-0.009	-9.7975818	51.0505578	-6.589017	78.5525418	-2.65852512	-60.49290564
1.21	121	-0.039	-0.993	-0.024	-11.6310474	53.858052	-4.297185	78.40357272	-2.52674478	-59.97724344
1.22	122	-0.006	-0.991	-0.063	-12.7769634	52.5975444	-2.8074942	78.24314448	-2.41215318	-59.4730404
1.23	123	0.023	-0.989	-0.085	-12.891555	48.128472	-2.291832	78.08844582	-2.30329116	-59.00894442
1.24	124	0.05	-0.986	-0.093	-12.7769634	41.4248634	-3.0939732	77.93947674	-2.20015872	-58.6136034
1.25	125	0.068	-0.986	-0.094	-12.4331886	34.4347758	-4.9274388	77.80196682	-2.07983754	-58.28701734
1.26	126	0.087	-0.987	-0.085	-12.2040054	27.1582092	-7.2192708	77.67018648	-1.95951636	-58.03491582
1.27	127	0.093	-0.985	-0.069	-12.6623718	19.8243468	-9.6256944	77.53267656	-1.82773602	-57.868758
1.28	128	0.091	-0.981	-0.041	-13.6936962	13.6364004	-11.45916	77.38370748	-1.69595568	-57.75989598
1.29	129	0.082	-0.975	-0.024	-13.5791046	8.4224826	-12.8342592	77.24619756	-1.55271618	-57.70832976
1.3	130	0.063	-0.967	-0.013	-12.7196676	4.3544808	-13.750992	77.1487947	-1.39801752	-57.69114102
1.31	131	0.044	-0.963	-0.009	-12.318597	0.7448454	-14.5531332	77.02274394	-1.25477802	-57.71405934
1.32	132	0.025	-0.955	-0.01	-12.8342592	-0.3437748	-15.183387	76.89669318	-1.11153852	-57.7541664
1.33	133	0.017	-0.946	-0.014	-14.4385416	0.1145916	-15.2979786	76.7477241	-0.96256944	-57.78854388
1.34	134	0.028	-0.935	-0.03	-16.6730778	2.3491278	-15.2979786	76.58156628	-0.81360036	-57.80000304
1.35	135	0.046	-0.933	-0.054	-18.907614	4.8128472	-15.4125702	76.4039493	-0.64171296	-57.78854388
1.36	136	0.077	-0.945	-0.08	-21.9442914	5.5003968	-15.3552744	76.18049568	-0.4870143	-57.77135514
1.37	137	0.105	-0.961	-0.102	-25.0955604	3.7815228	-15.4125702	75.92266458	-0.33231564	-57.77708472
1.38	138	0.122	-0.968	-0.122	-27.6165756	0.286479	-16.042824	75.64191516	-0.17761698	-57.8114622
1.39	139	0.136	-0.97	-0.125	-27.8457588	-5.0420304	-17.3033316	75.36116574	-0.02291832	-57.90886506
1.4	140	0.13	-0.973	-0.1	-26.9863218	-10.5424272	-18.7930224	75.10333464	0.13750992	-58.05210456
1.41	141	0.111	-0.972	-0.078	-25.0382646	-14.7823164	-19.8816426	74.84550354	0.29220858	-58.25263986
1.42	142	0.077	-0.982	-0.053	-21.772404	-18.4492476	-20.5118964	74.6277795	0.44117766	-58.48182306
1.43	143	0.049	-1.003	-0.037	-18.3919518	-21.199446	-20.2254174	74.43870336	0.58441716	-58.73965416
1.44	144	0.029	-1.022	-0.024	-15.3552744	-22.8610242	-19.194093	74.2840047	0.71046792	-59.014674
1.45	145	0.028	-1.03	-0.033	-13.4072172	-23.3193906	-17.0741484	74.1694131	0.81932994	-59.28396426
1.46	146	0.049	-1.026	-0.022	-11.5164558	-23.1475032	-14.32395	74.04909192	0.89954406	-59.54752494
1.47	147	0.066	-1.018	-0.018	-9.1100322	-24.1215318	-11.3445684	73.95741864	0.9453807	-59.81108562
1.48	148	0.09	-1.015	-0.029	-7.2192708	-25.7258142	-9.3392154	73.8829341	0.9740286	-60.08037588
1.49	149	0.112	-1.014	-0.032	-5.72958	-28.7051958	-7.7922288	73.81990872	0.9740286	-60.37831404
1.5	150	0.11	-1.021	-0.038	-3.4950438	-32.1429438	-6.302538	73.81417914	0.96829902	-60.69917052
1.51	151	0.09	-1.031	-0.019	-0.5156622	-34.5493674	-5.0420304	73.80844956	0.92819196	-61.04294532
1.52	152	0.067	-1.056	0.013	2.4637194	-35.4088044	-4.0680018	73.83136788	0.88235532	-61.3924497
1.53	153	0.043	-1.102	0.003	3.724227	-34.8931422	-3.0939732	73.87147494	0.82505952	-61.7362245
1.54	154	0.013	-1.192	-0.095	1.7761698	-32.0283522	-1.8334656	73.88866368	0.76203414	-62.04562182
1.55	155	-0.034	-1.299	-0.228	-2.4064236	-23.4339822	-2.1772404	73.86574536	0.72192708	-62.2805346
1.56	156	-0.101	-1.388	-0.252	-4.4117766	-12.6623718	-4.9274388	73.8256383	0.73911582	-62.41804452
1.57	157	-0.194	-1.409	-0.191	-6.7036086	-2.1772404	-8.2505952	73.75115376	0.81360036	-62.45815158
1.58	158	-0.28	-1.338	-0.165	-9.6256944	8.9381448	-8.9381448	73.6537509	0.9167328	-62.40085578
1.59	159	-0.314	-1.226	-0.211	-12.3758928	23.777757	-6.1879464	73.52770014	1.03705398	-62.18886132
1.6	160	-0.296	-1.127	-0.325	-9.167328	34.7212548	-1.718874	73.43602686	1.11153852	-61.87373442
1.61	161	-0.236	-1.05	-0.406	0.5156622	30.4240698	3.0366774	73.44175644	1.16310474	-61.57579626
1.62	162	-0.14	-0.986	-0.332	12.8342592	8.4224826	7.1046792	73.57353678	1.1172681	-61.47266382
1.63	163	0.056	-0.973	-0.206	26.5279554	-13.464513	9.740286	73.84282704	0.99121734	-61.57006668
1.64	164	0.252	-1.039	-0.109	34.3201842	-18.7930224	12.7769634	74.19233142	0.82505952	-61.71330618
1.65	165	0.38	-1.088	-0.06	31.51269	-22.5745452	17.761698	74.52464706	0.63598338	-61.87373442
1.66	166	0.439	-1.052	-0.143	28.934379	-28.934379	22.345362	74.82258522	0.35523396	-62.09145846
1.67	167	0.411	-0.967	-0.219	27.6165756	-37.9298196	25.210152	75.10333464	0.0286479	-62.38939662
1.68	168	0.319	-0.865	-0.211	23.0329116	-43.6593996	25.4393352	75.343977	-0.30366774	-62.74463058
1.69	169	0.222	-0.762	-0.256	17.6471064	-45.263682	23.0902074	75.53305314	-0.62452422	-63.12278286
1.7	170	0.146	-0.652	-0.301	14.6677248	-45.7220484	19.2513888	75.6877518	-0.89954406	-63.5123943
1.71	171	0.08	-0.619	-0.328	12.2613012	-47.7274014	16.5584862	75.82526172	-1.16310474	-63.93065364
1.72	172	0.005	-0.631	-0.364	9.740286	-50.9359662	16.4438946	75.93985332	-1.42666542	-64.37756088
1.73	173	-0.086	-0.635	-0.387	8.3651868	-53.7434604	18.1627686	76.04871534	-1.718874	-64.85311602
1.74	174	-0.176	-0.649	-0.394	10.599723	-54.0872352	19.9962342	76.1747661	-2.02254174	-65.32867116
1.75	175	-0.243	-0.683	-0.412	13.4072172	-51.56622	21.0848544	76.3180056	-2.35485738	-65.78130798
1.76	176	-0.271	-0.715	-0.415	16.1574156	-46.5241896	20.912967	76.50708174	-2.64706596	-66.18237858
1.77	177	-0.241	-0.759	-0.42	18.8503182	-40.10706	19.4232762	76.7190762	-2.91635622	-66.52615338
1.78	178	-0.165	-0.821	-0.43	20.7410796	-34.7212548	18.048177	76.95398898	-3.15699858	-66.81836196
1.79	179	-0.104	-0.889	-0.394	22.8610242	-31.2835068	18.334656	77.2060905	-3.39191136	-67.08192264
1.8	180	-0.068	-0.965	-0.356	23.1475032	-29.1635622	19.9389384	77.44673286	-3.6382833	-67.31683542
1.81	181	-0.053	-1.021	-0.337	21.8296998	-26.7571386	21.8296998	77.68737522	-3.8961144	-67.53455946
1.82	182	-0.069	-1.055	-0.31	20.3973048	-23.8923486	22.8037284	77.91082884	-4.15967508	-67.71790602
1.83	183	-0.114	-1.075	-0.27	19.8243468	-19.8816426	22.5745452	78.1228233	-4.41750618	-67.86114552
1.84	184	-0.175	-1.097	-0.237	19.194093	-15.6990492	21.4286292	78.32908818	-4.64668938	-67.97000754
1.85	185	-0.233	-1.121	-0.211	17.8189938	-12.6623718	19.3086846	78.5238939	-4.870143	-68.06168082
1.86	186	-0.271	-1.136	-0.184	15.3552744	-9.740286	15.756345	78.68432214	-5.0420304	-68.1247062
1.87	187	-0.282	-1.142	-0.168	11.3445684	-6.2452422	11.5164558	78.80464332	-5.16235158	-68.15908368
1.88	188	-0.276	-1.15	-0.132	8.1360036	-3.6096354	7.9068204	78.89058702	-5.2425657	-68.182002
1.89	189	-0.245	-1.164	-0.118	3.9534102	-0.286479	5.443101	78.93069408	-5.2998615	-68.17054284
1.9	190	-0.222	-1.17	-0.141	-0.9167328	2.5210152	4.583664	78.93069408	-5.3571573	-68.14762452
1.91	191	-0.197	-1.156	-0.149	-5.0420304	4.583664	5.2712136	78.87339828	-5.40299394	-68.09032872
1.92	192	-0.163	-1.127	-0.147	-6.5317212	6.3598338	6.7036086	78.79891374	-5.46028974	-68.01584418
1.93	193	-0.139	-1.1	-0.152	-8.2505952	7.2765666	8.3651868	78.70151088	-5.5290447	-67.92990048
1.94	194	-0.125	-1.061	-0.133	-9.2246238	7.161975	10.026765	78.59837844	-5.6149884	-67.84395678
1.95	195	-0.124	-1.032	-0.115	-9.5683986	6.589017	11.2299768	78.51243474	-5.71812084	-67.76374266
1.96	196	-0.13	-1.013	-0.088	-9.3965112	5.8441716	11.9748222	78.4093023	-5.82698286	-67.68352854
1.97	197	-0.15	-0.999	-0.054	-9.740286	4.6409598	12.0894138	78.30044028	-5.94157446	-67.61477358
1.98	198	-0.17	-0.984	-0.035	-9.740286	4.1252976	11.9175264	78.19157826	-6.05043648	-67.54601862
1.99	199	-0.193	-0.971	-0.02	-9.453807	4.6982556	11.5737516	78.08844582	-6.15356892	-67.47726366
2	200	-0.224	-0.964	-0.017	-10.6570188	5.8441716	11.172681	78.0082317	-6.28534926	-67.41996786
2.01	201	-0.242	-0.956	-0.023	-11.745639	7.7922288	10.7143146	77.87645136	-6.37702254	-67.322565
2.02	202	-0.252	-0.945	-0.021	-11.745639	10.886202	10.313244	77.73894144	-6.45723666	-67.19078466
2.03	203	-0.254	-0.941	-0.009	-11.4018642	14.1520626	10.2559482	77.6071611	-6.53745078	-67.036086
2.04	204	-0.24	-0.926	0	-11.5164558	17.8189938	9.740286	77.4639216	-6.59474658	-66.84128028
2.05	205	-0.228	-0.913	0.007	-11.172681	21.9442914	8.880849	77.34933	-6.66350154	-66.61782666
2.06	206	-0.216	-0.898	0.015	-10.7143146	25.78311	7.5057498	77.2060905	-6.68641986	-66.3485364
2.07	207	-0.209	-0.889	0.011	-11.0007936	29.9657034	5.7868758	77.05712142	-6.68641986	-66.04486866
2.08	208	-0.208	-0.881	0.017	-11.5737516	34.663959	3.5523396	76.8909636	-6.65777196	-65.70109386
2.09	209	-0.199	-0.87	0.011	-12.4331886	39.247623	1.4896908	76.71334662	-6.59474658	-65.317212
2.1	210	-0.191	-0.87	0.013	-13.178034	42.6280752	-0.0572958	76.5471888	-6.52026204	-64.91041182
2.11	211	-0.185	-0.864	0.004	-13.4072172	46.0658232	-0.6302538	76.35811266	-6.42285918	-64.46350458
2.12	212	-0.177	-0.863	0.017	-12.032118	48.8733174	-0.9167328	76.1747661	-6.30826758	-63.99367902
2.13	213	-0.163	-0.86	0.01	-10.599723	50.6494872	-1.3178034	76.00860828	-6.19367598	-63.50666472
2.14	214	-0.148	-0.849	0.006	-9.3965112	52.5975444	-2.1199446	75.85390962	-6.06189564	-63.00246168
2.15	215	-0.129	-0.826	0	-6.1879464	53.4569814	-2.6929026	75.7450476	-5.92438572	-62.49252906
2.16	216	-0.107	-0.811	0.019	-0.0572958	53.285094	-2.9220858	75.6877518	-5.78114622	-61.98259644
2.17	217	-0.088	-0.811	0.065	7.734933	54.0872352	-2.1772404	75.70494054	-5.63790672	-61.46120466
2.18	218	-0.067	-0.821	0.108	15.2406828	55.7488134	-1.3750992	75.8023434	-5.50612638	-60.92835372
2.19	219	-0.051	-0.841	0.164	21.772404	57.2958	-1.3178034	75.96277164	-5.36288688	-60.37258446
2.2	220	-0.053	-0.872	0.198	26.5279554	57.7541664	-0.6302538	76.203414	-5.23110654	-59.81108562
2.21	221	-0.079	-0.916	0.196	29.5646328	57.4676874	0.859437	76.44405636	-5.12224452	-59.24958678
2.22	222	-0.117	-0.981	0.19	29.9657034	56.0925882	2.86479	76.6904283	-5.03057124	-58.69381752
2.23	223	-0.172	-1.055	0.195	28.5906042	52.5402486	4.4690724	76.93107066	-4.96754586	-58.17242574
2.24	224	-0.218	-1.141	0.118	24.0069402	50.420304	4.870143	77.12587638	-4.91597964	-57.6682227
2.25	225	-0.215	-1.273	-0.112	15.1260912	49.6181628	5.3858052	77.22900882	-4.870143	-57.17547882
2.26	226	-0.138	-1.451	-0.316	6.016059	41.8832298	9.453807	77.25192714	-4.88160216	-56.74576032
2.27	227	-0.021	-1.588	-0.284	0.572958	17.9908812	15.756345	77.2347384	-5.00192334	-56.53376586
2.28	228	0.123	-1.553	-0.233	-11.0580894	-8.0787078	18.7357266	77.13160596	-5.20245864	-56.57387292
2.29	229	0.254	-1.342	-0.249	-19.6524594	-36.4401288	16.6730778	76.96544814	-5.43164184	-56.8947294
2.3	230	0.29	-1.12	-0.29	-12.7196676	-48.8160216	9.2246238	76.87377486	-5.58061092	-57.33590706
2.31	231	0.262	-0.973	-0.325	-1.2605076	-35.9244666	-0.572958	76.90242276	-5.6436363	-57.68541144
2.32	232	0.144	-0.95	-0.255	7.9068204	-21.6578124	-7.2192708	77.0055552	-5.6149884	-57.91459464
2.33	233	-0.069	-0.993	-0.172	13.1207382	-21.5432208	-10.8289062	77.16598344	-5.55196302	-58.14950742
2.34	234	-0.287	-1.094	-0.145	18.048177	-19.4232762	-13.9228794	77.37224832	-5.45456016	-58.36723146
2.35	235	-0.436	-1.186	-0.142	20.5118964	-10.7716104	-18.2200644	77.60143152	-5.31705024	-58.51620054
2.36	236	-0.507	-1.217	-0.158	22.058883	-1.4896908	-20.8556712	77.83061472	-5.11078536	-58.57349634
2.37	237	-0.499	-1.187	-0.176	22.0015872	7.1046792	-22.8037284	78.05406834	-4.87587258	-58.54484844
2.38	238	-0.437	-1.109	-0.209	20.6837838	11.45916	-23.0329116	78.25460364	-4.62950064	-58.48182306
2.39	239	-0.337	-1.013	-0.25	18.907614	16.5011904	-22.345362	78.43222062	-4.3831287	-58.36150188
2.4	240	-0.206	-0.936	-0.288	17.2460358	23.9496444	-21.6005166	78.57546012	-4.14248634	-58.16669616
2.41	241	-0.096	-0.888	-0.306	14.7823164	26.9863218	-20.2827132	78.70724046	-3.8961144	-57.94324254
2.42	242	-0.034	-0.845	-0.34	11.9175264	25.9549974	-19.4232762	78.8103729	-3.66120162	-57.7255185
2.43	243	0.028	-0.826	-0.365	10.026765	25.8404058	-18.7357266	78.8963166	-3.43201842	-57.50779446
2.44	244	0.074	-0.831	-0.374	8.3651868	24.8090814	-17.5325148	78.96507156	-3.22002396	-57.2958
2.45	245	0.099	-0.856	-0.378	6.7036086	22.631841	-16.042824	78.9822603	-2.99657034	-57.0952647
2.46	246	0.097	-0.883	-0.39	4.9274388	20.3973048	-14.4958374	79.01663778	-2.82468294	-56.91764772
2.47	247	0.08	-0.911	-0.395	3.437748	17.9335854	-13.178034	79.04528568	-2.6642547	-56.76867864
2.48	248	0.054	-0.939	-0.387	2.6929026	15.2979786	-12.2613012	79.06247442	-2.5210152	-56.64262788
2.49	249	0.019	-0.974	-0.378	2.578311	12.3758928	-11.5164558	79.08539274	-2.38923486	-56.53949544
2.5	250	-0.005	-1.006	-0.378	2.86479	9.5683986	-10.6570188	79.05674484	-2.25745452	-56.45928132
2.51	251	-0.021	-1.029	-0.38	2.9793816	6.5317212	-9.453807	79.07966316	-2.15432208	-56.41344468
2.52	252	-0.025	-1.043	-0.377	3.2658606	3.5523396	-8.307891	79.11404064	-2.06837838	-56.39625594
2.53	253	-0.017	-1.05	-0.363	3.3804522	1.0886202	-7.9068204	79.14841812	-1.98816426	-56.39625594
2.54	254	0.007	-1.056	-0.34	2.6356068	0.1145916	-7.8495246	79.17706602	-1.90795014	-56.41344468
2.55	255	0.026	-1.059	-0.321	1.145916	-0.7448454	-7.3911582	79.1254998	-1.79908812	-56.41917426
2.56	256	0.044	-1.053	-0.301	-0.5156622	-2.0626488	-6.302538	79.1254998	-1.74179232	-56.44782216
2.57	257	0.058	-1.03	-0.282	-1.718874	-3.9534102	-4.4690724	79.10831106	-1.70741484	-56.49938838
2.58	258	0.059	-0.997	-0.245	-1.9480572	-6.6463128	-2.4637194	79.09112232	-1.6902261	-56.56814334
2.59	259	0.057	-0.979	-0.204	-1.2032118	-10.5424272	-0.6302538	79.08539274	-1.70168526	-56.67127578
2.6	260	0.058	-0.982	-0.192	-1.9480572	-12.6623718	0	79.05674484	-1.67303736	-56.7801378
2.61	261	0.06	-0.99	-0.183	-3.5523396	-13.9228794	-0.286479	79.02809694	-1.69595568	-56.91764772
2.62	262	0.05	-0.99	-0.174	-5.0420304	-15.0114996	-0.859437	78.9822603	-1.71314442	-57.0666168
2.63	263	0.04	-0.984	-0.156	-5.9014674	-16.7876694	-1.718874	78.93069408	-1.72460358	-57.23277462
2.64	264	0.031	-0.968	-0.134	-6.4171296	-20.5691922	-2.2345362	78.87339828	-1.73606274	-57.4390395
2.65	265	0.033	-0.944	-0.115	-7.161975	-24.923673	-2.1772404	78.81610248	-1.74179232	-57.68541144
2.66	266	0.049	-0.922	-0.104	-7.161975	-28.7624916	-1.5469866	78.75880668	-1.7761698	-57.97189044
2.67	267	0.071	-0.906	-0.079	-5.6722842	-32.5440144	-1.5469866	78.71297004	-1.81054728	-58.29274692
2.68	268	0.086	-0.903	-0.064	-4.6982556	-35.1223254	-2.1772404	78.68432214	-1.85065434	-58.63652172
2.69	269	0.091	-0.903	-0.046	-3.6669312	-38.674665	-2.9220858	78.66140382	-1.88503182	-59.02040358
2.7	270	0.093	-0.907	-0.034	-3.0939732	-42.1697088	-3.3231564	78.6671334	-1.90795014	-59.43293334
2.71	271	0.087	-0.909	-0.028	-3.151269	-44.7480198	-3.0366774	78.65567424	-1.9480572	-59.87984058
2.72	272	0.076	-0.906	-0.023	-3.3231564	-46.5241896	-2.2345362	78.64421508	-2.005353	-60.33820698
2.73	273	0.061	-0.902	-0.023	-4.297185	-48.0138804	-1.4896908	78.62129676	-2.07410796	-60.80803254
2.74	274	0.043	-0.908	-0.022	-5.9014674	-49.9619376	-0.9740286	78.58691928	-2.1485925	-61.29504684
2.75	275	0.011	-0.902	-0.027	-7.2192708	-52.8840234	-0.9740286	78.55827138	-2.22307704	-61.81643862
2.76	276	0.007	-0.909	-0.025	-8.7662574	-56.0925882	-0.9167328	78.495246	-2.30902074	-62.3664783
2.77	277	0.009	-0.907	-0.036	-10.7716104	-59.5303362	-0.9167328	78.42076146	-2.40069402	-62.94516588
2.78	278	0.021	-0.908	-0.042	-11.9175264	-62.738901	-1.0886202	78.33481776	-2.50382646	-63.56396052
2.79	279	0.048	-0.911	-0.036	-13.2926256	-66.176649	-1.3178034	78.2374149	-2.6069589	-64.21140306
2.8	280	0.076	-0.903	-0.035	-13.8655836	-70.187355	-1.7761698	78.14574162	-2.69863218	-64.89895266
2.81	281	0.085	-0.893	-0.009	-12.7769634	-74.5418358	-2.578311	78.05979792	-2.8074942	-65.6323389
2.82	282	0.069	-0.876	0.019	-10.7143146	-78.3233586	-3.724227	78.00250212	-2.91062664	-66.40010262
2.83	283	0.021	-0.866	0.023	-7.5630456	-80.9589654	-4.7555514	77.97385422	-3.01375908	-67.20224382
2.84	284	-0.029	-0.855	0.034	-4.6409598	-81.1881486	-5.443101	77.98531338	-3.10543236	-68.00438502
2.85	285	-0.078	-0.843	0.054	-0.8021412	-79.4692746	-6.0733548	78.04833876	-3.19137606	-68.79506706
2.86	286	-0.107	-0.832	0.073	4.1252976	-75.1720896	-6.589017	78.14001204	-3.26013102	-69.53991246
2.87	287	-0.125	-0.833	0.097	9.453807	-69.1560306	-6.8182002	78.28325154	-3.31169724	-70.22746206
2.88	288	-0.123	-0.839	0.112	13.8655836	-63.0826758	-6.5317212	78.47232768	-3.35753388	-70.85198628
2.89	289	-0.096	-0.852	0.119	17.8189938	-58.5563076	-5.9014674	78.6957813	-3.39764094	-71.43640344
2.9	290	-0.062	-0.877	0.116	21.485925	-55.4623344	-4.5263682	78.97653072	-3.44347758	-71.98644312
2.91	291	-0.035	-0.908	0.115	24.2934192	-52.998615	-2.9220858	79.26300972	-3.4950438	-72.5078349
2.92	292	-0.017	-0.936	0.129	24.923673	-52.5975444	-1.2605076	79.5552183	-3.56379876	-73.0234971
2.93	293	-0.002	-0.961	0.144	24.2934192	-53.858052	0.572958	79.8416973	-3.64401288	-73.54488888
2.94	294	0.003	-0.989	0.134	22.91832	-55.9207008	2.3491278	80.11671714	-3.74714532	-74.08919898
2.95	295	0.005	-1.027	0.131	20.2254174	-56.3790672	3.0366774	80.39173698	-3.85027776	-74.63923866
2.96	296	-0.008	-1.074	0.144	16.7303736	-55.1758554	2.291832	80.60373144	-3.94195104	-75.1720896
2.97	297	-0.051	-1.147	0.115	13.1207382	-52.8267276	0.6875496	80.78134842	-4.02216516	-75.6877518
2.98	298	-0.135	-1.239	0.066	6.3598338	-47.4982182	-2.6356068	80.88448086	-4.05654264	-76.15757736
2.99	299	-0.226	-1.317	-0.024	0.8021412	-36.0390582	-7.6776372	80.92458792	-4.02789474	-76.52427048
3	300	-0.33	-1.405	-0.172	1.5469866	-19.8243468	-14.7250206	80.9589654	-3.91330314	-76.7477241
3.01	301	-0.445	-1.494	-0.157	1.6615782	2.6356068	-25.210152	80.97615414	-3.6669312	-76.75918326
3.02	302	-0.547	-1.475	-0.095	-2.1199446	24.1215318	-33.4607472	80.94177666	-3.30596766	-76.57010712
3.03	303	-0.559	-1.376	-0.176	-5.0420304	41.539455	-34.2628884	80.86156254	-2.91635622	-76.21487316
3.04	304	-0.478	-1.291	-0.251	-2.1772404	54.2018268	-30.1948866	80.80999632	-2.5496631	-75.73358844
3.05	305	-0.324	-1.186	-0.304	5.5003968	56.0925882	-24.350715	80.82718506	-2.24599536	-75.22365582
3.06	306	-0.157	-1.128	-0.285	17.5325148	50.5921914	-14.1520626	80.98188372	-2.03973048	-74.74810068
3.07	307	0.005	-1.12	-0.212	29.7365202	43.3729206	-4.6982556	81.26263314	-1.93659804	-74.32411176
3.08	308	0.153	-1.155	-0.143	34.2055926	37.3568616	3.0939732	81.59494878	-1.9194093	-73.95168906
3.09	309	0.261	-1.187	-0.145	31.6845774	29.8511118	9.6256944	81.89861652	-1.9767051	-73.63656216
3.1	310	0.319	-1.182	-0.182	30.7678446	17.7044022	14.4958374	82.20228426	-2.06837838	-73.43602686
3.11	311	0.331	-1.136	-0.151	32.5440144	3.2085648	17.8762896	82.52887032	-2.24026578	-73.37300148
3.12	312	0.31	-1.058	-0.109	31.0543236	-9.3965112	19.8816426	82.8497268	-2.44080108	-73.44175644
3.13	313	0.273	-0.952	-0.131	28.5333084	-19.7097552	20.7410796	83.14766496	-2.65852512	-73.60791426
3.14	314	0.22	-0.851	-0.161	27.6738714	-30.8251404	19.7097552	83.44560312	-2.88197874	-73.8829341
3.15	315	0.14	-0.772	-0.184	26.5279554	-43.6021038	17.18874	83.73208212	-3.07105488	-74.28973428
3.16	316	0.056	-0.712	-0.192	24.9809688	-52.3683612	14.610429	84.01856112	-3.25440144	-74.78820774
3.17	317	-0.02	-0.679	-0.195	24.0069402	-56.7801378	12.8342592	84.30504012	-3.42055926	-75.33251784
3.18	318	-0.085	-0.678	-0.211	23.9496444	-57.1239126	11.3445684	84.59151912	-3.56952834	-75.8882871
3.19	319	-0.146	-0.704	-0.232	24.0069402	-54.0299394	9.3965112	84.87226854	-3.6955791	-76.40967888
3.2	320	-0.207	-0.745	-0.244	24.2361234	-47.8992888	7.1046792	85.13582922	-3.8101707	-76.87377486
3.21	321	-0.255	-0.786	-0.254	25.0382646	-40.2216516	4.9847346	85.42230822	-3.87892566	-77.26911588
3.22	322	-0.299	-0.825	-0.243	26.2987722	-31.0543236	3.7815228	85.7145168	-3.9247623	-77.56705404
3.23	323	-0.307	-0.854	-0.216	28.4760126	-19.0222056	4.2398892	86.01818454	-3.97632852	-77.7504006
3.24	324	-0.293	-0.886	-0.187	31.51269	-9.167328	5.9587632	86.3447706	-4.03362432	-77.8363443
3.25	325	-0.259	-0.922	-0.174	34.5493674	-1.0886202	8.1932994	86.67708624	-4.14821592	-77.84207388
3.26	326	-0.22	-0.959	-0.157	36.7266078	4.1825934	10.6570188	87.04377936	-4.24561878	-77.79050766
3.27	327	-0.177	-1	-0.134	37.8725238	6.7609044	12.891555	87.42193164	-4.37166954	-77.71029354
3.28	328	-0.137	-1.033	-0.122	37.815228	6.7609044	14.5531332	87.80008392	-4.51490904	-77.635809
3.29	329	-0.095	-1.03	-0.119	38.0444112	4.2398892	15.0687954	88.1782362	-4.65814854	-77.58424278
3.3	330	-0.071	-1.015	-0.096	38.7319608	-0.5156622	13.5791046	88.56211806	-4.7841993	-77.5785132
3.31	331	-0.06	-0.999	-0.059	39.0757356	-6.7036086	10.5424272	88.96318866	-4.88733174	-77.64153858
3.32	332	-0.068	-0.992	-0.018	38.388186	-11.5737516	6.589017	89.36425926	-4.95035712	-77.7504006
3.33	333	-0.07	-0.98	0.03	37.24227	-14.0947668	2.0626488	89.75960028	-4.96181628	-77.88218094
3.34	334	-0.076	-0.965	0.05	36.8984952	-15.9282324	-2.005353	90.14921172	-4.93316838	-78.0368796
3.35	335	-0.075	-0.959	0.074	37.0703826	-16.8449652	-4.9274388	90.55028232	-4.87587258	-78.20303742
3.36	336	-0.078	-0.967	0.072	35.6952834	-17.6471064	-5.7868758	90.9284346	-4.80711762	-78.37492482
3.37	337	-0.092	-0.975	0.07	34.2055926	-19.1367972	-5.0993262	91.29512772	-4.74409224	-78.55827138
3.38	338	-0.119	-0.977	0.08	33.9191136	-21.0275586	-3.7815228	91.65609126	-4.69252602	-78.75880668
3.39	339	-0.139	-0.979	0.089	34.2055926	-23.3193906	-2.3491278	92.02278438	-4.65241896	-78.98798988
3.4	340	-0.158	-0.956	0.097	31.8564648	-24.6944898	-1.718874	92.37801834	-4.62950064	-79.23436182
3.41	341	-0.187	-0.927	0.105	31.0543236	-24.0069402	-2.6356068	92.71606356	-4.583664	-79.46354502
3.42	342	-0.207	-0.891	0.112	30.9970278	-21.0275586	-4.583664	93.0483792	-4.52063862	-79.66408032
3.43	343	-0.213	-0.863	0.118	33.2888598	-17.3033316	-6.4171296	93.40361316	-4.4404245	-79.83023814
3.44	344	-0.206	-0.846	0.149	37.528749	-14.896908	-7.3911582	93.7932246	-4.34875122	-79.96774806
3.45	345	-0.183	-0.838	0.163	41.4248634	-12.4331886	-7.448454	94.24013184	-4.27426668	-80.08806924
3.46	346	-0.163	-0.826	0.18	45.2063862	-11.3445684	-7.3338624	94.70422782	-4.18832298	-80.1854721
3.47	347	-0.151	-0.794	0.228	49.1025006	-10.4851314	-8.2505952	95.21416044	-4.09092012	-80.27714538
3.48	348	-0.154	-0.762	0.27	53.5142772	-10.313244	-10.4851314	95.76420012	-3.97059894	-80.36308908
3.49	349	-0.167	-0.721	0.273	54.0872352	-7.3911582	-14.2666542	96.3142398	-3.81590028	-80.4146553
3.5	350	-0.175	-0.699	0.248	53.3996856	-0.7448454	-17.9335854	96.87000906	-3.64974246	-80.39746656
3.51	351	-0.188	-0.69	0.246	52.8840234	8.0787078	-21.5432208	97.39713042	-3.44347758	-80.28287496
3.52	352	-0.179	-0.698	0.242	53.3423898	18.048177	-24.9809688	97.92425178	-3.22575354	-80.0708805
3.53	353	-0.149	-0.699	0.248	53.6288688	24.2934192	-27.1009134	98.45137314	-2.99657034	-79.7844015
3.54	354	-0.111	-0.693	0.357	54.9466722	25.9549974	-27.788463	98.98995366	-2.76738714	-79.48073376
3.55	355	-0.041	-0.69	0.618	53.9726436	30.2521824	-27.6165756	99.55718208	-2.5496631	-79.14268854
3.56	356	0.025	-0.682	0.707	48.8733174	36.6120162	-25.5539268	100.0327372	-2.36631654	-78.73588836
3.57	357	0.098	-0.707	0.615	41.3675676	36.2682414	-21.4286292	100.4280782	-2.22880662	-78.34054734
3.58	358	0.196	-0.823	0.337	27.9603504	27.9030546	-15.9855282	100.6973685	-2.13140376	-78.0368796
3.59	359	0.32	-0.957	0.097	6.4171296	11.0007936	-9.740286	100.7603939	-2.05691922	-77.91082884
3.6	360	0.417	-1.028	-0.007	-13.5791046	-18.1054728	-5.3858052	100.5999656	-1.90222056	-78.05979792
3.61	361	0.426	-1.074	-0.025	-19.6524594	-44.5188366	-5.6722842	100.4166191	-1.75898106	-78.48378684
3.62	362	0.313	-1.093	-0.01	-17.5898106	-57.5249832	-13.8655836	100.2619204	-1.50687954	-79.01663778
3.63	363	0.074	-1.023	0.005	-3.6669312	-58.6136034	-27.5592798	100.2447317	-1.1172681	-79.53802956
3.64	364	-0.082	-0.937	-0.058	6.4171296	-46.696077	-32.5440144	100.3192162	-0.70473834	-79.927641
3.65	365	-0.224	-0.873	-0.128	22.91832	-41.1956802	-28.9916748	100.5369403	-0.35523396	-80.27714538
3.66	366	-0.319	-0.912	-0.035	45.7220484	-38.101707	-21.5432208	101.0067658	-0.06302538	-80.59800186
3.67	367	-0.3	-1.014	0.066	63.8275212	-37.1276784	-11.45916	101.6599379	0.12605076	-80.92458792
3.68	368	-0.195	-1.098	0.443	77.1774426	-43.258329	-3.3231564	102.45062	0.26356068	-81.32565852
3.69	369	-0.022	-1.228	0.797	80.21412	-45.550161	-1.9480572	103.2642203	0.4010706	-81.74391786
3.7	370	0.13	-1.364	0.77	59.1865614	-40.5654264	-1.718874	103.8772854	0.52712136	-82.12207014
3.71	371	0.225	-1.394	0.746	19.194093	-36.8411994	1.3178034	104.0720911	0.61879464	-82.47157452
3.72	372	0.225	-1.36	0.598	-9.7975818	-36.4974246	4.1825934	103.9746883	0.67036086	-82.83253806
3.73	373	0.195	-1.304	0.341	-26.356068	-33.6326346	7.3911582	103.705398	0.6875496	-83.17058328
3.74	374	0.165	-1.159	0.147	-28.7051958	-37.5860448	12.0894138	103.418919	0.66463128	-83.5659243
3.75	375	0.149	-0.979	0.08	-25.496631	-52.8267276	16.3865988	103.1438992	0.65317212	-84.10450482
3.76	376	0.204	-0.725	0.061	-26.356068	-73.1667366	17.8762896	102.8803385	0.66463128	-84.84935022
3.77	377	0.271	-0.504	0.061	-24.9809688	-94.9391406	15.9855282	102.628237	0.73911582	-85.8004605
3.78	378	0.314	-0.49	0.064	-25.3247436	-110.4663024	13.0634424	102.3704059	0.87662574	-86.8890807
3.79	379	0.33	-0.684	0.109	-22.91832	-118.315827	13.178034	102.1297635	1.02559482	-88.05791502
3.8	380	0.234	-0.913	0.196	-16.2720072	-119.8055178	17.18874	101.9578761	1.15164558	-89.24393808
3.81	381	0.065	-1.017	0.188	-10.886202	-116.7115446	23.7204612	101.8432845	1.18602306	-90.41850198
3.82	382	-0.107	-0.95	0.046	-7.3911582	-110.9819646	30.1375908	101.7573408	1.145916	-91.54722924
3.83	383	-0.211	-0.694	-0.095	9.3392154	-102.3302988	34.1482968	101.8490141	1.04851314	-92.60147196
3.84	384	-0.241	-0.447	-0.151	40.393539	-94.5953658	33.1169724	102.2500847	0.95111028	-93.57550056
3.85	385	-0.273	-0.431	-0.392	48.1857678	-103.3043274	30.5386614	102.7141807	0.89381448	-94.6240137
3.86	386	-0.249	-0.282	0.32	31.1689152	-126.2226474	24.1788276	103.0293076	0.96829902	-95.8845213
3.87	387	-0.067	-0.234	0.802	2.4064236	-106.0545258	9.3965112	103.0464963	1.145916	-96.9158457
3.88	388	0.208	-0.278	0.595	0.5156622	-76.489893	3.6096354	103.0464963	1.30061466	-97.6606911
3.89	389	0.14	-0.369	0.69	15.5271618	-66.176649	6.589017	103.201195	1.4037471	-98.30240406
3.9	390	-0.08	-0.501	0.67	24.637194	-50.4775998	7.734933	103.4934035	1.43812458	-98.81233668
3.91	391	-0.208	-0.583	0.469	33.0023808	-39.3049188	8.0787078	103.8257192	1.46677248	-99.20194812
3.92	392	-0.218	-0.726	0.267	33.3461556	-28.2468294	8.59437	104.1580348	1.4610429	-99.48842712
3.93	393	-0.211	-0.945	0.045	28.5906042	-28.074942	9.6829902	104.4502434	1.44385416	-99.77490612
3.94	394	-0.229	-1.253	-0.135	22.1161788	-37.9871154	11.45916	104.6679674	1.43812458	-100.158788
3.95	395	-0.131	-1.495	-0.239	16.3865988	-42.6280752	10.7716104	104.8169365	1.45531332	-100.5885065
3.96	396	0.003	-1.599	-0.106	23.1475032	-45.3209778	6.1879464	105.0461197	1.52406828	-101.0296841
3.97	397	0.078	-1.63	0.017	31.5699858	-42.5707794	-2.9793816	105.3612466	1.67303736	-101.4250252
3.98	398	0.04	-1.518	0.101	41.6540466	-30.8824362	-15.0114996	105.779506	1.90795014	-101.6713971
3.99	399	-0.153	-1.419	0.189	53.5142772	-17.8189938	-23.0329116	106.3238161	2.18869956	-101.7688
4	400	-0.403	-1.34	0.25	65.2026204	-7.6776372	-26.0122932	106.9827178	2.44080108	-101.7573408
4.01	401	-0.6	-1.231	0.362	79.927641	2.578311	-27.4446882	107.7963181	2.69863218	-101.6427492
4.02	402	-0.615	-1.145	0.437	94.4807742	12.8342592	-29.793816	108.7646171	2.93927454	-101.413566
4.03	403	-0.512	-1.121	0.509	102.5021862	15.5844576	-33.2888598	109.8131303	3.20283522	-101.1442757
4.04	404	-0.412	-1.154	0.465	104.9659056	9.740286	-34.2055926	110.8902913	3.48931422	-100.9208221
4.05	405	-0.287	-1.197	0.395	108.4036536	2.9220858	-33.9191136	111.9961003	3.7815228	-100.7603939
4.06	406	-0.113	-1.234	0.371	112.872726	-0.4010706	-34.663959	113.1534754	4.10237928	-100.6114248
4.07	407	0.072	-1.237	0.366	115.451037	-4.4690724	-37.2995658	114.3337689	4.46334282	-100.485374
4.08	408	0.158	-1.167	0.432	115.9666992	-8.880849	-41.5967508	115.519792	4.88160216	-100.376512
4.09	409	0.154	-1.082	0.426	116.0812908	-12.032118	-46.5241896	116.7115446	5.3571573	-100.2561908
4.1	410	0.116	-0.99	0.447	114.0759378	-13.6936962	-51.4516284	117.8803789	5.87854908	-100.1244105
4.11	411	0.085	-0.883	0.573	112.8154302	-13.9801752	-55.1758554	119.0434837	6.42858876	-99.96398226
4.12	412	0.02	-0.802	0.515	110.007936	-17.3606274	-56.3217714	120.1779405	7.00727634	-99.81501318
4.13	413	-0.099	-0.748	0.3	106.2264132	-28.3041252	-53.8007562	121.2665607	7.61461182	-99.76344696
4.14	414	-0.19	-0.706	0.191	103.418919	-37.4714532	-49.274388	122.3150738	8.23340646	-99.80355402
4.15	415	-0.194	-0.659	0.135	100.4395374	-38.674665	-45.6647526	123.3177503	8.81782362	-99.86084982
4.16	416	-0.131	-0.591	0.062	97.5747474	-36.7266078	-43.3729206	124.3032381	9.38505204	-99.90095688
4.17	417	-0.025	-0.462	0.151	95.6266902	-38.961144	-43.7166954	125.2715371	9.9694692	-99.94679352
4.18	418	0.126	-0.323	0.293	93.2775624	-49.3316838	-46.696077	126.2054587	10.64555964	-100.0556555
4.19	419	0.228	-0.183	0.371	89.4960396	-61.4783934	-51.3370368	127.087814	11.42478252	-100.2160838
4.2	420	0.281	-0.091	0.324	82.8497268	-64.5150708	-55.7488134	127.9186031	12.27848994	-100.3593233
4.21	421	0.321	-0.024	0.284	71.9635248	-62.6816052	-57.7541664	128.629071	13.12646778	-100.4739149
4.22	422	0.308	0.012	0.24	60.7908438	-58.6708992	-55.1185596	129.2364065	13.92860898	-100.5598586
4.23	423	0.17	-0.013	0.111	48.7587258	-52.139178	-46.8679644	129.7119616	14.62761774	-100.6515319
4.24	424	-0.11	-0.1	-0.038	37.4141574	-40.680018	-34.37748	130.0786547	15.1547391	-100.731746
4.25	425	-0.389	-0.19	-0.076	25.6112226	-23.8350528	-22.8037284	130.3135675	15.43548852	-100.7661235
4.26	426	-0.552	-0.297	-0.101	17.3033316	-3.724227	-13.3499214	130.5083732	15.5558097	-100.7030981
4.27	427	-0.565	-0.355	-0.153	12.2613012	13.4072172	-11.9748222	130.6802606	15.56153928	-100.5197515
4.28	428	-0.47	-0.321	-0.203	7.5630456	16.8449652	-16.8449652	130.8177706	15.57299844	-100.2733796
4.29	429	-0.337	-0.212	-0.228	-0.0572958	9.9121734	-24.0069402	130.8807959	15.68759004	-100.0384668
4.3	430	-0.146	-0.026	-0.288	2.4637194	-2.6356068	-32.372127	130.9380917	15.95115072	-99.8379315
4.31	431	0.105	0.14	-0.351	16.7303736	-23.1475032	-40.2216516	131.138627	16.40378754	-99.73479906
4.32	432	0.301	0.234	-0.245	30.366774	-37.1849742	-41.3675676	131.4537539	16.96528638	-99.72906948
4.33	433	0.471	0.213	0.039	34.2055926	-33.5753388	-35.236917	131.8032583	17.45230068	-99.73479906
4.34	434	0.556	0.135	-0.011	13.8655836	-29.507337	-27.1009134	131.9407682	17.85337128	-99.76344696
4.35	435	0.591	0.074	-0.158	3.4950438	-37.3568616	-22.1734746	131.9235795	18.32892642	-99.88376814
4.36	436	0.564	-0.079	-0.206	1.3750992	-52.5402486	-19.6524594	131.8662837	18.83312946	-100.1415992
4.37	437	0.385	-0.251	-0.264	-1.7761698	-76.6617804	-20.2254174	131.711585	19.50349032	-100.5827769
4.38	438	0.119	-0.426	-0.053	0.6875496	-92.4181254	-21.3713334	131.5396976	20.28844278	-101.1442757
4.39	439	0.016	-0.555	0.137	-12.891555	-82.8497268	-19.5378678	131.2417595	20.99318112	-101.6484788
4.4	440	-0.035	-0.587	0.221	-26.1841806	-78.208767	-15.4125702	130.7833931	21.60624618	-102.1584114
4.41	441	-0.288	-0.665	0.182	-32.2575354	-71.5624542	-12.6623718	130.2849196	22.17920418	-102.6396961
4.42	442	-0.342	-0.662	0.18	-28.361421	-62.3951262	-16.4438946	129.8552011	22.71205512	-103.0293076
4.43	443	-0.051	-0.706	0.127	-18.5638392	-53.9726436	-21.8869956	129.5629925	23.2334469	-103.3157866
4.44	444	0.375	-0.921	-0.172	-22.5745452	-39.247623	-29.0489706	129.2879727	23.70900204	-103.4418373
4.45	445	0.762	-1.106	0.025	-25.78311	-2.0626488	-50.3057124	129.1390036	24.12726138	-103.1152513
4.46	446	0.824	-1.22	0.429	7.0473834	52.712136	-87.5479824	129.6317475	24.45384744	-102.0781973
4.47	447	0.227	-1.334	0.909	44.2323576	115.5656286	-117.3990942	130.7948522	24.5798982	-100.3077571
4.48	448	-0.449	-1.652	1.725	73.2240324	179.1639666	-98.262297	132.3991346	24.0928839	-98.16489414
4.49	449	-0.763	-3.645	1.729	99.5228046	197.8423974	65.6609868	133.7971522	22.24222956	-97.12784016
4.5	450	1.96	-0.8	3.005	536.8043502	480.3106914	-176.7002472	140.9018314	19.92174966	-92.24050842
4.51	451	2.899	2.524	2.975	1035.048627	123.0140826	-359.7030324	152.7792507	20.67805422	-88.2068841
4.52	452	2.19	-1.866	1.463	-40.3362432	193.659804	-7.9068204	152.6703887	18.9935577	-87.25004424
4.53	453	1.989	-1.14	2.963	141.9789924	70.5884256	-35.8671708	154.3147781	18.51227298	-86.57968338
4.54	454	2.252	-0.853	3.587	187.2999702	-13.750992	-44.8626114	156.3430495	18.80448156	-86.18434236
4.55	455	1.154	-0.544	2.796	209.5880364	14.9542038	-45.8939358	158.640611	18.82739988	-85.657221
4.56	456	0.904	-0.315	2.66	209.2442616	9.9121734	-45.6074568	160.9267135	18.87323652	-85.14728838
4.57	457	0.486	-0.103	2.163	189.7636896	47.3836266	-46.8106686	163.0466581	18.54665046	-84.52276416
4.58	458	0.255	0.095	1.888	161.3449728	86.4020664	-52.3683612	164.9087716	17.8476417	-83.74927086
4.59	459	0.326	0.219	1.789	138.1401738	109.5495696	-45.7793442	166.513054	16.89080184	-83.02734378
4.6	460	0.262	0.142	1.633	112.586247	124.7902524	-40.8519054	167.8365869	15.756345	-82.35125334
4.61	461	0.28	-0.054	1.543	97.40286	128.342592	-32.2002396	168.953855	14.55886278	-81.7897545
4.62	462	0.445	-0.174	1.384	85.4853336	117.5709816	-20.05353	169.8992357	13.44159468	-81.3886839
4.63	463	0.292	-0.245	1.506	79.6984578	109.434978	-13.2926256	170.7586727	12.38162238	-81.09074574
4.64	464	0.248	-0.359	1.484	89.7825186	114.305121	-14.5531332	171.7212422	11.27581344	-80.79280758
4.65	465	0.21	-0.275	1.523	116.4250656	111.6695142	-23.8350528	172.9531019	10.19292282	-80.42038488
4.66	466	0.358	-0.085	1.471	139.8590478	108.9766116	-33.2888598	174.4313335	9.14440968	-79.9849368
4.67	467	0.003	0.237	1.206	123.5297448	110.4090066	-32.2002396	175.7262186	8.06724864	-79.58959578
4.68	468	0.085	0.255	1.196	100.26765	123.3578574	-39.9924684	176.7861909	6.85830726	-79.13122938
4.69	469	0.044	0.151	1.066	91.7305758	137.1088494	-45.6647526	177.7544899	5.51758554	-78.64421508
4.7	470	-0.023	0.015	0.944	88.0063488	144.0416412	-44.117766	178.6654931	4.09092012	-78.19157826
4.71	471	0.143	-0.049	0.838	80.3860074	144.9010782	-39.6486936	179.4848231	2.65279554	-77.8076964
4.72	472	0.144	0.042	0.769	82.792431	137.7391032	-10.7143146	-179.6853584	1.28342592	-77.72748228
4.73	473	-0.027	-0.293	0.902	74.5991316	132.1241148	13.4072172	-178.9462426	-0.02291832	-77.91082884
4.74	474	0.08	-0.013	0.762	44.9199072	134.8743132	32.658606	-178.5050649	-1.35218088	-78.2947107
4.75	475	0.016	0.066	0.739	35.3515086	126.1080558	46.5241896	-178.1555605	-2.58404058	-78.82756164
4.76	476	0.026	0.115	0.708	11.745639	118.029348	46.2377106	-178.0237802	-3.73568616	-79.354683
4.77	477	0.035	0.191	0.716	8.4797784	104.3929476	39.820581	-177.9149182	-4.74982182	-79.81877898
4.78	478	-0.004	0.372	0.741	1.9480572	91.8451674	28.6479	-177.8748111	-5.64936588	-80.16255378
4.79	479	-0.054	0.24	0.793	2.1199446	83.3080932	17.2460358	-177.8404336	-6.46296624	-80.3860074
4.8	480	-0.097	0.144	0.786	-2.578311	78.3233586	7.9641162	-177.8461632	-7.23072996	-80.51778774
4.81	481	-0.112	0.207	0.775	-6.0733548	72.6510744	0.572958	-177.9149182	-7.94692746	-80.57508354
4.82	482	-0.119	0.161	0.747	-9.9694692	64.3431834	-10.599723	-178.0352393	-8.58864042	-80.50632858
4.83	483	-0.122	0.145	0.746	-14.32395	60.3897732	-17.475219	-178.2071267	-9.19024632	-80.36881866
4.84	484	-0.132	0.182	0.757	-22.2307704	56.8947294	-22.4026578	-178.4706874	-9.75174516	-80.17974252
4.85	485	-0.181	0.14	0.762	-20.4546006	53.571573	-26.2987722	-178.7056002	-10.29605526	-79.95055932
4.86	486	-0.237	0.171	0.816	-15.9282324	50.420304	-24.2361234	-178.9175947	-10.8002583	-79.73283528
4.87	487	-0.254	0.146	0.835	-16.1574156	44.9199072	-21.4286292	-179.1238595	-11.24716554	-79.53802956
4.88	488	-0.239	0.201	0.844	-22.2307704	33.6326346	-20.3973048	-179.3931498	-11.57948118	-79.34322384
4.89	489	-0.234	0.209	0.862	-35.2942128	23.5485738	-20.340009	-179.7942204	-11.80866438	-79.14841812
4.9	490	-0.28	0.161	0.854	-60.447069	9.1100322	-20.1108258	179.5593076	-11.90606724	-78.95934198
4.91	491	-0.297	0.139	0.819	-75.8023434	-2.005353	-17.9335854	178.7571664	-11.87741934	-78.78745458
4.92	492	-0.246	0.13	0.809	-83.651868	-10.886202	-14.896908	177.8805407	-11.75709816	-78.64421508
4.93	493	-0.232	0.092	0.92	-85.084263	-24.923673	-11.172681	176.9981854	-11.49926706	-78.54108264
4.94	494	-0.221	0.06	1.035	-78.8963166	-35.0077338	-7.5057498	176.1903146	-11.13830352	-78.48378684
4.95	495	-0.212	0.05	1.103	-68.9841432	-39.820581	-4.6409598	175.502765	-10.73150334	-78.46086852
4.96	496	-0.201	0.084	1.156	-55.5196302	-38.7892566	-2.4064236	174.9412661	-10.3418919	-78.4665981
4.97	497	-0.194	0.082	1.191	-44.0604702	-35.9817624	-1.432395	174.5000885	-9.98092836	-78.47805726
4.98	498	-0.205	-0.079	1.139	-33.9764094	-33.8618178	-1.7761698	174.1620433	-9.64288314	-78.48378684
4.99	499	-0.216	-0.225	1.091	-28.361421	-41.7686382	-1.145916	173.8870234	-9.2246238	-78.50670516
5	500	-0.239	-0.208	1.099	-20.7983754	-52.5975444	1.0313244	173.6807585	-8.71469118	-78.56400096
5.01	501	-0.202	-0.09	1.133	-12.5477802	-59.587632	3.437748	173.5776261	-8.12454444	-78.64994466
5.02	502	-0.171	0.053	1.221	-0.9740286	-59.3584488	4.7555514	173.5890853	-7.54585686	-78.74734752
5.03	503	-0.184	0.048	1.248	9.3392154	-54.3164184	5.2712136	173.7036769	-7.0187355	-78.84475038
5.04	504	-0.186	0.014	1.19	16.042824	-47.3263308	5.3285094	173.8812938	-6.5603691	-78.93069408
5.05	505	-0.149	0.003	1.092	15.8136408	-42.5134836	3.3804522	174.0760996	-6.14783934	-79.00517862
5.06	506	-0.16	-0.018	1.024	6.0733548	-41.1383844	-0.4010706	174.1448545	-5.74676874	-79.02809694
5.07	507	-0.131	0.071	0.97	-6.016059	-37.6433406	-4.2398892	174.0875587	-5.36861646	-79.01663778
5.08	508	-0.069	0.037	0.85	-24.8090814	-30.3094782	-9.2819196	173.8297276	-5.05921914	-78.94788282
5.09	509	-0.045	-0.077	0.771	-36.8984952	-19.5378678	-13.6364004	173.4515753	-4.84722468	-78.83329122
5.1	510	-0.052	-0.083	0.761	-35.3515086	-5.2712136	-12.5477802	173.0791526	-4.77274014	-78.71297004
5.11	511	-0.113	-0.11	0.79	-24.064236	6.6463128	-8.4797784	172.8270511	-4.82430636	-78.62702634
5.12	512	-0.097	-0.067	0.897	-5.443101	8.4224826	-3.2085648	172.7640257	-4.90452048	-78.58691928
5.13	513	-0.065	-0.087	0.982	5.443101	1.0886202	0.7448454	172.8213215	-4.91597964	-78.59264886
5.14	514	-0.049	-0.032	1.013	9.740286	-11.172681	2.1199446	172.924454	-4.80711762	-78.62129676
5.15	515	-0.075	0.002	1.023	5.72958	-16.902261	2.86479	173.0447752	-4.64668938	-78.67859256
5.16	516	-0.084	-0.006	1.017	0.4010706	-19.9962342	2.9793816	173.0562343	-4.45188366	-78.7244292
5.17	517	-0.091	-0.004	1.019	-4.4690724	-22.91832	2.86479	173.0161273	-4.22843004	-78.77599542
5.18	518	-0.094	-0.013	1.02	-8.4797784	-25.6112226	2.578311	172.9359131	-3.9820581	-78.82756164
5.19	519	-0.107	-0.072	1.022	-11.8602306	-27.501984	2.291832	172.8213215	-3.71276784	-78.87912786
5.2	520	-0.095	-0.077	1.03	-13.8655836	-28.0176462	1.6615782	172.7010004	-3.44347758	-78.9249645
5.21	521	-0.058	0.013	1.033	-14.7823164	-26.8144344	1.6042824	172.5577609	-3.1799169	-78.97080114
5.22	522	-0.058	-0.02	1.035	-16.9595568	-22.058883	1.3750992	172.391603	-2.96219286	-79.00517862
5.23	523	-0.075	-0.055	1.031	-16.3865988	-17.2460358	0.9167328	172.2254452	-2.79030546	-79.03382652
5.24	524	-0.087	-0.042	1.031	-14.7823164	-12.4904844	0.8021412	172.0822057	-2.66998428	-79.06247442
5.25	525	-0.076	-0.041	1.039	-12.5477802	-8.307891	0.4010706	172.0019916	-2.60122932	-79.08539274
5.26	526	-0.074	-0.05	1.045	-10.2559482	-5.2139178	0.1718874	171.8988592	-2.5496631	-79.09112232
5.27	527	-0.079	-0.051	1.04	-7.734933	-3.0939732	0.0572958	171.818645	-2.51528562	-79.0968519
5.28	528	-0.083	-0.046	1.035	-5.3285094	-2.2345362	0	171.7670788	-2.4923673	-79.10258148
5.29	529	-0.075	-0.042	1.024	-3.724227	-1.8907614	0.0572958	171.7269718	-2.47517856	-79.10258148
5.3	530	-0.07	-0.037	1.01	-2.6929026	-1.9480572	0.1145916	171.9103183	-2.53247436	-79.14841812
5.31	531	-0.074	-0.042	1.006	-2.3491278	-1.9480572	0.1718874	171.8874	-2.50955604	-79.1541477
5.32	532	-0.069	-0.041	1.002	-2.0626488	-1.6042824	0.1718874	171.8644817	-2.49809688	-79.15987728
5.33	533	-0.068	-0.033	1.004	-1.6042824	-1.3750992	0.286479	171.8472929	-2.48090814	-79.15987728
5.34	534	-0.067	-0.032	1.014	-1.3178034	-0.8021412	0.4010706	171.8358338	-2.47517856	-79.16560686
5.35	535	-0.066	-0.034	1.03	-1.145916	0	0.4010706	172.242634	-2.57258142	-79.24582098
5.36	536	-0.066	-0.039	1.033	-0.859437	0.9167328	0.3437748	172.2311748	-2.58404058	-79.24582098
5.37	537	-0.07	-0.037	1.027	-0.2291832	1.432395	0.4583664	172.2311748	-2.59549974	-79.25155056
5.38	538	-0.075	-0.046	1.017	1.718874	1.3178034	0.4010706	172.2483635	-2.61268848	-79.25155056
5.39	539	-0.079	-0.051	1.014	3.6669312	0.286479	0.4010706	172.282741	-2.61268848	-79.25728014
5.4	540	-0.076	-0.049	1.02	4.9847346	-1.6042824	0.4010706	172.4317101	-2.6356068	-79.28019846
5.41	541	-0.069	-0.044	1.031	5.5576926	-3.8961144	0.4583664	172.4890059	-2.60122932	-79.29165762
5.42	542	-0.067	-0.038	1.035	5.2139178	-6.1879464	0.6302538	172.5405721	-2.53820394	-79.30311678
5.43	543	-0.062	-0.037	1.03	4.2398892	-8.021412	0.7448454	172.5864088	-2.4637194	-79.31457594
5.44	544	-0.061	-0.039	1.02	2.86479	-9.5111028	0.7448454	172.6207862	-2.37204612	-79.33176468
5.45	545	-0.059	-0.037	1.005	1.718874	-10.5424272	0.8021412	172.7010004	-2.28037284	-79.36614216
5.46	546	-0.055	-0.037	0.993	-0.0572958	-11.0580894	0.6875496	172.7067299	-2.1772404	-79.3833309
5.47	547	-0.056	-0.04	0.99	-1.2605076	-10.886202	0.6302538	172.6952708	-2.06837838	-79.40051964
5.48	548	-0.057	-0.04	0.991	-2.4064236	-10.026765	0.4583664	172.6723525	-1.97097552	-79.4119788
5.49	549	-0.055	-0.041	0.993	-3.4950438	-8.6516658	0.3437748	172.637975	-1.88503182	-79.42916754
5.5	550	-0.052	-0.043	0.996	-4.1252976	-6.9900876	0.1718874	172.6666229	-1.8334656	-79.44635628
5.51	551	-0.054	-0.046	1	-4.4117766	-5.3858052	0.0572958	172.6207862	-1.78189938	-79.45208586
5.52	552	-0.055	-0.047	1.005	-4.4690724	-3.5523396	-0.1145916	172.5749496	-1.7475219	-79.45781544
5.53	553	-0.057	-0.049	1.012	-4.297185	-1.9480572	-0.1718874	172.5348425	-1.72460358	-79.45781544
5.54	554	-0.056	-0.039	1.016	-3.2658606	-0.6875496	-0.286479	172.5004651	-1.718874	-79.45781544
5.55	555	-0.059	-0.045	1.019	-2.9220858	0	-0.1718874	172.6666229	-1.81054728	-79.49219292
5.56	556	-0.058	-0.039	1.031	-2.1199446	1.145916	-0.1718874	172.6437046	-1.82200644	-79.49219292
5.57	557	-0.061	-0.048	1.034	-1.5469866	2.005353	-0.0572958	172.6265158	-1.83919518	-79.48646334
5.58	558	-0.063	-0.043	1.035	-1.0886202	2.3491278	-0.1145916	172.6150567	-1.8621135	-79.48646334
5.59	559	-0.061	-0.046	1.034	-0.6875496	2.1772404	0	172.6093271	-1.88503182	-79.48073376
5.6	560	-0.064	-0.045	1.03	-0.4010706	1.718874	0	172.9416427	-2.03973048	-79.54375914
5.61	561	-0.064	-0.043	1.024	-0.1718874	1.145916	0.1718874	172.9416427	-2.05118964	-79.54375914
5.62	562	-0.064	-0.046	1.02	0.1718874	0.286479	0.2291832	172.9416427	-2.05118964	-79.54948872
5.63	563	-0.063	-0.045	1.018	0.6302538	-0.2291832	0.2291832	172.9473723	-2.05118964	-79.54948872
5.64	564	-0.063	-0.043	1.014	0.9740286	-0.859437	0.286479	172.9588315	-2.04546006	-79.5552183
5.65	565	-0.062	-0.042	1.013	1.2032118	-1.5469866	0.286479	173.1650963	-2.10275586	-79.59532536
5.66	566	-0.06	-0.041	1.011	1.2605076	-2.1772404	0.286479	173.1765555	-2.08556712	-79.60105494
5.67	567	-0.06	-0.04	1.012	1.0886202	-2.6929026	0.2291832	173.1880147	-2.05691922	-79.60678452
5.68	568	-0.059	-0.04	1.01	0.8021412	-3.2085648	0.286479	173.1994738	-2.02827132	-79.6125141
5.69	569	-0.058	-0.04	1.01	0.3437748	-3.4950438	0.2291832	173.2052034	-1.99389384	-79.61824368
5.7	570	-0.057	-0.039	1.01	-0.1145916	-3.6096354	0.2291832	173.3599021	-2.005353	-79.65262116
5.71	571	-0.057	-0.04	1.008	-0.572958	-3.6669312	0.1718874	173.3541725	-1.97097552	-79.65835074
5.72	572	-0.057	-0.04	1.007	-0.9740286	-3.8388186	0.1145916	173.3427133	-1.93086846	-79.66408032
5.73	573	-0.057	-0.04	1.007	-1.432395	-3.7815228	0.1145916	173.3312542	-1.89649098	-79.6698099
5.74	574	-0.056	-0.041	1.007	-1.7761698	-3.6096354	0.0572958	173.3140654	-1.85638392	-79.6698099
5.75	575	-0.057	-0.041	1.009	-2.0626488	-3.2658606	0.0572958	173.4057387	-1.86784308	-79.6984578
5.76	576	-0.058	-0.042	1.013	-2.2345362	-2.86479	0.0572958	173.3828204	-1.83919518	-79.6984578
5.77	577	-0.058	-0.041	1.018	-2.4637194	-2.5210152	0	173.3599021	-1.81627686	-79.70418738
5.78	578	-0.057	-0.042	1.02	-2.4637194	-1.9480572	-0.0572958	173.3369837	-1.79335854	-79.70418738
5.79	579	-0.057	-0.043	1.02	-2.005353	-1.6615782	0	173.3140654	-1.7761698	-79.70418738
5.8	580	-0.057	-0.042	1.018	-1.5469866	-1.432395	0	173.5031416	-1.85065434	-79.74429444
5.81	581	-0.058	-0.043	1.017	-1.0313244	-1.145916	0	173.4916824	-1.83919518	-79.74429444
5.82	582	-0.058	-0.042	1.017	-0.572958	-1.145916	0	173.4859528	-1.82773602	-79.74429444
5.83	583	-0.06	-0.043	1.016	-0.1145916	-1.0886202	0.0572958	173.4859528	-1.81627686	-79.74429444
5.84	584	-0.06	-0.043	1.017	0.1718874	-1.145916	0.0572958	173.4916824	-1.8048177	-79.75002402
5.85	585	-0.057	-0.043	1.018	0.3437748	-1.2605076	0.1145916	173.7609727	-1.89649098	-79.80159024
5.86	586	-0.057	-0.043	1.02	0.1718874	-1.3750992	0.1718874	173.7667022	-1.88503182	-79.80159024
5.87	587	-0.057	-0.041	1.02	0.1718874	-1.6615782	0.1718874	173.7667022	-1.86784308	-79.80731982
5.88	588	-0.058	-0.041	1.014	0.3437748	-1.8334656	0.1718874	173.7724318	-1.85065434	-79.8130494
5.89	589	-0.056	-0.041	1.01	0.5156622	-2.0626488	0.1718874	173.7781614	-1.82773602	-79.8130494
5.9	590	-0.056	-0.042	1.014	0.4010706	-2.4637194	0.2291832	173.9385896	-1.87357266	-79.84742688
5.91	591	-0.056	-0.042	1.02	-0.0572958	-2.8074942	0.1718874	173.9385896	-1.84492476	-79.85315646
5.92	592	-0.055	-0.041	1.02	-0.6302538	-3.3804522	0.1718874	173.9328601	-1.81054728	-79.85888604
5.93	593	-0.054	-0.041	1.014	-0.859437	-3.6096354	0.2291832	173.9271305	-1.7761698	-79.86461562
5.94	594	-0.054	-0.041	1.01	-1.0313244	-3.4950438	0.2291832	173.9156713	-1.74179232	-79.8703452
5.95	595	-0.053	-0.041	1.006	-1.2605076	-3.2085648	0.2291832	174.0073446	-1.7475219	-79.89326352
5.96	596	-0.053	-0.041	1.008	-1.3178034	-2.9220858	0.1145916	173.9958854	-1.718874	-79.89326352
5.97	597	-0.054	-0.041	1.008	-1.432395	-2.7501984	0.0572958	173.9786967	-1.69595568	-79.8989931
5.98	598	-0.054	-0.041	1.012	-1.432395	-2.578311	0.0572958	173.9672375	-1.66730778	-79.8989931
5.99	599	-0.053	-0.04	1.014	-1.432395	-2.291832	0.0572958	173.9500488	-1.64438946	-79.90472268
6	600	-0.053	-0.042	1.017	-1.3750992	-1.9480572	0.0572958	174.0818291	-1.6902261	-79.93337058
6.01	601	-0.053	-0.042	1.016	-1.145916	-1.8334656	0.0572958	174.07037	-1.67303736	-79.93337058
6.02	602	-0.054	-0.042	1.017	-1.0313244	-1.718874	0.0572958	174.0589108	-1.65584862	-79.93910016
6.03	603	-0.052	-0.043	1.016	-0.8021412	-1.5469866	0	174.0531812	-1.63865988	-79.93910016
6.04	604	-0.053	-0.042	1.016	-0.4583664	-1.3750992	0	174.0474517	-1.62147114	-79.93910016
6.05	605	-0.054	-0.043	1.017	-0.286479	-1.145916	0.0572958	174.3282011	-1.74179232	-79.99639596
6.06	606	-0.054	-0.042	1.02	-0.2291832	-0.9740286	0	174.3282011	-1.73606274	-79.99639596
6.07	607	-0.054	-0.041	1.019	-0.2291832	-0.8021412	0.0572958	174.3224715	-1.72460358	-79.99639596
6.08	608	-0.053	-0.041	1.022	-0.2291832	-0.859437	0.0572958	174.3224715	-1.718874	-79.99639596
6.09	609	-0.053	-0.041	1.019	-0.3437748	-0.7448454	0	174.3167419	-1.70741484	-80.00212554
6.1	610	-0.054	-0.041	1.015	-0.2291832	-0.6875496	0	174.683435	-1.87930224	-80.0708805
6.11	611	-0.054	-0.041	1.01	-0.1145916	-0.859437	0.0572958	174.683435	-1.87357266	-80.0708805
6.12	612	-0.053	-0.041	1.011	-0.1145916	-0.9167328	0.0572958	174.683435	-1.8621135	-80.0708805
6.13	613	-0.053	-0.041	1.014	-0.286479	-0.9740286	0.0572958	174.6777055	-1.85065434	-80.07661008
6.14	614	-0.054	-0.04	1.015	-0.6302538	-1.0886202	0	174.6719759	-1.83919518	-80.07661008
6.15	615	-0.054	-0.041	1.014	-0.8021412	-1.2605076	0	174.7922971	-1.8907614	-80.0995284
6.16	616	-0.054	-0.041	1.012	-0.9167328	-1.4896908	0	174.7865675	-1.87357266	-80.0995284
6.17	617	-0.055	-0.042	1.014	-1.0886202	-1.6042824	-0.0572958	174.7751083	-1.85638392	-80.0995284
6.18	618	-0.054	-0.042	1.014	-1.2032118	-1.5469866	0	174.7636492	-1.84492476	-80.10525798
6.19	619	-0.055	-0.041	1.015	-1.2605076	-1.5469866	0	174.75219	-1.82773602	-80.10525798
6.2	620	-0.053	-0.041	1.017	-1.3178034	-1.432395	0	174.8495929	-1.8621135	-80.1281763
6.21	621	-0.054	-0.041	1.018	-1.2605076	-1.432395	0	174.8324041	-1.84492476	-80.1281763
6.22	622	-0.054	-0.041	1.017	-1.145916	-1.3750992	0	174.820945	-1.8334656	-80.1281763
6.23	623	-0.054	-0.042	1.017	-1.2032118	-1.2605076	0	174.8094858	-1.82200644	-80.1281763
6.24	624	-0.055	-0.042	1.016	-1.0313244	-1.3178034	0	174.7980266	-1.8048177	-80.1281763
6.25	625	-0.055	-0.042	1.015	-0.9740286	-1.3178034	0	174.9183478	-1.85638392	-80.1568242
6.26	626	-0.055	-0.041	1.015	-0.7448454	-1.432395	0.0572958	174.9068887	-1.84492476	-80.1568242
6.27	627	-0.054	-0.041	1.017	-0.6875496	-1.3750992	0.0572958	174.9011591	-1.82773602	-80.1568242
6.28	628	-0.054	-0.042	1.017	-0.6875496	-1.3750992	0.0572958	174.8954295	-1.81627686	-80.16255378
6.29	629	-0.054	-0.042	1.015	-0.6875496	-1.4896908	0	174.8896999	-1.79908812	-80.16255378
6.3	630	-0.053	-0.041	1.016	-0.6875496	-1.5469866	0	175.0100211	-1.85065434	-80.1854721
6.31	631	-0.053	-0.042	1.016	-0.6875496	-1.6615782	0.0572958	175.0042915	-1.8334656	-80.19120168
6.32	632	-0.054	-0.041	1.016	-0.6875496	-1.6615782	0	174.9985619	-1.81627686	-80.19120168
6.33	633	-0.053	-0.041	1.017	-0.7448454	-1.6615782	0	174.9871028	-1.79908812	-80.19120168
6.34	634	-0.054	-0.041	1.016	-0.8021412	-1.7761698	0	174.9813732	-1.78189938	-80.19120168
6.35	635	-0.052	-0.041	1.017	-0.859437	-1.7761698	0.0572958	175.0673169	-1.81054728	-80.21412
6.36	636	-0.053	-0.042	1.017	-0.9167328	-1.7761698	0.0572958	175.0615873	-1.79335854	-80.21412
6.37	637	-0.052	-0.042	1.015	-0.9740286	-1.8334656	0	175.0501282	-1.7761698	-80.21984958
6.38	638	-0.052	-0.042	1.014	-0.859437	-1.718874	0	175.038669	-1.75898106	-80.21984958
6.39	639	-0.054	-0.042	1.013	-0.7448454	-1.432395	0.0572958	175.0329394	-1.74179232	-80.21984958
6.4	640	-0.054	-0.041	1.013	-0.286479	-0.2291832	0	175.4282804	-1.98243468	-80.3000637
6.41	641	-0.053	-0.042	1.016	-0.2291832	-0.286479	0.0572958	175.4225509	-1.9767051	-80.3000637
6.42	642	-0.052	-0.042	1.018	-0.2291832	0	0	175.4225509	-1.98243468	-80.3000637
6.43	643	-0.053	-0.043	1.015	-0.2291832	0	0	175.4168213	-1.9767051	-80.3000637
6.44	644	-0.054	-0.043	1.015	-0.2291832	-0.1145916	0	175.4168213	-1.9767051	-80.3000637
6.45	645	-0.053	-0.042	1.013	-0.1145916	0	0	175.8465398	-2.22307704	-80.3860074
6.46	646	-0.053	-0.043	1.013	0.0572958	0.1718874	0.0572958	175.8465398	-2.22307704	-80.3860074
6.47	647	-0.053	-0.043	1.017	0.0572958	0.286479	0	175.8465398	-2.22880662	-80.3860074
6.48	648	-0.053	-0.044	1.024	-0.1718874	0.1718874	0	175.8465398	-2.22880662	-80.3860074
6.49	649	-0.054	-0.042	1.024	-0.4583664	0	0	175.8408102	-2.22880662	-80.3860074
6.5	650	-0.052	-0.042	1.02	-0.2291832	0	0	176.1043709	-2.36631654	-80.43757362
6.51	651	-0.053	-0.043	1.017	0	0.1718874	0.0572958	176.1043709	-2.36631654	-80.43757362
6.52	652	-0.053	-0.042	1.013	0.1145916	0.1718874	0	176.1043709	-2.37204612	-80.43757362
6.53	653	-0.052	-0.041	1.012	0.2291832	0.286479	0	176.1101005	-2.37204612	-80.43757362
6.54	654	-0.053	-0.042	1.013	0.286479	0.286479	0	176.1101005	-2.3777757	-80.43757362
6.55	655	-0.052	-0.041	1.015	0.1145916	0.286479	0	176.2991766	-2.45226024	-80.4719511
6.56	656	-0.053	-0.041	1.014	0	0.286479	0	176.2991766	-2.45798982	-80.4719511
6.57	657	-0.053	-0.041	1.015	0	0.1718874	0	176.2991766	-2.45798982	-80.4719511
6.58	658	-0.054	-0.041	1.016	0	0.0572958	0	176.2991766	-2.45798982	-80.4719511
6.59	659	-0.053	-0.042	1.017	-0.1145916	0	0	176.2991766	-2.45798982	-80.4719511
6.6	660	-0.053	-0.042	1.018	-0.0572958	0	0	176.4767936	-2.53820394	-80.50632858
6.61	661	-0.053	-0.041	1.017	0	-0.1145916	0	176.4767936	-2.53820394	-80.50632858
6.62	662	-0.053	-0.043	1.018	0.0572958	-0.0572958	0	176.4767936	-2.53820394	-80.50632858
6.63	663	-0.053	-0.043	1.018	0.1718874	-0.0572958	0	176.4825232	-2.53247436	-80.50632858
6.64	664	-0.052	-0.042	1.016	0.2291832	-0.1718874	0	176.4825232	-2.53247436	-80.50632858
6.65	665	-0.052	-0.043	1.017	0.286479	-0.2291832	0	176.5455485	-2.57258142	-80.51778774
6.66	666	-0.053	-0.043	1.017	0.2291832	-0.4010706	0	176.5455485	-2.56685184	-80.51778774
6.67	667	-0.052	-0.042	1.014	0.0572958	-0.3437748	0	176.5512781	-2.56112226	-80.51778774
6.68	668	-0.052	-0.043	1.012	0.1145916	-0.3437748	0	176.5512781	-2.56112226	-80.51778774
6.69	669	-0.052	-0.042	1.011	0.2291832	-0.2291832	0	176.5512781	-2.55539268	-80.51778774
6.7	670	-0.052	-0.044	1.015	0.1718874	-0.1145916	0	176.6830585	-2.64133638	-80.54643564
6.71	671	-0.052	-0.043	1.018	0	-0.1145916	0	176.6830585	-2.64133638	-80.54643564
6.72	672	-0.053	-0.044	1.019	-0.1718874	-0.1145916	0	176.6773289	-2.6356068	-80.54643564
6.73	673	-0.053	-0.042	1.017	-0.1718874	-0.3437748	0.0572958	176.6773289	-2.6356068	-80.54643564
6.74	674	-0.052	-0.042	1.018	-0.1718874	-0.3437748	0	176.6773289	-2.62987722	-80.54643564
6.75	675	-0.052	-0.042	1.018	-0.1145916	-0.3437748	0.0572958	176.7117064	-2.64706596	-80.55216522
6.76	676	-0.052	-0.043	1.017	-0.1145916	-0.4583664	0.0572958	176.7117064	-2.64133638	-80.5578948
6.77	677	-0.052	-0.042	1.018	-0.0572958	-0.5156622	0.0572958	176.7117064	-2.6356068	-80.5578948
6.78	678	-0.052	-0.043	1.016	0	-0.4583664	0.1145916	176.7117064	-2.62987722	-80.5578948
6.79	679	-0.052	-0.041	1.015	-0.0572958	-0.4583664	0.0572958	176.7117064	-2.62987722	-80.5578948
6.8	680	-0.051	-0.041	1.014	-0.1145916	-0.3437748	0.0572958	176.757543	-2.64706596	-80.56935396
6.81	681	-0.051	-0.042	1.013	-0.0572958	-0.2291832	0	176.7518134	-2.64706596	-80.56935396
6.82	682	-0.05	-0.042	1.013	0.0572958	-0.2291832	0.1145916	176.757543	-2.64133638	-80.56935396
6.83	683	-0.05	-0.043	1.014	0.1145916	-0.1145916	0.0572958	176.757543	-2.64133638	-80.56935396
6.84	684	-0.05	-0.043	1.017	0.1718874	-0.1145916	0.0572958	176.757543	-2.64133638	-80.56935396
6.85	685	-0.05	-0.043	1.017	0.286479	-0.2291832	0.0572958	176.7919205	-2.64706596	-80.57508354
6.86	686	-0.05	-0.043	1.018	0.286479	-0.1718874	0	176.7919205	-2.64706596	-80.57508354
6.87	687	-0.051	-0.042	1.017	0.3437748	-0.1718874	0.0572958	176.7976501	-2.64133638	-80.57508354
6.88	688	-0.051	-0.044	1.016	0.4010706	-0.2291832	0	176.8033796	-2.64133638	-80.58081312
6.89	689	-0.051	-0.043	1.015	0.4010706	-0.1145916	0	176.8033796	-2.64133638	-80.58081312
6.9	690	-0.05	-0.042	1.017	0.4010706	-0.1718874	0	176.8549459	-2.64706596	-80.5865427
6.91	691	-0.05	-0.043	1.018	0.2291832	0	0	176.8549459	-2.64706596	-80.5865427
6.92	692	-0.05	-0.043	1.018	0.0572958	0	0	176.8549459	-2.64706596	-80.5865427
6.93	693	-0.051	-0.042	1.017	0	0	0.0572958	176.8549459	-2.64706596	-80.5865427
6.94	694	-0.051	-0.043	1.016	-0.1145916	0	0	176.8549459	-2.64706596	-80.5865427
6.95	695	-0.05	-0.043	1.015	-0.1145916	0.0572958	0	176.9179712	-2.65852512	-80.59800186
6.96	696	-0.05	-0.044	1.015	-0.1145916	0	0	176.9122417	-2.65852512	-80.59800186
6.97	697	-0.05	-0.042	1.013	-0.1145916	0	0	176.9122417	-2.65852512	-80.59800186
6.98	698	-0.05	-0.043	1.012	0.0572958	-0.1145916	0.0572958	176.9122417	-2.65852512	-80.59800186
6.99	699	-0.05	-0.043	1.011	0.1145916	-0.1718874	0	176.9179712	-2.65279554	-80.59800186
7	700	-0.05	-0.043	1.011	0.2291832	-0.1718874	0	176.9466191	-2.65852512	-80.59800186
7.01	701	-0.051	-0.043	1.014	0.2291832	-0.2291832	0	176.9466191	-2.65852512	-80.59800186
7.02	702	-0.049	-0.043	1.017	0.1145916	-0.1145916	0	176.9523487	-2.65852512	-80.59800186
7.03	703	-0.05	-0.042	1.019	0	0	0	176.9523487	-2.65852512	-80.59800186
7.04	704	-0.049	-0.043	1.019	-0.0572958	0	0	176.9523487	-2.65852512	-80.59800186
7.05	705	-0.05	-0.043	1.016	0	-0.1718874	0	176.9924558	-2.68717302	-80.60373144
7.06	706	-0.049	-0.042	1.016	0.2291832	0	0	176.9924558	-2.68144344	-80.60373144
7.07	707	-0.049	-0.043	1.017	0.4010706	0	0	176.9981854	-2.68144344	-80.60373144
7.08	708	-0.049	-0.042	1.022	0.286479	0.0572958	0	177.0039149	-2.68717302	-80.60373144
7.09	709	-0.049	-0.043	1.025	0	-0.286479	0	177.0039149	-2.68144344	-80.60373144
7.1	710	-0.049	-0.043	1.024	-0.2291832	-0.6875496	0	177.0039149	-2.67571386	-80.60946102
7.11	711	-0.048	-0.042	1.019	-0.0572958	-0.859437	0	177.0039149	-2.6642547	-80.60946102
7.12	712	-0.048	-0.043	1.017	0.1145916	-0.859437	0.1145916	177.0039149	-2.65852512	-80.60946102
7.13	713	-0.047	-0.042	1.015	0.2291832	-0.7448454	0.1145916	177.0096445	-2.65279554	-80.60946102
7.14	714	-0.048	-0.042	1.012	0.1718874	-0.6875496	0.1718874	177.0096445	-2.64133638	-80.6151906
7.15	715	-0.048	-0.042	1.011	0	-0.6875496	0.1145916	177.0211037	-2.6356068	-80.6151906
7.16	716	-0.048	-0.042	1.009	0.0572958	-0.6302538	0.1718874	177.0211037	-2.62987722	-80.6151906
7.17	717	-0.047	-0.042	1.01	0.0572958	-0.572958	0.1145916	177.0211037	-2.62414764	-80.62092018
7.18	718	-0.046	-0.042	1.013	0	-0.4583664	0.1718874	177.0211037	-2.61841806	-80.62092018
7.19	719	-0.047	-0.041	1.013	-0.1145916	-0.4010706	0.0572958	177.0211037	-2.61841806	-80.62092018
7.2	720	-0.046	-0.042	1.014	-0.1145916	-0.3437748	0.0572958	177.0325628	-2.6069589	-80.62664976
7.21	721	-0.045	-0.042	1.015	-0.0572958	-0.2291832	0	177.0268333	-2.6069589	-80.62664976
7.22	722	-0.046	-0.041	1.016	0	-0.0572958	0.0572958	177.0268333	-2.6069589	-80.62664976
7.23	723	-0.045	-0.042	1.018	-0.0572958	0	0	177.0268333	-2.6069589	-80.62664976
7.24	724	-0.045	-0.043	1.019	0	0.0572958	-0.0572958	177.0268333	-2.6069589	-80.62664976
7.25	725	-0.044	-0.043	1.02	-0.1145916	0	0	177.0497516	-2.578311	-80.62664976
7.26	726	-0.045	-0.044	1.017	-0.0572958	0.0572958	0	177.0497516	-2.58404058	-80.62664976
7.27	727	-0.045	-0.042	1.015	0	0.1145916	0	177.0497516	-2.58404058	-80.62664976
7.28	728	-0.044	-0.043	1.014	0	0.1718874	0	177.0497516	-2.58404058	-80.62664976
7.29	729	-0.046	-0.042	1.012	0	0.2291832	0	177.0497516	-2.58977016	-80.62664976
7.3	730	-0.045	-0.043	1.011	0.1718874	0.4010706	0	177.0497516	-2.578311	-80.62664976
7.31	731	-0.044	-0.042	1.012	0.1145916	0.5156622	0	177.0497516	-2.58404058	-80.62664976
7.32	732	-0.045	-0.042	1.015	0	0.6302538	-0.1145916	177.0497516	-2.59549974	-80.62092018
7.33	733	-0.045	-0.043	1.018	-0.1718874	0.6875496	-0.0572958	177.0497516	-2.60122932	-80.62092018
7.34	734	-0.046	-0.041	1.02	-0.2291832	0.5156622	-0.1145916	177.044022	-2.6069589	-80.62092018
7.35	735	-0.046	-0.042	1.018	-0.1718874	0.572958	-0.1145916	177.044022	-2.6069589	-80.62092018
7.36	736	-0.044	-0.042	1.019	-0.0572958	0.572958	-0.1145916	177.044022	-2.61268848	-80.6151906
7.37	737	-0.045	-0.041	1.02	0	0.6875496	-0.0572958	177.044022	-2.61841806	-80.6151906
7.38	738	-0.045	-0.043	1.018	0	0.572958	-0.0572958	177.044022	-2.62414764	-80.6151906
7.39	739	-0.044	-0.042	1.017	0.1718874	0.572958	-0.1145916	177.044022	-2.62987722	-80.6151906
7.4	740	-0.044	-0.042	1.017	0.2291832	0.6875496	-0.0572958	177.0554812	-2.6356068	-80.6151906
7.41	741	-0.045	-0.042	1.015	0.286479	0.6875496	-0.0572958	177.0612107	-2.64133638	-80.6151906
7.42	742	-0.045	-0.042	1.016	0.286479	0.4583664	-0.1145916	177.0612107	-2.64706596	-80.60946102
7.43	743	-0.045	-0.042	1.016	0.1718874	0.5156622	-0.0572958	177.0612107	-2.64706596	-80.60946102
7.44	744	-0.045	-0.042	1.016	0.1145916	0.4010706	0	177.0669403	-2.65279554	-80.60946102
7.45	745	-0.045	-0.042	1.017	0.0572958	0.3437748	-0.0572958	177.0783995	-2.64133638	-80.60946102
7.46	746	-0.045	-0.041	1.018	0.1145916	0.1145916	0	177.0783995	-2.64706596	-80.60946102
7.47	747	-0.045	-0.042	1.018	0.1718874	0.0572958	0	177.0841291	-2.64706596	-80.60946102
7.48	748	-0.044	-0.041	1.018	0.2291832	-0.0572958	0	177.0841291	-2.64706596	-80.60946102
7.49	749	-0.045	-0.041	1.019	0.2291832	-0.1718874	0	177.0898586	-2.64133638	-80.60946102
7.5	750	-0.044	-0.041	1.018	0.286479	-0.2291832	0	177.1013178	-2.62414764	-80.60946102
7.51	751	-0.044	-0.041	1.016	0.4010706	-0.4583664	0.0572958	177.1070474	-2.61841806	-80.60946102
7.52	752	-0.043	-0.041	1.016	0.4583664	-0.5156622	0	177.1070474	-2.61268848	-80.60946102
7.53	753	-0.043	-0.041	1.016	0.4010706	-0.7448454	0.1145916	177.112777	-2.6069589	-80.6151906
7.54	754	-0.044	-0.041	1.016	0.286479	-0.859437	0.1145916	177.1185065	-2.60122932	-80.6151906
7.55	755	-0.043	-0.04	1.015	0.1718874	-0.9740286	0.1145916	177.1242361	-2.58404058	-80.62092018
7.56	756	-0.042	-0.041	1.014	0.0572958	-0.9167328	0.1145916	177.1299657	-2.57258142	-80.62092018
7.57	757	-0.043	-0.042	1.014	0	-1.0313244	0.1145916	177.1299657	-2.56112226	-80.62092018
7.58	758	-0.042	-0.04	1.014	0	-0.9167328	0.1145916	177.1299657	-2.55539268	-80.62092018
7.59	759	-0.042	-0.041	1.017	-0.0572958	-0.9167328	0.1145916	177.1299657	-2.54393352	-80.62664976
7.6	760	-0.041	-0.041	1.017	-0.1145916	-0.9167328	0.1145916	177.1299657	-2.52674478	-80.62664976
7.61	761	-0.04	-0.041	1.016	-0.0572958	-0.9167328	0.1145916	177.1299657	-2.51528562	-80.62664976
7.62	762	-0.04	-0.041	1.016	0.0572958	-1.0886202	0.1718874	177.1299657	-2.50382646	-80.63237934
7.63	763	-0.04	-0.041	1.016	0.1145916	-1.0313244	0.1145916	177.1299657	-2.4923673	-80.63237934
7.64	764	-0.04	-0.041	1.014	0.0572958	-0.9167328	0.1718874	177.1356953	-2.48663772	-80.63237934
7.65	765	-0.041	-0.04	1.014	0.1145916	-1.2032118	0.1718874	177.1414249	-2.4637194	-80.63810892
7.66	766	-0.039	-0.04	1.015	0.0572958	-1.0886202	0.1145916	177.1414249	-2.45226024	-80.63810892
7.67	767	-0.038	-0.041	1.015	0	-0.859437	0.1145916	177.1414249	-2.44653066	-80.63810892
7.68	768	-0.038	-0.04	1.014	0	-0.9167328	0.1145916	177.1414249	-2.4350715	-80.6438385
7.69	769	-0.039	-0.041	1.014	-0.1145916	-0.9740286	0.0572958	177.1414249	-2.42361234	-80.6438385
7.7	770	-0.038	-0.044	1.013	-0.0572958	-0.9167328	0.0572958	177.1356953	-2.39496444	-80.6438385
7.71	771	-0.039	-0.038	1.017	0	-0.7448454	0.1145916	177.1356953	-2.38923486	-80.6438385
7.72	772	-0.037	-0.04	1.019	-0.1145916	-0.6302538	0.0572958	177.1356953	-2.38350528	-80.6438385
7.73	773	-0.039	-0.042	1.02	-0.4583664	-0.8021412	0.1145916	177.1299657	-2.37204612	-80.6438385
