TimeStamp(s)	FrameCounter	AccX	AccY	AccZ	GyrX	GyrY	GyrZ	EulerX	EulerY	EulerZ
0.01	1	-0.026	-0.985	0.106	-2.4064236	-0.7448454	-1.9480572	95.54647608	-1.00840608	-46.07155278
0.02	2	-0.027	-0.989	0.1	-2.005353	-0.4583664	-2.1199446	95.52355776	-0.98548776	-46.07155278
0.03	3	-0.027	-0.991	0.097	-1.6615782	0	-2.005353	95.50636902	-0.96829902	-46.07155278
0.04	4	-0.026	-0.993	0.098	-1.0313244	0.6302538	-1.8334656	95.49490986	-0.95111028	-46.0658232
0.05	5	-0.024	-0.993	0.1	-0.6875496	1.0886202	-1.7761698	95.47199154	-0.93392154	-46.04863446
0.06	6	-0.025	-0.993	0.102	-0.286479	1.6615782	-1.8334656	95.46626196	-0.9167328	-46.03144572
0.07	7	-0.027	-0.992	0.103	0	2.578311	-2.0626488	95.46626196	-0.89954406	-46.00279782
0.08	8	-0.033	-0.994	0.103	0	3.3231564	-2.2345362	95.46626196	-0.88235532	-45.96842034
0.09	9	-0.037	-0.995	0.107	-0.1145916	4.010706	-2.4064236	95.46626196	-0.86516658	-45.92831328
0.1	10	-0.037	-0.999	0.111	-0.7448454	4.8128472	-2.4637194	95.4548028	-0.85370742	-45.87674706
0.11	11	-0.035	-1.003	0.112	-1.6042824	5.8441716	-2.3491278	95.43761406	-0.83651868	-45.81945126
0.12	12	-0.029	-1.008	0.111	-3.2085648	7.6776372	-2.1199446	95.397507	-0.82505952	-45.73923714
0.13	13	-0.029	-1.009	0.105	-4.6409598	8.880849	-1.8907614	95.35167036	-0.81932994	-45.65329344
0.14	14	-0.03	-1.005	0.098	-5.9587632	9.3392154	-1.9480572	95.28864498	-0.80787078	-45.55589058
0.15	15	-0.035	-1	0.084	-6.3598338	8.8235532	-2.1199446	95.21416044	-0.8021412	-45.46994688
0.16	16	-0.038	-0.992	0.068	-6.2452422	8.021412	-2.6356068	95.14540548	-0.78495246	-45.38973276
0.17	17	-0.041	-0.987	0.054	-5.7868758	6.5317212	-3.0366774	95.0823801	-0.76776372	-45.3209778
0.18	18	-0.045	-0.982	0.042	-5.6722842	4.4117766	-3.151269	95.0250843	-0.73911582	-45.27514116
0.19	19	-0.048	-0.981	0.042	-5.8441716	2.005353	-3.0366774	94.9677885	-0.71046792	-45.25222284
0.2	20	-0.046	-0.984	0.048	-5.9014674	-0.5156622	-2.6929026	94.8818448	-0.69900876	-45.25795242
0.21	21	-0.041	-0.992	0.054	-5.5576926	-1.9480572	-2.4064236	94.824549	-0.67036086	-45.27514116
0.22	22	-0.036	-1.004	0.064	-4.4690724	-3.151269	-2.0626488	94.77871236	-0.64744254	-45.30378906
0.23	23	-0.03	-1.015	0.075	-3.2085648	-4.4117766	-1.4896908	94.75006446	-0.62452422	-45.3496257
0.24	24	-0.026	-1.023	0.08	-1.8907614	-5.7868758	-0.7448454	94.72714614	-0.61306506	-45.4069215
0.25	25	-0.025	-1.026	0.088	-0.286479	-7.5630456	0.0572958	94.72141656	-0.61306506	-45.48140604
0.26	26	-0.032	-1.027	0.105	1.3178034	-9.7975818	0.859437	94.7386053	-0.60733548	-45.5788089
0.27	27	-0.04	-1.024	0.124	2.6356068	-11.172681	1.6615782	94.7672532	-0.61306506	-45.68767092
0.28	28	-0.047	-1.019	0.14	3.6096354	-11.1153852	2.005353	94.80736026	-0.61879464	-45.79653294
0.29	29	-0.053	-1.009	0.153	3.4950438	-10.3705398	2.0626488	94.84746732	-0.6302538	-45.89966538
0.3	30	-0.057	-0.994	0.169	3.151269	-9.7975818	1.718874	94.90476312	-0.65317212	-45.99706824
0.31	31	-0.064	-0.981	0.182	3.0366774	-8.9381448	1.2605076	94.9391406	-0.65317212	-46.08301194
0.32	32	-0.074	-0.974	0.193	3.437748	-7.5630456	0.9167328	94.97351808	-0.65317212	-46.15749648
0.33	33	-0.084	-0.972	0.212	4.297185	-6.0733548	0.572958	95.01935472	-0.65317212	-46.22052186
0.34	34	-0.096	-0.975	0.239	5.5576926	-4.6409598	0.6875496	95.07665052	-0.65317212	-46.2663585
0.35	35	-0.1	-0.987	0.256	6.5317212	-2.86479	1.4896908	95.20843086	-0.70473834	-46.28354724
0.36	36	-0.101	-1.002	0.267	6.7036086	-0.7448454	2.1199446	95.27718582	-0.72192708	-46.2950064
0.37	37	-0.099	-1.012	0.276	5.2139178	2.291832	2.578311	95.32875204	-0.75057498	-46.27208808
0.38	38	-0.092	-1.018	0.272	2.9793816	6.0733548	2.6929026	95.35739994	-0.78495246	-46.21479228
0.39	39	-0.069	-1.031	0.261	0.5156622	9.9121734	3.437748	95.36312952	-0.8307891	-46.123119
0.4	40	-0.058	-1.025	0.239	-1.3178034	12.605076	4.3544808	95.3688591	-0.89954406	-46.00279782
0.41	41	-0.047	-1.004	0.215	-1.9480572	13.0634424	4.870143	95.34594078	-0.96256944	-45.87674706
0.42	42	-0.041	-0.976	0.201	-1.7761698	11.5164558	5.0993262	95.32302246	-1.02559482	-45.76788504
0.43	43	-0.048	-0.953	0.193	-1.2605076	8.307891	4.9274388	95.30583372	-1.0886202	-45.6934005
0.44	44	-0.055	-0.944	0.194	-0.9167328	4.9847346	4.870143	95.29437456	-1.14018642	-45.64756386
0.45	45	-0.062	-0.945	0.198	-1.5469866	3.151269	4.6982556	95.32302246	-1.21467096	-45.61318638
0.46	46	-0.067	-0.951	0.199	-2.291832	2.1772404	4.2398892	95.30010414	-1.25477802	-45.59599764
0.47	47	-0.067	-0.958	0.201	-3.3804522	2.005353	3.5523396	95.26572666	-1.29488508	-45.58453848
0.48	48	-0.065	-0.958	0.198	-4.4690724	2.1199446	2.9220858	95.21989002	-1.32926256	-45.56734974
0.49	49	-0.067	-0.957	0.191	-4.6982556	2.2345362	2.2345362	95.1683238	-1.35218088	-45.54443142
0.5	50	-0.069	-0.958	0.189	-4.6982556	2.005353	1.718874	95.16259422	-1.39801752	-45.5215131
0.51	51	-0.072	-0.957	0.192	-4.8128472	2.0626488	1.432395	95.111028	-1.41520626	-45.50432436
0.52	52	-0.078	-0.955	0.197	-4.870143	2.4064236	1.0886202	95.06519136	-1.42666542	-45.48140604
0.53	53	-0.084	-0.952	0.206	-4.6982556	2.5210152	0.6302538	95.01362514	-1.43812458	-45.45848772
0.54	54	-0.086	-0.951	0.216	-4.1252976	2.6356068	0	94.97351808	-1.43812458	-45.42983982
0.55	55	-0.084	-0.955	0.218	-3.0366774	2.9793816	-0.6875496	95.01362514	-1.47250206	-45.39546234
0.56	56	-0.078	-0.967	0.213	-3.151269	3.4950438	-1.3178034	94.97924766	-1.46677248	-45.36108486
0.57	57	-0.074	-0.975	0.204	-4.6982556	3.4950438	-1.8907614	94.92768144	-1.44958374	-45.32670738
0.58	58	-0.073	-0.973	0.197	-6.0733548	3.0366774	-2.6356068	94.86465606	-1.42666542	-45.2923299
0.59	59	-0.073	-0.969	0.194	-6.589017	2.1772404	-3.8388186	94.80163068	-1.39228794	-45.26941158
0.6	60	-0.076	-0.966	0.187	-7.3911582	1.3178034	-4.8128472	94.75579404	-1.36364004	-45.24649326
0.61	61	-0.083	-0.967	0.18	-8.2505952	0.286479	-5.6149884	94.66985034	-1.31207382	-45.24076368
0.62	62	-0.096	-0.974	0.18	-8.8235532	-0.1145916	-6.3598338	94.57817706	-1.24904844	-45.24076368
0.63	63	-0.112	-0.988	0.18	-9.5683986	0.286479	-7.0473834	94.4807742	-1.18029348	-45.22930452
0.64	64	-0.128	-1.007	0.179	-10.599723	2.1772404	-7.5630456	94.37191218	-1.10580894	-45.2063862
0.65	65	-0.14	-1.025	0.173	-11.5737516	5.3285094	-7.8495246	94.26305016	-1.05424272	-45.14336082
0.66	66	-0.144	-1.042	0.169	-12.8342592	8.9954406	-8.0787078	94.13126982	-0.98548776	-45.05168754
0.67	67	-0.138	-1.048	0.165	-14.2666542	12.9488508	-7.7922288	93.98230074	-0.92246238	-44.9199072
0.68	68	-0.118	-1.047	0.167	-15.3552744	16.8449652	-7.2192708	93.8218725	-0.86516658	-44.7480198
0.69	69	-0.098	-1.046	0.182	-15.9855282	18.7357266	-6.3598338	93.65571468	-0.82505952	-44.56467324
0.7	70	-0.088	-1.051	0.196	-16.3865988	18.6784308	-4.9847346	93.49528644	-0.79641162	-44.3755971
0.71	71	-0.08	-1.072	0.191	-17.5898106	17.0741484	-3.5523396	93.31193988	-0.77922288	-44.20943928
0.72	72	-0.084	-1.092	0.181	-20.5691922	15.0687954	-2.3491278	93.09994542	-0.76776372	-44.0604702
0.73	73	-0.099	-1.1	0.183	-22.5745452	13.464513	-2.0626488	92.86503264	-0.76203414	-43.92868986
0.74	74	-0.118	-1.104	0.192	-21.9442914	12.8342592	-2.4637194	92.64157902	-0.7448454	-43.8026391
0.75	75	-0.127	-1.11	0.197	-19.767051	12.4331886	-2.6356068	92.4467733	-0.7448454	-43.68231792
0.76	76	-0.118	-1.114	0.196	-17.8762896	11.4018642	-1.8907614	92.26342674	-0.73338624	-43.56772632
0.77	77	-0.104	-1.111	0.2	-16.8449652	9.3392154	-0.6875496	92.09153934	-0.73338624	-43.47605304
0.78	78	-0.09	-1.096	0.21	-16.1001198	6.0733548	0.6302538	91.92538152	-0.7448454	-43.41875724
0.79	79	-0.08	-1.08	0.226	-14.4958374	2.3491278	2.0626488	91.77641244	-0.76776372	-43.39583892
0.8	80	-0.058	-1.098	0.228	-13.750992	-0.6302538	3.7815228	91.66182084	-0.80787078	-43.40729808
0.81	81	0.002	-1.207	0.15	-19.2513888	-1.3178034	6.589017	91.46701512	-0.87662574	-43.42448682
0.82	82	0.078	-1.386	0.059	-30.080295	-1.8907614	11.2299768	91.16334738	-0.99121734	-43.44740514
0.83	83	0.125	-1.378	0.114	-35.5806918	-10.2559482	16.5011904	90.80238384	-1.15164558	-43.55626716
0.84	84	0.086	-1.146	0.132	-31.3980984	-24.2934192	18.1627686	90.49298652	-1.32353298	-43.8026391
0.85	85	0.005	-0.979	0.166	-23.5485738	-40.5081306	17.18874	90.28099206	-1.48396122	-44.20943928
0.86	86	-0.05	-0.938	0.173	-17.8762896	-51.1651494	13.5791046	90.12056382	-1.6042824	-44.7193719
0.87	87	-0.084	-0.958	0.141	-15.5844576	-51.9099948	9.167328	89.9830539	-1.68449652	-45.2350341
0.88	88	-0.113	-0.952	0.096	-13.4072172	-47.269035	6.1879464	89.8684623	-1.73606274	-45.70485966
0.89	89	-0.141	-0.929	0.085	-8.4797784	-41.539455	5.0420304	89.79970734	-1.7761698	-46.11165984
0.9	90	-0.163	-0.928	0.105	-4.010706	-37.7579322	4.870143	89.78824818	-1.8334656	-46.48408254
0.91	91	-0.166	-0.955	0.106	-2.3491278	-30.8251404	4.583664	89.77678902	-1.87357266	-46.79347986
0.92	92	-0.15	-0.975	0.082	-4.4690724	-19.3086846	3.437748	89.73668196	-1.90222056	-46.982556
0.93	93	-0.134	-0.983	0.033	-6.0733548	-8.59437	1.3178034	89.67938616	-1.91367972	-47.0684997
0.94	94	-0.118	-0.994	-0.007	-7.7922288	0.7448454	-0.9740286	89.60490162	-1.90222056	-47.06277012
0.95	95	-0.106	-1.005	-0.042	-9.167328	9.2246238	-3.151269	89.49031002	-1.8907614	-46.97109684
0.96	96	-0.087	-1.007	-0.073	-11.2299768	17.9335854	-4.9847346	89.36998884	-1.84492476	-46.79347986
0.97	97	-0.058	-0.987	-0.096	-13.750992	26.0122932	-6.2452422	89.21529018	-1.78762896	-46.54137834
0.98	98	-0.026	-0.95	-0.127	-17.1314442	34.1482968	-6.9900876	89.02621404	-1.718874	-46.20333312
0.99	99	-0.004	-0.91	-0.156	-21.3713334	42.5134836	-6.2452422	88.79130126	-1.6615782	-45.78507378
1	100	-0.012	-0.879	-0.196	-26.2987722	49.1597964	-3.3804522	88.48763352	-1.6329303	-45.30378906
1.01	101	-0.034	-0.861	-0.232	-28.074942	50.133825	0.286479	88.18396578	-1.63865988	-44.81104518
1.02	102	-0.05	-0.862	-0.231	-25.8977016	46.982556	3.6669312	87.90321636	-1.67303736	-44.3469492
1.03	103	-0.059	-0.89	-0.212	-22.91832	39.820581	6.1306506	87.65111484	-1.73606274	-43.95160818
1.04	104	-0.048	-0.91	-0.199	-18.9649098	32.4867186	6.9900876	87.44484996	-1.79908812	-43.6307517
1.05	105	-0.028	-0.922	-0.186	-13.8655836	25.9549974	6.4171296	87.27296256	-1.85638392	-43.3729206
1.06	106	-0.01	-0.941	-0.164	-8.0787078	19.8816426	4.4117766	87.18128928	-1.89649098	-43.17811488
1.07	107	0	-0.967	-0.137	-1.7761698	13.9228794	1.6615782	87.15837096	-1.91367972	-43.04060496
1.08	108	0.007	-1.001	-0.09	4.1825934	8.9381448	-1.5469866	87.19274844	-1.8907614	-42.94893168
1.09	109	0.012	-1.026	-0.046	7.734933	7.448454	-4.010706	87.27296256	-1.85065434	-42.87444714
1.1	110	0.016	-1.036	0	9.6256944	8.59437	-6.1306506	87.37036542	-1.7761698	-42.79423302
1.11	111	0.018	-1.034	0.041	10.7716104	11.45916	-7.6776372	87.47922744	-1.69595568	-42.685371
1.12	112	0.016	-1.024	0.064	11.0007936	15.756345	-8.880849	87.58235988	-1.6042824	-42.53067234
1.13	113	0.013	-1.009	0.07	10.4851314	21.199446	-9.6829902	87.67976274	-1.50687954	-42.32440746
1.14	114	0.005	-0.988	0.066	9.2819196	26.8144344	-9.740286	87.76570644	-1.4037471	-42.06084678
1.15	115	-0.003	-0.966	0.062	7.1046792	31.8564648	-9.0527364	87.8344614	-1.30634424	-41.74571988
1.16	116	-0.001	-0.943	0.051	4.4690724	36.2682414	-8.1932994	87.8631093	-1.22040054	-41.39048592
1.17	117	0.001	-0.936	0.034	2.0626488	38.961144	-7.1046792	87.87456846	-1.145916	-41.00660406
1.18	118	0.005	-0.931	0.016	-0.8021412	40.5654264	-6.1879464	87.85165014	-1.08289062	-40.60553346
1.19	119	0.015	-0.925	0	-3.5523396	40.9092012	-5.0420304	87.80008392	-1.0313244	-40.20446286
1.2	120	0.03	-0.923	-0.018	-5.7868758	39.534102	-4.010706	87.73132896	-0.97975818	-39.81485142
1.21	121	0.052	-0.928	-0.042	-7.3911582	37.1276784	-3.3804522	87.64538526	-0.93965112	-39.45388788
1.22	122	0.076	-0.95	-0.057	-8.5370742	33.9764094	-3.3231564	87.5479824	-0.90527364	-39.12157224
1.23	123	0.097	-0.965	-0.065	-9.5111028	29.4500412	-3.3231564	87.43912038	-0.86516658	-38.82936366
1.24	124	0.119	-0.968	-0.064	-10.313244	23.4339822	-3.7815228	87.33025836	-0.82505952	-38.60018046
1.25	125	0.125	-0.957	-0.058	-10.4278356	17.475219	-4.010706	87.20993718	-0.75057498	-38.43402264
1.26	126	0.128	-0.945	-0.052	-9.8548776	11.4018642	-3.8388186	87.10680474	-0.71046792	-38.32516062
1.27	127	0.121	-0.932	-0.042	-8.7089616	5.6149884	-3.2658606	87.02086104	-0.68182002	-38.2735944
1.28	128	0.1	-0.937	-0.023	-7.2765666	0	-2.4637194	86.9463765	-0.65317212	-38.2735944
1.29	129	0.079	-0.946	-0.008	-6.4744254	-4.0680018	-1.718874	86.87762154	-0.64171296	-38.31370146
1.3	130	0.056	-0.963	0.009	-5.0993262	-7.6203414	-0.9167328	86.84897364	-0.60733548	-38.39391558
1.31	131	0.035	-0.985	0.023	-4.010706	-10.7143146	0.286479	86.80886658	-0.61306506	-38.5027776
1.32	132	0.024	-0.999	0.032	-3.3231564	-13.5218088	2.005353	86.78021868	-0.64171296	-38.63455794
1.33	133	0.026	-1.005	0.035	-2.86479	-15.5844576	4.3544808	86.75157078	-0.6875496	-38.78352702
1.34	134	0.036	-1.006	0.034	-2.1772404	-17.2460358	6.7609044	86.73438204	-0.76203414	-38.95541442
1.35	135	0.046	-1.005	0.033	-1.145916	-19.3659804	9.0527364	86.74011162	-0.84224826	-39.13876098
1.36	136	0.052	-0.995	0.039	0.4583664	-21.3713334	10.7716104	86.75157078	-0.95683986	-39.34502586
1.37	137	0.052	-0.986	0.06	2.3491278	-24.1215318	11.45916	86.78594826	-1.07716104	-39.57993864
1.38	138	0.041	-0.98	0.097	4.4117766	-28.1322378	10.7716104	86.83751448	-1.19175264	-39.8492289
1.39	139	0.027	-0.982	0.123	8.021412	-31.7418732	8.880849	86.92918776	-1.28342592	-40.15862622
1.4	140	0.003	-0.996	0.147	12.3758928	-33.231564	6.4744254	87.089616	-1.35791046	-40.48521228
1.41	141	-0.022	-1.017	0.173	15.5271618	-32.372127	4.3544808	87.2615034	-1.4037471	-40.80033918
1.42	142	-0.041	-1.047	0.189	17.18874	-29.1635622	2.6356068	87.44484996	-1.432395	-41.08681818
1.43	143	-0.056	-1.086	0.197	18.048177	-23.8923486	1.4896908	87.63965568	-1.44958374	-41.32173096
1.44	144	-0.069	-1.128	0.209	18.1627686	-18.048177	0.572958	87.82873182	-1.45531332	-41.49361836
1.45	145	-0.073	-1.154	0.22	17.2460358	-12.318597	0.1718874	88.0349967	-1.46677248	-41.61393954
1.46	146	-0.075	-1.148	0.209	16.329303	-6.2452422	0.1145916	88.2068841	-1.46677248	-41.67696492
1.47	147	-0.08	-1.12	0.199	17.4179232	-0.5156622	0.2291832	88.3787715	-1.46677248	-41.67696492
1.48	148	-0.097	-1.085	0.201	20.3973048	2.4064236	0.3437748	88.58503638	-1.46677248	-41.6540466
1.49	149	-0.11	-1.042	0.22	22.8610242	3.7815228	0.5156622	88.81994916	-1.47250206	-41.61393954
1.5	150	-0.097	-0.99	0.24	24.4653066	5.3285094	1.2032118	89.10642816	-1.49542038	-41.55664374
1.51	151	-0.07	-0.966	0.173	24.6944898	6.589017	2.0626488	89.3528001	-1.51260912	-41.48788878
1.52	152	-0.113	-1.056	-0.057	25.78311	6.9900876	0.5156622	89.6106312	-1.5183387	-41.41340424
1.53	153	-0.18	-1.356	0.037	29.220858	2.5210152	-8.1932994	89.90856936	-1.432395	-41.38475634
1.54	154	-0.174	-1.56	0.036	23.9496444	-6.4171296	-17.5325148	90.1549413	-1.25477802	-41.44778172
1.55	155	-0.04	-1.506	-0.274	18.2200644	-0.9740286	-17.9908812	90.33255828	-1.07143146	-41.4535113
1.56	156	0.04	-1.494	-0.405	20.1108258	1.5469866	-13.4072172	90.53309358	-0.93965112	-41.43632256
1.57	157	0.104	-1.469	-0.194	17.0168526	-3.724227	-9.6256944	90.70498098	-0.84224826	-41.47070004
1.58	158	0.185	-1.205	-0.175	0.6302538	-7.2192708	-0.7448454	90.71644014	-0.8307891	-41.539455
1.59	159	0.194	-0.928	-0.331	-5.156622	-14.6677248	8.5370742	90.66487392	-0.91100322	-41.68842408
1.6	160	0.168	-0.776	-0.365	-0.6875496	-26.7571386	10.9434978	90.62476686	-0.98548776	-41.95771434
1.61	161	0.18	-0.723	-0.293	-2.6356068	-35.523396	7.0473834	90.60757812	-1.04278356	-42.30721872
1.62	162	0.21	-0.718	-0.249	-7.1046792	-44.5761324	1.145916	90.55028232	-1.03705398	-42.74839638
1.63	163	0.18	-0.775	-0.197	-9.1100322	-55.8061092	-4.4117766	90.4700682	-0.9740286	-43.30416564
1.64	164	0.091	-0.85	-0.133	-11.745639	-60.5043648	-9.2246238	90.37266534	-0.859437	-43.90004196
1.65	165	-0.02	-0.929	-0.08	-10.1986524	-56.3217714	-11.2872726	90.27526248	-0.73338624	-44.4615408
1.66	166	-0.11	-1.02	-0.041	-5.7868758	-45.1490904	-8.7662574	90.22942584	-0.63598338	-44.90271846
1.67	167	-0.153	-1.108	-0.006	-0.9167328	-32.2002396	-1.6615782	90.22369626	-0.60733548	-45.22357494
1.68	168	-0.144	-1.145	0.016	1.4896908	-19.6524594	6.5317212	90.24661458	-0.66463128	-45.41838066
1.69	169	-0.109	-1.103	0.034	1.2032118	-9.1100322	12.318597	90.25807374	-0.78495246	-45.51005394
1.7	170	-0.092	-0.996	0.028	0.9167328	-1.6042824	14.9542038	90.2695329	-0.95683986	-45.52724268
1.71	171	-0.091	-0.912	0.018	2.2345362	0.7448454	15.4125702	90.29245122	-1.11153852	-45.51578352
1.72	172	-0.091	-0.863	0.013	3.0366774	-0.859437	14.4958374	90.3268287	-1.25477802	-45.52724268
1.73	173	-0.087	-0.852	0	1.8334656	-2.8074942	13.2926256	90.34401744	-1.38655836	-45.55589058
1.74	174	-0.088	-0.862	-0.013	0.1145916	-4.4117766	12.032118	90.34974702	-1.50687954	-45.60172722
1.75	175	-0.09	-0.88	-0.016	-1.2605076	-5.3858052	10.5424272	90.3268287	-1.62720072	-45.65329344
1.76	176	-0.093	-0.893	-0.01	-3.0366774	-4.870143	8.5370742	90.2981808	-1.70741484	-45.70485966
1.77	177	-0.108	-0.901	-0.009	-4.8128472	-2.86479	6.1879464	90.24661458	-1.77044022	-45.73350756
1.78	178	-0.12	-0.912	-0.024	-7.1046792	0.286479	4.0680018	90.17785962	-1.81054728	-45.73350756
1.79	179	-0.145	-0.925	-0.032	-9.167328	3.6669312	2.9793816	90.08045676	-1.84492476	-45.69913008
1.8	180	-0.17	-0.937	-0.032	-10.599723	6.3598338	2.86479	89.96013558	-1.91367972	-45.63037512
1.81	181	-0.186	-0.941	-0.022	-10.9434978	8.4224826	3.3231564	89.8398144	-1.95378678	-45.550161
1.82	182	-0.182	-0.938	-0.006	-10.9434978	11.5737516	3.437748	89.7252228	-1.98816426	-45.4355694
1.83	183	-0.167	-0.932	0.001	-10.6570188	15.8136408	3.0366774	89.6106312	-2.02254174	-45.28087074
1.84	184	-0.149	-0.913	0.006	-10.6570188	19.8816426	2.1199446	89.49031002	-2.05118964	-45.08606502
1.85	185	-0.13	-0.902	0.023	-8.8235532	23.1475032	0.3437748	89.39290716	-2.07410796	-44.85688182
1.86	186	-0.109	-0.902	0.038	-6.875496	25.6112226	-1.8334656	89.31269304	-2.0626488	-44.59905072
1.87	187	-0.093	-0.914	0.058	-4.9274388	28.0176462	-4.1825934	89.24966766	-2.02254174	-44.32403088
1.88	188	-0.085	-0.934	0.069	-4.1252976	30.1948866	-6.016059	89.19237186	-1.97097552	-44.02609272
1.89	189	-0.084	-0.945	0.085	-4.3544808	32.2002396	-7.2192708	89.12934648	-1.90222056	-43.71096582
1.9	190	-0.084	-0.946	0.103	-4.2398892	34.1482968	-8.2505952	89.08350984	-1.8334656	-43.3729206
1.91	191	-0.088	-0.937	0.113	-4.4690724	36.6120162	-8.9954406	89.02621404	-1.7475219	-43.01195706
1.92	192	-0.094	-0.92	0.13	-4.0680018	38.6173692	-9.6256944	88.96891824	-1.65584862	-42.63380478
1.93	193	-0.103	-0.905	0.149	-3.151269	40.1643558	-10.4278356	88.91735202	-1.55271618	-42.23846376
1.94	194	-0.114	-0.901	0.151	-3.2658606	42.2843004	-11.6883432	88.8657858	-1.44385416	-41.82020442
1.95	195	-0.122	-0.894	0.137	-3.6096354	44.8053156	-13.1207382	88.82567874	-1.32353298	-41.37902676
1.96	196	-0.129	-0.896	0.139	-2.4064236	46.0085274	-14.610429	88.78557168	-1.18602306	-40.92638994
1.97	197	-0.13	-0.904	0.159	-1.5469866	46.5241896	-15.8136408	88.75692378	-1.0313244	-40.46802354
1.98	198	-0.129	-0.909	0.175	-0.5156622	47.2117392	-17.18874	88.73400546	-0.859437	-40.00392756
1.99	199	-0.135	-0.913	0.189	0.3437748	48.3576552	-18.7357266	88.72827588	-0.67609044	-39.52837242
2	200	-0.145	-0.912	0.212	0.6875496	50.9359662	-20.1108258	88.73973504	-0.49274388	-39.02989896
2.01	201	-0.149	-0.914	0.233	1.5469866	54.43101	-21.1421502	88.74546462	-0.286479	-38.49704802
2.02	202	-0.15	-0.923	0.248	1.9480572	59.4157446	-22.1734746	88.75692378	-0.06875496	-37.91263086
2.03	203	-0.129	-0.94	0.248	0.5156622	65.9474658	-22.1161788	88.7511942	0.13750992	-37.26518832
2.04	204	-0.083	-0.976	0.228	-1.7761698	71.1613836	-19.5951636	88.72827588	0.33231564	-36.56617956
2.05	205	-0.028	-1.007	0.206	-6.8182002	73.7396946	-16.8449652	88.6652505	0.49274388	-35.8385229
2.06	206	0.043	-1.042	0.173	-12.9488508	73.7969904	-14.037471	88.53347016	0.6302538	-35.11086624
2.07	207	0.122	-1.072	0.169	-16.042824	70.9894962	-12.2613012	88.36731234	0.75057498	-34.41758706
2.08	208	0.188	-1.097	0.213	-13.8082878	63.8275212	-11.745639	88.22980242	0.86516658	-33.78733326
2.09	209	0.22	-1.113	0.262	-10.7716104	55.4623344	-12.032118	88.1209404	0.98548776	-33.24875274
2.1	210	0.204	-1.113	0.292	-10.3705398	47.269035	-12.4331886	88.0349967	1.12299768	-32.78465676
2.11	211	0.151	-1.096	0.328	-8.5370742	36.0390582	-12.8342592	87.949053	1.25477802	-32.43515238
2.12	212	0.113	-1.119	0.327	-4.7555514	29.0489706	-13.2926256	87.90321636	1.38655836	-32.14867338
2.13	213	0.119	-1.221	0.236	-8.7662574	26.8144344	-11.172681	87.81727266	1.50114996	-31.89084228
2.14	214	0.201	-1.378	0.121	-20.4546006	22.9756158	-4.7555514	87.61673736	1.55271618	-31.66738866
2.15	215	0.344	-1.582	0.004	-37.9298196	6.0733548	7.0473834	87.22712592	1.48396122	-31.60436328
2.16	216	0.503	-1.775	-0.129	-58.2125328	-26.2414764	23.491278	86.63697918	1.23758928	-31.86219438
2.17	217	0.621	-1.744	-0.339	-64.4004792	-51.2224452	37.3568616	85.98380706	0.84224826	-32.34920868
2.18	218	0.541	-1.414	-0.454	-48.0711762	-55.0612638	42.7426668	85.49679276	0.38961144	-32.87060046
2.19	219	0.356	-1.124	-0.57	-29.3927454	-61.0773228	35.236917	85.20458418	0.00572958	-33.44928804
2.2	220	0.131	-0.954	-0.59	-8.7662574	-76.5471888	22.345362	85.09572216	-0.25210152	-34.18840386
2.21	221	-0.053	-0.85	-0.541	8.3651868	-97.116381	6.8182002	85.1988546	-0.3724227	-35.13951414
2.22	222	-0.176	-0.846	-0.514	15.8709366	-102.9032568	-6.4171296	85.38220116	-0.36096354	-36.15937938
2.23	223	-0.27	-0.871	-0.38	18.1627686	-96.1996482	-17.18874	85.58273646	-0.24064236	-37.12194882
2.24	224	-0.363	-0.86	-0.276	14.4958374	-80.21412	-22.5745452	85.7431647	-0.05156622	-37.9298196
2.25	225	-0.416	-0.871	-0.241	7.7922288	-55.8061092	-21.2567418	85.81191966	0.09167328	-38.49131844
2.26	226	-0.423	-0.937	-0.229	1.6042824	-35.0650296	-15.6417534	85.83483798	0.2291832	-38.8465524
2.27	227	-0.382	-1.058	-0.277	-3.3804522	-15.2406828	-3.7815228	85.8004605	0.2578311	-39.00125106
2.28	228	-0.309	-1.209	-0.341	-4.7555514	-4.870143	6.1306506	85.74889428	0.19480572	-39.0470877
2.29	229	-0.188	-1.287	-0.4	-7.734933	0.7448454	12.9488508	85.67440974	0.06875496	-39.02989896
2.3	230	-0.015	-1.291	-0.437	-9.740286	2.3491278	15.469866	85.55408856	-0.07448454	-39.00125106
2.31	231	0.15	-1.212	-0.433	-8.9954406	-0.4010706	13.178034	85.46241528	-0.20626488	-38.99552148
2.32	232	0.239	-1.09	-0.426	-9.453807	-8.1360036	7.3911582	85.36501242	-0.286479	-39.07000602
2.33	233	0.251	-1.003	-0.424	-8.1360036	-16.9595568	1.145916	85.2847983	-0.30939732	-39.23616384
2.34	234	0.205	-1.011	-0.383	-4.4690724	-25.4393352	-3.6669312	85.24469124	-0.286479	-39.49399494
2.35	235	0.142	-1.062	-0.329	0.3437748	-34.5493674	-7.7922288	85.23323208	-0.21199446	-39.84349932
2.36	236	0.063	-1.106	-0.256	0.859437	-36.8984952	-9.2819196	85.24469124	-0.1432395	-40.21592202
2.37	237	-0.006	-1.127	-0.194	-1.6042824	-35.2942128	-9.6829902	85.23323208	-0.06302538	-40.57115598
2.38	238	-0.064	-1.128	-0.168	-5.156622	-30.939732	-9.8548776	85.18739544	0.01145916	-40.88628288
2.39	239	-0.104	-1.105	-0.15	-8.1932994	-24.923673	-10.4851314	85.10718132	0.09740286	-41.1383844
2.4	240	-0.133	-1.06	-0.123	-11.0007936	-19.5378678	-11.0580894	84.98686014	0.17761698	-41.34464928
2.41	241	-0.142	-0.998	-0.104	-13.0061466	-14.037471	-11.9748222	84.8550798	0.286479	-41.49361836
2.42	242	-0.123	-0.939	-0.093	-14.6677248	-7.7922288	-13.8082878	84.70611072	0.41252976	-41.58529164
2.43	243	-0.078	-0.901	-0.089	-17.8762896	1.145916	-16.6730778	84.52276416	0.57868758	-41.59102122
2.44	244	-0.032	-0.887	-0.086	-19.9389384	6.5317212	-19.0222056	84.32222886	0.76776372	-41.54518458
2.45	245	0.007	-0.885	-0.082	-22.8037284	10.7716104	-20.5691922	84.08731608	0.97975818	-41.45924088
2.46	246	0.037	-0.887	-0.077	-26.642547	13.3499214	-21.3140376	83.81802582	1.19748222	-41.35610844
2.47	247	0.063	-0.876	-0.087	-29.4500412	14.5531332	-21.3140376	83.52008766	1.42093584	-41.23578726
2.48	248	0.088	-0.861	-0.097	-30.4240698	15.5271618	-21.5432208	83.21069034	1.64438946	-41.1097365
2.49	249	0.116	-0.846	-0.096	-29.9657034	15.183387	-22.0015872	82.9070226	1.86784308	-40.98941532
2.5	250	0.143	-0.834	-0.101	-28.361421	13.2926256	-22.631841	82.6205436	2.1199446	-40.89201246
2.51	251	0.165	-0.834	-0.12	-25.496631	9.9121734	-23.4339822	82.3627125	2.35485738	-40.8232575
2.52	252	0.173	-0.839	-0.131	-24.637194	6.1879464	-23.7204612	82.11061098	2.59549974	-40.7946096
2.53	253	0.168	-0.848	-0.143	-25.0955604	1.8334656	-23.5485738	81.85277988	2.82468294	-40.81179834
2.54	254	0.155	-0.853	-0.152	-26.2987722	-2.6356068	-22.7464326	81.58348962	3.04240698	-40.87482372
2.55	255	0.138	-0.853	-0.152	-27.2728008	-7.0473834	-21.5432208	81.29701062	3.25440144	-40.97795616
2.56	256	0.128	-0.861	-0.137	-27.1009134	-12.0894138	-20.340009	81.0162612	3.437748	-41.13265482
2.57	257	0.126	-0.88	-0.127	-26.642547	-16.9595568	-19.480572	80.73551178	3.60390582	-41.33319012
2.58	258	0.132	-0.914	-0.126	-26.1841806	-20.1108258	-19.0795014	80.45476236	3.75860448	-41.56237332
2.59	259	0.133	-0.955	-0.103	-27.501984	-22.6891368	-18.7930224	80.16255378	3.91330314	-41.82020442
2.6	260	0.136	-0.976	-0.092	-29.9657034	-24.2934192	-18.2200644	79.84742688	4.05654264	-42.08949468
2.61	261	0.137	-0.98	-0.083	-31.799169	-24.350715	-17.2460358	79.50938166	4.18832298	-42.36451452
2.62	262	0.142	-0.974	-0.075	-30.8824362	-24.1215318	-16.3865988	79.17706602	4.30864416	-42.63380478
2.63	263	0.144	-0.96	-0.069	-28.2468294	-23.8350528	-15.8136408	78.87339828	4.41750618	-42.89736546
2.64	264	0.133	-0.937	-0.054	-24.4653066	-23.4339822	-15.5844576	78.60410802	4.53209778	-43.16092614
2.65	265	0.114	-0.927	-0.045	-20.340009	-20.7983754	-15.4125702	78.39784314	4.64668938	-43.39583892
2.66	266	0.108	-0.927	-0.054	-17.9908812	-17.5898106	-14.3812458	78.20303742	4.7555514	-43.59637422
2.67	267	0.115	-0.938	-0.055	-13.178034	-18.6784308	-12.1467096	78.05406834	4.8414951	-43.80836868
2.68	268	0.126	-0.947	-0.046	-6.5317212	-24.350715	-10.1986524	77.96812464	4.8987909	-44.06619978
2.69	269	0.132	-0.951	-0.022	1.0313244	-31.1116194	-8.880849	77.95666548	4.9274388	-44.38705626
2.7	270	0.143	-0.959	0.009	6.5317212	-37.1849742	-8.0787078	78.01969086	4.95035712	-44.76520854
2.71	271	0.165	-0.964	0.034	9.2819196	-42.5707794	-7.0473834	78.08271624	4.94462754	-45.19492704
2.72	272	0.195	-0.97	0.051	11.0007936	-47.7274014	-5.6722842	78.15720078	4.91597964	-45.67048218
2.73	273	0.23	-0.975	0.058	12.2040054	-52.3110654	-4.1825934	78.24314448	4.86441342	-46.18614438
2.74	274	0.267	-0.989	0.037	12.7196676	-55.863405	-2.6929026	78.33481776	4.79565846	-46.73618406
2.75	275	0.29	-1.015	-0.004	11.0007936	-60.6762522	-1.3178034	78.42076146	4.7269035	-47.33206038
2.76	276	0.286	-1.041	-0.057	8.1932994	-64.457775	-1.432395	78.46086852	4.62950064	-47.96231418
2.77	277	0.26	-1.059	-0.094	4.583664	-65.89017	-2.578311	78.4665981	4.54355694	-48.6154863
2.78	278	0.217	-1.056	-0.113	-0.286479	-66.9214944	-4.010706	78.42076146	4.4690724	-49.274388
2.79	279	0.159	-1.023	-0.131	-4.6409598	-68.75496	-4.6409598	78.32908818	4.39458786	-49.95620802
2.8	280	0.093	-0.99	-0.179	-6.7036086	-69.9581718	-4.1825934	78.21449658	4.31437374	-50.6494872
2.81	281	0.027	-0.951	-0.249	-8.7089616	-70.0727634	-2.8074942	78.08271624	4.21697088	-51.3370368
2.82	282	-0.053	-0.938	-0.347	-9.1100322	-70.0154676	-1.3750992	77.9509359	4.10810886	-52.0245864
2.83	283	-0.118	-0.951	-0.395	-11.2872726	-70.3592424	-0.0572958	77.79623724	3.97632852	-52.712136
2.84	284	-0.142	-0.968	-0.412	-13.750992	-71.1040878	0.4010706	77.61862026	3.84454818	-53.40541518
2.85	285	-0.127	-0.977	-0.44	-15.183387	-72.192708	0.4010706	77.4066258	3.68984952	-54.11015352
2.86	286	-0.092	-0.985	-0.465	-14.5531332	-75.6877518	0.4010706	77.22327924	3.54088044	-54.84353976
2.87	287	-0.053	-0.989	-0.426	-14.2666542	-82.505952	0.4010706	77.03993268	3.37472262	-55.64568096
2.88	288	-0.015	-0.984	-0.367	-13.4072172	-88.6366026	0.9167328	76.86804528	3.19137606	-56.50511796
2.89	289	0.006	-1.007	-0.332	-14.0947668	-91.100322	2.4064236	76.6904283	2.9793816	-57.38747328
2.9	290	0.016	-1.032	-0.316	-18.334656	-92.4754212	4.6982556	76.46697468	2.74446882	-58.27555818
2.91	291	0.016	-1.039	-0.301	-24.2361234	-91.1576178	6.5317212	76.19195484	2.4923673	-59.14072476
2.92	292	0	-1.037	-0.295	-30.080295	-86.5739538	7.3911582	75.86536878	2.2345362	-59.96578428
2.93	293	-0.035	-1.033	-0.297	-35.1796212	-80.787078	8.2505952	75.49294608	1.97097552	-60.72781842
2.94	294	-0.085	-1.036	-0.315	-40.1643558	-74.5991316	9.2246238	75.06895716	1.71314442	-61.42682718
2.95	295	-0.124	-1.049	-0.367	-46.409598	-67.322565	10.4851314	74.58767244	1.44385416	-62.0513514
2.96	296	-0.144	-1.063	-0.402	-51.9672906	-62.2805346	12.7196676	74.0548215	1.16310474	-62.61857982
2.97	297	-0.136	-1.08	-0.419	-55.6915176	-60.447069	16.4438946	73.48759308	0.85370742	-63.15716034
2.98	298	-0.096	-1.094	-0.428	-59.9887026	-60.5616606	21.4286292	72.8802576	0.48128472	-63.67855212
2.99	299	-0.056	-1.094	-0.433	-64.9734372	-63.598338	27.9603504	72.22708548	0.04010706	-64.20567348
3	300	-0.004	-1.092	-0.455	-69.614397	-67.4944524	33.5753388	71.52807672	-0.46982556	-64.74998358
3.01	301	0.076	-1.103	-0.484	-75.4012728	-72.8229618	39.534102	70.78323132	-1.06570188	-65.317212
3.02	302	0.151	-1.11	-0.494	-79.354683	-83.1362058	44.4615408	70.00400844	-1.74179232	-65.95892496
3.03	303	0.221	-1.104	-0.505	-81.1881486	-98.4341844	48.3003594	69.21905598	-2.51528562	-66.7209591
3.04	304	0.268	-1.075	-0.512	-82.6778394	-118.602306	50.5348956	68.44556268	-3.38618178	-67.65488064
3.05	305	0.283	-1.034	-0.469	-87.0323202	-140.3174142	50.7640788	67.65488064	-4.34302164	-68.77787832
3.06	306	0.252	-0.98	-0.462	-94.5953658	-157.5061542	50.6494872	66.82409154	-5.38007562	-70.04984508
3.07	307	0.169	-0.927	-0.452	-94.251591	-174.2365278	51.9099948	66.03913908	-6.50880288	-71.45359218
3.08	308	0.088	-0.885	-0.44	-83.9956428	-184.4351802	52.9413192	65.39742612	-7.70055552	-72.9375534
3.09	309	0.025	-0.86	-0.29	-80.6151906	-190.4512392	53.7434604	64.82446812	-8.94387438	-74.46735126
3.1	310	-0.054	-0.768	-0.164	-82.8497268	-188.503182	54.6601932	64.26296928	-10.19292282	-75.96277164
3.11	311	-0.136	-0.692	-0.15	-79.6984578	-180.1379952	55.9779966	63.74730708	-11.44197126	-77.37224832
3.12	312	-0.178	-0.656	-0.176	-78.7244292	-164.6108334	58.9000824	63.23164488	-12.6623718	-78.62129676
3.13	313	-0.188	-0.615	-0.181	-77.5785132	-147.7085724	62.8534926	62.7102531	-13.85412444	-79.69272822
3.14	314	-0.171	-0.529	-0.101	-75.5158644	-133.8429888	64.1140002	62.1945909	-15.00577002	-80.62664976
3.15	315	-0.157	-0.47	-0.126	-73.9688778	-113.9040504	63.02538	61.66173996	-16.0714719	-81.37149516
3.16	316	-0.152	-0.422	-0.119	-73.8542862	-98.0331138	60.9627312	61.10024112	-17.05695966	-81.97883064
3.17	317	-0.116	-0.344	-0.135	-72.2500038	-81.4173318	59.7022236	60.51009438	-17.95650372	-82.42573788
3.18	318	-0.065	-0.266	-0.108	-69.4998054	-67.6663398	60.16059	59.91421806	-18.79875198	-82.74086478
3.19	319	-0.027	-0.194	-0.021	-65.89017	-58.6136034	61.0773228	59.3298009	-19.61235234	-82.95858882
3.2	320	0.009	-0.12	-0.038	-63.02538	-52.139178	61.3638018	58.74538374	-20.39157522	-83.1075579
3.21	321	0.059	-0.058	-0.086	-58.2125328	-49.5035712	60.2178858	58.20680322	-21.15360936	-83.23360866
3.22	322	0.11	-0.009	-0.038	-50.5921914	-52.425657	55.863405	57.75989598	-21.89272518	-83.40549606
3.23	323	0.158	0.018	-0.008	-40.6227222	-60.16059	46.982556	57.4676874	-22.59746352	-83.68624548
3.24	324	0.202	0.031	0.102	-30.1375908	-66.3485364	36.5547204	57.3244479	-23.24490606	-84.08731608
3.25	325	0.247	0.016	0.2	-20.05353	-71.1040878	25.8404058	57.34736622	-23.81786406	-84.60297828
3.26	326	0.279	-0.008	0.271	-9.740286	-74.2553568	17.0741484	57.4963353	-24.33925584	-85.19312502
3.27	327	0.29	-0.033	0.328	-0.572958	-82.219473	13.0634424	57.78854388	-24.8663772	-85.8864042
3.28	328	0.252	-0.042	0.395	5.2712136	-94.824549	11.8602306	58.20680322	-25.4393352	-86.71146372
3.29	329	0.18	-0.019	0.412	9.0527364	-107.0858502	11.0580894	58.728195	-26.05812984	-87.662574
3.3	330	0.1	0.032	0.332	10.9434978	-109.0339074	11.0007936	59.30688258	-26.68265406	-88.65379134
3.31	331	0.069	0.044	0.309	10.1986524	-95.111028	10.1413566	59.8168152	-27.22123458	-89.5246875
3.32	332	0.055	0.096	0.309	8.880849	-79.927641	6.9327918	60.26372244	-27.65668266	-90.2695329
3.33	333	0.079	0.152	0.277	11.745639	-69.6716928	2.4064236	60.7049001	-28.00045746	-90.93989376
3.34	334	0.078	0.208	0.15	15.6990492	-63.4837464	-1.0313244	61.17472566	-28.2754773	-91.57587714
3.35	335	0.066	0.24	0.07	21.9442914	-64.8015498	-2.1199446	61.71330618	-28.55049714	-92.23477884
3.36	336	0.026	0.233	0.019	24.0069402	-68.75496	-2.005353	62.30345292	-28.83124656	-92.93951718
3.37	337	0.024	0.198	-0.064	20.9702628	-68.0674104	-0.7448454	62.85922218	-29.11772556	-93.63279636
3.38	338	0.039	0.131	-0.171	23.0902074	-66.1193532	4.010706	63.4264506	-29.42712288	-94.28596848
3.39	339	0.054	0.05	-0.211	24.6944898	-73.2240324	8.6516658	64.03951566	-29.80527516	-95.00216598
3.4	340	0.084	-0.033	-0.201	22.9756158	-87.6052782	12.6623718	64.69268778	-30.25791198	-95.84441424
3.41	341	0.077	-0.147	-0.256	18.7357266	-93.9078162	15.0687954	65.36304864	-30.76211502	-96.76114704
3.42	342	0.047	-0.24	-0.39	12.1467096	-89.8971102	15.0687954	65.95319538	-31.23767016	-97.64350236
3.43	343	0.011	-0.292	-0.436	2.1199446	-87.2042076	15.183387	66.4344801	-31.70176614	-98.50866894
3.44	344	-0.077	-0.418	-0.417	-1.9480572	-84.6831924	16.1001198	66.87565776	-32.16013254	-99.3509172
3.45	345	-0.114	-0.545	-0.396	-18.5065434	-70.8749046	15.9282324	67.05900432	-32.5440144	-100.0441964
3.46	346	-0.067	-0.719	-0.322	-33.804522	-58.728195	18.907614	67.02462684	-32.93362584	-100.6056952
3.47	347	-0.096	-0.924	-0.24	-38.674665	-38.7892566	32.372127	66.79544364	-33.3748035	-100.8864446
3.48	348	-0.079	-1.185	-0.098	-52.7694318	-27.9603504	50.8786704	66.30269976	-33.9477615	-100.9609292
3.49	349	0.144	-1.238	0.008	-73.6823988	-19.194093	66.9214944	65.49482898	-34.6353111	-100.8520672
3.5	350	0.323	-1.187	0.059	-88.3501236	-18.334656	83.938347	64.49788206	-35.44891146	-100.6458023
3.51	351	0.418	-0.974	0.105	-105.4815678	-39.3622146	117.3990942	63.32904774	-36.669312	-100.4624557
3.52	352	0.116	-0.805	-0.107	-111.3257394	-78.6671334	161.0584938	62.1945909	-38.4454818	-100.4338078
3.53	353	-0.59	-0.791	-0.542	-118.7168976	-115.0499664	207.0097254	61.05440448	-40.78315044	-100.5025628
3.54	354	-1.585	-1.093	-1.205	-116.883432	-149.3128548	257.544621	59.94286596	-43.72242498	-100.5770473
3.55	355	-2.746	-1.903	-1.525	-71.1613836	-215.2030248	314.7258294	59.56471368	-47.45238156	-101.0067658
3.56	356	-3.855	-2.652	-1.236	-42.9145542	-283.5569142	346.353111	60.0459984	-51.77821446	-102.1526818
3.57	357	-3.994	-2.464	-0.73	-51.6235158	-298.1673432	334.6647678	60.91116498	-56.0639403	-103.81426
3.58	358	-3.714	-1.71	-0.389	-63.6556338	-263.2169052	303.0374862	61.71903576	-59.89702932	-105.4815678
3.59	359	-3.869	-1.932	-0.333	-22.91832	-134.931609	213.3695592	61.86800484	-62.3664783	-105.8940976
3.6	360	-3.993	-0.19	-0.152	-188.6177736	-43.831287	261.8991018	58.155237	-64.85311602	-103.8772854
3.61	361	-3.999	2.9	-0.266	-316.4447034	68.1247062	353.0567196	49.0452048	-67.33975374	-97.43723748
3.62	362	-3.471	2.775	0.687	-245.4552072	60.9627312	368.6411772	38.80071576	-69.49407582	-89.10069858
3.63	363	-2.134	1.262	-0.173	85.657221	-106.1118216	283.2131394	35.1223254	-71.99790228	-84.26493306
3.64	364	-2.057	0.783	-1.601	117.3990942	-51.9099948	230.2145244	31.0829715	-73.65948048	-78.781725
3.65	365	-1.374	0.243	-0.766	-5.156622	46.5814854	203.5146816	24.01266978	-74.198061	-71.48224008
3.66	366	-1.461	0.009	-0.5	9.453807	19.7097552	201.0509622	17.12571462	-74.72518236	-64.23432138
3.67	367	-1.635	-0.501	-0.343	19.3659804	-2.291832	187.0134912	10.64555964	-75.19500792	-57.31298874
3.68	368	-1.49	-0.59	-0.136	-8.9381448	-26.7571386	192.7430712	3.39191136	-75.69921096	-49.9046418
3.69	369	-1.721	0.131	-0.079	-45.4928652	-48.3576552	209.0723742	-5.33996856	-76.15184778	-41.3675676
3.7	370	-1.99	0.31	0.131	-42.112413	-47.8992888	192.8576628	-13.76818074	-76.3180056	-33.12270198
3.71	371	-1.855	0.315	0.173	-28.361421	-37.1276784	156.131055	-20.5405443	-76.22060274	-26.4420117
3.72	372	-1.394	0.518	0.015	-11.2872726	-17.5325148	130.8063114	-25.7258142	-75.87682794	-21.21090516
3.73	373	-1.204	0.59	-0.109	4.5263682	5.5576926	116.9407278	-29.5932807	-75.2866812	-17.17155126
3.74	374	-1.047	0.551	-0.121	15.2979786	12.032118	112.872726	-32.77892718	-74.60486118	-13.70515536
3.75	375	-0.821	0.478	-0.052	22.631841	8.9954406	102.7886652	-35.4661002	-73.95168906	-10.6856667
3.76	376	-0.67	0.4	-0.066	25.1528562	2.86479	90.2981808	-37.60896312	-73.3959198	-8.18756982
3.77	377	-0.625	0.364	-0.036	23.204799	-5.6722842	83.7091638	-39.6200457	-72.92609424	-5.83271244
3.78	378	-0.65	0.436	-0.012	20.05353	-14.9542038	81.8756982	-41.69415366	-72.5078349	-3.44347758
3.79	379	-0.628	0.486	0.021	16.902261	-25.0382646	79.1827956	-43.84274616	-72.1640601	-1.00840608
3.8	380	-0.593	0.522	0.048	14.037471	-32.8877892	71.9635248	-46.04290488	-71.88331068	1.44385416
3.81	381	-0.574	0.535	-0.001	6.302538	-31.6845774	62.452422	-47.93939586	-71.6483979	3.51223254
3.82	382	-0.549	0.564	-0.045	0.8021412	-26.1268848	51.852699	-49.51503036	-71.44213302	5.19099948
3.83	383	-0.533	0.618	-0.07	0.9740286	-23.8350528	40.4508348	-50.78699712	-71.28743436	6.54890994
3.84	384	-0.544	0.653	-0.07	1.0886202	-25.9549974	29.6219286	-51.89280606	-71.22440898	7.734933
3.85	385	-0.49	0.708	-0.011	11.4018642	-32.5440144	19.9962342	-53.03872206	-71.22440898	9.04700682
3.86	386	-0.432	0.667	-0.004	23.204799	-34.7785506	11.2872726	-53.78356746	-71.34473016	10.08979038
3.87	387	-0.479	0.603	0.001	32.2575354	-41.0810886	7.2765666	-54.52268328	-71.5338063	11.22424722
3.88	388	-0.54	0.585	-0.011	33.1742682	-50.5348956	6.589017	-55.4909823	-71.77444866	12.605076
3.89	389	-0.576	0.549	-0.016	35.3515086	-58.2698286	3.0366774	-56.59679124	-72.08957556	14.1520626
3.9	390	-0.616	0.538	-0.018	30.5386614	-62.9107884	-1.0313244	-57.93751296	-72.4218912	15.88239576
3.91	391	-0.615	0.511	-0.005	27.215505	-63.1972674	-7.734933	-59.18083182	-72.82869138	17.48667816
3.92	392	-0.62	0.455	0.031	21.772404	-61.9367598	-10.7716104	-60.4757169	-73.24122114	19.0795014
3.93	393	-0.708	0.429	0.044	14.7823164	-55.2331512	-18.7357266	-61.592985	-73.6823988	20.40876396
3.94	394	-0.826	0.411	0.022	2.1199446	-44.977203	-18.5065434	-62.60139108	-74.06628066	21.485925
3.95	395	-0.892	0.423	-0.029	-0.859437	-25.0955604	-15.3552744	-63.26602236	-74.2840047	22.16201544
3.96	396	-0.958	0.429	-0.082	2.578311	-13.8655836	-18.621135	-63.3691548	-74.51891748	22.29952536
3.97	397	-0.919	0.454	-0.111	-1.5469866	-6.1306506	-23.8923486	-63.19153782	-74.75955984	22.09899006
3.98	398	-0.901	0.521	-0.116	-9.3392154	1.0313244	-26.8717302	-62.80765596	-74.98874304	21.6005166
3.99	399	-0.874	0.522	-0.114	-9.0527364	7.9068204	-33.518043	-62.06281056	-75.24657414	20.73535002
4	400	-0.912	0.483	-0.041	-9.2819196	10.6570188	-37.7579322	-61.24348062	-75.50440524	19.77851016
4.01	401	-1.056	0.434	-0.005	-9.6256944	21.1421502	-40.966497	-59.86265184	-75.75077718	18.2487123
4.02	402	-1.204	0.46	-0.032	-3.6669312	38.3308902	-48.70143	-57.64530438	-75.95704206	15.91677324
4.03	403	-1.26	0.499	-0.054	6.9900876	48.987909	-51.1651494	-54.84926934	-76.10028156	13.10354946
4.04	404	-1.289	0.526	-0.112	12.7769634	54.3164184	-44.8626114	-51.93291312	-76.12319988	10.22157072
4.05	405	-1.309	0.549	-0.17	18.3919518	55.7488134	-39.0184398	-49.09104144	-76.05444492	7.4771019
4.06	406	-1.271	0.561	-0.183	23.7204612	53.7434604	-35.5806918	-46.3523022	-75.9455829	4.89306132
4.07	407	-1.241	0.559	-0.248	31.3980984	48.70143	-35.1223254	-43.7166954	-75.84245046	2.50382646
4.08	408	-1.221	0.505	-0.243	35.809875	43.258329	-36.2109456	-41.18422104	-75.75650676	0.2578311
4.09	409	-1.207	0.442	-0.155	33.518043	36.8984952	-35.523396	-38.86947072	-75.69921096	-1.7761698
4.1	410	-1.207	0.398	-0.067	29.9084076	33.9191136	-36.7266078	-36.70368948	-75.64764474	-3.71276784
4.11	411	-1.256	0.389	-0.05	31.1116194	35.4661002	-34.7212548	-34.51498992	-75.55597146	-5.64936588
4.12	412	-1.309	0.425	-0.013	33.1169724	41.9405256	-34.2628884	-32.2288875	-75.38981364	-7.67190762
4.13	413	-1.278	0.461	-0.003	39.0757356	49.847346	-35.1223254	-29.75943852	-75.13771212	-9.82050012
4.14	414	-1.258	0.48	-0.07	50.8213746	54.717489	-31.51269	-27.28425996	-74.7996669	-11.85450102
4.15	415	-1.16	0.414	-0.208	61.7648724	55.9207008	-30.7678446	-24.84918846	-74.4272442	-13.74526242
4.16	416	-1.018	0.335	-0.119	57.0666168	51.5089242	-33.231564	-22.50006066	-74.07773982	-15.59591676
4.17	417	-0.876	0.306	-0.057	59.7022236	41.3102718	-36.8984952	-20.20249908	-73.8256383	-17.35489782
4.18	418	-0.73	0.214	-0.115	66.0620574	38.7892566	-41.252976	-17.79607548	-73.58499594	-19.17117468
4.19	419	-0.62	0.079	-0.281	65.030733	42.112413	-38.4454818	-15.52143222	-73.28705778	-20.86140078
4.2	420	-0.61	-0.057	-0.303	51.2224452	23.6058696	-34.3201842	-13.65358914	-73.12662954	-22.27087746
4.21	421	-0.547	-0.181	-0.389	37.5860448	18.2773602	-19.7097552	-12.5191323	-72.98911962	-23.0615595
4.22	422	-0.504	-0.334	-0.443	24.4080108	14.9542038	-4.4117766	-12.032118	-72.8516097	-23.31366102
4.23	423	-0.398	-0.457	-0.374	7.7922288	7.9641162	5.8441716	-12.0894138	-72.75993642	-23.17042152
4.24	424	-0.366	-0.458	-0.384	-6.9900876	4.0680018	7.7922288	-12.38735196	-72.70264062	-22.93550874
4.25	425	-0.396	-0.373	-0.428	-17.2460358	-2.0626488	5.0420304	-12.53632104	-72.6797223	-22.94123832
4.26	426	-0.515	-0.227	-0.375	-18.9649098	-18.621135	1.6615782	-12.90301416	-72.85733928	-22.76362134
4.27	427	-0.653	-0.091	-0.285	-16.615782	-39.820581	-0.1145916	-13.32700308	-73.24695072	-22.4886015
4.28	428	-0.764	-0.016	-0.231	-14.2093584	-44.0031744	-3.6669312	-13.64785956	-73.6823988	-22.29379578
4.29	429	-0.883	0.047	-0.255	-11.6883432	-35.523396	-8.9954406	-13.7223441	-74.04909192	-22.33963242
4.3	430	-0.909	0.063	-0.334	-7.7922288	-21.2567418	-14.3812458	-13.4358651	-74.26108638	-22.7177847
4.31	431	-0.91	0	-0.404	-3.2658606	-11.1153852	-21.1421502	-12.81707046	-74.41578504	-23.39387514
4.32	432	-0.944	-0.062	-0.431	-4.583664	-5.9587632	-26.4133638	-11.98055178	-74.53037664	-24.31060794
4.33	433	-0.957	-0.091	-0.403	-7.7922288	-5.156622	-26.5852512	-11.15549226	-74.63350908	-25.24452948
4.34	434	-0.975	-0.1	-0.372	-10.7143146	-9.2246238	-22.0015872	-10.53669762	-74.76528942	-26.00083404
4.35	435	-1.005	-0.102	-0.352	-12.9488508	-17.4179232	-13.9228794	-10.15281576	-74.94863598	-26.52222582
4.36	436	-1.052	-0.105	-0.336	-11.9748222	-23.3193906	-9.2819196	-10.06687206	-75.19500792	-26.73994986
4.37	437	-1.116	-0.088	-0.282	-11.5164558	-25.3820394	-6.1879464	-10.08979038	-75.4585686	-26.83162314
4.38	438	-1.136	-0.076	-0.238	-10.0840608	-25.210152	-4.9274388	-10.15281576	-75.71067012	-26.8717302
4.39	439	-1.124	-0.061	-0.216	-8.1932994	-23.8923486	-3.6669312	-10.23302988	-75.95131248	-26.8717302
4.4	440	-1.102	-0.039	-0.201	-7.2765666	-24.350715	-1.0886202	-10.35335106	-76.20914358	-26.8144344
4.41	441	-1.072	-0.009	-0.184	-6.875496	-25.1528562	1.6042824	-10.64555964	-76.45551552	-26.57952162
4.42	442	-1.049	0.026	-0.17	-7.6776372	-24.2934192	4.010706	-11.05235982	-76.68469872	-26.2414764
4.43	443	-1.041	0.066	-0.151	-9.740286	-21.0848544	6.1879464	-11.56229244	-76.87950444	-25.81748748
4.44	444	-1.05	0.102	-0.138	-11.5164558	-18.1054728	7.5057498	-12.13525044	-77.03993268	-25.34766192
4.45	445	-1.064	0.127	-0.124	-12.3758928	-15.2979786	8.7089616	-12.85717752	-77.19463134	-24.73459686
4.46	446	-1.061	0.13	-0.111	-12.032118	-12.5477802	9.6829902	-13.51034964	-77.2920342	-24.19028676
4.47	447	-1.047	0.118	-0.124	-11.0007936	-9.7975818	9.9694692	-14.14633302	-77.36651874	-23.65170624
4.48	448	-1.032	0.09	-0.149	-11.2299768	-6.1306506	10.1986524	-14.76512766	-77.40089622	-23.13031446
4.49	449	-1.008	0.07	-0.171	-13.4072172	-2.6356068	10.3705398	-15.37819272	-77.40089622	-22.64330016
4.5	450	-0.976	0.059	-0.174	-15.4125702	-0.572958	10.5424272	-16.0141761	-77.38943706	-22.15055628
4.51	451	-0.934	0.068	-0.152	-16.5584862	-0.859437	10.4278356	-16.65015948	-77.37224832	-21.67500114
4.52	452	-0.914	0.098	-0.137	-16.4438946	-1.7761698	9.9694692	-17.26895412	-77.36078916	-21.21090516
4.53	453	-0.906	0.143	-0.124	-15.9282324	-2.2345362	9.6829902	-17.87056002	-77.35505958	-20.75826834
4.54	454	-0.913	0.196	-0.12	-15.1260912	-3.4950438	9.2819196	-18.47216592	-77.36078916	-20.29990194
4.55	455	-0.921	0.243	-0.111	-13.1207382	-5.6149884	8.4224826	-19.37170998	-77.39516664	-19.52640864
4.56	456	-0.941	0.275	-0.101	-11.5164558	-7.2765666	7.9068204	-19.92747924	-77.44100328	-19.0795014
4.57	457	-0.968	0.298	-0.115	-9.8548776	-7.5630456	7.734933	-20.46605976	-77.48683992	-18.62686458
4.58	458	-0.986	0.295	-0.136	-7.8495246	-4.7555514	6.1879464	-20.87858952	-77.50975824	-18.28881936
4.59	459	-0.994	0.279	-0.168	-6.0733548	-0.9167328	2.9220858	-21.07912482	-77.50975824	-18.14557986
4.6	460	-0.989	0.258	-0.189	-5.8441716	1.7761698	0.3437748	-21.79532232	-77.44100328	-17.50959648
4.61	461	-0.981	0.229	-0.199	-5.72958	3.7815228	-1.9480572	-21.7151082	-77.41235538	-17.65283598
4.62	462	-0.973	0.196	-0.203	-6.3598338	5.0993262	-4.0680018	-21.53749122	-77.38370748	-17.89920792
4.63	463	-0.969	0.168	-0.212	-8.880849	5.9014674	-5.5576926	-21.3140376	-77.34933	-18.22579398
4.64	464	-0.968	0.151	-0.236	-11.0580894	5.3285094	-6.4744254	-21.0848544	-77.3206821	-18.57529836
4.65	465	-0.974	0.14	-0.247	-12.8342592	3.3804522	-6.6463128	-20.98172196	-77.28630462	-18.81594072
4.66	466	-0.983	0.149	-0.237	-13.6364004	0.286479	-6.589017	-20.84994162	-77.30922294	-19.09669014
4.67	467	-0.991	0.165	-0.221	-12.891555	-3.6096354	-6.589017	-20.7697275	-77.36651874	-19.31441418
4.68	468	-1.005	0.182	-0.209	-10.9434978	-6.4171296	-6.875496	-20.68951338	-77.45246244	-19.5092199
4.69	469	-1.01	0.185	-0.198	-7.9068204	-7.6776372	-6.9327918	-20.5978401	-77.54413572	-19.68683688
4.7	470	-1.013	0.183	-0.19	-5.5003968	-8.59437	-7.1046792	-20.67805422	-77.64153858	-19.66964814
4.71	471	-1.009	0.173	-0.183	-3.0366774	-8.4224826	-7.5630456	-20.50616682	-77.7504006	-19.87591302
4.72	472	-1	0.159	-0.18	-1.0313244	-8.0787078	-8.307891	-20.27698362	-77.85353304	-20.12228496
4.73	473	-0.992	0.145	-0.176	0.4583664	-8.307891	-8.9381448	-20.00196378	-77.96239506	-20.39157522
4.74	474	-0.99	0.13	-0.169	1.2605076	-8.4797784	-9.6256944	-19.68683688	-78.07698666	-20.70097254
4.75	475	-0.993	0.122	-0.157	1.718874	-8.7662574	-10.0840608	-19.47484242	-78.19730784	-20.90723742
4.76	476	-0.999	0.118	-0.141	1.6042824	-8.9954406	-10.599723	-19.1081493	-78.31762902	-21.26247138
4.77	477	-1.007	0.119	-0.126	1.6042824	-8.9381448	-10.886202	-18.71853786	-78.4379502	-21.64062366
4.78	478	-1.011	0.123	-0.117	2.291832	-8.59437	-11.0580894	-18.3060081	-78.5525418	-22.04169426
4.79	479	-1.009	0.124	-0.113	3.3804522	-7.3338624	-11.0580894	-17.8476417	-78.65567424	-22.47141276
4.8	480	-1.008	0.124	-0.11	4.2398892	-5.5576926	-10.886202	-17.55543312	-78.76453626	-22.72924386
4.81	481	-1.007	0.116	-0.113	4.9274388	-3.437748	-10.4851314	-17.0455005	-78.82756164	-23.19906942
4.82	482	-0.997	0.096	-0.126	5.2139178	-1.6042824	-9.3392154	-16.5584862	-78.87339828	-23.64024708
4.83	483	-0.988	0.07	-0.144	4.5263682	-0.572958	-7.8495246	-16.13449728	-78.8963166	-24.02412894
4.84	484	-0.969	0.048	-0.148	3.0939732	-1.4896908	-6.2452422	-15.8136408	-78.93069408	-24.31633752
4.85	485	-0.954	0.031	-0.148	1.718874	-3.2085648	-4.7555514	-15.53289138	-78.99944904	-24.5798982
4.86	486	-0.952	0.025	-0.152	0.6875496	-3.6096354	-3.5523396	-15.39538146	-79.0395561	-24.71740812
4.87	487	-0.943	0.025	-0.152	-0.7448454	-2.86479	-2.86479	-15.29224902	-79.07966316	-24.82627014
4.88	488	-0.949	0.032	-0.157	-1.7761698	-0.6875496	-2.578311	-15.18911658	-79.09112232	-24.9523209
4.89	489	-0.951	0.04	-0.156	-2.005353	2.4064236	-2.7501984	-15.04587708	-79.07393358	-25.1242083
4.9	490	-0.948	0.046	-0.151	-1.4896908	4.6982556	-2.6356068	-14.93128548	-79.05674484	-25.25598864
4.91	491	-0.96	0.05	-0.149	-1.145916	6.1306506	-1.718874	-14.78804598	-78.99944904	-25.41641688
4.92	492	-0.964	0.05	-0.153	-1.0886202	7.161975	-0.8021412	-14.67918396	-78.93642366	-25.54246764
4.93	493	-0.961	0.053	-0.154	-1.3178034	7.6203414	0.286479	-14.62188816	-78.86193912	-25.6112226
4.94	494	-0.967	0.059	-0.161	-1.3178034	8.0787078	1.718874	-14.62761774	-78.77599542	-25.61695218
4.95	495	-0.97	0.063	-0.165	-0.6302538	8.8235532	2.9220858	-14.77085724	-78.6957813	-25.48517184
4.96	496	-0.98	0.071	-0.165	0.0572958	9.167328	4.0680018	-14.86253052	-78.59264886	-25.39349856
4.97	497	-0.996	0.083	-0.161	1.3178034	8.7662574	5.0993262	-14.98858128	-78.495246	-25.25025906
4.98	498	-1.014	0.099	-0.154	2.9793816	7.2765666	6.2452422	-15.17192784	-78.4093023	-25.03253502
4.99	499	-1.027	0.111	-0.151	4.870143	5.6722842	6.9900876	-15.3839223	-78.34054734	-24.76897434
5	500	-1.027	0.119	-0.152	6.2452422	5.3285094	7.448454	-15.76207458	-78.27752196	-24.3220671
5.01	501	-1.018	0.123	-0.156	7.2192708	5.5576926	7.734933	-15.97406904	-78.20303742	-24.02985852
5.02	502	-1.007	0.123	-0.162	8.0787078	5.8441716	7.6776372	-16.16887476	-78.1228233	-23.7491091
5.03	503	-0.997	0.124	-0.17	8.4797784	6.1879464	7.3338624	-16.34076216	-78.04260918	-23.48554842
5.04	504	-0.991	0.126	-0.175	8.59437	6.4744254	6.7609044	-16.4725425	-77.96239506	-23.2620948
5.05	505	-0.984	0.128	-0.179	8.8235532	6.0733548	5.9587632	-16.73610318	-77.88218094	-22.90686084
5.06	506	-0.977	0.13	-0.185	9.6256944	4.9274388	4.870143	-16.79339898	-77.81915556	-22.75216218
5.07	507	-0.969	0.126	-0.186	10.4278356	3.8961144	3.9534102	-16.81058772	-77.76758934	-22.62611142
5.08	508	-0.964	0.121	-0.187	10.4851314	3.6669312	3.2658606	-16.79912856	-77.7217527	-22.52870856
5.09	509	-0.958	0.115	-0.185	10.0840608	3.8961144	2.6356068	-16.7590215	-77.67591606	-22.46568318
5.1	510	-0.954	0.112	-0.184	9.6829902	3.8388186	2.1199446	-16.85642436	-77.63007942	-22.27087746
5.11	511	-0.953	0.106	-0.189	9.6829902	3.437748	1.8907614	-16.79912856	-77.58997236	-22.2307704
5.12	512	-0.957	0.1	-0.188	9.2246238	2.6356068	2.005353	-16.75329192	-77.55559488	-22.17920418
5.13	513	-0.964	0.093	-0.188	7.9068204	1.8907614	2.005353	-16.73610318	-77.53267656	-22.1161788
5.14	514	-0.962	0.092	-0.195	5.5576926	1.6615782	2.4637194	-16.76475108	-77.50975824	-22.0302351
5.15	515	-0.963	0.103	-0.2	3.437748	1.7761698	2.86479	-17.09133714	-77.4639216	-21.67500114
5.16	516	-0.964	0.115	-0.199	1.9480572	2.1772404	3.0366774	-17.17155126	-77.4352737	-21.56613912
5.17	517	-0.966	0.128	-0.195	0.6875496	2.8074942	2.6356068	-17.2460358	-77.40089622	-21.485925
5.18	518	-0.973	0.136	-0.194	-0.1718874	3.0366774	1.9480572	-17.29760202	-77.36651874	-21.44008836
5.19	519	-0.979	0.14	-0.196	-0.859437	3.0366774	0.9167328	-17.30906118	-77.33214126	-21.43435878
5.2	520	-0.981	0.143	-0.2	-1.6615782	2.9793816	-0.0572958	-17.9049375	-77.26911588	-20.87285994
5.21	521	-0.977	0.143	-0.206	-1.8334656	2.5210152	-1.0313244	-17.8476417	-77.24619756	-20.95307406
5.22	522	-0.967	0.14	-0.212	-1.3750992	1.8334656	-2.0626488	-17.75596842	-77.2347384	-21.06193608
5.23	523	-0.958	0.135	-0.216	-1.145916	0.6875496	-2.8074942	-17.64137682	-77.2347384	-21.19371642
5.24	524	-0.952	0.128	-0.216	-1.0313244	-0.286479	-3.3804522	-17.51532606	-77.24619756	-21.33122634
5.25	525	-0.947	0.118	-0.213	-1.145916	-1.145916	-3.7815228	-17.6757543	-77.22900882	-21.199446
5.26	526	-0.946	0.11	-0.209	-1.2605076	-1.8334656	-4.1825934	-17.5325148	-77.25765672	-21.35414466
5.27	527	-0.944	0.104	-0.202	-1.4896908	-2.9793816	-4.4690724	-17.39500488	-77.29776378	-21.5145729
5.28	528	-0.945	0.097	-0.196	-1.6042824	-4.297185	-4.6982556	-17.26322454	-77.35505958	-21.66354198
5.29	529	-0.946	0.095	-0.195	-1.718874	-5.3285094	-4.8128472	-17.13717378	-77.41808496	-21.80678148
5.3	530	-0.946	0.091	-0.191	-1.718874	-5.8441716	-4.6409598	-17.13717378	-77.48683992	-21.83542938
5.31	531	-0.948	0.089	-0.188	-2.1772404	-5.7868758	-4.5263682	-17.03404134	-77.55559488	-21.96148014
5.32	532	-0.956	0.087	-0.185	-2.4637194	-5.443101	-4.2398892	-16.94236806	-77.61862026	-22.08180132
5.33	533	-0.966	0.085	-0.18	-2.9220858	-5.0420304	-4.010706	-16.85642436	-77.68164564	-22.2021225
5.34	534	-0.975	0.085	-0.175	-3.0939732	-4.870143	-3.7815228	-16.78193982	-77.73894144	-22.31098452
5.35	535	-0.983	0.082	-0.17	-3.0939732	-4.7555514	-3.437748	-16.83350604	-77.81342598	-22.29379578
5.36	536	-0.988	0.08	-0.166	-3.3804522	-4.583664	-2.86479	-16.79339898	-77.8649922	-22.36255074
5.37	537	-0.99	0.084	-0.166	-3.437748	-4.2398892	-2.1199446	-16.7876694	-77.91082884	-22.40838738
5.38	538	-0.989	0.089	-0.166	-3.3804522	-4.010706	-1.3750992	-16.81058772	-77.95666548	-22.41984654
5.39	539	-0.99	0.092	-0.166	-2.9220858	-3.9534102	-0.859437	-16.85069478	-77.99677254	-22.40838738
5.4	540	-0.988	0.096	-0.167	-2.291832	-3.8388186	-0.6302538	-17.20019916	-78.05979792	-22.0875309
5.41	541	-0.988	0.099	-0.164	-1.6042824	-3.8961144	-0.572958	-17.24030622	-78.09990498	-22.06461258
5.42	542	-0.987	0.097	-0.161	-0.9167328	-4.2398892	-0.4010706	-17.28614286	-78.14001204	-22.02450552
5.43	543	-0.983	0.097	-0.159	-0.6302538	-4.4117766	-0.1718874	-17.33770908	-78.1801191	-21.97866888
5.44	544	-0.982	0.097	-0.155	-0.2291832	-4.4117766	0	-17.39500488	-78.22595574	-21.92137308
5.45	545	-0.98	0.098	-0.152	0.1718874	-4.0680018	0.1718874	-17.99661078	-78.31189944	-21.32549676
5.46	546	-0.977	0.099	-0.15	0.2291832	-3.2658606	0.3437748	-18.05390658	-78.34627692	-21.26247138
5.47	547	-0.979	0.101	-0.153	0.4583664	-2.005353	0.572958	-18.1054728	-78.36346566	-21.20517558
5.48	548	-0.983	0.102	-0.153	0.8021412	-1.2605076	0.572958	-18.13985028	-78.37492482	-21.15933894
5.49	549	-0.988	0.104	-0.151	1.145916	-0.7448454	0.7448454	-18.17422776	-78.37492482	-21.1135023
5.5	550	-0.99	0.108	-0.151	1.4896908	-0.4010706	0.6875496	-19.06231266	-78.4379502	-20.2254174
5.51	551	-0.989	0.109	-0.154	1.9480572	-0.3437748	0.7448454	-19.08523098	-78.4379502	-20.18531034
5.52	552	-0.988	0.109	-0.154	2.3491278	-0.1718874	0.8021412	-19.09669014	-78.4379502	-20.14520328
5.53	553	-0.985	0.11	-0.153	2.5210152	0.1718874	0.859437	-19.1081493	-78.43222062	-20.10509622
5.54	554	-0.984	0.108	-0.155	2.9220858	0.3437748	0.8021412	-19.1081493	-78.42649104	-20.07644832
5.55	555	-0.985	0.106	-0.155	3.151269	0.5156622	0.7448454	-19.58370444	-78.44367978	-19.57797486
5.56	556	-0.988	0.107	-0.155	3.151269	0.8021412	0.6302538	-19.5665157	-78.43222062	-19.56078612
5.57	557	-0.99	0.108	-0.155	3.0939732	1.0886202	0.5156622	-19.54359738	-78.42076146	-19.55505654
5.58	558	-0.993	0.107	-0.155	3.2085648	1.2605076	0.5156622	-19.5092199	-78.40357272	-19.55505654
5.59	559	-0.993	0.107	-0.156	3.2085648	1.3178034	0.4010706	-19.47484242	-78.39211356	-19.55505654
5.6	560	-0.992	0.107	-0.154	3.0366774	1.5469866	0.286479	-19.87018344	-78.40357272	-19.1367972
5.61	561	-0.989	0.111	-0.157	2.9220858	2.0626488	0.1718874	-19.81861722	-78.3806544	-19.1654451
5.62	562	-0.988	0.113	-0.162	3.0366774	2.5210152	0.0572958	-19.74986226	-78.35773608	-19.19982258
5.63	563	-0.983	0.112	-0.159	3.2085648	2.3491278	-0.1718874	-19.66964814	-78.33481776	-19.2513888
5.64	564	-0.981	0.109	-0.162	3.2658606	1.9480572	-0.286479	-19.58943402	-78.31762902	-19.29722544
5.65	565	-0.978	0.104	-0.157	2.9220858	2.1199446	-0.4583664	-19.87591302	-78.3233586	-18.98782812
5.66	566	-0.975	0.104	-0.157	1.9480572	2.6929026	-0.6875496	-19.78423974	-78.30044028	-19.06231266
5.67	567	-0.974	0.107	-0.162	1.3750992	3.4950438	-0.859437	-19.67537772	-78.27179238	-19.15971552
5.68	568	-0.975	0.107	-0.16	0.9740286	3.9534102	-1.0313244	-19.56078612	-78.2374149	-19.26857754
5.69	569	-0.972	0.103	-0.16	1.0886202	3.7815228	-1.0886202	-19.44046494	-78.20303742	-19.37743956
5.7	570	-0.966	0.098	-0.16	1.3750992	3.6096354	-1.0313244	-19.58370444	-78.19157826	-19.22847048
5.71	571	-0.964	0.088	-0.158	1.2032118	3.6669312	-0.6875496	-19.480572	-78.16293036	-19.32014376
5.72	572	-0.965	0.085	-0.16	0.4010706	4.4690724	-0.5156622	-19.38889872	-78.1228233	-19.41181704
5.73	573	-0.965	0.087	-0.166	-0.1145916	5.156622	-0.4583664	-19.29722544	-78.07125708	-19.5092199
5.74	574	-0.968	0.089	-0.171	-0.2291832	5.0420304	-0.3437748	-19.21128174	-78.02542044	-19.5951636
5.75	575	-0.971	0.088	-0.173	0	4.297185	-0.286479	-19.37170998	-77.99677254	-19.44619452
5.76	576	-0.974	0.085	-0.178	-0.1145916	3.724227	-0.1718874	-19.3086846	-77.96239506	-19.5092199
5.77	577	-0.977	0.086	-0.185	-0.286479	3.2085648	-0.0572958	-19.26857754	-77.93374716	-19.56078612
5.78	578	-0.976	0.085	-0.187	-0.3437748	2.3491278	0.2291832	-19.24565922	-77.91082884	-19.57797486
5.79	579	-0.973	0.087	-0.187	-0.5156622	1.5469866	0.572958	-19.25711838	-77.8936401	-19.57797486
5.8	580	-0.969	0.089	-0.188	-0.9167328	1.2032118	0.8021412	-19.57797486	-77.8649922	-19.27430712
5.81	581	-0.968	0.092	-0.188	-1.145916	0.9740286	0.9740286	-19.6238115	-77.84780346	-19.23992964
5.82	582	-0.967	0.096	-0.189	-1.2032118	0.572958	1.0313244	-19.67537772	-77.84207388	-19.19982258
5.83	583	-0.968	0.1	-0.187	-1.2605076	0.286479	0.9740286	-19.72694394	-77.8363443	-19.15971552
5.84	584	-0.97	0.102	-0.184	-1.2605076	0	0.8021412	-19.77851016	-77.83061472	-19.12533804
5.85	585	-0.973	0.102	-0.181	-1.4896908	-0.0572958	0.6302538	-20.4259527	-77.82488514	-18.50081382
5.86	586	-0.973	0.103	-0.179	-1.7761698	0.1145916	0.5156622	-20.46605976	-77.81915556	-18.4778955
5.87	587	-0.971	0.106	-0.179	-2.005353	0.4010706	0.572958	-20.50616682	-77.81342598	-18.45497718
5.88	588	-0.966	0.106	-0.18	-1.9480572	0.6302538	0.572958	-20.54627388	-77.8076964	-18.43778844
5.89	589	-0.964	0.11	-0.183	-1.718874	0.7448454	0.6302538	-20.58065136	-77.79623724	-18.4205997
5.9	590	-0.96	0.112	-0.185	-1.2032118	0.572958	0.6875496	-21.29111928	-77.74467102	-17.73877968
5.91	591	-0.96	0.113	-0.187	-0.859437	0.1145916	0.572958	-21.32549676	-77.73894144	-17.71586136
5.92	592	-0.963	0.112	-0.186	-0.4583664	-0.6302538	0.4583664	-21.35987424	-77.74467102	-17.68148388
5.93	593	-0.968	0.107	-0.184	-0.1145916	-1.145916	0.3437748	-21.39425172	-77.7504006	-17.6471064
5.94	594	-0.972	0.103	-0.178	0.0572958	-1.718874	0.0572958	-21.42289962	-77.76758934	-17.6184585
5.95	595	-0.98	0.098	-0.172	0.0572958	-2.291832	0	-21.8583477	-77.81915556	-17.19446958
5.96	596	-0.984	0.099	-0.169	0	-2.4064236	0	-21.89845476	-77.84207388	-17.14863294
5.97	597	-0.985	0.101	-0.167	-0.4583664	-2.005353	0.1145916	-21.93856182	-77.85926262	-17.10852588
5.98	598	-0.984	0.105	-0.167	-0.7448454	-1.0886202	0.1718874	-21.9729393	-77.87072178	-17.08560756
5.99	599	-0.984	0.109	-0.169	-0.8021412	-0.3437748	0.2291832	-22.0015872	-77.87645136	-17.06841882
6	600	-0.981	0.113	-0.171	-0.572958	-0.0572958	0.2291832	-23.85797112	-77.8936401	-15.25214196
6.01	601	-0.978	0.113	-0.173	-0.2291832	0.2291832	0.0572958	-23.85797112	-77.88791052	-15.25787154
6.02	602	-0.978	0.109	-0.172	0	0.286479	0	-23.85224154	-77.88791052	-15.26360112
6.03	603	-0.978	0.105	-0.172	-0.0572958	0.6302538	-0.1718874	-23.8350528	-77.88218094	-15.28078986
6.04	604	-0.977	0.104	-0.171	-0.0572958	0.5156622	-0.286479	-23.81213448	-77.87645136	-15.30370818
6.05	605	-0.978	0.103	-0.172	0	0	-0.4583664	-25.02680544	-77.92801758	-14.11768512
6.06	606	-0.977	0.103	-0.173	0.1718874	-0.1718874	-0.4010706	-25.0096167	-77.93374716	-14.13487386
6.07	607	-0.976	0.103	-0.173	0.286479	-0.4010706	-0.4010706	-24.99815754	-77.93947674	-14.14633302
6.08	608	-0.973	0.103	-0.172	0.4010706	-0.4583664	-0.286479	-24.98669838	-77.94520632	-14.14633302
6.09	609	-0.972	0.101	-0.172	0.4010706	-0.5156622	-0.286479	-24.9809688	-77.9509359	-14.1520626
6.1	610	-0.97	0.099	-0.172	0.4583664	-0.6302538	-0.286479	-25.25025906	-77.96239506	-13.88277234
6.11	611	-0.972	0.097	-0.171	0.4583664	-0.9167328	-0.3437748	-25.24452948	-77.97385422	-13.88277234
6.12	612	-0.975	0.096	-0.17	0.2291832	-0.859437	-0.4010706	-25.24452948	-77.98531338	-13.88277234
6.13	613	-0.98	0.096	-0.167	0	-0.572958	-0.4010706	-25.23307032	-77.99104296	-13.88850192
6.14	614	-0.983	0.097	-0.166	-0.2291832	-0.286479	-0.3437748	-25.22734074	-77.99677254	-13.89996108
6.15	615	-0.985	0.099	-0.168	-0.286479	-0.0572958	-0.2291832	-25.88051286	-78.05979792	-13.2639777
6.16	616	-0.984	0.1	-0.17	-0.0572958	0	-0.0572958	-25.88051286	-78.05979792	-13.2639777
6.17	617	-0.98	0.101	-0.172	0.286479	-0.286479	0.0572958	-25.88624244	-78.05979792	-13.25251854
6.18	618	-0.978	0.1	-0.171	0.286479	-0.572958	0	-25.8977016	-78.0655275	-13.24105938
6.19	619	-0.975	0.097	-0.171	0.2291832	-0.6302538	0.0572958	-25.91489034	-78.07125708	-13.22387064
6.2	620	-0.979	0.094	-0.167	0.1145916	-0.6875496	0.0572958	-26.40763422	-78.17438952	-12.73685634
6.21	621	-0.985	0.096	-0.162	-0.4583664	-0.5156622	-0.1145916	-26.41909338	-78.1801191	-12.73112676
6.22	622	-0.987	0.101	-0.167	-0.6302538	-0.1145916	-0.2291832	-26.41909338	-78.1801191	-12.73685634
6.23	623	-0.984	0.101	-0.169	-0.6302538	0	-0.0572958	-26.41909338	-78.1801191	-12.73685634
6.24	624	-0.981	0.101	-0.167	-0.5156622	-0.1718874	0.0572958	-26.43055254	-78.18584868	-12.73112676
6.25	625	-0.977	0.102	-0.164	-0.4010706	-0.3437748	0.2291832	-26.83735272	-78.21449658	-12.34151532
6.26	626	-0.975	0.1	-0.162	-0.4583664	0	0.3437748	-26.85454146	-78.21449658	-12.32432658
6.27	627	-0.973	0.098	-0.164	-0.7448454	0.859437	0.4583664	-26.86600062	-78.20303742	-12.318597
6.28	628	-0.974	0.099	-0.167	-0.9740286	1.6042824	0.4010706	-26.86600062	-78.18584868	-12.33578574
6.29	629	-0.975	0.1	-0.166	-0.9740286	2.005353	0.3437748	-26.85454146	-78.16865994	-12.35870406
6.3	630	-0.977	0.102	-0.164	-0.859437	1.7761698	0.2291832	-27.00924012	-78.16293036	-12.21546456
6.31	631	-0.977	0.103	-0.166	-0.7448454	1.432395	0.1718874	-26.99778096	-78.1514712	-12.2326533
6.32	632	-0.979	0.103	-0.17	-0.5156622	1.145916	0.286479	-26.99205138	-78.14001204	-12.24411246
6.33	633	-0.979	0.106	-0.17	-0.3437748	1.145916	0.2291832	-26.9863218	-78.12855288	-12.25557162
6.34	634	-0.978	0.105	-0.173	0.0572958	1.0886202	0.2291832	-26.97486264	-78.11709372	-12.26703078
6.35	635	-0.976	0.105	-0.175	0.2291832	0.9740286	0.286479	-27.19258668	-78.08844582	-12.04930674
6.36	636	-0.975	0.104	-0.176	0.1718874	1.0886202	0.3437748	-27.18112752	-78.07698666	-12.05503632
6.37	637	-0.977	0.104	-0.173	0.1145916	1.0886202	0.5156622	-27.18112752	-78.0655275	-12.05503632
6.38	638	-0.977	0.105	-0.175	0.1718874	0.9740286	0.572958	-27.1868571	-78.05406834	-12.05503632
6.39	639	-0.978	0.105	-0.175	0.286479	0.5156622	0.572958	-27.19258668	-78.04833876	-12.03784758
6.4	640	-0.977	0.107	-0.173	0.2291832	0.1718874	0.4583664	-27.65095308	-78.02542044	-11.59094034
6.41	641	-0.976	0.105	-0.174	0.4583664	0	0.2291832	-27.65668266	-78.02542044	-11.57948118
6.42	642	-0.976	0.104	-0.172	0.5156622	-0.1718874	0.1145916	-27.66241224	-78.02542044	-11.56802202
6.43	643	-0.974	0.104	-0.173	0.286479	-0.2291832	0	-27.66241224	-78.03115002	-11.56229244
6.44	644	-0.975	0.102	-0.171	0.286479	-0.1145916	-0.0572958	-27.65668266	-78.03115002	-11.56229244
6.45	645	-0.975	0.102	-0.172	0.3437748	-0.0572958	-0.0572958	-27.90878418	-78.03115002	-11.3159205
6.46	646	-0.974	0.101	-0.173	0.4010706	-0.1145916	-0.1145916	-27.89732502	-78.0368796	-11.32165008
6.47	647	-0.975	0.099	-0.172	0.4583664	-0.1145916	0	-27.89732502	-78.0368796	-11.32165008
6.48	648	-0.977	0.1	-0.169	0.1718874	-0.3437748	-0.0572958	-27.89732502	-78.0368796	-11.3159205
6.49	649	-0.977	0.102	-0.171	0	-0.3437748	-0.0572958	-27.9030546	-78.04260918	-11.31019092
6.5	650	-0.976	0.103	-0.169	0.0572958	-0.286479	0	-28.42444638	-78.07125708	-10.79452872
6.51	651	-0.977	0.103	-0.17	-0.1145916	-0.2291832	-0.1718874	-28.42444638	-78.07125708	-10.8002583
6.52	652	-0.977	0.103	-0.171	-0.286479	-0.0572958	-0.2291832	-28.4187168	-78.07698666	-10.80598788
6.53	653	-0.979	0.103	-0.171	-0.2291832	-0.0572958	-0.3437748	-28.40725764	-78.07698666	-10.82317662
6.54	654	-0.98	0.101	-0.169	-0.2291832	0	-0.286479	-28.40152806	-78.07698666	-10.83463578
6.55	655	-0.979	0.102	-0.167	-0.4583664	-0.1145916	-0.286479	-28.6479	-78.11709372	-10.59399342
6.56	656	-0.978	0.102	-0.167	-0.5156622	-0.1718874	-0.2291832	-28.6479	-78.1228233	-10.599723
6.57	657	-0.976	0.102	-0.169	-0.3437748	-0.0572958	-0.1145916	-28.6479	-78.1228233	-10.60545258
6.58	658	-0.975	0.102	-0.169	-0.4010706	0.286479	-0.1145916	-28.63644084	-78.1228233	-10.61691174
6.59	659	-0.975	0.101	-0.168	-0.4010706	0.572958	-0.1145916	-28.62498168	-78.11709372	-10.63410048
6.6	660	-0.975	0.101	-0.168	-0.4010706	0.8021412	-0.1145916	-28.73957328	-78.11136414	-10.53096804
6.61	661	-0.977	0.102	-0.169	-0.3437748	0.6302538	-0.0572958	-28.72811412	-78.10563456	-10.54815678
6.62	662	-0.978	0.102	-0.171	-0.286479	0.4583664	-0.0572958	-28.71665496	-78.09990498	-10.55961594
6.63	663	-0.98	0.101	-0.172	-0.286479	0.1145916	0	-28.71665496	-78.09990498	-10.56534552
6.64	664	-0.98	0.102	-0.171	-0.1718874	-0.1145916	0.1145916	-28.72811412	-78.09990498	-10.55388636
6.65	665	-0.979	0.104	-0.17	-0.1145916	-0.4583664	0.1145916	-28.95729732	-78.11136414	-10.33043274
6.66	666	-0.976	0.103	-0.171	-0.0572958	-0.4010706	0.2291832	-28.98021564	-78.11709372	-10.30751442
6.67	667	-0.975	0.102	-0.17	-0.1145916	-0.1718874	0.2291832	-28.99740438	-78.11709372	-10.29605526
6.68	668	-0.974	0.103	-0.171	-0.1145916	-0.0572958	0.2291832	-29.00886354	-78.11709372	-10.27886652
6.69	669	-0.974	0.104	-0.171	0	-0.0572958	0.1145916	-29.01459312	-78.11709372	-10.27313694
6.7	670	-0.976	0.105	-0.17	0.0572958	-0.1145916	0.0572958	-29.47295952	-78.10563456	-9.82050012
6.71	671	-0.976	0.105	-0.169	0.1718874	-0.4010706	0	-29.48441868	-78.11136414	-9.80904096
6.72	672	-0.978	0.105	-0.169	0.1718874	-0.6302538	0	-29.49587784	-78.11709372	-9.7975818
6.73	673	-0.977	0.105	-0.169	0.3437748	-0.5156622	0	-29.50160742	-78.1228233	-9.78612264
6.74	674	-0.976	0.105	-0.17	0.4583664	-0.286479	0	-29.507337	-78.1228233	-9.78039306
6.75	675	-0.975	0.105	-0.169	0.572958	-0.4010706	0	-29.64484692	-78.13428246	-9.63142398
6.76	676	-0.973	0.105	-0.167	0.5156622	-0.572958	-0.1145916	-29.6505765	-78.14001204	-9.6256944
6.77	677	-0.971	0.104	-0.169	0.6875496	-0.5156622	-0.2291832	-29.63911734	-78.14574162	-9.6256944
6.78	678	-0.973	0.105	-0.163	0.6875496	0	-0.3437748	-29.61619902	-78.14574162	-9.64288314
6.79	679	-0.977	0.111	-0.164	0.286479	0.572958	-0.7448454	-29.5646328	-78.14574162	-9.68871978
