TimeStamp(s)	FrameCounter	AccX	AccY	AccZ	GyrX	GyrY	GyrZ	EulerX	EulerY	EulerZ
0.01	1	-0.086	-1.011	0.031	-4.1825934	0	-0.5156622	90.3268287	-5.10505578	-15.23495322
0.02	2	-0.079	-1.013	0.032	-7.2765666	-1.9480572	-0.6875496	90.25807374	-5.09359662	-15.25214196
0.03	3	-0.083	-1.01	0.031	-7.6776372	-1.2605076	-0.6875496	90.17785962	-5.08786704	-15.2693307
0.04	4	-0.084	-1.004	0.028	-7.9641162	-0.3437748	-0.6302538	90.0976455	-5.08213746	-15.27506028
0.05	5	-0.081	-0.997	0.027	-8.4224826	0.3437748	-0.4583664	90.01743138	-5.0706783	-15.2693307
0.06	6	-0.073	-0.991	0.027	-9.167328	0.572958	-0.1718874	89.92002852	-5.0706783	-15.26360112
0.07	7	-0.063	-0.991	0.027	-10.4851314	0.286479	0.2291832	89.8111665	-5.07640788	-15.26360112
0.08	8	-0.056	-0.997	0.024	-11.8029348	-0.3437748	0.572958	89.6965749	-5.08213746	-15.2693307
0.09	9	-0.055	-1.004	0.023	-12.4331886	-0.7448454	1.0313244	89.57052414	-5.09359662	-15.27506028
0.1	10	-0.059	-1.011	0.017	-13.3499214	-1.145916	1.2032118	89.4387438	-5.0993262	-15.29224902
0.11	11	-0.068	-1.016	0.019	-14.3812458	-1.718874	1.3178034	89.28977472	-5.11078536	-15.30943776
0.12	12	-0.076	-1.015	0.024	-14.610429	-2.1772404	1.2032118	89.14653522	-5.12224452	-15.33235608
0.13	13	-0.082	-1.016	0.02	-15.2406828	-2.4637194	0.9167328	88.99183656	-5.13370368	-15.36100398
0.14	14	-0.082	-1.011	0.017	-15.9855282	-2.9793816	0.9740286	88.83140832	-5.14516284	-15.38965188
0.15	15	-0.073	-1.006	0.014	-15.9282324	-4.010706	1.0886202	88.68243924	-5.15089242	-15.42975894
0.16	16	-0.061	-1.006	0.012	-16.042824	-4.9274388	1.0886202	88.522011	-5.16235158	-15.48132516
0.17	17	-0.051	-1.004	0.01	-16.042824	-5.9014674	1.0313244	88.36731234	-5.17381074	-15.54435054
0.18	18	-0.044	-1.002	0.011	-15.2406828	-7.2192708	0.9740286	88.21834326	-5.1852699	-15.6131055
0.19	19	-0.042	-1.003	0.014	-14.610429	-8.4224826	0.8021412	88.08083334	-5.19672906	-15.6990492
0.2	20	-0.043	-1	0.015	-14.32395	-9.0527364	0.7448454	87.949053	-5.19672906	-15.79072248
0.21	21	-0.048	-0.994	0.019	-14.2093584	-9.3392154	0.9740286	87.81727266	-5.20818822	-15.88812534
0.22	22	-0.058	-0.994	0.023	-14.4385416	-9.5683986	1.145916	87.67976274	-5.22537696	-15.9855282
0.23	23	-0.086	-1.002	0.031	-14.32395	-9.9121734	1.2605076	87.54225282	-5.23683612	-16.08293106
0.24	24	-0.115	-1.02	0.045	-13.6936962	-9.0527364	1.432395	87.41047248	-5.25402486	-16.17460434
0.25	25	-0.121	-1.039	0.032	-14.037471	-6.4744254	1.6042824	87.2901513	-5.27694318	-16.23762972
0.26	26	-0.129	-1.047	0.013	-15.469866	-4.870143	1.9480572	87.13545264	-5.2998615	-16.28919594
0.27	27	-0.142	-1.036	-0.005	-17.475219	-4.5263682	2.5210152	86.96356524	-5.3285094	-16.33503258
0.28	28	-0.147	-1.014	-0.028	-19.7097552	-5.6722842	3.2658606	86.76875952	-5.36288688	-16.39232838
0.29	29	-0.156	-0.99	-0.028	-20.5691922	-7.9068204	4.1825934	86.56822422	-5.40872352	-16.4725425
0.3	30	-0.176	-0.983	-0.007	-20.626488	-9.9694692	5.6149884	86.3734185	-5.48320806	-16.56994536
0.31	31	-0.177	-0.989	0.002	-22.7464326	-13.2353298	8.4224826	86.16142404	-5.57488134	-16.69599612
0.32	32	-0.143	-0.987	-0.014	-28.074942	-19.480572	11.1153852	85.89786336	-5.69520252	-16.88507226
0.33	33	-0.104	-0.984	-0.03	-32.2575354	-25.78311	12.318597	85.5999252	-5.83271244	-17.13717378
0.34	34	-0.086	-0.995	-0.038	-34.663959	-30.3094782	11.5164558	85.27906872	-5.96449278	-17.43511194
0.35	35	-0.093	-1.013	-0.044	-35.3515086	-32.3148312	8.9954406	84.95821224	-6.0733548	-17.75023884
0.36	36	-0.121	-1.027	-0.039	-34.0337052	-32.1429438	6.1879464	84.6545445	-6.1592985	-18.07109532
0.37	37	-0.163	-1.032	-0.013	-30.7105488	-30.7678446	4.583664	84.37952466	-6.22805346	-18.37476306
0.38	38	-0.205	-1.025	0.018	-27.4446882	-28.4187168	4.0680018	84.13315272	-6.29107884	-18.65551248
0.39	39	-0.238	-1.016	0.029	-25.3820394	-25.496631	3.8388186	83.90396952	-6.34837464	-18.907614
0.4	40	-0.253	-1	0.03	-24.7517856	-22.5745452	3.6096354	83.69770464	-6.4171296	-19.13106762
0.41	41	-0.253	-0.989	0.034	-23.4339822	-20.4546006	3.5523396	83.4799806	-6.4744254	-19.33160292
0.42	42	-0.245	-0.986	0.037	-21.9442914	-18.907614	3.5523396	83.28517488	-6.52599162	-19.51494948
0.43	43	-0.245	-0.986	0.05	-20.7410796	-17.18874	3.7815228	83.09609874	-6.58328742	-19.68683688
0.44	44	-0.242	-0.986	0.056	-20.2254174	-14.2666542	4.1825934	82.9070226	-6.64058322	-19.8243468
0.45	45	-0.242	-0.994	0.043	-19.8243468	-11.4018642	4.4117766	82.74086478	-6.70933818	-19.93320882
0.46	46	-0.241	-0.996	0.036	-19.0795014	-10.2559482	4.8128472	82.55751822	-6.77236356	-20.03634126
0.47	47	-0.226	-0.995	0.032	-19.0222056	-9.7975818	4.7555514	82.37990124	-6.82965936	-20.12801454
0.48	48	-0.214	-0.995	0.014	-20.3973048	-9.7975818	4.870143	82.18509552	-6.89268474	-20.21968782
0.49	49	-0.21	-0.988	0.004	-22.4026578	-10.599723	4.583664	81.96737148	-6.94998054	-20.32282026
0.5	50	-0.205	-0.972	-0.01	-24.4653066	-11.2872726	3.6096354	81.74964744	-7.01300592	-20.43168228
0.51	51	-0.196	-0.954	-0.021	-25.0955604	-12.032118	2.5210152	81.50900508	-7.05311298	-20.55200346
0.52	52	-0.192	-0.945	-0.02	-24.8663772	-12.4904844	1.3178034	81.2740923	-7.08176088	-20.67232464
0.53	53	-0.191	-0.941	-0.017	-24.9809688	-12.4904844	0.3437748	81.03917952	-7.1046792	-20.7983754
0.54	54	-0.198	-0.937	-0.003	-24.350715	-11.9175264	-0.4010706	80.80999632	-7.11613836	-20.91869658
0.55	55	-0.208	-0.939	0.003	-22.8037284	-11.45916	-0.859437	80.6151906	-7.13905668	-21.03901776
0.56	56	-0.217	-0.94	0.007	-21.5432208	-11.0580894	-1.0886202	80.40892572	-7.14478626	-21.15360936
0.57	57	-0.232	-0.947	0.008	-19.9962342	-10.4278356	-1.0886202	80.22557916	-7.15051584	-21.2567418
0.58	58	-0.244	-0.949	0.01	-18.9649098	-8.9954406	-1.0886202	80.0422326	-7.15051584	-21.35414466
0.59	59	-0.245	-0.944	0	-17.5325148	-6.875496	-1.4896908	79.87607478	-7.15051584	-21.42289962
0.6	60	-0.244	-0.937	-0.005	-15.8136408	-4.5263682	-2.1199446	79.7557536	-7.161975	-21.48019542
0.61	61	-0.244	-0.931	-0.015	-13.5791046	-2.005353	-2.6929026	79.61824368	-7.14478626	-21.50311374
0.62	62	-0.244	-0.924	-0.005	-10.886202	-0.4583664	-2.8074942	79.50938166	-7.11613836	-21.5145729
0.63	63	-0.237	-0.917	0.018	-8.021412	1.6042824	-2.86479	79.42916754	-7.08749046	-21.50311374
0.64	64	-0.226	-0.915	0.039	-6.016059	3.724227	-2.8074942	79.36041258	-7.05311298	-21.47446584
0.65	65	-0.224	-0.918	0.063	-4.297185	5.0993262	-2.3491278	79.4119788	-7.06457214	-21.43435878
0.66	66	-0.231	-0.939	0.074	-2.0626488	5.72958	-0.7448454	79.3833309	-7.0473834	-21.37706298
0.67	67	-0.247	-0.962	0.068	-0.0572958	5.6149884	1.6042824	79.37760132	-7.05311298	-21.31976718
0.68	68	-0.267	-0.977	0.049	1.8907614	5.2712136	4.2398892	79.38906048	-7.08749046	-21.26247138
0.69	69	-0.285	-0.978	0.036	4.870143	5.7868758	5.9587632	79.42916754	-7.13905668	-21.19371642
0.7	70	-0.293	-0.959	0.031	8.9381448	5.8441716	7.2192708	79.5552183	-7.23645954	-21.12496146
0.71	71	-0.299	-0.936	0.051	12.318597	6.589017	7.7922288	79.6698099	-7.29948492	-21.04474734
0.72	72	-0.297	-0.931	0.048	13.9228794	8.3651868	8.6516658	79.79586066	-7.36823988	-20.94734448
0.73	73	-0.309	-0.933	0.066	14.9542038	8.1932994	10.1413566	79.93337058	-7.45418358	-20.84421204
0.74	74	-0.32	-0.931	0.073	16.6730778	7.448454	12.2613012	80.08806924	-7.5630456	-20.74680918
0.75	75	-0.326	-0.916	0.048	20.7410796	8.1932994	14.6677248	80.30579328	-7.71774426	-20.64367674
0.76	76	-0.335	-0.888	0.011	26.5852512	8.880849	15.8136408	80.5578948	-7.85525418	-20.52335556
0.77	77	-0.344	-0.861	0.008	30.5386614	10.2559482	15.4125702	80.85010338	-7.9927641	-20.3973048
0.78	78	-0.325	-0.86	0.002	33.0596766	14.1520626	14.9542038	81.1595007	-8.11881486	-20.23114698
0.79	79	-0.278	-0.905	-0.009	35.6379876	20.6837838	15.4125702	81.48608676	-8.23913604	-19.9962342
0.8	80	-0.216	-0.98	-0.015	33.0023808	28.1895336	15.9282324	81.78402492	-8.3651868	-19.69256646
0.81	81	-0.181	-1.055	-0.062	26.9863218	33.518043	16.3865988	82.00174896	-8.48550798	-19.33160292
0.82	82	-0.164	-1.176	-0.126	22.2307704	34.4920716	19.0795014	82.16790678	-8.63447706	-18.95918022
0.83	83	-0.131	-1.341	-0.229	15.469866	29.3927454	25.6685184	82.27103922	-8.8522011	-18.63259416
0.84	84	-0.141	-1.489	-0.29	9.2246238	19.767051	33.804522	82.32260544	-9.167328	-18.3919518
0.85	85	-0.166	-1.53	-0.276	7.9068204	17.5325148	35.6952834	82.3627125	-9.49964364	-18.16849818
0.86	86	-0.207	-1.424	-0.313	10.313244	24.1788276	25.8977016	82.4200083	-9.72309726	-17.89347834
0.87	87	-0.249	-1.283	-0.315	14.1520626	30.080295	8.0787078	82.505952	-9.77466348	-17.57835144
0.88	88	-0.226	-1.187	-0.277	19.480572	32.3148312	-7.161975	82.6491915	-9.66580146	-17.26322454
0.89	89	-0.149	-1.141	-0.214	23.1475032	31.9137606	-17.5898106	82.82680848	-9.45953658	-16.96528638
0.9	90	-0.062	-1.1	-0.167	23.5485738	28.8197874	-24.4653066	83.01588462	-9.18451674	-16.7017257
0.91	91	0.008	-1.05	-0.147	19.9962342	26.1841806	-27.7311672	83.18204244	-8.880849	-16.4725425
0.92	92	0.054	-0.987	-0.15	14.5531332	24.2934192	-27.788463	83.29090446	-8.58291084	-16.26054804
0.93	93	0.061	-0.929	-0.161	11.0007936	20.340009	-25.0382646	83.37684816	-8.31935016	-16.08866064
0.94	94	0.034	-0.889	-0.162	8.8235532	15.183387	-20.5118964	83.44560312	-8.10162612	-15.9568803
0.95	95	0.005	-0.853	-0.15	6.7036086	10.026765	-16.1001198	83.48571018	-7.91827956	-15.8709366
0.96	96	-0.019	-0.826	-0.139	4.6409598	5.6149884	-12.8342592	83.52581724	-7.78649922	-15.83082954
0.97	97	-0.037	-0.825	-0.123	2.1772404	3.0939732	-11.45916	83.54873556	-7.67190762	-15.8136408
0.98	98	-0.054	-0.844	-0.108	-0.0572958	0.7448454	-11.2299768	83.54873556	-7.55731602	-15.81937038
0.99	99	-0.058	-0.882	-0.072	-1.432395	-0.4010706	-12.1467096	83.5372764	-7.43699484	-15.83655912
1	100	-0.049	-0.917	-0.043	-2.1199446	-0.286479	-13.9801752	83.53154682	-7.2765666	-15.85374786
1.01	101	-0.034	-0.948	-0.024	-2.1199446	0.2291832	-15.9855282	83.51435808	-7.11613836	-15.8709366
1.02	102	-0.022	-0.96	-0.026	-2.2345362	0.6302538	-17.3033316	83.49143976	-6.94425096	-15.88239576
1.03	103	-0.022	-0.954	-0.047	-1.3178034	-0.1145916	-17.0741484	83.4799806	-6.77809314	-15.90531408
1.04	104	-0.03	-0.941	-0.073	-0.4010706	-1.718874	-15.1260912	83.4799806	-6.62912406	-15.93969156
1.05	105	-0.044	-0.93	-0.091	0.1718874	-4.2398892	-12.5477802	83.48571018	-6.49161414	-15.99125778
1.06	106	-0.065	-0.919	-0.093	0.286479	-7.5057498	-9.5683986	83.49716934	-6.40567044	-16.07720148
1.07	107	-0.085	-0.908	-0.081	-0.286479	-11.2299768	-6.9900876	83.5086285	-6.34264506	-16.19752266
1.08	108	-0.093	-0.902	-0.07	-1.718874	-15.5271618	-5.156622	83.51435808	-6.30826758	-16.3579509
1.09	109	-0.087	-0.906	-0.057	-3.6669312	-19.5951636	-4.5263682	83.50289892	-6.27961968	-16.5584862
1.1	110	-0.063	-0.924	-0.052	-5.3285094	-22.1161788	-5.5003968	83.4799806	-6.23378304	-16.78193982
1.11	111	-0.037	-0.951	-0.056	-5.5003968	-23.6631654	-7.8495246	83.4513327	-6.17648724	-17.02831176
1.12	112	-0.006	-0.985	-0.059	-4.4117766	-25.3247436	-10.6570188	83.43987354	-6.09627312	-17.29187244
1.13	113	0.006	-1.015	-0.066	-3.2658606	-27.6738714	-13.0061466	83.43987354	-5.9874111	-17.57835144
1.14	114	0.005	-1.028	-0.066	-1.9480572	-30.5386614	-14.3812458	83.45706228	-5.8728195	-17.89920792
1.15	115	-0.005	-1.022	-0.055	-0.3437748	-33.1742682	-14.9542038	83.49716934	-5.74103916	-18.24298272
1.16	116	-0.022	-1	-0.035	1.3178034	-35.1223254	-14.7250206	83.54873556	-5.62644756	-18.60394626
1.17	117	-0.04	-0.976	-0.015	2.7501984	-37.0130868	-14.0947668	83.6232201	-5.51758554	-18.98782812
1.18	118	-0.057	-0.956	0.008	3.724227	-38.3308902	-13.2353298	83.70343422	-5.42018268	-19.38316914
1.19	119	-0.067	-0.942	0.034	4.4117766	-39.9351726	-12.4904844	83.78937792	-5.3285094	-19.78996932
1.2	120	-0.07	-0.935	0.059	3.6096354	-41.9405256	-11.9748222	83.88678078	-5.23683612	-20.21968782
1.21	121	-0.069	-0.937	0.066	2.4637194	-43.4302164	-11.6883432	83.96126532	-5.156622	-20.66086548
1.22	122	-0.072	-0.94	0.065	2.578311	-44.2896534	-11.3445684	84.03002028	-5.07640788	-21.10777272
1.23	123	-0.075	-0.946	0.064	3.4950438	-45.1490904	-10.7716104	84.11596398	-5.00192334	-21.56613912
1.24	124	-0.078	-0.954	0.065	3.9534102	-46.409598	-10.313244	84.20190768	-4.93316838	-22.03596468
1.25	125	-0.081	-0.959	0.073	4.9274388	-47.8992888	-9.740286	84.31649928	-4.870143	-22.5172494
1.26	126	-0.079	-0.955	0.085	6.016059	-50.1911208	-9.1100322	84.4253613	-4.8128472	-23.02718202
1.27	127	-0.072	-0.948	0.101	5.6722842	-53.0559108	-8.307891	84.53422332	-4.76701056	-23.56003296
1.28	128	-0.064	-0.941	0.115	3.4950438	-55.4050386	-7.6776372	84.6258966	-4.7269035	-24.11007264
1.29	129	-0.044	-0.941	0.113	2.86479	-55.1758554	-8.1360036	84.70611072	-4.68106686	-24.6658419
1.3	130	-0.03	-0.939	0.122	3.151269	-56.2071798	-9.5111028	84.80924316	-4.61804148	-25.23307032
1.31	131	-0.025	-0.938	0.149	3.6096354	-56.9520252	-12.2040054	84.90091644	-4.53209778	-25.80602832
1.32	132	-0.031	-0.944	0.178	3.3804522	-57.2385042	-15.5844576	84.98686014	-4.4117766	-26.3847159
1.33	133	-0.056	-0.952	0.21	4.1825934	-57.9833496	-18.334656	85.084263	-4.26280752	-26.97486264
1.34	134	-0.1	-0.981	0.233	5.3285094	-58.3271244	-20.2827132	85.18739544	-4.0966497	-27.56500938
1.35	135	-0.135	-1.012	0.254	4.4690724	-55.6915176	-20.912967	85.30198704	-3.91903272	-28.1322378
1.36	136	-0.163	-1.03	0.264	4.1825934	-51.4516284	-19.9962342	85.38793074	-3.74714532	-28.65935916
1.37	137	-0.178	-1.055	0.253	4.870143	-46.4668938	-18.4492476	85.47387444	-3.59244666	-29.12918472
1.38	138	-0.186	-1.07	0.244	5.2139178	-41.4248634	-16.9595568	85.55981814	-3.44347758	-29.55317364
1.39	139	-0.179	-1.081	0.249	7.6776372	-36.5547204	-15.8136408	85.66295058	-3.30023808	-29.92559634
1.4	140	-0.168	-1.086	0.259	12.4904844	-33.6899304	-14.32395	85.84056756	-3.1799169	-30.26937114
1.41	141	-0.154	-1.093	0.258	17.8762896	-31.7418732	-11.8029348	86.04110286	-3.07678446	-30.59022762
1.42	142	-0.127	-1.089	0.237	20.9702628	-30.5959572	-7.5057498	86.27601564	-3.01375908	-30.89389536
1.43	143	-0.122	-1.105	0.17	17.1314442	-30.8824362	-3.151269	86.47082136	-2.99084076	-31.20329268
1.44	144	-0.16	-1.132	0.115	13.0634424	-28.8197874	-1.9480572	86.61979044	-2.9793816	-31.4840421
1.45	145	-0.228	-1.206	0.101	18.2773602	-25.3247436	-3.3231564	86.8317849	-2.96219286	-31.73614362
1.46	146	-0.284	-1.284	0.038	23.1475032	-17.18874	-6.9327918	87.07815684	-2.8934379	-31.90803102
1.47	147	-0.294	-1.325	-0.079	26.9863218	-4.1825934	-12.2040054	87.35317668	-2.77311672	-31.95386766
1.48	148	-0.27	-1.369	-0.162	30.3094782	3.6669312	-17.2460358	87.65684442	-2.59549974	-31.91949018
1.49	149	-0.184	-1.398	-0.206	33.0023808	12.1467096	-23.204799	87.98916006	-2.36058696	-31.80489858
1.5	150	-0.029	-1.383	-0.239	35.7525792	18.6784308	-28.1322378	88.33293486	-2.07983754	-31.62155202
1.51	151	0.05	-1.318	-0.247	33.4034514	3.2658606	-24.5798982	88.67098008	-1.82773602	-31.59290412
1.52	152	0.096	-1.25	-0.273	24.2934192	-15.0687954	-16.2147114	88.9230816	-1.66730778	-31.7418732
1.53	153	0.125	-1.186	-0.259	18.2773602	-26.0122932	-9.167328	89.11788732	-1.56990492	-31.9997043
1.54	154	0.102	-1.144	-0.26	14.7250206	-33.7472262	-3.8961144	89.28404514	-1.52406828	-32.33201994
1.55	155	0.068	-1.078	-0.26	11.0007936	-40.9092012	0.0572958	89.381448	-1.51260912	-32.73882012
1.56	156	0.06	-1.021	-0.23	8.0787078	-45.0344988	1.7761698	89.47885086	-1.52406828	-33.17999778
1.57	157	0.067	-0.976	-0.202	5.3858052	-46.409598	1.3750992	89.5533354	-1.52406828	-33.63836418
1.58	158	0.068	-0.943	-0.162	3.9534102	-47.6128098	-0.0572958	89.61636078	-1.5183387	-34.10818974
1.59	159	0.07	-0.927	-0.133	2.9220858	-46.982556	-3.3231564	89.66219742	-1.47250206	-34.57228572
1.6	160	0.077	-0.913	-0.118	1.3750992	-45.0344988	-5.5003968	89.67938616	-1.39801752	-35.01919296
1.61	161	0.068	-0.909	-0.103	0.0572958	-44.117766	-5.8441716	89.6965749	-1.32926256	-35.45464104
1.62	162	0.03	-0.917	-0.095	-0.8021412	-43.8885828	-4.1825934	89.70230448	-1.27769634	-35.89008912
1.63	163	-0.029	-0.93	-0.08	-2.3491278	-43.258329	-0.8021412	89.69084532	-1.2605076	-36.31980762
1.64	164	-0.095	-0.948	-0.075	-5.2139178	-41.0810886	3.5523396	89.65646784	-1.28342592	-36.7266078
1.65	165	-0.166	-0.978	-0.067	-7.734933	-37.9298196	7.9641162	89.57625372	-1.38082878	-37.10476008
1.66	166	-0.233	-1.01	-0.054	-9.5111028	-33.1169724	11.6883432	89.4960396	-1.4896908	-37.43134614
1.67	167	-0.258	-1.021	-0.067	-10.026765	-25.78311	15.5844576	89.40436632	-1.64438946	-37.68917724
1.68	168	-0.257	-0.991	-0.072	-10.4278356	-20.340009	17.5898106	89.30696346	-1.81627686	-37.88971254
1.69	169	-0.239	-0.936	-0.059	-10.4851314	-15.0114996	17.5898106	89.20383102	-1.98816426	-38.03868162
1.7	170	-0.209	-0.888	-0.042	-10.313244	-9.1100322	16.329303	89.094969	-2.18296998	-38.1303549
1.71	171	-0.169	-0.864	-0.023	-11.172681	-2.86479	14.610429	88.9803774	-2.32620948	-38.1590028
1.72	172	-0.133	-0.86	-0.014	-13.5791046	2.2345362	13.1207382	88.84286748	-2.45798982	-38.13608448
1.73	173	-0.103	-0.863	-0.017	-16.2720072	5.8441716	12.4904844	88.67670966	-2.58404058	-38.0730591
1.74	174	-0.075	-0.875	-0.036	-19.5378678	8.1932994	12.4331886	88.47044478	-2.71009134	-37.99284498
1.75	175	-0.067	-0.889	-0.05	-24.5798982	9.740286	12.7769634	88.2068841	-2.84187168	-37.89544212
1.76	176	-0.07	-0.901	-0.06	-26.8144344	10.4278356	13.1207382	87.93186426	-2.97365202	-37.79230968
1.77	177	-0.088	-0.907	-0.06	-26.8717302	10.599723	13.3499214	87.65111484	-3.10543236	-37.68344766
1.78	178	-0.118	-0.904	-0.048	-26.2987722	11.3445684	13.6364004	87.376095	-3.24294228	-37.56885606
1.79	179	-0.144	-0.894	-0.041	-24.8663772	12.8342592	13.464513	87.11253432	-3.37472262	-37.43707572
1.8	180	-0.153	-0.88	-0.031	-22.5172494	14.2666542	12.605076	86.87189196	-3.51223254	-37.29383622
1.81	181	-0.152	-0.867	-0.019	-18.907614	15.6417534	11.4018642	86.67135666	-3.62682414	-37.13340798
1.82	182	-0.135	-0.852	-0.006	-15.2979786	16.329303	9.6256944	86.50519884	-3.71849742	-36.96725016
1.83	183	-0.113	-0.842	0.014	-10.599723	16.6730778	7.6776372	86.37914808	-3.78725238	-36.80109234
1.84	184	-0.096	-0.84	0.035	-7.161975	16.7876694	6.1879464	86.29320438	-3.84454818	-36.62920494
1.85	185	-0.079	-0.846	0.057	-4.1252976	17.1314442	4.6982556	86.2588269	-3.89038482	-36.45731754
1.86	186	-0.065	-0.855	0.072	-1.0886202	17.3033316	3.2658606	86.23590858	-3.91330314	-36.28543014
1.87	187	-0.055	-0.86	0.081	1.8334656	17.3033316	1.8334656	86.23590858	-3.9247623	-36.11354274
1.88	188	-0.053	-0.857	0.087	4.4690724	16.615782	0.4010706	86.27028606	-3.9247623	-35.94738492
1.89	189	-0.064	-0.854	0.086	7.2192708	15.5271618	-0.9740286	86.33331144	-3.90757356	-35.79268626
1.9	190	-0.085	-0.856	0.085	9.740286	14.32395	-2.5210152	86.44217346	-3.87892566	-35.65517634
1.91	191	-0.112	-0.857	0.087	11.45916	13.3499214	-3.724227	86.55103548	-3.8388186	-35.523396
1.92	192	-0.144	-0.862	0.097	11.745639	13.464513	-4.4117766	86.6598975	-3.78725238	-35.39161566
1.93	193	-0.178	-0.872	0.121	12.1467096	14.4385416	-4.5263682	86.76875952	-3.73568616	-35.24837616
1.94	194	-0.21	-0.897	0.145	12.6623718	16.902261	-3.8961144	86.8890807	-3.6955791	-35.08221834
1.95	195	-0.23	-0.938	0.188	11.745639	21.4286292	-2.86479	87.0323202	-3.68984952	-34.87022388
1.96	196	-0.237	-0.973	0.238	11.45916	27.9603504	-2.005353	87.12972306	-3.66120162	-34.59520404
1.97	197	-0.205	-1.003	0.21	13.3499214	32.085648	-0.6302538	87.23858508	-3.64401288	-34.27434756
1.98	198	-0.174	-1.037	0.173	15.4125702	30.5386614	1.718874	87.376095	-3.65547204	-33.97067982
1.99	199	-0.143	-1.083	0.152	16.2720072	20.626488	6.0733548	87.52506408	-3.71276784	-33.75868536
2	200	-0.096	-1.114	0.158	15.5271618	10.2559482	10.1986524	87.70268106	-3.8101707	-33.64982334
2.01	201	-0.028	-1.126	0.195	15.0114996	3.2085648	12.8342592	87.85165014	-3.93622146	-33.61544586
2.02	202	0.032	-1.108	0.213	15.183387	-1.4896908	13.178034	88.0063488	-4.0680018	-33.62117544
2.03	203	0.04	-1.061	0.283	18.8503182	-4.0680018	10.7143146	88.20115452	-4.17113424	-33.65555292
2.04	204	0.013	-1.011	0.342	23.204799	-1.3750992	4.9847346	88.4360673	-4.21697088	-33.66701208
2.05	205	-0.041	-0.994	0.354	22.4599536	5.5576926	-0.9740286	88.72827588	-4.19978214	-33.60971628
2.06	206	-0.091	-1.067	0.305	19.767051	14.037471	-4.8128472	88.91735202	-4.14821592	-33.47220636
2.07	207	-0.136	-1.228	0.221	24.9809688	15.2406828	-4.3544808	89.15799438	-4.10810886	-33.3175077
2.08	208	-0.185	-1.411	0.119	33.518043	10.2559482	0.6875496	89.49031002	-4.11383844	-33.20864568
2.09	209	-0.191	-1.572	0.024	36.6120162	9.7975818	8.0787078	89.85127356	-4.19405256	-33.11124282
2.1	210	-0.152	-1.653	-0.055	32.7731976	13.6936962	16.2720072	90.17213004	-4.3544808	-32.96800332
2.11	211	-0.103	-1.675	-0.178	28.6479	17.3033316	25.2674478	90.44714988	-4.6123119	-32.79611592
2.12	212	-0.079	-1.618	-0.317	23.4339822	12.6623718	35.1796212	90.67633308	-4.96181628	-32.67579474
2.13	213	-0.043	-1.439	-0.335	26.5852512	7.7922288	40.680018	90.93989376	-5.36861646	-32.6013102
2.14	214	-0.004	-1.213	-0.248	31.9137606	14.3812458	36.669312	91.24929108	-5.73530958	-32.46380028
2.15	215	-0.039	-1.022	-0.202	26.7571386	29.4500412	25.5539268	91.46128554	-5.99887026	-32.1715917
2.16	216	-0.113	-0.91	-0.194	19.767051	38.4454818	15.469866	91.6159842	-6.17648724	-31.79343942
2.17	217	-0.167	-0.889	-0.21	13.750992	46.8106686	7.6776372	91.7019279	-6.2738901	-31.32934344
2.18	218	-0.21	-0.908	-0.213	8.8235532	52.3683612	3.9534102	91.72484622	-6.34264506	-30.80795166
2.19	219	-0.224	-0.961	-0.204	7.2765666	57.2385042	2.6929026	91.7305758	-6.40567044	-30.24072324
2.2	220	-0.216	-1.013	-0.18	5.3285094	61.4783934	2.4637194	91.68473916	-6.4744254	-29.62765818
2.21	221	-0.18	-1.035	-0.153	3.724227	62.1086472	3.151269	91.6446321	-6.53745078	-29.00886354
2.22	222	-0.115	-1.028	-0.132	2.6356068	59.9887026	3.8961144	91.59306588	-6.61193532	-28.41298722
2.23	223	-0.029	-1.004	-0.109	0.7448454	55.3477428	4.1252976	91.5300405	-6.68069028	-27.86867712
2.24	224	0.046	-0.983	-0.106	-0.286479	50.3057124	3.8388186	91.46128554	-6.74944524	-27.37020366
2.25	225	0.101	-0.958	-0.108	-0.4583664	43.544808	3.3804522	91.37534184	-6.76663398	-26.93475558
2.26	226	0.138	-0.928	-0.088	0.286479	35.8671708	2.6929026	91.33523478	-6.81247062	-26.57952162
2.27	227	0.159	-0.899	-0.055	1.8334656	28.3041252	1.0886202	91.31804604	-6.84111852	-26.29304262
2.28	228	0.166	-0.889	-0.032	2.3491278	22.2880662	-1.432395	91.31231646	-6.83538894	-26.07531858
2.29	229	0.165	-0.895	-0.023	1.718874	16.902261	-4.297185	91.30658688	-6.80101146	-25.90343118
2.3	230	0.144	-0.912	-0.03	0.859437	11.3445684	-6.9900876	91.2722094	-6.65204238	-25.78311
2.31	231	0.124	-0.923	-0.041	-0.6875496	3.8388186	-9.1100322	91.26075024	-6.5603691	-25.74300294
2.32	232	0.103	-0.924	-0.043	-3.2658606	-2.291832	-10.1986524	91.23210234	-6.45723666	-25.76592126
2.33	233	0.08	-0.919	-0.046	-6.4171296	-9.0527364	-10.7143146	91.17480654	-6.34837464	-25.85186496
2.34	234	0.056	-0.916	-0.05	-9.3392154	-16.2147114	-10.5424272	91.100322	-6.23951262	-26.0122932
2.35	235	0.029	-0.915	-0.05	-10.9434978	-23.2620948	-10.026765	91.00291914	-6.10773228	-26.2414764
2.36	236	0	-0.918	-0.039	-11.6310474	-28.5333084	-9.7975818	90.91697544	-5.99887026	-26.5279554
2.37	237	-0.037	-0.92	-0.02	-12.7196676	-32.0283522	-9.6829902	90.82530216	-5.89000824	-26.8430823
2.38	238	-0.081	-0.92	-0.011	-13.750992	-34.091001	-9.5683986	90.7278993	-5.78114622	-27.18112752
2.39	239	-0.115	-0.918	0	-13.9801752	-34.2055926	-8.9954406	90.62476686	-5.67801378	-27.52490232
2.4	240	-0.125	-0.92	-0.001	-13.6936962	-32.1429438	-8.4797784	90.51017526	-5.59207008	-27.84002922
2.41	241	-0.123	-0.919	0	-12.7769634	-29.4500412	-7.5630456	90.4127724	-5.50612638	-28.13796738
2.42	242	-0.11	-0.913	0.014	-11.45916	-26.5279554	-6.589017	90.3268287	-5.43164184	-28.40152806
2.43	243	-0.093	-0.914	0.033	-10.8289062	-24.1788276	-5.8441716	90.240885	-5.36861646	-28.64217042
2.44	244	-0.082	-0.923	0.051	-10.1986524	-22.91832	-4.9847346	90.16067088	-5.31132066	-28.87135362
2.45	245	-0.068	-0.935	0.065	-9.5683986	-22.1734746	-3.7815228	90.0976455	-5.25975444	-29.08907766
2.46	246	-0.058	-0.954	0.083	-9.3392154	-21.485925	-2.6356068	90.02889054	-5.23110654	-29.3068017
2.47	247	-0.058	-0.966	0.092	-9.3392154	-19.9389384	-1.8334656	89.954406	-5.20818822	-29.507337
2.48	248	-0.069	-0.976	0.098	-8.9954406	-18.048177	-1.718874	89.87992146	-5.1852699	-29.68495398
2.49	249	-0.084	-0.975	0.102	-8.9954406	-15.8136408	-1.8907614	89.80543692	-5.16235158	-29.84538222
2.5	250	-0.092	-0.965	0.107	-9.2819196	-13.178034	-1.7761698	89.7538707	-5.13943326	-29.97716256
2.51	251	-0.093	-0.957	0.111	-10.026765	-10.6570188	-1.0886202	89.66219742	-5.1279741	-30.08602458
2.52	252	-0.081	-0.957	0.112	-10.7143146	-8.9381448	0	89.56479456	-5.1279741	-30.17196828
2.53	253	-0.063	-0.957	0.104	-11.5164558	-8.9381448	1.2032118	89.45593254	-5.13943326	-30.26364156
2.54	254	-0.036	-0.956	0.098	-12.2613012	-10.6570188	2.4637194	89.34134094	-5.16235158	-30.37250358
2.55	255	-0.011	-0.957	0.097	-12.891555	-15.1260912	3.6096354	89.24966766	-5.17381074	-30.52147266
2.56	256	0.009	-0.963	0.099	-12.4904844	-20.8556712	4.3544808	89.14653522	-5.21964738	-30.73346712
2.57	257	0.018	-0.969	0.108	-11.8602306	-26.356068	4.6409598	89.04913236	-5.26548402	-30.9970278
2.58	258	0.019	-0.97	0.12	-11.8029348	-31.7418732	4.6409598	88.96318866	-5.30559108	-31.3121547
2.59	259	0.015	-0.963	0.139	-11.5164558	-36.8984952	4.9847346	88.88870412	-5.35142772	-31.67884782
2.6	260	0.006	-0.946	0.16	-10.7716104	-41.1383844	5.5003968	88.84859706	-5.39153478	-32.085648
2.61	261	-0.005	-0.927	0.176	-9.7975818	-44.117766	5.8441716	88.79130126	-5.44883058	-32.52682566
2.62	262	-0.026	-0.919	0.189	-8.4224826	-45.7220484	5.8441716	88.75692378	-5.50612638	-32.97946248
2.63	263	-0.049	-0.927	0.202	-7.2765666	-46.7533728	5.5576926	88.73400546	-5.5576926	-33.44355846
2.64	264	-0.087	-0.941	0.205	-5.3858052	-46.7533728	4.8128472	88.72827588	-5.60352924	-33.90765444
2.65	265	-0.121	-0.962	0.192	-3.4950438	-46.123119	3.7815228	88.77411252	-5.6436363	-34.36602084
2.66	266	-0.143	-0.969	0.171	-3.8961144	-44.0031744	3.151269	88.78557168	-5.6722842	-34.80146892
2.67	267	-0.146	-0.979	0.134	-6.302538	-37.1276784	1.718874	88.76265336	-5.68947294	-35.17389162
2.68	268	-0.137	-0.988	0.09	-8.4224826	-23.6058696	-1.2605076	88.70535756	-5.6722842	-35.4088044
2.69	269	-0.151	-1.005	0.045	-8.9381448	-6.4744254	-5.2712136	88.61941386	-5.62071798	-35.47755936
2.7	270	-0.218	-1.003	0.001	-8.9381448	5.3858052	-7.734933	88.522011	-5.59207008	-35.42599314
2.71	271	-0.277	-0.983	0.024	-9.167328	7.5057498	-6.2452422	88.41887856	-5.5290447	-35.35723818
2.72	272	-0.297	-0.966	0.085	-14.896908	0.859437	-2.4637194	88.26990948	-5.50612638	-35.34577902
2.73	273	-0.247	-0.961	0.099	-21.8869956	-10.4278356	1.432395	88.05791502	-5.52331512	-35.45464104
2.74	274	-0.157	-1.005	0.078	-21.4286292	-24.2361234	3.6096354	87.8631093	-5.56342218	-35.6952834
2.75	275	-0.085	-1.117	0.101	-14.2093584	-36.669312	2.1772404	87.7771656	-5.5863405	-36.06197652
2.76	276	-0.039	-1.268	0.133	-6.9327918	-37.815228	-4.4117766	87.7485177	-5.54623344	-36.4401288
2.77	277	-0.006	-1.438	0.025	-3.151269	-26.069589	-15.8136408	87.74278812	-5.39153478	-36.70368948
2.78	278	-0.01	-1.585	-0.097	-4.1252976	-12.1467096	-29.6219286	87.71414022	-5.0993262	-36.83546982
2.79	279	-0.02	-1.625	-0.231	-2.86479	4.010706	-39.7059894	87.68549232	-4.70398518	-36.8125515
2.8	280	-0.052	-1.606	-0.33	-4.9274388	6.9327918	-42.3415962	87.62246694	-4.28572584	-36.76098528
2.81	281	-0.126	-1.524	-0.337	-9.6829902	0.572958	-39.534102	87.52506408	-3.89038482	-36.77244444
2.82	282	-0.179	-1.412	-0.298	-13.0634424	-2.9793816	-34.091001	87.39328374	-3.55806918	-36.81828108
2.83	283	-0.193	-1.278	-0.258	-18.5638392	-3.724227	-27.7311672	87.20993718	-3.28304934	-36.8698473
2.84	284	-0.154	-1.125	-0.245	-24.064236	-6.016059	-22.0015872	86.96929482	-3.0653253	-36.93860226
2.85	285	-0.08	-1.039	-0.204	-29.6792244	-13.750992	-18.3919518	86.6598975	-2.8934379	-37.08757134
2.86	286	0.027	-1.004	-0.154	-38.388186	-22.345362	-16.8449652	86.28174522	-2.73873924	-37.3282137
2.87	287	0.119	-1.003	-0.136	-44.7480198	-30.7678446	-15.8709366	85.84629714	-2.59549974	-37.6433406
2.88	288	0.174	-1.018	-0.134	-45.3209778	-35.1796212	-14.7250206	85.41084906	-2.46944898	-38.01003372
2.89	289	0.18	-1.013	-0.155	-44.404245	-35.1796212	-13.750992	84.97540098	-2.35485738	-38.37099726
2.9	290	0.147	-1.002	-0.157	-41.7686382	-31.1116194	-12.3758928	84.56287122	-2.24026578	-38.69758332
2.91	291	0.048	-1.008	-0.154	-46.1804148	-26.4133638	-10.2559482	84.1102344	-2.16005166	-38.97260316
2.92	292	-0.086	-0.994	-0.172	-48.987909	-23.0329116	-8.307891	83.6232201	-2.10275586	-39.21324552
2.93	293	-0.184	-1.006	-0.176	-54.9466722	-18.621135	-6.8182002	83.07891	-2.05691922	-39.40805124
2.94	294	-0.236	-0.982	-0.171	-63.7129296	-14.3812458	-5.0420304	82.43719704	-2.02827132	-39.5627499
2.95	295	-0.264	-0.968	-0.208	-67.895523	-10.026765	-2.9220858	81.74391786	-2.03973048	-39.6773415
2.96	296	-0.26	-0.964	-0.201	-73.1094408	-9.9121734	-1.6615782	81.00480204	-2.03973048	-39.78047394
2.97	297	-0.225	-0.941	-0.184	-78.9536124	-13.3499214	0	80.20839042	-2.06837838	-39.92371344
2.98	298	-0.165	-0.912	-0.187	-80.5578948	-16.2147114	3.151269	79.40051964	-2.13140376	-40.08414168
2.99	299	-0.103	-0.896	-0.216	-78.1514712	-17.3033316	6.7036086	78.61556718	-2.22880662	-40.24456992
3	300	-0.046	-0.889	-0.231	-76.5471888	-19.7097552	9.453807	77.84207388	-2.36631654	-40.42791648
3.01	301	-0.004	-0.876	-0.218	-74.9429064	-23.0329116	10.9434978	77.09722848	-2.5210152	-40.63418136
3.02	302	0.027	-0.853	-0.218	-73.9688778	-25.2674478	11.172681	76.35811266	-2.68717302	-40.86336456
3.03	303	0.034	-0.844	-0.218	-75.0002022	-24.9809688	10.599723	75.61326726	-2.85333084	-41.08681818
3.04	304	0.015	-0.833	-0.232	-75.8023434	-23.9496444	10.7143146	74.8569627	-3.01948866	-41.29881264
3.05	305	-0.034	-0.84	-0.24	-73.9688778	-22.345362	11.0580894	74.11784688	-3.18564648	-41.48788878
3.06	306	-0.085	-0.863	-0.252	-70.3592424	-20.9702628	11.1153852	73.41883812	-3.3518043	-41.66550576
3.07	307	-0.135	-0.891	-0.279	-66.749607	-20.1108258	9.9121734	72.75420684	-3.50650296	-41.83166358
3.08	308	-0.172	-0.921	-0.296	-64.6296624	-18.621135	7.7922288	72.1067643	-3.6382833	-41.99209182
3.09	309	-0.192	-0.945	-0.292	-64.0567044	-15.756345	5.156622	71.47078092	-3.74141574	-42.13533132
3.1	310	-0.223	-1.004	-0.315	-64.6296624	-13.5791046	3.0366774	70.82333838	-3.82735944	-42.2556525
3.11	311	-0.227	-1.008	-0.368	-68.2965936	-14.32395	2.7501984	70.14151836	-3.90757356	-42.38743284
3.12	312	-0.183	-0.982	-0.415	-73.5105114	-17.761698	3.2085648	69.40813212	-4.00497642	-42.55359066
3.13	313	-0.068	-0.938	-0.472	-80.3287116	-20.912967	3.7815228	68.60599092	-4.11383844	-42.7426668
3.14	314	0.091	-0.889	-0.527	-81.8184024	-26.1268848	3.7815228	67.79812014	-4.25134836	-42.97757958
3.15	315	0.195	-0.856	-0.532	-86.7458412	-34.6066632	4.3544808	66.93295356	-4.40604702	-43.2869769
3.16	316	0.271	-0.869	-0.535	-88.6938984	-42.8572584	6.302538	66.06778698	-4.62950064	-43.6593996
3.17	317	0.32	-0.877	-0.539	-94.251591	-54.3164184	7.9068204	65.16251334	-4.92170922	-44.13495474
3.18	318	0.282	-0.869	-0.53	-95.683986	-66.8641986	8.307891	64.25151012	-5.27694318	-44.71364232
3.19	319	0.218	-0.901	-0.524	-95.1683238	-81.1308528	6.4171296	63.36342522	-5.67801378	-45.42411024
3.2	320	0.153	-0.93	-0.488	-94.3088868	-88.6366026	3.8961144	62.49825864	-6.09054354	-46.20333312
3.21	321	0.097	-0.964	-0.423	-93.8505204	-93.5067456	0.572958	61.6502808	-6.52026204	-47.0398518
3.22	322	0.007	-0.95	-0.381	-95.5120986	-96.6007188	-3.437748	60.79657338	-6.93852138	-47.92220712
3.23	323	-0.09	-0.837	-0.389	-94.824549	-98.4341844	-6.3598338	59.9600547	-7.35105114	-48.82175118
3.24	324	-0.254	-0.658	-0.47	-85.4853336	-99.7519878	-5.7868758	59.22666846	-7.78649922	-49.7327544
3.25	325	-0.468	-0.51	-0.534	-70.6457214	-97.0017894	-3.724227	58.62506256	-8.26205436	-50.59792098
3.26	326	-0.653	-0.495	-0.579	-50.5348956	-88.235532	-2.6929026	58.2411807	-8.68604328	-51.37714386
3.27	327	-0.641	-0.612	-0.63	-38.6173692	-70.7030172	-2.86479	57.9547017	-9.01835892	-52.00739766
3.28	328	-0.534	-0.676	-0.689	-34.6066632	-53.6288688	-3.2085648	57.68541144	-9.26473086	-52.48868238
3.29	329	-0.427	-0.711	-0.755	-34.4920716	-41.3102718	-4.010706	57.39893244	-9.44234784	-52.86683466
3.3	330	-0.351	-0.704	-0.755	-34.5493674	-33.6326346	-4.3544808	57.07807596	-9.60277608	-53.17623198
3.31	331	-0.302	-0.68	-0.728	-33.2888598	-30.2521824	-5.8441716	56.79159696	-9.71736768	-53.46844056
3.32	332	-0.24	-0.629	-0.686	-30.7105488	-28.5333084	-8.4797784	56.53376586	-9.7975818	-53.76064914
3.33	333	-0.159	-0.577	-0.64	-25.8977016	-25.5539268	-12.318597	56.3217714	-9.83195928	-54.04712814
3.34	334	-0.093	-0.535	-0.585	-18.907614	-22.1161788	-15.6417534	56.1785319	-9.82050012	-54.32787756
3.35	335	-0.111	-0.52	-0.548	-12.3758928	-16.329303	-17.6471064	56.06966988	-9.7689339	-54.56279034
3.36	336	-0.154	-0.501	-0.523	-6.875496	-12.2613012	-18.7930224	56.0352924	-9.67726062	-54.76905522
3.37	337	-0.18	-0.499	-0.505	1.5469866	-11.9748222	-19.0795014	56.08685862	-9.58558734	-54.98104968
3.38	338	-0.174	-0.526	-0.513	8.2505952	-15.6417534	-19.6524594	56.21290938	-9.49964364	-55.22169204
3.39	339	-0.151	-0.553	-0.546	10.7143146	-20.9702628	-19.8243468	56.37333762	-9.44807742	-55.50817104
3.4	340	-0.118	-0.566	-0.57	10.4851314	-26.642547	-19.480572	56.51084754	-9.41942952	-55.84048668
3.41	341	-0.107	-0.569	-0.556	10.313244	-32.2002396	-17.761698	56.68273494	-9.44234784	-56.21290938
3.42	342	-0.105	-0.571	-0.531	11.2872726	-35.4661002	-15.0114996	56.8660815	-9.49964364	-56.59679124
3.43	343	-0.12	-0.577	-0.536	12.9488508	-38.961144	-11.5737516	57.0666168	-9.60277608	-56.99213226
3.44	344	-0.138	-0.573	-0.561	13.9228794	-41.0237928	-10.3705398	57.28434084	-9.72309726	-57.39893244
3.45	345	-0.122	-0.571	-0.626	14.2666542	-41.3675676	-10.3705398	57.4676874	-9.84341844	-57.80573262
3.46	346	-0.07	-0.568	-0.701	13.2926256	-43.8885828	-10.5424272	57.68541144	-9.97519878	-58.2411807
3.47	347	-0.024	-0.572	-0.696	15.183387	-51.279741	-10.8289062	57.93178338	-10.1413566	-58.74538374
3.48	348	0.065	-0.605	-0.731	14.7250206	-56.2644756	-11.3445684	58.18961448	-10.32470316	-59.28969384
3.49	349	0.124	-0.642	-0.689	16.042824	-68.6403684	-12.605076	58.48182306	-10.55388636	-59.95432512
3.5	350	0.143	-0.69	-0.577	20.7410796	-77.2920342	-15.756345	58.83132744	-10.7716104	-60.71062968
3.51	351	0.12	-0.717	-0.439	28.1322378	-76.2607098	-22.4026578	59.27823468	-10.94922738	-61.48985256
3.52	352	0.092	-0.764	-0.475	30.2521824	-68.0674104	-28.6479	59.73660108	-11.02371192	-62.23469796
3.53	353	0.034	-0.824	-0.497	30.3094782	-68.182002	-31.3980984	60.19496748	-11.06954856	-62.9967321
3.54	354	-0.026	-0.911	-0.465	35.2942128	-76.203414	-27.788463	60.72208884	-11.17841058	-63.81033246
3.55	355	-0.056	-1.023	-0.465	37.4141574	-80.5578948	-20.6837838	61.2778581	-11.35029798	-64.6296624
3.56	356	-0.041	-1.1	-0.514	31.226211	-81.073557	-13.8082878	61.75914282	-11.58521076	-65.42607402
3.57	357	-0.011	-1.103	-0.533	25.0382646	-86.4593622	-9.1100322	62.1945909	-11.88314892	-66.25113354
3.58	358	0	-1.048	-0.534	20.912967	-95.683986	-7.6776372	62.60712066	-12.22692372	-67.1506776
3.59	359	0.008	-0.967	-0.557	13.9228794	-107.7733998	-8.59437	62.98527294	-12.61080558	-68.17627242
3.6	360	0.028	-0.907	-0.561	8.307891	-117.5709816	-10.2559482	63.32904774	-13.00041702	-69.2992701
3.61	361	0.047	-0.868	-0.541	4.9847346	-127.769634	-12.2040054	63.67855212	-13.41867636	-70.5311298
3.62	362	0.072	-0.863	-0.495	3.3804522	-139.6871604	-14.7250206	64.05097482	-13.85985402	-71.88904026
3.63	363	0.071	-0.874	-0.453	3.5523396	-151.6619826	-17.6471064	64.46923416	-14.31822042	-73.37873106
3.64	364	0.035	-0.872	-0.429	2.9220858	-160.4855358	-19.1367972	64.9161414	-14.7823164	-74.96009514
3.65	365	-0.024	-0.862	-0.414	1.3178034	-166.1005242	-20.3973048	65.38023738	-15.23495322	-76.61021418
3.66	366	-0.082	-0.823	-0.386	-0.859437	-168.6788352	-21.6578124	65.84433336	-15.68759004	-78.2947107
3.67	367	-0.117	-0.776	-0.355	-5.443101	-169.1944974	-24.1788276	66.27978144	-16.10584938	-80.00785512
3.68	368	-0.138	-0.761	-0.346	-7.8495246	-169.0799058	-26.5852512	66.70377036	-16.48400166	-81.7324587
3.69	369	-0.145	-0.752	-0.324	-10.3705398	-170.9706672	-28.4760126	67.1220297	-16.8449652	-83.49143976
3.7	370	-0.147	-0.761	-0.298	-13.6936962	-173.892753	-30.1948866	67.53455946	-17.18301042	-85.2847983
3.71	371	-0.152	-0.779	-0.307	-16.2720072	-173.8354572	-30.653253	67.92990048	-17.50959648	-87.09534558
3.72	372	-0.152	-0.782	-0.298	-13.6936962	-170.9706672	-29.9657034	68.3538894	-17.8189938	-88.87151538
3.73	373	-0.156	-0.787	-0.327	-13.8082878	-166.9599612	-28.3041252	68.77214874	-18.11693196	-90.6133077
3.74	374	-0.177	-0.81	-0.366	-16.4438946	-166.2151158	-26.069589	69.17321934	-18.42632928	-92.34364086
3.75	375	-0.171	-0.848	-0.423	-20.4546006	-163.2357342	-26.356068	69.52272372	-18.70134912	-94.0510557
3.76	376	-0.17	-0.903	-0.47	-21.5432208	-160.4855358	-29.1635622	69.8722281	-18.94199148	-95.7412818
3.77	377	-0.208	-0.952	-0.451	-19.6524594	-157.9072248	-32.1429438	70.23892122	-19.1367972	-97.42577832
3.78	378	-0.276	-0.966	-0.423	-17.9335854	-153.0943776	-33.0023808	70.6170735	-19.29722544	-99.07016778
3.79	379	-0.338	-0.927	-0.421	-20.2254174	-145.1875572	-32.085648	70.94938914	-19.42900578	-100.6286135
3.8	380	-0.345	-0.874	-0.385	-24.7517856	-135.1607922	-31.226211	71.19576108	-19.5378678	-102.0896564
3.81	381	-0.237	-0.87	-0.421	-30.9970278	-127.2539718	-31.8564648	71.3619189	-19.61235234	-103.4762148
3.82	382	-0.105	-0.864	-0.354	-35.1223254	-132.926256	-36.2682414	71.51661756	-19.65818898	-104.9372577
3.83	383	-0.001	-0.823	-0.279	-30.7105488	-141.5779218	-40.7373138	71.74580076	-19.6811073	-106.4957035
3.84	384	0.066	-0.753	-0.302	-30.1948866	-142.8957252	-42.1697088	71.98644312	-19.68683688	-108.071338
3.85	385	0.065	-0.67	-0.347	-32.7159018	-143.4113874	-41.1956802	72.19843758	-19.6811073	-109.652702
3.86	386	-0.002	-0.596	-0.361	-35.4661002	-142.7811336	-38.961144	72.38751372	-19.7097552	-111.2168774
3.87	387	-0.099	-0.546	-0.338	-35.8671708	-139.228794	-36.7839036	72.55367154	-19.74413268	-112.7409457
3.88	388	-0.171	-0.533	-0.278	-33.4034514	-131.78034	-36.7266078	72.71982936	-19.74986226	-114.1905294
3.89	389	-0.202	-0.536	-0.234	-31.799169	-122.040054	-37.9298196	72.87452802	-19.72121436	-115.5484399
3.9	390	-0.226	-0.548	-0.218	-33.9764094	-111.8414016	-39.4768062	72.96047172	-19.64672982	-116.8032179
3.91	391	-0.246	-0.558	-0.219	-38.674665	-103.3616232	-41.0237928	72.97766046	-19.53213822	-117.9777818
3.92	392	-0.256	-0.559	-0.229	-42.398892	-98.9498466	-42.0551172	72.9375534	-19.3946283	-119.1122386
3.93	393	-0.274	-0.558	-0.235	-44.8626114	-95.970465	-42.112413	72.85733928	-19.25711838	-120.212318
3.94	394	-0.261	-0.581	-0.226	-46.5814854	-91.67328	-38.7892566	72.74274768	-19.1367972	-121.2608311
3.95	395	-0.212	-0.572	-0.232	-49.0452048	-91.5586884	-34.7785506	72.58804902	-19.05658308	-122.2921555
3.96	396	-0.125	-0.551	-0.199	-47.1544434	-92.8764918	-31.1116194	72.45626868	-19.01647602	-123.3292095
3.97	397	0.005	-0.518	-0.117	-41.5967508	-96.543423	-28.1895336	72.3932433	-19.01647602	-124.3949114
3.98	398	0.119	-0.476	-0.109	-39.247623	-102.2157072	-25.210152	72.37032498	-19.06231266	-125.5007203
3.99	399	0.186	-0.398	-0.19	-43.4302164	-103.0178484	-23.8350528	72.3072996	-19.11960846	-126.6179884
4	400	0.209	-0.332	-0.248	-46.7533728	-102.6167778	-24.0069402	72.19843758	-19.1654451	-127.7237974
4.01	401	0.195	-0.299	-0.312	-44.0031744	-106.6274838	-27.0436176	72.15260094	-19.20555216	-128.8869021
4.02	402	0.158	-0.315	-0.327	-38.7892566	-112.4716554	-32.2002396	72.17551926	-19.21701132	-130.1244914
4.03	403	0.1	-0.347	-0.248	-36.2682414	-118.7741934	-35.9817624	72.25573338	-19.21128174	-131.4365652
4.04	404	0.036	-0.352	-0.101	-32.7731976	-125.5350978	-36.4401288	72.3932433	-19.21128174	-132.817394
4.05	405	-0.006	-0.336	-0.088	-26.2414764	-132.5824812	-35.4661002	72.6224265	-19.22847048	-134.2669777
4.06	406	-0.024	-0.29	-0.155	-23.204799	-137.0515536	-33.7472262	72.89171676	-19.2800367	-135.7509389
4.07	407	-0.051	-0.302	-0.165	-18.5065434	-136.936962	-27.9030546	73.20684366	-19.37170998	-137.223441
4.08	408	-0.075	-0.273	-0.132	-11.172681	-140.0309352	-22.058883	73.60791426	-19.52640864	-138.7074022
4.09	409	-0.09	-0.254	-0.134	-2.9793816	-141.4633302	-17.9335854	74.09492856	-19.70402562	-140.197093
4.1	410	-0.084	-0.236	-0.121	6.016059	-140.947668	-16.4438946	74.67361614	-19.8816426	-141.6753247
4.11	411	-0.045	-0.192	-0.053	12.605076	-140.661189	-16.8449652	75.32678826	-20.04207084	-143.1592859
4.12	412	0.007	-0.145	-0.029	21.2567418	-142.7811336	-16.8449652	76.08309282	-20.19103992	-144.6661654
4.13	413	0.065	-0.113	-0.081	29.8511118	-143.525979	-14.2093584	76.92534108	-20.340009	-146.1787745
4.14	414	0.07	-0.078	-0.114	40.393539	-144.671895	-8.6516658	77.88218094	-20.52335556	-147.6971132
4.15	415	0.021	-0.059	-0.075	50.706783	-146.5053606	-3.6669312	78.94788282	-20.73535002	-149.2154519
4.16	416	-0.027	-0.054	-0.036	61.020027	-145.0156698	-0.8021412	80.12244672	-20.9416149	-150.7280611
4.17	417	-0.065	-0.028	0.016	70.9894962	-138.8850192	-0.5156622	81.38295432	-21.1135023	-152.1776448
4.18	418	-0.07	0	0.06	82.3913604	-130.6917198	-3.5523396	82.7351352	-21.21090516	-153.552744
4.19	419	-0.077	0.023	0.104	92.9910834	-123.8162238	-8.4224826	84.1675302	-21.22236432	-154.8590882
4.2	420	-0.089	0.046	0.161	106.1118216	-112.8154302	-13.6936962	85.70878722	-21.15360936	-156.0623
4.21	421	-0.091	0.051	0.24	118.7168976	-99.8665794	-18.6784308	87.30734004	-20.99318112	-157.1165428
4.22	422	-0.065	0.075	0.264	134.2440594	-86.6312496	-23.4339822	89.00329572	-20.75253876	-158.027546
4.23	423	-0.016	0.119	0.277	147.5939808	-75.7450476	-26.929026	90.7851951	-20.4546006	-158.8067689
4.24	424	-0.052	0.136	0.069	161.6887476	-76.3753014	-28.361421	92.7046044	-20.11655538	-159.5802622
4.25	425	-0.29	0.119	0.054	173.4343866	-87.4906866	-26.8144344	94.78444194	-19.77851016	-160.4626175
4.26	426	-0.612	-0.082	0.487	187.1853786	-92.4181254	-25.6685184	97.0017894	-19.3946283	-161.3678911
4.27	427	-0.833	-0.606	0.741	213.1976718	-109.9506402	-22.2880662	99.52853418	-18.97063938	-162.4393226
4.28	428	-0.948	-1.685	1.546	235.9441044	-121.9254624	-9.2819196	102.3245692	-18.60967584	-163.6368048
4.29	429	-0.602	-3.455	1.867	290.6615934	-118.4304186	28.5906042	105.6821031	-18.55810962	-164.8572053
4.3	430	-0.713	-3.999	2.725	415.0507752	-106.9712586	49.6181628	110.2772263	-18.65551248	-166.0088509
4.31	431	-1.298	-3.997	3.112	267.1130196	-92.1316464	-8.021412	113.2566079	-18.20860524	-166.8224513
4.32	432	-1.801	-3.755	2.299	192.3420006	-84.0529386	-53.6288688	115.3765525	-17.35489782	-167.3438431
4.33	433	-1.649	-3.953	2.873	235.199259	-52.5402486	-81.4746276	117.7887056	-16.3865988	-167.412598
4.34	434	-0.957	-3.016	2.747	226.6621848	-23.6631654	-52.139178	120.0690785	-15.80791122	-167.3266543
4.35	435	-0.467	-1.542	2.177	339.1338402	-19.7097552	-9.5683986	123.5354744	-15.61883508	-167.3954093
4.36	436	-0.602	-1.028	1.81	416.6550576	-17.18874	35.4088044	127.8441185	-15.80218164	-167.6933474
4.37	437	-0.52	-0.592	0.985	734.532156	-18.5638392	76.0888224	135.4587304	-16.26054804	-168.2663054
4.38	438	-0.362	-0.185	0.815	641.4837768	-21.485925	88.4074194	142.1852573	-16.69026654	-169.0054213
4.39	439	-0.132	0.016	1.656	391.1584266	-14.7823164	63.1972674	146.3162845	-16.94809764	-169.5669201
4.4	440	0.216	-0.311	1.344	219.442914	-65.8328742	-16.042824	148.613846	-16.31211426	-169.7502667
4.41	441	0.208	-0.157	1.156	195.6078612	-101.8719324	-17.9908812	150.6994132	-15.34954482	-170.0653936
4.42	442	0.022	-0.161	0.89	186.0967584	-64.2285918	5.443101	152.6761183	-14.81669388	-170.38625
4.43	443	-0.118	-0.053	1.145	180.195291	-52.8840234	21.485925	154.6184459	-14.45000076	-170.7873206
4.44	444	-0.25	-0.07	0.955	147.250206	-53.0559108	26.8144344	156.2284579	-14.08903722	-171.2284983
4.45	445	-0.301	0.004	0.998	157.276971	-60.6189564	25.5539268	157.958791	-13.6364004	-171.6811351
4.46	446	-0.234	-0.015	1.012	176.7002472	-62.6243094	28.5906042	159.8724707	-13.17230442	-172.1509607
4.47	447	-0.212	-0.254	1.169	198.0142848	-72.0208206	28.4187168	161.9981449	-12.59934642	-172.6207862
4.48	448	-0.268	-0.292	1.239	206.0929926	-77.922288	23.8350528	164.1868445	-11.94044472	-173.033316
4.49	449	-0.077	-0.3	1.515	208.2129372	-72.5937786	19.5951636	166.375544	-11.31019092	-173.3713612
4.5	450	-0.244	-0.117	1.611	199.3320882	-73.1094408	27.1582092	168.4897591	-10.67993712	-173.7609727
4.51	451	-0.177	0.137	1.806	190.9096056	-76.2607098	29.507337	170.5065712	-10.00384668	-174.1505841
4.52	452	-0.091	-0.01	1.807	176.5856556	-71.2759752	30.4240698	172.3686847	-9.3678633	-174.5230068
4.53	453	-0.236	0.016	1.789	159.6260988	-65.4890994	32.4294228	174.0589108	-8.77198698	-174.8954295
4.54	454	-0.277	0.037	1.793	135.504567	-60.5616606	26.2987722	175.4855762	-8.21621772	-175.1819085
4.55	455	-0.073	0.098	1.691	112.3570638	-58.3271244	22.2880662	176.6715993	-7.66617804	-175.4225509
4.56	456	-0.128	-0.05	1.649	94.5953658	-58.2698286	20.4546006	177.6628166	-7.11040878	-175.6288157
4.57	457	-0.242	-0.001	1.482	83.365389	-54.0299394	17.7044022	178.5394424	-6.589017	-175.8007031
4.58	458	-0.171	0.139	1.378	80.4433032	-49.7900502	18.907614	179.3816906	-6.10773228	-175.9783201
4.59	459	-0.152	0.012	1.374	75.5731602	-42.0551172	16.4438946	-179.8228683	-5.7009321	-176.1272892
4.6	460	-0.169	0.046	1.328	77.7504006	-30.8251404	27.3873924	-179.0149975	-5.40299394	-176.3851203
4.61	461	-0.21	-0.382	1.248	64.6869582	-30.0229992	13.750992	-178.3389071	-5.11078536	-176.4997119
4.62	462	-0.157	-0.546	1.209	25.9549974	-32.1429438	-4.8128472	-178.081076	-4.79565846	-176.4309569
4.63	463	-0.206	-0.728	1.187	-20.1681216	-30.4240698	-14.2093584	-178.2930704	-4.4977203	-176.2705287
4.64	464	-0.018	-0.242	0.985	-18.8503182	-29.3354496	-4.297185	-178.4821466	-4.20551172	-176.2132329
4.65	465	0.014	-0.167	0.859	-22.345362	-30.1948866	-11.2872726	-178.7514368	-3.90757356	-176.0814526
4.66	466	0.066	0.077	0.779	-44.8053156	-34.8358464	-7.3338624	-179.2098032	-3.55806918	-176.0012384
4.67	467	-0.008	0.284	0.668	-52.5402486	-29.8511118	-12.5477802	-179.7483838	-3.26013102	-175.8637285
4.68	468	0	0.408	0.605	-25.1528562	-23.4339822	-8.9381448	179.9890261	-3.02521824	-175.7720552
4.69	469	0.022	0.518	0.519	-49.3316838	-16.2147114	-6.016059	179.4905527	-2.85906042	-175.7147594
4.7	470	-0.001	0.588	0.587	-33.5753388	-10.026765	5.9014674	179.2499103	-2.76738714	-175.7835144
4.71	471	-0.113	0.557	0.588	-37.9871154	-1.718874	12.5477802	178.871758	-2.74446882	-175.9095652
4.72	472	-0.144	0.315	0.68	-20.8556712	1.6042824	9.9121734	178.6654931	-2.76165756	-176.0126976
4.73	473	-0.1	0.225	0.759	-17.5898106	5.9014674	2.9793816	178.4878762	-2.81895336	-176.0413455
4.74	474	-0.062	0.116	0.867	-13.5218088	10.1986524	0.0572958	178.3446367	-2.91635622	-176.0470751
4.75	475	-0.023	0.11	0.949	-16.2720072	13.5791046	-1.3750992	178.2243155	-3.04813656	-176.0356159
4.76	476	-0.081	0.092	1.016	-23.3766864	16.6730778	-2.3491278	177.9836731	-3.21429438	-176.0126976
4.77	477	-0.087	0.063	1.082	-29.1635622	20.8556712	-2.6929026	177.685735	-3.41482968	-175.9897793
4.78	478	-0.054	0.005	1.105	-32.8877892	24.4653066	-2.8074942	177.3419602	-3.64974246	-175.9611314
4.79	479	0.007	0.034	1.101	-30.7105488	23.491278	-2.6929026	177.0268333	-3.87892566	-175.9324835
4.8	480	-0.059	-0.035	1.094	-27.2728008	19.0795014	-2.1772404	176.7403543	-4.06227222	-175.9038356
4.81	481	-0.071	-0.088	1.123	-22.8610242	12.8342592	-1.8907614	176.5054415	-4.18832298	-175.8866468
4.82	482	-0.123	-0.085	1.136	-17.3606274	9.167328	-1.9480572	176.3220949	-4.27426668	-175.8637285
4.83	483	-0.109	-0.047	1.12	-12.891555	7.9641162	-2.291832	176.1903146	-4.34875122	-175.8350806
4.84	484	-0.043	-0.051	1.108	-9.9694692	8.1360036	-1.2605076	176.0871821	-4.42896534	-175.8236215
4.85	485	-0.08	-0.039	1.095	-5.0420304	8.021412	-0.6875496	176.0585342	-4.47480198	-175.8178919
4.86	486	-0.091	0.002	1.083	-0.4010706	7.5057498	0.6875496	176.0528047	-4.54928652	-175.8178919
4.87	487	-0.072	-0.037	1.065	4.7555514	6.8182002	1.2605076	176.1043709	-4.61804148	-175.829351
4.88	488	-0.047	0.045	1.049	6.2452422	6.7609044	1.7761698	176.1673963	-4.68679644	-175.8465398
4.89	489	-0.111	-0.065	0.972	7.2765666	-1.7761698	2.1772404	176.2418808	-4.6696077	-175.8694581
4.9	490	-0.111	-0.002	0.971	13.2926256	-11.5737516	3.151269	176.471064	-4.56647526	-175.9152947
4.91	491	-0.066	-0.046	0.99	13.6936962	-13.464513	4.5263682	176.6200331	-4.43469492	-175.9611314
4.92	492	-0.046	-0.052	1.006	18.1627686	-10.599723	3.437748	176.8091092	-4.33156248	-175.9955089
4.93	493	-0.067	0	1.115	22.2307704	-3.6669312	4.0680018	177.0382924	-4.30291458	-176.0356159
4.94	494	-0.043	0.079	1.194	22.4026578	1.6615782	5.2139178	177.2674756	-4.3258329	-176.0871821
4.95	495	-0.162	-0.211	1.15	15.0114996	8.9381448	3.4950438	177.3763376	-4.39458786	-176.11583
4.96	496	-0.066	-0.021	1.044	9.7975818	19.8243468	-0.8021412	177.4737405	-4.58939358	-176.1043709
4.97	497	-0.043	-0.171	0.927	-4.583664	22.4026578	-2.4064236	177.4221743	-4.8128472	-176.075723
4.98	498	-0.078	-0.092	0.832	-14.5531332	13.5218088	-0.9167328	177.2732052	-4.94462754	-176.0642638
4.99	499	-0.08	-0.042	0.748	-13.6936962	11.6883432	-1.9480572	177.1299657	-5.05348956	-176.0413455
5	500	-0.076	-0.053	0.772	-7.5630456	11.0007936	-1.432395	177.044022	-5.16235158	-176.0241568
5.01	501	-0.09	-0.037	0.866	-3.151269	9.0527364	-0.2291832	177.0096445	-5.24829528	-176.0184272
5.02	502	-0.085	-0.017	0.926	-6.016059	-2.5210152	0.6302538	176.9466191	-5.22537696	-176.0298863
5.03	503	-0.077	0.006	0.98	-7.7922288	-17.1314442	1.2605076	176.8721346	-5.05348956	-176.0470751
5.04	504	-0.075	-0.023	1.001	-5.6149884	-28.9916748	0.859437	176.8205684	-4.76701056	-176.0642638
5.05	505	-0.073	-0.025	1.01	-4.297185	-36.8984952	0.8021412	176.7919205	-4.40031744	-176.0814526
5.06	506	-0.067	-0.045	1.013	-4.2398892	-38.0444112	2.6929026	176.757543	-4.02789474	-176.1215596
5.07	507	-0.058	-0.097	1.022	-1.2605076	-31.5699858	0.8021412	176.7460838	-3.71276784	-176.1387484
5.08	508	-0.056	-0.081	1.053	-0.8021412	-20.912967	0.4010706	176.7403543	-3.50650296	-176.1502075
5.09	509	-0.069	-0.048	1.092	-1.2032118	-8.3651868	-0.1718874	176.7288951	-3.42055926	-176.1502075
5.1	510	-0.064	-0.041	1.101	-1.2032118	3.7815228	-0.6302538	176.7288951	-3.46066632	-176.1444779
5.11	511	-0.069	-0.027	1.101	-1.0313244	11.3445684	-0.859437	176.7174359	-3.56952834	-176.1330188
5.12	512	-0.074	-0.018	1.092	-1.145916	12.9488508	-0.8021412	176.7002472	-3.6955791	-176.1215596
5.13	513	-0.074	-0.017	1.074	-1.3178034	12.318597	-0.6302538	176.6830585	-3.82162986	-176.1101005
5.14	514	-0.071	-0.033	1.045	-1.8907614	11.45916	-0.3437748	176.6658697	-3.93049188	-176.1043709
5.15	515	-0.062	-0.023	1.011	-2.4637194	10.599723	-0.3437748	176.6658697	-4.03362432	-176.0986413
5.16	516	-0.062	-0.026	0.974	-3.4950438	9.5111028	-0.4583664	176.6314922	-4.1252976	-176.0929117
5.17	517	-0.063	-0.028	0.948	-4.5263682	8.4797784	-0.572958	176.579926	-4.20551172	-176.0871821
5.18	518	-0.056	-0.012	0.951	-4.583664	7.2765666	-0.572958	176.5340894	-4.27999626	-176.075723
5.19	519	-0.063	-0.024	0.956	-3.6669312	5.5576926	-0.6302538	176.4939823	-4.33156248	-176.0699934
5.2	520	-0.069	-0.022	0.963	-2.578311	3.0366774	-0.572958	176.5226302	-4.3544808	-176.0699934
5.21	521	-0.073	-0.027	0.98	-1.4896908	-1.9480572	-0.1718874	176.5054415	-4.33729206	-176.0699934
5.22	522	-0.068	-0.017	1.004	0	-7.0473834	0.4010706	176.5054415	-4.2685371	-176.075723
5.23	523	-0.063	-0.022	1.022	1.432395	-9.9121734	0.859437	176.5226302	-4.16540466	-176.0871821
5.24	524	-0.065	-0.034	1.035	2.86479	-10.8289062	0.9167328	176.5570077	-4.06227222	-176.0986413
5.25	525	-0.063	-0.03	1.048	3.724227	-10.7716104	0.859437	176.6143035	-3.9534102	-176.1101005
5.26	526	-0.063	-0.029	1.053	3.7815228	-9.5111028	0.6302538	176.6544106	-3.85600734	-176.1215596
5.27	527	-0.061	-0.031	1.051	3.0366774	-8.1932994	0.286479	176.6830585	-3.77579322	-176.1272892
5.28	528	-0.063	-0.029	1.045	1.6615782	-7.2192708	0	176.7059768	-3.70703826	-176.1272892
5.29	529	-0.061	-0.026	1.032	0	-6.0733548	-0.1145916	176.7059768	-3.64401288	-176.1272892
5.3	530	-0.062	-0.024	1.023	-1.6042824	-4.3544808	-0.286479	176.7346247	-3.59817624	-176.1330188
5.31	531	-0.06	-0.025	1.013	-2.9793816	-2.4637194	-0.286479	176.7059768	-3.57525792	-176.1330188
5.32	532	-0.059	-0.026	1.004	-4.010706	-0.4010706	-0.286479	176.6601401	-3.56952834	-176.1272892
5.33	533	-0.056	-0.027	0.995	-4.4690724	1.4896908	-0.3437748	176.6143035	-3.5809875	-176.1215596
5.34	534	-0.055	-0.03	0.995	-4.583664	3.9534102	-0.3437748	176.5684669	-3.62109456	-176.1215596
5.35	535	-0.056	-0.032	0.992	-4.1252976	6.2452422	-0.3437748	176.5455485	-3.67266078	-176.11583
5.36	536	-0.059	-0.034	0.994	-2.6356068	7.6776372	-0.2291832	176.5169006	-3.7528749	-176.1101005
5.37	537	-0.061	-0.037	0.999	-0.9167328	7.9641162	-0.1718874	176.5054415	-3.82735944	-176.1043709
5.38	538	-0.064	-0.039	1.008	0.6302538	7.161975	-0.1718874	176.5111711	-3.90184398	-176.1043709
5.39	539	-0.066	-0.036	1.02	2.3491278	5.6722842	0	176.5340894	-3.95913978	-176.0986413
5.4	540	-0.07	-0.033	1.032	3.5523396	3.4950438	0	176.6028443	-3.98778768	-176.1043709
5.41	541	-0.069	-0.033	1.039	4.1252976	0.859437	0.2291832	176.6429514	-3.99924684	-176.1043709
5.42	542	-0.068	-0.031	1.037	3.9534102	-2.4064236	0.3437748	176.6830585	-3.97632852	-176.1101005
5.43	543	-0.065	-0.031	1.024	3.437748	-4.0680018	0.3437748	176.7231655	-3.93622146	-176.11583
5.44	544	-0.063	-0.031	1.017	2.8074942	-4.4690724	0.286479	176.7518134	-3.89038482	-176.11583
5.45	545	-0.062	-0.029	1.019	1.4896908	-3.9534102	0.1718874	176.8091092	-3.83308902	-176.1272892
5.46	546	-0.062	-0.03	1.015	0.1718874	-3.6669312	0.1145916	176.8091092	-3.79871154	-176.1272892
5.47	547	-0.063	-0.027	1.009	-0.8021412	-3.6669312	0.0572958	176.8033796	-3.76433406	-176.1272892
5.48	548	-0.062	-0.029	1.009	-1.4896908	-3.4950438	0	176.7861909	-3.72995658	-176.1330188
5.49	549	-0.062	-0.03	1.005	-2.1199446	-2.5210152	0	176.7690022	-3.70130868	-176.1330188
5.5	550	-0.061	-0.03	1.002	-2.2345362	-1.145916	0	176.8091092	-3.67839036	-176.1387484
5.51	551	-0.06	-0.03	1.003	-1.8907614	-0.3437748	0	176.7919205	-3.67266078	-176.1387484
5.52	552	-0.061	-0.031	1.002	-1.5469866	0.1718874	0.0572958	176.7747317	-3.67266078	-176.1387484
5.53	553	-0.061	-0.031	1.005	-1.0313244	0.4583664	0	176.7632726	-3.67839036	-176.1444779
5.54	554	-0.062	-0.031	1.01	-0.6302538	0.6302538	0.0572958	176.757543	-3.68411994	-176.1444779
5.55	555	-0.062	-0.03	1.014	-0.2291832	0.572958	0.1145916	176.93516	-3.66120162	-176.1616667
5.56	556	-0.062	-0.032	1.018	0.0572958	0.286479	0.1718874	176.93516	-3.66120162	-176.1673963
5.57	557	-0.062	-0.033	1.02	0.286479	0	0.1145916	176.9408896	-3.66120162	-176.1673963
5.58	558	-0.061	-0.032	1.02	0.3437748	-0.3437748	0.1718874	176.9408896	-3.66120162	-176.1673963
5.59	559	-0.06	-0.031	1.018	0.286479	-0.7448454	0.0572958	176.9466191	-3.64974246	-176.1673963
5.6	560	-0.06	-0.031	1.019	0.1718874	-1.145916	0.1145916	177.044022	-3.6096354	-176.1788554
5.61	561	-0.058	-0.031	1.022	0	-1.432395	0.1145916	177.044022	-3.59244666	-176.184585
5.62	562	-0.058	-0.03	1.022	-0.2291832	-1.7761698	0	177.044022	-3.57525792	-176.184585
5.63	563	-0.058	-0.031	1.02	-0.4010706	-1.8334656	0	177.0382924	-3.55806918	-176.184585
5.64	564	-0.057	-0.031	1.014	-0.5156622	-1.6615782	0	177.0325628	-3.54088044	-176.184585
5.65	565	-0.057	-0.031	1.007	-0.4583664	-1.5469866	-0.0572958	177.0783995	-3.50077338	-176.1903146
5.66	566	-0.056	-0.03	1.009	-0.3437748	-1.145916	-0.0572958	177.0783995	-3.48931422	-176.1903146
5.67	567	-0.056	-0.032	1.011	-0.4010706	-0.6875496	-0.0572958	177.0726699	-3.48358464	-176.1903146
5.68	568	-0.057	-0.03	1.014	-0.4010706	-0.4010706	-0.0572958	177.0669403	-3.47785506	-176.1903146
5.69	569	-0.057	-0.031	1.016	-0.286479	0	-0.1145916	177.0669403	-3.47785506	-176.184585
5.7	570	-0.057	-0.031	1.017	-0.0572958	0.4583664	-0.0572958	177.1758023	-3.437748	-176.1960442
5.71	571	-0.057	-0.031	1.015	0.0572958	0.9740286	-0.0572958	177.1758023	-3.44920716	-176.1960442
5.72	572	-0.058	-0.031	1.014	0.1145916	1.4896908	0	177.1758023	-3.46066632	-176.1960442
5.73	573	-0.058	-0.031	1.014	0.2291832	1.718874	0	177.1815319	-3.47785506	-176.1960442
5.74	574	-0.059	-0.031	1.018	0.286479	1.718874	0	177.1815319	-3.4950438	-176.1960442
5.75	575	-0.061	-0.03	1.02	0.4010706	1.5469866	0	177.2330981	-3.50077338	-176.2017737
5.76	576	-0.061	-0.03	1.019	0.3437748	1.2605076	0	177.2330981	-3.51796212	-176.2017737
5.77	577	-0.061	-0.03	1.017	0.4010706	0.9740286	0	177.2388277	-3.5236917	-176.2017737
5.78	578	-0.061	-0.03	1.015	0.4010706	0.6302538	0	177.2445573	-3.53515086	-176.2017737
5.79	579	-0.06	-0.031	1.015	0.4010706	0.2291832	0	177.2502869	-3.53515086	-176.2017737
5.8	580	-0.061	-0.031	1.015	0.3437748	0	0.0572958	177.3935264	-3.50650296	-176.2132329
5.81	581	-0.06	-0.031	1.016	0.2291832	-0.1718874	0	177.3935264	-3.50650296	-176.2132329
5.82	582	-0.061	-0.032	1.016	0.0572958	-0.286479	0	177.3935264	-3.50077338	-176.2132329
5.83	583	-0.06	-0.031	1.014	0	-0.2291832	0.0572958	177.3935264	-3.50077338	-176.2132329
5.84	584	-0.061	-0.032	1.012	0	-0.2291832	0	177.399256	-3.4950438	-176.2132329
5.85	585	-0.061	-0.032	1.011	0.0572958	-0.0572958	0	177.5195771	-3.4663959	-176.2304216
5.86	586	-0.06	-0.032	1.01	0.0572958	0	0	177.5195771	-3.4663959	-176.2304216
5.87	587	-0.061	-0.033	1.011	0	0	0	177.5195771	-3.4663959	-176.2304216
5.88	588	-0.062	-0.031	1.014	-0.0572958	0.1718874	0	177.5195771	-3.47212548	-176.2304216
5.89	589	-0.061	-0.031	1.017	-0.1145916	0.1718874	0	177.5195771	-3.47212548	-176.2304216
5.9	590	-0.06	-0.031	1.018	-0.3437748	-0.1145916	0	177.5424955	-3.46066632	-176.2304216
5.91	591	-0.06	-0.031	1.015	-0.4010706	-0.4010706	0	177.5367659	-3.45493674	-176.2304216
5.92	592	-0.059	-0.031	1.01	-0.1718874	0	0	177.5367659	-3.45493674	-176.2304216
5.93	593	-0.058	-0.032	1.016	-0.286479	0.3437748	-0.0572958	177.5310363	-3.46066632	-176.2304216
5.94	594	-0.06	-0.031	1.02	-0.572958	0.3437748	-0.0572958	177.5253067	-3.4663959	-176.2304216
5.95	595	-0.061	-0.031	1.02	-0.572958	-0.2291832	-0.0572958	177.5424955	-3.45493674	-176.2304216
5.96	596	-0.061	-0.03	1.021	-0.4583664	-0.9740286	-0.0572958	177.5367659	-3.44920716	-176.2304216
5.97	597	-0.06	-0.031	1.023	-0.4583664	-1.0313244	0	177.5310363	-3.437748	-176.2304216
5.98	598	-0.058	-0.032	1.017	-0.5156622	-0.4583664	0	177.5253067	-3.43201842	-176.2304216
5.99	599	-0.057	-0.031	1.015	-0.4583664	-0.1145916	-0.0572958	177.5253067	-3.43201842	-176.2304216
6	600	-0.058	-0.031	1.011	-0.2291832	-0.2291832	0	177.548225	-3.40337052	-176.2304216
6.01	601	-0.059	-0.03	1.01	-0.1718874	-0.286479	0	177.5424955	-3.39764094	-176.2304216
6.02	602	-0.058	-0.031	1.008	-0.1718874	-0.1718874	0	177.5424955	-3.39764094	-176.2304216
6.03	603	-0.059	-0.031	1.01	-0.0572958	-0.0572958	0	177.5424955	-3.39764094	-176.2304216
6.04	604	-0.059	-0.03	1.012	0	-0.0572958	0	177.5424955	-3.39764094	-176.2304216
6.05	605	-0.058	-0.031	1.015	0	0	0	177.5997913	-3.3518043	-176.2361512
6.06	606	-0.058	-0.031	1.015	0	0	0	177.5940617	-3.3518043	-176.2361512
6.07	607	-0.058	-0.031	1.017	0	0.1145916	0	177.5940617	-3.3518043	-176.2361512
6.08	608	-0.058	-0.032	1.018	-0.0572958	0.2291832	0	177.5940617	-3.3518043	-176.2361512
6.09	609	-0.059	-0.031	1.018	0	0.1718874	0	177.5940617	-3.35753388	-176.2361512
6.1	610	-0.059	-0.032	1.019	0	0.2291832	0.0572958	177.6227096	-3.34034514	-176.2418808
6.11	611	-0.059	-0.031	1.018	0	0.4010706	0	177.6227096	-3.34607472	-176.2418808
6.12	612	-0.058	-0.033	1.015	0	0.286479	0	177.6227096	-3.3518043	-176.2418808
6.13	613	-0.058	-0.033	1.013	0.1145916	0.286479	0	177.6227096	-3.3518043	-176.2418808
6.14	614	-0.058	-0.032	1.012	0.1718874	0.2291832	0	177.6227096	-3.35753388	-176.2418808
6.15	615	-0.059	-0.033	1.015	0.1145916	0.2291832	0	177.6398983	-3.34034514	-176.2418808
6.16	616	-0.059	-0.031	1.016	0	0.1718874	0	177.6398983	-3.34607472	-176.2418808
6.17	617	-0.059	-0.032	1.016	-0.1145916	0.1145916	0	177.6398983	-3.34607472	-176.2418808
6.18	618	-0.06	-0.031	1.016	0	0.1145916	-0.0572958	177.6398983	-3.34607472	-176.2418808
6.19	619	-0.058	-0.032	1.016	0.0572958	0.0572958	0	177.6398983	-3.34607472	-176.2418808
6.2	620	-0.059	-0.031	1.016	0.1145916	0.1718874	0	177.6513575	-3.34034514	-176.2418808
6.21	621	-0.06	-0.032	1.016	0.1145916	0.2291832	0	177.6570871	-3.34607472	-176.2418808
6.22	622	-0.059	-0.032	1.016	0.0572958	0.286479	0	177.6570871	-3.34607472	-176.2418808
6.23	623	-0.06	-0.032	1.013	0.0572958	0.286479	0	177.6570871	-3.3518043	-176.2418808
6.24	624	-0.059	-0.032	1.013	0.0572958	0.286479	0	177.6570871	-3.3518043	-176.2418808
6.25	625	-0.059	-0.032	1.015	0.1145916	0.2291832	0	177.6742758	-3.3518043	-176.2418808
6.26	626	-0.06	-0.031	1.014	0.1718874	0.2291832	0	177.6742758	-3.35753388	-176.2418808
6.27	627	-0.06	-0.031	1.014	0.1718874	0.1145916	0	177.6800054	-3.35753388	-176.2418808
6.28	628	-0.059	-0.031	1.015	0.0572958	0	0	177.6800054	-3.35753388	-176.2418808
6.29	629	-0.06	-0.032	1.017	-0.0572958	-0.1145916	0	177.6800054	-3.35753388	-176.2418808
6.3	630	-0.06	-0.032	1.017	-0.0572958	-0.2291832	0	177.685735	-3.3518043	-176.2418808
6.31	631	-0.059	-0.032	1.015	-0.1145916	-0.1718874	0	177.6800054	-3.34607472	-176.2418808
6.32	632	-0.059	-0.032	1.015	-0.0572958	-0.1718874	0	177.6800054	-3.34607472	-176.2418808
6.33	633	-0.06	-0.031	1.015	-0.0572958	-0.1145916	0	177.6800054	-3.34607472	-176.2418808
6.34	634	-0.059	-0.031	1.015	0	-0.1145916	0	177.6800054	-3.34034514	-176.2418808
6.35	635	-0.059	-0.031	1.015	0.1145916	-0.1145916	0	177.6971941	-3.34034514	-176.2418808
6.36	636	-0.059	-0.032	1.015	0.1718874	0	0	177.7029237	-3.34034514	-176.2476104
6.37	637	-0.057	-0.032	1.013	0.1145916	0	0.0572958	177.7029237	-3.34034514	-176.2476104
6.38	638	-0.059	-0.031	1.014	0.2291832	-0.1718874	0.0572958	177.7029237	-3.34034514	-176.2476104
6.39	639	-0.059	-0.032	1.015	0	0	0	177.7086533	-3.34034514	-176.2476104
6.4	640	-0.059	-0.032	1.017	-0.1718874	0.1145916	0.0572958	177.7086533	-3.32888598	-176.2476104
6.41	641	-0.059	-0.032	1.016	-0.4583664	-0.0572958	0	177.7029237	-3.3231564	-176.2476104
6.42	642	-0.059	-0.032	1.011	-0.4010706	-0.2291832	0	177.7029237	-3.3231564	-176.2476104
6.43	643	-0.058	-0.033	1.007	0	0	0	177.7029237	-3.3231564	-176.2476104
6.44	644	-0.057	-0.032	1.013	0	0.3437748	0	177.7029237	-3.32888598	-176.2476104
6.45	645	-0.059	-0.032	1.017	-0.3437748	0.286479	0	177.6971941	-3.32888598	-176.2476104
6.46	646	-0.059	-0.033	1.018	-0.5156622	-0.286479	0.0572958	177.6914645	-3.3231564	-176.25334
6.47	647	-0.059	-0.033	1.024	-0.6302538	-0.8021412	0	177.685735	-3.31742682	-176.25334
6.48	648	-0.059	-0.033	1.028	-0.9740286	-0.4583664	0	177.6742758	-3.31169724	-176.25334
6.49	649	-0.058	-0.033	1.023	-0.9740286	0.1718874	0	177.6685462	-3.31169724	-176.25334
6.5	650	-0.058	-0.033	1.017	-0.859437	0.4010706	0	177.6570871	-3.31742682	-176.25334
6.51	651	-0.059	-0.032	1.015	-0.572958	0.3437748	-0.0572958	177.6513575	-3.31742682	-176.25334
6.52	652	-0.059	-0.033	1.012	-0.572958	0.1718874	0	177.6456279	-3.3231564	-176.25334
6.53	653	-0.059	-0.032	1.012	-0.5156622	0.1145916	-0.0572958	177.6398983	-3.3231564	-176.25334
6.54	654	-0.058	-0.032	1.01	-0.4010706	0.1718874	0	177.6341687	-3.3231564	-176.2476104
6.55	655	-0.059	-0.033	1.01	-0.2291832	0	0	177.6341687	-3.3231564	-176.25334
6.56	656	-0.059	-0.032	1.013	-0.1145916	0.0572958	0	177.6341687	-3.32888598	-176.25334
6.57	657	-0.058	-0.033	1.015	-0.1718874	0.286479	0	177.6341687	-3.32888598	-176.2476104
6.58	658	-0.059	-0.032	1.016	-0.1145916	0.286479	0	177.6341687	-3.33461556	-176.2476104
6.59	659	-0.059	-0.033	1.017	0	0.3437748	0	177.6341687	-3.33461556	-176.2476104
6.6	660	-0.059	-0.034	1.02	0	0.286479	0	177.6341687	-3.32888598	-176.2476104
6.61	661	-0.059	-0.034	1.02	-0.0572958	0.286479	0	177.6284392	-3.33461556	-176.2476104
6.62	662	-0.06	-0.034	1.018	-0.1145916	0.5156622	0	177.6284392	-3.34034514	-176.2476104
6.63	663	-0.059	-0.034	1.015	-0.0572958	0.4010706	0	177.6284392	-3.34607472	-176.2476104
6.64	664	-0.061	-0.035	1.011	0.0572958	0.3437748	0	177.6284392	-3.34607472	-176.2476104
6.65	665	-0.059	-0.035	1.011	0.0572958	0.4010706	0	177.6284392	-3.3518043	-176.2476104
6.66	666	-0.059	-0.035	1.015	0.1145916	0.4010706	0	177.6284392	-3.35753388	-176.2476104
6.67	667	-0.059	-0.035	1.016	0	0.286479	0	177.6284392	-3.35753388	-176.2476104
6.68	668	-0.06	-0.034	1.017	-0.0572958	0.1718874	0	177.6284392	-3.36326346	-176.2476104
6.69	669	-0.061	-0.035	1.018	0	0	0	177.6284392	-3.36326346	-176.2476104
6.7	670	-0.06	-0.035	1.018	-0.0572958	0.0572958	0	177.6112504	-3.36326346	-176.2476104
6.71	671	-0.059	-0.035	1.016	0	0.0572958	0	177.6112504	-3.36326346	-176.2476104
6.72	672	-0.059	-0.035	1.015	-0.0572958	0	0	177.6112504	-3.36326346	-176.2476104
6.73	673	-0.06	-0.034	1.016	0	-0.0572958	0	177.6112504	-3.36326346	-176.2476104
6.74	674	-0.059	-0.035	1.016	0	0	0	177.6112504	-3.36326346	-176.2476104
6.75	675	-0.059	-0.035	1.016	0.1145916	0	0	177.6112504	-3.35753388	-176.2476104
6.76	676	-0.06	-0.034	1.014	0.286479	-0.0572958	0	177.6112504	-3.35753388	-176.2476104
6.77	677	-0.06	-0.034	1.013	0.4010706	-0.0572958	0	177.61698	-3.35753388	-176.2476104
6.78	678	-0.06	-0.034	1.013	0.4010706	-0.0572958	0	177.6227096	-3.35753388	-176.2476104
6.79	679	-0.06	-0.034	1.016	0.4010706	-0.0572958	0	177.6284392	-3.35753388	-176.2476104
6.8	680	-0.06	-0.034	1.018	0.286479	-0.1145916	0	177.6284392	-3.35753388	-176.2476104
6.81	681	-0.06	-0.034	1.018	0.2291832	-0.0572958	0	177.6284392	-3.35753388	-176.2476104
6.82	682	-0.06	-0.033	1.017	0.3437748	-0.1145916	0	177.6341687	-3.3518043	-176.2476104
6.83	683	-0.06	-0.034	1.017	0.2291832	-0.2291832	0	177.6341687	-3.3518043	-176.2476104
6.84	684	-0.06	-0.035	1.013	0.286479	-0.4010706	0	177.6398983	-3.34607472	-176.2476104
6.85	685	-0.06	-0.034	1.012	0.5156622	-0.5156622	0	177.6456279	-3.34034514	-176.2476104
6.86	686	-0.059	-0.035	1.016	0.4010706	-0.4010706	0	177.6513575	-3.33461556	-176.2476104
6.87	687	-0.059	-0.034	1.019	0.286479	-0.4010706	0	177.6513575	-3.32888598	-176.2476104
6.88	688	-0.059	-0.034	1.018	0.4010706	-0.4010706	0	177.6570871	-3.32888598	-176.2476104
6.89	689	-0.059	-0.034	1.016	0.4583664	-0.4010706	0	177.6628166	-3.3231564	-176.2476104
6.9	690	-0.059	-0.035	1.012	0.3437748	-0.4010706	0	177.6628166	-3.3231564	-176.2476104
6.91	691	-0.059	-0.035	1.013	0.3437748	-0.286479	0	177.6628166	-3.31742682	-176.2476104
6.92	692	-0.059	-0.035	1.016	0.2291832	-0.1145916	0	177.6685462	-3.31742682	-176.2476104
6.93	693	-0.059	-0.033	1.017	0	0	-0.0572958	177.6685462	-3.31742682	-176.2418808
6.94	694	-0.06	-0.034	1.016	-0.2291832	-0.286479	0	177.6628166	-3.31742682	-176.2418808
6.95	695	-0.06	-0.035	1.014	-0.0572958	-0.4010706	0	177.6570871	-3.31169724	-176.2418808
6.96	696	-0.058	-0.035	1.009	0.1718874	-0.1145916	0	177.6570871	-3.30596766	-176.2418808
6.97	697	-0.058	-0.036	1.014	0.4010706	0.4010706	0	177.6628166	-3.31169724	-176.2418808
6.98	698	-0.059	-0.035	1.02	0.0572958	0.3437748	0	177.6628166	-3.31742682	-176.2418808
6.99	699	-0.061	-0.035	1.021	-0.1718874	-0.1718874	0	177.6628166	-3.31169724	-176.2418808
7	700	-0.061	-0.035	1.018	-0.1718874	-0.8021412	0	177.6570871	-3.30596766	-176.2418808
7.01	701	-0.059	-0.035	1.022	-0.2291832	-0.5156622	0	177.6513575	-3.30023808	-176.2418808
7.02	702	-0.058	-0.036	1.019	-0.572958	0	0	177.6456279	-3.30023808	-176.2418808
7.03	703	-0.059	-0.034	1.015	-0.3437748	0.1145916	0	177.6456279	-3.30023808	-176.2418808
7.04	704	-0.059	-0.035	1.015	-0.1145916	-0.0572958	0	177.6398983	-3.30023808	-176.2418808
7.05	705	-0.06	-0.035	1.012	-0.0572958	-0.0572958	0	177.6398983	-3.30023808	-176.2418808
7.06	706	-0.06	-0.034	1.011	0	-0.1145916	0	177.6398983	-3.30023808	-176.2418808
7.07	707	-0.059	-0.034	1.009	0.0572958	0	0	177.6398983	-3.30023808	-176.2418808
7.08	708	-0.059	-0.035	1.009	0.2291832	0	0	177.6398983	-3.30023808	-176.2418808
7.09	709	-0.059	-0.035	1.012	0.286479	-0.0572958	0	177.6456279	-3.30023808	-176.2476104
7.1	710	-0.06	-0.035	1.016	0.286479	0	0	177.6398983	-3.2945085	-176.2418808
7.11	711	-0.059	-0.035	1.018	0.1718874	0.1145916	0	177.6398983	-3.2945085	-176.2476104
7.12	712	-0.059	-0.034	1.017	0.1718874	0.1718874	0	177.6456279	-3.2945085	-176.2476104
7.13	713	-0.06	-0.036	1.018	0.1718874	0.1718874	0	177.6456279	-3.2945085	-176.2476104
7.14	714	-0.059	-0.034	1.019	0.1718874	0	0	177.6456279	-3.2945085	-176.2476104
7.15	715	-0.059	-0.035	1.018	0.0572958	0.0572958	0	177.6398983	-3.28877892	-176.2418808
7.16	716	-0.059	-0.035	1.017	0	0	0	177.6398983	-3.28877892	-176.2418808
7.17	717	-0.058	-0.036	1.014	0	0.0572958	0	177.6398983	-3.28877892	-176.2418808
7.18	718	-0.058	-0.035	1.013	0.1718874	0.1145916	0	177.6398983	-3.2945085	-176.2418808
7.19	719	-0.06	-0.036	1.015	0.0572958	0.286479	0	177.6398983	-3.2945085	-176.2418808
7.2	720	-0.058	-0.035	1.015	0	0.1718874	-0.0572958	177.6398983	-3.2945085	-176.2418808
7.21	721	-0.06	-0.035	1.018	-0.1145916	0	0	177.6398983	-3.30023808	-176.2418808
7.22	722	-0.06	-0.036	1.016	-0.1718874	0.0572958	0	177.6341687	-3.30023808	-176.2418808
7.23	723	-0.059	-0.036	1.014	0	0.0572958	0	177.6341687	-3.30023808	-176.2418808
7.24	724	-0.059	-0.036	1.013	0.1718874	0.0572958	-0.0572958	177.6398983	-3.30023808	-176.2418808
7.25	725	-0.059	-0.036	1.014	0.1718874	0.0572958	-0.0572958	177.6227096	-3.30596766	-176.2418808
7.26	726	-0.06	-0.036	1.017	0.1718874	0.0572958	0	177.6284392	-3.30596766	-176.2418808
7.27	727	-0.059	-0.035	1.018	0	0.1145916	0	177.6284392	-3.30596766	-176.2418808
7.28	728	-0.059	-0.036	1.017	0.0572958	0.1718874	-0.0572958	177.6284392	-3.31169724	-176.2361512
7.29	729	-0.059	-0.034	1.015	0.0572958	0.2291832	0	177.6284392	-3.31169724	-176.2361512
7.3	730	-0.06	-0.034	1.013	0.1145916	0.2291832	-0.0572958	177.6284392	-3.31742682	-176.2361512
7.31	731	-0.058	-0.035	1.013	0.2291832	0.286479	0	177.6341687	-3.31742682	-176.2361512
7.32	732	-0.06	-0.035	1.014	0.286479	0.286479	0	177.6341687	-3.3231564	-176.2361512
7.33	733	-0.06	-0.035	1.015	0.3437748	0.2291832	0	177.6398983	-3.3231564	-176.2361512
7.34	734	-0.06	-0.035	1.015	0.3437748	0.1718874	0	177.6456279	-3.32888598	-176.2361512
7.35	735	-0.06	-0.035	1.017	0.286479	0.0572958	0	177.6398983	-3.32888598	-176.2361512
7.36	736	-0.06	-0.034	1.018	0.1718874	-0.0572958	0	177.6456279	-3.32888598	-176.2361512
7.37	737	-0.06	-0.034	1.019	0	-0.0572958	0	177.6456279	-3.32888598	-176.2361512
7.38	738	-0.059	-0.035	1.017	0.0572958	0	0	177.6456279	-3.32888598	-176.2361512
7.39	739	-0.06	-0.035	1.015	0.1145916	0	0.0572958	177.6456279	-3.32888598	-176.2418808
7.4	740	-0.06	-0.035	1.015	0.286479	0	0	177.6398983	-3.32888598	-176.2418808
7.41	741	-0.06	-0.034	1.013	0.2291832	-0.0572958	0.1145916	177.6398983	-3.32888598	-176.2418808
7.42	742	-0.059	-0.035	1.014	0.1718874	-0.1718874	0.0572958	177.6456279	-3.3231564	-176.2418808
7.43	743	-0.06	-0.035	1.015	0.2291832	-0.2291832	0	177.6456279	-3.3231564	-176.2418808
7.44	744	-0.06	-0.036	1.014	0.2291832	-0.286479	0	177.6513575	-3.31742682	-176.2418808
7.45	745	-0.06	-0.035	1.016	0.1718874	-0.0572958	0	177.6398983	-3.3231564	-176.2418808
7.46	746	-0.059	-0.034	1.015	0.2291832	0.2291832	0	177.6456279	-3.3231564	-176.2418808
7.47	747	-0.059	-0.034	1.016	0	0.1145916	0	177.6456279	-3.32888598	-176.2418808
7.48	748	-0.061	-0.035	1.016	-0.1145916	-0.0572958	0	177.6456279	-3.3231564	-176.2418808
7.49	749	-0.06	-0.036	1.014	0	-0.0572958	0	177.6456279	-3.3231564	-176.2418808
7.5	750	-0.058	-0.036	1.009	0.286479	0.2291832	0	177.6398983	-3.3231564	-176.2361512
7.51	751	-0.058	-0.036	1.017	0.4010706	0.6302538	0	177.6456279	-3.32888598	-176.2361512
