TimeStamp(s)	FrameCounter	AccX	AccY	AccZ	GyrX	GyrY	GyrZ	EulerX	EulerY	EulerZ
0.01	1	-0.063	-1.005	0.066	-2.4637194	-5.72958	0.3437748	90.56747106	-3.07105488	-64.2572397
0.02	2	-0.068	-1.005	0.067	-2.005353	-2.6929026	0.4583664	90.55028232	-3.07105488	-64.28015802
0.03	3	-0.066	-1.006	0.066	-2.0626488	-2.5210152	0.5156622	90.53309358	-3.07678446	-64.30880592
0.04	4	-0.06	-1.007	0.064	-2.1772404	-2.4064236	0.5156622	90.51017526	-3.08251404	-64.33172424
0.05	5	-0.057	-1.005	0.065	-2.0626488	-2.578311	0.6302538	90.51590484	-3.08251404	-64.35464256
0.06	6	-0.053	-1.002	0.066	-1.9480572	-3.0366774	0.572958	90.4987161	-3.08824362	-64.38329046
0.07	7	-0.054	-1.002	0.069	-1.8334656	-3.6669312	0.6875496	90.48152736	-3.0939732	-64.42339752
0.08	8	-0.055	-1.003	0.069	-1.7761698	-4.2398892	0.7448454	90.4700682	-3.09970278	-64.46350458
0.09	9	-0.058	-1.003	0.071	-2.005353	-4.6982556	0.6302538	90.45287946	-3.10543236	-64.50934122
0.1	10	-0.063	-1.006	0.071	-2.1199446	-4.9274388	0.4583664	90.45860904	-3.11116194	-64.56090744
0.11	11	-0.066	-1.007	0.07	-2.0626488	-4.9274388	0.2291832	90.4414203	-3.11116194	-64.61247366
0.12	12	-0.068	-1.011	0.069	-2.3491278	-4.4690724	0	90.41850198	-3.11116194	-64.6583103
0.13	13	-0.068	-1.01	0.069	-2.4637194	-4.1825934	-0.0572958	90.39558366	-3.10543236	-64.69841736
0.14	14	-0.066	-1.007	0.07	-2.578311	-4.010706	-0.0572958	90.37266534	-3.10543236	-64.73852442
0.15	15	-0.063	-1.003	0.069	-2.4637194	-3.9534102	0	90.37839492	-3.10543236	-64.77863148
0.16	16	-0.059	-1.002	0.068	-2.3491278	-3.8961144	0.1145916	90.3554766	-3.10543236	-64.81873854
0.17	17	-0.057	-1.002	0.069	-2.3491278	-3.7815228	0.1718874	90.33255828	-3.10543236	-64.85311602
0.18	18	-0.057	-1.004	0.068	-2.291832	-3.7815228	0.1718874	90.30963996	-3.10543236	-64.89322308
0.19	19	-0.058	-1.005	0.069	-2.1772404	-3.8388186	0.1718874	90.29245122	-3.10543236	-64.93333014
0.2	20	-0.058	-1.006	0.07	-2.0626488	-4.010706	0.0572958	90.30391038	-3.10543236	-64.96770762
0.21	21	-0.059	-1.006	0.071	-2.1199446	-4.4690724	0	90.28672164	-3.09970278	-65.01354426
0.22	22	-0.06	-1.004	0.071	-2.1772404	-4.6409598	0.0572958	90.26380332	-3.09970278	-65.0593809
0.23	23	-0.063	-1.002	0.074	-2.2345362	-4.7555514	0	90.24661458	-3.09970278	-65.11094712
0.24	24	-0.063	-1.003	0.073	-2.4637194	-4.8128472	0	90.22369626	-3.09970278	-65.15678376
0.25	25	-0.065	-1.005	0.069	-2.4064236	-4.6409598	-0.1145916	90.22369626	-3.09970278	-65.2026204
0.26	26	-0.061	-1.01	0.066	-2.3491278	-4.2398892	-0.1145916	90.20650752	-3.0939732	-65.24845704
0.27	27	-0.059	-1.013	0.068	-2.3491278	-4.1252976	-0.1145916	90.1835892	-3.0939732	-65.2885641
0.28	28	-0.056	-1.013	0.067	-2.291832	-4.3544808	-0.0572958	90.16067088	-3.0939732	-65.33440074
0.29	29	-0.055	-1.01	0.068	-2.5210152	-4.6409598	0.1145916	90.13775256	-3.0939732	-65.38023738
0.3	30	-0.057	-1.006	0.07	-2.7501984	-4.9847346	0.3437748	90.13775256	-3.0939732	-65.42607402
0.31	31	-0.058	-1	0.069	-2.7501984	-4.9847346	0.4010706	90.11483424	-3.0939732	-65.47764024
0.32	32	-0.059	-0.998	0.071	-2.6356068	-4.8128472	0.3437748	90.09191592	-3.09970278	-65.52347688
0.33	33	-0.059	-0.998	0.069	-2.4064236	-4.7555514	0.1718874	90.0689976	-3.09970278	-65.5750431
0.34	34	-0.059	-1	0.064	-2.6356068	-4.7555514	0	90.04607928	-3.09970278	-65.62087974
0.35	35	-0.058	-1.003	0.061	-2.8074942	-5.0420304	-0.1145916	90.0403497	-3.0939732	-65.67244596
0.36	36	-0.056	-1.007	0.061	-2.8074942	-5.3858052	-0.286479	90.01743138	-3.08824362	-65.72401218
0.37	37	-0.055	-1.008	0.062	-2.6929026	-6.0733548	-0.4010706	89.98878348	-3.08251404	-65.78703756
0.38	38	-0.053	-1.009	0.061	-2.578311	-6.6463128	-0.4010706	89.97159474	-3.07678446	-65.85006294
0.39	39	-0.053	-1.009	0.06	-2.4637194	-7.0473834	-0.286479	89.94867642	-3.07105488	-65.9188179
0.4	40	-0.054	-1.01	0.06	-2.4064236	-7.161975	-0.286479	89.94867642	-3.0653253	-65.99330244
0.41	41	-0.057	-1.01	0.059	-2.4064236	-7.0473834	-0.0572958	89.9257581	-3.05959572	-66.0620574
0.42	42	-0.062	-1.008	0.058	-2.4637194	-6.875496	0.0572958	89.90856936	-3.05959572	-66.13081236
0.43	43	-0.066	-1.002	0.055	-2.5210152	-6.6463128	0.2291832	89.88565104	-3.05959572	-66.19383774
0.44	44	-0.069	-0.998	0.054	-2.3491278	-6.4171296	0.572958	89.86273272	-3.0653253	-66.2625927
0.45	45	-0.068	-0.995	0.052	-2.1199446	-6.1306506	0.9740286	89.86273272	-3.08251404	-66.32561808
0.46	46	-0.066	-0.995	0.051	-2.005353	-6.1306506	1.145916	89.84554398	-3.08824362	-66.38291388
0.47	47	-0.064	-0.997	0.053	-1.7761698	-6.589017	1.3750992	89.83408482	-3.10543236	-66.45166884
0.48	48	-0.061	-0.998	0.055	-1.8334656	-6.9327918	1.3750992	89.81689608	-3.11689152	-66.5204238
0.49	49	-0.062	-1	0.056	-1.8334656	-7.3911582	1.2605076	89.80543692	-3.12835068	-66.59490834
0.5	50	-0.065	-1.005	0.061	-1.7761698	-7.9068204	1.0313244	89.8111665	-3.13980984	-66.67512246
0.51	51	-0.067	-1.008	0.065	-1.8334656	-7.9641162	0.9740286	89.79970734	-3.14553942	-66.749607
0.52	52	-0.071	-1.012	0.066	-1.8334656	-7.9068204	1.0886202	89.7825186	-3.15699858	-66.82982112
0.53	53	-0.072	-1.013	0.067	-1.8907614	-7.6203414	1.0886202	89.77105944	-3.16845774	-66.90430566
0.54	54	-0.077	-1.011	0.065	-2.1199446	-7.3911582	1.0886202	89.7538707	-3.17418732	-66.9787902
0.55	55	-0.077	-1.01	0.064	-2.3491278	-6.7609044	1.0886202	89.7538707	-3.19137606	-67.05327474
0.56	56	-0.076	-1.007	0.065	-2.4637194	-6.302538	1.2032118	89.73095238	-3.20283522	-67.11630012
0.57	57	-0.072	-1.005	0.065	-2.4637194	-5.9014674	1.2605076	89.71376364	-3.21429438	-67.17359592
0.58	58	-0.067	-1.003	0.064	-2.4064236	-5.5576926	1.2605076	89.69084532	-3.22575354	-67.22516214
0.59	59	-0.063	-1.003	0.066	-2.291832	-5.3858052	1.2605076	89.67365658	-3.2372127	-67.28245794
0.6	60	-0.058	-1.004	0.064	-2.1772404	-5.5003968	1.2605076	89.67938616	-3.24867186	-67.33402416
0.61	61	-0.057	-1.006	0.063	-2.0626488	-5.9014674	1.3178034	89.66219742	-3.26013102	-67.39131996
0.62	62	-0.056	-1.008	0.061	-2.2345362	-6.4171296	1.2032118	89.64500868	-3.27159018	-67.46007492
0.63	63	-0.057	-1.009	0.059	-2.4064236	-6.8182002	1.2032118	89.62209036	-3.28304934	-67.52882988
0.64	64	-0.057	-1.009	0.058	-2.4637194	-7.161975	1.0313244	89.60490162	-3.2945085	-67.59758484
0.65	65	-0.058	-1.008	0.058	-2.4637194	-7.3911582	1.0886202	89.59917204	-3.30023808	-67.67206938
0.66	66	-0.058	-1.006	0.059	-2.4064236	-7.734933	1.0313244	89.5819833	-3.30596766	-67.74655392
0.67	67	-0.062	-1.006	0.059	-2.4064236	-7.9641162	0.859437	89.56479456	-3.31169724	-67.82676804
0.68	68	-0.062	-1.006	0.062	-2.4637194	-7.5057498	0.6875496	89.54187624	-3.31742682	-67.90125258
0.69	69	-0.062	-1.007	0.062	-2.3491278	-7.161975	0.572958	89.5246875	-3.3231564	-67.97000754
0.7	70	-0.061	-1.007	0.06	-2.2345362	-6.9900876	0.5156622	89.53041708	-3.3231564	-68.0387625
0.71	71	-0.059	-1.01	0.06	-2.2345362	-6.6463128	0.572958	89.51322834	-3.32888598	-68.10751746
0.72	72	-0.055	-1.01	0.059	-2.2345362	-6.302538	0.572958	89.49031002	-3.33461556	-68.17054284
0.73	73	-0.052	-1.008	0.057	-2.2345362	-6.5317212	0.6302538	89.47312128	-3.34034514	-68.23356822
0.74	74	-0.052	-1.008	0.058	-2.3491278	-7.161975	0.6875496	89.45593254	-3.34607472	-68.30805276
0.75	75	-0.053	-1.005	0.059	-2.6929026	-7.7922288	0.7448454	89.45020296	-3.34607472	-68.3825373
0.76	76	-0.057	-1.005	0.058	-2.7501984	-7.9068204	0.7448454	89.43301422	-3.3518043	-68.46275142
0.77	77	-0.059	-1.01	0.056	-2.6929026	-7.6203414	0.6302538	89.4100959	-3.35753388	-68.53723596
0.78	78	-0.059	-1.012	0.055	-2.6356068	-7.2765666	0.5156622	89.38717758	-3.36326346	-68.6117205
0.79	79	-0.063	-1.013	0.054	-2.578311	-7.2765666	0.4583664	89.36425926	-3.36899304	-68.68620504
0.8	80	-0.065	-1.01	0.05	-2.8074942	-7.3911582	0.5156622	89.35852968	-3.37472262	-68.76068958
0.81	81	-0.065	-1.007	0.053	-2.7501984	-7.2765666	0.572958	89.33561136	-3.37472262	-68.82944454
0.82	82	-0.062	-1.005	0.051	-2.86479	-6.875496	0.5156622	89.31269304	-3.3804522	-68.8981995
0.83	83	-0.06	-1	0.054	-2.4064236	-6.3598338	0.4583664	89.2955043	-3.38618178	-68.96122488
0.84	84	-0.056	-1	0.055	-2.1199446	-6.1306506	0.4010706	89.27831556	-3.39191136	-69.02425026
0.85	85	-0.057	-1	0.056	-2.3491278	-5.9587632	0.4010706	89.27831556	-3.38618178	-69.08154606
0.86	86	-0.059	-1.004	0.053	-2.578311	-6.016059	0.4010706	89.26112682	-3.39191136	-69.13884186
0.87	87	-0.061	-1.007	0.053	-2.4064236	-6.1306506	0.286479	89.2382085	-3.39191136	-69.20186724
0.88	88	-0.061	-1.009	0.051	-2.2345362	-6.2452422	0.2291832	89.22101976	-3.39764094	-69.26489262
0.89	89	-0.062	-1.008	0.051	-2.1772404	-6.2452422	0	89.20383102	-3.39191136	-69.327918
0.9	90	-0.06	-1.009	0.049	-2.1772404	-6.0733548	0	89.2095606	-3.39191136	-69.3852138
0.91	91	-0.059	-1.008	0.05	-2.0626488	-5.8441716	-0.0572958	89.19237186	-3.38618178	-69.44823918
0.92	92	-0.061	-1.007	0.049	-2.1772404	-5.8441716	0	89.17518312	-3.38618178	-69.50553498
0.93	93	-0.061	-1.009	0.049	-2.291832	-5.5576926	0	89.1522648	-3.38618178	-69.5571012
0.94	94	-0.062	-1.01	0.047	-2.578311	-5.2712136	0.0572958	89.12934648	-3.38618178	-69.614397
0.95	95	-0.064	-1.012	0.044	-2.4637194	-4.9847346	0.1145916	89.13507606	-3.38618178	-69.66023364
0.96	96	-0.063	-1.014	0.048	-2.1772404	-4.297185	0.1718874	89.11788732	-3.38618178	-69.70607028
0.97	97	-0.062	-1.016	0.048	-1.718874	-3.8961144	0.1718874	89.10069858	-3.38618178	-69.74617734
0.98	98	-0.061	-1.014	0.047	-1.4896908	-4.010706	0	89.08923942	-3.38618178	-69.7862844
0.99	99	-0.059	-1.008	0.045	-1.9480572	-4.010706	-0.286479	89.07205068	-3.38618178	-69.82639146
1	100	-0.055	-1.004	0.043	-2.2345362	-4.4690724	-0.286479	89.07778026	-3.37472262	-69.86649852
1.01	101	-0.053	-1.003	0.042	-1.9480572	-5.156622	-0.286479	89.06059152	-3.36899304	-69.91806474
1.02	102	-0.051	-1.007	0.048	-1.7761698	-5.443101	-0.2291832	89.04340278	-3.36899304	-69.97536054
1.03	103	-0.049	-1.011	0.049	-2.005353	-5.3285094	-0.1718874	89.03194362	-3.36326346	-70.02692676
1.04	104	-0.049	-1.013	0.045	-1.9480572	-4.870143	-0.2291832	89.01475488	-3.36326346	-70.0727634
1.05	105	-0.052	-1.013	0.042	-1.5469866	-4.6409598	-0.4010706	89.02621404	-3.34607472	-70.11860004
1.06	106	-0.057	-1.009	0.038	-1.2605076	-4.9274388	-0.6302538	89.02048446	-3.34034514	-70.17016626
1.07	107	-0.061	-1.001	0.038	-1.432395	-5.0993262	-0.572958	89.0090253	-3.33461556	-70.22173248
1.08	108	-0.061	-0.996	0.038	-1.718874	-5.0993262	-0.5156622	88.99183656	-3.32888598	-70.2732987
1.09	109	-0.06	-0.993	0.036	-1.8334656	-5.0420304	-0.4010706	88.97464782	-3.3231564	-70.31913534
1.1	110	-0.061	-0.994	0.035	-1.8334656	-4.9274388	-0.2291832	88.98610698	-3.31742682	-70.37070156
1.11	111	-0.063	-0.997	0.036	-1.6042824	-4.8128472	-0.1718874	88.96891824	-3.31742682	-70.4165382
1.12	112	-0.063	-1.001	0.037	-1.4896908	-4.5263682	-0.2291832	88.95745908	-3.31169724	-70.46237484
1.13	113	-0.062	-1.006	0.038	-1.4896908	-4.297185	-0.286479	88.94599992	-3.31169724	-70.50821148
1.14	114	-0.061	-1.009	0.039	-1.6042824	-4.010706	-0.4583664	88.93454076	-3.30596766	-70.54831854
1.15	115	-0.057	-1.01	0.039	-1.6615782	-3.7815228	-0.5156622	88.9517295	-3.28877892	-70.58269602
1.16	116	-0.053	-1.01	0.039	-1.6042824	-3.724227	-0.5156622	88.93454076	-3.28304934	-70.62280308
1.17	117	-0.051	-1.009	0.038	-1.4896908	-4.0680018	-0.3437748	88.9230816	-3.28304934	-70.66291014
1.18	118	-0.052	-1.007	0.039	-1.0886202	-4.870143	-0.1145916	88.91735202	-3.27731976	-70.70874678
1.19	119	-0.053	-1.006	0.039	-0.9740286	-5.2139178	0	88.90589286	-3.27731976	-70.760313
1.2	120	-0.053	-1.004	0.039	-1.0886202	-5.3858052	-0.0572958	88.92881118	-3.27159018	-70.8176088
1.21	121	-0.054	-1.004	0.038	-1.2032118	-5.2139178	-0.1145916	88.91735202	-3.2658606	-70.86917502
1.22	122	-0.056	-1.008	0.035	-1.3178034	-5.0993262	-0.286479	88.90589286	-3.2658606	-70.92074124
1.23	123	-0.056	-1.012	0.035	-1.4896908	-4.9847346	-0.3437748	88.8944337	-3.26013102	-70.96657788
1.24	124	-0.057	-1.014	0.034	-1.2605076	-5.3858052	-0.3437748	88.88870412	-3.25440144	-71.02387368
1.25	125	-0.056	-1.011	0.037	-0.9740286	-5.72958	-0.1718874	88.90589286	-3.24867186	-71.0754399
1.26	126	-0.056	-1.008	0.037	-0.9740286	-5.6149884	-0.3437748	88.90016328	-3.24294228	-71.1327357
1.27	127	-0.053	-1.008	0.035	-1.145916	-5.443101	-0.572958	88.88870412	-3.2372127	-71.1900315
1.28	128	-0.051	-1.008	0.031	-1.2032118	-4.9847346	-0.6875496	88.88297454	-3.23148312	-71.23586814
1.29	129	-0.05	-1.009	0.031	-1.145916	-4.583664	-0.8021412	88.87151538	-3.22002396	-71.28170478
1.3	130	-0.051	-1.009	0.031	-0.9740286	-4.870143	-0.859437	88.88870412	-3.20283522	-71.333271
1.31	131	-0.052	-1.009	0.027	-1.0313244	-5.6149884	-0.7448454	88.88297454	-3.19710564	-71.38483722
1.32	132	-0.053	-1.006	0.026	-1.6042824	-5.9014674	-0.6875496	88.8657858	-3.18564648	-71.4478626
1.33	133	-0.048	-1.007	0.025	-2.6356068	-5.72958	-0.572958	88.84286748	-3.1799169	-71.5051584
1.34	134	-0.043	-1.013	0.02	-3.2085648	-5.8441716	-0.4583664	88.81421958	-3.17418732	-71.5624542
1.35	135	-0.042	-1.019	0.021	-3.2085648	-6.1306506	-0.4010706	88.79703084	-3.16272816	-71.61975
1.36	136	-0.043	-1.023	0.019	-3.5523396	-6.4744254	-0.3437748	88.76838294	-3.15699858	-71.68850496
1.37	137	-0.047	-1.022	0.014	-4.1252976	-6.875496	-0.4010706	88.72827588	-3.151269	-71.75725992
1.38	138	-0.051	-1.021	0.009	-4.9274388	-6.9327918	-0.6875496	88.68243924	-3.14553942	-71.82601488
1.39	139	-0.051	-1.02	0.006	-5.6149884	-6.9327918	-1.145916	88.63087302	-3.13408026	-71.89476984
1.4	140	-0.049	-1.022	0.002	-6.4171296	-6.875496	-1.6042824	88.56784764	-3.11116194	-71.9635248
1.41	141	-0.047	-1.019	0.001	-6.8182002	-6.5317212	-1.8907614	88.50482226	-3.0939732	-72.02655018
1.42	142	-0.043	-1.013	0.004	-6.7609044	-6.7036086	-1.7761698	88.44179688	-3.07678446	-72.09530514
1.43	143	-0.042	-1.016	0.009	-7.2192708	-6.9900876	-1.5469866	88.37304192	-3.05959572	-72.1640601
1.44	144	-0.039	-1.021	0.008	-8.307891	-6.589017	-1.4896908	88.2928278	-3.04813656	-72.23281506
1.45	145	-0.038	-1.025	0.003	-9.3392154	-7.0473834	-1.2032118	88.2068841	-3.03094782	-72.30157002
1.46	146	-0.041	-1.028	-0.002	-9.5683986	-7.6776372	-0.7448454	88.11521082	-3.02521824	-72.38178414
1.47	147	-0.039	-1.031	-0.007	-9.7975818	-7.161975	-0.8021412	88.01780796	-3.01375908	-72.4505391
1.48	148	-0.037	-1.033	-0.018	-10.5424272	-6.1306506	-1.432395	87.91467552	-3.00229992	-72.51356448
1.49	149	-0.043	-1.03	-0.025	-10.9434978	-5.72958	-2.0626488	87.8058135	-2.98511118	-72.57658986
1.5	150	-0.049	-1.019	-0.027	-10.7716104	-5.5576926	-2.6356068	87.69695148	-2.95646328	-72.63388566
1.51	151	-0.054	-1.008	-0.019	-10.4851314	-5.156622	-3.2658606	87.59381904	-2.92781538	-72.68545188
1.52	152	-0.054	-1.003	-0.018	-10.9434978	-4.4690724	-3.8388186	87.4906866	-2.88770832	-72.73128852
1.53	153	-0.052	-1.004	-0.022	-12.0894138	-3.0366774	-4.010706	87.36463584	-2.85333084	-72.765666
1.54	154	-0.043	-1.014	-0.018	-12.891555	-1.8907614	-3.8961144	87.23858508	-2.81322378	-72.78858432
1.55	155	-0.038	-1.023	-0.026	-14.32395	-1.2605076	-3.4950438	87.089616	-2.77311672	-72.80577306
1.56	156	-0.033	-1.031	-0.037	-16.4438946	-0.6875496	-2.9793816	86.92345818	-2.74446882	-72.81150264
1.57	157	-0.028	-1.033	-0.045	-18.3919518	-0.4583664	-2.578311	86.74011162	-2.7215505	-72.8229618
1.58	158	-0.019	-1.025	-0.054	-19.3086846	-0.2291832	-2.1199446	86.5453059	-2.70436176	-72.82869138
1.59	159	-0.015	-1.014	-0.065	-19.9962342	-0.4010706	-1.718874	86.33904102	-2.68717302	-72.83442096
1.6	160	-0.015	-1.005	-0.079	-21.0848544	-0.0572958	-1.4896908	86.1155874	-2.6642547	-72.83442096
1.61	161	-0.018	-0.998	-0.092	-22.1734746	0.286479	-1.432395	85.89213378	-2.65279554	-72.83442096
1.62	162	-0.018	-0.989	-0.101	-23.1475032	0.0572958	-1.3750992	85.657221	-2.64133638	-72.84015054
1.63	163	-0.021	-0.98	-0.091	-24.0069402	-1.7761698	-1.0886202	85.41084906	-2.62987722	-72.86306886
1.64	164	-0.027	-0.976	-0.076	-25.0955604	-3.9534102	-0.8021412	85.15874754	-2.62987722	-72.90317592
1.65	165	-0.031	-0.973	-0.076	-26.7571386	-4.4117766	-0.6875496	84.88945728	-2.62414764	-72.94901256
1.66	166	-0.029	-0.976	-0.088	-28.074942	-3.2658606	-0.572958	84.60870786	-2.61841806	-72.98339004
1.67	167	-0.026	-0.985	-0.096	-29.1062664	-2.4637194	-0.5156622	84.3107697	-2.61841806	-73.01203794
1.68	168	-0.023	-0.986	-0.1	-29.220858	-2.005353	-0.3437748	84.01856112	-2.61841806	-73.03495626
1.69	169	-0.019	-0.981	-0.111	-29.3354496	-1.7761698	0.1145916	83.72062296	-2.62414764	-73.05787458
1.7	170	-0.015	-0.967	-0.123	-29.793816	-1.718874	0.859437	83.41122564	-2.6356068	-73.07506332
1.71	171	-0.014	-0.954	-0.11	-31.799169	-2.4064236	1.6615782	83.09036916	-2.65279554	-73.10371122
1.72	172	-0.018	-0.939	-0.072	-35.4088044	-5.72958	2.7501984	82.7351352	-2.6929026	-73.16100702
1.73	173	-0.024	-0.92	-0.058	-37.8725238	-9.1100322	3.8388186	82.35698292	-2.74446882	-73.24695072
1.74	174	-0.027	-0.917	-0.088	-38.2735944	-11.5737516	4.583664	81.97310106	-2.80176462	-73.36154232
1.75	175	-0.028	-0.921	-0.113	-37.9298196	-12.9488508	5.0420304	81.59494878	-2.87051958	-73.4818635
1.76	176	-0.022	-0.915	-0.122	-37.5860448	-13.4072172	5.156622	81.22252608	-2.93927454	-73.61364384
1.77	177	-0.013	-0.905	-0.137	-37.0703826	-13.4072172	4.5263682	80.85583296	-3.0080295	-73.7396946
1.78	178	-0.019	-0.885	-0.161	-36.6120162	-13.9228794	3.3231564	80.49486942	-3.05959572	-73.87720452
1.79	179	-0.037	-0.855	-0.171	-35.6952834	-17.2460358	2.6929026	80.13963546	-3.11689152	-74.04336234
1.8	180	-0.062	-0.821	-0.142	-36.1536498	-22.5172494	2.5210152	79.79013108	-3.1799169	-74.26681596
1.81	181	-0.081	-0.783	-0.104	-36.0390582	-28.934379	1.3750992	79.4406267	-3.2372127	-74.54756538
1.82	182	-0.086	-0.76	-0.102	-35.236917	-33.4607472	-1.145916	79.10831106	-3.28304934	-74.87988102
1.83	183	-0.078	-0.761	-0.099	-36.4401288	-33.804522	-4.870143	78.76453626	-3.2945085	-75.22365582
1.84	184	-0.051	-0.783	-0.121	-39.3049188	-29.6792244	-8.3651868	78.38638398	-3.2658606	-75.53305314
1.85	185	-0.024	-0.806	-0.137	-39.0184398	-26.4133638	-10.1986524	78.0082317	-3.21429438	-75.81380256
1.86	186	-0.008	-0.85	-0.147	-35.4088044	-25.7258142	-9.1100322	77.6644569	-3.1799169	-76.0888224
1.87	187	0.001	-0.881	-0.141	-34.091001	-26.642547	-5.3858052	77.33787084	-3.1799169	-76.36384224
1.88	188	0.01	-0.904	-0.115	-34.4920716	-26.4133638	-1.7761698	77.0055552	-3.21429438	-76.62740292
1.89	189	0.002	-0.907	-0.114	-36.2109456	-25.1528562	0.4010706	76.65605082	-3.27159018	-76.87377486
1.9	190	-0.016	-0.903	-0.131	-36.8411994	-24.5798982	1.432395	76.30654644	-3.34034514	-77.10868764
1.91	191	-0.037	-0.908	-0.165	-36.955791	-25.78311	2.0626488	75.9455829	-3.41482968	-77.36078916
1.92	192	-0.049	-0.909	-0.193	-37.815228	-26.8717302	2.578311	75.58461936	-3.50650296	-77.61862026
1.93	193	-0.045	-0.902	-0.224	-38.4454818	-26.1268848	2.4064236	75.21219666	-3.58671708	-77.8649922
1.94	194	-0.043	-0.888	-0.234	-38.4454818	-25.1528562	1.6042824	74.83977396	-3.6669312	-78.10563456
1.95	195	-0.052	-0.875	-0.228	-38.6173692	-24.2361234	0.4583664	74.46735126	-3.72995658	-78.34627692
1.96	196	-0.074	-0.861	-0.217	-39.6486936	-23.8923486	-0.4010706	74.0834694	-3.79298196	-78.5811897
1.97	197	-0.095	-0.852	-0.223	-40.9092012	-21.485925	-1.432395	73.6823988	-3.83308902	-78.79318416
1.98	198	-0.107	-0.853	-0.246	-41.3675676	-18.2773602	-2.578311	73.2813282	-3.86173692	-78.97653072
1.99	199	-0.114	-0.873	-0.252	-41.0810886	-15.0687954	-3.5523396	72.87452802	-3.87319608	-79.13695896
2	200	-0.104	-0.901	-0.252	-41.0810886	-12.1467096	-4.6982556	72.46772784	-3.8674665	-79.27446888
2.01	201	-0.089	-0.914	-0.263	-41.7686382	-11.0007936	-5.5003968	72.05519808	-3.85027776	-79.39479006
2.02	202	-0.055	-0.905	-0.279	-42.5707794	-8.1360036	-6.3598338	71.63120916	-3.81590028	-79.4979225
2.03	203	-0.015	-0.866	-0.323	-43.1437374	-4.583664	-6.5317212	71.19576108	-3.77579322	-79.56667746
2.04	204	-0.006	-0.842	-0.322	-41.1383844	-7.0473834	-4.3544808	70.78323132	-3.75860448	-79.64689158
2.05	205	-0.021	-0.837	-0.328	-39.5913978	-9.9121734	-1.145916	70.3878903	-3.77579322	-79.75002402
2.06	206	-0.04	-0.827	-0.308	-37.4714532	-10.4851314	1.2032118	70.00973802	-3.82735944	-79.84742688
2.07	207	-0.045	-0.823	-0.294	-35.6379876	-8.4797784	1.0886202	69.65450406	-3.8674665	-79.927641
2.08	208	-0.058	-0.828	-0.316	-34.950438	-7.8495246	-0.859437	69.31072926	-3.89038482	-80.00785512
2.09	209	-0.077	-0.852	-0.324	-32.5440144	-8.3651868	-3.2658606	68.9841432	-3.89038482	-80.0995284
2.1	210	-0.085	-0.878	-0.311	-30.0229992	-9.8548776	-4.870143	68.69193462	-3.88465524	-80.20839042
2.11	211	-0.067	-0.885	-0.3	-28.4187168	-11.8029348	-5.7868758	68.4111852	-3.87319608	-80.34590034
2.12	212	-0.044	-0.875	-0.316	-27.501984	-12.891555	-6.0733548	68.14189494	-3.86173692	-80.48913984
2.13	213	-0.025	-0.849	-0.32	-26.7571386	-13.2353298	-6.2452422	67.88406384	-3.85600734	-80.63810892
2.14	214	-0.022	-0.828	-0.318	-24.4653066	-14.0947668	-6.302538	67.64915106	-3.85027776	-80.79280758
2.15	215	-0.03	-0.803	-0.305	-20.8556712	-16.7876694	-6.016059	67.44861576	-3.85027776	-80.97615414
2.16	216	-0.036	-0.804	-0.295	-17.761698	-18.334656	-6.0733548	67.28818752	-3.86173692	-81.17095986
2.17	217	-0.026	-0.816	-0.266	-15.6990492	-17.0741484	-6.9900876	67.13921844	-3.86173692	-81.35430642
2.18	218	-0.01	-0.83	-0.292	-14.9542038	-13.9801752	-9.0527364	67.00170852	-3.82735944	-81.52046424
2.19	219	-0.006	-0.839	-0.307	-10.9434978	-9.3965112	-10.7143146	66.89857608	-3.76433406	-81.646515
2.2	220	-0.022	-0.839	-0.339	-8.3651868	-6.3598338	-11.0580894	66.81836196	-3.68411994	-81.74964744
2.21	221	-0.047	-0.83	-0.365	-6.1306506	-3.8388186	-10.2559482	66.76106616	-3.60390582	-81.82413198
2.22	222	-0.072	-0.82	-0.373	-3.3231564	-1.6615782	-9.0527364	66.72668868	-3.5236917	-81.8756982
2.23	223	-0.098	-0.813	-0.378	0	0	-7.6203414	66.73241826	-3.45493674	-81.9043461
2.24	224	-0.119	-0.812	-0.352	2.9220858	0.5156622	-6.2452422	66.76106616	-3.39764094	-81.92726442
2.25	225	-0.132	-0.787	-0.324	4.6409598	0.2291832	-5.5576926	66.8069028	-3.37472262	-81.95018274
2.26	226	-0.116	-0.768	-0.335	6.1306506	-1.6042824	-4.9847346	66.86992818	-3.32888598	-81.98456022
2.27	227	-0.072	-0.763	-0.348	7.2192708	-3.2085648	-4.4117766	66.94441272	-3.30023808	-82.03039686
2.28	228	-0.019	-0.759	-0.333	10.4851314	-3.4950438	-4.297185	67.05327474	-3.27159018	-82.0762335
2.29	229	0.016	-0.768	-0.339	13.8082878	-3.151269	-4.0680018	67.20224382	-3.24867186	-82.12207014
2.3	230	0.019	-0.777	-0.382	15.0114996	-1.7761698	-3.6669312	67.33402416	-3.19710564	-82.14498846
2.31	231	0.009	-0.781	-0.396	17.475219	0.572958	-3.724227	67.51164114	-3.15699858	-82.15644762
2.32	232	-0.007	-0.773	-0.401	18.5065434	1.0886202	-3.8388186	67.70071728	-3.11689152	-82.15644762
2.33	233	-0.043	-0.769	-0.415	20.5118964	-1.8334656	-3.2085648	67.91271174	-3.0939732	-82.18509552
2.34	234	-0.083	-0.786	-0.431	20.912967	-5.7868758	-0.8021412	68.1247062	-3.09970278	-82.24239132
2.35	235	-0.094	-0.802	-0.433	21.5432208	-10.2559482	1.6615782	68.33097108	-3.15699858	-82.32833502
2.36	236	-0.074	-0.818	-0.43	22.8037284	-13.5791046	3.724227	68.57161344	-3.2372127	-82.43719704
2.37	237	-0.046	-0.81	-0.439	23.7204612	-15.5844576	4.6409598	68.82371496	-3.32888598	-82.56897738
2.38	238	-0.015	-0.791	-0.45	24.4653066	-14.5531332	4.0680018	69.08154606	-3.4091001	-82.68356898
2.39	239	0.005	-0.747	-0.415	25.496631	-12.891555	1.8334656	69.34510674	-3.4663959	-82.79816058
2.4	240	0.019	-0.696	-0.373	27.9603504	-13.5791046	-1.8907614	69.62585616	-3.48358464	-82.92994092
2.41	241	0	-0.661	-0.342	29.3354496	-13.8655836	-5.3285094	69.93525348	-3.47212548	-83.07318042
2.42	242	-0.038	-0.676	-0.385	30.366774	-10.8289062	-7.3911582	70.25038038	-3.43201842	-83.19923118
2.43	243	-0.075	-0.696	-0.387	31.8564648	-7.734933	-7.6776372	70.58269602	-3.3804522	-83.29663404
2.44	244	-0.099	-0.711	-0.376	33.0596766	-6.8182002	-7.3338624	70.92647082	-3.32888598	-83.38257774
2.45	245	-0.108	-0.703	-0.386	32.945085	-7.1046792	-6.6463128	71.2473273	-3.2945085	-83.46852144
2.46	246	-0.097	-0.664	-0.397	32.4867186	-7.6203414	-5.7868758	71.58537252	-3.25440144	-83.55446514
2.47	247	-0.079	-0.624	-0.412	31.3408026	-8.021412	-5.3285094	71.906229	-3.22575354	-83.64613842
2.48	248	-0.053	-0.578	-0.388	29.220858	-6.9327918	-5.5003968	72.20989674	-3.19137606	-83.72635254
2.49	249	-0.016	-0.516	-0.332	27.9030546	-6.1879464	-6.875496	72.49637574	-3.13408026	-83.80083708
2.5	250	0.041	-0.45	-0.235	27.215505	-6.9327918	-10.599723	72.77139558	-3.04240698	-83.89823994
2.51	251	0.091	-0.357	-0.166	30.2521824	-7.3911582	-13.9228794	73.08652248	-2.92781538	-84.00710196
2.52	252	0.097	-0.274	-0.122	36.4974246	-8.1932994	-15.6417534	73.46467476	-2.79603504	-84.12742314
2.53	253	0.056	-0.232	-0.097	43.7166954	-8.6516658	-15.1260912	73.91731158	-2.66998428	-84.24774432
2.54	254	0.004	-0.225	-0.094	46.409598	-7.2765666	-12.2040054	74.39286672	-2.56685184	-84.34514718
2.55	255	-0.037	-0.229	-0.132	50.7640788	-6.302538	-8.1360036	74.90852892	-2.49809688	-84.4253613
2.56	256	-0.063	-0.244	-0.134	58.9573782	-6.6463128	-4.7555514	75.51013482	-2.4637194	-84.49411626
2.57	257	-0.053	-0.248	-0.124	64.2285918	-7.161975	-3.8388186	76.16330694	-2.4350715	-84.5686008
2.58	258	-0.003	-0.218	-0.117	69.4998054	-8.021412	-5.5003968	76.87377486	-2.38923486	-84.64881492
2.59	259	0.058	-0.134	-0.103	74.8283148	-9.9121734	-8.1360036	77.64153858	-2.3204799	-84.75767694
2.6	260	0.076	-0.021	-0.065	83.4799806	-9.6829902	-10.1986524	78.48378684	-2.22307704	-84.86653896
2.61	261	0.068	0.083	-0.015	92.0743506	-6.4171296	-10.8289062	79.42343796	-2.1199446	-84.9410235
2.62	262	0.029	0.185	0.01	101.6427492	-4.6409598	-8.9954406	80.45476236	-2.02827132	-84.99258972
2.63	263	-0.015	0.238	0.039	114.6488958	-4.9847346	-6.4744254	81.62359668	-1.95951636	-85.03842636
2.64	264	-0.046	0.259	0.094	124.1027028	-7.161975	-4.1252976	82.88410428	-1.91367972	-85.10145174
2.65	265	-0.056	0.272	0.136	138.1974696	-7.5057498	-2.005353	84.29931054	-1.89649098	-85.1702067
2.66	266	-0.05	0.242	0.152	153.9538146	-9.1100322	-3.3231564	85.86348588	-1.85065434	-85.24469124
2.67	267	-0.085	0.132	0.194	171.4863294	-8.5370742	-10.2559482	87.6052782	-1.73606274	-85.31917578
2.68	268	-0.034	-0.04	0.009	180.3671784	-3.3231564	-9.5683986	89.4387438	-1.62720072	-85.33063494
2.69	269	0.021	-0.397	0.114	200.7071874	-3.6096354	-2.6929026	91.47847428	-1.58136408	-85.34782368
2.7	270	0.121	-0.668	0.448	212.280939	-8.021412	8.880849	93.6499851	-1.64438946	-85.40511948
2.71	271	0.168	-1.166	0.496	239.209965	-14.6677248	15.469866	96.07932702	-1.76471064	-85.53117024
2.72	272	0.195	-2.144	0.774	275.9938686	-16.1574156	17.6471064	98.88682122	-1.89649098	-85.68013932
2.73	273	0.19	-3.609	1.311	332.5448232	-12.7769634	22.2307704	102.2672734	-2.06837838	-85.8004605
2.74	274	0.017	-3.999	1.466	331.5134988	-0.2291832	7.448454	105.6362665	-2.1199446	-85.77754218
2.75	275	-0.16	-3.999	1.769	291.062664	15.8136408	-15.6417534	108.575541	-2.01108258	-85.5426294
2.76	276	-0.089	-3.976	2.684	251.528562	21.3713334	-15.3552744	111.1137449	-1.93659804	-85.26187998
2.77	277	-0.103	-3.375	3.301	262.7585388	17.0168526	2.86479	113.7722701	-2.02254174	-85.084263
2.78	278	-0.248	-3.137	2.862	282.8120688	14.5531332	16.902261	116.6370601	-2.2345362	-84.98686014
2.79	279	-0.086	-2.136	1.614	262.6439472	8.1360036	-1.432395	119.3013148	-2.25172494	-84.87226854
2.8	280	0.183	-0.421	0.965	314.0382798	6.8182002	-13.5218088	122.4926908	-2.17151082	-84.70611072
2.81	281	0.169	-0.062	1.182	379.298196	6.5317212	-11.745639	126.337239	-2.10848544	-84.53422332
2.82	282	-0.094	-0.95	1.521	531.3612492	4.6982556	3.3804522	131.7230442	-2.17151082	-84.44255004
2.83	283	-0.03	-0.205	0.33	554.050386	8.1932994	2.7501984	137.3380326	-2.2631841	-84.33368802
2.84	284	-0.013	-0.062	1.102	520.9907094	13.464513	1.718874	142.6207054	-2.39496444	-84.19044852
2.85	285	-0.113	0	1.453	351.3378456	7.2192708	4.1252976	146.1902337	-2.49809688	-84.1388823
2.86	286	0.076	-0.261	0.827	236.5170624	14.7250206	-3.3804522	148.5851981	-2.61268848	-84.00710196
2.87	287	-0.377	-0.384	1.128	199.2747924	22.4026578	4.4690724	150.5962807	-2.84187168	-83.9096991
2.88	288	0.055	-0.09	1.105	166.15782	22.2880662	-0.2291832	152.2750477	-3.04813656	-83.78937792
2.89	289	-0.039	0.059	1.178	149.1982632	22.7464326	-3.5523396	153.7761976	-3.24867186	-83.64040884
2.9	290	-0.061	-0.21	1.073	149.542038	33.7472262	1.145916	155.2945363	-3.56379876	-83.49716934
2.91	291	0.192	-0.042	1.046	159.9698736	17.18874	-1.8334656	156.9045483	-3.724227	-83.3940369
2.92	292	-0.134	0.279	1.09	173.5489782	13.8655836	9.3392154	158.6692589	-3.90184398	-83.41695522
2.93	293	-0.227	0.154	1.577	181.054728	6.4744254	7.6776372	160.5084541	-3.99924684	-83.44560312
2.94	294	-0.128	-0.174	1.664	154.4694768	1.4896908	9.6829902	162.078359	-4.05654264	-83.51435808
2.95	295	-0.069	-0.076	1.536	136.650483	-1.2032118	12.0894138	163.4821061	-4.0966497	-83.61749052
2.96	296	-0.082	-0.081	1.593	127.3112676	-8.59437	12.2613012	164.7827208	-4.05654264	-83.74354128
2.97	297	-0.077	-0.273	1.67	115.164558	-13.5218088	9.9121734	165.9630143	-3.95913978	-83.85813288
2.98	298	-0.102	-0.406	1.567	103.2470316	-13.2926256	8.3651868	167.017257	-3.86173692	-83.95553574
2.99	299	-0.08	-0.288	1.574	96.7153104	-9.453807	9.7975818	168.0084743	-3.79871154	-84.05866818
3	300	-0.169	-0.236	1.544	90.2981808	-8.2505952	6.4744254	168.9309367	-3.74141574	-84.12742314
3.01	301	-0.081	-0.211	1.427	80.6151906	-7.7922288	2.6356068	169.7502667	-3.67839036	-84.15607104
3.02	302	-0.057	-0.056	1.35	61.1919144	-7.6776372	1.0886202	170.3747909	-3.6096354	-84.17325978
3.03	303	-0.112	-0.065	1.358	52.998615	-10.4851314	0.4583664	170.9133714	-3.51223254	-84.18471894
3.04	304	-0.012	0.032	1.302	43.3156248	-9.167328	0.0572958	171.3602786	-3.42628884	-84.19044852
3.05	305	-0.005	-0.011	1.212	25.0955604	-7.5057498	-1.8334656	171.6295689	-3.32888598	-84.17898936
3.06	306	0.08	-0.001	1.091	30.9970278	-7.734933	-3.6096354	171.9389662	-3.25440144	-84.15034146
3.07	307	-0.017	0.106	1.039	23.0329116	-3.2658606	-4.010706	172.173879	-3.21429438	-84.1102344
3.08	308	0.008	0.021	1.047	23.6631654	1.145916	-3.2658606	172.4145214	-3.22575354	-84.07585692
3.09	309	-0.04	0.058	0.996	16.1001198	6.6463128	-2.7501984	172.5749496	-3.28877892	-84.03574986
3.1	310	-0.044	-0.004	0.94	5.443101	12.0894138	0.2291832	172.6952708	-3.38618178	-84.03002028
3.11	311	-0.063	0.048	0.891	-8.59437	16.9595568	1.7761698	172.6035975	-3.55806918	-84.03002028
3.12	312	-0.09	0.091	0.858	-27.2728008	16.5584862	1.145916	172.3228481	-3.71849742	-84.03002028
3.13	313	-0.08	0.11	0.837	-33.9764094	16.1001198	0.5156622	171.9790733	-3.87319608	-84.01856112
3.14	314	-0.074	0.132	0.808	-42.7999626	8.6516658	0	171.5378956	-3.9534102	-84.01283154
3.15	315	-0.06	0.198	0.791	-46.7533728	6.6463128	0.6875496	171.1024475	-4.02216516	-84.0242907
3.16	316	-0.112	0.235	0.745	-40.6227222	4.2398892	1.0313244	170.6899178	-4.06227222	-84.03002028
3.17	317	-0.079	0.268	0.713	-36.955791	-0.6875496	0.6875496	170.3174951	-4.05081306	-84.04147944
3.18	318	-0.079	0.06	0.722	-30.7105488	-0.4583664	-0.572958	170.0023682	-4.04508348	-84.04147944
3.19	319	-0.034	-0.131	0.744	-26.1841806	4.6409598	-1.432395	169.7388075	-4.08519054	-84.0242907
3.2	320	-0.06	-0.115	0.797	-18.7930224	14.5531332	-1.145916	169.5440018	-4.22270046	-83.98991322
3.21	321	-0.08	-0.076	0.917	-10.0840608	16.1001198	-0.1718874	169.4351398	-4.3831287	-83.9669949
3.22	322	-0.094	-0.057	1.019	-0.9740286	9.3392154	0.1718874	169.4236806	-4.4690724	-83.95553574
3.23	323	-0.099	-0.048	1.085	3.8388186	3.2085648	0.5156622	169.4637877	-4.50344988	-83.95553574
3.24	324	-0.104	-0.068	1.13	6.7036086	-3.2658606	0.6875496	169.5325426	-4.47480198	-83.9669949
3.25	325	-0.11	-0.132	1.187	10.6570188	-10.2559482	1.2032118	169.6528638	-4.37739912	-83.9956428
3.26	326	-0.093	-0.026	1.198	17.1314442	-12.7196676	1.3178034	169.8362104	-4.25707794	-84.0242907
3.27	327	-0.087	-0.121	1.215	18.3919518	-10.7716104	0.859437	170.0252865	-4.1539455	-84.04720902
3.28	328	-0.083	-0.03	1.165	19.2513888	-9.6256944	1.3178034	170.2200922	-4.0680018	-84.07012734
3.29	329	-0.071	0.035	1.145	17.7044022	-8.7662574	0.5156622	170.4034388	-3.9820581	-84.08731608
3.3	330	-0.073	-0.037	1.092	15.2406828	-9.1100322	0.9740286	170.6211628	-3.90184398	-84.11596398
3.31	331	-0.072	0.093	1.067	18.7930224	-8.9381448	1.2032118	170.8159685	-3.81590028	-84.1388823
3.32	332	-0.064	-0.105	1.04	15.756345	-7.734933	0.2291832	170.9763968	-3.74141574	-84.15034146
3.33	333	-0.075	-0.13	1.027	14.7823164	-5.8441716	0	171.1310954	-3.68411994	-84.15607104
3.34	334	-0.058	-0.106	0.977	11.5164558	-4.297185	-0.1145916	171.245687	-3.64401288	-84.15607104
3.35	335	-0.073	-0.272	0.967	7.2765666	-2.9220858	-0.0572958	171.2571462	-3.64974246	-84.16180062
3.36	336	-0.063	-0.096	0.923	8.3651868	-2.8074942	0	171.3430899	-3.62109456	-84.16180062
3.37	337	-0.063	-0.07	0.91	6.589017	-1.8907614	-0.1145916	171.4118449	-3.60390582	-84.16180062
3.38	338	-0.063	-0.077	0.896	3.151269	-0.1145916	-0.3437748	171.4404928	-3.59817624	-84.16180062
3.39	339	-0.06	-0.085	0.888	0.572958	0.4583664	-0.2291832	171.4462223	-3.60390582	-84.15607104
3.4	340	-0.06	-0.082	0.881	-1.0313244	-0.5156622	-0.1145916	171.4691407	-3.59817624	-84.15607104
3.41	341	-0.061	-0.078	0.891	-2.5210152	-1.8907614	-0.0572958	171.4404928	-3.5809875	-84.16180062
3.42	342	-0.061	-0.075	0.921	-3.6096354	-3.3231564	0	171.4061153	-3.54661002	-84.16180062
3.43	343	-0.062	-0.069	0.963	-4.3544808	-4.8128472	0.1145916	171.3602786	-3.50077338	-84.17325978
3.44	344	-0.066	-0.066	1.013	-4.6982556	-5.7868758	0.286479	171.314442	-3.44347758	-84.18471894
3.45	345	-0.07	-0.056	1.057	-4.9274388	-6.302538	0.4010706	171.3201716	-3.38618178	-84.20190768
3.46	346	-0.073	-0.054	1.071	-5.156622	-6.589017	0.4583664	171.2686054	-3.3231564	-84.21336684
3.47	347	-0.075	-0.05	1.086	-5.156622	-6.0733548	0.286479	171.2170391	-3.2658606	-84.224826
3.48	348	-0.075	-0.048	1.089	-4.8128472	-5.3285094	0.286479	171.1712025	-3.2085648	-84.23628516
3.49	349	-0.076	-0.047	1.089	-4.5263682	-4.297185	0.2291832	171.1253659	-3.16845774	-84.24201474
3.5	350	-0.073	-0.048	1.081	-4.6409598	-3.4950438	0.1145916	171.1540138	-3.151269	-84.25920348
3.51	351	-0.074	-0.047	1.059	-4.870143	-2.6929026	0	171.1081771	-3.1226211	-84.26493306
3.52	352	-0.071	-0.051	1.033	-5.443101	-1.6042824	-0.1145916	171.0508813	-3.10543236	-84.26493306
3.53	353	-0.072	-0.052	1.004	-6.0733548	-0.4010706	-0.1718874	170.9935855	-3.09970278	-84.26493306
3.54	354	-0.07	-0.052	0.985	-6.4171296	0.3437748	-0.1145916	170.9248306	-3.10543236	-84.26493306
3.55	355	-0.071	-0.052	0.976	-6.4171296	0.2291832	-0.1718874	170.959208	-3.12835068	-84.27639222
3.56	356	-0.071	-0.055	0.973	-6.4171296	0	-0.1145916	170.8904531	-3.12835068	-84.27066264
3.57	357	-0.072	-0.052	0.976	-6.3598338	0	-0.0572958	170.8274277	-3.12835068	-84.27066264
3.58	358	-0.072	-0.055	0.982	-5.9014674	-0.0572958	-0.0572958	170.7701319	-3.1226211	-84.27066264
3.59	359	-0.073	-0.053	0.988	-5.2139178	0	0.0572958	170.7128361	-3.1226211	-84.27639222
3.6	360	-0.074	-0.053	0.991	-4.6409598	-0.1718874	0.0572958	170.810239	-3.15699858	-84.29358096
3.61	361	-0.076	-0.054	1.002	-4.1252976	-0.572958	0.2291832	170.7701319	-3.151269	-84.29931054
3.62	362	-0.079	-0.051	1.01	-3.3804522	-1.432395	0.2291832	170.7357544	-3.13980984	-84.30504012
3.63	363	-0.081	-0.051	1.02	-2.7501984	-2.1199446	0.1718874	170.7071065	-3.11689152	-84.3107697
3.64	364	-0.08	-0.053	1.027	-2.4064236	-2.0626488	0.1718874	170.6841882	-3.0939732	-84.3107697
3.65	365	-0.082	-0.052	1.033	-2.9220858	-1.7761698	0	170.7930502	-3.1226211	-84.33368802
3.66	366	-0.081	-0.051	1.039	-3.2085648	-1.7761698	0	170.7586727	-3.09970278	-84.3394176
3.67	367	-0.081	-0.052	1.036	-2.86479	-1.8334656	0	170.7300248	-3.08251404	-84.3394176
3.68	368	-0.082	-0.054	1.033	-2.1772404	-1.7761698	0	170.7071065	-3.0653253	-84.34514718
3.69	369	-0.08	-0.056	1.026	-1.3178034	-1.8334656	0.0572958	170.6956474	-3.04813656	-84.34514718
3.7	370	-0.08	-0.058	1.02	0	-1.5469866	0.1145916	171.0050447	-3.12835068	-84.39098382
3.71	371	-0.08	-0.06	1.027	0.8021412	-1.145916	0.1718874	171.0165038	-3.11689152	-84.3967134
3.72	372	-0.08	-0.06	1.031	0.6875496	-1.2605076	0.1718874	171.0222334	-3.10543236	-84.40244298
3.73	373	-0.082	-0.06	1.018	0.859437	-2.0626488	0.2291832	171.0336926	-3.08251404	-84.40817256
3.74	374	-0.08	-0.06	1.009	1.3178034	-2.5210152	0.2291832	171.0451517	-3.05959572	-84.41390214
3.75	375	-0.079	-0.06	1.008	1.6615782	-2.4064236	0.2291832	171.2113096	-3.08824362	-84.43682046
3.76	376	-0.08	-0.061	1.005	1.2605076	-2.1199446	0.2291832	171.2227687	-3.0653253	-84.44255004
3.77	377	-0.08	-0.061	1.001	0.8021412	-2.1199446	0.1718874	171.2342279	-3.04813656	-84.44827962
3.78	378	-0.081	-0.06	1.005	0.6302538	-2.291832	0.1718874	171.2399575	-3.02521824	-84.4540092
3.79	379	-0.08	-0.062	1.006	0.286479	-2.7501984	0.2291832	171.245687	-2.99657034	-84.45973878
3.8	380	-0.08	-0.06	1.007	0.1718874	-3.0366774	0.2291832	171.423304	-3.03094782	-84.48838668
3.81	381	-0.08	-0.061	1.009	0	-3.0366774	0.2291832	171.423304	-3.00229992	-84.49411626
3.82	382	-0.079	-0.062	1.009	-0.0572958	-2.9793816	0.2291832	171.423304	-2.97365202	-84.49984584
3.83	383	-0.08	-0.062	1.01	-0.4010706	-3.0366774	0.2291832	171.423304	-2.94500412	-84.50557542
3.84	384	-0.081	-0.062	1.015	-0.9740286	-3.0939732	0.2291832	171.4118449	-2.91062664	-84.51703458
3.85	385	-0.082	-0.061	1.023	-1.3178034	-3.2085648	0.2291832	171.5207069	-2.93354496	-84.5399529
3.86	386	-0.083	-0.062	1.028	-1.6042824	-3.3231564	0.2291832	171.5092477	-2.89916748	-84.54568248
3.87	387	-0.083	-0.063	1.025	-1.8334656	-3.6096354	0.1718874	171.492059	-2.86479	-84.55141206
3.88	388	-0.082	-0.058	1.017	-1.9480572	-3.724227	0.2291832	171.4691407	-2.82468294	-84.56287122
3.89	389	-0.082	-0.059	1.012	-2.2345362	-3.6669312	0.1718874	171.4462223	-2.79030546	-84.5686008
3.9	390	-0.081	-0.061	1.007	-2.5210152	-3.437748	0.1145916	171.5207069	-2.80176462	-84.58578954
3.91	391	-0.08	-0.06	1.006	-2.5210152	-3.3231564	0.1145916	171.492059	-2.76738714	-84.59151912
3.92	392	-0.081	-0.059	1.008	-2.6929026	-3.2085648	0.1718874	171.4691407	-2.73300966	-84.5972487
3.93	393	-0.081	-0.059	1.012	-2.7501984	-3.0939732	0.1718874	171.4404928	-2.70436176	-84.60297828
3.94	394	-0.081	-0.058	1.009	-2.9793816	-2.9220858	0.1718874	171.4118449	-2.67571386	-84.60870786
3.95	395	-0.082	-0.057	1.012	-3.0366774	-2.8074942	0.1145916	171.4863294	-2.6929026	-84.63162618
3.96	396	-0.081	-0.058	1.013	-2.6929026	-2.8074942	0.286479	171.4576815	-2.6642547	-84.63735576
3.97	397	-0.084	-0.058	1.016	-2.578311	-2.86479	0.2291832	171.4290336	-2.64133638	-84.64308534
3.98	398	-0.082	-0.058	1.017	-2.4637194	-3.151269	0.2291832	171.4061153	-2.6069589	-84.64881492
3.99	399	-0.084	-0.059	1.018	-2.291832	-3.3804522	0.1718874	171.383197	-2.57258142	-84.66027408
4	400	-0.083	-0.058	1.02	-2.1772404	-3.3231564	0.2291832	171.4691407	-2.59549974	-84.6831924
4.01	401	-0.084	-0.058	1.014	-2.005353	-3.2085648	0.3437748	171.4519519	-2.56112226	-84.68892198
4.02	402	-0.082	-0.059	1.012	-1.718874	-3.2658606	0.2291832	171.4347632	-2.53247436	-84.69465156
4.03	403	-0.084	-0.057	1.014	-1.4896908	-3.3804522	0.1718874	171.4175744	-2.49809688	-84.70038114
4.04	404	-0.082	-0.058	1.011	-1.3750992	-3.3804522	0.2291832	171.4061153	-2.4637194	-84.70611072
4.05	405	-0.084	-0.057	1.01	-1.2032118	-3.3804522	0.2291832	171.5264365	-2.49809688	-84.73475862
4.06	406	-0.082	-0.058	1.011	-1.2032118	-3.2085648	0.2291832	171.5149773	-2.46944898	-84.74621778
4.07	407	-0.082	-0.059	1.009	-1.2032118	-2.9793816	0.2291832	171.5035181	-2.44080108	-84.75194736
4.08	408	-0.083	-0.059	1.012	-1.2032118	-2.9793816	0.2291832	171.492059	-2.41215318	-84.75767694
4.09	409	-0.083	-0.057	1.015	-1.0313244	-3.151269	0.2291832	171.4805998	-2.3777757	-84.76340652
4.1	410	-0.083	-0.058	1.017	-0.6875496	-3.437748	0.286479	171.6123802	-2.42361234	-84.79205442
4.11	411	-0.083	-0.059	1.018	-0.5156622	-3.6096354	0.2291832	171.6066506	-2.38923486	-84.797784
4.12	412	-0.083	-0.059	1.018	-0.3437748	-3.6669312	0.3437748	171.6066506	-2.35485738	-84.80924316
4.13	413	-0.083	-0.058	1.017	-0.1145916	-3.6669312	0.3437748	171.6066506	-2.31475032	-84.81497274
4.14	414	-0.084	-0.06	1.014	-0.0572958	-3.724227	0.286479	171.600921	-2.28037284	-84.82070232
4.15	415	-0.082	-0.06	1.01	0	-3.6669312	0.4010706	171.7441605	-2.32620948	-84.8550798
4.16	416	-0.083	-0.059	1.011	-0.1145916	-3.6096354	0.4010706	171.7441605	-2.291832	-84.86080938
4.17	417	-0.082	-0.059	1.012	-0.286479	-3.3231564	0.4010706	171.7441605	-2.25745452	-84.87226854
4.18	418	-0.082	-0.059	1.013	-0.5156622	-3.3231564	0.3437748	171.7384309	-2.22880662	-84.87799812
4.19	419	-0.083	-0.06	1.014	-0.7448454	-3.3804522	0.286479	171.7327013	-2.19442914	-84.8837277
4.2	420	-0.083	-0.058	1.012	-0.8021412	-3.3231564	0.286479	171.8472929	-2.24026578	-84.9123756
4.21	421	-0.083	-0.059	1.011	-0.6875496	-3.2085648	0.2291832	171.8415634	-2.2058883	-84.91810518
4.22	422	-0.082	-0.061	1.009	-0.572958	-3.0366774	0.286479	171.8358338	-2.1772404	-84.92956434
4.23	423	-0.082	-0.062	1.015	-0.9740286	-2.9793816	0.286479	171.8243746	-2.1485925	-84.93529392
4.24	424	-0.084	-0.059	1.02	-1.5469866	-3.2658606	0.2291832	171.8071859	-2.1199446	-84.9410235
4.25	425	-0.083	-0.059	1.02	-1.6615782	-3.724227	0.286479	171.8874	-2.14286292	-84.96394182
4.26	426	-0.082	-0.058	1.018	-1.2605076	-3.8388186	0.2291832	171.8759408	-2.10275586	-84.9696714
4.27	427	-0.082	-0.059	1.014	-1.432395	-3.4950438	0.2291832	171.8587521	-2.06837838	-84.97540098
4.28	428	-0.084	-0.058	1.01	-1.718874	-3.2085648	0.1718874	171.8415634	-2.03973048	-84.98113056
4.29	429	-0.082	-0.058	1.008	-1.8334656	-3.0366774	0.1718874	171.8243746	-2.01108258	-84.98686014
4.3	430	-0.083	-0.058	1.01	-1.718874	-3.0939732	0.2291832	171.9160479	-2.05118964	-85.01550804
4.31	431	-0.083	-0.058	1.015	-1.6042824	-3.3231564	0.2291832	171.9045887	-2.01681216	-85.02123762
4.32	432	-0.083	-0.056	1.013	-1.6042824	-3.3231564	0.2291832	171.8874	-1.98816426	-85.0269672
4.33	433	-0.083	-0.057	1.012	-1.4896908	-3.2085648	0.2291832	171.8702113	-1.95378678	-85.03269678
4.34	434	-0.083	-0.058	1.011	-1.6615782	-3.2085648	0.2291832	171.8587521	-1.9194093	-85.03842636
4.35	435	-0.084	-0.057	1.013	-1.4896908	-3.2658606	0.2291832	171.956155	-1.96524594	-85.06707426
4.36	436	-0.084	-0.057	1.016	-1.3178034	-3.3231564	0.2291832	171.9389662	-1.93659804	-85.07280384
4.37	437	-0.084	-0.057	1.014	-1.2605076	-3.3804522	0.2291832	171.9275071	-1.90222056	-85.07853342
4.38	438	-0.084	-0.058	1.015	-1.2032118	-3.437748	0.286479	171.9160479	-1.86784308	-85.084263
4.39	439	-0.084	-0.058	1.017	-1.3750992	-3.4950438	0.286479	171.9045887	-1.8334656	-85.08999258
4.4	440	-0.084	-0.056	1.017	-1.4896908	-3.5523396	0.2291832	171.9905324	-1.87357266	-85.11864048
4.41	441	-0.085	-0.056	1.014	-1.432395	-3.6096354	0.2291832	171.9733437	-1.8334656	-85.12437006
4.42	442	-0.084	-0.057	1.01	-1.3178034	-3.6096354	0.286479	171.9618845	-1.79908812	-85.13009964
4.43	443	-0.083	-0.058	1.01	-1.0313244	-3.4950438	0.3437748	171.9504254	-1.76471064	-85.13582922
4.44	444	-0.084	-0.057	1.017	-1.0313244	-3.3231564	0.2291832	171.9446958	-1.73606274	-85.1415588
4.45	445	-0.084	-0.058	1.018	-1.2032118	-3.151269	0.2291832	172.0478282	-1.78762896	-85.1702067
4.46	446	-0.084	-0.058	1.016	-1.3178034	-3.2658606	0.286479	172.0306395	-1.75325148	-85.17593628
4.47	447	-0.083	-0.058	1.015	-1.3178034	-3.3231564	0.1718874	172.0191803	-1.72460358	-85.18166586
4.48	448	-0.084	-0.058	1.014	-1.3178034	-3.3231564	0.1718874	172.0077212	-1.6902261	-85.18739544
4.49	449	-0.084	-0.058	1.014	-1.145916	-3.4950438	0.1718874	171.996262	-1.65584862	-85.19312502
4.5	450	-0.083	-0.058	1.012	-1.2032118	-3.5523396	0.2291832	172.0879353	-1.70168526	-85.22177292
4.51	451	-0.083	-0.056	1.013	-1.2605076	-3.5523396	0.1718874	172.0764761	-1.66730778	-85.2275025
4.52	452	-0.083	-0.058	1.014	-1.2605076	-3.6096354	0.2291832	172.065017	-1.6329303	-85.23323208
4.53	453	-0.084	-0.057	1.014	-1.3178034	-3.5523396	0.2291832	172.0478282	-1.59855282	-85.23896166
4.54	454	-0.084	-0.058	1.015	-1.432395	-3.4950438	0.286479	172.0363691	-1.56417534	-85.24469124
4.55	455	-0.084	-0.058	1.014	-1.4896908	-3.4950438	0.2291832	172.1165832	-1.6042824	-85.26760956
4.56	456	-0.083	-0.057	1.014	-1.432395	-3.3804522	0.2291832	172.105124	-1.56990492	-85.27906872
4.57	457	-0.083	-0.058	1.013	-0.6875496	-1.6042824	0.1145916	172.0936649	-1.55844576	-85.27906872
4.58	458	-0.084	-0.058	1.015	0.0572958	0	0	172.0993945	-1.55844576	-85.27906872
4.59	459	-0.084	-0.057	1.015	0.1145916	-0.0572958	0	172.0993945	-1.55844576	-85.27906872
4.6	460	-0.083	-0.058	1.013	0.1718874	-0.0572958	0.0572958	172.9359131	-2.2058883	-85.43376738
4.61	461	-0.083	-0.057	1.011	0.1718874	-0.0572958	0.0572958	172.9416427	-2.2058883	-85.43376738
4.62	462	-0.084	-0.057	1.012	0.286479	-0.1145916	0	172.9416427	-2.2058883	-85.43376738
4.63	463	-0.084	-0.058	1.012	0.2291832	-0.0572958	0.0572958	172.9473723	-2.2058883	-85.43376738
4.64	464	-0.084	-0.057	1.014	0.1718874	0.0572958	0.0572958	172.9473723	-2.2058883	-85.43376738
4.65	465	-0.083	-0.059	1.013	0	0.1145916	0.0572958	173.8010797	-2.87624916	-85.5999252
4.66	466	-0.084	-0.057	1.012	-0.286479	0	0.0572958	173.8010797	-2.87624916	-85.5999252
4.67	467	-0.085	-0.056	1.013	-0.2291832	-0.1145916	0	173.7953501	-2.87051958	-85.5999252
4.68	468	-0.085	-0.056	1.014	0	0	0	173.7953501	-2.87051958	-85.5999252
4.69	469	-0.082	-0.057	1.011	0.1718874	0.0572958	0	173.7953501	-2.87624916	-85.5999252
4.7	470	-0.083	-0.058	1.014	0.4010706	0.1145916	0	174.1620433	-3.151269	-85.66868016
4.71	471	-0.085	-0.058	1.021	0	0.1145916	0	174.1620433	-3.151269	-85.66868016
4.72	472	-0.085	-0.058	1.023	-0.1718874	-0.0572958	0	174.1563137	-3.151269	-85.66868016
4.73	473	-0.084	-0.057	1.015	-0.286479	-0.2291832	0	174.1563137	-3.14553942	-85.66868016
4.74	474	-0.083	-0.058	1.012	-0.1718874	-0.0572958	0	174.1563137	-3.14553942	-85.66868016
4.75	475	-0.083	-0.058	1.009	-0.4010706	0.1718874	-0.0572958	174.3740377	-3.3231564	-85.7145168
4.76	476	-0.083	-0.057	1.008	-0.4010706	0.1718874	-0.0572958	174.3740377	-3.3231564	-85.7145168
4.77	477	-0.084	-0.056	1.01	-0.1718874	0.0572958	0	174.3683081	-3.3231564	-85.7145168
4.78	478	-0.084	-0.057	1.012	-0.0572958	0	0	174.3683081	-3.3231564	-85.7145168
4.79	479	-0.084	-0.057	1.011	-0.1718874	0	0	174.3683081	-3.3231564	-85.7145168
4.8	480	-0.084	-0.058	1.014	-0.2291832	-0.0572958	-0.0572958	174.7407308	-3.6096354	-85.78900134
4.81	481	-0.084	-0.056	1.014	-0.1145916	-0.0572958	0	174.7407308	-3.6096354	-85.78900134
4.82	482	-0.085	-0.057	1.015	-0.0572958	-0.0572958	0	174.7407308	-3.6096354	-85.78900134
4.83	483	-0.084	-0.058	1.018	0.0572958	-0.1718874	0	174.7407308	-3.6096354	-85.78900134
4.84	484	-0.084	-0.057	1.015	0	-0.1145916	0	174.7407308	-3.60390582	-85.78900134
4.85	485	-0.083	-0.057	1.013	0.0572958	-0.0572958	0	175.2392043	-3.94768062	-85.8864042
4.86	486	-0.083	-0.057	1.013	0	0	0	175.2392043	-3.94768062	-85.8864042
4.87	487	-0.084	-0.057	1.015	0.0572958	-0.1145916	0	175.2392043	-3.94195104	-85.8864042
4.88	488	-0.084	-0.057	1.017	0	-0.1145916	0	175.2392043	-3.94195104	-85.8864042
4.89	489	-0.084	-0.057	1.014	0	-0.0572958	0	175.2392043	-3.94195104	-85.8864042
4.9	490	-0.082	-0.057	1.013	0.0572958	0	0	175.4397396	-4.07373138	-85.92651126
4.91	491	-0.083	-0.057	1.011	0.2291832	0	0	175.4454692	-4.07373138	-85.92651126
4.92	492	-0.084	-0.058	1.013	0.2291832	0.1145916	0	175.4454692	-4.07373138	-85.92651126
4.93	493	-0.084	-0.058	1.014	0.1718874	0.1145916	0	175.4511988	-4.07946096	-85.92651126
4.94	494	-0.084	-0.057	1.014	0	0	0	175.4511988	-4.07946096	-85.92651126
4.95	495	-0.083	-0.058	1.013	0	0	0	175.7090299	-4.23415962	-85.97807748
4.96	496	-0.084	-0.059	1.012	0	0	0	175.7090299	-4.23415962	-85.97807748
4.97	497	-0.084	-0.058	1.013	-0.0572958	-0.0572958	0	175.7090299	-4.23415962	-85.97807748
4.98	498	-0.084	-0.058	1.016	0	-0.0572958	0	175.7090299	-4.23415962	-85.97807748
4.99	499	-0.084	-0.058	1.016	0	-0.0572958	0	175.7090299	-4.23415962	-85.97807748
5	500	-0.085	-0.059	1.015	-0.1145916	-0.0572958	0	175.7949736	-4.32010332	-85.99526622
5.01	501	-0.084	-0.058	1.015	-0.1718874	0	0	175.789244	-4.32010332	-85.99526622
5.02	502	-0.084	-0.056	1.012	-0.0572958	0.0572958	0	175.789244	-4.32010332	-85.99526622
5.03	503	-0.083	-0.057	1.013	-0.1145916	0.1718874	-0.0572958	175.789244	-4.3258329	-85.99526622
5.04	504	-0.084	-0.056	1.013	0	0.1718874	0	175.789244	-4.3258329	-85.99526622
5.05	505	-0.083	-0.057	1.013	0	0.1718874	0	175.8579989	-4.37166954	-86.00672538
5.06	506	-0.084	-0.058	1.013	0	0.1145916	0	175.8579989	-4.37739912	-86.00672538
5.07	507	-0.085	-0.057	1.014	0	0	0	175.8579989	-4.37739912	-86.00672538
5.08	508	-0.085	-0.058	1.016	0	-0.1718874	0	175.8579989	-4.37166954	-86.00672538
5.09	509	-0.084	-0.057	1.015	0	-0.286479	0	175.8579989	-4.37166954	-86.01245496
5.1	510	-0.083	-0.058	1.014	0.1145916	-0.2291832	0	175.9095652	-4.4117766	-86.01818454
5.11	511	-0.085	-0.058	1.012	0	-0.1145916	0	175.9152947	-4.40604702	-86.01818454
5.12	512	-0.084	-0.058	1.01	0	0	0	175.9152947	-4.40604702	-86.01818454
5.13	513	-0.084	-0.058	1.013	0	0	0	175.9095652	-4.40604702	-86.01818454
5.14	514	-0.084	-0.057	1.017	-0.1145916	0.1718874	0	175.9095652	-4.4117766	-86.01818454
5.15	515	-0.084	-0.058	1.015	-0.1718874	0.1718874	-0.0572958	175.9439426	-4.43469492	-86.02391412
5.16	516	-0.085	-0.056	1.014	-0.2291832	-0.1145916	0	175.9382131	-4.43469492	-86.02391412
5.17	517	-0.085	-0.057	1.015	-0.0572958	-0.2291832	0	175.9382131	-4.43469492	-86.02391412
5.18	518	-0.084	-0.057	1.015	0.1145916	-0.0572958	-0.0572958	175.9382131	-4.42896534	-86.02391412
5.19	519	-0.083	-0.059	1.009	0.286479	0.0572958	0	175.9439426	-4.43469492	-86.02391412
5.2	520	-0.083	-0.059	1.015	0.3437748	0.1718874	0	175.966861	-4.45188366	-86.0296437
5.21	521	-0.086	-0.058	1.02	0	-0.0572958	0	175.966861	-4.44615408	-86.0296437
5.22	522	-0.084	-0.058	1.017	-0.1718874	-0.4010706	0	175.966861	-4.44615408	-86.0296437
5.23	523	-0.084	-0.057	1.015	0	-0.4583664	0	175.966861	-4.4404245	-86.0296437
5.24	524	-0.083	-0.057	1.013	0	-0.2291832	0	175.966861	-4.43469492	-86.0296437
5.25	525	-0.084	-0.058	1.008	-0.1718874	-0.0572958	0	176.0012384	-4.47480198	-86.04110286
5.26	526	-0.084	-0.057	1.009	-0.0572958	-0.0572958	0	176.0012384	-4.47480198	-86.03537328
5.27	527	-0.084	-0.057	1.012	0	0	0	176.0012384	-4.47480198	-86.03537328
5.28	528	-0.084	-0.057	1.013	0.0572958	-0.1145916	0	176.006968	-4.47480198	-86.03537328
5.29	529	-0.083	-0.057	1.014	0.0572958	-0.2291832	0	176.006968	-4.47480198	-86.03537328
5.3	530	-0.084	-0.058	1.012	0	-0.0572958	0.0572958	176.0699934	-4.51490904	-86.05256202
5.31	531	-0.084	-0.057	1.013	0.0572958	0	0	176.0699934	-4.51490904	-86.05256202
5.32	532	-0.084	-0.057	1.015	0.1718874	0.0572958	0	176.075723	-4.51490904	-86.05256202
5.33	533	-0.084	-0.057	1.015	0.0572958	0.0572958	0	176.075723	-4.51490904	-86.05256202
5.34	534	-0.084	-0.057	1.016	0	0.0572958	0	176.075723	-4.51490904	-86.05256202
5.35	535	-0.084	-0.058	1.014	0	0	0	176.1215596	-4.54355694	-86.0582916
5.36	536	-0.084	-0.058	1.014	0	0	0.0572958	176.1215596	-4.54355694	-86.0582916
5.37	537	-0.083	-0.058	1.014	0	0	0	176.1272892	-4.54355694	-86.06402118
5.38	538	-0.084	-0.057	1.017	0	-0.0572958	0	176.1272892	-4.54355694	-86.06402118
5.39	539	-0.085	-0.058	1.017	0.0572958	-0.0572958	0	176.1272892	-4.53782736	-86.06402118
5.4	540	-0.083	-0.058	1.015	0	0	0	176.1788554	-4.56074568	-86.06975076
5.41	541	-0.083	-0.058	1.014	0	0.1145916	0	176.1788554	-4.56074568	-86.06975076
5.42	542	-0.083	-0.057	1.011	0.1145916	0.1145916	0	176.1788554	-4.56074568	-86.06975076
5.43	543	-0.083	-0.057	1.011	0.1145916	0.1718874	0	176.1788554	-4.56074568	-86.06975076
5.44	544	-0.084	-0.056	1.014	0	0.1718874	0	176.1788554	-4.56647526	-86.06975076
5.45	545	-0.084	-0.057	1.016	-0.0572958	0	-0.0572958	176.184585	-4.57793442	-86.06975076
5.46	546	-0.084	-0.058	1.013	-0.1145916	0.0572958	0	176.184585	-4.57793442	-86.06975076
5.47	547	-0.083	-0.058	1.011	-0.1145916	0.1145916	0	176.184585	-4.57793442	-86.06975076
5.48	548	-0.084	-0.058	1.013	-0.0572958	0.0572958	0	176.1788554	-4.57793442	-86.06975076
5.49	549	-0.084	-0.058	1.014	0	0	0	176.1788554	-4.57793442	-86.06975076
5.5	550	-0.084	-0.057	1.017	0	0	0	176.2075033	-4.583664	-86.07548034
5.51	551	-0.084	-0.058	1.014	0	0	0	176.2075033	-4.583664	-86.07548034
5.52	552	-0.083	-0.058	1.011	-0.1718874	0.0572958	0	176.2017737	-4.583664	-86.07548034
5.53	553	-0.083	-0.057	1.014	-0.1145916	0.0572958	0	176.2017737	-4.583664	-86.07548034
5.54	554	-0.084	-0.057	1.015	-0.1145916	0.1718874	0	176.2017737	-4.58939358	-86.06975076
5.55	555	-0.084	-0.057	1.015	-0.0572958	0.1718874	0.0572958	176.2075033	-4.59512316	-86.07548034
5.56	556	-0.084	-0.057	1.014	-0.0572958	0.2291832	0	176.2017737	-4.59512316	-86.07548034
5.57	557	-0.084	-0.058	1.015	0	0.1145916	0	176.2017737	-4.59512316	-86.07548034
5.58	558	-0.084	-0.057	1.014	0	0.0572958	0	176.2017737	-4.59512316	-86.07548034
5.59	559	-0.084	-0.057	1.013	0	0.0572958	0	176.2017737	-4.60085274	-86.07548034
5.6	560	-0.084	-0.059	1.013	-0.1145916	0.1145916	0	176.1960442	-4.6123119	-86.07548034
5.61	561	-0.085	-0.059	1.014	0	0	0	176.1960442	-4.6123119	-86.07548034
5.62	562	-0.084	-0.058	1.015	0	0	0	176.1960442	-4.6123119	-86.07548034
5.63	563	-0.084	-0.058	1.011	0	0	0	176.1960442	-4.6123119	-86.07548034
5.64	564	-0.084	-0.057	1.011	-0.1145916	-0.1145916	0	176.1960442	-4.6123119	-86.07548034
5.65	565	-0.084	-0.058	1.011	0	-0.1718874	0	176.2017737	-4.62377106	-86.07548034
5.66	566	-0.085	-0.058	1.014	-0.1145916	-0.0572958	0	176.1960442	-4.62377106	-86.07548034
5.67	567	-0.085	-0.057	1.017	-0.0572958	0.1145916	-0.0572958	176.1960442	-4.62377106	-86.07548034
5.68	568	-0.084	-0.057	1.014	-0.1145916	0.1718874	-0.0572958	176.1960442	-4.62377106	-86.07548034
5.69	569	-0.084	-0.056	1.012	-0.2291832	0	-0.0572958	176.1903146	-4.62377106	-86.06975076
5.7	570	-0.085	-0.057	1.011	-0.1145916	-0.1145916	0	176.2017737	-4.62377106	-86.07548034
5.71	571	-0.084	-0.058	1.012	0.0572958	-0.1145916	0	176.2017737	-4.62377106	-86.07548034
5.72	572	-0.084	-0.059	1.013	0.2291832	-0.1145916	0	176.2075033	-4.61804148	-86.07548034
5.73	573	-0.084	-0.059	1.018	0.1718874	-0.1718874	0	176.2075033	-4.61804148	-86.07548034
5.74	574	-0.084	-0.059	1.022	0	-0.5156622	0	176.2075033	-4.6123119	-86.07548034
5.75	575	-0.084	-0.058	1.019	-0.2291832	-0.9740286	0	176.2075033	-4.60658232	-86.07548034
5.76	576	-0.083	-0.058	1.015	-0.0572958	-1.145916	0	176.2075033	-4.59512316	-86.07548034
5.77	577	-0.083	-0.059	1.011	-0.0572958	-0.859437	0	176.2075033	-4.583664	-86.07548034
5.78	578	-0.082	-0.058	1.01	-0.1145916	-0.5156622	0	176.2017737	-4.57793442	-86.07548034
5.79	579	-0.083	-0.058	1.011	0	-0.2291832	0	176.2017737	-4.57793442	-86.07548034
5.8	580	-0.082	-0.057	1.012	-0.0572958	0	0	176.2132329	-4.57220484	-86.07548034
5.81	581	-0.082	-0.057	1.012	0	0.1145916	0	176.2132329	-4.57220484	-86.07548034
5.82	582	-0.082	-0.057	1.014	0	0.3437748	0	176.2189625	-4.57793442	-86.07548034
5.83	583	-0.083	-0.057	1.014	0.1718874	0.4583664	0	176.2189625	-4.583664	-86.07548034
5.84	584	-0.083	-0.059	1.015	0.1718874	0.572958	0	176.2189625	-4.58939358	-86.07548034
5.85	585	-0.083	-0.058	1.014	0.1145916	0.5156622	0	176.2246921	-4.59512316	-86.07548034
5.86	586	-0.083	-0.058	1.016	0.1145916	0.4583664	0	176.2246921	-4.60085274	-86.07548034
5.87	587	-0.084	-0.057	1.016	0.0572958	0.286479	0	176.2246921	-4.60658232	-86.07548034
5.88	588	-0.084	-0.058	1.016	0.0572958	0.1718874	0	176.2246921	-4.60658232	-86.07548034
5.89	589	-0.084	-0.058	1.013	0	0.1145916	0	176.2246921	-4.60658232	-86.07548034
5.9	590	-0.084	-0.058	1.013	0	0.0572958	0	176.2304216	-4.62377106	-86.07548034
5.91	591	-0.084	-0.057	1.013	0	0.1145916	0	176.2304216	-4.62377106	-86.07548034
