TimeStamp(s)	FrameCounter	AccX	AccY	AccZ	GyrX	GyrY	GyrZ	EulerX	EulerY	EulerZ
0.01	1	-0.042	-0.981	0.049	-11.8602306	-11.8602306	0.6875496	86.6026017	3.39764094	-68.15908368
0.02	2	-0.047	-0.981	0.054	-11.4018642	-12.4331886	0.6875496	86.48228052	3.38618178	-68.27940486
0.03	3	-0.053	-0.978	0.054	-10.9434978	-12.6623718	0.6302538	86.36195934	3.37472262	-68.4111852
0.04	4	-0.054	-0.976	0.054	-10.2559482	-12.0894138	0.4010706	86.25309732	3.36326346	-68.53150638
0.05	5	-0.048	-0.979	0.053	-9.5111028	-10.599723	0.0572958	86.1728832	3.31742682	-68.63463882
0.06	6	-0.043	-0.986	0.054	-8.7089616	-9.453807	-0.1145916	86.08120992	3.31169724	-68.73204168
0.07	7	-0.043	-0.999	0.055	-7.9641162	-8.4224826	-0.1718874	85.99526622	3.31169724	-68.81798538
0.08	8	-0.052	-1.009	0.059	-7.0473834	-8.3651868	0.0572958	85.92078168	3.30596766	-68.8981995
0.09	9	-0.067	-1.011	0.062	-6.2452422	-8.8235532	0.8021412	85.85202672	3.2945085	-68.9841432
0.1	10	-0.085	-1.008	0.078	-5.9014674	-8.4797784	1.6615782	85.8291084	3.19137606	-69.0700869
0.11	11	-0.093	-1.003	0.085	-6.5317212	-7.2765666	2.4637194	85.76035344	3.16272816	-69.14457144
0.12	12	-0.088	-1.002	0.062	-7.6776372	-6.8182002	3.3231564	85.68013932	3.12835068	-69.20759682
0.13	13	-0.082	-1.002	0.043	-8.9381448	-8.9954406	4.1825934	85.58273646	3.08251404	-69.2992701
0.14	14	-0.079	-1	0.035	-10.7143146	-12.2613012	4.9274388	85.46814486	3.02521824	-69.4138617
0.15	15	-0.071	-0.994	0.019	-12.7769634	-17.2460358	5.3285094	85.3420941	2.93354496	-69.5857491
0.16	16	-0.064	-0.989	0.007	-14.8396122	-23.6631654	5.6722842	85.18166586	2.86479	-69.8149323
0.17	17	-0.057	-0.977	0.004	-18.048177	-30.7105488	5.5003968	84.98686014	2.79030546	-70.11860004
0.18	18	-0.056	-0.964	0.004	-21.485925	-38.5027776	4.6409598	84.75767694	2.71582092	-70.49675232
0.19	19	-0.059	-0.967	0.011	-25.3820394	-47.555514	3.6096354	84.4826571	2.64706596	-70.96657788
0.2	20	-0.07	-0.982	0.036	-29.9084076	-57.9260538	2.8074942	84.1675302	2.56685184	-71.53953588
0.21	21	-0.053	-1.007	0.04	-35.6379876	-69.4998054	2.7501984	83.78364834	2.48090814	-72.22708548
0.22	22	-0.025	-1.025	0.03	-39.1330314	-74.9429064	1.8907614	83.365389	2.39496444	-72.9662013
0.23	23	-0.011	-1.009	0.052	-38.1590028	-78.2660628	-0.286479	82.95858882	2.32620948	-73.7396946
0.24	24	-0.012	-0.969	0.105	-34.5493674	-76.5471888	-4.2398892	82.58616612	2.291832	-74.50172874
0.25	25	-0.037	-0.928	0.142	-32.4294228	-69.041439	-9.740286	82.25385048	2.30329116	-75.2007375
0.26	26	-0.07	-0.904	0.169	-29.9657034	-58.3844202	-15.0687954	81.92726442	2.38923486	-75.79661382
0.27	27	-0.113	-0.939	0.176	-26.1841806	-49.274388	-17.475219	81.646515	2.49809688	-76.30654644
0.28	28	-0.173	-1.06	0.165	-21.6005166	-43.0864416	-14.7250206	81.41160222	2.58977016	-76.75345368
0.29	29	-0.219	-1.177	0.162	-15.3552744	-37.5860448	-7.0473834	81.2454444	2.61268848	-77.13733554
0.3	30	-0.245	-1.222	0.139	-12.2040054	-33.231564	0.572958	81.12512322	2.53247436	-77.4639216
0.31	31	-0.26	-1.172	0.116	-11.4018642	-28.1322378	5.6149884	81.00480204	2.44080108	-77.73321186
0.32	32	-0.267	-1.073	0.106	-11.4018642	-23.204799	7.448454	80.87875128	2.33766864	-77.9509359
0.33	33	-0.263	-0.981	0.109	-11.6310474	-18.8503182	7.448454	80.7584301	2.24026578	-78.12855288
0.34	34	-0.246	-0.907	0.109	-12.605076	-15.1260912	6.875496	80.62664976	2.1485925	-78.2660628
0.35	35	-0.217	-0.86	0.104	-13.464513	-11.8602306	6.2452422	80.51778774	1.99962342	-78.37492482
0.36	36	-0.169	-0.838	0.094	-14.32395	-8.880849	5.9587632	80.36881866	1.93086846	-78.45513894
0.37	37	-0.125	-0.845	0.088	-13.2926256	-5.2139178	5.8441716	80.23703832	1.8621135	-78.50097558
0.38	38	-0.102	-0.871	0.09	-11.5164558	-2.291832	5.6722842	80.11671714	1.8048177	-78.51243474
0.39	39	-0.102	-0.897	0.095	-9.9121734	0.3437748	5.5576926	80.01931428	1.7475219	-78.50097558
0.4	40	-0.116	-0.915	0.101	-8.2505952	3.3804522	5.2712136	80.00212554	1.62147114	-78.46086852
0.41	41	-0.14	-0.925	0.113	-5.9014674	6.5317212	4.870143	79.94482974	1.58136408	-78.39211356
0.42	42	-0.171	-0.924	0.13	-2.6929026	9.9694692	4.1252976	79.92191142	1.55271618	-78.28325154
0.43	43	-0.202	-0.926	0.145	-0.1718874	14.5531332	2.9220858	79.92191142	1.5469866	-78.14001204
0.44	44	-0.23	-0.927	0.145	1.432395	19.4232762	1.2605076	79.93910016	1.56417534	-77.94520632
0.45	45	-0.236	-0.935	0.136	2.9793816	24.7517856	-0.2291832	80.01931428	1.50687954	-77.71029354
0.46	46	-0.223	-0.947	0.131	4.010706	28.4760126	-1.6042824	80.06515092	1.56417534	-77.42954412
0.47	47	-0.191	-0.952	0.127	4.9274388	32.2575354	-2.8074942	80.11671714	1.63865988	-77.1201468
0.48	48	-0.148	-0.955	0.121	6.7609044	34.8931422	-3.8388186	80.19120168	1.73033316	-76.78210158
0.49	49	-0.109	-0.962	0.124	8.1360036	35.9244666	-4.4690724	80.28287496	1.82200644	-76.43832678
0.5	50	-0.085	-0.969	0.132	9.2819196	36.7266078	-4.870143	80.4146553	1.90222056	-76.0888224
0.51	51	-0.073	-0.975	0.139	10.5424272	37.6433406	-5.0993262	80.5292469	2.005353	-75.72212928
0.52	52	-0.078	-0.975	0.149	11.6310474	38.5027776	-5.3858052	80.65529766	2.11421502	-75.35543616
0.53	53	-0.09	-0.972	0.152	13.6936962	39.6486936	-5.443101	80.80426674	2.21734746	-74.9715543
0.54	54	-0.121	-0.982	0.146	14.896908	38.7892566	-4.6982556	80.96469498	2.31475032	-74.5991316
0.55	55	-0.158	-1.004	0.154	15.4125702	37.2995658	-3.2085648	81.1595007	2.36058696	-74.23816806
0.56	56	-0.191	-1.027	0.164	15.1260912	37.528749	-1.6042824	81.32565852	2.42361234	-73.86574536
0.57	57	-0.219	-1.04	0.179	14.4958374	39.534102	-0.9740286	81.48608676	2.48090814	-73.4818635
0.58	58	-0.238	-1.049	0.193	14.896908	42.5707794	-1.7761698	81.646515	2.5496631	-73.06360416
0.59	59	-0.256	-1.075	0.216	16.2147114	45.6647526	-3.2658606	81.82986156	2.6356068	-72.61669692
0.6	60	-0.269	-1.107	0.246	17.0741484	48.8733174	-4.870143	82.03612644	2.71009134	-72.14114178
0.61	61	-0.26	-1.136	0.275	18.334656	53.571573	-6.6463128	82.24239132	2.8361421	-71.61975
0.62	62	-0.235	-1.147	0.287	19.480572	56.3790672	-7.6203414	82.46011536	2.97365202	-71.0754399
0.63	63	-0.198	-1.137	0.29	22.0015872	55.9779966	-7.448454	82.7064873	3.10543236	-70.5311298
0.64	64	-0.158	-1.127	0.289	23.7204612	52.3683612	-5.5576926	82.9643184	3.2085648	-70.0154676
0.65	65	-0.11	-1.123	0.281	23.3766864	48.3576552	-2.7501984	83.2507974	3.27159018	-69.53991246
0.66	66	-0.07	-1.131	0.249	22.1734746	43.4302164	0.1145916	83.49143976	3.31169724	-69.11019396
0.67	67	-0.042	-1.144	0.252	22.1734746	36.2109456	3.2085648	83.73208212	3.31169724	-68.74350084
0.68	68	-0.012	-1.139	0.27	22.2307704	29.1062664	5.9014674	83.97272448	3.27731976	-68.45129226
0.69	69	0.004	-1.143	0.262	18.4492476	24.6944898	5.3858052	84.17325978	3.24294228	-68.19919074
0.7	70	-0.003	-1.164	0.198	16.4438946	20.1108258	4.010706	84.37379508	3.2085648	-67.99292586
0.71	71	-0.028	-1.212	0.126	25.496631	14.896908	3.724227	84.63735576	3.18564648	-67.8382272
0.72	72	-0.053	-1.257	0.034	33.2888598	12.4904844	4.4690724	84.98113056	3.151269	-67.70644686
0.73	73	-0.06	-1.26	-0.038	31.51269	12.8342592	4.583664	85.30771662	3.11689152	-67.57466652
0.74	74	-0.029	-1.271	-0.091	26.5279554	12.318597	4.9274388	85.58273646	3.07678446	-67.44288618
0.75	75	0.028	-1.333	-0.176	23.7204612	5.5003968	8.0787078	85.81764924	2.99657034	-67.38559038
0.76	76	0.077	-1.394	-0.266	19.9962342	-4.6409598	14.610429	86.02391412	2.85333084	-67.41996786
0.77	77	0.059	-1.322	-0.296	17.6471064	-12.7769634	18.4492476	86.2015311	2.66998428	-67.52882988
0.78	78	-0.009	-1.159	-0.242	22.0015872	-11.2299768	17.761698	86.41925514	2.48663772	-67.62623274
0.79	79	-0.113	-0.996	-0.187	20.7410796	-2.6356068	12.7769634	86.6312496	2.36058696	-67.64342148
0.8	80	-0.177	-0.901	-0.17	14.3812458	7.0473834	5.7868758	86.72865246	2.21734746	-67.5803961
0.81	81	-0.199	-0.88	-0.181	9.9121734	16.1001198	-0.8021412	86.8317849	2.22880662	-67.41996786
0.82	82	-0.204	-0.913	-0.216	5.3285094	23.8923486	-5.3285094	86.89481028	2.28610242	-67.18505508
0.83	83	-0.176	-0.954	-0.212	3.6096354	29.1062664	-6.5317212	86.94064692	2.36058696	-66.89857608
0.84	84	-0.131	-1.004	-0.222	0.9167328	31.1689152	-4.1825934	86.95783566	2.41215318	-66.58917876
0.85	85	-0.08	-1.006	-0.221	-3.4950438	29.1635622	-0.1718874	86.88335112	2.3777757	-66.30842934
0.86	86	-0.045	-0.972	-0.207	-5.3285094	23.9496444	4.1252976	86.83751448	2.34339822	-66.06778698
0.87	87	-0.014	-0.923	-0.17	-5.0993262	18.334656	7.5630456	86.79167784	2.27464326	-65.88444042
0.88	88	0.001	-0.888	-0.145	-3.8961144	12.6623718	8.8235532	86.75157078	2.18869956	-65.75266008
0.89	89	0	-0.861	-0.124	-2.005353	7.1046792	8.4797784	86.73438204	2.10848544	-65.67817554
0.9	90	0.001	-0.85	-0.091	1.4896908	4.010706	6.589017	86.73438204	2.02827132	-65.63806848
0.91	91	0.014	-0.866	-0.055	3.6096354	3.5523396	3.6669312	86.76875952	1.99389384	-65.603691
0.92	92	0.034	-0.898	-0.031	3.3804522	4.4117766	-0.572958	86.80886658	1.99962342	-65.55785436
0.93	93	0.056	-0.923	-0.025	2.005353	5.3285094	-4.3544808	86.82605532	2.04546006	-65.50628814
0.94	94	0.073	-0.934	-0.024	-0.286479	4.870143	-7.1046792	86.82605532	2.1199446	-65.4604515
0.95	95	0.087	-0.938	-0.031	-2.5210152	3.6669312	-8.880849	86.803137	2.24026578	-65.42607402
0.96	96	0.092	-0.937	-0.036	-4.583664	1.4896908	-9.6256944	86.75730036	2.33766864	-65.42034444
0.97	97	0.085	-0.932	-0.037	-6.4171296	-2.1199446	-9.3965112	86.6885454	2.42934192	-65.44326276
0.98	98	0.052	-0.926	-0.036	-8.0787078	-6.7036086	-8.307891	86.60833128	2.50955604	-65.5177473
0.99	99	0.014	-0.908	-0.026	-9.9694692	-11.172681	-6.7036086	86.49946926	2.57258142	-65.6323389
1	100	-0.027	-0.886	-0.007	-11.5737516	-15.2979786	-5.0993262	86.37914808	2.59549974	-65.78703756
1.01	101	-0.06	-0.879	0.007	-12.032118	-18.9649098	-4.2398892	86.25309732	2.62987722	-65.98184328
1.02	102	-0.079	-0.889	0.024	-12.5477802	-21.0275586	-3.7815228	86.12131698	2.65852512	-66.19383774
1.03	103	-0.082	-0.908	0.038	-13.2353298	-22.8610242	-3.2658606	85.97807748	2.68144344	-66.42302094
1.04	104	-0.062	-0.926	0.055	-12.7196676	-24.4653066	-2.8074942	85.84056756	2.69863218	-66.66939288
1.05	105	-0.036	-0.933	0.068	-11.45916	-26.069589	-2.0626488	85.73170554	2.68717302	-66.92722398
1.06	106	-0.02	-0.939	0.086	-8.9954406	-27.6165756	-0.9167328	85.63430268	2.68144344	-67.20224382
1.07	107	-0.017	-0.936	0.102	-7.448454	-28.6479	0.1718874	85.54835898	2.66998428	-67.48872282
1.08	108	-0.029	-0.938	0.122	-5.72958	-28.8197874	1.4896908	85.47960402	2.6356068	-67.76947224
1.09	109	-0.049	-0.939	0.134	-4.8128472	-28.7624916	2.1199446	85.42230822	2.60122932	-68.05595124
1.1	110	-0.069	-0.939	0.146	-3.6669312	-28.934379	2.7501984	85.41084906	2.52674478	-68.33670066
1.11	111	-0.09	-0.935	0.154	-2.1199446	-29.6792244	3.8388186	85.38220116	2.47517856	-68.62890924
1.12	112	-0.11	-0.936	0.162	-0.859437	-30.080295	4.7555514	85.36501242	2.41215318	-68.92111782
1.13	113	-0.119	-0.929	0.171	0.3437748	-29.7365202	5.2712136	85.35928284	2.34339822	-69.2133264
1.14	114	-0.117	-0.922	0.175	1.8334656	-29.220858	5.3285094	85.370742	2.27464326	-69.4998054
1.15	115	-0.105	-0.914	0.179	2.7501984	-29.1635622	5.0993262	85.43376738	2.1772404	-69.78055482
1.16	116	-0.089	-0.908	0.187	3.437748	-29.6792244	4.6409598	85.46241528	2.11421502	-70.0727634
1.17	117	-0.071	-0.906	0.192	3.6669312	-30.8824362	4.010706	85.49106318	2.05691922	-70.37070156
1.18	118	-0.055	-0.907	0.201	2.6356068	-32.4294228	3.5523396	85.5139815	2.005353	-70.69155804
1.19	119	-0.037	-0.913	0.203	1.0886202	-33.6899304	3.2085648	85.5139815	1.95951636	-71.0181441
1.2	120	-0.021	-0.927	0.196	0.0572958	-34.8358464	2.9793816	85.55408856	1.90222056	-71.3619189
1.21	121	-0.01	-0.943	0.191	0.1718874	-36.1536498	2.4637194	85.55408856	1.8621135	-71.71715286
1.22	122	-0.001	-0.959	0.189	1.4896908	-37.4141574	2.0626488	85.55981814	1.82200644	-72.08384598
1.23	123	0.003	-0.962	0.202	3.2085648	-39.5913978	2.1199446	85.58846604	1.78189938	-72.47345742
1.24	124	-0.002	-0.967	0.232	5.7868758	-42.7999626	2.7501984	85.64003226	1.73606274	-72.89171676
1.25	125	-0.017	-0.992	0.29	6.7609044	-47.0971476	3.0939732	85.7431647	1.67303736	-73.35581274
1.26	126	-0.044	-1.021	0.328	4.1825934	-49.3889796	2.6929026	85.77754218	1.62720072	-73.84282704
1.27	127	-0.073	-1.064	0.325	-0.7448454	-47.6128098	1.2605076	85.76035344	1.59282324	-74.3126526
1.28	128	-0.093	-1.114	0.291	-6.4171296	-42.112413	-1.5469866	85.69159848	1.58709366	-74.73091194
1.29	129	-0.105	-1.168	0.243	-11.4018642	-33.518043	-5.7868758	85.5712773	1.62720072	-75.06322758
1.3	130	-0.13	-1.205	0.176	-14.6677248	-20.1108258	-10.7143146	85.43376738	1.70168526	-75.27522204
1.31	131	-0.208	-1.207	0.152	-17.2460358	-7.9641162	-14.32395	85.2561504	1.83919518	-75.36689532
1.32	132	-0.302	-1.162	0.168	-15.1260912	-1.145916	-14.7250206	85.10145174	1.98243468	-75.38981364
1.33	133	-0.37	-1.097	0.206	-8.4797784	1.0313244	-12.4904844	85.01550804	2.10275586	-75.38981364
1.34	134	-0.364	-1.071	0.236	-6.3598338	-0.6875496	-10.0840608	84.95248266	2.20015872	-75.40700238
1.35	135	-0.313	-1.108	0.218	-3.0939732	-1.432395	-10.0840608	84.96394182	2.20015872	-75.43565028
1.36	136	-0.253	-1.198	0.193	7.3338624	2.291832	-13.5218088	85.03842636	2.33766864	-75.42419112
1.37	137	-0.196	-1.286	0.157	23.2620948	10.4851314	-19.2513888	85.27906872	2.53247436	-75.33251784
1.38	138	-0.143	-1.345	0.122	37.3568616	20.5118964	-25.2674478	85.66295058	2.80176462	-75.1434417
1.39	139	-0.089	-1.37	0.115	43.544808	29.8511118	-30.080295	86.1155874	3.11689152	-74.86269228
1.4	140	-0.029	-1.354	0.097	39.7632852	37.8725238	-32.372127	86.53957632	3.44920716	-74.50745832
1.41	141	0.031	-1.316	-0.029	35.3515086	37.1849742	-31.9137606	86.91199902	3.7815228	-74.15222436
1.42	142	0.085	-1.263	-0.176	31.9710564	27.0436176	-29.2781538	87.25004424	4.07946096	-73.89439326
1.43	143	0.103	-1.198	-0.234	25.9549974	16.042824	-26.8717302	87.52506408	4.3544808	-73.7396946
1.44	144	0.08	-1.132	-0.272	21.6578124	7.161975	-25.210152	87.7485177	4.60658232	-73.67666922
1.45	145	0.046	-1.052	-0.29	15.5271618	-2.2345362	-23.1475032	87.85737972	4.8128472	-73.7110467
1.46	146	0	-0.96	-0.278	7.1046792	-12.6623718	-19.4232762	87.9204051	5.00765292	-73.84282704
1.47	147	-0.025	-0.892	-0.252	0	-17.7044022	-15.4125702	87.90321636	5.156622	-74.0261736
1.48	148	-0.027	-0.873	-0.209	-4.8128472	-18.1627686	-12.2613012	87.84019098	5.27694318	-74.20952016
1.49	149	-0.025	-0.896	-0.16	-8.1360036	-18.907614	-10.1413566	87.74278812	5.37434604	-74.40432588
1.5	150	-0.012	-0.935	-0.108	-10.7143146	-18.3919518	-9.5683986	87.6052782	5.443101	-74.59340202
1.51	151	0.029	-0.965	-0.065	-12.2613012	-14.5531332	-10.313244	87.46776828	5.54050386	-74.7423711
1.52	152	0.06	-0.982	-0.038	-12.1467096	-10.9434978	-11.5164558	87.33025836	5.65509546	-74.8569627
1.53	153	0.072	-0.98	-0.036	-12.032118	-6.3598338	-12.605076	87.2042076	5.77541664	-74.93144724
1.54	154	0.061	-0.967	-0.041	-11.8029348	-2.6356068	-11.9175264	87.07815684	5.89573782	-74.96009514
1.55	155	0.011	-0.975	-0.043	-10.4851314	-1.432395	-7.6776372	86.96356524	5.89000824	-74.98874304
1.56	156	-0.045	-1.005	-0.031	-11.0007936	0.572958	-0.9740286	86.84897364	5.9014674	-74.98301346
1.57	157	-0.103	-1.028	-0.024	-11.172681	2.9793816	5.9014674	86.74011162	5.83844202	-74.95436556
1.58	158	-0.155	-1.024	-0.026	-9.5683986	5.443101	11.5164558	86.64843834	5.72958	-74.89134018
1.59	159	-0.202	-0.991	-0.023	-8.0787078	8.5370742	15.1260912	86.5739538	5.58061092	-74.7996669
1.6	160	-0.235	-0.937	-0.017	-7.2192708	12.9488508	16.4438946	86.50519884	5.32277982	-74.66788656
1.61	161	-0.251	-0.888	-0.006	-7.3911582	18.7357266	16.1001198	86.44790304	5.16808116	-74.47308084
1.62	162	-0.247	-0.855	0	-8.021412	24.5798982	14.9542038	86.38487766	5.02484166	-74.22097932
1.63	163	-0.225	-0.841	-0.006	-8.880849	29.2781538	13.750992	86.3161227	4.8987909	-73.92304116
1.64	164	-0.186	-0.844	-0.008	-10.4851314	33.3461556	12.605076	86.230179	4.7841993	-73.58499594
1.65	165	-0.139	-0.845	-0.003	-12.2613012	36.8411994	11.8029348	86.13277614	4.64668938	-73.21830282
1.66	166	-0.105	-0.847	-0.001	-12.6623718	38.5027776	11.3445684	86.0296437	4.54928652	-72.82869138
1.67	167	-0.073	-0.846	0.001	-12.2040054	38.5600734	11.1153852	85.93224084	4.45761324	-72.43907994
1.68	168	-0.051	-0.844	0.009	-11.5164558	37.1849742	10.7716104	85.84056756	4.36593996	-72.06665724
1.69	169	-0.039	-0.84	0.023	-10.5424272	35.1796212	10.1413566	85.75462386	4.27999626	-71.71142328
1.7	170	-0.042	-0.83	0.039	-9.3392154	32.7731976	9.167328	85.69159848	4.1825934	-71.37910764
1.71	171	-0.059	-0.814	0.054	-8.0787078	30.4813656	7.734933	85.6285731	4.11956802	-71.0754399
1.72	172	-0.076	-0.809	0.063	-6.4171296	28.7051958	6.2452422	85.57700688	4.0680018	-70.78323132
1.73	173	-0.092	-0.813	0.069	-4.6409598	28.0176462	4.8128472	85.54835898	4.03362432	-70.5024819
1.74	174	-0.098	-0.824	0.068	-3.437748	27.7311672	3.6669312	85.52544066	4.010706	-70.22746206
1.75	175	-0.088	-0.83	0.077	-2.3491278	27.0436176	2.6929026	85.53689982	3.96486936	-69.9581718
1.76	176	-0.071	-0.831	0.096	-1.0886202	25.9549974	1.5469866	85.5426294	3.95913978	-69.7003407
1.77	177	-0.055	-0.831	0.118	0.4583664	24.4653066	0.2291832	85.55981814	3.97059894	-69.45969834
1.78	178	-0.046	-0.834	0.141	1.8334656	22.8037284	-1.0886202	85.59419562	3.99351726	-69.23051514
1.79	179	-0.056	-0.838	0.163	2.2345362	21.199446	-2.4637194	85.6285731	4.02789474	-69.02425026
1.8	180	-0.076	-0.847	0.168	1.718874	19.7097552	-3.3804522	85.70305764	4.02216516	-68.82944454
1.81	181	-0.1	-0.869	0.152	0.572958	18.8503182	-4.010706	85.72024638	4.07373138	-68.64609798
1.82	182	-0.124	-0.899	0.127	-1.3178034	18.9649098	-4.2398892	85.72024638	4.1252976	-68.45702184
1.83	183	-0.149	-0.924	0.119	-2.9220858	18.7357266	-3.6096354	85.69732806	4.16540466	-68.27367528
1.84	184	-0.183	-0.949	0.141	-2.7501984	18.9649098	-2.0626488	85.68013932	4.19405256	-68.09032872
1.85	185	-0.208	-0.964	0.175	-2.005353	22.5172494	-0.1145916	85.73170554	4.10237928	-67.8668751
1.86	186	-0.204	-0.972	0.214	-1.0313244	27.9030546	1.4896908	85.73743512	4.0966497	-67.59185526
1.87	187	-0.177	-0.99	0.248	0	32.5440144	2.1772404	85.75462386	4.09092012	-67.2652692
1.88	188	-0.158	-1.024	0.306	-0.0572958	35.9244666	2.7501984	85.7718126	4.07946096	-66.91003524
1.89	189	-0.147	-1.064	0.39	-1.9480572	38.674665	3.6096354	85.77754218	4.06227222	-66.5204238
1.9	190	-0.118	-1.108	0.406	-6.302538	42.398892	4.870143	85.7718126	4.01643558	-66.09643488
1.91	191	-0.087	-1.132	0.369	-9.740286	42.2843004	5.72958	85.69732806	3.97632852	-65.67817554
1.92	192	-0.07	-1.168	0.363	-7.9641162	38.2735944	6.2452422	85.64003226	3.93049188	-65.29429368
1.93	193	-0.071	-1.206	0.374	-2.86479	32.0283522	7.3911582	85.6285731	3.87319608	-64.9734372
1.94	194	-0.086	-1.22	0.381	2.6356068	25.8404058	8.4797784	85.66868016	3.79871154	-64.70987652
1.95	195	-0.113	-1.204	0.377	7.0473834	21.6578124	8.4797784	85.78900134	3.70703826	-64.4864229
1.96	196	-0.133	-1.166	0.368	10.5424272	17.5325148	7.5057498	85.90359294	3.6382833	-64.30880592
1.97	197	-0.145	-1.126	0.325	11.2299768	14.037471	5.9587632	86.02391412	3.58671708	-64.15983684
1.98	198	-0.136	-1.12	0.273	6.9900876	8.6516658	4.6409598	86.10412824	3.54661002	-64.07389314
1.99	199	-0.054	-1.307	0.089	-1.145916	4.1252976	6.1306506	86.09266908	3.48931422	-64.0280565
2	200	0.137	-1.846	-0.417	-32.4867186	-17.8762896	19.2513888	85.75462386	3.28877892	-64.19421432
2.01	201	0.522	-2.908	-0.385	-67.036086	-81.646515	70.7030172	85.04415594	2.53820394	-64.95624846
2.02	202	1.195	-3.086	-0.196	-15.8136408	-111.7841058	111.8986974	84.86653896	1.35791046	-65.96465454
2.03	203	0.945	-1.28	-0.503	19.2513888	-89.381448	75.8023434	85.06134468	0.56149884	-66.7782549
2.04	204	0.169	-0.503	-0.35	51.852699	-50.8213746	25.496631	85.59419562	0.28074942	-67.25381004
2.05	205	-0.302	-0.461	-0.357	31.7418732	-19.9962342	-9.2819196	85.8577563	0.27501984	-67.4658045
2.06	206	-0.627	-0.466	-0.297	-7.9068204	-16.2720072	-25.2674478	85.77754218	0.5156622	-67.64342148
2.07	207	-0.893	-0.625	-0.223	-24.2361234	-9.6256944	-37.7006364	85.53117024	0.88235532	-67.76947224
2.08	208	-0.985	-0.934	-0.133	-21.3140376	0.4583664	-40.5081306	85.3134462	1.28342592	-67.79812014
2.09	209	-0.904	-1.267	-0.033	-11.6883432	10.4278356	-33.2888598	85.19312502	1.61574156	-67.7236356
2.1	210	-0.699	-1.442	0.001	-13.1207382	25.3820394	-23.8923486	85.06134468	1.84492476	-67.4944524
2.11	211	-0.318	-1.312	-0.025	-22.631841	40.7946096	-15.2979786	84.83789106	2.01681216	-67.10484096
2.12	212	-0.027	-1.05	-0.083	-28.5906042	59.301153	-8.9381448	84.56287122	2.14286292	-66.53188296
2.13	213	0.142	-0.892	-0.144	-24.350715	61.306506	-4.9847346	84.32795844	2.2345362	-65.93027706
2.14	214	0.265	-0.794	-0.154	-19.8816426	57.5249832	-3.8961144	84.14461188	2.30902074	-65.36877822
2.15	215	0.351	-0.735	-0.113	-18.5065434	49.9046418	-4.9274388	83.9669949	2.44080108	-64.88176392
2.16	216	0.374	-0.685	-0.075	-17.4179232	37.3568616	-6.589017	83.80083708	2.53820394	-64.52080038
2.17	217	0.325	-0.643	-0.045	-16.9595568	24.4080108	-9.0527364	83.63467926	2.64133638	-64.29161718
2.18	218	0.232	-0.616	-0.028	-18.1054728	17.4179232	-12.891555	83.45706228	2.78457588	-64.13691852
2.19	219	0.11	-0.654	-0.013	-17.0168526	15.8709366	-17.18874	83.28517488	2.96792244	-63.9994086
2.2	220	0.008	-0.73	0.012	-11.172681	17.5898106	-21.485925	83.18777202	3.18564648	-63.8561691
2.21	221	-0.031	-0.772	0.033	-7.734933	23.3193906	-24.637194	83.11901706	3.44920716	-63.6556338
2.22	222	-0.061	-0.769	0.033	-7.2192708	25.78311	-24.8663772	83.05599168	3.71849742	-63.4264506
2.23	223	-0.089	-0.718	0.014	-9.2246238	24.4653066	-21.7151082	82.97004798	3.9534102	-63.21445614
2.24	224	-0.079	-0.643	0.022	-11.6883432	22.345362	-16.1001198	82.86118596	4.13102718	-63.01392084
2.25	225	-0.054	-0.585	0.046	-13.0634424	17.0741484	-9.9694692	82.75232394	4.23415962	-62.85922218
2.26	226	-0.037	-0.567	0.089	-13.4072172	8.7662574	-4.7555514	82.6205436	4.29145542	-62.77900806
2.27	227	-0.009	-0.585	0.125	-13.464513	2.7501984	-1.3178034	82.48303368	4.30291458	-62.75608974
2.28	228	0.04	-0.631	0.145	-11.8602306	-3.7815228	-0.9167328	82.3627125	4.30864416	-62.7961968
2.29	229	0.094	-0.677	0.176	-8.880849	-10.3705398	-2.6929026	82.26530964	4.3258329	-62.89932924
2.3	230	0.14	-0.719	0.205	-5.5576926	-17.761698	-5.3858052	82.2481209	4.3831287	-63.07694622
2.31	231	0.175	-0.748	0.224	-3.2085648	-23.8350528	-8.1932994	82.20228426	4.4404245	-63.32331816
2.32	232	0.194	-0.774	0.228	-2.3491278	-27.215505	-10.4851314	82.15644762	4.51490904	-63.60979716
2.33	233	0.194	-0.791	0.221	-3.0366774	-29.3354496	-11.172681	82.1048814	4.59512316	-63.9134649
2.34	234	0.171	-0.796	0.215	-4.5263682	-32.945085	-10.026765	82.03612644	4.65814854	-64.25151012
2.35	235	0.122	-0.79	0.207	-6.2452422	-36.669312	-7.6203414	81.9902898	4.70398518	-64.61820324
2.36	236	0.061	-0.776	0.208	-9.6256944	-39.3049188	-5.0993262	81.86996862	4.70971476	-65.01354426
2.37	237	0.004	-0.755	0.21	-12.8342592	-39.534102	-3.4950438	81.70954038	4.6982556	-65.40888528
2.38	238	-0.043	-0.745	0.192	-16.1001198	-39.0184398	-1.9480572	81.52046424	4.6696077	-65.79849672
2.39	239	-0.064	-0.755	0.163	-19.4232762	-37.24227	-0.5156622	81.29701062	4.62950064	-66.17091942
2.4	240	-0.055	-0.777	0.134	-22.91832	-36.4974246	0.9740286	81.06782742	4.5550161	-66.52615338
2.41	241	-0.03	-0.797	0.11	-26.1841806	-38.5027776	2.6356068	80.77561884	4.47480198	-66.90430566
2.42	242	0	-0.808	0.068	-28.7624916	-40.7373138	4.1825934	80.46049194	4.37739912	-67.29964668
2.43	243	0.039	-0.819	0.008	-31.3980984	-41.7686382	5.72958	80.11671714	4.26280752	-67.70644686
2.44	244	0.07	-0.839	-0.028	-34.0337052	-47.555514	7.9641162	79.74429444	4.10810886	-68.15908368
2.45	245	0.09	-0.853	-0.059	-34.663959	-54.4883058	9.7975818	79.36614216	3.93049188	-68.68047546
2.46	246	0.099	-0.833	-0.08	-33.1169724	-60.2751816	11.0580894	78.99944904	3.724227	-69.25343346
2.47	247	0.099	-0.794	-0.08	-33.5753388	-62.5097178	11.5737516	78.63275592	3.50650296	-69.8435802
2.48	248	0.066	-0.747	-0.063	-34.663959	-62.738901	11.2872726	78.25460364	3.28304934	-70.43945652
2.49	249	0.013	-0.704	-0.04	-34.5493674	-61.1919144	10.4851314	77.88218094	3.07105488	-71.0181441
2.5	250	-0.038	-0.667	-0.005	-33.0023808	-57.2385042	9.0527364	77.53267656	2.86479	-71.55672462
2.51	251	-0.101	-0.636	0.044	-29.1062664	-52.5975444	7.3338624	77.22327924	2.6929026	-72.05519808
2.52	252	-0.159	-0.646	0.082	-26.0122932	-44.117766	5.9587632	76.94252982	2.54393352	-72.47345742
2.53	253	-0.197	-0.656	0.069	-26.0122932	-35.6379876	6.0733548	76.67323956	2.41215318	-72.80577306
2.54	254	-0.206	-0.659	0.014	-25.9549974	-27.1582092	7.7922288	76.39821972	2.28037284	-73.05787458
2.55	255	-0.193	-0.632	-0.064	-26.8144344	-18.5638392	9.9121734	76.12892946	2.10848544	-73.21830282
2.56	256	-0.153	-0.55	-0.122	-28.2468294	-9.6256944	10.1413566	75.83672088	1.98816426	-73.28705778
2.57	257	-0.106	-0.45	-0.154	-29.5646328	-0.6875496	8.0787078	75.53878272	1.90795014	-73.27559862
2.58	258	-0.11	-0.375	-0.152	-31.6845774	9.453807	4.1825934	75.21792624	1.88503182	-73.17819576
2.59	259	-0.179	-0.325	-0.098	-38.5600734	21.4286292	-0.4010706	74.83404438	1.93086846	-72.97766046
2.6	260	-0.182	-0.324	-0.098	-53.1132066	30.1375908	-3.0939732	74.28973428	2.005353	-72.70264062
2.61	261	-0.105	-0.322	-0.226	-65.4318036	23.6058696	0.6302538	73.63083258	2.05118964	-72.479187
2.62	262	0.029	-0.281	-0.282	-67.895523	3.9534102	8.1932994	72.94328298	1.9767051	-72.4218912
2.63	263	0.181	-0.218	-0.174	-67.2079734	-9.6829902	16.1574156	72.26146296	1.78762896	-72.47345742
2.64	264	0.283	-0.142	-0.069	-72.9948492	-8.6516658	22.1161788	71.52234714	1.5469866	-72.49637574
2.65	265	0.234	-0.119	-0.002	-92.6473086	-1.145916	22.7464326	70.5884256	1.33499214	-72.43907994
2.66	266	0.058	-0.185	0.002	-119.6909262	5.9587632	18.5638392	69.37375464	1.16883432	-72.33021792
2.67	267	-0.111	-0.474	-0.119	-143.7551622	12.1467096	13.464513	67.91844132	1.06570188	-72.18124884
2.68	268	-0.187	-0.721	-0.264	-174.2938236	11.3445684	10.4851314	66.1480011	0.99121734	-72.0494685
2.69	269	-0.277	-1.003	-0.284	-181.8568692	8.2505952	14.896908	64.30880592	0.86516658	-71.92341774
2.7	270	-0.351	-1.425	-0.275	-178.5910086	12.605076	26.7571386	62.49825864	0.65317212	-71.7056937
2.71	271	-0.43	-1.826	-0.224	-165.8140452	22.058883	41.5967508	60.8194917	0.36669312	-71.32181184
2.72	272	-0.474	-1.933	-0.251	-144.7291908	31.1116194	48.128472	59.34698964	0.08021412	-70.82333838
2.73	273	-0.585	-1.853	-0.177	-125.7069852	36.1536498	41.8832298	58.0692933	-0.10886202	-70.30767618
2.74	274	-0.675	-1.707	-0.128	-116.596953	31.2835068	31.799169	56.87754066	-0.23491278	-69.87795768
2.75	275	-0.668	-1.56	-0.186	-107.2004418	22.5172494	23.9496444	55.79465004	-0.33804522	-69.56283078
2.76	276	-0.618	-1.449	-0.187	-103.5908064	0.9740286	17.5898106	54.7461369	-0.49274388	-69.45969834
2.77	277	-0.395	-1.354	-0.254	-101.0697912	-29.6219286	16.7876694	53.72627166	-0.80787078	-69.60866742
2.78	278	0.008	-1.416	-0.447	-77.7504006	-60.6189564	24.0069402	52.94704878	-1.35218088	-69.96390138
2.79	279	0.495	-1.449	-0.377	-68.8122558	-88.6938984	38.4454818	52.27668792	-2.1772404	-70.4451861
2.8	280	0.934	-1.282	-0.065	-89.667927	-109.0912032	54.3164184	51.41725092	-3.24294228	-70.98376662
2.81	281	1.03	-0.899	0.139	-112.586247	-121.1233212	64.3431834	50.32863072	-4.48626114	-71.53953588
2.82	282	0.826	-0.446	0.405	-137.1088494	-117.2272068	68.468481	48.99936816	-5.74676874	-72.00936144
2.83	283	0.402	-0.058	0.472	-161.2303812	-97.1736768	70.0154676	47.40654492	-6.90987348	-72.29011086
2.84	284	-0.051	0.093	0.436	-185.9821668	-67.0933818	68.6976642	45.53297226	-7.87244292	-72.31875876
2.85	285	-0.43	0.303	0.324	-193.4879166	-45.550161	64.3431834	43.544808	-8.7089616	-72.19843758
2.86	286	-0.714	0.654	0.161	-172.3457664	-25.8977016	57.9833496	41.76290862	-9.3105675	-71.95206564
2.87	287	-0.926	0.876	-0.059	-158.1937038	-8.2505952	51.9099948	40.10133042	-9.72882684	-71.61975
2.88	288	-0.915	0.924	-0.229	-170.9133714	11.745639	54.3737142	38.28505356	-10.00957626	-71.12127654
2.89	289	-0.784	0.923	-0.344	-176.9867262	46.7533728	67.2652692	36.33699636	-10.07833122	-70.29048744
2.9	290	-0.777	0.683	-0.298	-173.0906118	86.230179	69.3852138	34.35456168	-9.86060718	-69.19613766
2.91	291	-0.794	0.567	-0.394	-159.568803	138.2547654	51.852699	32.5153665	-9.04700682	-67.97000754
2.92	292	-0.621	0.495	-0.988	-118.7168976	238.4651196	21.3713334	31.06578276	-7.20781164	-66.48031674
2.93	293	-0.83	0.105	-1.901	-108.575541	323.7785658	-13.3499214	29.75943852	-4.4404245	-64.8874935
2.94	294	-0.696	-0.499	-2.527	-130.347945	354.374523	-47.8992888	28.31558436	-1.21467096	-63.51812388
2.95	295	-1.263	-1.036	-3.214	-169.6528638	329.6227374	-58.4990118	26.5566033	1.87357266	-62.44096284
2.96	296	0.099	-0.892	-3.965	-242.361234	279.5462082	-39.0184398	24.11007264	4.4690724	-61.52995962
2.97	297	1.241	-0.229	-3.996	-269.2329642	192.9722544	-28.7051958	21.3999813	6.27961968	-60.9913791
2.98	298	1.768	0.08	-3.996	-230.329116	128.342592	-37.9871154	19.06231266	7.55731602	-60.86532834
2.99	299	1.743	-0.038	-3.996	-237.0327246	61.0773228	-47.9565846	16.61005242	8.23913604	-61.1059707
3	300	0.679	-0.623	-3.976	-244.2519954	7.7922288	-55.6342218	14.05465974	8.42821218	-61.61017374
3.01	301	-0.262	-0.447	-3.32	-198.4726512	6.4744254	-75.2293854	11.93471514	8.63447706	-62.32064166
3.02	302	-0.491	-0.005	-2.492	-166.3870032	22.91832	-74.48454	10.1413566	8.97825186	-62.9967321
3.03	303	-0.528	0.468	-1.69	-165.6994536	23.491278	-50.3057124	8.38237554	9.26473086	-63.43790976
3.04	304	0.252	0.401	-1.592	-132.353298	24.1788276	-18.4492476	7.01300592	9.5111028	-63.57541968
3.05	305	0.817	0.014	-1.182	-104.6221308	17.8189938	6.9327918	5.97022236	9.68871978	-63.47228724
3.06	306	0.93	-0.078	-0.893	-92.0170548	13.750992	26.5852512	5.08213746	9.78612264	-63.18007866
3.07	307	0.893	0.289	-0.737	-80.3287116	13.2353298	37.6433406	4.33156248	9.87779592	-62.78473764
3.08	308	0.661	0.572	-0.672	-71.3905668	8.4224826	39.4768062	3.67839036	9.92363256	-62.37220788
3.09	309	0.395	0.773	-0.504	-85.4280378	12.2613012	36.7839036	2.87624916	10.01530584	-61.98259644
3.1	310	0.146	0.74	-0.375	-97.2882684	17.9908812	33.4034514	1.8907614	10.1413566	-61.64455122
3.11	311	0.028	0.6	-0.508	-81.4746276	24.4080108	28.5906042	1.1172681	10.36481022	-61.3351539
3.12	312	-0.024	0.525	-0.652	-65.317212	28.6479	24.8090814	0.49847346	10.63983006	-61.06586364
3.13	313	0.009	0.401	-0.719	-55.9779966	29.7365202	24.1215318	-0.01718874	10.92630906	-60.80803254
3.14	314	0.047	0.292	-0.793	-51.4516284	28.5906042	25.3820394	-0.49274388	11.2013289	-60.53874228
3.15	315	0.098	0.272	-0.851	-42.7999626	25.7258142	26.1268848	-0.91100322	11.43624168	-60.2751816
3.16	316	0.109	0.28	-0.889	-34.0337052	24.4653066	24.350715	-1.20894138	11.67688404	-60.02308008
3.17	317	0.142	0.298	-0.888	-28.5333084	27.4446882	19.7097552	-1.4610429	11.9461743	-59.82254478
3.18	318	0.128	0.318	-0.842	-26.5279554	32.5440144	13.1207382	-1.70741484	12.27276036	-59.68503486
3.19	319	0.136	0.322	-0.801	-27.9030546	37.0130868	7.6203414	-1.9767051	12.6337239	-59.60482074
3.2	320	0.104	0.296	-0.816	-29.9657034	38.4454818	5.3285094	-2.31475032	12.98895786	-59.56471368
3.21	321	0.081	0.233	-0.844	-31.1689152	38.6173692	6.9327918	-2.62414764	13.37283972	-59.49595872
3.22	322	0.046	0.158	-0.911	-27.3300966	40.4508348	10.6570188	-2.88197874	13.77391032	-59.39282628
3.23	323	0.042	0.092	-1.019	-21.5432208	43.6593996	14.1520626	-3.07105488	14.2093584	-59.25531636
3.24	324	0.015	0.07	-1.078	-15.2979786	45.3782736	16.1001198	-3.19710564	14.6677248	-59.10634728
3.25	325	-0.007	0.087	-1.099	-9.167328	45.83664	15.4125702	-3.27159018	15.07452498	-58.96310778
3.26	326	-0.027	0.101	-1.097	-1.2032118	45.4928652	13.4072172	-3.26013102	15.53289138	-58.83705702
3.27	327	-0.019	0.097	-1.068	3.8961144	47.841993	11.3445684	-3.19710564	16.0141761	-58.73965416
3.28	328	0.009	0.068	-1.01	4.4117766	50.8213746	9.7975818	-3.13408026	16.52410872	-58.64798088
3.29	329	0.046	0.029	-0.989	4.6982556	51.852699	7.5057498	-3.07105488	17.03977092	-58.5849555
3.3	330	0.096	-0.02	-1.02	7.2765666	53.3996856	5.72958	-2.99084076	17.5325148	-58.53911886
3.31	331	0.105	-0.036	-1.032	12.2040054	53.285094	5.156622	-2.85906042	18.06536574	-58.4990118
3.32	332	0.111	-0.045	-0.996	20.05353	51.56622	5.6722842	-2.64706596	18.58102794	-58.45317516
3.33	333	0.118	-0.047	-0.954	23.7204612	49.1597964	6.875496	-2.39496444	19.06804224	-58.39587936
3.34	334	0.158	-0.041	-0.936	24.5226024	45.263682	8.3651868	-2.12567418	19.52067906	-58.31566524
3.35	335	0.185	-0.039	-0.928	24.5226024	38.2735944	9.8548776	-1.84492476	19.8816426	-58.2125328
3.36	336	0.221	-0.018	-0.905	22.91832	24.6944898	11.2299768	-1.5756345	20.13374412	-58.0979412
3.37	337	0.246	0.003	-0.894	21.3713334	13.0634424	12.032118	-1.31207382	20.26552446	-57.97189044
3.38	338	0.289	-0.001	-0.966	23.0902074	5.6722842	13.3499214	-1.0313244	20.32854984	-57.83438052
3.39	339	0.34	-0.032	-1.026	27.2728008	-0.6302538	15.756345	-0.69900876	20.32854984	-57.6682227
3.4	340	0.371	-0.058	-1.006	29.5646328	-6.7036086	17.8762896	-0.32085648	20.26552446	-57.47914656
3.41	341	0.397	-0.061	-0.948	28.0176462	-12.0894138	18.9649098	0.02291832	20.15093286	-57.28434084
3.42	342	0.393	-0.044	-0.933	24.5226024	-19.1367972	20.05353	0.34950438	19.96185672	-57.07807596
3.43	343	0.391	-0.036	-0.925	20.3973048	-26.4133638	21.5432208	0.6302538	19.70402562	-56.8660815
3.44	344	0.425	-0.043	-0.955	15.0687954	-34.6066632	23.3193906	0.86516658	19.35452124	-56.6368983
3.45	345	0.465	-0.062	-1.013	12.891555	-45.263682	24.1788276	1.08289062	18.91907316	-56.40198552
3.46	346	0.473	-0.104	-1.081	14.8396122	-50.3057124	24.0069402	1.3178034	18.41487012	-56.17280232
3.47	347	0.524	-0.144	-1.143	13.178034	-51.6235158	23.204799	1.52406828	17.9049375	-55.96080786
3.48	348	0.537	-0.13	-1.115	12.2040054	-59.301153	22.8610242	1.718874	17.31479076	-55.76027256
3.49	349	0.527	-0.121	-0.933	14.037471	-64.457775	23.2620948	1.92513888	16.66734822	-55.55973726
3.5	350	0.442	-0.106	-0.785	12.5477802	-63.1972674	22.631841	2.12567418	16.06001274	-55.36493154
3.51	351	0.291	-0.062	-0.77	8.4797784	-49.6754586	18.3919518	2.2631841	15.56153928	-55.21023288
3.52	352	0.2	-0.061	-0.934	6.9327918	-24.6944898	10.7716104	2.36058696	15.31516734	-55.11283002
3.53	353	0.113	-0.075	-1.029	7.8495246	-10.3705398	1.8907614	2.44653066	15.2120349	-55.10137086
3.54	354	0.032	-0.092	-0.974	12.318597	-5.5003968	-5.2712136	2.55539268	15.16046868	-55.16439624
3.55	355	0.061	-0.113	-0.957	16.042824	-3.724227	-10.599723	2.6929026	15.05733624	-55.27898784
3.56	356	0.173	-0.099	-0.973	17.5898106	3.7815228	-13.2926256	2.8361421	15.10317288	-55.41076818
3.57	357	0.282	-0.06	-0.944	14.7823164	3.2658606	-13.5791046	2.9507337	15.14900952	-55.5482781
3.58	358	0.395	-0.017	-0.935	12.032118	-4.3544808	-12.032118	3.04240698	15.10890246	-55.68005844
3.59	359	0.439	0.033	-0.922	11.4018642	-10.4851314	-11.2872726	3.12835068	15.01722918	-55.8061092
3.6	360	0.444	0.035	-0.915	9.7975818	-6.302538	-13.4072172	3.16272816	15.03441792	-55.95507828
3.61	361	0.43	0.011	-1.028	6.7036086	1.6042824	-16.2720072	3.18564648	15.05733624	-56.1212361
3.62	362	0.319	-0.023	-1.073	6.9327918	0.4010706	-15.469866	3.21429438	15.07452498	-56.28166434
3.63	363	0.125	-0.058	-0.937	8.8235532	-8.4797784	-9.6256944	3.27731976	14.99431086	-56.38479678
3.64	364	0.002	-0.075	-0.8	4.583664	-11.8602306	-4.297185	3.31169724	14.87971926	-56.44209258
3.65	365	-0.012	-0.096	-0.909	-6.5317212	-14.5531332	-0.9740286	3.23148312	14.60469942	-56.47074048
3.66	366	-0.018	-0.118	-0.985	-12.8342592	-21.4286292	2.1772404	3.10543236	14.39270496	-56.4650109
3.67	367	0.026	-0.146	-0.965	-15.3552744	-24.5226024	4.297185	2.96219286	14.14633302	-56.44209258
3.68	368	0.078	-0.179	-0.976	-17.475219	-28.1322378	5.2139178	2.79603504	13.85985402	-56.4077151
3.69	369	0.066	-0.22	-0.967	-17.7044022	-32.945085	4.9274388	2.62414764	13.53326796	-56.38479678
3.7	370	0.107	-0.3	-0.94	-15.8136408	-31.1689152	4.8128472	2.53247436	13.19522274	-56.34468972
3.71	371	0.117	-0.368	-0.965	-14.9542038	-23.0329116	5.2139178	2.38923486	12.96603954	-56.30458266
3.72	372	0.107	-0.4	-0.987	-11.8602306	-13.3499214	6.7036086	2.28610242	12.82852962	-56.24155728
3.73	373	0.04	-0.42	-0.991	-9.7975818	-6.4171296	7.9068204	2.2058883	12.75977466	-56.16707274
3.74	374	-0.052	-0.403	-1.005	-9.6829902	0.1718874	7.734933	2.12567418	12.75977466	-56.08685862
3.75	375	-0.109	-0.357	-1.014	-11.745639	6.2452422	4.870143	2.07983754	12.6910197	-56.02383324
3.76	376	-0.116	-0.284	-1.023	-12.2613012	11.3445684	-0.3437748	1.95951636	12.79988172	-56.01810366
3.77	377	-0.126	-0.207	-1.006	-11.2872726	11.0580894	-3.8388186	1.8334656	12.91447332	-56.04675156
3.78	378	-0.132	-0.138	-0.996	-9.8548776	6.016059	-4.4117766	1.72460358	12.97176912	-56.0925882
3.79	379	-0.129	-0.078	-0.957	-9.8548776	0.2291832	-3.2658606	1.61574156	12.97176912	-56.1212361
3.8	380	-0.107	-0.048	-0.947	-10.2559482	-3.9534102	-1.6042824	1.47250206	12.6910197	-56.16134316
3.81	381	-0.08	-0.036	-0.958	-10.3705398	-6.6463128	-0.572958	1.36364004	12.62226474	-56.16707274
3.82	382	-0.058	-0.026	-0.977	-10.313244	-8.0787078	-0.6302538	1.25477802	12.54205062	-56.1785319
3.83	383	-0.041	-0.017	-0.984	-9.5683986	-8.880849	-1.432395	1.15737516	12.45610692	-56.19572064
3.84	384	-0.026	-0.005	-0.992	-9.3392154	-8.5370742	-2.4064236	1.0599723	12.37016322	-56.22436854
3.85	385	-0.012	0.014	-1.01	-9.3392154	-4.870143	-3.2658606	0.89381448	12.13525044	-56.28166434
3.86	386	0.01	0.028	-1.032	-9.0527364	0.859437	-4.0680018	0.79068204	12.1467096	-56.3217714
3.87	387	0.045	0.035	-1.042	-9.3392154	6.5317212	-4.6409598	0.6875496	12.20973498	-56.36760804
3.88	388	0.08	0.04	-1.039	-10.5424272	9.0527364	-4.583664	0.56722842	12.30140826	-56.4077151
3.89	389	0.114	0.053	-1.045	-10.0840608	7.5057498	-3.8388186	0.4583664	12.3758928	-56.44782216
3.9	390	0.139	0.059	-1.029	-8.6516658	4.5263682	-2.9793816	0.29220858	12.3472449	-56.4936588
3.91	391	0.171	0.061	-1.009	-7.8495246	2.3491278	-2.7501984	0.20626488	12.37016322	-56.5223067
3.92	392	0.197	0.057	-1.008	-7.448454	2.2345362	-3.2085648	0.12032118	12.38735196	-56.5509546
3.93	393	0.212	0.048	-1.009	-6.4744254	3.5523396	-3.8961144	0.04583664	12.42172944	-56.59106166
3.94	394	0.217	0.03	-0.995	-5.5003968	5.9014674	-5.156622	-0.01718874	12.48475482	-56.64262788
3.95	395	0.217	0.012	-0.981	-4.1825934	7.7922288	-6.8182002	-0.09167328	12.5477802	-56.71138284
3.96	396	0.212	0	-0.962	-2.86479	8.2505952	-7.7922288	-0.13750992	12.62799432	-56.79159696
3.97	397	0.218	0.011	-0.946	-2.2345362	7.7922288	-7.6203414	-0.17761698	12.70820844	-56.8660815
3.98	398	0.232	0.036	-0.94	-1.3178034	6.8182002	-6.589017	-0.20626488	12.7769634	-56.92910688
3.99	399	0.249	0.057	-0.945	0.1145916	5.5576926	-5.2139178	-0.21772404	12.82852962	-56.9806731
4	400	0.262	0.068	-0.942	0.9740286	4.5263682	-3.437748	-0.33231564	12.91447332	-57.04369848
4.01	401	0.264	0.069	-0.939	1.2605076	3.151269	-1.7761698	-0.32658606	12.9488508	-57.06088722
4.02	402	0.257	0.05	-0.931	1.7761698	0.859437	-0.572958	-0.30939732	12.95458038	-57.0666168
4.03	403	0.248	0.023	-0.939	2.1199446	-0.8021412	-0.1718874	-0.286479	12.9488508	-57.0666168
4.04	404	0.238	-0.007	-0.968	3.3231564	-1.0886202	0	-0.25210152	12.93739164	-57.0666168
4.05	405	0.227	-0.028	-0.997	4.870143	-1.0886202	0.1718874	-0.17761698	12.90301416	-57.06088722
4.06	406	0.214	-0.048	-1.011	5.3858052	-1.7761698	0.2291832	-0.12605076	12.88582542	-57.06088722
4.07	407	0.204	-0.062	-1.012	5.156622	-3.151269	0.4010706	-0.06875496	12.85717752	-57.06088722
4.08	408	0.192	-0.067	-1.001	5.3285094	-4.5263682	0.859437	-0.01718874	12.81134088	-57.04942806
4.09	409	0.172	-0.074	-0.975	5.6149884	-5.9014674	1.2605076	0.04010706	12.75404508	-57.0379689
4.1	410	0.148	-0.083	-0.954	5.9014674	-7.6776372	1.8907614	0.13750992	12.61653516	-57.01505058
4.11	411	0.121	-0.093	-0.942	6.016059	-8.2505952	2.0626488	0.20626488	12.53632104	-56.99786184
4.12	412	0.094	-0.106	-0.945	5.5003968	-7.3911582	1.8907614	0.26929026	12.46756608	-56.9806731
4.13	413	0.071	-0.12	-0.953	5.6149884	-5.8441716	1.3178034	0.32658606	12.41027028	-56.96921394
4.14	414	0.052	-0.126	-0.962	6.1879464	-4.010706	0.572958	0.38961144	12.37016322	-56.96921394
4.15	415	0.038	-0.131	-0.967	6.6463128	-2.8074942	0.0572958	0.5443101	12.12379128	-56.95775478
4.16	416	0.032	-0.128	-0.973	6.3598338	-2.4637194	-0.6302538	0.60733548	12.10087296	-56.96348436
4.17	417	0.031	-0.125	-0.979	5.0420304	-2.3491278	-1.0313244	0.6589017	12.07795464	-56.97494352
4.18	418	0.034	-0.109	-0.99	3.3804522	-2.6356068	-1.2032118	0.6875496	12.04930674	-56.99213226
4.19	419	0.038	-0.09	-0.999	2.4637194	-3.5523396	-1.0313244	0.71046792	12.01492926	-57.00359142
4.2	420	0.034	-0.074	-1.004	2.291832	-4.4117766	-0.859437	0.75057498	11.69980236	-57.02078016
4.21	421	0.027	-0.064	-1.004	2.1772404	-4.583664	-0.7448454	0.76776372	11.65396572	-57.03223932
4.22	422	0.025	-0.057	-1.005	1.718874	-4.1825934	-0.7448454	0.78495246	11.61385866	-57.04369848
4.23	423	0.029	-0.053	-1.005	1.0313244	-3.6096354	-0.8021412	0.79641162	11.57948118	-57.04942806
4.24	424	0.035	-0.047	-1.005	0.2291832	-3.2658606	-0.7448454	0.79641162	11.5451037	-57.06088722
4.25	425	0.043	-0.04	-1.003	0	-3.151269	-0.5156622	0.7448454	11.0007936	-57.0952647
4.26	426	0.054	-0.032	-0.99	0	-2.8074942	0	0.7448454	10.9721457	-57.10099428
4.27	427	0.067	-0.024	-0.986	0.2291832	-1.3750992	0.4010706	0.75057498	10.95495696	-57.0952647
4.28	428	0.078	-0.017	-0.984	0.859437	-0.2291832	0.8021412	0.76203414	10.95495696	-57.08953512
4.29	429	0.084	-0.014	-0.979	1.0886202	0.6302538	0.9740286	0.7734933	10.96068654	-57.07807596
4.3	430	0.088	-0.017	-0.974	1.0886202	1.5469866	1.145916	0.72192708	10.69712586	-57.08953512
4.31	431	0.092	-0.023	-0.965	1.0886202	2.3491278	1.0886202	0.73338624	10.72004418	-57.07807596
4.32	432	0.099	-0.032	-0.961	0.9167328	2.8074942	0.9167328	0.7448454	10.74869208	-57.0666168
4.33	433	0.112	-0.042	-0.962	0.9740286	3.151269	0.7448454	0.75630456	10.78306956	-57.05515764
4.34	434	0.129	-0.045	-0.969	1.2605076	3.7815228	0.572958	0.7734933	10.81744704	-57.04942806
4.35	435	0.144	-0.041	-0.98	1.4896908	4.6982556	0.572958	0.78495246	10.79452872	-57.04369848
4.36	436	0.157	-0.041	-0.977	1.2032118	5.2712136	0.6302538	0.8021412	10.84609494	-57.03223932
4.37	437	0.163	-0.046	-0.971	0	5.0420304	0.5156622	0.8021412	10.89766116	-57.02650974
4.38	438	0.167	-0.05	-0.975	-0.572958	4.9847346	0.4010706	0.79641162	10.9434978	-57.02078016
4.39	439	0.167	-0.055	-0.976	-0.0572958	4.4117766	0.4583664	0.79641162	10.98933444	-57.01505058
4.4	440	0.166	-0.057	-0.976	0.2291832	3.9534102	0.5156622	0.84224826	10.95495696	-57.00359142
4.41	441	0.166	-0.055	-0.984	0.2291832	3.5523396	0.4583664	0.84224826	10.98933444	-56.99213226
4.42	442	0.164	-0.056	-0.989	0.4583664	2.9220858	0.286479	0.84797784	11.01798234	-56.99213226
4.43	443	0.159	-0.063	-0.986	0.6875496	1.9480572	0.1145916	0.85370742	11.03517108	-56.98640268
4.44	444	0.154	-0.069	-0.985	0.7448454	1.0313244	0	0.86516658	11.04663024	-56.98640268
4.45	445	0.15	-0.073	-0.982	0.859437	0.286479	0	1.1745639	10.5424272	-56.94629562
4.46	446	0.147	-0.073	-0.983	0.4583664	-0.1145916	0	1.18029348	10.53669762	-56.94629562
4.47	447	0.144	-0.069	-0.984	0.286479	-0.859437	0	1.18029348	10.53096804	-56.94629562
4.48	448	0.14	-0.065	-0.984	0.4583664	-1.5469866	0	1.18602306	10.5137793	-56.94629562
4.49	449	0.135	-0.064	-0.982	0.6875496	-1.9480572	0	1.19175264	10.49659056	-56.94629562
4.5	450	0.126	-0.063	-0.981	0.859437	-2.2345362	-0.0572958	1.24331886	10.2845961	-56.94629562
4.51	451	0.118	-0.064	-0.98	0.859437	-2.291832	-0.1718874	1.24904844	10.26167778	-56.9520252
4.52	452	0.111	-0.063	-0.98	0.7448454	-2.005353	-0.4010706	1.25477802	10.23875946	-56.95775478
4.53	453	0.107	-0.063	-0.98	0.3437748	-1.4896908	-0.572958	1.2605076	10.2273003	-56.96348436
4.54	454	0.105	-0.06	-0.982	0.1145916	-0.9740286	-0.6302538	1.2605076	10.21584114	-56.96921394
4.55	455	0.102	-0.054	-0.98	0.0572958	-0.3437748	-0.6302538	1.28342592	9.39078162	-57.00359142
4.56	456	0.101	-0.049	-0.983	0.1718874	0.4583664	-0.6302538	1.2891555	9.3965112	-57.009321
4.57	457	0.101	-0.045	-0.985	0.4583664	0.859437	-0.6302538	1.2891555	9.40224078	-57.01505058
4.58	458	0.101	-0.047	-0.984	0.4010706	0.9167328	-0.572958	1.29488508	9.41369994	-57.02078016
4.59	459	0.101	-0.05	-0.984	0	0.4583664	-0.3437748	1.29488508	9.41942952	-57.02650974
4.6	460	0.098	-0.05	-0.981	-0.0572958	0	-0.1145916	1.32353298	8.21048814	-57.06088722
4.61	461	0.099	-0.049	-0.979	0.286479	-0.1718874	0	1.32926256	8.21048814	-57.06088722
4.62	462	0.1	-0.047	-0.98	0.6875496	-0.1145916	0.0572958	1.33499214	8.21048814	-57.06088722
4.63	463	0.101	-0.048	-0.983	0.8021412	0	0.1718874	1.34072172	8.21048814	-57.06088722
4.64	464	0.102	-0.05	-0.983	0.7448454	0	0.1718874	1.35218088	8.21048814	-57.05515764
4.65	465	0.103	-0.054	-0.982	0.6302538	0.1718874	0.1718874	1.4037471	7.92973872	-57.05515764
4.66	466	0.106	-0.058	-0.982	0.7448454	0.3437748	0.3437748	1.40947668	7.9354683	-57.05515764
4.67	467	0.108	-0.062	-0.983	0.859437	0.572958	0.286479	1.42093584	7.94119788	-57.04942806
4.68	468	0.111	-0.062	-0.988	0.7448454	0.9167328	0.1145916	1.42666542	7.95265704	-57.04942806
4.69	469	0.114	-0.061	-0.99	0.8021412	1.145916	0.0572958	1.43812458	7.9641162	-57.04942806
4.7	470	0.118	-0.062	-0.989	0.4583664	1.4896908	-0.0572958	1.49542038	7.8781725	-57.04369848
4.71	471	0.121	-0.063	-0.988	0	1.5469866	-0.1145916	1.49542038	7.89536124	-57.04369848
4.72	472	0.121	-0.064	-0.983	-0.5156622	1.2032118	0	1.4896908	7.9068204	-57.04369848
4.73	473	0.122	-0.063	-0.977	-0.8021412	1.0313244	0	1.47823164	7.91827956	-57.04369848
4.74	474	0.126	-0.061	-0.975	-0.8021412	0.9740286	0.1145916	1.47250206	7.92973872	-57.0379689
4.75	475	0.13	-0.055	-0.977	-0.572958	0.9167328	0.2291832	1.48396122	7.90109082	-57.03223932
4.76	476	0.132	-0.054	-0.98	-0.286479	1.2032118	0.4583664	1.48396122	7.91254998	-57.02650974
4.77	477	0.131	-0.053	-0.986	0	1.145916	0.4583664	1.48396122	7.92400914	-57.02650974
4.78	478	0.127	-0.053	-0.986	0.286479	1.0313244	0.3437748	1.4896908	7.9354683	-57.02078016
4.79	479	0.125	-0.057	-0.984	0.1718874	1.0886202	0.1718874	1.4896908	7.94692746	-57.01505058
4.8	480	0.125	-0.061	-0.984	-0.1145916	1.0886202	0	1.55271618	7.86671334	-57.009321
4.81	481	0.127	-0.064	-0.985	-0.4010706	0.7448454	-0.1145916	1.5469866	7.8781725	-57.009321
4.82	482	0.129	-0.065	-0.979	-0.9740286	0.572958	0	1.54125702	7.88390208	-57.009321
4.83	483	0.127	-0.062	-0.977	-2.3491278	0.9740286	-0.0572958	1.51260912	7.89536124	-57.009321
4.84	484	0.122	-0.059	-0.972	-2.578311	1.2605076	0	1.4896908	7.9068204	-57.009321
4.85	485	0.118	-0.06	-0.96	-3.3804522	1.2605076	-0.0572958	1.46677248	7.88963166	-57.009321
4.86	486	0.114	-0.06	-0.95	-4.6982556	0.6875496	-0.286479	1.42093584	7.89536124	-57.01505058
4.87	487	0.115	-0.07	-0.932	-6.7609044	-0.6875496	-0.859437	1.35218088	7.88963166	-57.02078016
4.88	488	0.116	-0.071	-0.903	-9.740286	-2.7501984	-0.8021412	1.24904844	7.86098376	-57.03223932
4.89	489	0.116	-0.06	-0.873	-11.4018642	-7.0473834	0.1718874	1.13445684	7.78649922	-57.03223932
4.9	490	0.129	-0.061	-0.844	-10.1413566	-12.4904844	1.0313244	1.04278356	7.66617804	-57.02078016
4.91	491	0.139	-0.083	-0.908	-10.0840608	-14.7250206	1.2032118	0.93965112	7.51720896	-57.01505058
4.92	492	0.14	-0.095	-1.017	-9.6829902	-10.7716104	-0.2291832	0.84224826	7.41407652	-57.02650974
4.93	493	0.155	-0.1	-1.036	-8.4797784	-5.3285094	-1.0313244	0.75630456	7.35678072	-57.0379689
4.94	494	0.171	-0.096	-0.977	-9.6256944	-2.6356068	-0.8021412	0.6589017	7.32813282	-57.04369848
4.95	495	0.151	-0.079	-0.91	-15.183387	-3.437748	-0.0572958	0.5156622	7.29948492	-57.04369848
4.96	496	0.139	-0.046	-0.954	-18.2200644	-2.4637194	1.6042824	0.33231564	7.2765666	-57.02650974
4.97	497	0.123	-0.018	-1.02	-16.1574156	-3.4950438	2.9793816	0.1718874	7.23645954	-56.99786184
4.98	498	0.111	0.022	-1.042	-12.891555	-7.3911582	2.1772404	0.04583664	7.161975	-56.97494352
4.99	499	0.114	0.035	-1.019	-7.5630456	-8.1932994	0.572958	-0.02291832	7.08176088	-56.96921394
5	500	0.122	0.036	-0.994	-4.6982556	-8.59437	-0.9740286	-0.09740286	6.9900876	-56.98640268
5.01	501	0.111	0.018	-0.945	0.4583664	-8.59437	-2.86479	-0.09740286	6.9041439	-57.01505058
5.02	502	0.101	-0.009	-0.934	6.6463128	-5.8441716	-4.297185	-0.03437748	6.8468481	-57.06088722
5.03	503	0.105	-0.018	-0.96	10.5424272	-3.2085648	-4.3544808	0.06302538	6.8182002	-57.10672386
5.04	504	0.1	-0.002	-0.983	11.2299768	-2.9793816	-2.291832	0.17761698	6.7895523	-57.13537176
5.05	505	0.101	0.031	-1.009	9.3965112	-3.724227	0.9167328	0.24064236	6.73798608	-57.12964218
5.06	506	0.099	0.071	-1.028	8.880849	-4.583664	3.4950438	0.33804522	6.69214944	-57.0952647
5.07	507	0.071	0.101	-1.004	10.9434978	-5.443101	4.2398892	0.45263682	6.64058322	-57.05515764
5.08	508	0.062	0.108	-1.031	13.750992	-3.724227	3.5523396	0.59587632	6.60620574	-57.02650974
5.09	509	0.076	0.105	-1.059	16.6730778	-1.8907614	2.86479	0.76776372	6.589017	-56.99786184
5.1	510	0.11	0.094	-1.059	19.0222056	-1.3750992	3.3231564	0.93392154	6.57182826	-56.96921394
5.11	511	0.123	0.084	-1.007	18.907614	-2.9220858	4.3544808	1.13445684	6.54318036	-56.92910688
5.12	512	0.141	0.075	-0.966	18.621135	-7.0473834	6.1306506	1.32926256	6.4744254	-56.87181108
5.13	513	0.151	0.057	-0.98	19.480572	-10.313244	8.1932994	1.53552744	6.37129296	-56.79732654
5.14	514	0.168	0.005	-0.999	19.480572	-12.4331886	9.5683986	1.7475219	6.2452422	-56.71138284
5.15	515	0.143	-0.041	-1.028	18.6784308	-11.745639	10.599723	1.9480572	6.1306506	-56.61397998
5.16	516	0.13	-0.072	-1.033	23.0329116	-10.3705398	10.5424272	2.19442914	6.02751816	-56.51657712
5.17	517	0.114	-0.091	-0.984	26.9863218	-8.3651868	9.9694692	2.48090814	5.94730404	-56.42490384
5.18	518	0.1	-0.099	-0.951	27.4446882	-3.8388186	9.3392154	2.76738714	5.90719698	-56.33323056
5.19	519	0.106	-0.085	-0.954	25.5539268	1.6615782	8.7089616	3.0366774	5.91865614	-56.24728686
5.2	520	0.074	-0.082	-0.979	26.1268848	2.3491278	8.307891	3.31169724	5.9301153	-56.16707274
5.21	521	0.06	-0.1	-0.976	27.215505	3.151269	8.021412	3.59817624	5.9587632	-56.08685862
5.22	522	0.074	-0.121	-1.025	28.934379	6.0733548	7.3338624	3.8961144	6.02178858	-56.0066445
5.23	523	0.047	-0.117	-1.032	31.6845774	7.5630456	6.4744254	4.22270046	6.09627312	-55.93788954
5.24	524	0.068	-0.091	-1.024	32.4867186	6.3598338	6.3598338	4.56074568	6.15356892	-55.86913458
5.25	525	0.082	-0.067	-1.013	32.8877892	4.4117766	6.9327918	4.89306132	6.19367598	-55.80037962
5.26	526	0.151	-0.066	-1.016	33.4607472	1.6042824	8.1932994	5.2425657	6.20513514	-55.7201655
5.27	527	0.183	-0.087	-1.043	35.1223254	-1.0886202	9.5683986	5.60925882	6.1879464	-55.62849222
5.28	528	0.163	-0.12	-1.056	35.4088044	-4.5263682	11.4018642	5.98168152	6.13638018	-55.5196302
5.29	529	0.125	-0.131	-1.01	33.231564	-8.7662574	13.464513	6.33691548	6.03897732	-55.39930902
5.3	530	0.095	-0.122	-1.033	33.4607472	-11.6883432	14.4958374	6.68641986	5.91292656	-55.27898784
5.31	531	0.077	-0.143	-1.02	36.1536498	-9.453807	14.4958374	7.07030172	5.80406454	-55.1472075
5.32	532	0.059	-0.164	-1.021	36.382833	-8.9954406	13.5791046	7.448454	5.70666168	-55.0326159
5.33	533	0.045	-0.193	-1.054	37.7006364	-8.59437	11.9175264	7.84379502	5.60925882	-54.92948346
5.34	534	0.029	-0.237	-1.08	38.7892566	-7.2765666	10.3705398	8.2505952	5.5290447	-54.84353976
5.35	535	0.007	-0.282	-1.059	38.3308902	-6.4744254	8.4797784	8.65739538	5.443101	-54.76905522
5.36	536	0	-0.31	-0.989	36.8411994	-5.9587632	6.4171296	9.04127724	5.38007562	-54.717489
5.37	537	0.007	-0.319	-0.919	33.3461556	-4.4117766	4.3544808	9.37932246	5.33423898	-54.6888411
5.38	538	0.017	-0.311	-0.87	29.3927454	-3.0366774	2.9793816	9.6829902	5.2998615	-54.66592278
5.39	539	0.042	-0.289	-0.873	26.5279554	-2.3491278	2.6929026	9.95228046	5.27694318	-54.64300446
5.4	540	0.053	-0.266	-0.887	26.2414764	-2.5210152	2.6356068	10.23875946	5.2425657	-54.62581572
5.41	541	0.047	-0.247	-0.903	26.4133638	-2.8074942	2.0626488	10.50804972	5.21964738	-54.60862698
5.42	542	0.039	-0.243	-0.903	26.356068	-3.4950438	1.2605076	10.77733998	5.1852699	-54.60862698
5.43	543	0.041	-0.238	-0.901	25.496631	-4.3544808	0.9167328	11.03517108	5.14516284	-54.60862698
5.44	544	0.044	-0.23	-0.909	22.4599536	-4.8128472	0.9740286	11.26435428	5.0993262	-54.60862698
5.45	545	0.045	-0.238	-0.895	18.8503182	-5.0420304	1.0313244	11.46488958	5.03630082	-54.61435656
5.46	546	0.047	-0.262	-0.939	16.5011904	-5.5003968	1.0313244	11.63677698	4.9847346	-54.61435656
5.47	547	0.042	-0.278	-0.926	13.9801752	-6.7036086	0.7448454	11.78001648	4.91597964	-54.62581572
5.48	548	0.039	-0.277	-0.933	11.5737516	-5.9587632	0	11.89460808	4.86441342	-54.63727488
5.49	549	0.039	-0.27	-0.934	11.0580894	-5.0420304	-1.2605076	12.0034701	4.81857678	-54.6601932
5.5	550	0.034	-0.264	-0.925	9.9121734	-5.2139178	-2.4637194	12.1180617	4.74982182	-54.70030026
5.51	551	0.034	-0.257	-0.932	8.7662574	-5.72958	-3.4950438	12.2040054	4.70398518	-54.7461369
5.52	552	0.047	-0.254	-0.92	7.448454	-5.443101	-4.297185	12.27848994	4.66387812	-54.8034327
5.53	553	0.061	-0.26	-0.913	5.6722842	-4.870143	-4.7555514	12.33005616	4.62950064	-54.8607285
5.54	554	0.067	-0.266	-0.91	3.6096354	-3.6669312	-4.9274388	12.36443364	4.60085274	-54.9180243
5.55	555	0.072	-0.27	-0.931	1.5469866	-1.8907614	-4.7555514	12.41599986	4.583664	-54.96959052
5.56	556	0.074	-0.273	-0.932	-0.4583664	-0.6302538	-4.4690724	12.41027028	4.58939358	-55.00969758
5.57	557	0.072	-0.272	-0.938	-2.4064236	-0.6875496	-4.297185	12.38162238	4.58939358	-55.05553422
5.58	558	0.069	-0.277	-0.937	-5.2139178	-2.2345362	-4.2398892	12.32432658	4.57793442	-55.10137086
5.59	559	0.068	-0.283	-0.923	-8.880849	-1.6615782	-4.1252976	12.22692372	4.56647526	-55.1472075
5.6	560	0.077	-0.283	-0.923	-11.45916	-1.3178034	-4.3544808	12.13525044	4.56074568	-55.18731456
5.61	561	0.079	-0.281	-0.897	-14.037471	-2.1199446	-4.5263682	11.98628136	4.54928652	-55.23888078
5.62	562	0.084	-0.272	-0.927	-14.610429	-1.7761698	-4.3544808	11.83731228	4.53782736	-55.28471742
5.63	563	0.078	-0.274	-0.922	-15.469866	-1.6615782	-3.8961144	11.67688404	4.5263682	-55.32482448
5.64	564	0.067	-0.261	-0.899	-17.0741484	-1.8334656	-3.5523396	11.49926706	4.51490904	-55.36493154
5.65	565	0.052	-0.257	-0.899	-18.1054728	-1.6042824	-3.2658606	11.32737966	4.4977203	-55.39357944
5.66	566	0.043	-0.253	-0.92	-18.7930224	-1.6615782	-3.2658606	11.13257394	4.48626114	-55.42795692
5.67	567	0.043	-0.256	-0.945	-18.8503182	-0.8021412	-3.437748	10.93776822	4.48053156	-55.46806398
5.68	568	0.052	-0.254	-0.962	-19.4232762	0.2291832	-3.7815228	10.73723292	4.48626114	-55.50244146
5.69	569	0.058	-0.245	-0.966	-20.5691922	0.8021412	-3.9534102	10.52523846	4.4977203	-55.53681894
5.7	570	0.049	-0.237	-0.959	-21.1421502	1.3178034	-3.8388186	10.31897358	4.50917946	-55.57119642
5.71	571	0.043	-0.231	-0.989	-22.4599536	1.6615782	-4.1825934	10.08979038	4.5263682	-55.6055739
5.72	572	0.051	-0.223	-1.026	-22.4599536	1.6615782	-4.6409598	9.8548776	4.54928652	-55.64568096
5.73	573	0.063	-0.213	-1.004	-22.058883	0.859437	-4.6409598	9.63142398	4.56074568	-55.6915176
5.74	574	0.08	-0.203	-1.014	-21.1421502	0.572958	-4.3544808	9.41369994	4.57220484	-55.73162466
5.75	575	0.102	-0.192	-1.028	-20.1681216	0.0572958	-3.2085648	9.20170548	4.57793442	-55.76027256
5.76	576	0.112	-0.186	-1.055	-18.5638392	-0.8021412	-1.7761698	9.01262934	4.57220484	-55.7774613
5.77	577	0.101	-0.171	-1.058	-17.6471064	-2.86479	-0.6875496	8.83501236	4.54355694	-55.78892046
5.78	578	0.089	-0.156	-1.085	-15.3552744	-3.8388186	0	8.67458412	4.50344988	-55.79465004
5.79	579	0.075	-0.164	-1.041	-12.6623718	-3.151269	0.4010706	8.54853336	4.4690724	-55.80037962
5.8	580	0.063	-0.167	-0.977	-14.896908	-0.8021412	0.4010706	8.39956428	4.45188366	-55.79465004
5.81	581	0.055	-0.163	-0.978	-15.183387	0.0572958	0	8.24486562	4.44615408	-55.79465004
5.82	582	0.058	-0.163	-1.005	-14.0947668	0.572958	-0.4583664	8.10162612	4.45188366	-55.79465004
5.83	583	0.057	-0.149	-0.982	-12.9488508	0.4583664	-0.9167328	7.9641162	4.45761324	-55.8061092
5.84	584	0.066	-0.12	-1.002	-10.1986524	1.0313244	-1.145916	7.86098376	4.4690724	-55.81183878
5.85	585	0.073	-0.102	-1.008	-6.8182002	1.6042824	-0.9167328	7.74066258	4.4690724	-55.82329794
5.86	586	0.071	-0.107	-0.998	-5.5003968	0.859437	-0.5156622	7.68336678	4.48053156	-55.82902752
5.87	587	0.068	-0.121	-1.009	-4.9274388	-1.5469866	-0.1145916	7.63180056	4.46334282	-55.82902752
5.88	588	0.065	-0.148	-0.986	-4.5263682	-2.4064236	0.2291832	7.58596392	4.4404245	-55.82902752
5.89	589	0.055	-0.175	-0.89	-8.021412	-0.7448454	0.7448454	7.5057498	4.42896534	-55.82329794
5.9	590	0.05	-0.176	-0.912	-11.172681	2.5210152	0.7448454	7.40834694	4.43469492	-55.81183878
5.91	591	0.044	-0.171	-0.981	-10.2559482	4.1252976	0.5156622	7.3052145	4.47480198	-55.80037962
5.92	592	0.035	-0.158	-0.992	-8.1932994	3.6669312	0	7.2192708	4.50917946	-55.79465004
5.93	593	0.035	-0.136	-1.002	-6.4744254	3.151269	-0.8021412	7.15051584	4.54355694	-55.79465004
5.94	594	0.04	-0.097	-1.032	-3.5523396	2.3491278	-1.3178034	7.11613836	4.56647526	-55.8061092
5.95	595	0.046	-0.091	-1.055	0.7448454	0.9740286	-1.3178034	7.05311298	4.52063862	-55.82329794
5.96	596	0.049	-0.13	-0.968	0.5156622	0	-1.2032118	7.05884256	4.5263682	-55.84048668
5.97	597	0.054	-0.167	-0.857	-6.9900876	-0.572958	-0.9740286	6.98435802	4.52063862	-55.84621626
5.98	598	0.074	-0.178	-0.949	-10.4851314	1.145916	-1.0886202	6.875496	4.53209778	-55.85767542
5.99	599	0.077	-0.191	-0.978	-7.7922288	1.7761698	-0.9740286	6.79528188	4.54928652	-55.863405
6	600	0.068	-0.177	-0.948	-5.5576926	2.1199446	-0.7448454	6.76663398	4.5550161	-55.86913458
6.01	601	0.07	-0.134	-0.983	-4.583664	2.578311	-0.572958	6.71506776	4.57793442	-55.86913458
6.02	602	0.077	-0.091	-1.021	-3.2658606	2.6356068	-0.4583664	6.68641986	4.60658232	-55.86913458
6.03	603	0.078	-0.094	-1.009	-2.0626488	1.718874	-0.6302538	6.66350154	4.62377106	-55.87486416
