TimeStamp(s)	FrameCounter	AccX	AccY	AccZ	GyrX	GyrY	GyrZ	EulerX	EulerY	EulerZ
0.01	1	0.049	-0.986	0.197	-1.3178034	6.1306506	-4.0680018	94.41774882	2.70436176	20.68951338
0.02	2	0.017	-0.978	0.261	1.2605076	1.0313244	-0.1718874	94.43493756	2.70436176	20.70097254
0.03	3	0.021	-0.979	0.261	1.3750992	0.7448454	-0.1145916	94.44639672	2.70436176	20.70670212
0.04	4	0.022	-0.979	0.261	1.432395	0.4583664	-0.0572958	94.46358546	2.70436176	20.7124317
0.05	5	0.023	-0.98	0.265	1.5469866	0.4010706	0	94.96205892	2.64706596	20.5691922
0.06	6	0.022	-0.98	0.269	1.145916	0.7448454	-0.0572958	94.97351808	2.64706596	20.57492178
0.07	7	0.02	-0.977	0.269	0.9740286	1.0886202	-0.0572958	94.98497724	2.64706596	20.58638094
0.08	8	0.02	-0.975	0.265	0.859437	1.2605076	-0.1145916	94.9964364	2.64706596	20.5978401
0.09	9	0.021	-0.975	0.262	1.0886202	1.0886202	-0.0572958	95.00789556	2.64706596	20.60929926
0.1	10	0.02	-0.975	0.261	1.0313244	0.7448454	-0.0572958	95.49490986	2.578311	20.47178934
0.11	11	0.02	-0.973	0.262	1.0886202	0.6302538	0	95.50636902	2.578311	20.47751892
0.12	12	0.02	-0.973	0.263	1.0886202	0.5156622	-0.0572958	95.51782818	2.578311	20.4832485
0.13	13	0.021	-0.972	0.262	1.0886202	0.4583664	-0.0572958	95.52928734	2.578311	20.48897808
0.14	14	0.021	-0.971	0.264	1.2605076	0.4010706	-0.0572958	95.5407465	2.578311	20.49470766
0.15	15	0.02	-0.972	0.264	1.2032118	0.4583664	-0.0572958	95.93608752	2.52674478	20.38011606
0.16	16	0.018	-0.972	0.265	1.3178034	0.6875496	-0.0572958	95.95327626	2.52674478	20.39157522
0.17	17	0.02	-0.975	0.262	1.432395	0.6875496	0	95.96473542	2.52674478	20.3973048
0.18	18	0.02	-0.976	0.265	1.3750992	0.572958	0	95.98192416	2.52674478	20.40303438
0.19	19	0.019	-0.976	0.266	1.3178034	0.5156622	0	95.99338332	2.52674478	20.40876396
0.2	20	0.019	-0.975	0.267	1.2605076	0.5156622	-0.1145916	96.37726518	2.47517856	20.30563152
0.21	21	0.019	-0.976	0.267	1.2032118	0.572958	-0.1145916	96.39445392	2.47517856	20.3113611
0.22	22	0.02	-0.978	0.267	1.145916	0.572958	-0.1145916	96.40591308	2.47517856	20.31709068
0.23	23	0.019	-0.978	0.267	1.0313244	0.286479	-0.0572958	96.41737224	2.47517856	20.31709068
0.24	24	0.018	-0.979	0.27	1.0313244	0.286479	0	96.4288314	2.47517856	20.32282026
0.25	25	0.017	-0.979	0.27	0.859437	0.3437748	-0.0572958	96.95022318	2.40069402	20.17385118
0.26	26	0.018	-0.979	0.269	0.7448454	0.4583664	-0.0572958	96.95595276	2.40069402	20.17958076
0.27	27	0.018	-0.977	0.268	0.6875496	0.4583664	-0.0572958	96.96741192	2.40069402	20.18531034
0.28	28	0.02	-0.976	0.27	0.6875496	0.5156622	-0.0572958	96.9731415	2.40069402	20.18531034
0.29	29	0.019	-0.974	0.271	0.5156622	0.5156622	-0.1718874	96.97887108	2.40069402	20.19103992
0.3	30	0.019	-0.973	0.27	0.6302538	0.6875496	-0.1718874	97.3742121	2.3491278	20.08790748
0.31	31	0.017	-0.973	0.269	0.7448454	0.859437	-0.1145916	97.38567126	2.3491278	20.09363706
0.32	32	0.014	-0.973	0.267	0.6302538	0.6302538	0	97.39140084	2.3491278	20.09936664
0.33	33	0.013	-0.974	0.269	0.6875496	0.5156622	0.0572958	97.39713042	2.3491278	20.10509622
0.34	34	0.014	-0.975	0.271	0.859437	0.7448454	-0.0572958	97.40858958	2.3491278	20.11655538
0.35	35	0.016	-0.975	0.271	0.859437	1.145916	-0.286479	97.67215026	2.30902074	20.05353
0.36	36	0.019	-0.972	0.27	0.6875496	1.3178034	-0.4010706	97.67787984	2.30902074	20.06498916
0.37	37	0.021	-0.97	0.274	0.3437748	0.9167328	-0.5156622	97.68360942	2.31475032	20.07644832
0.38	38	0.021	-0.97	0.275	0.2291832	0.5156622	-0.4583664	97.689339	2.31475032	20.0821779
0.39	39	0.022	-0.972	0.273	0.286479	0.1718874	-0.4010706	97.689339	2.3204799	20.08790748
0.4	40	0.021	-0.978	0.274	0.3437748	0.1145916	-0.2291832	98.48002104	2.22880662	19.86445386
0.41	41	0.023	-0.981	0.277	0.1145916	0.286479	0	98.48002104	2.22880662	19.86445386
0.42	42	0.024	-0.98	0.278	-0.1145916	0.1718874	0.1718874	98.48002104	2.22880662	19.87018344
0.43	43	0.024	-0.979	0.278	-0.859437	-0.1718874	0.286479	98.46856188	2.22307704	19.86445386
0.44	44	0.021	-0.98	0.278	-1.145916	-0.0572958	0.3437748	98.45710272	2.22307704	19.86445386
0.45	45	0.02	-0.978	0.279	-1.5469866	0.2291832	0.286479	98.68628592	2.18869956	19.7956989
0.46	46	0.018	-0.973	0.274	-1.7761698	0.5156622	0.1718874	98.66909718	2.18296998	19.80142848
0.47	47	0.017	-0.969	0.269	-1.7761698	0.572958	0.1145916	98.65190844	2.18296998	19.80715806
0.48	48	0.019	-0.968	0.266	-1.6615782	0.3437748	0.0572958	98.6347197	2.18296998	19.80715806
0.49	49	0.02	-0.968	0.265	-1.3750992	-0.1718874	0.1145916	98.61753096	2.1772404	19.80715806
0.5	50	0.02	-0.968	0.265	-1.2032118	-0.4583664	0.0572958	98.8639029	2.1485925	19.73267352
0.51	51	0.02	-0.968	0.265	-0.9167328	-0.4583664	0	98.85244374	2.1485925	19.72694394
0.52	52	0.019	-0.971	0.267	-0.6875496	-0.5156622	0	98.84671416	2.1485925	19.72121436
0.53	53	0.017	-0.972	0.268	-0.6875496	-0.4010706	0	98.835255	2.1485925	19.71548478
0.54	54	0.018	-0.974	0.268	-0.6875496	-0.286479	0	98.82952542	2.1485925	19.71548478
0.55	55	0.018	-0.974	0.267	-0.6302538	-0.2291832	0.0572958	99.2649735	2.0912967	19.58943402
0.56	56	0.018	-0.977	0.267	-0.6875496	-0.1718874	0.0572958	99.25924392	2.0912967	19.58370444
0.57	57	0.019	-0.979	0.268	-0.7448454	-0.1718874	0.0572958	99.24778476	2.0912967	19.58370444
0.58	58	0.019	-0.98	0.267	-0.6302538	-0.4010706	0	99.24205518	2.0912967	19.57797486
0.59	59	0.022	-0.98	0.267	-0.5156622	-0.4583664	0	99.2363256	2.0912967	19.57224528
0.6	60	0.02	-0.978	0.266	-0.5156622	-0.572958	0.0572958	99.54572292	2.05118964	19.480572
0.61	61	0.02	-0.977	0.266	-0.572958	-0.6302538	0	99.53999334	2.05118964	19.47484242
0.62	62	0.017	-0.976	0.269	-0.6875496	-0.7448454	0	99.53426376	2.05118964	19.46911284
0.63	63	0.015	-0.974	0.268	-0.7448454	-0.859437	0	99.5228046	2.05118964	19.45765368
0.64	64	0.015	-0.972	0.268	-0.7448454	-0.4583664	0	99.51707502	2.05118964	19.4519241
0.65	65	0.014	-0.975	0.267	-0.9740286	-0.0572958	0	99.8379315	1.99389384	19.36025082
0.66	66	0.017	-0.975	0.267	-0.9167328	0	0.0572958	99.83220192	1.99389384	19.36025082
0.67	67	0.021	-0.976	0.266	-0.9740286	-0.2291832	0.0572958	99.82074276	1.99389384	19.36025082
0.68	68	0.023	-0.975	0.269	-0.9740286	-0.4583664	0	99.8092836	1.99389384	19.35452124
0.69	69	0.023	-0.975	0.272	-0.9740286	-0.7448454	0	99.79782444	1.99389384	19.34879166
0.7	70	0.02	-0.976	0.274	-1.2032118	-0.572958	0	99.98690058	1.97097552	19.28576628
0.71	71	0.019	-0.974	0.272	-1.2605076	-0.3437748	0	99.97544142	1.97097552	19.28576628
0.72	72	0.02	-0.974	0.271	-1.145916	-0.286479	0	99.96398226	1.97097552	19.2800367
0.73	73	0.02	-0.974	0.271	-1.0886202	-0.572958	0	99.9525231	1.97097552	19.27430712
0.74	74	0.019	-0.974	0.272	-1.2605076	-0.6875496	0	99.93533436	1.9767051	19.26857754
0.75	75	0.02	-0.973	0.271	-1.145916	-0.8021412	0	100.0957626	1.95951636	19.21128174
0.76	76	0.021	-0.973	0.271	-0.7448454	-0.572958	-0.0572958	100.0843034	1.95951636	19.20555216
0.77	77	0.021	-0.973	0.27	-0.3437748	-0.4010706	-0.1145916	100.0843034	1.96524594	19.20555216
0.78	78	0.021	-0.973	0.271	-0.4010706	-0.4010706	-0.0572958	100.0785739	1.96524594	19.19982258
0.79	79	0.021	-0.974	0.27	-0.572958	-0.4583664	-0.0572958	100.0728443	1.96524594	19.194093
0.8	80	0.02	-0.975	0.268	-0.572958	-0.572958	0	100.3192162	1.94232762	19.12533804
0.81	81	0.019	-0.976	0.268	-0.4010706	-0.4583664	0.0572958	100.3134866	1.94232762	19.11960846
0.82	82	0.018	-0.976	0.27	-0.286479	-0.5156622	0	100.3077571	1.94232762	19.11387888
0.83	83	0.017	-0.976	0.27	-0.4583664	-0.572958	0.0572958	100.3020275	1.94232762	19.1081493
0.84	84	0.018	-0.976	0.27	-0.4583664	-0.4583664	0.0572958	100.2962979	1.94232762	19.10241972
0.85	85	0.019	-0.976	0.268	-0.572958	-0.286479	0	100.5713177	1.91367972	19.02793518
0.86	86	0.02	-0.977	0.267	-0.5156622	-0.286479	0	100.5655882	1.91367972	19.02793518
0.87	87	0.021	-0.978	0.267	-0.4010706	-0.1718874	0	100.5598586	1.91367972	19.0222056
0.88	88	0.021	-0.978	0.267	-0.4583664	-0.1718874	0	100.554129	1.91367972	19.0222056
0.89	89	0.019	-0.977	0.269	-0.572958	-0.3437748	0	100.5483994	1.91367972	19.01647602
0.9	90	0.019	-0.975	0.27	-0.7448454	-0.3437748	0.0572958	100.7661235	1.88503182	18.95918022
0.91	91	0.018	-0.972	0.267	-0.9167328	-0.1718874	0	100.7546643	1.88503182	18.95918022
0.92	92	0.02	-0.974	0.265	-0.859437	-0.1718874	0	100.7489347	1.88503182	18.95345064
0.93	93	0.02	-0.974	0.263	-0.6875496	-0.286479	0	100.7374756	1.88503182	18.95345064
0.94	94	0.022	-0.973	0.264	-0.572958	-0.286479	0	100.731746	1.88503182	18.94772106
0.95	95	0.022	-0.973	0.265	-0.4010706	-0.2291832	0	101.0296841	1.8621135	18.87323652
0.96	96	0.021	-0.974	0.266	-0.5156622	-0.1718874	-0.0572958	101.0239546	1.8621135	18.87323652
0.97	97	0.019	-0.974	0.266	-0.1145916	-0.0572958	0.0572958	101.0239546	1.8621135	18.86750694
0.98	98	0.019	-0.974	0.265	0	-0.1145916	0.1718874	101.0239546	1.8621135	18.86750694
0.99	99	0.019	-0.976	0.267	0.1145916	-0.0572958	0.2291832	101.0239546	1.8621135	18.86750694
1	100	0.019	-0.975	0.266	0.0572958	0.1145916	0.0572958	101.8891211	1.75898106	18.65551248
1.01	101	0.02	-0.975	0.265	0	0.2291832	-0.0572958	101.8891211	1.75898106	18.66124206
1.02	102	0.021	-0.976	0.267	-0.0572958	0.1145916	-0.1145916	101.8891211	1.75898106	18.66124206
1.03	103	0.022	-0.976	0.268	-0.1718874	-0.1718874	-0.1718874	101.8833916	1.75898106	18.66124206
1.04	104	0.02	-0.978	0.267	-0.286479	-0.286479	-0.1718874	101.8833916	1.76471064	18.66124206
1.05	105	0.021	-0.98	0.27	-0.4583664	-0.2291832	-0.1145916	102.0839269	1.75325148	18.60394626
1.06	106	0.023	-0.98	0.27	-0.6875496	0	0	102.0781973	1.75325148	18.60394626
1.07	107	0.025	-0.979	0.267	-0.572958	0.1145916	0.1718874	102.0724677	1.7475219	18.60967584
1.08	108	0.025	-0.979	0.265	-0.5156622	0.1145916	0.2291832	102.0667381	1.7475219	18.60967584
1.09	109	0.023	-0.979	0.266	-0.572958	0.1718874	0.286479	102.0610085	1.74179232	18.60967584
1.1	110	0.021	-0.977	0.265	-0.572958	0.286479	0.286479	102.1412227	1.72460358	18.5924871
1.11	111	0.018	-0.975	0.262	-0.5156622	0.572958	0.1145916	102.1354931	1.718874	18.59821668
1.12	112	0.019	-0.972	0.261	-0.5156622	0.7448454	0.0572958	102.1297635	1.718874	18.60394626
1.13	113	0.019	-0.973	0.261	-0.4583664	0.4583664	0.0572958	102.1297635	1.71314442	18.60967584
1.14	114	0.019	-0.97	0.262	-0.5156622	0.2291832	0	102.1240339	1.71314442	18.60967584
1.15	115	0.02	-0.971	0.259	-0.286479	0.1145916	-0.0572958	102.3073805	1.6902261	18.56956878
1.16	116	0.021	-0.972	0.258	-0.2291832	0	-0.1718874	102.3073805	1.6902261	18.56956878
1.17	117	0.021	-0.974	0.26	0	0	-0.1145916	102.3073805	1.69595568	18.56956878
1.18	118	0.02	-0.975	0.262	0.1145916	-0.0572958	-0.1145916	102.3073805	1.69595568	18.56956878
1.19	119	0.022	-0.973	0.262	0.2291832	-0.1145916	-0.1145916	102.3131101	1.69595568	18.5638392
1.2	120	0.021	-0.974	0.263	0.4010706	-0.0572958	-0.0572958	102.4735383	1.6902261	18.52946172
1.21	121	0.021	-0.976	0.264	0.286479	-0.0572958	0	102.4735383	1.6902261	18.52946172
1.22	122	0.022	-0.977	0.263	0.3437748	0	-0.0572958	102.4792679	1.6902261	18.52946172
1.23	123	0.021	-0.979	0.263	0.4583664	0.1145916	0	102.4849975	1.6902261	18.52946172
1.24	124	0.022	-0.979	0.262	0.5156622	0.1718874	-0.0572958	102.490727	1.6902261	18.5351913
1.25	125	0.024	-0.979	0.262	0.4583664	0.2291832	-0.0572958	102.5995891	1.70168526	18.51227298
1.26	126	0.022	-0.977	0.262	0.4583664	0.2291832	0	102.6053186	1.70168526	18.51227298
1.27	127	0.021	-0.977	0.261	0.3437748	0.4010706	0	102.6110482	1.69595568	18.51800256
1.28	128	0.018	-0.976	0.26	0.1145916	0.5156622	0	102.6110482	1.69595568	18.52373214
1.29	129	0.019	-0.975	0.26	0.0572958	0.6875496	0	102.6110482	1.69595568	18.52946172
1.3	130	0.019	-0.975	0.26	0.1145916	0.7448454	0	102.6969919	1.67876694	18.51800256
1.31	131	0.02	-0.977	0.26	0.0572958	0.1718874	0	102.6969919	1.67876694	18.52373214
1.32	132	0.02	-0.977	0.261	-0.1145916	-0.1145916	0	102.6969919	1.67876694	18.51800256
1.33	133	0.02	-0.977	0.26	0	-0.4010706	-0.1718874	102.6969919	1.68449652	18.51800256
1.34	134	0.021	-0.978	0.262	0.0572958	-0.3437748	-0.1718874	102.6969919	1.68449652	18.51227298
1.35	135	0.022	-0.978	0.263	0	-0.2291832	-0.1718874	102.8230427	1.67876694	18.48362508
1.36	136	0.023	-0.979	0.262	-0.0572958	0	-0.1145916	102.8230427	1.67876694	18.48362508
1.37	137	0.024	-0.977	0.259	0	0.1718874	0	102.8173131	1.67876694	18.48935466
1.38	138	0.024	-0.978	0.262	0.0572958	0.2291832	0	102.8230427	1.67876694	18.48935466
1.39	139	0.023	-0.977	0.261	0	0.286479	0	102.8230427	1.67876694	18.49508424
1.4	140	0.02	-0.974	0.262	-0.0572958	0.1145916	0	103.0063892	1.6615782	18.45497718
1.41	141	0.02	-0.972	0.259	0.0572958	0.0572958	0	103.0063892	1.6615782	18.45497718
1.42	142	0.021	-0.973	0.258	0.2291832	0	0	103.0121188	1.6615782	18.45497718
1.43	143	0.02	-0.975	0.258	0.286479	-0.1145916	0	103.0121188	1.6615782	18.45497718
1.44	144	0.02	-0.975	0.258	0.4010706	-0.2291832	0	103.0178484	1.6615782	18.45497718
1.45	145	0.021	-0.974	0.258	0.572958	-0.1718874	0	103.0694146	1.65584862	18.44351802
1.46	146	0.022	-0.975	0.259	0.6875496	0	0	103.0751442	1.65584862	18.44351802
1.47	147	0.022	-0.976	0.259	0.8021412	0.0572958	0	103.0866034	1.65584862	18.44351802
1.48	148	0.023	-0.977	0.258	0.6875496	0.1145916	0.0572958	103.0923329	1.65584862	18.44351802
1.49	149	0.023	-0.978	0.257	0.6875496	0.1145916	0	103.0980625	1.65584862	18.44351802
1.5	150	0.024	-0.979	0.258	0.6875496	0.1718874	0	103.1381696	1.6615782	18.44351802
1.51	151	0.022	-0.98	0.258	0.6302538	0.1145916	0.0572958	103.1438992	1.6615782	18.44351802
1.52	152	0.021	-0.98	0.258	0.572958	0	0.0572958	103.1496287	1.65584862	18.44351802
1.53	153	0.02	-0.981	0.259	0.6302538	0.1145916	0.0572958	103.1553583	1.65584862	18.44351802
1.54	154	0.019	-0.98	0.26	0.6875496	0	0.0572958	103.1610879	1.65584862	18.44351802
1.55	155	0.021	-0.978	0.26	0.5156622	0	0	103.2183837	1.64438946	18.43778844
1.56	156	0.022	-0.978	0.26	0.4583664	0.286479	0.0572958	103.2241133	1.64438946	18.43778844
1.57	157	0.022	-0.979	0.259	0.3437748	0.3437748	0.0572958	103.2241133	1.64438946	18.44351802
1.58	158	0.022	-0.977	0.26	0.286479	0.286479	0.1145916	103.2298429	1.63865988	18.44351802
1.59	159	0.024	-0.976	0.26	0.286479	0.0572958	0	103.2355724	1.63865988	18.44351802
1.6	160	0.024	-0.975	0.263	0.3437748	0.1718874	0	103.2928682	1.65011904	18.43778844
1.61	161	0.023	-0.975	0.261	0.1718874	0.3437748	0.0572958	103.2928682	1.64438946	18.43778844
1.62	162	0.021	-0.974	0.258	-0.0572958	0.3437748	0.1145916	103.2928682	1.64438946	18.44351802
1.63	163	0.02	-0.974	0.255	0	0.1145916	0.286479	103.2928682	1.63865988	18.44351802
1.64	164	0.02	-0.975	0.255	0.1718874	0.1145916	0.286479	103.2985978	1.63865988	18.44351802
1.65	165	0.02	-0.976	0.258	0.4010706	0.4583664	0.2291832	103.310057	1.62720072	18.44351802
1.66	166	0.02	-0.975	0.257	0.6302538	0.7448454	0.0572958	103.3157866	1.62720072	18.45497718
1.67	167	0.02	-0.976	0.259	0.6302538	0.859437	0	103.3215161	1.62720072	18.46070676
1.68	168	0.022	-0.975	0.261	0.572958	0.5156622	-0.1145916	103.3329753	1.62720072	18.46643634
1.69	169	0.021	-0.977	0.261	0.286479	0	-0.2291832	103.3329753	1.62720072	18.46643634
1.7	170	0.021	-0.98	0.261	0.1718874	-0.1718874	-0.1718874	103.3730824	1.62720072	18.46070676
1.71	171	0.024	-0.981	0.263	0.1145916	0	0	103.3730824	1.62720072	18.46070676
1.72	172	0.025	-0.98	0.263	0.0572958	0.0572958	0.1145916	103.3730824	1.62720072	18.46070676
1.73	173	0.026	-0.981	0.264	0.1145916	0.1145916	0.1718874	103.3730824	1.62720072	18.46070676
1.74	174	0.026	-0.982	0.265	-0.0572958	0.572958	0.1718874	103.3730824	1.62147114	18.46643634
1.75	175	0.023	-0.984	0.262	-0.3437748	0.8021412	0.2291832	103.3788119	1.61574156	18.47216592
1.76	176	0.021	-0.981	0.26	-0.8021412	1.145916	0.1718874	103.3730824	1.61001198	18.48362508
1.77	177	0.021	-0.977	0.255	-0.8021412	1.0886202	0.1145916	103.3616232	1.6042824	18.49508424
1.78	178	0.02	-0.973	0.253	-0.572958	0.7448454	0	103.3558936	1.6042824	18.50081382
1.79	179	0.02	-0.971	0.255	-0.2291832	0.1718874	-0.0572958	103.3558936	1.6042824	18.50081382
1.8	180	0.02	-0.969	0.254	-0.1145916	0	-0.0572958	103.3730824	1.59282324	18.50081382
1.81	181	0.02	-0.971	0.255	0.0572958	-0.1145916	-0.1145916	103.3730824	1.59855282	18.50081382
1.82	182	0.021	-0.97	0.255	0.286479	-0.1145916	-0.1718874	103.3788119	1.59855282	18.50081382
1.83	183	0.021	-0.972	0.256	0.4583664	-0.1145916	-0.1718874	103.3845415	1.59855282	18.50081382
1.84	184	0.02	-0.976	0.256	0.572958	-0.1145916	-0.1718874	103.3902711	1.6042824	18.49508424
1.85	185	0.021	-0.977	0.259	0.6302538	-0.1718874	-0.2291832	103.4131894	1.6042824	18.49508424
1.86	186	0.022	-0.977	0.261	0.4583664	0.0572958	-0.1718874	103.418919	1.6042824	18.49508424
1.87	187	0.023	-0.978	0.259	0.4583664	0.1145916	-0.1718874	103.4246486	1.61001198	18.49508424
1.88	188	0.024	-0.98	0.261	0.4010706	0.2291832	-0.1145916	103.4246486	1.61001198	18.50081382
1.89	189	0.023	-0.982	0.261	0.2291832	0.2291832	0	103.4303782	1.61001198	18.50081382
1.9	190	0.023	-0.982	0.259	0.1145916	0.2291832	0	103.4532965	1.61001198	18.50081382
1.91	191	0.019	-0.98	0.259	-0.0572958	0.1145916	-0.0572958	103.4532965	1.61001198	18.50081382
1.92	192	0.016	-0.978	0.257	-0.1718874	0.0572958	0	103.4532965	1.61001198	18.5065434
1.93	193	0.016	-0.975	0.257	-0.2291832	0.1145916	-0.1718874	103.4475669	1.61001198	18.5065434
1.94	194	0.017	-0.975	0.258	-0.2291832	0.4010706	-0.1718874	103.4475669	1.61001198	18.51227298
1.95	195	0.02	-0.977	0.257	-0.1145916	0.5156622	-0.1145916	103.4532965	1.61001198	18.51800256
1.96	196	0.023	-0.98	0.257	-0.0572958	0.2291832	-0.0572958	103.4532965	1.61001198	18.51800256
1.97	197	0.026	-0.981	0.26	-0.0572958	0	-0.0572958	103.4475669	1.61001198	18.51800256
1.98	198	0.027	-0.981	0.262	-0.2291832	-0.1145916	-0.0572958	103.4475669	1.61001198	18.51800256
1.99	199	0.026	-0.981	0.262	-0.4010706	0	0	103.4418373	1.61001198	18.51800256
2	200	0.024	-0.979	0.261	-0.572958	-0.0572958	0.0572958	103.4532965	1.61001198	18.51227298
2.01	201	0.021	-0.978	0.26	-0.6302538	0	0	103.4418373	1.61001198	18.51227298
2.02	202	0.021	-0.975	0.257	-0.6875496	-0.1145916	0	103.4361077	1.61001198	18.51227298
2.03	203	0.021	-0.973	0.256	-0.572958	-0.1718874	0	103.4303782	1.61001198	18.51227298
2.04	204	0.022	-0.972	0.258	-0.4010706	-0.2291832	-0.0572958	103.4246486	1.61574156	18.5065434
2.05	205	0.021	-0.972	0.257	-0.4010706	-0.3437748	-0.0572958	103.4303782	1.61574156	18.5065434
2.06	206	0.021	-0.973	0.256	-0.3437748	-0.4010706	0	103.4303782	1.61574156	18.50081382
2.07	207	0.022	-0.975	0.258	-0.1718874	-0.4583664	0	103.4246486	1.61574156	18.49508424
2.08	208	0.022	-0.976	0.258	-0.1718874	-0.5156622	0	103.4246486	1.61574156	18.48935466
2.09	209	0.022	-0.977	0.258	-0.1718874	-0.3437748	0	103.4246486	1.62147114	18.48362508
2.1	210	0.023	-0.977	0.258	-0.0572958	-0.2291832	0	103.4475669	1.61574156	18.4778955
2.11	211	0.023	-0.979	0.257	-0.0572958	-0.0572958	0.1145916	103.4475669	1.61574156	18.4778955
2.12	212	0.023	-0.98	0.259	-0.1718874	-0.1145916	0.1145916	103.4475669	1.61574156	18.4778955
2.13	213	0.02	-0.98	0.259	-0.3437748	-0.1145916	0.1145916	103.4418373	1.61574156	18.47216592
2.14	214	0.019	-0.979	0.258	-0.3437748	0	0.0572958	103.4361077	1.61574156	18.47216592
2.15	215	0.019	-0.981	0.258	-0.4010706	0	0	103.4475669	1.6042824	18.47216592
2.16	216	0.02	-0.981	0.258	-0.5156622	0	-0.1718874	103.4418373	1.61001198	18.47216592
2.17	217	0.021	-0.98	0.255	-0.6875496	0	-0.1718874	103.4303782	1.61001198	18.47216592
2.18	218	0.023	-0.979	0.255	-0.6875496	0	-0.1145916	103.4246486	1.61001198	18.47216592
2.19	219	0.023	-0.98	0.256	-0.859437	0	0	103.418919	1.61001198	18.47216592
2.2	220	0.023	-0.98	0.257	-0.6875496	-0.1145916	0	103.4131894	1.61001198	18.47216592
2.21	221	0.023	-0.979	0.258	-0.859437	-0.4010706	-0.0572958	103.4074598	1.61574156	18.46643634
2.22	222	0.023	-0.978	0.259	-0.9740286	-0.572958	-0.1145916	103.3960007	1.61574156	18.46070676
2.23	223	0.022	-0.976	0.259	-1.2605076	-0.5156622	-0.1145916	103.3845415	1.62147114	18.45497718
2.24	224	0.021	-0.977	0.257	-1.3750992	-0.3437748	-0.1718874	103.3673528	1.62147114	18.45497718
2.25	225	0.022	-0.98	0.26	-1.5469866	-0.2291832	-0.1718874	103.3616232	1.62720072	18.4492476
2.26	226	0.022	-0.98	0.258	-1.7761698	-0.286479	-0.1718874	103.3444345	1.62720072	18.4492476
2.27	227	0.02	-0.979	0.255	-1.9480572	-0.4010706	-0.0572958	103.3272457	1.62720072	18.44351802
2.28	228	0.018	-0.98	0.256	-2.0626488	-0.6875496	0	103.3043274	1.6329303	18.43778844
2.29	229	0.016	-0.98	0.261	-2.1772404	-0.4583664	0	103.2814091	1.6329303	18.43205886
2.3	230	0.017	-0.979	0.26	-2.291832	0.1145916	-0.2291832	103.2642203	1.6329303	18.43205886
2.31	231	0.021	-0.976	0.256	-2.4064236	0.572958	-0.4583664	103.241302	1.6329303	18.43778844
2.32	232	0.026	-0.977	0.257	-2.6356068	0.1145916	-0.4010706	103.2126541	1.63865988	18.43778844
2.33	233	0.027	-0.977	0.261	-3.2658606	-0.6875496	-0.286479	103.1782766	1.64438946	18.43205886
2.34	234	0.025	-0.978	0.262	-3.6669312	-1.0313244	-0.1718874	103.1381696	1.64438946	18.42632928
2.35	235	0.025	-0.978	0.26	-3.7815228	-0.9740286	-0.1145916	103.1095217	1.65011904	18.41487012
2.36	236	0.027	-0.983	0.259	-3.724227	-0.572958	0	103.0694146	1.65584862	18.40914054
2.37	237	0.027	-0.986	0.258	-3.6669312	-0.4583664	0.1718874	103.0350371	1.65011904	18.40341096
2.38	238	0.026	-0.989	0.26	-3.8388186	-0.2291832	0.286479	102.9949301	1.65011904	18.39768138
2.39	239	0.026	-0.986	0.258	-4.297185	0.286479	0.286479	102.9490934	1.64438946	18.39768138
2.4	240	0.025	-0.981	0.252	-4.583664	0.6302538	0.3437748	102.9032568	1.63865988	18.40341096
2.41	241	0.024	-0.976	0.246	-4.583664	0.7448454	0.3437748	102.8574202	1.6329303	18.40914054
2.42	242	0.023	-0.974	0.244	-4.297185	0.4583664	0.286479	102.8115835	1.6329303	18.41487012
2.43	243	0.024	-0.97	0.239	-3.9534102	0	0.2291832	102.7714765	1.62720072	18.41487012
2.44	244	0.024	-0.97	0.237	-3.6096354	-0.4583664	0.2291832	102.737099	1.62720072	18.40914054
2.45	245	0.024	-0.97	0.234	-3.151269	-1.145916	0.2291832	102.6969919	1.62720072	18.39768138
2.46	246	0.023	-0.972	0.231	-2.578311	-1.432395	0.1145916	102.6740736	1.62720072	18.38049264
2.47	247	0.022	-0.974	0.232	-2.1772404	-1.3178034	0.0572958	102.6511553	1.6329303	18.36903348
2.48	248	0.022	-0.975	0.235	-1.8907614	-0.859437	0.0572958	102.6339665	1.6329303	18.35757432
2.49	249	0.019	-0.976	0.234	-1.6042824	-0.4583664	0.0572958	102.6167778	1.6329303	18.35184474
2.5	250	0.02	-0.979	0.233	-1.432395	-0.0572958	0	102.5881299	1.6329303	18.35184474
2.51	251	0.023	-0.985	0.23	-1.432395	0.1145916	0.0572958	102.5709412	1.6329303	18.35757432
2.52	252	0.025	-0.99	0.229	-1.5469866	0.0572958	0.0572958	102.5537524	1.62720072	18.35757432
2.53	253	0.026	-0.989	0.229	-1.718874	0.0572958	0.1145916	102.5365637	1.62720072	18.35757432
2.54	254	0.025	-0.988	0.228	-1.6042824	-0.1145916	0.1145916	102.5193749	1.62720072	18.35184474
2.55	255	0.025	-0.986	0.229	-1.5469866	-0.4583664	0.0572958	102.4964566	1.62720072	18.35184474
2.56	256	0.02	-0.985	0.231	-1.6042824	-0.9740286	0	102.4792679	1.6329303	18.34038558
2.57	257	0.017	-0.985	0.231	-1.4896908	-1.145916	-0.1718874	102.4620791	1.6329303	18.32892642
2.58	258	0.016	-0.985	0.233	-1.4896908	-0.7448454	-0.286479	102.4448904	1.63865988	18.32319684
2.59	259	0.017	-0.986	0.233	-1.6615782	-0.1145916	-0.3437748	102.4277017	1.64438946	18.32319684
2.6	260	0.019	-0.986	0.232	-1.718874	0.1718874	-0.2291832	102.4047833	1.64438946	18.32319684
2.61	261	0.024	-0.985	0.233	-1.8334656	0	-0.1145916	102.3875946	1.64438946	18.32319684
2.62	262	0.028	-0.986	0.235	-1.9480572	0	-0.1145916	102.3704059	1.64438946	18.32319684
2.63	263	0.03	-0.988	0.237	-2.0626488	-0.0572958	-0.1718874	102.3474875	1.65011904	18.32319684
2.64	264	0.025	-0.989	0.24	-2.3491278	-0.1718874	-0.0572958	102.3245692	1.65011904	18.32319684
2.65	265	0.021	-0.986	0.241	-2.6356068	-0.1718874	-0.0572958	102.3016509	1.65011904	18.31746726
2.66	266	0.02	-0.983	0.238	-2.578311	0	-0.1145916	102.273003	1.65011904	18.31746726
2.67	267	0.02	-0.982	0.234	-2.4637194	0	-0.1718874	102.2500847	1.65011904	18.31746726
2.68	268	0.019	-0.982	0.232	-2.3491278	-0.0572958	-0.1718874	102.2214368	1.65584862	18.31746726
2.69	269	0.02	-0.98	0.233	-2.1772404	-0.1145916	-0.1718874	102.204248	1.65584862	18.31746726
2.7	270	0.021	-0.978	0.237	-2.1772404	-0.1145916	-0.2291832	102.1870593	1.65584862	18.31746726
2.71	271	0.022	-0.975	0.239	-2.4064236	0.0572958	-0.2291832	102.164141	1.6615782	18.31746726
2.72	272	0.023	-0.976	0.236	-2.4064236	0.2291832	-0.286479	102.1354931	1.6615782	18.31746726
2.73	273	0.027	-0.982	0.23	-2.4064236	0.4010706	-0.2291832	102.1125748	1.6615782	18.32319684
2.74	274	0.028	-0.989	0.229	-2.2345362	0.5156622	-0.1718874	102.0896564	1.6615782	18.32892642
2.75	275	0.028	-0.991	0.231	-2.3491278	0.4583664	-0.1145916	102.0667381	1.66730778	18.334656
2.76	276	0.027	-0.988	0.232	-2.4637194	0.4010706	-0.0572958	102.0380902	1.66730778	18.34038558
2.77	277	0.026	-0.982	0.229	-2.4637194	0.4583664	0	102.0151719	1.66730778	18.34038558
2.78	278	0.026	-0.982	0.227	-2.3491278	0.4010706	0	101.9922536	1.6615782	18.34611516
2.79	279	0.025	-0.984	0.227	-2.3491278	0.1718874	0	101.9693353	1.6615782	18.34611516
2.8	280	0.024	-0.984	0.227	-2.4637194	0.0572958	-0.1718874	101.9406874	1.66730778	18.35184474
2.81	281	0.022	-0.984	0.225	-2.4637194	0	-0.2291832	101.9120395	1.66730778	18.34611516
2.82	282	0.022	-0.985	0.226	-2.5210152	-0.1145916	-0.286479	101.8891211	1.67303736	18.34611516
2.83	283	0.023	-0.987	0.225	-2.6929026	-0.1145916	-0.3437748	101.8604732	1.67876694	18.34611516
2.84	284	0.025	-0.986	0.227	-2.9220858	-0.286479	-0.4010706	101.8318253	1.68449652	18.34611516
2.85	285	0.025	-0.985	0.224	-2.9793816	-0.2291832	-0.3437748	101.7974479	1.68449652	18.34038558
2.86	286	0.025	-0.984	0.223	-2.6929026	-0.1145916	-0.2291832	101.7688	1.6902261	18.34038558
2.87	287	0.025	-0.988	0.222	-2.6356068	0.0572958	-0.2291832	101.7401521	1.6902261	18.34038558
2.88	288	0.026	-0.99	0.221	-2.7501984	0.0572958	-0.286479	101.7115042	1.69595568	18.34611516
2.89	289	0.024	-0.988	0.22	-2.2345362	-0.1718874	-0.2291832	101.6885858	1.69595568	18.34038558
2.9	290	0.023	-0.984	0.218	-0.286479	-0.2291832	-0.0572958	101.6599379	1.6902261	18.34038558
2.91	291	0.021	-0.984	0.22	-0.286479	-0.0572958	-0.0572958	101.6542084	1.69595568	18.34038558
2.92	292	0.02	-0.986	0.219	-0.3437748	0.1718874	-0.0572958	101.6542084	1.69595568	18.34611516
2.93	293	0.02	-0.99	0.218	-0.3437748	0.3437748	0	101.6484788	1.69595568	18.34611516
2.94	294	0.022	-0.994	0.217	-0.3437748	0.4583664	0	101.6484788	1.6902261	18.35184474
2.95	295	0.022	-0.992	0.213	-0.286479	0.6875496	-0.1145916	101.6141013	1.6902261	18.3633039
2.96	296	0.025	-0.989	0.212	-0.286479	0.859437	-0.286479	101.6141013	1.6902261	18.36903348
2.97	297	0.027	-0.988	0.215	-0.4010706	0.4583664	-0.4010706	101.6083717	1.69595568	18.37476306
2.98	298	0.027	-0.985	0.216	-0.6875496	-0.0572958	-0.5156622	101.6026421	1.70168526	18.37476306
2.99	299	0.026	-0.983	0.214	-0.8021412	-0.4583664	-0.5156622	101.591183	1.70741484	18.37476306
3	300	0.025	-0.985	0.216	-0.4583664	-0.7448454	-0.3437748	101.5739942	1.71314442	18.36903348
3.01	301	0.026	-0.991	0.219	-0.6302538	-0.6875496	-0.2291832	101.5682647	1.718874	18.35757432
3.02	302	0.027	-0.994	0.219	-0.8021412	-0.572958	-0.2291832	101.5625351	1.718874	18.35757432
3.03	303	0.028	-0.994	0.217	-0.8021412	-0.4583664	-0.1145916	101.5510759	1.72460358	18.35184474
3.04	304	0.029	-0.997	0.217	-1.0886202	-0.2291832	-0.0572958	101.5396168	1.72460358	18.34611516
3.05	305	0.026	-0.997	0.217	-1.3750992	-0.0572958	-0.1145916	101.5166984	1.73033316	18.34611516
3.06	306	0.025	-0.992	0.216	-1.718874	0.0572958	-0.1718874	101.4995097	1.73033316	18.35184474
3.07	307	0.024	-0.984	0.215	-1.8907614	0	-0.2291832	101.482321	1.73033316	18.35184474
3.08	308	0.024	-0.98	0.213	-1.9480572	-0.3437748	-0.2291832	101.4594026	1.73606274	18.34611516
3.09	309	0.026	-0.98	0.212	-1.7761698	-0.6875496	-0.4010706	101.4422139	1.74179232	18.34038558
3.1	310	0.025	-0.982	0.21	-1.7761698	-0.8021412	-0.572958	101.413566	1.7475219	18.334656
3.11	311	0.026	-0.988	0.209	-1.6615782	-0.4583664	-0.6302538	101.3963773	1.75898106	18.32892642
3.12	312	0.027	-0.991	0.209	-1.8907614	-0.1718874	-0.6875496	101.3791885	1.76471064	18.32892642
3.13	313	0.027	-0.991	0.208	-2.005353	-0.0572958	-0.6875496	101.3562702	1.77044022	18.32892642
3.14	314	0.028	-0.992	0.208	-2.1199446	-0.0572958	-0.6302538	101.3333519	1.7761698	18.32892642
3.15	315	0.028	-0.992	0.207	-2.2345362	-0.1718874	-0.572958	101.2989744	1.78762896	18.32892642
3.16	316	0.029	-0.994	0.208	-2.4637194	-0.4010706	-0.4583664	101.2760561	1.79335854	18.32319684
3.17	317	0.028	-0.993	0.21	-2.6929026	-0.859437	-0.5156622	101.2474082	1.79908812	18.31746726
3.18	318	0.027	-0.992	0.208	-2.9220858	-1.3750992	-0.5156622	101.2187603	1.8048177	18.3060081
3.19	319	0.028	-0.993	0.207	-3.151269	-1.6042824	-0.572958	101.1843828	1.81627686	18.28881936
3.2	320	0.027	-0.992	0.209	-3.724227	-1.6042824	-0.6302538	101.1442757	1.82773602	18.2773602
3.21	321	0.027	-0.991	0.209	-4.1252976	-1.3178034	-0.7448454	101.1041687	1.83919518	18.26590104
3.22	322	0.026	-0.993	0.204	-4.3544808	-0.859437	-0.7448454	101.058332	1.84492476	18.25444188
3.23	323	0.027	-0.995	0.198	-4.583664	-0.4010706	-0.572958	101.0124954	1.85065434	18.25444188
3.24	324	0.027	-0.994	0.198	-4.7555514	-0.286479	-0.5156622	100.9609292	1.85638392	18.2487123
3.25	325	0.032	-0.994	0.197	-4.7555514	-0.572958	-0.3437748	100.9036334	1.86784308	18.24298272
3.26	326	0.033	-0.993	0.196	-4.6409598	-1.0313244	-0.286479	100.8577967	1.87357266	18.23725314
3.27	327	0.034	-0.995	0.196	-4.583664	-1.3178034	-0.3437748	100.8119601	1.87930224	18.2200644
3.28	328	0.032	-1	0.195	-4.6409598	-0.9740286	-0.4010706	100.7603939	1.88503182	18.21433482
3.29	329	0.031	-1.001	0.193	-4.8128472	-0.6302538	-0.4010706	100.7145572	1.8907614	18.20860524
3.3	330	0.028	-0.997	0.188	-4.9274388	-0.5156622	-0.5156622	100.6515319	1.89649098	18.20287566
3.31	331	0.03	-0.992	0.186	-4.7555514	-0.5156622	-0.6302538	100.6056952	1.90222056	18.19714608
3.32	332	0.031	-0.99	0.183	-4.5263682	-0.7448454	-0.6302538	100.5598586	1.90795014	18.1914165
3.33	333	0.032	-0.992	0.181	-4.5263682	-0.859437	-0.5156622	100.5082924	1.9194093	18.17995734
3.34	334	0.033	-0.993	0.184	-4.7555514	-1.0313244	-0.4010706	100.4624557	1.92513888	18.17422776
3.35	335	0.033	-0.991	0.181	-5.0993262	-1.145916	-0.4583664	100.3994303	1.93086846	18.1627686
3.36	336	0.031	-0.988	0.179	-5.2712136	-1.0886202	-0.5156622	100.3478641	1.94232762	18.15130944
3.37	337	0.032	-0.99	0.175	-5.2712136	-0.859437	-0.6302538	100.2905683	1.9480572	18.14557986
3.38	338	0.032	-0.994	0.173	-5.156622	-0.859437	-0.6875496	100.2390021	1.95378678	18.1341207
3.39	339	0.032	-0.998	0.174	-5.3285094	-0.859437	-0.6302538	100.1817063	1.96524594	18.12839112
3.4	340	0.034	-0.995	0.175	-5.443101	-0.9167328	-0.6875496	100.1186809	1.9767051	18.11693196
3.41	341	0.034	-0.996	0.175	-5.3858052	-0.859437	-0.6875496	100.0613851	1.98243468	18.11120238
3.42	342	0.032	-0.998	0.175	-5.5576926	-0.7448454	-0.6875496	100.0040893	1.99389384	18.1054728
3.43	343	0.032	-1.001	0.172	-5.72958	-0.4583664	-0.6302538	99.94679352	1.99962342	18.09974322
3.44	344	0.032	-1.003	0.167	-5.9587632	0	-0.7448454	99.88376814	2.005353	18.09974322
3.45	345	0.032	-1.004	0.163	-6.1306506	0.3437748	-0.8021412	99.8092836	2.01681216	18.1054728
3.46	346	0.032	-1.004	0.165	-6.2452422	0.1145916	-0.9167328	99.74625822	2.02254174	18.1054728
3.47	347	0.032	-1.003	0.164	-6.5317212	-0.1145916	-1.0313244	99.67750326	2.0340009	18.1054728
3.48	348	0.033	-1.001	0.167	-6.7609044	-0.286479	-1.145916	99.6087483	2.04546006	18.1054728
3.49	349	0.033	-0.999	0.168	-6.9900876	-0.5156622	-1.3178034	99.53999334	2.05691922	18.09974322
3.5	350	0.034	-0.997	0.166	-7.2192708	-0.6875496	-1.2605076	99.45977922	2.07410796	18.09401364
3.51	351	0.032	-0.997	0.165	-7.161975	-1.0886202	-1.432395	99.38529468	2.0912967	18.08828406
3.52	352	0.03	-0.998	0.16	-7.1046792	-1.0313244	-1.5469866	99.31081014	2.10848544	18.0768249
3.53	353	0.03	-1.001	0.157	-7.2765666	-0.4010706	-1.5469866	99.2363256	2.1199446	18.0768249
3.54	354	0.03	-1.004	0.157	-7.6203414	0.1145916	-1.4896908	99.16184106	2.13713334	18.0768249
3.55	355	0.032	-1.005	0.156	-7.8495246	0.3437748	-1.4896908	99.07016778	2.1485925	18.08255448
3.56	356	0.031	-1.004	0.152	-8.1932994	0.3437748	-1.6042824	98.98995366	2.16578124	18.08828406
3.57	357	0.031	-1.001	0.15	-8.4224826	0.1718874	-1.6042824	98.90400996	2.18296998	18.09401364
3.58	358	0.029	-0.999	0.15	-8.4797784	0.2291832	-1.6615782	98.81806626	2.19442914	18.09401364
3.59	359	0.029	-0.996	0.151	-8.5370742	0.3437748	-1.6042824	98.73212256	2.21161788	18.09974322
3.6	360	0.031	-0.994	0.145	-8.021412	0.5156622	-1.7761698	98.64044928	2.22307704	18.11120238
3.61	361	0.029	-0.996	0.139	-7.7922288	1.0313244	-2.0626488	98.56023516	2.24599536	18.12266154
3.62	362	0.03	-1.001	0.139	-7.9641162	1.5469866	-2.291832	98.48002104	2.2631841	18.13985028
3.63	363	0.033	-1.01	0.142	-8.4797784	1.8334656	-2.5210152	98.39407734	2.28610242	18.1627686
3.64	364	0.036	-1.009	0.145	-8.8235532	2.291832	-2.5210152	98.30240406	2.30329116	18.18568692
3.65	365	0.037	-1.004	0.142	-8.9381448	2.2345362	-2.5210152	98.2050012	2.32620948	18.20860524
3.66	366	0.04	-1.004	0.136	-8.880849	2.1772404	-2.5210152	98.1190575	2.3491278	18.23152356
3.67	367	0.041	-1.009	0.132	-8.9381448	1.7761698	-2.4064236	98.02738422	2.36631654	18.25444188
3.68	368	0.041	-1.012	0.13	-9.1100322	1.5469866	-2.4064236	97.93571094	2.38923486	18.27163062
3.69	369	0.04	-1.014	0.131	-9.3965112	2.1199446	-2.4637194	97.83830808	2.41215318	18.29454894
3.7	370	0.04	-1.012	0.133	-9.9121734	2.578311	-2.6929026	97.73517564	2.4350715	18.32319684
3.71	371	0.04	-1.003	0.132	-9.9694692	2.8074942	-2.7501984	97.6320432	2.45798982	18.35184474
3.72	372	0.035	-0.993	0.129	-9.8548776	2.9220858	-2.9793816	97.53464034	2.48090814	18.38622222
3.73	373	0.032	-0.99	0.124	-9.6256944	2.8074942	-3.2085648	97.43723748	2.50382646	18.41487012
3.74	374	0.031	-0.993	0.121	-9.5111028	2.7501984	-3.437748	97.33983462	2.53820394	18.44351802
3.75	375	0.031	-0.998	0.122	-9.1100322	2.5210152	-3.6096354	97.24243176	2.56685184	18.47216592
3.76	376	0.035	-1.004	0.122	-9.167328	1.7761698	-3.6096354	97.15075848	2.59549974	18.49508424
3.77	377	0.04	-1.006	0.119	-9.6829902	1.4896908	-3.4950438	97.05335562	2.62987722	18.51227298
3.78	378	0.044	-1.009	0.113	-10.026765	1.432395	-3.151269	96.95022318	2.65852512	18.52946172
3.79	379	0.051	-1.01	0.104	-10.7716104	1.5469866	-2.9220858	96.84136116	2.68717302	18.54665046
3.8	380	0.054	-1	0.109	-10.2559482	0.9740286	-2.6929026	96.73249914	2.71582092	18.55810962
3.81	381	0.055	-0.993	0.112	-9.167328	0.286479	-2.1772404	96.63509628	2.73300966	18.5638392
3.82	382	0.059	-0.996	0.1	-9.453807	0.1718874	-1.6615782	96.543423	2.7501984	18.56956878
3.83	383	0.063	-1.01	0.089	-10.1986524	-0.5156622	-1.3178034	96.43456098	2.76165756	18.5638392
3.84	384	0.06	-1.01	0.088	-10.3705398	-2.4064236	-1.2605076	96.33142854	2.7788463	18.54092088
3.85	385	0.061	-0.999	0.087	-10.4851314	-3.5523396	-1.3178034	96.21110736	2.80176462	18.5065434
3.86	386	0.064	-0.99	0.077	-10.8289062	-4.0680018	-1.4896908	96.10224534	2.81895336	18.46643634
3.87	387	0.063	-0.989	0.07	-10.7143146	-4.7555514	-1.718874	95.98765374	2.84187168	18.4205997
3.88	388	0.058	-0.99	0.072	-10.599723	-5.443101	-1.7761698	95.87879172	2.86479	18.3633039
3.89	389	0.051	-0.983	0.076	-10.7143146	-5.6149884	-1.7761698	95.7699297	2.8934379	18.31173768
3.9	390	0.047	-0.979	0.073	-10.7716104	-5.3285094	-1.8907614	95.64387894	2.91635622	18.26017146
3.91	391	0.054	-0.984	0.064	-10.886202	-4.6409598	-2.1199446	95.53501692	2.94500412	18.21433482
3.92	392	0.064	-0.994	0.06	-10.886202	-4.5263682	-2.1199446	95.42042532	2.96792244	18.16849818
3.93	393	0.062	-1.001	0.057	-11.2872726	-5.2139178	-1.8334656	95.30583372	2.99657034	18.11693196
3.94	394	0.054	-1.004	0.052	-11.5737516	-5.156622	-1.7761698	95.18551254	3.01948866	18.06536574
3.95	395	0.056	-1.005	0.054	-11.6310474	-4.583664	-2.0626488	95.0537322	3.04240698	18.02525868
3.96	396	0.062	-1	0.057	-11.45916	-4.1825934	-2.1772404	94.93341102	3.07105488	17.98515162
3.97	397	0.073	-0.99	0.066	-11.2872726	-4.8128472	-1.718874	94.81881942	3.0939732	17.9335854
3.98	398	0.077	-0.977	0.067	-11.1153852	-6.302538	-1.145916	94.70422782	3.11116194	17.87056002
3.99	399	0.079	-0.977	0.06	-10.9434978	-7.161975	-1.2032118	94.58963622	3.12835068	17.80180506
4	400	0.081	-0.995	0.055	-10.5424272	-7.5057498	-1.7761698	94.46931504	3.15699858	17.72732052
4.01	401	0.082	-1.008	0.055	-10.3705398	-8.3651868	-2.291832	94.36045302	3.19137606	17.6471064
4.02	402	0.08	-1.005	0.057	-10.2559482	-9.0527364	-2.291832	94.251591	3.22002396	17.55543312
4.03	403	0.077	-0.997	0.053	-10.3705398	-9.2246238	-2.005353	94.14272898	3.24867186	17.46375984
4.04	404	0.075	-0.997	0.05	-10.5424272	-9.1100322	-1.7761698	94.03386696	3.27731976	17.37781614
4.05	405	0.073	-1.002	0.047	-10.599723	-9.2246238	-1.4896908	93.91354578	3.30596766	17.28614286
4.06	406	0.071	-1.005	0.048	-10.7716104	-9.5111028	-1.2605076	93.79895418	3.3231564	17.18874
4.07	407	0.069	-1.001	0.044	-11.0007936	-9.7975818	-1.145916	93.678633	3.34607472	17.09133714
4.08	408	0.065	-0.994	0.04	-11.172681	-10.1986524	-1.0313244	93.5640414	3.36326346	16.9882047
4.09	409	0.06	-0.993	0.04	-11.172681	-10.313244	-0.9740286	93.44372022	3.3804522	16.88507226
4.1	410	0.059	-0.992	0.04	-11.1153852	-10.313244	-1.0313244	93.31766946	3.39764094	16.78193982
4.11	411	0.057	-0.995	0.037	-11.2872726	-10.2559482	-1.2605076	93.19734828	3.42055926	16.68453696
4.12	412	0.058	-0.998	0.035	-11.4018642	-10.1986524	-1.4896908	93.0770271	3.44347758	16.58140452
4.13	413	0.06	-1	0.035	-11.6310474	-10.026765	-1.6615782	92.95670592	3.4663959	16.48400166
4.14	414	0.061	-0.999	0.034	-11.9748222	-9.7975818	-1.6615782	92.83065516	3.48931422	16.3865988
4.15	415	0.061	-0.998	0.032	-12.2040054	-9.5683986	-1.6042824	92.69314524	3.51223254	16.28919594
4.16	416	0.064	-1.001	0.03	-12.6623718	-9.5683986	-1.4896908	92.5613649	3.53515086	16.19179308
4.17	417	0.064	-1.004	0.029	-13.0634424	-9.5111028	-1.2605076	92.42385498	3.5523396	16.1001198
4.18	418	0.067	-1.004	0.027	-13.5218088	-9.3965112	-1.3178034	92.28061548	3.56952834	16.00271694
4.19	419	0.069	-1.004	0.021	-14.0947668	-9.1100322	-1.3178034	92.1316464	3.59244666	15.91104366
4.2	420	0.071	-1.006	0.019	-14.5531332	-8.9381448	-1.432395	91.97121816	3.6096354	15.82509996
4.21	421	0.07	-1.005	0.017	-15.0687954	-9.2819196	-1.3178034	91.8165195	3.63255372	15.7276971
4.22	422	0.067	-1.004	0.016	-15.469866	-9.6256944	-1.2605076	91.65609126	3.64401288	15.63029424
4.23	423	0.064	-1.003	0.018	-15.8709366	-9.5683986	-1.0886202	91.48993344	3.66120162	15.53862096
4.24	424	0.061	-1.005	0.017	-16.5011904	-9.6256944	-1.2032118	91.31231646	3.67839036	15.4412181
4.25	425	0.061	-1.006	0.015	-17.3033316	-9.5683986	-1.4896908	91.1289699	3.6955791	15.34381524
4.26	426	0.06	-1.004	0.013	-17.9908812	-9.5683986	-1.718874	90.93989376	3.71849742	15.24641238
4.27	427	0.064	-1.003	0.011	-18.7357266	-9.3965112	-1.8334656	90.74508804	3.73568616	15.14900952
4.28	428	0.066	-1.007	0.009	-19.5951636	-9.3965112	-1.8907614	90.54455274	3.75860448	15.05733624
4.29	429	0.068	-1.011	0.005	-20.626488	-9.3392154	-1.6615782	90.3268287	3.77579322	14.95993338
4.3	430	0.069	-1.013	0.003	-21.485925	-9.3965112	-1.432395	90.10337508	3.79298196	14.86253052
4.31	431	0.066	-1.011	0.009	-22.4599536	-9.5683986	-1.0313244	89.8684623	3.80444112	14.76512766
4.32	432	0.066	-1.007	0.004	-23.8923486	-9.5683986	-0.859437	89.62209036	3.81590028	14.6677248
4.33	433	0.068	-1.009	0.002	-25.210152	-9.1100322	-0.8021412	89.35852968	3.82162986	14.57605152
4.34	434	0.068	-1.01	0	-26.5279554	-8.9954406	-0.859437	89.08350984	3.83308902	14.48437824
4.35	435	0.068	-1.007	-0.003	-27.5592798	-8.9954406	-0.859437	88.79703084	3.8388186	14.39270496
4.36	436	0.067	-1.005	-0.003	-28.7624916	-9.1100322	-0.859437	88.49909268	3.84454818	14.2953021
4.37	437	0.064	-1	-0.005	-29.9084076	-9.3392154	-0.8021412	88.18969536	3.85027776	14.19789924
4.38	438	0.064	-0.997	-0.011	-31.1116194	-9.3965112	-0.859437	87.86883888	3.85600734	14.10049638
4.39	439	0.066	-0.997	-0.014	-32.3148312	-9.3392154	-0.9167328	87.53652324	3.86173692	14.00309352
4.4	440	0.066	-0.993	-0.016	-33.8618178	-10.026765	-0.859437	87.18701886	3.8674665	13.89996108
4.41	441	0.067	-0.991	-0.016	-35.2942128	-10.313244	-0.8021412	86.82605532	3.8674665	13.79682864
4.42	442	0.066	-0.985	-0.017	-36.669312	-10.4851314	-0.859437	86.44217346	3.87319608	13.68796662
4.43	443	0.065	-0.98	-0.015	-38.101707	-10.886202	-0.859437	86.05256202	3.87319608	13.57337502
4.44	444	0.067	-0.976	-0.016	-39.6486936	-10.8289062	-1.0313244	85.64576184	3.87319608	13.45878342
4.45	445	0.066	-0.975	-0.019	-41.252976	-10.7143146	-1.145916	85.22177292	3.87892566	13.3499214
4.46	446	0.066	-0.973	-0.025	-42.9145542	-10.5424272	-1.3178034	84.78059526	3.87892566	13.24105938
4.47	447	0.067	-0.973	-0.027	-44.4615408	-10.313244	-1.3750992	84.32222886	3.88465524	13.13219736
4.48	448	0.067	-0.971	-0.025	-46.2377106	-10.1413566	-1.2032118	83.84667372	3.88465524	13.02333534
4.49	449	0.067	-0.96	-0.026	-47.6701056	-10.1986524	-1.0886202	83.35392984	3.88465524	12.91447332
4.5	450	0.066	-0.95	-0.034	-49.1597964	-10.026765	-1.0313244	82.85545638	3.87892566	12.81134088
4.51	451	0.065	-0.944	-0.036	-50.6494872	-9.7975818	-1.145916	82.3340646	3.87892566	12.70820844
4.52	452	0.061	-0.939	-0.033	-52.0245864	-10.1986524	-1.2605076	81.80121366	3.87319608	12.59934642
4.53	453	0.055	-0.926	-0.032	-53.6288688	-10.599723	-1.432395	81.25117398	3.8674665	12.4904844
4.54	454	0.054	-0.912	-0.029	-55.1758554	-10.2559482	-1.6042824	80.68394556	3.8674665	12.3758928
4.55	455	0.058	-0.899	-0.024	-56.5509546	-9.7975818	-1.8907614	80.11098756	3.8674665	12.27276036
4.56	456	0.061	-0.887	-0.025	-58.3271244	-9.453807	-2.1772404	79.51511124	3.8674665	12.16962792
4.57	457	0.065	-0.875	-0.028	-59.874111	-9.167328	-2.3491278	78.90204618	3.87319608	12.07222506
4.58	458	0.067	-0.863	-0.028	-61.306506	-9.453807	-2.2345362	78.27179238	3.87319608	11.96909262
4.59	459	0.064	-0.843	-0.018	-62.8534926	-9.8548776	-2.3491278	77.63007942	3.8674665	11.8602306
4.6	460	0.059	-0.82	-0.016	-64.457775	-10.4851314	-2.291832	76.9769073	3.8674665	11.745639
4.61	461	0.054	-0.798	-0.027	-65.7755784	-10.1413566	-2.4637194	76.30081686	3.86173692	11.63677698
4.62	462	0.054	-0.78	-0.033	-66.9787902	-9.9694692	-2.6929026	75.61326726	3.86173692	11.52791496
4.63	463	0.045	-0.755	-0.019	-68.0674104	-10.4851314	-2.8074942	74.91998808	3.85600734	11.41332336
4.64	464	0.034	-0.716	-0.001	-69.1560306	-10.4851314	-2.86479	74.20952016	3.85027776	11.29873176
4.65	465	0.025	-0.672	0.006	-70.1300592	-9.3392154	-3.6669312	73.49905224	3.85600734	11.18986974
4.66	466	0.019	-0.632	0.001	-70.9322004	-7.3338624	-4.7555514	72.77712516	3.87319608	11.10392604
4.67	467	0.016	-0.603	-0.005	-71.3905668	-5.443101	-5.6722842	72.04373892	3.90757356	11.0294415
4.68	468	0.018	-0.575	-0.017	-71.61975	-3.437748	-6.589017	71.31608226	3.94768062	10.96641612
4.69	469	0.019	-0.541	-0.012	-71.9635248	-1.0886202	-7.448454	70.58269602	4.010706	10.92630906
4.7	470	0.016	-0.501	0.003	-72.1354122	1.2032118	-8.2505952	69.85503936	4.07946096	10.90339074
4.71	471	0	-0.452	0.004	-72.3645954	2.9793816	-8.4797784	69.11592354	4.15967508	10.89766116
4.72	472	0	-0.409	0.003	-71.5624542	5.3285094	-8.1360036	68.39399646	4.24561878	10.9148499
4.73	473	0	-0.384	-0.022	-70.9322004	4.6982556	-7.0473834	67.67206938	4.32010332	10.92630906
4.74	474	0.009	-0.368	-0.05	-69.2706222	3.2658606	-5.7868758	66.96733104	4.37739912	10.92630906
4.75	475	-0.008	-0.367	-0.087	-65.89017	2.578311	-4.1825934	66.30269976	4.4117766	10.93203864
4.76	476	-0.033	-0.367	-0.173	-65.4890994	5.3858052	-2.7501984	65.63806848	4.45188366	10.96641612
4.77	477	-0.045	-0.358	-0.242	-64.171296	8.880849	-1.8334656	64.99062594	4.49199072	11.03517108
4.78	478	-0.035	-0.338	-0.257	-58.441716	14.32395	0.0572958	64.40620878	4.54355694	11.16122184
4.79	479	-0.039	-0.272	-0.315	-53.9153478	19.3086846	3.151269	63.87335784	4.58939358	11.3445684
4.8	480	-0.052	-0.596	-0.498	-58.441716	20.9702628	5.9587632	63.2832111	4.60658232	11.55656286
4.81	481	0.019	-1.193	-0.626	-61.0773228	17.4179232	8.0787078	62.67587562	4.60085274	11.745639
4.82	482	0.05	-1.782	-0.744	-62.3378304	10.0840608	14.4385416	62.05708098	4.50917946	11.90033766
4.83	483	0.066	-2.244	-0.829	-66.0047616	8.2505952	24.064236	61.39817928	4.33156248	12.08368422
4.84	484	0.102	-2.501	-0.909	-75.1147938	14.4958374	28.4760126	60.65333388	4.13675676	12.34151532
4.85	485	0.128	-2.629	-0.989	-92.0743506	18.621135	23.2620948	59.73660108	4.010706	12.61080558
4.86	486	0.125	-2.691	-1.087	-109.0339074	17.8762896	16.6730778	58.6422513	3.94195104	12.84571836
4.87	487	0.198	-3.023	-1.121	-124.331886	16.7303736	9.9121734	57.39320286	3.9247623	13.0347945
4.88	488	0.445	-3.279	-1.259	-154.7559558	18.2200644	2.5210152	55.82902752	3.97632852	13.19522274
4.89	489	0.632	-3.196	-1.363	-174.3511194	12.9488508	-1.8907614	54.06431688	4.0393539	13.28116644
4.9	490	0.613	-2.874	-1.358	-189.5918022	5.2712136	-5.443101	52.139178	4.09092012	13.28689602
4.91	491	0.477	-2.439	-1.223	-202.1395824	-2.9220858	-8.4797784	50.08225878	4.11383844	13.20095232
4.92	492	0.259	-1.998	-0.996	-211.707981	-9.1100322	-11.8602306	47.9279367	4.11383844	13.04625366
4.93	493	0.085	-1.629	-0.78	-219.6720972	-13.4072172	-15.5844576	45.68194134	4.10810886	12.8342592
4.94	494	0.018	-1.346	-0.656	-225.4016772	-16.1001198	-17.6471064	43.37865018	4.09092012	12.58788726
4.95	495	0.052	-1.085	-0.556	-226.9486638	-17.8762896	-16.8449652	41.06962944	4.04508348	12.33578574
4.96	496	0.115	-0.885	-0.51	-227.9799882	-17.18874	-14.037471	38.73769038	3.97632852	12.11233212
4.97	497	0.154	-0.753	-0.513	-226.3757058	-16.6730778	-11.8602306	36.42866964	3.89038482	11.9175264
4.98	498	0.152	-0.639	-0.54	-222.7660704	-14.4385416	-10.026765	34.15975596	3.79871154	11.745639
4.99	499	0.09	-0.565	-0.482	-218.2397022	-13.3499214	-6.9327918	31.93667892	3.70130868	11.61385866
5	500	0.007	-0.5	-0.482	-216.3489408	-12.8342592	-3.2658606	29.74224978	3.57525792	11.52218538
5.01	501	-0.057	-0.446	-0.485	-212.6820096	-11.1153852	-2.4064236	27.58219812	3.46066632	11.44770084
5.02	502	-0.077	-0.381	-0.454	-209.2442616	-7.5630456	-2.5210152	25.45652394	3.3804522	11.39613462
5.03	503	-0.062	-0.327	-0.451	-205.0043724	-4.2398892	-3.2085648	23.37095682	3.32888598	11.35029798
5.04	504	0.004	-0.308	-0.461	-199.7331588	-0.6875496	-4.9274388	21.3426855	3.31169724	11.31019092
5.05	505	0.048	-0.309	-0.437	-194.1181704	0.0572958	-5.5576926	19.37743956	3.30596766	11.26435428
5.06	506	0.078	-0.292	-0.399	-188.2739988	2.5210152	-3.151269	17.46375984	3.31169724	11.25289512
5.07	507	0.095	-0.328	-0.339	-179.5650372	1.2032118	-1.8907614	15.6417534	3.30596766	11.24716554
5.08	508	0.061	-0.317	-0.357	-173.9500488	0.6302538	-2.005353	13.87704276	3.2945085	11.23570638
5.09	509	0.04	-0.308	-0.272	-163.4076216	1.2605076	-2.86479	12.21546456	3.2945085	11.21851764
5.1	510	0.058	-0.283	-0.168	-152.0630532	1.0313244	-6.589017	10.67993712	3.30023808	11.16695142
5.11	511	0.071	-0.235	-0.181	-138.942315	1.7761698	-9.0527364	9.26473086	3.31742682	11.0867373
5.12	512	0.064	-0.168	-0.085	-114.7061916	1.8334656	-10.886202	8.09016696	3.33461556	10.98933444
5.13	513	0.051	-0.167	0.007	-95.2829154	2.2345362	-10.599723	7.12186794	3.35753388	10.89766116
5.14	514	-0.021	-0.188	0.059	-83.2507974	2.2345362	-6.875496	6.26816052	3.3804522	10.84036536
5.15	515	-0.048	-0.167	0.09	-72.5364828	1.2605076	-0.1718874	5.54623344	3.3804522	10.84036536
5.16	516	-0.028	-0.13	0.165	-63.3691548	0.859437	6.5317212	4.90452048	3.37472262	10.9148499
5.17	517	0.041	-0.052	0.163	-56.3790672	3.0939732	6.7036086	4.33729206	3.39764094	10.98933444
5.18	518	0.054	-0.005	0.17	-50.5348956	6.4171296	6.6463128	3.82735944	3.44920716	11.06381898
5.19	519	0.007	0.093	0.137	-46.982556	9.5683986	13.464513	3.35753388	3.52942128	11.20705848
5.2	520	-0.052	0.148	0.1	-39.1330314	12.6623718	21.3713334	2.96219286	3.63255372	11.43624168
5.21	521	-0.141	0.146	0.079	-30.4813656	13.3499214	24.064236	2.66998428	3.74714532	11.6883432
5.22	522	-0.223	0.179	0.037	-22.4599536	19.480572	26.8717302	2.45798982	3.9247623	11.96909262
5.23	523	-0.293	0.262	-0.015	-18.5065434	28.7051958	30.8824362	2.291832	4.19405256	12.30140826
5.24	524	-0.255	0.344	-0.048	-10.0840608	34.7212548	29.6219286	2.2058883	4.52063862	12.61653516
5.25	525	-0.106	0.428	0.024	5.0993262	31.0543236	22.2307704	2.25172494	4.81857678	12.85717752
5.26	526	0.123	0.496	0.005	16.615782	17.9908812	12.2613012	2.42934192	4.99046418	12.99468744
5.27	527	0.278	0.67	-0.246	24.0069402	0	5.3858052	2.67571386	4.99046418	13.04625366
5.28	528	0.243	0.78	-0.582	52.0818822	-14.2666542	2.005353	3.2085648	4.85868384	13.05198324
5.29	529	0.186	0.721	-0.706	72.765666	-1.9480572	6.0733548	3.9534102	4.8414951	13.10354946
5.3	530	0.165	0.589	-0.668	71.4478626	25.0382646	16.6730778	4.65814854	5.08786704	13.28689602
5.31	531	0.037	0.582	-0.734	64.8588456	51.7954032	26.2414764	5.33996856	5.58061092	13.60202292
5.32	532	-0.082	0.691	-0.78	81.4746276	73.6823988	31.0543236	6.19940556	6.27961968	14.00309352
5.33	533	-0.108	0.784	-0.82	109.3203864	93.1629708	29.9084076	7.34532156	7.17343416	14.42708244
5.34	534	-0.056	0.823	-0.873	132.0095232	101.5281576	25.0382646	8.72615034	8.14173318	14.83388262
5.35	535	0.078	0.754	-0.859	138.8850192	98.7206634	19.0222056	10.16427492	9.08711388	15.20057574
5.36	536	0.152	0.645	-0.838	127.1393802	75.6877518	13.2926256	11.49353748	9.80904096	15.48705474
5.37	537	0.219	0.548	-0.813	111.2111478	54.0872352	9.453807	12.65091264	10.31897358	15.70477878
5.38	538	0.308	0.505	-0.752	85.9437	45.0917946	7.3338624	13.5504567	10.74869208	15.88812534
5.39	539	0.504	0.62	-1.053	69.0987348	47.555514	6.875496	14.28384294	11.18986974	16.08293106
5.4	540	0.285	0.698	-1.846	70.8176088	47.0971476	2.86479	15.02295876	11.64250656	16.23762972
5.41	541	-0.385	0.63	-3.209	62.3951262	38.2162986	-9.1100322	15.65894214	12.03784758	16.26054804
5.42	542	1.676	0.935	-3.992	-7.2192708	2.6929026	-16.1001198	15.55008012	12.10660254	16.10584938
5.43	543	2.392	1.115	-3.996	-89.7252228	-52.3683612	13.6364004	14.64480648	11.56229244	16.09439022
5.44	544	1.071	0.66	-3.869	-33.8618178	-74.0261736	10.4278356	14.28957252	10.8289062	15.99125778
5.45	545	0.429	-0.508	-2.679	-23.3193906	5.156622	-6.4171296	14.04320058	10.886202	15.94542114
5.46	546	0.32	-0.41	-2.61	-112.3570638	7.9068204	-14.6677248	12.88009584	10.98360486	15.83082954
5.47	547	0.518	0.224	-2.779	-99.4655088	27.501984	-9.8548776	11.8602306	11.2586247	15.80218164
5.48	548	0.36	0.452	-1.829	-46.9252602	30.653253	5.2712136	11.40759378	11.53364454	15.9282324
5.49	549	0.257	0.451	-0.96	-51.3943326	21.4286292	15.0114996	10.92057948	11.70553194	16.1287677
5.5	550	0.372	0.487	-0.779	-44.2323576	18.1054728	20.4546006	10.46794266	11.8602306	16.36368048
5.51	551	0.502	0.453	-0.532	-28.361421	3.4950438	21.199446	10.2273003	11.85450102	16.5871341
5.52	552	0.358	0.465	-0.419	-18.6784308	-7.2192708	15.6417534	10.06687206	11.75136858	16.7303736
5.53	553	0.214	0.436	-0.462	-8.9381448	-9.8548776	11.8602306	9.9981171	11.63677698	16.82777646
5.54	554	0.092	0.373	-0.465	3.0939732	-12.5477802	10.6570188	10.04968332	11.49353748	16.90799058
5.55	555	-0.003	0.367	-0.394	12.4904844	-9.3965112	12.2040054	10.16427492	11.37894588	17.00539344
5.56	556	-0.018	0.401	-0.372	20.626488	-1.9480572	15.2406828	10.3991877	11.33310924	17.15436252
5.57	557	0.051	0.45	-0.4	25.210152	4.3544808	14.2666542	10.6856667	11.35602756	17.3033316
5.58	558	0.115	0.502	-0.401	21.8296998	1.0886202	9.167328	10.92630906	11.35029798	17.39500488
5.59	559	0.114	0.445	-0.433	15.756345	-5.9014674	5.0420304	11.09819646	11.28154302	17.42938236
5.6	560	0.183	0.277	-0.572	8.8235532	-7.8495246	2.1772404	11.13830352	11.21851764	17.42938236
5.61	561	0.24	0.147	-0.741	4.6982556	-10.6570188	0.9740286	11.18414016	11.1153852	17.41219362
5.62	562	0.312	0.092	-0.924	2.6356068	-18.334656	0.9167328	11.20705848	10.93203864	17.38354572
5.63	563	0.398	0.15	-1.08	0.859437	-24.637194	0.6875496	11.20705848	10.69712586	17.33770908
5.64	564	0.431	0.227	-1.169	-0.859437	-29.1062664	0.7448454	11.19559932	10.41064686	17.28041328
5.65	565	0.413	0.228	-1.203	-1.7761698	-32.658606	1.0313244	11.1440331	10.10697912	17.21165832
5.66	566	0.374	0.167	-1.226	-2.0626488	-33.6899304	1.145916	11.1153852	9.77466348	17.14863294
5.67	567	0.303	0.077	-1.246	-2.9220858	-32.7731976	0.7448454	11.08100772	9.45953658	17.08560756
5.68	568	0.26	0.01	-1.158	-4.9274388	-27.2728008	-0.859437	11.02371192	9.1959759	17.0168526
5.69	569	0.299	-0.066	-1.129	-8.4224826	-23.7204612	-1.4896908	10.92630906	8.9667927	16.95382722
5.7	570	0.216	-0.082	-1.12	-10.1413566	-24.8663772	-2.0626488	10.8002583	8.73187992	16.8736131
5.71	571	0.152	-0.083	-1.04	-6.7036086	-20.5118964	-2.9793816	10.72004418	8.5370742	16.80485814
5.72	572	0.069	-0.108	-1.008	-4.010706	-12.318597	-1.8907614	10.67420754	8.4224826	16.7590215
5.73	573	0.004	-0.125	-0.964	-3.6669312	-4.583664	-0.572958	10.63410048	8.38237554	16.74183276
5.74	574	-0.007	-0.12	-0.933	-3.0939732	2.1772404	0.1145916	10.60545258	8.39956428	16.74756234
5.75	575	0.004	-0.123	-0.9	-1.3750992	7.0473834	-0.2291832	10.55961594	8.40529386	16.7590215
5.76	576	0.041	-0.131	-0.884	0.4010706	11.0007936	-0.572958	10.56534552	8.5084263	16.77621024
5.77	577	0.095	-0.131	-0.892	0.9167328	12.2040054	-0.9740286	10.57680468	8.62874748	16.79339898
5.78	578	0.131	-0.132	-0.91	2.005353	9.9694692	-1.6615782	10.59399342	8.73187992	16.79339898
5.79	579	0.145	-0.136	-0.929	3.3804522	5.8441716	-2.4064236	10.6283709	8.7949053	16.78193982
5.8	580	0.145	-0.139	-0.951	3.9534102	1.432395	-2.4637194	10.61118216	8.80063488	16.75329192
5.81	581	0.14	-0.148	-0.973	4.4117766	-3.5523396	-2.291832	10.65128922	8.77198698	16.72464402
5.82	582	0.125	-0.164	-0.99	4.6982556	-8.1932994	-2.5210152	10.69139628	8.69750244	16.68453696
5.83	583	0.114	-0.182	-1.001	4.9274388	-10.7143146	-3.437748	10.73723292	8.60009958	16.62724116
5.84	584	0.114	-0.195	-1.006	5.156622	-11.9748222	-3.8388186	10.78306956	8.49123756	16.5584862
5.85	585	0.114	-0.195	-1.016	5.156622	-12.1467096	-4.1825934	10.81744704	8.37091638	16.48973124
5.86	586	0.121	-0.179	-0.992	4.7555514	-11.4018642	-4.297185	10.8575541	8.27351352	16.42670586
5.87	587	0.152	-0.159	-0.978	3.3804522	-10.4851314	-3.4950438	10.886202	8.17611066	16.36941006
5.88	588	0.134	-0.122	-0.987	1.4896908	-13.1207382	-2.5210152	10.89766116	8.05578948	16.31211426
5.89	589	0.134	-0.086	-0.97	2.291832	-12.8342592	-2.291832	10.9148499	7.9354683	16.26054804
5.9	590	0.131	-0.071	-0.969	2.578311	-7.5630456	-1.9480572	10.83463578	7.86098376	16.2147114
5.91	591	0.127	-0.056	-0.983	0.9740286	-1.0886202	-1.2605076	10.84609494	7.8495246	16.20325224
5.92	592	0.138	-0.036	-0.987	0.0572958	6.1306506	-0.1718874	10.84609494	7.9068204	16.2147114
5.93	593	0.156	-0.016	-0.986	0.286479	9.9694692	0.8021412	10.85182452	8.00422326	16.2433593
5.94	594	0.173	0.002	-0.984	0.6875496	12.1467096	2.005353	10.86328368	8.11881486	16.28919594
5.95	595	0.184	0.017	-0.973	0.8021412	12.891555	3.2658606	10.79452872	8.2505952	16.34076216
5.96	596	0.186	0.029	-0.957	1.3750992	11.745639	4.3544808	10.81744704	8.35945722	16.40951712
5.97	597	0.183	0.032	-0.948	1.9480572	9.9121734	4.870143	10.84609494	8.44540092	16.47827208
5.98	598	0.182	0.027	-0.948	1.718874	9.0527364	4.9847346	10.87474284	8.51988546	16.54702704
5.99	599	0.192	0.021	-0.963	1.0313244	8.3651868	4.8128472	10.89193158	8.59437	16.615782
6	600	0.198	0.015	-0.977	0.859437	6.589017	4.5263682	10.78306956	8.67458412	16.66161864
6.01	601	0.198	0.012	-0.985	0.6302538	4.870143	4.297185	10.8002583	8.71469118	16.71318486
6.02	602	0.195	0.013	-0.986	0.4010706	3.3231564	4.1252976	10.81171746	8.7376095	16.76475108
6.03	603	0.19	0.011	-0.985	0.5156622	1.718874	4.010706	10.82317662	8.74333908	16.80485814
6.04	604	0.179	0.011	-0.977	0.6875496	0.0572958	4.1252976	10.83463578	8.7376095	16.8449652
6.05	605	0.179	0.009	-0.973	0.7448454	-0.3437748	4.0680018	10.5710751	8.76052782	16.85642436
6.06	606	0.187	-0.002	-0.977	0.8021412	0.7448454	4.010706	10.58826384	8.76052782	16.89653142
6.07	607	0.199	-0.022	-0.985	0.286479	1.432395	4.0680018	10.59399342	8.7662574	16.94236806
6.08	608	0.206	-0.035	-0.984	0.2291832	1.145916	3.9534102	10.60545258	8.77198698	16.98247512
6.09	609	0.214	-0.045	-0.985	0.286479	1.3178034	3.4950438	10.61118216	8.77771656	17.02258218
6.1	610	0.219	-0.051	-0.989	0.1145916	1.2605076	2.86479	10.39345812	8.86938984	17.02831176
6.11	611	0.215	-0.052	-0.988	0.1718874	1.2032118	2.2345362	10.3991877	8.880849	17.05123008
6.12	612	0.21	-0.051	-0.984	0.3437748	1.3750992	1.4896908	10.41064686	8.88657858	17.0741484
6.13	613	0.201	-0.051	-0.979	0.4010706	2.005353	0.859437	10.41637644	8.9094969	17.08560756
6.14	614	0.198	-0.049	-0.977	0.7448454	2.6929026	0.1718874	10.42210602	8.93241522	17.09133714
6.15	615	0.199	-0.051	-0.974	0.9167328	3.4950438	-0.3437748	10.24448904	9.01262934	17.0741484
6.16	616	0.205	-0.053	-0.973	0.9740286	3.8388186	-0.859437	10.2559482	9.0527364	17.0741484
6.17	617	0.204	-0.049	-0.969	1.4896908	2.86479	-1.3178034	10.27313694	9.08711388	17.06841882
6.18	618	0.203	-0.044	-0.965	2.291832	1.718874	-1.6615782	10.29032568	9.10430262	17.05123008
6.19	619	0.203	-0.04	-0.963	2.578311	1.3178034	-1.8907614	10.313244	9.12149136	17.03404134
6.2	620	0.201	-0.035	-0.963	2.578311	1.0313244	-1.8907614	10.15281576	9.17878716	16.99966386
6.21	621	0.202	-0.032	-0.963	2.578311	0.8021412	-1.9480572	10.18146366	9.19024632	16.98247512
6.22	622	0.203	-0.028	-0.97	2.6356068	0.4010706	-2.0626488	10.20438198	9.20170548	16.9595568
6.23	623	0.206	-0.024	-0.978	2.9220858	-0.0572958	-2.0626488	10.2273003	9.20170548	16.94236806
6.24	624	0.206	-0.02	-0.979	3.2085648	-0.5156622	-2.2345362	10.2559482	9.20170548	16.91372016
6.25	625	0.2	-0.018	-0.979	3.5523396	-1.0886202	-2.291832	10.12989744	9.2246238	16.8736131
6.26	626	0.191	-0.015	-0.978	3.5523396	-0.859437	-2.4637194	10.16427492	9.21889422	16.8449652
6.27	627	0.182	-0.011	-0.977	3.437748	-0.6875496	-2.4637194	10.19292282	9.21889422	16.8163173
6.28	628	0.178	-0.01	-0.98	3.5523396	-0.5156622	-2.4637194	10.2273003	9.21889422	16.79339898
6.29	629	0.179	-0.011	-0.977	3.4950438	-0.0572958	-2.3491278	10.2559482	9.21889422	16.77048066
6.3	630	0.181	-0.012	-0.973	3.3231564	0	-2.1199446	10.07833122	9.24754212	16.72464402
6.31	631	0.183	-0.015	-0.969	3.3231564	-0.4010706	-1.8907614	10.1127087	9.24181254	16.7017257
6.32	632	0.184	-0.016	-0.969	3.437748	-0.859437	-1.6042824	10.1413566	9.23608296	16.68453696
6.33	633	0.184	-0.018	-0.969	3.3231564	-1.2032118	-1.4896908	10.17573408	9.23035338	16.66734822
6.34	634	0.185	-0.019	-0.975	3.3804522	-1.2032118	-1.2605076	10.20438198	9.21889422	16.65015948
6.35	635	0.184	-0.022	-0.979	3.5523396	-1.0313244	-1.0313244	10.04395374	9.23608296	16.615782
6.36	636	0.184	-0.026	-0.98	3.3804522	-0.9740286	-0.859437	10.07833122	9.2246238	16.60432284
6.37	637	0.184	-0.026	-0.979	3.3804522	-1.0313244	-0.6302538	10.10697912	9.21889422	16.59286368
6.38	638	0.183	-0.026	-0.976	3.3804522	-0.7448454	-0.4583664	10.1413566	9.21316464	16.5871341
6.39	639	0.18	-0.025	-0.974	3.437748	-0.859437	-0.1718874	10.17573408	9.20170548	16.58140452
6.4	640	0.175	-0.026	-0.975	3.4950438	-0.6302538	0	9.95228046	9.21316464	16.55275662
6.41	641	0.173	-0.029	-0.971	3.3231564	-0.2291832	0.1145916	9.98665794	9.21316464	16.55275662
6.42	642	0.171	-0.03	-0.968	3.2658606	0	0.1718874	10.02103542	9.21316464	16.55275662
6.43	643	0.169	-0.031	-0.967	3.3804522	0.1718874	0.1718874	10.0554129	9.21316464	16.55275662
6.44	644	0.17	-0.029	-0.967	3.151269	0.3437748	0.3437748	10.08979038	9.21889422	16.5584862
6.45	645	0.17	-0.03	-0.972	3.0366774	0.7448454	0.3437748	9.8835255	9.23608296	16.53556788
6.46	646	0.174	-0.03	-0.975	3.151269	1.0313244	0.4010706	9.9121734	9.24754212	16.54129746
6.47	647	0.178	-0.029	-0.979	3.3231564	1.3178034	0.4583664	9.94655088	9.25900128	16.54702704
6.48	648	0.181	-0.029	-0.975	3.437748	1.3178034	0.6302538	9.98665794	9.27046044	16.5584862
6.49	649	0.184	-0.028	-0.973	3.6669312	1.0886202	0.7448454	10.026765	9.2819196	16.56994536
6.5	650	0.186	-0.029	-0.972	3.4950438	0.9167328	0.9167328	9.86060718	9.31629708	16.55275662
6.51	651	0.189	-0.03	-0.975	3.2085648	0.9740286	0.9740286	9.89498466	9.32202666	16.56421578
6.52	652	0.19	-0.031	-0.977	3.151269	1.145916	0.859437	9.92936214	9.33348582	16.57567494
6.53	653	0.192	-0.03	-0.979	3.151269	1.0886202	0.7448454	9.96373962	9.34494498	16.5871341
6.54	654	0.195	-0.027	-0.978	3.2658606	0.8021412	0.572958	9.9981171	9.35067456	16.59286368
6.55	655	0.199	-0.024	-0.976	3.2658606	0.8021412	0.6302538	9.7975818	9.40224078	16.57567494
6.56	656	0.199	-0.022	-0.973	3.151269	0.5156622	0.572958	9.83195928	9.40797036	16.58140452
6.57	657	0.198	-0.018	-0.969	3.2085648	0.1718874	0.6302538	9.86633676	9.40797036	16.5871341
6.58	658	0.199	-0.016	-0.969	3.2085648	0	0.572958	9.90071424	9.40797036	16.59286368
6.59	659	0.199	-0.019	-0.971	3.2085648	-0.1145916	0.5156622	9.92936214	9.40224078	16.59859326
6.6	660	0.199	-0.022	-0.973	3.2085648	-0.1145916	0.4010706	9.70017894	9.453807	16.56994536
6.61	661	0.199	-0.024	-0.973	3.2085648	-0.1718874	0.3437748	9.73455642	9.453807	16.57567494
6.62	662	0.199	-0.025	-0.974	3.2085648	-0.3437748	0.4010706	9.7689339	9.44807742	16.57567494
6.63	663	0.197	-0.024	-0.975	3.2085648	-0.8021412	0.286479	9.7975818	9.43661826	16.58140452
6.64	664	0.194	-0.024	-0.974	3.2085648	-0.9740286	0.1145916	9.83195928	9.43088868	16.57567494
6.65	665	0.194	-0.026	-0.973	3.3804522	-0.6875496	0.1145916	9.6256944	9.45953658	16.54702704
6.66	666	0.194	-0.029	-0.972	3.3804522	-0.4583664	0.0572958	9.66007188	9.453807	16.54702704
6.67	667	0.195	-0.027	-0.974	3.3231564	-0.286479	0.1145916	9.69444936	9.453807	16.54702704
6.68	668	0.194	-0.026	-0.973	3.2658606	-0.4583664	0	9.72882684	9.44807742	16.54702704
6.69	669	0.195	-0.026	-0.971	3.2658606	-0.286479	0	9.76320432	9.44807742	16.54702704
6.7	670	0.194	-0.026	-0.97	3.3804522	-0.1145916	0	9.52829154	9.4824549	16.51264956
6.71	671	0.196	-0.026	-0.972	3.3804522	-0.4010706	0	9.56266902	9.4824549	16.51264956
6.72	672	0.197	-0.027	-0.971	3.2658606	-0.7448454	0.1145916	9.59131692	9.47672532	16.51264956
6.73	673	0.196	-0.028	-0.968	3.0939732	-0.9740286	0.2291832	9.6256944	9.46526616	16.51264956
6.74	674	0.191	-0.028	-0.968	2.9793816	-1.3750992	0.2291832	9.6543423	9.44807742	16.51264956
6.75	675	0.187	-0.029	-0.968	2.9220858	-1.6042824	0.1718874	9.47672532	9.45953658	16.48400166
6.76	676	0.186	-0.031	-0.968	2.7501984	-1.432395	0.0572958	9.50537322	9.44807742	16.48400166
6.77	677	0.187	-0.033	-0.968	2.6929026	-1.0313244	-0.0572958	9.53402112	9.43661826	16.47827208
6.78	678	0.19	-0.033	-0.972	2.7501984	-0.9167328	-0.1145916	9.56266902	9.4251591	16.47827208
6.79	679	0.194	-0.032	-0.974	2.7501984	-0.859437	0	9.59131692	9.41942952	16.4725425
6.8	680	0.195	-0.028	-0.972	2.6356068	-0.9740286	0.1145916	9.35640414	9.453807	16.4438946
6.81	681	0.193	-0.025	-0.976	2.578311	-1.2032118	0.286479	9.38505204	9.44234784	16.4438946
6.82	682	0.19	-0.021	-0.976	2.4637194	-1.3750992	0.4010706	9.40797036	9.4251591	16.4438946
6.83	683	0.187	-0.02	-0.973	2.578311	-1.3750992	0.572958	9.43661826	9.41369994	16.44962418
6.84	684	0.185	-0.019	-0.971	2.86479	-1.0886202	0.572958	9.47099574	9.40224078	16.44962418
6.85	685	0.183	-0.019	-0.969	3.151269	-0.9167328	0.572958	9.2819196	9.41369994	16.42670586
6.86	686	0.183	-0.02	-0.972	3.0366774	-0.7448454	0.4583664	9.31629708	9.40224078	16.43243544
6.87	687	0.185	-0.022	-0.978	2.9793816	-0.6302538	0.3437748	9.34494498	9.3965112	16.43243544
6.88	688	0.187	-0.023	-0.981	3.0939732	-0.6875496	0.286479	9.37932246	9.39078162	16.43243544
6.89	689	0.187	-0.022	-0.981	3.3231564	-0.5156622	0.286479	9.41369994	9.38505204	16.43816502
6.9	690	0.189	-0.023	-0.982	3.3804522	-0.4583664	0.3437748	9.2246238	9.40797036	16.40951712
6.91	691	0.188	-0.024	-0.98	3.3231564	-0.3437748	0.4583664	9.25900128	9.40797036	16.4152467
6.92	692	0.189	-0.025	-0.979	3.3231564	-0.4010706	0.5156622	9.29337876	9.40224078	16.42097628
6.93	693	0.19	-0.025	-0.976	3.151269	-0.3437748	0.5156622	9.32775624	9.3965112	16.42097628
6.94	694	0.189	-0.027	-0.975	3.0366774	-0.4010706	0.4583664	9.35640414	9.39078162	16.42670586
6.95	695	0.189	-0.029	-0.976	3.0939732	-0.4010706	0.4010706	9.15586884	9.41942952	16.39805796
6.96	696	0.189	-0.028	-0.975	3.151269	-0.4583664	0.4583664	9.18451674	9.41369994	16.40378754
6.97	697	0.19	-0.027	-0.976	3.151269	-0.5156622	0.4583664	9.21889422	9.40797036	16.40951712
6.98	698	0.19	-0.026	-0.976	3.151269	-0.5156622	0.5156622	9.2532717	9.40224078	16.40951712
6.99	699	0.19	-0.027	-0.976	3.0939732	-0.4010706	0.572958	9.28764918	9.40224078	16.4152467
7	700	0.19	-0.028	-0.976	0.8021412	0.286479	0.286479	8.31935016	9.54548028	16.29492552
7.01	701	0.191	-0.028	-0.976	0	0.572958	0.2291832	8.31935016	9.55120986	16.3006551
7.02	702	0.192	-0.03	-0.975	0	0.4583664	0.0572958	8.31935016	9.55693944	16.3006551
7.03	703	0.192	-0.026	-0.975	0	0.1718874	0.1145916	8.31935016	9.55693944	16.30638468
7.04	704	0.191	-0.024	-0.977	0.1145916	0.1145916	0.0572958	8.31935016	9.55693944	16.30638468
7.05	705	0.19	-0.023	-0.977	0.1145916	0.1145916	0	6.61193532	9.77466348	16.08293106
7.06	706	0.19	-0.024	-0.979	0.1718874	0	0	6.61193532	9.77466348	16.08293106
7.07	707	0.19	-0.026	-0.979	0.2291832	0	-0.0572958	6.6176649	9.77466348	16.07720148
7.08	708	0.191	-0.026	-0.978	0.286479	-0.0572958	0	6.6176649	9.77466348	16.07720148
7.09	709	0.191	-0.024	-0.976	0.3437748	-0.1718874	0	6.62339448	9.77466348	16.07720148
7.1	710	0.191	-0.023	-0.973	0.4583664	-0.1718874	0	5.60925882	9.90644382	15.94542114
7.11	711	0.192	-0.024	-0.973	0.3437748	-0.1145916	0.0572958	5.60925882	9.90644382	15.94542114
7.12	712	0.193	-0.022	-0.973	0.4010706	-0.1145916	0	5.6149884	9.90071424	15.94542114
7.13	713	0.193	-0.024	-0.975	0.5156622	-0.2291832	0.0572958	5.62071798	9.90071424	15.94542114
7.14	714	0.193	-0.025	-0.975	0.5156622	-0.2291832	0.0572958	5.62644756	9.89498466	15.94542114
7.15	715	0.192	-0.026	-0.977	0.5156622	-0.286479	0.1145916	5.04775998	9.97519878	15.86520702
7.16	716	0.191	-0.025	-0.974	0.5156622	-0.4583664	0.1145916	5.05348956	9.9694692	15.86520702
7.17	717	0.19	-0.023	-0.971	0.6875496	-0.7448454	0.0572958	5.05921914	9.95801004	15.86520702
7.18	718	0.189	-0.024	-0.972	0.859437	-0.7448454	0.2291832	5.06494872	9.95228046	15.8709366
7.19	719	0.19	-0.026	-0.975	0.859437	-0.6875496	0.2291832	5.07640788	9.94655088	15.8709366
7.2	720	0.19	-0.029	-0.977	0.6875496	-0.7448454	0.2291832	4.85868384	9.96373962	15.8422887
7.21	721	0.19	-0.03	-0.977	0.5156622	-0.859437	0.1718874	4.86441342	9.95801004	15.8422887
7.22	722	0.189	-0.031	-0.976	0.6302538	-0.9167328	0.1145916	4.870143	9.94655088	15.8422887
7.23	723	0.189	-0.029	-0.974	0.6875496	-0.9167328	0.0572958	4.88160216	9.93509172	15.8422887
7.24	724	0.188	-0.028	-0.972	0.572958	-0.859437	0	4.88733174	9.92936214	15.8422887
7.25	725	0.189	-0.028	-0.974	0.3437748	-0.8021412	0	4.61804148	9.95228046	15.80218164
7.26	726	0.187	-0.029	-0.974	0.286479	-0.859437	0.0572958	4.61804148	9.94655088	15.80218164
7.27	727	0.188	-0.03	-0.976	0.1718874	-0.8021412	0	4.62377106	9.93509172	15.80218164
7.28	728	0.187	-0.03	-0.975	0.286479	-0.7448454	0	4.62377106	9.92936214	15.80218164
7.29	729	0.185	-0.03	-0.975	0.3437748	-0.572958	0	4.62950064	9.92363256	15.80218164
7.3	730	0.183	-0.027	-0.976	0.3437748	-0.8021412	-0.1145916	4.40031744	9.92363256	15.76207458
7.31	731	0.182	-0.026	-0.973	0.4010706	-0.7448454	-0.1145916	4.40604702	9.91790298	15.76207458
7.32	732	0.184	-0.027	-0.974	0.3437748	-0.5156622	-0.1145916	4.40604702	9.9121734	15.756345
7.33	733	0.188	-0.027	-0.976	0.4010706	-0.8021412	0	4.4117766	9.90071424	15.756345
7.34	734	0.19	-0.027	-0.974	0.4010706	-1.0313244	0.1145916	4.41750618	9.89498466	15.756345
7.35	735	0.189	-0.025	-0.969	0.3437748	-1.0886202	0.1718874	4.23415962	9.9121734	15.73342668
7.36	736	0.186	-0.028	-0.968	0.0572958	-1.0886202	0.1718874	4.23415962	9.90071424	15.73342668
7.37	737	0.184	-0.031	-0.969	0	-0.8021412	0.1145916	4.23415962	9.89498466	15.73342668
7.38	738	0.184	-0.033	-0.969	0	-0.1718874	0	4.23415962	9.89498466	15.73342668
7.39	739	0.185	-0.036	-0.969	0	0.0572958	-0.0572958	4.23415962	9.89498466	15.73342668
7.4	740	0.187	-0.036	-0.974	0.1145916	0	-0.0572958	3.37472262	10.03822416	15.61883508
7.41	741	0.19	-0.034	-0.977	0.1145916	-0.3437748	0	3.37472262	10.03249458	15.61883508
7.42	742	0.191	-0.032	-0.977	-0.1145916	0	0	3.37472262	10.03249458	15.61883508
7.43	743	0.19	-0.029	-0.977	-0.2291832	0	0	3.37472262	10.03249458	15.61883508
7.44	744	0.187	-0.026	-0.976	-0.0572958	-0.2291832	0.1145916	3.36899304	10.026765	15.62456466
7.45	745	0.185	-0.025	-0.975	-0.0572958	-0.0572958	0.0572958	2.29756158	10.09551996	15.45840684
7.46	746	0.185	-0.026	-0.974	0.1145916	0	0	2.29756158	10.09551996	15.45840684
7.47	747	0.183	-0.029	-0.975	0.1145916	0	-0.1718874	2.29756158	10.09551996	15.45267726
7.48	748	0.183	-0.029	-0.973	0.1145916	0.0572958	-0.286479	2.30329116	10.09551996	15.45267726
7.49	749	0.184	-0.027	-0.973	0.1718874	0	-0.286479	2.30329116	10.09551996	15.44694768
7.5	750	0.185	-0.026	-0.976	0.1718874	0	-0.286479	2.16005166	10.10697912	15.42402936
7.51	751	0.188	-0.026	-0.976	0.1718874	0	-0.286479	2.16005166	10.10697912	15.41829978
7.52	752	0.187	-0.027	-0.976	0.1718874	0	-0.1145916	2.16005166	10.10697912	15.41829978
7.53	753	0.187	-0.03	-0.974	0.0572958	0.1145916	-0.0572958	2.16005166	10.1127087	15.41829978
7.54	754	0.187	-0.031	-0.973	0	0.2291832	0	2.16005166	10.1127087	15.41829978
7.55	755	0.188	-0.032	-0.972	0	0.1718874	0	1.90222056	10.1700045	15.38965188
7.56	756	0.187	-0.032	-0.974	0	0.1718874	0	1.90222056	10.1700045	15.38965188
7.57	757	0.185	-0.033	-0.972	0.0572958	0.286479	0	1.90795014	10.17573408	15.38965188
7.58	758	0.183	-0.033	-0.973	0	0.286479	0	1.90222056	10.17573408	15.38965188
7.59	759	0.183	-0.034	-0.974	-0.0572958	0.1718874	0	1.90222056	10.17573408	15.38965188
7.6	760	0.182	-0.032	-0.975	0	0	0.0572958	1.38655836	10.12989744	15.28078986
7.61	761	0.181	-0.032	-0.974	-0.0572958	0.1145916	0.0572958	1.38655836	10.12989744	15.28651944
7.62	762	0.181	-0.032	-0.975	-0.1718874	0.286479	0.0572958	1.38082878	10.12989744	15.28651944
7.63	763	0.181	-0.033	-0.971	-0.286479	0.5156622	0.1145916	1.38082878	10.13562702	15.28651944
7.64	764	0.18	-0.035	-0.97	-0.2291832	0.7448454	0.0572958	1.3750992	10.14708618	15.28651944
7.65	765	0.18	-0.035	-0.972	-0.1718874	0.8021412	0	1.35218088	10.14708618	15.28651944
7.66	766	0.181	-0.035	-0.972	-0.286479	0.7448454	-0.1145916	1.3464513	10.15854534	15.28078986
7.67	767	0.185	-0.034	-0.971	-0.3437748	0.572958	-0.2291832	1.34072172	10.16427492	15.28078986
7.68	768	0.186	-0.035	-0.972	-0.286479	0.572958	-0.1145916	1.34072172	10.1700045	15.28078986
7.69	769	0.186	-0.033	-0.973	-0.286479	0.6302538	-0.1145916	1.33499214	10.17573408	15.28078986
7.7	770	0.184	-0.031	-0.974	-0.3437748	0.6302538	0.0572958	1.30061466	10.18146366	15.27506028
7.71	771	0.18	-0.029	-0.976	-0.3437748	0.7448454	0.0572958	1.29488508	10.18719324	15.27506028
7.72	772	0.181	-0.029	-0.972	-0.3437748	0.859437	0.0572958	1.29488508	10.1986524	15.27506028
7.73	773	0.181	-0.03	-0.973	-0.286479	0.859437	0.1145916	1.2891555	10.20438198	15.27506028
7.74	774	0.184	-0.031	-0.972	-0.286479	1.145916	0.1145916	1.28342592	10.21584114	15.28078986
7.75	775	0.185	-0.03	-0.971	-0.3437748	1.2605076	0.1145916	1.2605076	10.23302988	15.28078986
7.76	776	0.186	-0.03	-0.972	-0.3437748	1.2605076	0.1145916	1.2605076	10.24448904	15.28078986
7.77	777	0.185	-0.03	-0.97	-0.286479	1.145916	0.1145916	1.25477802	10.2559482	15.28651944
7.78	778	0.184	-0.031	-0.968	-0.4583664	1.2032118	0	1.24904844	10.26740736	15.28651944
7.79	779	0.183	-0.031	-0.968	-0.5156622	1.2032118	0	1.24331886	10.27886652	15.28651944
7.8	780	0.183	-0.031	-0.969	-0.5156622	1.145916	0	1.22040054	10.29032568	15.28078986
7.81	781	0.184	-0.032	-0.968	-0.5156622	1.0886202	0	1.21467096	10.30178484	15.28078986
7.82	782	0.186	-0.033	-0.969	-0.5156622	0.9167328	0.0572958	1.20894138	10.313244	15.28651944
7.83	783	0.187	-0.035	-0.968	-0.4583664	0.7448454	0.1718874	1.20894138	10.31897358	15.28651944
7.84	784	0.187	-0.036	-0.967	-0.6302538	0.9740286	0.1718874	1.19748222	10.33043274	15.29224902
7.85	785	0.187	-0.036	-0.969	-0.6302538	1.0886202	0.0572958	1.18602306	10.3418919	15.29224902
7.86	786	0.188	-0.036	-0.971	-0.6302538	1.2032118	0.1718874	1.18029348	10.35335106	15.29224902
7.87	787	0.189	-0.035	-0.974	-0.6302538	1.0886202	0.1718874	1.1745639	10.36481022	15.2979786
7.88	788	0.188	-0.033	-0.976	-0.6875496	1.0313244	0.1718874	1.16883432	10.37626938	15.2979786
7.89	789	0.187	-0.034	-0.976	-0.5156622	0.8021412	0.286479	1.16310474	10.38199896	15.30370818
7.9	790	0.185	-0.035	-0.974	-0.572958	0.6875496	0.2291832	1.145916	10.38199896	15.30370818
7.91	791	0.183	-0.035	-0.974	-0.572958	0.572958	0.2291832	1.14018642	10.38772854	15.30370818
7.92	792	0.182	-0.032	-0.974	-0.6875496	0.8021412	0.1718874	1.13445684	10.3991877	15.30943776
7.93	793	0.181	-0.03	-0.975	-0.6875496	0.859437	0.1145916	1.12872726	10.40491728	15.30943776
7.94	794	0.183	-0.031	-0.975	-0.6875496	0.9167328	0.0572958	1.1172681	10.41637644	15.30943776
7.95	795	0.183	-0.031	-0.972	-0.7448454	1.2605076	0.0572958	1.10007936	10.42210602	15.30943776
7.96	796	0.187	-0.031	-0.975	-0.8021412	1.432395	0	1.09434978	10.43929476	15.30943776
7.97	797	0.19	-0.029	-0.977	-0.7448454	1.0886202	0	1.08289062	10.45075392	15.30943776
7.98	798	0.191	-0.026	-0.974	-0.8021412	0.6302538	0.0572958	1.07716104	10.4564835	15.30943776
7.99	799	0.188	-0.026	-0.972	-0.7448454	0.286479	0.1718874	1.07143146	10.4564835	15.31516734
8	800	0.183	-0.029	-0.972	-0.7448454	0.3437748	0.1145916	1.04278356	10.45075392	15.30943776
8.01	801	0.182	-0.032	-0.973	-0.572958	0.4583664	0.0572958	1.03705398	10.4564835	15.30943776
8.02	802	0.182	-0.036	-0.972	-0.1145916	0.2291832	0	1.03705398	10.4564835	15.30943776
8.03	803	0.185	-0.037	-0.973	-0.1718874	0.3437748	-0.0572958	1.03705398	10.46221308	15.30943776
8.04	804	0.187	-0.037	-0.976	-0.1145916	0.1145916	0	1.03705398	10.46221308	15.30943776
8.05	805	0.19	-0.036	-0.977	-0.1145916	0	-0.0572958	0.99121734	10.47940182	15.30943776
8.06	806	0.191	-0.033	-0.979	-0.1718874	-0.1718874	0	0.98548776	10.47940182	15.30943776
8.07	807	0.188	-0.032	-0.977	-0.2291832	-0.3437748	0.1718874	0.98548776	10.47367224	15.30943776
8.08	808	0.185	-0.029	-0.975	-0.1718874	-0.572958	0.2291832	0.98548776	10.46794266	15.30943776
8.09	809	0.184	-0.029	-0.973	-0.0572958	-0.4010706	0.1718874	0.97975818	10.46221308	15.31516734
8.1	810	0.183	-0.029	-0.971	-0.1145916	-0.286479	0.0572958	0.93392154	10.43929476	15.2979786
8.11	811	0.183	-0.031	-0.972	-0.0572958	-0.1718874	-0.0572958	0.93392154	10.43929476	15.2979786
8.12	812	0.184	-0.029	-0.973	0	-0.0572958	-0.0572958	0.93392154	10.43356518	15.2979786
8.13	813	0.185	-0.029	-0.974	0.0572958	0	-0.1718874	0.93392154	10.43356518	15.2979786
8.14	814	0.186	-0.027	-0.975	0.0572958	0	-0.1718874	0.93392154	10.43356518	15.29224902
8.15	815	0.187	-0.028	-0.976	0.0572958	-0.1718874	-0.0572958	0.88235532	10.4278356	15.28078986
8.16	816	0.188	-0.029	-0.974	0.1145916	-0.286479	-0.1145916	0.88235532	10.42210602	15.28078986
8.17	817	0.187	-0.03	-0.975	0.0572958	-0.1145916	0	0.88235532	10.42210602	15.28078986
8.18	818	0.187	-0.032	-0.975	0.0572958	0	-0.0572958	0.88235532	10.42210602	15.28078986
8.19	819	0.187	-0.033	-0.975	0	0.1145916	-0.0572958	0.88235532	10.4278356	15.28078986
8.2	820	0.186	-0.033	-0.975	-0.0572958	0.1718874	-0.0572958	0.87089616	10.41637644	15.27506028
8.21	821	0.187	-0.033	-0.972	-0.0572958	0.2291832	-0.1145916	0.87089616	10.42210602	15.27506028
8.22	822	0.187	-0.031	-0.973	0.1145916	0	0	0.87089616	10.42210602	15.27506028
8.23	823	0.186	-0.031	-0.973	0.286479	-0.1145916	0.0572958	0.87089616	10.42210602	15.27506028
8.24	824	0.186	-0.03	-0.975	0.4010706	-0.286479	0.0572958	0.87662574	10.41637644	15.27506028
8.25	825	0.184	-0.032	-0.975	0.2291832	0.0572958	0	0.84797784	10.39345812	15.26360112
8.26	826	0.184	-0.033	-0.976	0.1145916	0	0	0.85370742	10.39345812	15.26360112
8.27	827	0.185	-0.033	-0.973	0.0572958	0.286479	0	0.85370742	10.3991877	15.26360112
8.28	828	0.186	-0.032	-0.972	0	0.4010706	0	0.85370742	10.40491728	15.26360112
8.29	829	0.187	-0.032	-0.971	0	0.0572958	-0.0572958	0.85370742	10.40491728	15.26360112
8.3	830	0.189	-0.032	-0.973	-0.0572958	0	-0.1145916	0.81932994	10.42210602	15.25787154
8.31	831	0.191	-0.033	-0.974	-0.0572958	-0.0572958	-0.0572958	0.81932994	10.41637644	15.25787154
8.32	832	0.191	-0.033	-0.971	-0.1145916	0	-0.1145916	0.81932994	10.41637644	15.25787154
8.33	833	0.19	-0.032	-0.973	-0.1145916	-0.0572958	-0.0572958	0.81360036	10.41637644	15.25787154
8.34	834	0.19	-0.032	-0.975	-0.1145916	0.0572958	0	0.81360036	10.41637644	15.25787154
8.35	835	0.188	-0.03	-0.974	-0.1145916	0	0	0.76776372	10.41064686	15.24641238
8.36	836	0.186	-0.028	-0.975	0	0.0572958	0.0572958	0.76776372	10.41064686	15.25214196
8.37	837	0.186	-0.027	-0.976	0	0.1718874	0	0.76776372	10.41637644	15.25214196
8.38	838	0.186	-0.029	-0.975	0	0.286479	0	0.76776372	10.41637644	15.25214196
8.39	839	0.187	-0.03	-0.974	0.0572958	0.2291832	0	0.76776372	10.42210602	15.25214196
8.4	840	0.189	-0.031	-0.974	0	0.1718874	0	0.75057498	10.4278356	15.24641238
8.41	841	0.189	-0.03	-0.972	0	0	0	0.75057498	10.4278356	15.24641238
8.42	842	0.189	-0.028	-0.971	-0.0572958	0	0	0.7448454	10.4278356	15.24641238
8.43	843	0.19	-0.028	-0.973	-0.0572958	0.0572958	-0.0572958	0.7448454	10.4278356	15.24641238
8.44	844	0.189	-0.029	-0.972	0.1145916	0.1145916	-0.1145916	0.75057498	10.4278356	15.24641238
8.45	845	0.189	-0.031	-0.973	0.0572958	0.2291832	0	0.73911582	10.4278356	15.2406828
8.46	846	0.188	-0.031	-0.971	0.0572958	0.1145916	0.0572958	0.73911582	10.43356518	15.2406828
8.47	847	0.189	-0.032	-0.973	0.0572958	0.1145916	0	0.73911582	10.43356518	15.2406828
8.48	848	0.187	-0.031	-0.974	0.0572958	-0.0572958	0	0.73911582	10.43356518	15.24641238
8.49	849	0.189	-0.031	-0.974	0	-0.0572958	0	0.73911582	10.4278356	15.24641238
8.5	850	0.188	-0.033	-0.973	0	-0.1145916	-0.0572958	0.72765666	10.4278356	15.2406828
8.51	851	0.188	-0.033	-0.973	0	-0.1145916	-0.1145916	0.72765666	10.42210602	15.2406828
8.52	852	0.188	-0.033	-0.975	0.0572958	-0.1145916	-0.0572958	0.72765666	10.42210602	15.23495322
8.53	853	0.189	-0.032	-0.973	-0.0572958	-0.1718874	-0.1145916	0.72765666	10.42210602	15.23495322
8.54	854	0.19	-0.031	-0.973	-0.0572958	-0.1145916	-0.0572958	0.72765666	10.41637644	15.23495322
8.55	855	0.192	-0.031	-0.974	0	-0.1145916	0	0.71046792	10.4278356	15.23495322
8.56	856	0.192	-0.031	-0.972	0.0572958	-0.1718874	0	0.71046792	10.4278356	15.23495322
8.57	857	0.191	-0.03	-0.972	0.0572958	-0.3437748	0	0.71046792	10.42210602	15.23495322
8.58	858	0.188	-0.03	-0.973	0.0572958	-0.5156622	0	0.71046792	10.41637644	15.23495322
8.59	859	0.186	-0.03	-0.974	0	-0.5156622	0	0.71046792	10.41064686	15.23495322
8.6	860	0.184	-0.031	-0.975	0	-0.3437748	0	0.70473834	10.3991877	15.22922364
8.61	861	0.186	-0.031	-0.974	-0.0572958	-0.4010706	0	0.70473834	10.39345812	15.22922364
8.62	862	0.187	-0.031	-0.974	-0.1718874	-0.0572958	-0.0572958	0.69900876	10.39345812	15.22922364
8.63	863	0.192	-0.03	-0.973	-0.2291832	0.0572958	0	0.69900876	10.39345812	15.22922364
8.64	864	0.194	-0.029	-0.971	-0.5156622	-0.6302538	0	0.69327918	10.38772854	15.22922364
8.65	865	0.194	-0.029	-0.969	-0.859437	-1.2605076	0	0.68182002	10.37626938	15.22922364
8.66	866	0.192	-0.032	-0.97	-1.2605076	-1.7761698	-0.1145916	0.67036086	10.35908064	15.22349406
8.67	867	0.188	-0.034	-0.971	-1.432395	-2.1199446	-0.1145916	0.65317212	10.33616232	15.22349406
8.68	868	0.184	-0.033	-0.97	-1.6042824	-2.1772404	0	0.63598338	10.31897358	15.22349406
8.69	869	0.182	-0.033	-0.973	-1.718874	-1.8907614	0	0.61879464	10.29605526	15.22349406
8.7	870	0.182	-0.033	-0.974	-1.6615782	-2.005353	0.0572958	0.60733548	10.27886652	15.22349406
8.71	871	0.185	-0.033	-0.979	-1.8334656	-2.291832	0.0572958	0.58441716	10.2559482	15.22349406
8.72	872	0.188	-0.034	-0.977	-2.4064236	-3.4950438	0.1718874	0.56149884	10.21584114	15.22349406
8.73	873	0.188	-0.028	-0.966	-2.9220858	-4.583664	0.3437748	0.53285094	10.1700045	15.22349406
8.74	874	0.189	-0.024	-0.964	-2.9793816	-4.9274388	0.4583664	0.50420304	10.12416786	15.22922364
8.75	875	0.192	-0.027	-0.969	-3.0939732	-5.3285094	0.7448454	0.47555514	10.07260164	15.23495322
8.76	876	0.191	-0.03	-0.974	-3.6096354	-6.3598338	0.9167328	0.44117766	10.00957626	15.2406828
8.77	877	0.19	-0.028	-0.969	-4.297185	-8.1360036	1.0886202	0.39534102	9.92936214	15.25214196
8.78	878	0.189	-0.021	-0.963	-4.4117766	-10.5424272	1.3178034	0.35523396	9.82050012	15.26360112
8.79	879	0.189	-0.012	-0.972	-3.9534102	-12.5477802	1.6615782	0.32085648	9.70017894	15.27506028
8.8	880	0.181	-0.004	-0.984	-2.2345362	-15.8136408	1.9480572	0.29793816	9.5397507	15.29224902
8.81	881	0.174	0.004	-0.958	0.1718874	-18.9649098	2.2345362	0.30366774	9.35067456	15.30370818
8.82	882	0.17	0.002	-0.947	2.4637194	-20.6837838	2.578311	0.33804522	9.15013926	15.3266265
8.83	883	0.159	0	-0.945	2.0626488	-21.8869956	2.578311	0.36096354	8.93241522	15.34381524
8.84	884	0.159	0	-0.939	3.3231564	-22.6891368	2.1199446	0.4010706	8.7089616	15.3552744
8.85	885	0.174	-0.012	-0.969	4.4690724	-22.9756158	1.5469866	0.45263682	8.4797784	15.36673356
8.86	886	0.175	-0.027	-0.969	6.3598338	-25.6685184	1.6615782	0.52139178	8.22767688	15.37246314
8.87	887	0.159	-0.037	-0.96	8.59437	-29.793816	1.7761698	0.61306506	7.9354683	15.37819272
8.88	888	0.144	-0.052	-0.932	12.1467096	-32.945085	2.1199446	0.7448454	7.60888224	15.3839223
