TimeStamp(s)	FrameCounter	AccX	AccY	AccZ	GyrX	GyrY	GyrZ	EulerX	EulerY	EulerZ
0.01	1	0.017	-0.99	0.175	0.859437	0.7448454	-1.3178034	96.66374418	0.72765666	-20.84994162
0.02	2	0.034	-0.983	0.206	0	0.1718874	-1.6615782	96.66374418	0.7448454	-20.84994162
0.03	3	0.034	-0.985	0.207	0.1145916	0.2291832	-1.4896908	96.66947376	0.75630456	-20.84421204
0.04	4	0.035	-0.987	0.211	0.0572958	0.2291832	-1.3750992	96.66947376	0.76776372	-20.83848246
0.05	5	0.036	-0.988	0.21	-0.0572958	0.3437748	-1.2605076	96.79552452	0.83651868	-20.84994162
0.06	6	0.038	-0.987	0.208	-0.1145916	0.1718874	-1.0313244	96.78979494	0.84797784	-20.84994162
0.07	7	0.038	-0.987	0.207	-0.1718874	-0.0572958	-1.0313244	96.78979494	0.859437	-20.84994162
0.08	8	0.038	-0.988	0.207	-0.286479	-0.1718874	-0.9167328	96.78406536	0.86516658	-20.84994162
0.09	9	0.036	-0.99	0.207	-0.1718874	-0.4010706	-1.0313244	96.78406536	0.87662574	-20.84994162
0.1	10	0.036	-0.991	0.208	-0.1718874	-0.3437748	-1.0886202	96.9158457	0.9453807	-20.87285994
0.11	11	0.034	-0.993	0.209	-0.1145916	-0.1145916	-1.0313244	96.9158457	0.95111028	-20.87285994
0.12	12	0.034	-0.992	0.208	-0.1145916	0.0572958	-1.0313244	96.9158457	0.96256944	-20.86713036
0.13	13	0.036	-0.99	0.207	-0.1145916	0	-0.9167328	96.91011612	0.9740286	-20.86713036
0.14	14	0.039	-0.988	0.207	-0.1718874	-0.3437748	-0.8021412	96.91011612	0.97975818	-20.87285994
0.15	15	0.04	-0.987	0.209	-0.1718874	-0.6302538	-0.859437	97.01897814	1.04278356	-20.89004868
0.16	16	0.039	-0.987	0.208	-0.2291832	-0.8021412	-0.859437	97.01897814	1.05424272	-20.90150784
0.17	17	0.038	-0.986	0.208	-0.1718874	-0.6302538	-0.9740286	97.01324856	1.06570188	-20.90150784
0.18	18	0.036	-0.987	0.207	-0.1718874	-0.3437748	-1.0313244	97.01324856	1.07143146	-20.90723742
0.19	19	0.036	-0.987	0.205	-0.1718874	-0.1718874	-1.0313244	97.01324856	1.08289062	-20.90723742
0.2	20	0.036	-0.989	0.205	-0.0572958	-0.1718874	-0.9740286	97.17940638	1.16310474	-20.92442616
0.21	21	0.036	-0.987	0.205	-0.1145916	-0.3437748	-0.9740286	97.17940638	1.16883432	-20.93015574
0.22	22	0.038	-0.985	0.204	0	-0.3437748	-1.0313244	97.17940638	1.18029348	-20.93015574
0.23	23	0.039	-0.987	0.203	0.1145916	-0.1718874	-1.0313244	97.17940638	1.19175264	-20.93015574
0.24	24	0.039	-0.987	0.202	0.2291832	0	-1.0313244	97.17940638	1.2032118	-20.93015574
0.25	25	0.039	-0.989	0.202	0.4010706	0.1145916	-0.9740286	97.31118672	1.27196676	-20.9416149
0.26	26	0.039	-0.989	0.203	0.4583664	0.0572958	-0.859437	97.3169163	1.27769634	-20.9416149
0.27	27	0.041	-0.987	0.205	0.572958	0.1145916	-0.8021412	97.32264588	1.2891555	-20.93588532
0.28	28	0.04	-0.988	0.206	0.572958	0.2291832	-0.7448454	97.32837546	1.29488508	-20.93588532
0.29	29	0.039	-0.989	0.205	0.6302538	0.286479	-0.8021412	97.33410504	1.30061466	-20.93015574
0.3	30	0.039	-0.99	0.205	0.572958	0.4010706	-0.8021412	97.43723748	1.35218088	-20.93588532
0.31	31	0.039	-0.989	0.204	0.572958	0.286479	-0.8021412	97.44296706	1.35791046	-20.93015574
0.32	32	0.039	-0.99	0.206	0.5156622	0.2291832	-0.859437	97.44869664	1.36936962	-20.93015574
0.33	33	0.039	-0.99	0.207	0.5156622	0.1718874	-0.859437	97.45442622	1.3750992	-20.92442616
0.34	34	0.038	-0.989	0.206	0.5156622	0.1718874	-0.859437	97.4601558	1.38655836	-20.92442616
0.35	35	0.037	-0.989	0.208	0.5156622	0.2291832	-0.9740286	97.56901782	1.432395	-20.92442616
0.36	36	0.037	-0.988	0.206	0.572958	0.286479	-1.0886202	97.5747474	1.43812458	-20.92442616
0.37	37	0.037	-0.987	0.205	0.6302538	0.286479	-1.0886202	97.58047698	1.44958374	-20.91869658
0.38	38	0.038	-0.985	0.208	0.7448454	0.5156622	-1.145916	97.58620656	1.4610429	-20.912967
0.39	39	0.041	-0.986	0.21	0.8021412	0.9167328	-1.2032118	97.59766572	1.47250206	-20.90150784
0.4	40	0.041	-0.987	0.209	0.6302538	1.0313244	-1.0886202	97.67215026	1.51260912	-20.89577826
0.41	41	0.042	-0.988	0.208	0.5156622	0.9740286	-0.9740286	97.67787984	1.5183387	-20.8843191
0.42	42	0.042	-0.989	0.208	0.5156622	0.7448454	-0.8021412	97.68360942	1.52406828	-20.87285994
0.43	43	0.041	-0.989	0.207	0.6302538	0.572958	-0.7448454	97.689339	1.52979786	-20.86713036
0.44	44	0.041	-0.987	0.206	0.8021412	0.5156622	-0.8021412	97.70079816	1.54125702	-20.86140078
0.45	45	0.041	-0.988	0.21	0.7448454	0.5156622	-0.859437	97.79820102	1.58136408	-20.86140078
0.46	46	0.039	-0.987	0.211	0.6875496	0.4583664	-0.9740286	97.8039306	1.59282324	-20.8556712
0.47	47	0.038	-0.989	0.21	0.6875496	0.4010706	-1.0886202	97.81538976	1.59855282	-20.84994162
0.48	48	0.039	-0.991	0.212	0.6302538	0.286479	-1.0313244	97.82111934	1.61001198	-20.84421204
0.49	49	0.04	-0.992	0.214	0.3437748	0.1718874	-0.9740286	97.82111934	1.62147114	-20.84421204
0.5	50	0.041	-0.989	0.213	0.3437748	-0.0572958	-0.859437	97.98154758	1.68449652	-20.8556712
0.51	51	0.041	-0.989	0.213	0.3437748	-0.0572958	-0.9167328	97.98154758	1.69595568	-20.8556712
0.52	52	0.04	-0.99	0.211	0.3437748	0	-0.9167328	97.98727716	1.70741484	-20.8556712
0.53	53	0.039	-0.99	0.21	0.3437748	0.2291832	-0.859437	97.98727716	1.71314442	-20.84994162
0.54	54	0.038	-0.988	0.209	0.3437748	0.4583664	-0.8021412	97.99300674	1.718874	-20.84421204
0.55	55	0.038	-0.986	0.21	0.4583664	0.572958	-0.7448454	98.0904096	1.75325148	-20.84421204
0.56	56	0.038	-0.985	0.21	0.6875496	0.572958	-0.6875496	98.09613918	1.75898106	-20.83275288
0.57	57	0.04	-0.985	0.21	0.6875496	0.6875496	-0.7448454	98.10186876	1.76471064	-20.8270233
0.58	58	0.042	-0.985	0.208	0.1145916	0.3437748	0.1145916	98.10759834	1.76471064	-20.82129372
0.59	59	0.042	-0.986	0.205	0.1145916	0.1718874	0.0572958	98.10759834	1.76471064	-20.82129372
0.6	60	0.041	-0.985	0.206	0.3437748	0.1145916	0.0572958	98.27375616	1.82773602	-20.83275288
0.61	61	0.04	-0.985	0.208	0.4583664	-0.0572958	0.0572958	98.27948574	1.82200644	-20.83275288
0.62	62	0.04	-0.985	0.209	0.4010706	-0.0572958	0	98.28521532	1.82773602	-20.83275288
0.63	63	0.04	-0.985	0.211	0.4010706	-0.0572958	-0.0572958	98.2909449	1.82773602	-20.83275288
0.64	64	0.04	-0.986	0.212	0.4010706	-0.1145916	-0.1145916	98.29667448	1.82773602	-20.83848246
0.65	65	0.042	-0.987	0.21	0.3437748	0	-0.0572958	98.57169432	1.93086846	-20.8556712
0.66	66	0.042	-0.989	0.208	0.4010706	-0.1718874	0	98.5774239	1.93086846	-20.8556712
0.67	67	0.045	-0.99	0.209	0.3437748	-0.286479	0	98.58315348	1.93086846	-20.86140078
0.68	68	0.044	-0.991	0.211	0.2291832	-0.4010706	0	98.58315348	1.93086846	-20.86713036
0.69	69	0.043	-0.989	0.213	0.1718874	-0.4583664	0.0572958	98.58888306	1.93086846	-20.87285994
0.7	70	0.04	-0.988	0.212	0.1145916	-0.1718874	0.0572958	98.8925508	2.01108258	-20.8843191
0.71	71	0.038	-0.989	0.213	0.1145916	0.2291832	0.1145916	98.8925508	2.01108258	-20.8843191
0.72	72	0.04	-0.987	0.212	0.1718874	0.4010706	0.1145916	98.8925508	2.005353	-20.87858952
0.73	73	0.042	-0.987	0.212	0.1718874	0.0572958	0.1145916	98.89828038	2.005353	-20.87858952
0.74	74	0.043	-0.989	0.212	0.0572958	-0.2291832	0	98.89828038	2.005353	-20.87858952
0.75	75	0.043	-0.99	0.212	0.1145916	-0.3437748	-0.1145916	99.04724946	2.0626488	-20.89577826
0.76	76	0.042	-0.99	0.214	0	-0.286479	-0.2291832	99.04724946	2.06837838	-20.89577826
0.77	77	0.043	-0.988	0.214	0.0572958	0	-0.3437748	99.04724946	2.06837838	-20.89577826
0.78	78	0.045	-0.988	0.213	0.0572958	0.286479	-0.3437748	99.04724946	2.07410796	-20.89004868
0.79	79	0.047	-0.988	0.213	0.0572958	0.3437748	-0.286479	99.05297904	2.07410796	-20.89004868
0.8	80	0.047	-0.986	0.212	0.0572958	0.3437748	-0.286479	99.16757064	2.13713334	-20.89577826
0.81	81	0.047	-0.986	0.213	0.1145916	0.286479	-0.2291832	99.16757064	2.13713334	-20.89004868
0.82	82	0.046	-0.985	0.213	0.1718874	0.286479	-0.2291832	99.16757064	2.14286292	-20.89004868
0.83	83	0.046	-0.984	0.214	0.1718874	0.2291832	-0.286479	99.17330022	2.14286292	-20.8843191
0.84	84	0.045	-0.984	0.216	0.2291832	0.3437748	-0.1718874	99.17330022	2.14286292	-20.8843191
0.85	85	0.045	-0.985	0.214	0.1718874	0.2291832	-0.2291832	99.2936214	2.20015872	-20.89004868
0.86	86	0.046	-0.987	0.215	0.286479	0.1718874	-0.2291832	99.29935098	2.2058883	-20.8843191
0.87	87	0.046	-0.987	0.215	0.4010706	0.2291832	-0.2291832	99.30508056	2.2058883	-20.8843191
0.88	88	0.046	-0.986	0.217	0.4583664	0.286479	-0.2291832	99.31081014	2.2058883	-20.87858952
0.89	89	0.045	-0.988	0.217	0.3437748	0.1145916	-0.1145916	99.31081014	2.21161788	-20.87858952
0.9	90	0.045	-0.988	0.22	0.2291832	0.1718874	-0.0572958	99.48842712	2.26891368	-20.8843191
0.91	91	0.045	-0.987	0.219	0.0572958	0.2291832	-0.1145916	99.48842712	2.27464326	-20.8843191
0.92	92	0.045	-0.985	0.218	-0.0572958	0.3437748	-0.1145916	99.48842712	2.27464326	-20.87858952
0.93	93	0.045	-0.986	0.217	-0.0572958	0.2291832	-0.1145916	99.48842712	2.27464326	-20.87858952
0.94	94	0.045	-0.985	0.22	-0.1718874	0	-0.1718874	99.48269754	2.27464326	-20.87858952
0.95	95	0.044	-0.986	0.219	-0.3437748	-0.2291832	-0.1718874	99.59155956	2.31475032	-20.8843191
0.96	96	0.045	-0.984	0.217	-0.3437748	-0.2291832	-0.2291832	99.58582998	2.3204799	-20.8843191
0.97	97	0.047	-0.985	0.214	-0.3437748	-0.1145916	-0.3437748	99.58582998	2.3204799	-20.8843191
0.98	98	0.047	-0.986	0.215	-0.286479	0.0572958	-0.4010706	99.5801004	2.32620948	-20.8843191
0.99	99	0.045	-0.986	0.216	-0.3437748	0	-0.2291832	99.5801004	2.32620948	-20.8843191
1	100	0.046	-0.985	0.214	-0.4010706	0.1145916	-0.1145916	99.6660441	2.37204612	-20.89004868
1.01	101	0.05	-0.986	0.214	-0.2291832	-0.0572958	-0.1718874	99.6660441	2.37204612	-20.89004868
1.02	102	0.048	-0.985	0.214	-0.2291832	-0.0572958	-0.1718874	99.66031452	2.37204612	-20.89004868
1.03	103	0.048	-0.986	0.213	-0.0572958	0.1718874	-0.2291832	99.66031452	2.3777757	-20.89004868
1.04	104	0.048	-0.987	0.214	0	0.286479	-0.286479	99.66031452	2.3777757	-20.8843191
1.05	105	0.047	-0.986	0.216	-0.1145916	0.3437748	-0.4010706	99.7519878	2.41788276	-20.8843191
1.06	106	0.047	-0.987	0.218	-0.2291832	0.1145916	-0.5156622	99.74625822	2.42361234	-20.8843191
1.07	107	0.049	-0.99	0.219	-0.286479	0.0572958	-0.5156622	99.74625822	2.42934192	-20.87858952
1.08	108	0.052	-0.99	0.22	-0.572958	0	-0.572958	99.74052864	2.4350715	-20.87858952
1.09	109	0.053	-0.99	0.217	-0.4583664	-0.4010706	-0.3437748	99.73479906	2.44080108	-20.8843191
1.1	110	0.053	-0.991	0.218	-0.4010706	-0.6302538	-0.2291832	99.78636528	2.48090814	-20.89577826
1.11	111	0.053	-0.991	0.219	-0.3437748	-0.6302538	-0.2291832	99.78636528	2.48663772	-20.90150784
1.12	112	0.052	-0.992	0.221	-0.6302538	-0.4583664	-0.286479	99.77490612	2.48663772	-20.90723742
1.13	113	0.05	-0.989	0.221	-0.859437	-0.2291832	-0.2291832	99.76917654	2.4923673	-20.90723742
1.14	114	0.047	-0.986	0.218	-0.859437	-0.286479	-0.1718874	99.75771738	2.4923673	-20.912967
1.15	115	0.046	-0.983	0.214	-0.7448454	-0.286479	-0.2291832	99.79782444	2.51528562	-20.912967
1.16	116	0.048	-0.983	0.213	-0.7448454	-0.4583664	-0.2291832	99.79209486	2.51528562	-20.91869658
1.17	117	0.05	-0.981	0.214	-0.6302538	-1.145916	-0.286479	99.78636528	2.5210152	-20.93015574
1.18	118	0.05	-0.98	0.216	-0.4010706	-1.6615782	-0.3437748	99.7806357	2.52674478	-20.94734448
1.19	119	0.048	-0.981	0.217	-0.5156622	-2.005353	-0.4583664	99.77490612	2.53820394	-20.96453322
1.2	120	0.047	-0.982	0.217	-0.5156622	-2.1772404	-0.572958	99.79209486	2.55539268	-20.98745154
1.21	121	0.046	-0.982	0.217	-0.572958	-2.1772404	-0.5156622	99.7806357	2.56685184	-21.00464028
1.22	122	0.046	-0.982	0.215	-0.572958	-1.8907614	-0.572958	99.77490612	2.57258142	-21.02182902
1.23	123	0.047	-0.982	0.216	-0.3437748	-1.4896908	-0.4583664	99.76917654	2.58404058	-21.03901776
1.24	124	0.05	-0.984	0.217	-0.1145916	-1.2032118	-0.3437748	99.76917654	2.58977016	-21.05047692
1.25	125	0.052	-0.983	0.219	0.0572958	-1.2032118	-0.286479	99.81501318	2.61841806	-21.06193608
1.26	126	0.053	-0.984	0.218	0	-1.2032118	-0.2291832	99.8092836	2.61841806	-21.07339524
1.27	127	0.052	-0.984	0.219	0	-1.2605076	-0.286479	99.8092836	2.62414764	-21.09058398
1.28	128	0.052	-0.983	0.218	0	-1.2032118	-0.3437748	99.8092836	2.62987722	-21.10204314
1.29	129	0.052	-0.984	0.218	0.1718874	-1.0313244	-0.3437748	99.8092836	2.6356068	-21.10777272
1.3	130	0.053	-0.986	0.219	0.286479	-0.7448454	-0.4010706	99.8665794	2.67571386	-21.11923188
1.31	131	0.058	-0.987	0.219	0.4010706	-0.4583664	-0.286479	99.87230898	2.67571386	-21.12496146
1.32	132	0.061	-0.987	0.22	0.5156622	-0.6875496	-0.286479	99.87803856	2.68144344	-21.13069104
1.33	133	0.062	-0.988	0.218	0.5156622	-0.859437	-0.1145916	99.88376814	2.68717302	-21.13642062
1.34	134	0.063	-0.99	0.219	0.1718874	-1.0313244	-0.1718874	99.88376814	2.68717302	-21.14787978
1.35	135	0.061	-0.989	0.218	0.1145916	-1.0886202	-0.0572958	99.93533436	2.72728008	-21.16506852
1.36	136	0.057	-0.985	0.22	0.1145916	-1.0886202	-0.1718874	99.93533436	2.73300966	-21.17652768
1.37	137	0.054	-0.981	0.221	0.286479	-1.0313244	-0.2291832	99.93533436	2.73873924	-21.18798684
1.38	138	0.054	-0.98	0.222	0.4010706	-0.6875496	-0.2291832	99.94106394	2.74446882	-21.19371642
1.39	139	0.056	-0.981	0.22	0.4583664	-0.5156622	-0.1718874	99.94679352	2.74446882	-21.199446
1.4	140	0.058	-0.982	0.217	0.4583664	-0.3437748	-0.1145916	100.0155485	2.79603504	-21.20517558
1.41	141	0.062	-0.982	0.216	0.4583664	-0.2291832	-0.0572958	100.0212781	2.79603504	-21.21090516
1.42	142	0.065	-0.98	0.217	0.6302538	-0.2291832	-0.1145916	100.0270076	2.79603504	-21.21090516
1.43	143	0.064	-0.98	0.218	0.6875496	-0.5156622	-0.0572958	100.0384668	2.80176462	-21.21663474
1.44	144	0.064	-0.982	0.218	0.6875496	-0.6875496	0	100.0441964	2.80176462	-21.22236432
1.45	145	0.063	-0.983	0.217	0.6875496	-0.7448454	0	100.090033	2.84187168	-21.23955306
1.46	146	0.063	-0.985	0.218	0.6875496	-0.7448454	0	100.1014922	2.84187168	-21.24528264
1.47	147	0.062	-0.986	0.218	0.6302538	-0.9167328	0	100.1072218	2.84760126	-21.2567418
1.48	148	0.061	-0.986	0.22	0.8021412	-0.9740286	0	100.1129513	2.84760126	-21.26247138
1.49	149	0.061	-0.986	0.221	0.859437	-0.859437	0.0572958	100.1244105	2.84760126	-21.27393054
1.5	150	0.063	-0.985	0.222	0.9167328	-0.9167328	0.1145916	100.1645176	2.88197874	-21.2853897
1.51	151	0.065	-0.986	0.223	0.9167328	-0.9167328	0.2291832	100.1759767	2.88197874	-21.29684886
1.52	152	0.065	-0.984	0.223	0.8021412	-1.0886202	0.286479	100.1817063	2.88197874	-21.30830802
1.53	153	0.063	-0.985	0.223	0.6302538	-0.9740286	0.3437748	100.1874359	2.87624916	-21.31976718
1.54	154	0.063	-0.985	0.223	0.5156622	-0.8021412	0.286479	100.1931655	2.87624916	-21.32549676
1.55	155	0.063	-0.985	0.222	0.572958	-0.5156622	0.1718874	100.2504613	2.91635622	-21.33695592
1.56	156	0.063	-0.986	0.222	0.5156622	-0.286479	0.286479	100.2561908	2.91635622	-21.3426855
1.57	157	0.062	-0.985	0.222	0.3437748	-0.4010706	0.4583664	100.2619204	2.91062664	-21.34841508
1.58	158	0.06	-0.984	0.221	0.4010706	-0.6302538	0.572958	100.26765	2.90489706	-21.35414466
1.59	159	0.06	-0.984	0.221	0.4583664	-0.5156622	0.6875496	100.26765	2.89916748	-21.35987424
1.6	160	0.061	-0.984	0.22	0.572958	-0.4010706	0.6875496	100.3077571	2.92781538	-21.3713334
1.61	161	0.061	-0.983	0.221	0.6302538	-0.3437748	0.6875496	100.3192162	2.9220858	-21.37706298
1.62	162	0.062	-0.982	0.225	0.286479	-0.1718874	0.572958	100.3192162	2.91635622	-21.37706298
1.63	163	0.059	-0.982	0.227	-0.2291832	0.1145916	0.4010706	100.3192162	2.91062664	-21.37706298
1.64	164	0.06	-0.983	0.229	-0.3437748	0.1145916	0.286479	100.3134866	2.91062664	-21.37706298
1.65	165	0.062	-0.984	0.229	-0.4010706	0.2291832	0.4010706	100.3822416	2.9507337	-21.38279256
1.66	166	0.063	-0.987	0.23	-0.3437748	0.3437748	0.572958	100.3822416	2.94500412	-21.37706298
1.67	167	0.065	-0.989	0.232	-0.2291832	0.6302538	0.9167328	100.376512	2.93354496	-21.37706298
1.68	168	0.067	-0.989	0.231	-0.1145916	0.9740286	1.0886202	100.376512	2.9220858	-21.36560382
1.69	169	0.068	-0.99	0.233	-0.3437748	1.145916	1.145916	100.376512	2.90489706	-21.35987424
1.7	170	0.067	-0.986	0.232	-0.6302538	1.2032118	1.2032118	100.3937008	2.91062664	-21.34841508
1.71	171	0.066	-0.982	0.23	-0.8021412	1.432395	1.2032118	100.3879712	2.8934379	-21.33695592
1.72	172	0.065	-0.979	0.228	-0.7448454	1.432395	1.145916	100.376512	2.88197874	-21.32549676
1.73	173	0.065	-0.977	0.229	-0.6875496	0.9740286	0.9740286	100.3707824	2.87051958	-21.31976718
1.74	174	0.061	-0.977	0.227	-0.572958	0.3437748	0.9740286	100.3650529	2.85906042	-21.3140376
1.75	175	0.061	-0.977	0.227	-0.4010706	0.3437748	0.9167328	100.4108895	2.88197874	-21.31976718
1.76	176	0.063	-0.979	0.228	-0.286479	0.4583664	0.8021412	100.4108895	2.87051958	-21.3140376
1.77	177	0.062	-0.977	0.23	-0.2291832	0.4583664	0.8021412	100.4051599	2.86479	-21.3140376
1.78	178	0.061	-0.978	0.231	-0.2291832	0.6302538	0.9167328	100.4051599	2.85333084	-21.30830802
1.79	179	0.062	-0.98	0.233	-0.286479	0.8021412	1.0886202	100.3994303	2.84187168	-21.30257844
1.8	180	0.064	-0.982	0.234	-0.5156622	0.9167328	1.2032118	100.4338078	2.84760126	-21.29684886
1.81	181	0.064	-0.984	0.23	-0.6875496	1.145916	1.3178034	100.4223487	2.8361421	-21.2853897
1.82	182	0.064	-0.986	0.231	-0.7448454	0.9740286	1.3750992	100.4166191	2.81895336	-21.27966012
1.83	183	0.063	-0.984	0.23	-0.8021412	0.8021412	1.432395	100.4108895	2.80176462	-21.27393054
1.84	184	0.062	-0.983	0.232	-0.859437	0.9167328	1.432395	100.3994303	2.78457588	-21.26820096
1.85	185	0.062	-0.982	0.232	-1.0886202	0.7448454	1.3750992	100.4166191	2.79030546	-21.26820096
1.86	186	0.063	-0.983	0.231	-1.2032118	0.7448454	1.432395	100.4051599	2.77311672	-21.26247138
1.87	187	0.063	-0.985	0.23	-1.2032118	0.9740286	1.6042824	100.3937008	2.75592798	-21.2567418
1.88	188	0.063	-0.986	0.231	-1.3750992	1.0886202	1.718874	100.3822416	2.73873924	-21.24528264
1.89	189	0.063	-0.984	0.231	-1.718874	0.859437	1.8907614	100.3650529	2.71582092	-21.23955306
1.9	190	0.063	-0.986	0.23	-1.9480572	0.6875496	1.9480572	100.3593233	2.71009134	-21.23955306
1.91	191	0.064	-0.987	0.23	-2.1772404	0.572958	1.9480572	100.336405	2.6929026	-21.23955306
1.92	192	0.062	-0.986	0.229	-2.2345362	0.6302538	1.8334656	100.3134866	2.66998428	-21.23382348
1.93	193	0.062	-0.985	0.227	-2.2345362	0.859437	1.8334656	100.2905683	2.65279554	-21.23382348
1.94	194	0.063	-0.986	0.227	-2.2345362	0.9740286	1.8334656	100.2733796	2.62987722	-21.2280939
1.95	195	0.063	-0.985	0.227	-2.1199446	0.8021412	1.8907614	100.26765	2.62414764	-21.22236432
1.96	196	0.06	-0.984	0.224	-2.1772404	0.6302538	1.9480572	100.2447317	2.6069589	-21.22236432
1.97	197	0.061	-0.981	0.224	-2.1772404	0.4010706	1.9480572	100.2218134	2.58404058	-21.22236432
1.98	198	0.058	-0.98	0.225	-2.1199446	0.4583664	1.8907614	100.198895	2.56685184	-21.21663474
1.99	199	0.058	-0.979	0.226	-2.005353	0.6875496	1.8907614	100.1817063	2.54393352	-21.21663474
2	200	0.059	-0.98	0.227	-2.1199446	0.859437	1.8334656	100.1759767	2.53820394	-21.21090516
2.01	201	0.06	-0.982	0.228	-2.2345362	0.9167328	1.8907614	100.1530584	2.51528562	-21.20517558
2.02	202	0.059	-0.982	0.226	-2.2345362	0.7448454	1.8907614	100.1358697	2.49809688	-21.20517558
2.03	203	0.059	-0.981	0.226	-2.1772404	0.7448454	2.005353	100.1129513	2.47517856	-21.199446
2.04	204	0.06	-0.983	0.231	-2.1199446	0.859437	1.9480572	100.090033	2.45798982	-21.19371642
2.05	205	0.06	-0.982	0.229	-2.1199446	1.0313244	1.8334656	100.090033	2.45226024	-21.18798684
2.06	206	0.058	-0.983	0.23	-2.0626488	1.145916	1.9480572	100.0671147	2.42934192	-21.18225726
2.07	207	0.058	-0.982	0.228	-2.005353	1.3178034	1.9480572	100.0441964	2.4064236	-21.1707981
2.08	208	0.058	-0.981	0.229	-1.7761698	1.145916	2.005353	100.0270076	2.38350528	-21.16506852
2.09	209	0.056	-0.983	0.231	-1.7761698	1.0886202	2.005353	100.0098189	2.36058696	-21.15933894
2.1	210	0.056	-0.982	0.231	-1.8334656	1.2032118	2.005353	100.0155485	2.35485738	-21.14787978
2.11	211	0.058	-0.983	0.23	-1.9480572	1.4896908	1.9480572	99.99835974	2.33193906	-21.1421502
2.12	212	0.059	-0.984	0.226	-1.9480572	1.5469866	1.8907614	99.97544142	2.30902074	-21.13069104
2.13	213	0.057	-0.985	0.225	-2.005353	1.6615782	1.8907614	99.95825268	2.28610242	-21.1135023
2.14	214	0.055	-0.985	0.225	-2.0626488	1.6042824	1.9480572	99.93533436	2.2631841	-21.10204314
2.15	215	0.054	-0.985	0.225	-2.1772404	1.432395	2.005353	99.92960478	2.25172494	-21.09631356
2.16	216	0.054	-0.984	0.224	-2.1199446	1.3178034	2.0626488	99.90668646	2.22880662	-21.0848544
2.17	217	0.053	-0.986	0.224	-2.0626488	1.2605076	2.0626488	99.88949772	2.2058883	-21.07912482
2.18	218	0.055	-0.987	0.226	-2.1199446	1.5469866	1.9480572	99.8665794	2.18296998	-21.06766566
2.19	219	0.055	-0.987	0.226	-2.3491278	1.718874	1.718874	99.84366108	2.16578124	-21.05047692
2.2	220	0.056	-0.986	0.228	-2.5210152	1.718874	1.6615782	99.8379315	2.16005166	-21.03901776
2.21	221	0.055	-0.986	0.228	-2.6929026	1.6042824	1.6042824	99.8092836	2.13713334	-21.0275586
2.22	222	0.054	-0.987	0.228	-2.7501984	1.5469866	1.6615782	99.7806357	2.1199446	-21.01609944
2.23	223	0.055	-0.989	0.229	-2.86479	1.6615782	1.6042824	99.7519878	2.10275586	-20.9989107
2.24	224	0.054	-0.99	0.229	-0.9740286	0.572958	-0.1145916	99.74625822	2.10275586	-20.99318112
2.25	225	0.056	-0.988	0.227	-0.9740286	0.8021412	0	99.79782444	2.14286292	-20.99318112
2.26	226	0.058	-0.989	0.224	-0.8021412	0.859437	0	99.78636528	2.14286292	-20.98172196
2.27	227	0.059	-0.99	0.223	-0.6875496	1.0886202	0	99.7806357	2.14286292	-20.9702628
2.28	228	0.058	-0.989	0.224	-0.859437	0.9740286	0	99.77490612	2.13713334	-20.96453322
2.29	229	0.053	-0.983	0.224	-1.2605076	0.5156622	-0.0572958	99.75771738	2.13713334	-20.95880364
2.3	230	0.051	-0.981	0.224	-1.3178034	0.6302538	-0.2291832	99.79209486	2.17151082	-20.95307406
2.31	231	0.051	-0.979	0.224	-1.3178034	0.6875496	-0.4583664	99.7806357	2.17151082	-20.94734448
2.32	232	0.052	-0.979	0.222	-1.2605076	0.9167328	-0.5156622	99.76917654	2.1772404	-20.93588532
2.33	233	0.053	-0.979	0.22	-1.2032118	1.145916	-0.4583664	99.7519878	2.1772404	-20.92442616
2.34	234	0.051	-0.981	0.218	-1.2032118	1.2605076	-0.5156622	99.74052864	2.18296998	-20.912967
2.35	235	0.051	-0.98	0.216	-1.0313244	1.3178034	-0.4583664	99.76344696	2.21161788	-20.90150784
2.36	236	0.052	-0.981	0.217	-0.6875496	1.145916	-0.5156622	99.75771738	2.21161788	-20.89004868
2.37	237	0.05	-0.98	0.219	-0.4010706	1.2605076	-0.6302538	99.7519878	2.21734746	-20.87285994
2.38	238	0.051	-0.983	0.222	-0.3437748	1.6615782	-0.572958	99.7519878	2.21734746	-20.8556712
2.39	239	0.05	-0.98	0.223	-0.3437748	2.0626488	-0.572958	99.74625822	2.22307704	-20.83275288
2.4	240	0.052	-0.979	0.223	-0.3437748	2.6929026	-0.6875496	99.77490612	2.24026578	-20.80983456
2.41	241	0.056	-0.982	0.219	-0.286479	3.2085648	-0.6875496	99.77490612	2.24599536	-20.77545708
2.42	242	0.057	-0.984	0.22	-0.1718874	3.2658606	-0.6875496	99.76917654	2.24599536	-20.7410796
2.43	243	0.055	-0.985	0.219	-0.0572958	3.0366774	-0.6302538	99.76917654	2.24599536	-20.7124317
2.44	244	0.051	-0.985	0.219	0	2.9793816	-0.6302538	99.76917654	2.24599536	-20.6837838
2.45	245	0.051	-0.988	0.217	0.0572958	3.437748	-0.7448454	99.79209486	2.2631841	-20.64940632
2.46	246	0.054	-0.988	0.215	0.1718874	3.3231564	-0.859437	99.79782444	2.2631841	-20.61502884
2.47	247	0.055	-0.988	0.215	0.0572958	2.8074942	-0.9740286	99.79782444	2.26891368	-20.58638094
2.48	248	0.056	-0.988	0.214	0	2.005353	-0.9740286	99.79782444	2.27464326	-20.56346262
2.49	249	0.055	-0.989	0.216	0	1.0886202	-1.0886202	99.80355402	2.28037284	-20.55200346
2.5	250	0.052	-0.99	0.216	0	0.3437748	-1.3178034	99.85512024	2.33193906	-20.54627388
2.51	251	0.048	-0.989	0.218	-0.1145916	-0.1718874	-1.4896908	99.84939066	2.34339822	-20.54627388
2.52	252	0.043	-0.989	0.217	-0.1718874	-0.286479	-1.6042824	99.84939066	2.36058696	-20.54627388
2.53	253	0.042	-0.988	0.214	-0.1718874	-0.1145916	-1.6615782	99.84939066	2.3777757	-20.54627388
2.54	254	0.041	-0.988	0.213	-0.1718874	0.2291832	-1.8334656	99.84366108	2.39496444	-20.5405443
2.55	255	0.042	-0.989	0.211	-0.2291832	0.4010706	-1.8907614	99.8665794	2.42361234	-20.53481472
2.56	256	0.043	-0.989	0.211	-0.4010706	0.286479	-1.8334656	99.86084982	2.44080108	-20.52908514
2.57	257	0.043	-0.988	0.211	-0.5156622	0.0572958	-1.8334656	99.85512024	2.45798982	-20.52335556
2.58	258	0.043	-0.986	0.212	-0.572958	-0.1145916	-1.8334656	99.84939066	2.47517856	-20.52335556
2.59	259	0.043	-0.987	0.212	-0.572958	-0.2291832	-2.0626488	99.84366108	2.49809688	-20.51762598
2.6	260	0.044	-0.987	0.214	-0.572958	-0.3437748	-2.1199446	99.8665794	2.52674478	-20.51762598
2.61	261	0.045	-0.986	0.215	-0.2291832	-0.572958	-2.1199446	99.86084982	2.5496631	-20.52335556
2.62	262	0.045	-0.986	0.214	-0.286479	-0.859437	-2.1772404	99.86084982	2.57258142	-20.52908514
2.63	263	0.045	-0.983	0.213	-0.286479	-1.0313244	-2.4064236	99.85512024	2.60122932	-20.53481472
2.64	264	0.047	-0.984	0.212	-0.1145916	-0.9740286	-2.4637194	99.85512024	2.62414764	-20.5405443
2.65	265	0.049	-0.983	0.212	0.0572958	-0.8021412	-2.6356068	99.87803856	2.65852512	-20.5405443
2.66	266	0.05	-0.982	0.212	0.2291832	-0.8021412	-2.6356068	99.87803856	2.68717302	-20.54627388
2.67	267	0.05	-0.984	0.214	0.1718874	-0.9740286	-2.8074942	99.87803856	2.7215505	-20.55200346
2.68	268	0.049	-0.982	0.213	0.286479	-1.3178034	-3.0939732	99.88376814	2.7501984	-20.55773304
2.69	269	0.05	-0.98	0.214	0.4010706	-1.2032118	-3.2085648	99.88949772	2.78457588	-20.56346262
2.7	270	0.051	-0.983	0.214	0.4583664	-0.859437	-3.5523396	99.90668646	2.83041252	-20.56346262
2.71	271	0.051	-0.982	0.213	0.4010706	-0.572958	-3.6096354	99.91241604	2.86479	-20.56346262
2.72	272	0.051	-0.984	0.21	0.572958	-0.4583664	-3.6669312	99.91814562	2.90489706	-20.56346262
2.73	273	0.053	-0.984	0.208	0.6875496	-0.3437748	-3.724227	99.9238752	2.93927454	-20.56346262
2.74	274	0.057	-0.986	0.211	0.859437	-0.286479	-3.7815228	99.93533436	2.9793816	-20.55773304
2.75	275	0.06	-0.986	0.212	0.9740286	-0.4010706	-3.8388186	99.95825268	3.02521824	-20.55773304
2.76	276	0.059	-0.986	0.211	1.0886202	-0.7448454	-3.8961144	99.96971184	3.0653253	-20.55773304
2.77	277	0.059	-0.986	0.214	1.0313244	-0.8021412	-4.1252976	99.981171	3.11116194	-20.55773304
2.78	278	0.06	-0.988	0.211	1.0313244	-0.6875496	-4.297185	99.99263016	3.151269	-20.55773304
2.79	279	0.061	-0.99	0.209	0.859437	-0.859437	-4.2398892	100.0040893	3.19710564	-20.55773304
2.8	280	0.06	-0.992	0.21	0.7448454	-1.0886202	-4.297185	100.0155485	3.24867186	-20.55773304
2.81	281	0.061	-0.992	0.21	0.6302538	-1.2605076	-4.297185	100.0270076	3.2945085	-20.56346262
2.82	282	0.062	-0.99	0.212	0.572958	-1.3750992	-4.3544808	100.0327372	3.34034514	-20.5691922
2.83	283	0.064	-0.99	0.213	0.572958	-1.2605076	-4.4117766	100.0384668	3.38618178	-20.57492178
2.84	284	0.063	-0.991	0.212	0.5156622	-1.0886202	-4.583664	100.0441964	3.43201842	-20.58065136
2.85	285	0.061	-0.989	0.212	0.572958	-0.9167328	-4.5263682	100.0613851	3.48358464	-20.58065136
2.86	286	0.062	-0.985	0.214	0.8021412	-0.4583664	-4.6982556	100.0671147	3.52942128	-20.57492178
2.87	287	0.066	-0.985	0.213	0.6875496	0	-4.9847346	100.0728443	3.57525792	-20.5691922
2.88	288	0.068	-0.984	0.212	0.4583664	0	-5.0993262	100.0785739	3.62682414	-20.55773304
2.89	289	0.067	-0.982	0.212	0.3437748	-0.5156622	-5.156622	100.0843034	3.67839036	-20.55200346
2.9	290	0.067	-0.982	0.21	0.286479	-0.859437	-5.3285094	100.0957626	3.73568616	-20.55200346
2.91	291	0.066	-0.981	0.21	0.4583664	-0.9740286	-5.6149884	100.1014922	3.79298196	-20.55200346
2.92	292	0.065	-0.981	0.211	0.6302538	-0.9167328	-6.0733548	100.1072218	3.85600734	-20.55200346
2.93	293	0.065	-0.981	0.21	0.8021412	-0.859437	-6.302538	100.1186809	3.91903272	-20.54627388
2.94	294	0.066	-0.981	0.211	0.859437	-0.8021412	-6.589017	100.1244105	3.98778768	-20.54627388
2.95	295	0.067	-0.983	0.212	0.9740286	-1.0313244	-6.7036086	100.1473288	4.05654264	-20.5405443
2.96	296	0.068	-0.983	0.213	1.0313244	-1.2605076	-6.875496	100.1530584	4.1252976	-20.5405443
2.97	297	0.069	-0.983	0.214	1.0886202	-1.5469866	-6.9900876	100.1645176	4.19978214	-20.54627388
2.98	298	0.07	-0.984	0.214	1.2605076	-1.6042824	-7.2192708	100.1817063	4.27426668	-20.54627388
2.99	299	0.073	-0.986	0.213	1.2032118	-1.3750992	-7.3338624	100.1931655	4.34875122	-20.54627388
3	300	0.072	-0.985	0.212	1.0886202	-1.2605076	-7.6776372	100.2103542	4.42323576	-20.54627388
3.01	301	0.071	-0.986	0.212	1.0313244	-1.3750992	-7.9641162	100.2218134	4.50344988	-20.54627388
3.02	302	0.072	-0.987	0.216	0.859437	-1.3178034	-8.1360036	100.2275429	4.58939358	-20.54627388
3.03	303	0.075	-0.986	0.217	0.572958	-1.145916	-8.4797784	100.2332725	4.67533728	-20.5405443
3.04	304	0.077	-0.985	0.215	0.572958	-1.5469866	-8.7662574	100.2390021	4.76128098	-20.5405443
3.05	305	0.082	-0.987	0.216	0.5156622	-2.1772404	-8.9381448	100.2504613	4.85868384	-20.54627388
3.06	306	0.08	-0.988	0.216	0.572958	-3.151269	-9.2246238	100.2561908	4.95035712	-20.55773304
3.07	307	0.077	-0.989	0.218	0.4010706	-3.3804522	-9.6829902	100.2619204	5.05348956	-20.57492178
3.08	308	0.076	-0.987	0.218	0.2291832	-2.9220858	-10.1986524	100.2619204	5.16235158	-20.58638094
3.09	309	0.076	-0.985	0.218	0.1718874	-2.291832	-10.4278356	100.2619204	5.26548402	-20.58638094
3.1	310	0.08	-0.982	0.218	0.3437748	-1.8334656	-10.4851314	100.2733796	5.36861646	-20.58638094
3.11	311	0.086	-0.984	0.217	0.4583664	-1.7761698	-10.599723	100.2791092	5.47747848	-20.58638094
3.12	312	0.089	-0.988	0.218	0.286479	-1.8907614	-10.8289062	100.2848387	5.5863405	-20.58065136
3.13	313	0.091	-0.989	0.216	0.1145916	-1.9480572	-11.0580894	100.2848387	5.7009321	-20.58065136
3.14	314	0.091	-0.989	0.216	0	-2.1199446	-11.172681	100.2848387	5.8155237	-20.58065136
3.15	315	0.091	-0.986	0.217	-0.286479	-2.1199446	-11.4018642	100.2848387	5.9301153	-20.58065136
3.16	316	0.095	-0.987	0.215	-0.5156622	-2.0626488	-11.6310474	100.2791092	6.0447069	-20.58065136
3.17	317	0.097	-0.986	0.214	-0.7448454	-3.0939732	-12.032118	100.2733796	6.17075766	-20.59211052
3.18	318	0.097	-0.988	0.216	-0.9167328	-3.6669312	-12.4331886	100.2619204	6.302538	-20.60356968
3.19	319	0.098	-0.988	0.215	-0.9740286	-3.6096354	-13.0061466	100.2504613	6.43431834	-20.61502884
3.2	320	0.099	-0.984	0.214	-1.0313244	-3.5523396	-13.5218088	100.2447317	6.57182826	-20.626488
3.21	321	0.102	-0.983	0.215	-0.9167328	-3.4950438	-13.9801752	100.2332725	6.71506776	-20.63221758
3.22	322	0.102	-0.985	0.212	-0.8021412	-3.6096354	-14.32395	100.2218134	6.86403684	-20.64367674
3.23	323	0.099	-0.986	0.211	-0.7448454	-3.5523396	-14.7250206	100.2160838	7.01300592	-20.6551359
3.24	324	0.101	-0.987	0.211	-0.8021412	-3.4950438	-15.0114996	100.2046246	7.16770458	-20.66086548
3.25	325	0.105	-0.986	0.212	-1.0886202	-4.1252976	-15.5271618	100.1931655	7.32240324	-20.67232464
3.26	326	0.104	-0.984	0.213	-1.2032118	-4.3544808	-15.8136408	100.1817063	7.48856106	-20.6837838
3.27	327	0.106	-0.986	0.212	-1.145916	-4.010706	-16.2147114	100.1702471	7.65471888	-20.69524296
3.28	328	0.108	-0.984	0.211	-1.145916	-3.0939732	-16.615782	100.158788	7.82660628	-20.69524296
3.29	329	0.109	-0.984	0.211	-1.432395	-2.578311	-16.902261	100.1415992	7.9927641	-20.69524296
3.3	330	0.115	-0.983	0.209	-1.4896908	-2.4637194	-17.0168526	100.1301401	8.1646515	-20.6837838
3.31	331	0.122	-0.982	0.21	-1.5469866	-3.151269	-17.18874	100.1129513	8.3365389	-20.6837838
3.32	332	0.122	-0.985	0.21	-1.3750992	-4.1825934	-17.3606274	100.1014922	8.51415588	-20.69524296
3.33	333	0.12	-0.986	0.209	-1.4896908	-4.9847346	-17.9335854	100.0843034	8.70323202	-20.7124317
3.34	334	0.118	-0.983	0.21	-1.5469866	-5.5576926	-18.3919518	100.0613851	8.89230816	-20.73535002
3.35	335	0.114	-0.982	0.212	-1.5469866	-5.5576926	-18.9649098	100.0441964	9.0813843	-20.75253876
3.36	336	0.115	-0.981	0.21	-1.6615782	-5.3858052	-19.2513888	100.0270076	9.2819196	-20.77545708
3.37	337	0.119	-0.981	0.207	-1.718874	-5.156622	-19.6524594	100.0098189	9.4824549	-20.79264582
3.38	338	0.125	-0.987	0.207	-1.718874	-4.870143	-19.8816426	99.98690058	9.68871978	-20.80410498
3.39	339	0.13	-0.989	0.208	-1.8334656	-4.9847346	-19.8243468	99.96398226	9.88925508	-20.81556414
3.4	340	0.142	-0.986	0.21	-1.8334656	-4.8128472	-19.6524594	99.94679352	10.08979038	-20.83275288
3.41	341	0.154	-0.988	0.213	-2.0626488	-5.0420304	-19.480572	99.9238752	10.29032568	-20.84421204
3.42	342	0.159	-0.988	0.211	-2.3491278	-5.9014674	-19.3659804	99.8952273	10.49086098	-20.86713036
3.43	343	0.161	-0.988	0.211	-2.4637194	-6.5317212	-19.4232762	99.8665794	10.69139628	-20.90150784
3.44	344	0.159	-0.982	0.21	-2.578311	-7.1046792	-19.480572	99.83220192	10.89766116	-20.93588532
3.45	345	0.155	-0.978	0.208	-2.578311	-7.7922288	-19.8243468	99.80355402	11.10392604	-20.98172196
3.46	346	0.155	-0.972	0.206	-1.9480572	-7.5630456	-20.4546006	99.77490612	11.3159205	-21.01609944
3.47	347	0.158	-0.971	0.202	-1.7761698	-7.161975	-21.0848544	99.7519878	11.53937412	-21.05047692
3.48	348	0.163	-0.975	0.204	-1.7761698	-7.2765666	-21.485925	99.7233399	11.76282774	-21.09058398
3.49	349	0.169	-0.979	0.205	-2.005353	-7.448454	-21.8869956	99.70042158	11.99201094	-21.12496146
3.5	350	0.178	-0.982	0.202	-2.3491278	-7.3338624	-22.058883	99.67177368	12.21546456	-21.15933894
3.51	351	0.188	-0.979	0.202	-2.8074942	-7.5057498	-22.1734746	99.63166662	12.45037734	-21.19371642
3.52	352	0.192	-0.975	0.201	-2.9220858	-7.8495246	-22.1734746	99.59728914	12.67956054	-21.23382348
3.53	353	0.197	-0.973	0.205	-2.9220858	-8.8235532	-22.2307704	99.55718208	12.91447332	-21.2853897
3.54	354	0.202	-0.97	0.202	-2.6929026	-9.2246238	-22.345362	99.51707502	13.15511568	-21.33695592
3.55	355	0.197	-0.964	0.204	-2.0626488	-9.3392154	-22.345362	99.48842712	13.38429888	-21.39425172
3.56	356	0.198	-0.964	0.206	-1.432395	-8.2505952	-22.6891368	99.45977922	13.62494124	-21.43435878
3.57	357	0.209	-0.972	0.204	-1.6615782	-6.4171296	-23.0902074	99.4368609	13.85985402	-21.46300668
3.58	358	0.217	-0.978	0.201	-2.6929026	-6.5317212	-23.1475032	99.408213	14.10049638	-21.485925
3.59	359	0.214	-0.972	0.201	-3.724227	-8.5370742	-22.8037284	99.35664678	14.34113874	-21.53749122
3.6	360	0.22	-0.966	0.182	-4.4117766	-7.1046792	-22.8610242	99.30508056	14.57605152	-21.56613912
3.61	361	0.238	-0.967	0.186	-4.010706	-6.7036086	-22.9756158	99.25351434	14.8109643	-21.6005166
3.62	362	0.251	-0.964	0.184	-4.9274388	-7.5057498	-22.9756158	99.19621854	15.05160666	-21.63489408
3.63	363	0.258	-0.958	0.189	-5.443101	-8.5370742	-23.1475032	99.12746358	15.29224902	-21.6864603
3.64	364	0.254	-0.957	0.197	-5.443101	-9.5683986	-23.3766864	99.05870862	15.54435054	-21.7437561
3.65	365	0.253	-0.958	0.197	-5.7868758	-9.5111028	-24.0069402	98.98995366	15.79072248	-21.8010519
3.66	366	0.255	-0.956	0.191	-6.0733548	-9.453807	-24.4080108	98.90973954	16.04855358	-21.8583477
3.67	367	0.257	-0.954	0.191	-5.5576926	-9.7975818	-24.8663772	98.84098458	16.31211426	-21.9156435
3.68	368	0.267	-0.951	0.186	-5.6149884	-9.0527364	-25.5539268	98.76650004	16.57567494	-21.96720972
3.69	369	0.277	-0.951	0.184	-6.0733548	-8.4797784	-26.069589	98.6920155	16.8449652	-22.01304636
3.7	370	0.286	-0.952	0.183	-6.6463128	-8.5370742	-26.5852512	98.61753096	17.11998504	-22.058883
3.71	371	0.295	-0.952	0.18	-7.161975	-8.9954406	-26.9863218	98.52585768	17.40073446	-22.11044922
3.72	372	0.301	-0.954	0.177	-7.6776372	-9.7975818	-27.2728008	98.4341844	17.68721346	-22.16774502
3.73	373	0.299	-0.953	0.174	-8.021412	-10.886202	-27.788463	98.33105196	17.97942204	-22.23649998
3.74	374	0.301	-0.949	0.174	-8.2505952	-11.2872726	-28.1895336	98.22791952	18.27163062	-22.31098452
3.75	375	0.299	-0.944	0.174	-8.6516658	-11.6883432	-28.4187168	98.11332792	18.56956878	-22.38546906
3.76	376	0.299	-0.938	0.177	-9.0527364	-11.745639	-28.7624916	97.99873632	18.87323652	-22.46568318
3.77	377	0.302	-0.934	0.177	-9.3965112	-11.8602306	-29.220858	97.87841514	19.17690426	-22.5458973
3.78	378	0.312	-0.937	0.173	-9.5683986	-11.9175264	-29.793816	97.75236438	19.49203116	-22.62611142
3.79	379	0.321	-0.94	0.17	-9.7975818	-12.5477802	-30.4813656	97.62631362	19.81288764	-22.7177847
3.8	380	0.33	-0.941	0.165	-9.9121734	-13.6364004	-30.8824362	97.49453328	20.13374412	-22.81518756
3.81	381	0.331	-0.94	0.164	-9.6256944	-14.610429	-31.4553942	97.36275294	20.46605976	-22.92404958
3.82	382	0.329	-0.939	0.161	-9.7975818	-14.4958374	-32.372127	97.22524302	20.80983456	-23.0329116
3.83	383	0.329	-0.939	0.162	-10.4851314	-14.037471	-33.4034514	97.08200352	21.15933894	-23.13604404
3.84	384	0.332	-0.938	0.16	-11.2872726	-14.2666542	-34.2628884	96.92730486	21.5145729	-23.23917648
3.85	385	0.336	-0.934	0.157	-11.9175264	-14.1520626	-35.1223254	96.7726062	21.88126602	-23.3480385
3.86	386	0.341	-0.931	0.151	-12.5477802	-13.8082878	-35.809875	96.60644838	22.25368872	-23.44544136
3.87	387	0.346	-0.928	0.145	-13.0634424	-14.037471	-36.2109456	96.43456098	22.62611142	-23.55430338
3.88	388	0.355	-0.927	0.143	-13.4072172	-15.1260912	-36.4974246	96.256944	23.00999328	-23.66889498
3.89	389	0.362	-0.928	0.143	-13.8655836	-16.5584862	-37.1849742	96.06213828	23.39387514	-23.8064049
3.9	390	0.371	-0.927	0.14	-14.4385416	-17.761698	-37.815228	95.86160298	23.78921616	-23.95537398
3.91	391	0.382	-0.928	0.134	-15.0114996	-18.9649098	-38.674665	95.64387894	24.19601634	-24.11580222
3.92	392	0.389	-0.932	0.127	-15.6990492	-20.1681216	-39.534102	95.41469574	24.6085461	-24.2934192
3.93	393	0.393	-0.939	0.126	-16.3865988	-21.8296998	-40.5081306	95.1683238	25.03253502	-24.48822492
3.94	394	0.399	-0.937	0.121	-17.2460358	-23.1475032	-41.1956802	94.89903354	25.4679831	-24.70021938
3.95	395	0.404	-0.935	0.117	-17.8189938	-24.5798982	-41.6540466	94.6240137	25.90343118	-24.93513216
3.96	396	0.402	-0.931	0.119	-18.3919518	-25.9549974	-42.2843004	94.33180512	26.34460884	-25.1815041
3.97	397	0.402	-0.925	0.123	-18.9649098	-27.3300966	-43.4302164	94.0224078	26.80297524	-25.45079436
3.98	398	0.405	-0.92	0.125	-19.480572	-28.4760126	-44.690724	93.69582174	27.2728008	-25.73154378
3.99	399	0.407	-0.918	0.122	-20.05353	-29.4500412	-46.123119	93.35777652	27.75408552	-26.02948194
4	400	0.408	-0.92	0.114	-20.3973048	-29.9084076	-47.2117392	93.01400172	28.24109982	-26.33314968
4.01	401	0.41	-0.922	0.106	-21.0275586	-29.7365202	-48.3003594	92.65876776	28.73957328	-26.642547
4.02	402	0.414	-0.921	0.104	-21.8296998	-29.7365202	-49.560867	92.28634506	29.25523548	-26.95194432
4.03	403	0.416	-0.919	0.106	-23.0902074	-30.4813656	-50.8213746	91.89673362	29.77662726	-27.27853038
4.04	404	0.425	-0.897	0.1	-24.2934192	-31.51269	-52.1964738	91.47847428	30.3094782	-27.62230518
4.05	405	0.425	-0.888	0.093	-24.5798982	-32.658606	-53.7434604	91.04875578	30.8537883	-27.98326872
4.06	406	0.43	-0.872	0.09	-24.9809688	-33.3461556	-55.3477428	90.60757812	31.41528714	-28.361421
4.07	407	0.423	-0.874	0.089	-25.3247436	-33.9191136	-56.8947294	90.14348214	31.98824514	-28.75103244
4.08	408	0.429	-0.877	0.09	-26.0122932	-34.091001	-58.3271244	89.667927	32.5726623	-29.15210304
4.09	409	0.44	-0.883	0.085	-26.7571386	-34.0337052	-59.4157446	89.1809127	33.16853862	-29.5646328
4.1	410	0.456	-0.884	0.083	-27.6738714	-34.5493674	-60.2178858	88.67098008	33.76441494	-29.98289214
4.11	411	0.473	-0.881	0.074	-28.5333084	-35.4661002	-61.020027	88.13812914	34.36602084	-30.42979938
4.12	412	0.481	-0.876	0.064	-29.793816	-36.955791	-62.2805346	87.56517114	34.9790859	-30.90535452
4.13	413	0.486	-0.872	0.059	-30.653253	-37.4714532	-64.0567044	86.9750244	35.60361012	-31.3980984
4.14	414	0.489	-0.858	0.058	-31.3408026	-37.4714532	-65.603691	86.36195934	36.2395935	-31.90803102
4.15	415	0.494	-0.85	0.057	-32.372127	-37.8725238	-66.3485364	85.73170554	36.87557688	-32.42369322
4.16	416	0.498	-0.854	0.049	-33.2888598	-38.2735944	-66.9214944	85.06707426	37.51728984	-32.96800332
4.17	417	0.504	-0.863	0.032	-34.6066632	-37.9298196	-66.9787902	84.37952466	38.15327322	-33.52377258
4.18	418	0.514	-0.859	0.025	-35.6952834	-38.7892566	-66.9214944	83.66332716	38.78352702	-34.10246016
4.19	419	0.516	-0.854	0.014	-37.4141574	-41.1383844	-66.5777196	82.88983386	39.39659208	-34.72698438
4.2	420	0.52	-0.839	-0.002	-38.8465524	-43.7166954	-66.5204238	82.0762335	39.99819798	-35.39734524
4.21	421	0.514	-0.842	0.004	-39.4768062	-47.6128098	-67.036086	81.19960776	40.59980388	-36.14219064
4.22	422	0.503	-0.831	0.012	-39.4768062	-49.6754586	-68.0101146	80.28860454	41.1956802	-36.93287268
4.23	423	0.498	-0.821	0.013	-39.8778768	-49.7327544	-69.0987348	79.34895342	41.7972861	-37.74647304
4.24	424	0.495	-0.81	0.01	-40.5654264	-49.9046418	-70.2446508	78.37492482	42.39316242	-38.5887213
4.25	425	0.494	-0.798	-0.005	-41.8832298	-49.7327544	-71.5051584	77.3779779	42.98903874	-39.44242872
4.26	426	0.488	-0.792	-0.014	-42.7426668	-50.5348956	-72.1354122	76.33519434	43.58491506	-40.34770236
4.27	427	0.473	-0.767	-0.006	-42.5134836	-51.7954032	-72.3645954	75.25230372	44.16360264	-41.28735348
4.28	428	0.465	-0.753	-0.02	-41.9978214	-50.993262	-72.8802576	74.16368352	44.73656064	-42.24419334
4.29	429	0.455	-0.747	-0.016	-41.7686382	-50.8786704	-74.1407652	73.04641542	45.31524822	-43.2296811
4.3	430	0.424	-0.729	-0.001	-41.4821592	-52.4829528	-75.1147938	71.90049942	45.87101748	-44.25527592
4.31	431	0.405	-0.719	-0.003	-40.0497642	-52.0818822	-75.4012728	70.73739468	46.42678674	-45.31524822
4.32	432	0.407	-0.694	-0.007	-40.2789474	-50.706783	-76.4325972	69.55137162	46.97682642	-46.38667968
4.33	433	0.415	-0.668	-0.005	-40.9092012	-49.7900502	-78.3233586	68.33670066	47.53259568	-47.48102946
4.34	434	0.412	-0.679	-0.01	-40.5081306	-49.274388	-79.5838662	67.09911138	48.08836494	-48.60975672
4.35	435	0.416	-0.667	-0.019	-41.0237928	-49.4462754	-79.5265704	65.8328742	48.62121588	-49.75567272
4.36	436	0.411	-0.639	-0.031	-40.966497	-50.133825	-78.5525418	64.52080038	49.1311485	-50.95315494
4.37	437	0.392	-0.612	-0.041	-40.6227222	-51.56622	-77.9795838	63.17434908	49.60670364	-52.19074422
4.38	438	0.37	-0.585	-0.042	-40.2789474	-52.5402486	-78.1514712	61.7935203	50.06507004	-53.46844056
4.39	439	0.346	-0.575	-0.044	-40.966497	-52.5402486	-78.781725	60.37258446	50.5062477	-54.78624396
4.4	440	0.319	-0.577	-0.027	-41.539455	-53.7434604	-79.6984578	58.91154156	50.92450704	-56.13842484
4.41	441	0.278	-0.552	-0.015	-40.966497	-55.6342218	-80.8443738	57.3817437	51.32557764	-57.57654942
4.42	442	0.28	-0.512	-0.043	-41.9978214	-54.7747848	-82.505952	55.81756836	51.71518908	-59.03759232
4.43	443	0.27	-0.545	-0.063	-41.825934	-54.8893764	-82.5632478	54.21901554	52.08761178	-60.5330127
4.44	444	0.214	-0.582	-0.051	-42.398892	-56.2644756	-80.1568242	52.59181482	52.40273868	-62.05708098
4.45	445	0.145	-0.586	-0.064	-43.3729206	-55.003968	-77.8076964	50.98180284	52.66629936	-63.5410422
4.46	446	0.065	-0.573	-0.052	-45.7220484	-50.4775998	-76.3753014	49.36606128	52.93558962	-64.99635552
4.47	447	-0.027	-0.537	-0.001	-47.555514	-45.0344988	-74.198061	47.7846972	53.1991503	-66.3771843
4.48	448	-0.108	-0.516	0.022	-46.9252602	-35.8671708	-70.4165382	46.31792472	53.47417014	-67.62050316
4.49	449	-0.176	-0.537	0.034	-46.0658232	-22.1161788	-64.9734372	45.01731006	53.78356746	-68.65182756
4.5	450	-0.242	-0.557	0.08	-48.8160216	-6.1306506	-59.4730404	43.92296028	54.12734226	-69.40813212
4.51	451	-0.301	-0.504	0.099	-51.6235158	10.7143146	-56.722842	42.92601336	54.58570866	-69.98109012
4.52	452	-0.33	-0.414	0.115	-55.6342218	28.5333084	-58.7854908	42.0264693	55.1758554	-70.3878903
4.53	453	-0.258	-0.312	-0.075	-69.7289886	46.696077	-62.738901	41.09254776	55.91497122	-70.65718056
4.54	454	-0.086	-0.253	-0.126	-74.5418358	54.2591226	-64.5150708	40.1357079	56.722842	-70.88063418
4.55	455	0.103	-0.382	-0.215	-77.1201468	62.2805346	-62.3951262	39.247623	57.55936068	-71.00668494
4.56	456	0.282	-0.567	-0.424	-82.9070226	72.1354122	-59.0719698	38.39964516	58.45890474	-70.99522578
4.57	457	0.418	-0.747	-0.648	-91.4440968	75.4012728	-55.7488134	37.528749	59.36417838	-70.92074124
4.58	458	0.455	-0.816	-0.791	-99.0071424	71.9635248	-55.576926	36.52034292	60.24080412	-70.90928208
4.59	459	0.383	-0.755	-0.831	-105.99723	67.4944524	-55.863405	35.35723818	61.08305238	-70.99522578
4.6	460	0.136	-0.627	-0.737	-112.2424722	67.5517482	-51.7954032	34.16548554	61.87373442	-71.046792
4.61	461	-0.017	-0.588	-0.64	-108.0598788	90.3554766	-46.6387812	33.30604854	62.84776302	-70.760313
4.62	462	0.187	-0.607	-0.625	-99.0071424	107.5442166	-40.3362432	32.82476382	63.93065364	-70.1587071
4.63	463	0.457	-0.504	-0.629	-84.8550798	116.310474	-34.2628884	32.71017222	65.05365132	-69.31072926
4.64	464	0.699	-0.248	-0.489	-68.3538894	118.888785	-33.3461556	32.85341172	66.19383774	-68.37680772
4.65	465	0.938	0.015	-0.354	-61.5356892	126.7956054	-36.2109456	33.15134988	67.41423828	-67.3512129
4.66	466	0.947	0.247	-0.363	-68.9841432	148.109643	-55.8061092	33.36334434	68.91538824	-66.3485364
4.67	467	0.466	0.324	-0.196	-74.8283148	179.6796288	-101.4708618	33.04821744	70.91501166	-65.84433336
4.68	468	1.946	0.196	-0.26	-72.5364828	224.026578	-155.7299844	32.09710716	73.57353678	-66.0334095
4.69	469	2.911	0.778	-0.615	-87.8917572	226.7194806	-211.5360936	28.86562404	76.53000006	-68.42264436
4.7	470	3.269	1.344	-1.014	-64.9161414	184.3778844	-256.2268176	21.25101222	79.2400914	-75.49867566
4.71	471	3.409	1.545	-0.711	-31.1689152	139.1142024	-297.1360188	6.30826758	81.28555146	-90.30963996
4.72	472	3.525	1.155	-0.456	-4.6982556	104.9659056	-282.5255898	-13.36711014	82.17363636	-110.1225276
4.73	473	3.099	1.56	-0.29	-2.5210152	97.689339	-271.868571	-33.93057276	81.98456022	-130.8292297
4.74	474	3.137	1.599	-0.227	8.9381448	70.6457214	-260.0656362	-49.6468107	80.79280758	-146.8032988
4.75	475	3.307	1.615	0.049	1.9480572	38.5600734	-238.1213448	-59.1579135	79.0968519	-156.4748298
4.76	476	2.837	1.043	0.246	3.724227	27.215505	-174.9813732	-64.30307634	77.70456396	-161.751773
4.77	477	2.526	1.029	0.177	-12.8342592	18.334656	-128.2852962	-67.44861576	76.62167334	-164.8400166
4.78	478	2.382	0.897	0.188	-26.069589	8.307891	-93.7359288	-69.4138617	75.79088424	-166.5875385
4.79	479	1.981	0.744	0.231	-33.4034514	8.9381448	-59.014674	-70.83479754	75.27522204	-167.7048066
4.8	480	1.946	0.763	0.115	-38.1590028	7.9068204	-33.4607472	-71.89476984	74.98874304	-168.3980858
4.81	481	1.564	0.864	-0.006	-35.1223254	-3.724227	-18.4492476	-72.31302918	74.7996669	-168.4611112
4.82	482	1.243	0.774	-0.134	-23.3766864	-17.3033316	-0.6875496	-71.95206564	74.73664152	-167.8480461
4.83	483	0.888	0.619	-0.097	-12.4904844	-20.2254174	17.1314442	-71.17857234	74.83404438	-166.9141246
4.84	484	0.589	0.612	0.102	-4.5263682	-6.7609044	21.772404	-70.72593552	75.01166136	-166.3984624
4.85	485	0.378	0.471	0.255	1.718874	8.3651868	23.777757	-70.80614964	75.24657414	-166.4958652
4.86	486	0.216	0.33	0.202	-1.2032118	26.4133638	28.6479	-71.40775554	75.60753768	-167.0974711
4.87	487	0.104	0.288	0.172	-6.4171296	38.5600734	32.8304934	-72.49637574	76.04871534	-168.1459843
4.88	488	0.04	0.32	0.141	-11.6310474	41.539455	34.37748	-73.7969904	76.50708174	-169.3606552
4.89	489	0.131	0.402	0.118	-14.9542038	41.3675676	30.7678446	-75.25230372	76.9196115	-170.6956474
4.9	490	0.157	0.443	0.111	-15.183387	43.0864416	26.6998428	-76.97117772	77.26911588	-172.2942002
4.91	491	0.195	0.462	0.12	-15.4125702	47.269035	21.9442914	-78.9536124	77.59570194	-174.1620433
4.92	492	0.273	0.488	0.134	-18.048177	51.5089242	12.4331886	-81.32565852	77.81915556	-176.3965795
4.93	493	0.477	0.437	0.067	-17.8189938	54.3737142	3.0939732	-83.96126532	77.93374716	-178.8946763
4.94	494	0.595	0.307	0.055	-9.1100322	51.56622	7.448454	-86.41352556	78.0655275	178.694141
4.95	495	0.676	0.216	0.061	-3.5523396	46.6387812	15.8136408	-88.6366026	78.24887406	176.4653344
4.96	496	0.786	0.261	0.068	-3.0366774	41.9978214	21.0848544	-90.67633308	78.47232768	174.4198744
4.97	497	0.857	0.347	0.074	-0.6302538	39.4768062	22.1734746	-92.65303818	78.6957813	172.4145214
4.98	498	0.947	0.368	0.071	2.9220858	38.674665	23.5485738	-94.63547286	78.91350534	170.3690613
4.99	499	1.024	0.373	0.071	4.0680018	36.7839036	27.1009134	-96.60644838	79.1541477	168.3236012
5	500	1.122	0.353	0.069	4.1252976	34.091001	33.6326346	-98.57169432	79.44635628	166.2838708
5.01	501	1.201	0.34	0.04	6.0733548	28.7051958	41.1383844	-100.4108895	79.80731982	164.3530023
5.02	502	1.235	0.311	0.072	7.3911582	24.064236	45.550161	-102.1756001	80.20839042	162.4908888
5.03	503	1.254	0.257	0.09	6.6463128	20.340009	48.414951	-103.9173925	80.63810892	160.6516936
5.04	504	1.275	0.209	0.072	6.0733548	14.610429	49.9619376	-105.5102157	81.08501616	158.9786563
5.05	505	1.27	0.154	0.063	3.724227	6.4171296	51.1651494	-106.7993712	81.5605713	157.6379345
5.06	506	1.256	0.127	0.101	2.3491278	0.859437	50.706783	-107.8708027	82.03612644	156.5321256
5.07	507	1.242	0.118	0.151	1.7761698	1.9480572	47.4409224	-109.079744	82.4773041	155.2888067
5.08	508	1.266	0.075	0.156	2.2345362	6.4744254	44.5761324	-110.7012152	82.8783747	153.6329581
5.09	509	1.244	0.053	0.136	-1.145916	9.740286	42.7426668	-112.7352161	83.23933824	151.5932276
5.1	510	1.249	0.037	0.085	-5.6722842	15.8709366	40.7946096	-115.4796849	83.55446514	148.8945955
5.11	511	1.123	0.027	0.018	-11.5737516	7.3338624	39.5913978	-117.7829761	83.87532162	146.7001663
5.12	512	1.021	0.057	0.056	-13.0061466	-3.6096354	35.9244666	-119.2211006	84.20763726	145.3823629
5.13	513	0.948	0.062	0.083	-9.5111028	-7.0473834	31.9710564	-120.2810729	84.51703458	144.4140639
5.14	514	0.97	0.04	0.046	-5.3285094	2.4064236	26.1268848	-121.9770286	84.72902904	142.7639449
5.15	515	0.972	-0.012	0.037	-1.4896908	9.1100322	20.4546006	-124.1599986	84.87226854	140.592434
5.16	516	0.962	-0.064	0.054	-2.9220858	11.172681	17.9908812	-126.3830756	84.95821224	138.3865457
5.17	517	0.94	-0.068	0.059	-6.5317212	7.3911582	18.5638392	-128.411347	85.06134468	136.4212998
5.18	518	0.916	-0.054	0.072	-3.6096354	4.4117766	17.9335854	-130.170328	85.17593628	134.6909666
5.19	519	0.901	-0.042	0.079	1.9480572	5.0420304	15.469866	-131.8204471	85.26187998	133.0179293
5.2	520	0.924	-0.065	0.098	5.2139178	7.5630456	12.6623718	-133.8258001	85.31917578	130.9552805
5.21	521	0.957	-0.063	0.124	4.870143	9.8548776	10.5424272	-135.5561332	85.32490536	129.1733811
5.22	522	0.993	-0.076	0.128	3.8961144	6.9900876	7.6776372	-136.7937225	85.33063494	127.8956848
5.23	523	0.969	-0.047	0.1	2.0626488	0.6302538	5.2139178	-137.292196	85.35928284	127.3685634
5.24	524	0.946	-0.018	0.073	1.8334656	-1.0886202	2.5210152	-137.4067876	85.38220116	127.2367831
5.25	525	0.955	-0.061	0.082	1.8334656	0.4583664	1.6042824	-139.3032785	85.4853336	125.3402921
5.26	526	0.998	-0.078	0.094	1.718874	-0.2291832	1.0886202	-139.3663039	85.49679276	125.2543484
5.27	527	1.03	-0.08	0.108	0.6875496	-3.5523396	0.8021412	-139.1371207	85.52544066	125.4835316
5.28	528	1.049	-0.067	0.11	0.286479	-6.4744254	0.2291832	-138.5985402	85.57700688	126.0221121
5.29	529	1.058	-0.061	0.094	0.4583664	-8.6516658	-0.0572958	-137.8135877	85.63430268	126.7956054
5.3	530	1.056	-0.057	0.081	0.1718874	-10.4278356	-0.8021412	-137.2349002	85.73170554	127.3857521
5.31	531	1.054	-0.044	0.084	-1.0313244	-11.172681	-2.3491278	-135.9514742	85.79473092	128.6749076
5.32	532	1.05	-0.028	0.09	-2.6929026	-10.886202	-4.6982556	-134.4560539	85.83483798	130.2047055
5.33	533	1.048	-0.015	0.085	-4.2398892	-10.0840608	-6.4171296	-132.8632306	85.8577563	131.8433654
5.34	534	1.039	-0.011	0.073	-5.8441716	-7.7922288	-7.9641162	-131.3792694	85.84629714	133.390352
5.35	535	1.03	-0.01	0.064	-7.5057498	-5.3858052	-9.3965112	-130.1817872	85.82337882	134.6680483
5.36	536	1.02	-0.002	0.055	-9.2819196	-2.8074942	-10.4851314	-129.0702487	85.76035344	135.8827193
5.37	537	1.013	0.008	0.051	-10.313244	0.0572958	-11.3445684	-128.2394596	85.67440974	136.8166408
5.38	538	1.005	0.019	0.039	-10.6570188	2.5210152	-12.032118	-127.6493128	85.56554772	137.5156496
5.39	539	0.991	0.03	0.035	-10.4851314	3.724227	-12.2040054	-127.2024056	85.45095612	138.0771484
5.4	540	0.973	0.042	0.04	-10.0840608	4.9274388	-11.8602306	-126.8700899	85.33063494	138.5068669
5.41	541	0.966	0.054	0.041	-8.7662574	5.9014674	-11.2872726	-126.7268504	85.20458418	138.7417797
5.42	542	0.967	0.068	0.047	-7.8495246	5.9014674	-10.9434978	-126.6065293	85.084263	138.9480446
5.43	543	0.974	0.067	0.047	-7.3338624	5.9014674	-10.599723	-126.5091264	84.9696714	139.119932
5.44	544	0.976	0.068	0.041	-6.2452422	5.0420304	-10.1986524	-126.3601573	84.86080938	139.337656
5.45	545	0.967	0.073	0.041	-4.8128472	3.2658606	-9.8548776	-125.9476276	84.76340652	139.7960224
5.46	546	0.966	0.076	0.048	-2.86479	0.9167328	-9.453807	-125.4720724	84.67746282	140.305955
5.47	547	0.974	0.086	0.061	-0.4010706	-0.6875496	-8.9954406	-124.8647369	84.60870786	140.9190201
5.48	548	0.992	0.091	0.072	2.005353	-1.3178034	-8.0787078	-124.2459423	84.55141206	141.520626
5.49	549	1.011	0.091	0.079	4.583664	-1.145916	-6.7036086	-123.7130914	84.49984584	142.0133699
5.5	550	1.019	0.087	0.079	5.7868758	-1.3178034	-5.5003968	-123.2489954	84.44827962	142.4144405
5.51	551	1.021	0.078	0.078	6.4744254	-1.432395	-4.2398892	-122.8250065	84.41963172	142.775404
5.52	552	1.024	0.068	0.076	6.7036086	-1.432395	-3.151269	-122.4583133	84.40244298	143.0733422
5.53	553	1.022	0.063	0.071	7.0473834	-2.2345362	-2.1772404	-122.0744315	84.39098382	143.3827395
5.54	554	1.013	0.06	0.069	7.3338624	-2.291832	-1.3178034	-121.7306567	84.39098382	143.6577593
5.55	555	1.003	0.058	0.064	7.0473834	-0.9740286	-0.859437	-121.5644989	84.3967134	143.7551622
5.56	556	1.004	0.057	0.059	6.6463128	0.572958	-0.572958	-121.5186622	84.39098382	143.7265143
5.57	557	1.01	0.058	0.061	6.0733548	2.2345362	-0.4010706	-121.6389834	84.37379508	143.5488973
5.58	558	1.016	0.059	0.066	5.6722842	2.86479	-0.1145916	-121.82233	84.35660634	143.3025254
5.59	559	1.019	0.06	0.072	5.2139178	2.578311	0.3437748	-122.0171357	84.34514718	143.0561534
5.6	560	1.017	0.057	0.073	4.7555514	2.9220858	0.859437	-122.3895584	84.34514718	142.6378941
5.61	561	1.016	0.05	0.071	3.8961144	3.3804522	1.3178034	-122.7161444	84.3394176	142.2654714
5.62	562	1.009	0.045	0.069	2.7501984	3.151269	1.3750992	-123.0370009	84.33368802	141.915967
5.63	563	0.999	0.045	0.064	1.8907614	2.2345362	1.2032118	-123.2776433	84.33368802	141.6581359
5.64	564	0.983	0.047	0.061	1.7761698	1.718874	0.8021412	-123.4552603	84.32795844	141.4576006
5.65	565	0.977	0.046	0.061	1.6615782	2.578311	0.1145916	-123.7933055	84.34514718	141.1080962
5.66	566	0.981	0.045	0.061	1.718874	3.5523396	-0.3437748	-124.0568662	84.32795844	140.8273468
5.67	567	0.987	0.045	0.065	1.6042824	3.9534102	-0.6875496	-124.331886	84.29931054	140.5351382
5.68	568	0.99	0.046	0.07	1.432395	4.2398892	-0.859437	-124.6240946	84.26493306	140.2257409
5.69	569	0.998	0.045	0.074	1.432395	4.2398892	-0.9740286	-124.904844	84.23628516	139.9278028
5.7	570	1.002	0.046	0.074	1.5469866	4.1252976	-0.8021412	-125.36894	84.224826	139.4522476
5.71	571	1.008	0.046	0.077	1.5469866	3.8388186	-0.6875496	-125.6267711	84.1961781	139.1714982
5.72	572	1.011	0.05	0.083	1.6042824	3.3231564	-0.5156622	-125.8559543	84.17325978	138.9308558
5.73	573	1.009	0.051	0.085	1.8334656	2.578311	-0.286479	-126.0278417	84.15607104	138.7417797
5.74	574	1.006	0.048	0.086	1.718874	2.4637194	-0.3437748	-126.1882699	84.1388823	138.5584331
5.75	575	1.006	0.048	0.083	1.7761698	2.8074942	-0.3437748	-126.6523659	84.1388823	138.082878
5.76	576	1.005	0.047	0.081	1.8334656	2.9793816	-0.4010706	-126.8471716	84.11596398	137.865154
5.77	577	1.009	0.046	0.083	1.8334656	3.0939732	-0.4583664	-127.0419773	84.09877524	137.6474299
5.78	578	1.01	0.043	0.086	1.718874	2.86479	-0.7448454	-127.2081352	84.07012734	137.4698129
5.79	579	1.012	0.042	0.088	1.718874	2.4064236	-1.0886202	-127.3169972	84.04720902	137.3437622
5.8	580	1.013	0.044	0.086	1.8907614	2.005353	-1.3178034	-127.6951495	84.04720902	136.9426916
5.81	581	1.012	0.046	0.087	1.9480572	1.5469866	-1.6615782	-127.700879	84.0242907	136.9197733
5.82	582	1.01	0.048	0.09	1.8334656	1.432395	-2.0626488	-127.6779607	83.9956428	136.9255028
5.83	583	1.01	0.05	0.092	1.6042824	1.3750992	-2.2345362	-127.6321241	83.97272448	136.9541507
5.84	584	1.009	0.051	0.092	1.4896908	1.0313244	-2.291832	-127.5690987	83.94407658	137.005717
5.85	585	1.009	0.049	0.092	1.3178034	0.7448454	-2.291832	-127.8727664	83.938347	136.6963196
5.86	586	1.008	0.049	0.091	1.2032118	0.3437748	-2.291832	-127.7524453	83.91542868	136.7994521
5.87	587	1.006	0.053	0.09	1.0886202	0.1718874	-2.291832	-127.6263945	83.89823994	136.9140437
5.88	588	1.003	0.056	0.092	1.145916	0	-2.2345362	-127.4888846	83.87532162	137.0400944
5.89	589	1.002	0.057	0.09	1.2032118	-0.1145916	-2.1199446	-127.3456451	83.86386246	137.1718748
5.9	590	1.002	0.056	0.09	1.2032118	0	-1.8907614	-127.6378537	83.85813288	136.8739366
5.91	591	1.002	0.057	0.089	1.0886202	0.1718874	-1.7761698	-127.5404508	83.84667372	136.9598803
5.92	592	1.003	0.056	0.087	1.145916	0.4010706	-1.4896908	-127.4716958	83.82948498	137.0171761
5.93	593	1.005	0.055	0.086	1.145916	0.2291832	-1.2605076	-127.4086705	83.81802582	137.0687423
5.94	594	1.004	0.056	0.085	1.3178034	-0.0572958	-1.0313244	-127.3284563	83.81229624	137.1374973
5.95	595	1.004	0.056	0.086	1.4896908	-0.5156622	-0.859437	-127.5862874	83.8237554	136.868207
5.96	596	1.002	0.056	0.086	1.718874	-0.6875496	-0.7448454	-127.4716958	83.81802582	136.9656099
5.97	597	1.003	0.056	0.085	1.7761698	-0.859437	-0.6302538	-127.3513747	83.81802582	137.0687423
5.98	598	1.004	0.054	0.084	1.7761698	-0.8021412	-0.572958	-127.2367831	83.81802582	137.1661452
5.99	599	1.005	0.052	0.082	1.7761698	-0.6302538	-0.572958	-127.1336506	83.81802582	137.2463593
6	600	1.005	0.05	0.084	1.8334656	-0.6302538	-0.6875496	-127.4315888	83.84667372	136.9426916
6.01	601	1.004	0.051	0.082	1.8907614	-0.572958	-0.7448454	-127.3227268	83.84094414	137.0286353
6.02	602	1.002	0.053	0.084	1.8907614	-0.859437	-0.7448454	-127.1909464	83.84094414	137.1432269
6.03	603	1.002	0.054	0.085	1.8907614	-1.145916	-0.7448454	-127.0419773	83.84094414	137.2692776
6.04	604	1.004	0.054	0.084	1.8334656	-1.0313244	-0.6302538	-126.910197	83.84094414	137.3838692
6.05	605	1.005	0.054	0.082	1.9480572	-0.6875496	-0.4010706	-127.1336506	83.86959204	137.1489565
6.06	606	1.003	0.053	0.081	1.9480572	-0.4583664	-0.286479	-127.0591661	83.86959204	137.2005227
6.07	607	1	0.051	0.078	1.8907614	-0.286479	-0.2291832	-127.0018703	83.86959204	137.2406297
6.08	608	0.997	0.052	0.077	1.9480572	-0.4010706	-0.2291832	-126.9388449	83.86959204	137.2864664
6.09	609	0.996	0.052	0.077	2.005353	-0.572958	-0.3437748	-126.8471716	83.86959204	137.3494918
6.1	610	0.999	0.052	0.079	2.005353	-0.4010706	-0.5156622	-127.196676	83.90396952	136.9885282
6.11	611	1.004	0.05	0.084	1.8334656	0	-0.6302538	-127.1508394	83.89823994	137.0229057
6.12	612	1.007	0.05	0.087	1.5469866	0.3437748	-0.8021412	-127.1164619	83.88678078	137.0400944
6.13	613	1.009	0.051	0.085	1.0886202	0.3437748	-0.8021412	-127.0820844	83.87532162	137.0572832
6.14	614	1.009	0.052	0.085	1.0313244	0.1145916	-0.6875496	-127.0477069	83.86959204	137.0859311
6.15	615	1.006	0.051	0.084	1.0313244	0	-0.6302538	-127.6493128	83.91542868	136.4785956
6.16	616	1.003	0.05	0.085	0.9167328	0	-0.572958	-127.6034762	83.9096991	136.5187027
6.17	617	1.002	0.047	0.086	0.6875496	0.3437748	-0.7448454	-127.5862874	83.89823994	136.5301618
6.18	618	1.001	0.048	0.085	0.5156622	0.6875496	-0.7448454	-127.5862874	83.89251036	136.5244322
6.19	619	1.003	0.05	0.085	0.5156622	0.6875496	-0.859437	-127.5862874	83.8810512	136.5187027
6.2	620	1.002	0.053	0.083	0.6875496	0.3437748	-0.859437	-128.0217355	83.89823994	136.0832546
6.21	621	1	0.052	0.084	1.0313244	0.2291832	-0.9167328	-127.9758989	83.89251036	136.1176321
6.22	622	1.001	0.051	0.086	1.2032118	0.1718874	-0.9740286	-127.9186031	83.8810512	136.1634687
6.23	623	1.001	0.051	0.086	1.2605076	0.1718874	-0.9740286	-127.8670369	83.87532162	136.1978462
6.24	624	1.002	0.051	0.085	1.2032118	0.286479	-0.9740286	-127.8212002	83.86386246	136.2379532
6.25	625	1.003	0.052	0.086	1.3178034	0.4583664	-0.9167328	-128.1878933	83.87532162	135.859801
6.26	626	1.003	0.052	0.085	1.4896908	0.4583664	-0.9740286	-128.1535159	83.86386246	135.8827193
6.27	627	1.004	0.052	0.083	1.6042824	0.572958	-1.0313244	-128.124868	83.8524033	135.8941784
6.28	628	1.004	0.05	0.085	1.718874	0.6302538	-1.0313244	-128.0904905	83.84094414	135.9056376
6.29	629	1.005	0.05	0.086	1.6615782	0.6302538	-1.145916	-128.0618426	83.8237554	135.9228263
6.3	630	1.005	0.051	0.087	1.6042824	0.4583664	-1.2032118	-128.342592	83.83521456	135.6248882
6.31	631	1.003	0.052	0.088	1.6615782	0.3437748	-1.2032118	-128.2852962	83.8237554	135.6707248
6.32	632	1.002	0.052	0.089	1.5469866	0.4010706	-1.2032118	-128.23373	83.80656666	135.7051023
6.33	633	1.003	0.051	0.09	1.432395	0.4010706	-1.0886202	-128.1878933	83.7951075	135.7337502
6.34	634	1.003	0.053	0.089	1.3750992	0.4010706	-1.145916	-128.1420567	83.78364834	135.7681277
6.35	635	1.004	0.052	0.09	1.2605076	0.3437748	-1.0313244	-128.5488569	83.7951075	135.3555979
6.36	636	1.004	0.053	0.088	1.3178034	0.0572958	-0.9740286	-128.4858315	83.78937792	135.4071641
6.37	637	1.002	0.053	0.088	1.145916	0.2291832	-0.9167328	-128.4399949	83.77791876	135.4415416
6.38	638	1.002	0.053	0.087	1.0886202	0.2291832	-0.9167328	-128.3884286	83.7664596	135.4759191
6.39	639	1.002	0.052	0.087	1.145916	0.2291832	-0.9740286	-128.342592	83.76073002	135.5102966
6.4	640	1.002	0.05	0.089	1.2605076	0.2291832	-1.0313244	-128.7493922	83.77218918	135.0977668
6.41	641	1.004	0.051	0.089	1.0886202	0.286479	-1.0313244	-128.7035555	83.76073002	135.1321443
6.42	642	1.006	0.052	0.09	1.0313244	0.286479	-1.0313244	-128.6577189	83.75500044	135.1722514
6.43	643	1.007	0.053	0.09	1.0886202	0.1145916	-0.9740286	-128.6004231	83.74354128	135.218088
6.44	644	1.005	0.052	0.091	1.0886202	0	-0.9740286	-128.5373977	83.7378117	135.2696542
6.45	645	1.004	0.052	0.091	1.0313244	0	-0.8021412	-129.1046261	83.75500044	134.6966962
6.46	646	1.003	0.052	0.091	0.1145916	-0.3437748	-0.1145916	-129.0702487	83.75500044	134.7310737
6.47	647	1.004	0.052	0.092	-0.1145916	-0.5156622	0	-129.0301416	83.75500044	134.7711808
6.48	648	1.005	0.051	0.093	-0.286479	-0.4583664	-0.0572958	-128.9900345	83.76073002	134.8170174
6.49	649	1.005	0.052	0.093	-0.3437748	-0.3437748	-0.1145916	-128.9556571	83.76073002	134.8513949
6.5	650	1.005	0.053	0.094	-0.3437748	-0.3437748	-0.1145916	-130.1588689	83.80083708	133.6653718
6.51	651	1.006	0.052	0.092	-0.3437748	-0.572958	0	-130.1187618	83.80083708	133.7112085
6.52	652	1.004	0.052	0.092	-0.3437748	-0.6302538	0	-130.0786547	83.80656666	133.7513155
6.53	653	1.003	0.052	0.09	-0.286479	-0.6875496	0.0572958	-130.0385477	83.81229624	133.7971522
6.54	654	1.002	0.052	0.091	-0.1718874	-0.572958	0.0572958	-130.0041702	83.81802582	133.8372592
6.55	655	1.003	0.053	0.091	-0.1145916	-0.4583664	0.0572958	-131.2589482	83.86386246	132.5939404
6.56	656	1.004	0.053	0.093	-0.1718874	-0.5156622	0.1145916	-131.2303003	83.86386246	132.6283178
6.57	657	1.004	0.053	0.094	-0.286479	-0.6875496	0.1718874	-131.1959228	83.86959204	132.6626953
6.58	658	1.002	0.053	0.092	-0.2291832	-0.9740286	0.286479	-131.1443566	83.8810512	132.7199911
6.59	659	1.001	0.052	0.091	-0.2291832	-0.9740286	0.3437748	-131.09852	83.88678078	132.7658278
6.6	660	1.003	0.052	0.091	-0.286479	-0.9167328	0.3437748	-131.6256413	83.91542868	132.2501656
6.61	661	1.003	0.05	0.088	-0.1718874	-0.7448454	0.3437748	-131.5969934	83.92688784	132.284543
6.62	662	1.003	0.05	0.088	0.0572958	-0.6875496	0.286479	-131.562616	83.93261742	132.3131909
6.63	663	1.002	0.049	0.087	0.2291832	-0.5156622	0.2291832	-131.5339681	83.938347	132.3418388
6.64	664	1.004	0.05	0.085	0.4010706	-0.8021412	0.2291832	-131.4881314	83.94407658	132.3819459
6.65	665	1.006	0.051	0.086	0.4583664	-1.2605076	0.2291832	-131.7746104	83.97272448	132.1011965
6.66	666	1.009	0.05	0.089	0.572958	-1.5469866	0.1718874	-131.671478	83.98418364	132.1985993
6.67	667	1.009	0.052	0.089	0.572958	-1.6042824	0.1718874	-131.5568864	83.9956428	132.3017318
6.68	668	1.006	0.055	0.09	0.4010706	-1.4896908	0.1718874	-131.4594835	84.00710196	132.3934051
6.69	669	1.007	0.057	0.093	0.2291832	-1.3178034	0.3437748	-131.384999	84.01856112	132.4678896
6.7	670	1.006	0.055	0.094	0.2291832	-1.2605076	0.4010706	-131.8204471	84.0242907	132.0381711
6.71	671	1.003	0.053	0.094	0.0572958	-0.859437	0.5156622	-131.7860696	84.03002028	132.066819
6.72	672	1.003	0.05	0.092	-0.1145916	-0.5156622	0.572958	-131.7860696	84.04147944	132.066819
6.73	673	1.003	0.051	0.091	-0.3437748	-0.1718874	0.5156622	-131.8089879	84.04720902	132.0496303
6.74	674	1.003	0.053	0.091	-0.4010706	-0.0572958	0.572958	-131.849095	84.0529386	132.0152528
6.75	675	1.001	0.052	0.088	-0.3437748	-0.4010706	0.572958	-132.2100585	84.07012734	131.6600188
6.76	676	0.996	0.052	0.086	-0.1145916	-0.7448454	0.572958	-132.1928698	84.0815865	131.6772076
6.77	677	0.996	0.05	0.086	0.286479	-1.0313244	0.5156622	-132.1527627	84.09304566	131.7173146
6.78	678	0.997	0.05	0.086	0.4583664	-1.0886202	0.3437748	-132.0897373	84.10450482	131.7746104
6.79	679	1.001	0.049	0.088	0.4010706	-0.9167328	0.286479	-132.0381711	84.1102344	131.8204471
6.8	680	1.003	0.05	0.089	0.4583664	-0.9740286	0.3437748	-132.4277825	84.13315272	131.4365652
6.81	681	1.006	0.052	0.089	0.4583664	-1.0313244	0.4010706	-132.3704867	84.14461188	131.4824018
6.82	682	1.009	0.053	0.089	0.5156622	-1.0886202	0.5156622	-132.3189205	84.15034146	131.5282385
6.83	683	1.008	0.052	0.09	0.572958	-0.9740286	0.572958	-132.2788135	84.16180062	131.5683455
6.84	684	1.008	0.051	0.091	0.5156622	-1.0313244	0.572958	-132.2329768	84.17325978	131.602723
6.85	685	1.005	0.051	0.089	0.3437748	-0.9740286	0.6302538	-132.6913432	84.1961781	131.1500862
6.86	686	1.003	0.05	0.089	0.3437748	-1.0886202	0.572958	-132.639777	84.20763726	131.1959228
6.87	687	1.003	0.05	0.088	0.1718874	-0.1718874	0.1718874	-132.639777	84.20763726	131.1959228
6.88	688	1.003	0.05	0.089	0.1718874	0.0572958	0.1145916	-132.6512362	84.20763726	131.1787341
6.89	689	1.004	0.05	0.089	0.2291832	0.0572958	0.1718874	-132.6684249	84.20763726	131.1558158
6.9	690	1.003	0.05	0.09	0.286479	0.1145916	0.1718874	-133.9919579	84.224826	129.843742
6.91	691	1.003	0.05	0.09	0.3437748	0.0572958	0.1145916	-134.003417	84.224826	129.8265532
6.92	692	1.002	0.05	0.09	0.3437748	-0.2291832	0.1145916	-133.9919579	84.224826	129.8380124
6.93	693	1.002	0.052	0.09	0.3437748	-0.4583664	0.0572958	-133.9575804	84.23055558	129.8666603
6.94	694	1.002	0.052	0.089	0.286479	-0.1718874	0.1145916	-133.9518508	84.23055558	129.8723899
6.95	695	1.002	0.051	0.088	0.3437748	0.0572958	0.1718874	-134.6508596	84.24201474	129.1733811
6.96	696	1.003	0.051	0.087	0.2291832	0.1718874	0.2291832	-134.6795075	84.24201474	129.1390036
6.97	697	1.003	0.05	0.089	0.0572958	0.1145916	0.4010706	-134.7196145	84.24201474	129.1046261
6.98	698	1.003	0.051	0.088	0.1145916	0	0.4010706	-134.7482624	84.24774432	129.0702487
6.99	699	1.004	0.05	0.09	0.1145916	0	0.286479	-134.7654512	84.24774432	129.0530599
7	700	1.005	0.049	0.09	0.0572958	-0.0572958	0.2291832	-135.899908	84.26493306	127.9300622
7.01	701	1.006	0.048	0.092	0	0	0.2291832	-135.9170968	84.26493306	127.9071439
7.02	702	1.004	0.047	0.092	-0.1145916	0.0572958	0.1145916	-135.9342855	84.26493306	127.8956848
7.03	703	1.004	0.047	0.09	-0.0572958	0.1145916	0	-135.9457447	84.26493306	127.8842256
7.04	704	1.004	0.048	0.089	-0.1718874	0	-0.0572958	-135.9457447	84.26493306	127.8842256
7.05	705	1.004	0.049	0.089	-0.1145916	-0.1718874	-0.0572958	-136.4671364	84.25920348	127.3685634
7.06	706	1.002	0.05	0.088	-0.0572958	-0.2291832	-0.1145916	-136.4442181	84.25920348	127.3972113
7.07	707	1	0.049	0.087	0	-0.1718874	-0.2291832	-136.4098406	84.25920348	127.4258592
7.08	708	1.001	0.05	0.087	0	-0.1145916	-0.286479	-136.3754632	84.25920348	127.4602367
7.09	709	1.003	0.051	0.088	0.0572958	-0.286479	-0.286479	-136.3353561	84.25920348	127.5003437
7.1	710	1.004	0.051	0.088	0	-0.4010706	-0.1145916	-136.6390238	84.25920348	127.2024056
7.11	711	1.006	0.052	0.089	0	-0.4583664	-0.0572958	-136.5931872	84.25920348	127.2425126
7.12	712	1.006	0.05	0.09	0	-0.286479	0	-136.5702689	84.26493306	127.265431
7.13	713	1.004	0.05	0.089	-0.1145916	-0.0572958	0.1145916	-136.5759985	84.26493306	127.265431
7.14	714	1.004	0.05	0.089	-0.2291832	-0.1718874	0.1145916	-136.5759985	84.26493306	127.265431
7.15	715	1.005	0.05	0.087	-0.1718874	-0.4010706	0.1718874	-136.8109112	84.27066264	127.0419773
7.16	716	1.002	0.05	0.089	-0.0572958	-0.572958	0.2291832	-136.7822633	84.27639222	127.0648957
7.17	717	1.004	0.05	0.09	-0.0572958	-0.6302538	0.286479	-136.759345	84.28785138	127.0935436
7.18	718	1.003	0.048	0.089	-0.1718874	-0.286479	0.286479	-136.7650746	84.28785138	127.087814
7.19	719	1.002	0.048	0.088	-0.1145916	0	0.2291832	-136.7765338	84.29358096	127.0763548
7.2	720	1.001	0.046	0.087	0	0	0.1718874	-137.3494918	84.32795844	126.514856
7.21	721	1.002	0.047	0.085	0	-0.286479	0.0572958	-137.332303	84.33368802	126.5263151
7.22	722	1.001	0.047	0.085	0	-0.6302538	0.1145916	-137.2979255	84.3394176	126.5664222
7.23	723	1.001	0.047	0.086	0	-0.6302538	0.1145916	-137.2635481	84.34514718	126.6007997
7.24	724	1.003	0.047	0.085	0	-0.4583664	0	-137.223441	84.34514718	126.6351772
7.25	725	1.005	0.049	0.086	0	-0.286479	-0.0572958	-137.4984608	84.35660634	126.3658869
7.26	726	1.005	0.051	0.089	-0.1718874	-0.3437748	0.0572958	-137.4812721	84.35660634	126.3888052
7.27	727	1.006	0.051	0.09	-0.2291832	-0.4010706	0.2291832	-137.4698129	84.36233592	126.4002644
7.28	728	1.005	0.049	0.089	-0.1718874	-0.1718874	0.3437748	-137.4812721	84.3680655	126.3888052
7.29	729	1.005	0.043	0.087	-0.2291832	0	0.4583664	-137.5156496	84.3680655	126.3544277
7.3	730	1.004	0.041	0.089	-0.5156622	0.1718874	0.286479	-137.9568272	84.38525424	125.9247092
7.31	731	1.001	0.043	0.088	-0.6302538	0	0.0572958	-137.9682864	84.38525424	125.9189797
7.32	732	1.001	0.046	0.087	-0.572958	-0.0572958	-0.1718874	-137.9568272	84.38525424	125.941898
7.33	733	0.999	0.046	0.085	-0.4010706	-0.1718874	-0.3437748	-137.9167202	84.38525424	125.982005
7.34	734	0.999	0.045	0.084	-0.4010706	-0.1145916	-0.4583664	-137.8766131	84.37952466	126.0278417
7.35	735	1	0.047	0.083	-0.286479	0	-0.6302538	-138.0198526	84.38525424	125.8903318
7.36	736	1.003	0.049	0.085	-0.286479	0	-0.6302538	-137.974016	84.38525424	125.941898
7.37	737	1.006	0.049	0.087	-0.286479	0	-0.572958	-137.9281793	84.37952466	125.9877346
7.38	738	1.007	0.048	0.085	-0.286479	0	-0.4010706	-137.905261	84.37379508	126.0163825
7.39	739	1.005	0.049	0.086	-0.2291832	0	-0.3437748	-137.8823427	84.37379508	126.0450304
7.4	740	1.004	0.05	0.084	-0.1145916	0	-0.1718874	-137.9854751	84.38525424	125.9361684
7.41	741	1.002	0.048	0.082	-0.0572958	0	-0.1718874	-137.9682864	84.38525424	125.9590867
7.42	742	1.002	0.048	0.084	0	0.1145916	-0.1145916	-137.974016	84.38525424	125.9590867
7.43	743	1.003	0.048	0.084	-0.0572958	0.286479	-0.0572958	-137.9854751	84.37952466	125.941898
7.44	744	1.002	0.048	0.085	-0.1145916	0.3437748	-0.0572958	-138.0026639	84.37952466	125.9247092
7.45	745	1.001	0.048	0.085	-0.1145916	0.3437748	-0.0572958	-138.300602	84.38525424	125.6325007
7.46	746	0.998	0.049	0.085	-0.1145916	0.4010706	-0.0572958	-138.3235204	84.37952466	125.6095823
7.47	747	1	0.047	0.086	-0.1718874	0.4583664	-0.0572958	-138.3578978	84.37379508	125.5809344
7.48	748	1.001	0.045	0.085	-0.0572958	0.4583664	-0.1145916	-138.3808162	84.3680655	125.5580161
7.49	749	1.002	0.045	0.084	-0.1145916	0.572958	0	-138.4209232	84.3680655	125.5236386
7.5	750	1.002	0.043	0.084	-0.0572958	0.4583664	-0.1145916	-138.724591	84.39098382	125.2199709
7.51	751	1.003	0.044	0.085	-0.1145916	0.5156622	-0.2291832	-138.7417797	84.38525424	125.2027822
7.52	752	1.004	0.047	0.085	-0.286479	0.7448454	-0.286479	-138.7761572	84.37379508	125.1741343
7.53	753	1.005	0.047	0.085	-0.4010706	0.8021412	-0.286479	-138.8162642	84.3680655	125.1397568
7.54	754	1.004	0.046	0.086	-0.6302538	0.9740286	-0.1718874	-138.8792896	84.35660634	125.082461
7.55	755	1.002	0.045	0.086	-0.6875496	1.0886202	-0.1145916	-139.0339883	84.35660634	124.9334919
7.56	756	1.002	0.045	0.084	-0.7448454	1.0313244	-0.286479	-139.0912841	84.35087676	124.8876553
7.57	757	1.001	0.043	0.088	-0.6875496	1.145916	-0.3437748	-139.1485799	84.3394176	124.836089
7.58	758	1.002	0.043	0.088	-0.8021412	1.0886202	-0.5156622	-139.1944165	84.32795844	124.8017116
7.59	759	1.004	0.044	0.086	-0.8021412	0.859437	-0.5156622	-139.2173348	84.31649928	124.7787932
7.6	760	1.004	0.044	0.087	-0.859437	0.859437	-0.5156622	-139.3433856	84.3107697	124.6699312
7.61	761	1.004	0.045	0.088	-0.9167328	0.9167328	-0.6302538	-139.3605743	84.29931054	124.6584721
7.62	762	1.002	0.043	0.088	-0.9167328	1.0886202	-0.6302538	-139.3949518	84.28785138	124.6355537
7.63	763	1	0.043	0.087	-0.859437	1.0886202	-0.7448454	-139.4178701	84.27639222	124.618365
7.64	764	0.998	0.045	0.084	-0.6875496	0.9167328	-0.9167328	-139.4178701	84.26493306	124.6298242
7.65	765	0.999	0.047	0.083	-0.5156622	0.7448454	-1.0313244	-139.446518	84.25920348	124.6069058
7.66	766	1.004	0.048	0.086	-0.3437748	0.4583664	-1.0313244	-139.406411	84.24774432	124.6527425
7.67	767	1.007	0.049	0.088	-0.4010706	0.4583664	-0.9167328	-139.3720335	84.23628516	124.68712
7.68	768	1.008	0.051	0.088	-0.4583664	0.572958	-0.8021412	-139.3548448	84.23055558	124.7157679
7.69	769	1.009	0.05	0.089	-0.4583664	0.6875496	-0.6875496	-139.3548448	84.21909642	124.7214974
7.7	770	1.007	0.049	0.089	-0.572958	0.7448454	-0.6302538	-139.4178701	84.20763726	124.6642016
7.71	771	1.005	0.049	0.088	-0.572958	0.7448454	-0.4583664	-139.4407885	84.20190768	124.6470129
7.72	772	1.003	0.048	0.087	-0.572958	0.8021412	-0.3437748	-139.4751659	84.19044852	124.618365
7.73	773	1.003	0.048	0.086	-0.5156622	0.9167328	-0.286479	-139.515273	84.18471894	124.5782579
7.74	774	1.002	0.047	0.084	-0.4583664	0.859437	-0.286479	-139.5553801	84.17325978	124.5438805
7.75	775	1	0.049	0.083	-0.3437748	0.8021412	-0.2291832	-139.5725688	84.18471894	124.5324213
7.76	776	1.002	0.05	0.085	-0.0572958	0.4583664	-0.1145916	-139.5954871	84.18471894	124.5152326
7.77	777	1	0.049	0.087	-0.0572958	0.4583664	0	-139.624135	84.17898936	124.4865847
7.78	778	1.002	0.047	0.087	-0.1145916	0.6302538	-0.0572958	-139.6585125	84.17325978	124.4522072
7.79	779	1.003	0.048	0.085	-0.1718874	0.8021412	-0.1145916	-139.7043491	84.1675302	124.4063705
7.8	780	1.002	0.048	0.086	-0.286479	0.9167328	-0.1718874	-139.7902928	84.17325978	124.3261564
7.81	781	1.002	0.047	0.085	0	0.572958	0.0572958	-139.8361295	84.1675302	124.2803198
7.82	782	1	0.047	0.086	0.1718874	0.1145916	0.286479	-139.8647774	84.1675302	124.2459423
7.83	783	1.002	0.046	0.086	0.1718874	0.1145916	0.1718874	-139.8876957	84.1675302	124.223024
7.84	784	1.004	0.045	0.085	0.1718874	0.286479	0.1145916	-139.9163436	84.1675302	124.1943761
7.85	785	1.005	0.048	0.087	0.1718874	0	0.1718874	-140.0252056	84.18471894	124.0797845
7.86	786	1.006	0.049	0.089	0.0572958	-0.1718874	0.3437748	-140.0366648	84.19044852	124.0683253
7.87	787	1.007	0.047	0.091	0	-0.2291832	0.3437748	-140.0481239	84.1961781	124.0625957
7.88	788	1.005	0.044	0.091	0	-0.1145916	0.286479	-140.0595831	84.1961781	124.0511366
7.89	789	1.005	0.041	0.093	-0.2291832	0.1718874	0.2291832	-140.0939606	84.1961781	124.0167591
7.9	790	1.002	0.042	0.092	-0.4583664	0.1718874	0.1718874	-140.3918987	84.20763726	123.7245505
7.91	791	1.001	0.045	0.092	-0.4583664	0.0572958	0	-140.4033579	84.20763726	123.7188209
7.92	792	1.002	0.046	0.09	-0.4010706	0	-0.1145916	-140.3976283	84.20763726	123.7302801
7.93	793	1.002	0.045	0.09	-0.3437748	-0.1145916	-0.2291832	-140.3689804	84.20763726	123.758928
7.94	794	1	0.045	0.089	-0.3437748	-0.0572958	-0.3437748	-140.3460621	84.20190768	123.7933055
7.95	795	1.001	0.046	0.088	-0.2291832	-0.0572958	-0.4583664	-140.4377354	84.21336684	123.7016322
7.96	796	1.003	0.047	0.089	-0.0572958	-0.1718874	-0.572958	-140.3804396	84.21336684	123.758928
7.97	797	1.006	0.048	0.09	0	-0.3437748	-0.572958	-140.3116846	84.20763726	123.8334125
7.98	798	1.008	0.048	0.09	0	-0.5156622	-0.5156622	-140.2314705	84.20763726	123.9078971
7.99	799	1.007	0.049	0.09	0.1145916	-0.5156622	-0.4010706	-140.1627155	84.21336684	123.976652
8	800	1.005	0.049	0.089	0.1718874	-0.286479	-0.4010706	-140.2028226	84.21909642	123.936545
8.01	801	1.006	0.049	0.089	0.1718874	-0.3437748	-0.1718874	-140.1627155	84.21909642	123.976652
8.02	802	1.005	0.049	0.09	0.0572958	-0.2291832	-0.1718874	-140.1283381	84.21909642	124.0052999
8.03	803	1.004	0.048	0.09	0.0572958	-0.286479	-0.1145916	-140.0996902	84.224826	124.0396774
8.04	804	1.003	0.048	0.088	0	-0.286479	-0.0572958	-140.0710423	84.224826	124.0625957
8.05	805	1.002	0.048	0.089	0.0572958	-0.2291832	0	-140.3116846	84.24201474	123.8334125
8.06	806	1.001	0.048	0.088	0.0572958	-0.1145916	0	-140.3002255	84.24201474	123.8391421
8.07	807	1.001	0.048	0.088	0	0.0572958	-0.0572958	-140.3002255	84.24201474	123.8391421
8.08	808	1.002	0.048	0.089	0	0	0	-140.2944959	84.24201474	123.8448717
8.09	809	1.003	0.047	0.091	0	-0.1718874	0	-140.2830367	84.24201474	123.8563309
8.1	810	1.004	0.047	0.088	-0.1145916	-0.1718874	-0.0572958	-140.3976283	84.26493306	123.7417393
8.11	811	1.003	0.049	0.088	-0.1718874	-0.1145916	0	-140.3976283	84.26493306	123.7474688
8.12	812	1.002	0.049	0.087	-0.0572958	-0.2291832	0.0572958	-140.3861692	84.27066264	123.758928
8.13	813	1.001	0.048	0.086	0	-0.3437748	0.1145916	-140.37471	84.27066264	123.7703872
8.14	814	1.004	0.047	0.089	-0.0572958	-0.3437748	0.1145916	-140.3632508	84.27639222	123.7875759
8.15	815	1.006	0.048	0.089	-0.1145916	-0.286479	0.2291832	-140.4950312	84.2821218	123.6557956
8.16	816	1.006	0.048	0.09	0	-0.286479	0.286479	-140.4950312	84.28785138	123.6557956
